,attitude.roll,attitude.pitch,attitude.yaw,gravity.x,gravity.y,gravity.z,rotationRate.x,rotationRate.y,rotationRate.z,userAcceleration.x,userAcceleration.y,userAcceleration.z
0,-2.480983,-0.99134,-0.496542,-0.335985,0.8367600000000001,0.432367,0.18224300000000002,-1.476564,0.520081,0.253252,-0.6424850000000001,-0.09449199999999999
1,-2.516591,-1.007933,-0.50531,-0.312212,0.8457309999999999,0.432734,0.687342,-1.358966,0.7766270000000001,0.190859,-0.488126,0.034459
2,-2.54907,-1.0313729999999999,-0.514256,-0.28684299999999996,0.8580049999999999,0.42608,0.8519120000000001,-1.193781,0.8833190000000001,0.176125,-0.109577,0.478034
3,-2.582593,-1.0522209999999999,-0.527967,-0.262857,0.868526,0.420196,0.518446,-0.912207,0.820809,0.062065999999999996,0.035283,0.715256
4,-2.605786,-1.059735,-0.5479649999999999,-0.249702,0.8722260000000001,0.420555,-0.22909200000000002,0.033389,0.49604499999999996,0.245628,-0.389331,0.374229
5,-2.629778,-1.054176,-0.5827600000000001,-0.241912,0.8694940000000001,0.43064600000000003,-0.7475109999999999,0.349333,0.7911159999999999,0.563125,-0.30794,-0.603299
6,-2.6701799999999998,-1.058929,-0.626341,-0.222442,0.8718309999999999,0.436379,0.019082,-0.208353,1.0621049999999999,0.164107,0.216959,-0.164101
7,-2.670315,-1.071066,-0.641562,-0.21756199999999998,0.877712,0.42694899999999997,0.600903,1.041066,0.329631,0.040041,0.529774,-0.083276
8,-2.640327,-1.09378,-0.62867,-0.220627,0.8883690000000001,0.402643,1.353365,0.816024,0.277491,0.15704400000000002,-0.001299,-0.030862999999999998
9,-2.593953,-1.1182,-0.602557,-0.22769,0.899315,0.373346,1.329524,1.396771,-0.010771,0.23208499999999999,-0.116752,-0.062357
10,-2.5388319999999998,-1.136858,-0.5754,-0.238357,0.907317,0.346351,0.924816,1.622681,0.055547000000000006,0.22074899999999997,-0.18707200000000002,-0.14113499999999998
11,-2.484888,-1.148625,-0.557381,-0.25015,0.912201,0.324517,0.68014,2.002832,0.039464,-0.045870999999999995,0.29775999999999997,0.21158600000000002
12,-2.422246,-1.162275,-0.531818,-0.261745,0.917709,0.298825,1.031879,1.918554,0.031346,-0.043675,0.403534,0.194522
13,-2.335959,-1.18323,-0.478735,-0.27259099999999997,0.925832,0.261776,1.7288029999999999,1.866486,-0.07267699999999999,0.095604,-0.014943000000000001,0.056063999999999996
14,-2.219709,-1.2064549999999998,-0.392571,-0.283902,0.934359,0.215337,2.0316099999999997,1.742189,-0.153724,0.212094,-0.133196,0.086787
15,-2.0966110000000002,-1.227799,-0.294574,-0.290876,0.941751,0.168798,1.9535330000000002,1.426326,0.049097,0.223967,-0.244592,0.088907
16,-1.984791,-1.248029,-0.201979,-0.290392,0.948361,0.12759500000000001,1.7194880000000001,1.124617,0.310632,0.021593,-0.267117,0.028731
17,-1.878516,-1.26885,-0.11155999999999999,-0.283406,0.954759,0.090071,1.6619259999999998,0.931977,0.582873,0.08488899999999999,-0.26202600000000004,0.010515
18,-1.7653290000000001,-1.289994,-0.00856,-0.271895,0.960833,0.053570000000000007,1.7186279999999998,0.573519,0.664913,0.16328299999999998,-0.262912,0.063419
19,-1.640089,-1.30613,0.110332,-0.260955,0.9651799999999999,0.018111000000000002,1.6574259999999998,0.577519,0.517066,0.300795,-0.270798,0.155686
20,-1.505058,-1.3140180000000001,0.232186,-0.253413,0.9672129999999999,-0.016683,1.537676,1.041035,0.324424,0.22994499999999998,-0.254887,0.141958
21,-1.365337,-1.3144799999999999,0.353231,-0.248183,0.9673299999999999,-0.051721,1.491951,1.1674799999999999,0.17866400000000002,0.141524,-0.24584899999999998,0.150583
22,-1.231919,-1.3090600000000001,0.46611099999999994,-0.24403899999999998,0.965942,-0.086017,1.45931,1.207236,0.12177,-0.097605,-0.32066300000000003,0.0947
23,-1.114492,-1.301944,0.569493,-0.238445,0.9640770000000001,-0.117041,1.311933,0.615904,0.27532199999999996,-0.240971,-0.28739499999999996,0.11896400000000001
24,-1.021325,-1.297405,0.6603140000000001,-0.230253,0.9628610000000001,-0.141002,1.082402,-0.046232,0.357888,-0.23684899999999998,-0.187653,0.062724
25,-0.9549979999999999,-1.2906,0.737356,-0.22574499999999997,0.961001,-0.15973299999999999,1.0208700000000002,-0.516576,0.284354,-0.000375,-0.13283,0.09654700000000001
26,-0.897277,-1.283372,0.810242,-0.22157800000000002,0.9589770000000001,-0.176819,1.071895,-0.79161,0.28826799999999997,0.013127000000000002,-0.05053,0.15805
27,-0.842558,-1.275361,0.881473,-0.21730300000000002,0.956675,-0.19378,0.991317,-0.586106,0.381445,-0.019758,0.063665,0.119073
28,-0.801833,-1.2669290000000002,0.937924,-0.215022,0.9541870000000001,-0.20806799999999998,0.8489760000000001,-0.635985,0.191439,-0.020741,0.25871900000000003,0.131698
29,-0.774508,-1.257139,0.980497,-0.21578000000000003,0.9512120000000001,-0.220532,0.797083,-0.642888,0.09815,0.180884,0.45693100000000003,0.191434
30,-0.74469,-1.246386,1.019867,-0.21603000000000003,0.947839,-0.234375,0.836945,-0.11558,0.064638,0.244533,0.451117,0.22959899999999997
31,-0.695318,-1.234275,1.061653,-0.21153899999999998,0.943909,-0.25354699999999997,0.935788,0.843512,0.159171,0.036535000000000005,0.49392700000000006,0.350319
32,-0.628282,-1.222756,1.107872,-0.200457,0.9400430000000001,-0.275927,0.919032,1.2851190000000001,0.294153,-0.221433,0.753332,0.087938
33,-0.57019,-1.210648,1.1470129999999998,-0.190229,0.935845,-0.29666,0.857792,0.771533,0.11171700000000001,-0.176272,0.789696,0.094832
34,-0.543235,-1.1951379999999998,1.167276,-0.189645,0.930266,-0.31406799999999996,0.803605,0.313677,-0.160471,0.24611799999999998,0.94066,0.32803000000000004
35,-0.524256,-1.185033,1.174234,-0.188346,0.9265120000000001,-0.325731,0.254583,0.88126,-0.165034,0.31793899999999997,0.7422810000000001,0.271913
36,-0.516271,-1.185746,1.159943,-0.18541300000000002,0.9267799999999999,-0.32665,-0.383341,1.061683,-0.24236,0.146122,0.387216,0.42886899999999994
37,-0.533808,-1.195162,1.123764,-0.186665,0.930275,-0.315822,-0.9796229999999999,0.633192,-0.461757,-0.044704,0.10662100000000001,0.541042
38,-0.602058,-1.2118280000000001,1.041901,-0.198959,0.93626,-0.289538,-1.8065639999999998,0.313318,-1.00337,-0.045105,-0.226055,0.347048
39,-0.729658,-1.228456,0.9056569999999999,-0.223777,0.9419719999999999,-0.250225,-2.191682,-0.181868,-1.509627,0.135855,-0.304871,0.324627
40,-0.905515,-1.2375209999999999,0.723453,-0.257374,0.944976,-0.20193599999999998,-2.763077,-0.12653499999999998,-1.797836,0.458241,0.179292,0.518175
41,-1.1104459999999998,-1.243025,0.5242,-0.288418,0.9467620000000001,-0.143023,-2.526119,-1.6679169999999999,-1.222707,0.638699,0.300964,-0.672407
42,-1.253675,-1.233284,0.42239799999999994,-0.314628,0.943581,-0.10325999999999999,-0.8459709999999999,-2.318695,-1.107588,0.49935100000000004,0.268897,0.058079
43,-1.355841,-1.217678,0.343461,-0.337865,0.938299,-0.073766,-1.508321,-0.7678159999999999,-1.025539,0.737355,0.250681,0.145894
44,-1.4717040000000001,-1.207354,0.226669,-0.353749,0.934679,-0.035169,-2.125941,-0.228816,-0.7496010000000001,0.698017,0.295744,0.249586
45,-1.578566,-1.193604,0.10264000000000001,-0.368299,0.929702,0.002861,-2.165639,0.8538620000000001,-0.8046770000000001,0.702146,0.315888,0.092948
46,-1.652105,-1.179718,-0.00126,-0.379925,0.924499,0.030958999999999997,-1.876577,1.231579,-0.408968,0.653454,0.071839,0.169068
47,-1.715366,-1.174458,-0.099351,-0.38201399999999996,0.922481,0.055616,-1.9570490000000003,1.445884,0.146739,0.18188,-0.23986300000000002,0.099734
48,-1.7810560000000002,-1.175319,-0.20524499999999998,-0.376763,0.9228129999999999,0.08040599999999999,-2.0049259999999998,1.6722709999999998,0.583017,0.114647,-0.31713,0.042564
49,-1.851257,-1.182601,-0.31558800000000004,-0.363728,0.925594,0.104773,-1.902471,1.392168,1.010312,0.064426,-0.338756,-0.034201
50,-1.9302540000000001,-1.192468,-0.420712,-0.34575900000000004,0.929283,0.129931,-1.568683,0.722771,1.088277,0.027568000000000002,-0.42376,-0.069796
51,-1.9981099999999998,-1.201912,-0.5030680000000001,-0.328152,0.93273,0.14943199999999998,-0.9417780000000001,0.257726,0.9575879999999999,0.091153,-0.494879,-0.132708
52,-2.038059,-1.2132690000000002,-0.54668,-0.312444,0.936765,0.157636,-0.165668,-0.058487,0.774339,0.220831,-0.5939909999999999,-0.010709999999999999
53,-2.0426189999999997,-1.2265709999999999,-0.553049,-0.300595,0.9413370000000001,0.153382,0.385703,0.154576,0.561068,0.412793,-0.783058,0.06552100000000001
54,-2.020991,-1.240054,-0.5358609999999999,-0.292387,0.945801,0.141309,0.624898,0.316159,0.438618,0.44476099999999996,-0.841599,0.12875599999999998
55,-1.984648,-1.25314,-0.5078010000000001,-0.28597100000000003,0.9499700000000001,0.125604,0.686234,0.634605,0.403387,0.35459,-0.737537,0.226752
56,-1.944295,-1.2641209999999998,-0.48089799999999994,-0.281077,0.953342,0.110152,0.5016510000000001,0.7645649999999999,0.297247,0.071574,-0.456135,0.6606609999999999
57,-1.9149909999999999,-1.269552,-0.47059399999999996,-0.279305,0.954968,0.100121,0.033687,1.175876,0.141764,0.028710000000000003,-0.370633,0.817878
58,-1.915216,-1.267728,-0.501782,-0.280921,0.954425,0.100771,-0.7663310000000001,1.558408,0.011772,-0.104852,0.096677,0.626508
59,-1.946623,-1.2576049999999999,-0.562137,-0.286591,0.951355,0.11308399999999999,-1.1036489999999999,0.995074,-0.27721399999999996,-0.09353600000000001,0.25454699999999997,0.475524
60,-1.9853040000000002,-1.241236,-0.61144,-0.29622,0.946185,0.13033699999999998,-0.8711270000000001,0.040697000000000004,-0.506171,0.092484,0.41474700000000003,0.47653599999999996
61,-2.013314,-1.2291159999999999,-0.6341760000000001,-0.302796,0.9421930000000001,0.143483,-0.48058999999999996,-0.470625,-0.314781,0.809891,0.687751,0.39162800000000003
62,-2.055175,-1.22122,-0.670403,-0.303101,0.9395180000000001,0.15948800000000002,-0.8915379999999999,-0.11181400000000001,0.087813,0.9418639999999999,0.671261,0.404004
63,-2.0816049999999997,-1.219307,-0.711462,-0.300346,0.9388610000000001,0.16832,-0.611362,1.01213,0.357522,0.6921619999999999,0.40319499999999997,0.10115
64,-2.092812,-1.221653,-0.7562800000000001,-0.296532,0.939666,0.170577,-0.684242,1.7767439999999999,0.48421899999999996,0.54792,0.41647399999999996,-0.170318
65,-2.113795,-1.217958,-0.8211069999999999,-0.295858,0.9383959999999999,0.178554,-1.200441,2.156192,0.3466,0.319677,0.510732,-0.214718
66,-2.10395,-1.213047,-0.86088,-0.301566,0.936687,0.177973,-0.309286,2.38551,0.036337,0.278418,0.356571,-0.155084
67,-2.0559369999999997,-1.2124629999999998,-0.8589610000000001,-0.310244,0.936483,0.163549,0.070675,2.30687,-0.07414,0.031908,0.010478,-0.033895
68,-1.984798,-1.211986,-0.8394159999999999,-0.321493,0.936315,0.141263,0.46224899999999997,2.8155490000000003,-0.282496,-0.052408,-0.014333000000000002,-0.191983
69,-1.886032,-1.2077200000000001,-0.791968,-0.33765100000000003,0.934809,0.11011199999999999,0.8285950000000001,2.607741,-0.5798409999999999,0.204915,0.079046,-0.233692
70,-1.7741509999999998,-1.204392,-0.72665,-0.350878,0.933622,0.072353,1.2228569999999999,2.521166,-0.317399,0.313448,0.19325499999999998,-0.296306
71,-1.6612740000000001,-1.205575,-0.657663,-0.355695,0.9340450000000001,0.032271,1.183566,2.3858759999999997,-0.017329,0.334806,0.143287,-0.20486300000000002
72,-1.553755,-1.208816,-0.5970979999999999,-0.354074,0.935197,-0.006034,1.012338,2.71162,0.18829200000000001,0.38607199999999997,0.072402,-0.140221
73,-1.446272,-1.2147379999999999,-0.549172,-0.345883,0.9372780000000001,-0.043295,0.6877909999999999,3.4126019999999997,0.461797,0.578106,-0.069251,-0.049997
74,-1.329598,-1.2258,-0.511703,-0.32840199999999997,0.941077,-0.08078300000000001,0.479133,4.54125,0.778291,0.48511000000000004,-0.07521699999999999,-0.024076
75,-1.181151,-1.239344,-0.46846099999999996,-0.301023,0.9455709999999999,-0.12361199999999999,0.44827700000000004,5.833189,0.865083,0.31348899999999996,-0.100631,-0.04779
76,-1.01411,-1.249601,-0.423608,-0.268032,0.948859,-0.16680799999999998,0.404158,6.333473000000001,0.735947,-0.118976,-0.121939,-0.382981
77,-0.8476020000000001,-1.25501,-0.375724,-0.232828,0.9505520000000001,-0.205525,0.47564399999999996,5.760504,0.636767,-0.17770999999999998,0.021249,-0.090175
78,-0.697702,-1.255898,-0.327444,-0.198982,0.9508280000000001,-0.237344,0.47108199999999995,4.879951999999999,0.5331779999999999,-0.22701300000000002,-0.010535,0.135812
79,-0.5655979999999999,-1.25292,-0.284715,-0.167501,0.949901,-0.263875,0.556122,4.443416,0.40294,-0.328913,-0.12273800000000001,0.196492
80,-0.45633900000000005,-1.250908,-0.254761,-0.138571,0.9492709999999999,-0.282281,0.23089099999999999,3.6991370000000003,0.33111999999999997,-0.43836400000000003,-0.154852,0.17618599999999998
81,-0.368519,-1.247303,-0.226658,-0.11451099999999999,0.948131,-0.296538,0.343634,2.6845529999999997,0.343889,-0.462424,-0.153712,0.190444
82,-0.300127,-1.241725,-0.196651,-0.095541,0.946343,-0.308718,0.434647,1.603912,0.37795700000000004,-0.483515,-0.15421300000000002,0.40407
83,-0.248781,-1.235989,-0.169747,-0.08090499999999999,0.9444739999999999,-0.31847,0.397552,1.128087,0.321691,-0.28934899999999997,-0.07524199999999999,0.584889
84,-0.20507399999999998,-1.2318959999999999,-0.142907,-0.0677,0.9431209999999999,-0.32548299999999997,0.22918400000000003,0.817134,0.44055500000000003,-0.19406500000000002,0.029626999999999997,0.623625
85,-0.15943,-1.231959,-0.112106,-0.052769,0.943142,-0.32817399999999997,0.014611,0.8930959999999999,0.544712,-0.065746,0.142002,0.803867
86,-0.09919800000000001,-1.235066,-0.074947,-0.032628,0.9441700000000001,-0.327838,-0.10801199999999998,1.48965,0.650982,-0.27729299999999996,0.211042,0.5679810000000001
87,-0.041904000000000004,-1.236451,-0.049156,-0.013747,0.944625,-0.327862,0.010162000000000001,1.728476,0.23169,-0.357942,0.363007,0.814785
88,-0.004838,-1.2393399999999999,-0.05117,-0.001574,0.9455690000000001,-0.325415,-0.32643,1.99092,-0.105351,-0.286252,0.3492,0.5991890000000001
89,0.032070999999999995,-1.247263,-0.05264099999999999,0.010194,0.948118,-0.317754,-0.373623,1.7872560000000002,-0.015688999999999998,-0.49592700000000006,0.182314,0.421849
90,0.059605,-1.2572290000000002,-0.057352999999999994,0.018374,0.951239,-0.30790500000000004,-0.665533,1.4842440000000001,-0.176505,-0.616321,0.284677,0.157637
91,0.050741,-1.278114,-0.09061,0.014634000000000001,0.9574729999999999,-0.288148,-1.223965,1.015649,-0.788691,-0.003083,0.45207299999999995,0.150132
92,0.017658,-1.3146719999999998,-0.144031,0.0044729999999999995,0.9673790000000001,-0.253291,-2.109995,0.744638,-0.71228,0.22837600000000002,0.375349,-0.278233
93,-0.034578,-1.361656,-0.20931999999999998,-0.007178,0.97821,-0.207492,-2.560896,0.47823000000000004,-0.8315239999999999,0.321966,0.619538,-0.045926
94,-0.169799,-1.421395,-0.358636,-0.025152,0.9888600000000001,-0.1467,-3.3589870000000004,0.6568579999999999,-1.120407,0.25752800000000003,0.614884,0.006502
95,-0.548778,-1.47953,-0.7517729999999999,-0.047538,0.9958379999999999,-0.077749,-3.494555,0.5628350000000001,-1.1992129999999999,0.14394300000000002,0.318096,0.068624
96,-1.433658,-1.5006110000000001,-1.658163,-0.06946000000000001,0.9975379999999999,-0.009586,-3.490293,1.137661,-1.0973709999999999,0.199495,0.460424,0.059619000000000005
97,-2.171437,-1.4628219999999998,-2.42065,-0.088897,0.9941760000000001,0.060901,-3.6928,0.9499040000000001,-0.8549899999999999,0.038985,0.533198,0.106823
98,-2.48516,-1.398871,-2.746771,-0.104406,0.9852569999999999,0.135521,-3.909568,0.110608,-0.702673,-0.166575,0.372363,-0.0792
99,-2.642029,-1.32866,-2.898793,-0.11486199999999999,0.970828,0.210471,-3.553861,-0.531712,-0.488926,-0.330374,-0.212695,0.111321
100,-2.745632,-1.273317,-3.0020580000000003,-0.113051,0.9560780000000001,0.27043,-2.913268,-0.043125,0.380183,-0.010332,-0.577843,0.031557
101,-2.841118,-1.2243979999999999,-3.102678,-0.100486,0.940602,0.324298,-2.791166,-0.00471,0.790115,-0.018517,-0.426472,0.041928
102,-2.9218490000000004,-1.176442,3.094608,-0.08375,0.9232450000000001,0.37497199999999997,-2.622015,-0.031193000000000002,0.872516,-0.020818,-0.257046,-0.013049000000000002
103,-2.974212,-1.133346,3.040251,-0.070577,0.9058350000000001,0.41771,-2.121841,-0.198731,0.5119600000000001,-0.070796,-0.060009,-0.071824
104,-3.005903,-1.098358,3.01153,-0.06155700000000001,0.8904610000000001,0.450875,-1.659703,-0.392221,0.280428,-0.100354,-0.22168400000000002,-0.199197
105,-3.0311779999999997,-1.0702909999999999,2.9951119999999998,-0.052877,0.87734,0.476945,-1.315724,-0.593443,0.220063,-0.098811,-0.41765399999999997,-0.19009500000000001
106,-3.055418,-1.049712,2.977521,-0.042845999999999995,0.8672799999999999,0.495972,-0.8820319999999999,-0.299512,0.397904,-0.034424,-0.64679,0.06399500000000001
107,-3.074983,-1.038598,2.957163,-0.033775,0.8616940000000001,0.506302,-0.45028999999999997,-0.030874000000000002,0.509533,-0.013238,-0.47830200000000006,0.330337
108,-3.09622,-1.034071,2.931605,-0.023191999999999997,0.8593879999999999,0.5107970000000001,-0.164076,0.014121000000000002,0.73046,-0.036592,-0.42611400000000005,0.36693400000000004
109,-3.126957,-1.0335809999999999,2.897436,-0.007489,0.859137,0.51169,0.013772,-0.12885,0.8985280000000001,-0.294558,-0.11681199999999999,0.45005600000000007
110,3.123247,-1.035377,2.865284,0.009359000000000001,0.8600549999999999,0.510115,0.123491,-0.352194,0.712642,-0.545721,0.10646800000000001,0.6037
111,3.100381,-1.036074,2.845348,0.020996,0.86041,0.509169,-0.060216,-0.22993899999999998,0.402486,-0.5364979999999999,0.271136,0.666429
112,3.08783,-1.031033,2.835025,0.027617000000000003,0.8578309999999999,0.5131899999999999,-0.19058699999999998,-0.196892,0.243436,0.024019,-0.42794499999999996,0.09025
113,3.069973,-1.037485,2.8144259999999997,0.036379,0.861129,0.507084,0.550345,0.163964,0.73419,0.909742,0.08415299999999999,-0.33884000000000003
114,3.039533,-1.035367,2.7684990000000003,0.05198200000000001,0.86005,0.507555,-0.5175569999999999,0.647402,1.44182,0.9934290000000001,0.66203,0.328612
115,3.035155,-1.033447,2.731932,0.054379,0.859068,0.5089640000000001,0.774556,2.179209,0.337931,0.19778800000000002,0.197755,-0.186607
116,3.0786689999999997,-1.056994,2.722248,0.030906,0.8708819999999999,0.490519,1.024828,2.475865,0.260251,0.341622,0.246824,-0.25864699999999996
117,3.102322,-1.075321,2.699871,0.018666,0.879743,0.475083,0.9735209999999999,2.029602,0.548884,-0.015386000000000002,-0.08888,-0.498612
118,3.1200650000000003,-1.091661,2.673447,0.009923999999999999,0.887394,0.460905,0.801502,2.036342,0.610699,-0.43591899999999995,0.406475,-0.090086
119,3.130857,-1.110555,2.641634,0.004768,0.8959450000000001,0.444139,1.098891,1.904671,0.7795880000000001,-0.36338000000000004,0.406454,-0.032045
120,3.13817,-1.138819,2.606818,0.001433,0.90814,0.41866400000000004,1.596734,1.9746299999999999,0.7017909999999999,-0.280593,0.29027,-0.025948000000000002
121,-3.133011,-1.172717,2.57515,-0.003326,0.9218069999999999,0.387633,1.712775,2.059837,0.605284,-0.076172,-0.12625999999999998,-0.12206900000000001
122,-3.1175490000000003,-1.2069,2.548033,-0.008556999999999999,0.934517,0.355815,1.707709,1.997495,0.482483,-0.016849,-0.181557,-0.101588
123,-3.099765,-1.241846,2.525559,-0.013508000000000001,0.946382,0.322765,1.752393,1.922957,0.435889,-0.015193,-0.14789000000000002,-0.08065399999999999
124,-3.0884240000000003,-1.276785,2.4971419999999998,-0.015401,0.957089,0.28938200000000003,1.6899110000000002,1.933246,0.580717,-0.21519000000000002,-0.057964999999999996,-0.150573
125,-3.089226,-1.3100379999999998,2.4571240000000003,-0.013493999999999999,0.966195,0.257458,1.583366,1.7938020000000001,0.646382,-0.318705,-0.090142,-0.15195799999999998
126,-3.0987810000000002,-1.341233,2.4154310000000003,-0.009739,0.973766,0.22734000000000001,1.551118,1.38426,0.52704,-0.26969499999999996,-0.256023,-0.158371
127,-3.114357,-1.373758,2.376572,-0.005331,0.980651,0.19569,1.639129,0.935837,0.436363,-0.104349,-0.31938,-0.059489999999999994
128,-3.13994,-1.4063709999999998,2.33343,-0.000271,0.9865120000000001,0.16368,1.574959,0.884992,0.41995600000000005,-0.045658,-0.276384,-0.05790599999999999
129,3.103171,-1.43781,2.2725419999999996,0.005093,0.9911700000000001,0.13249,1.632423,1.0872030000000001,0.417962,-0.203289,-0.037023,-0.067549
130,3.049547,-1.472329,2.193984,0.009035,0.9951559999999999,0.097885,1.8077400000000001,1.247007,0.263021,-0.42028999999999994,0.351127,0.108002
131,3.00101,-1.506437,2.1221810000000003,0.009011,0.9979299999999999,0.06367300000000001,1.613969,1.06873,-0.0072959999999999995,-0.41108,0.454829,0.26367399999999996
132,2.963381,-1.532681,2.065532,0.006753,0.999274,0.037491000000000003,1.144032,0.919248,-0.046706,-0.386865,0.169595,0.306381
133,2.706537,-1.550936,1.79272,0.008361,0.9998030000000001,0.017988999999999998,0.9137059999999999,0.746369,0.22857600000000003,-0.42060699999999995,0.15512,0.322861
134,1.945548,-1.556917,1.020694,0.012888,0.9999040000000001,0.005069,0.445639,0.459776,0.110306,-0.313242,0.2515,0.41068699999999997
135,2.13481,-1.557088,1.1990239999999999,0.011562000000000001,0.999906,0.007314,-0.526571,0.592132,-0.177597,0.08949700000000001,0.285571,-0.131719
136,3.02542,-1.5386389999999999,2.075544,0.003725,0.999483,0.031921,-1.506634,0.8609319999999999,-0.48068500000000003,0.22379899999999997,0.304777,0.079574
137,-3.027513,-1.5030700000000001,2.2883150000000003,-0.007703,0.997707,0.067226,-1.956373,0.679485,-0.535937,0.013378999999999999,0.385441,-0.22733699999999998
138,-2.960517,-1.459967,2.3545689999999997,-0.019916999999999997,0.993865,0.108787,-2.1251740000000003,-0.284261,-0.737775,-0.340954,0.25786,-0.22975900000000002
139,-2.892274,-1.4079709999999999,2.432872,-0.039998,0.986773,0.15709,-2.595365,-0.460713,-1.2247370000000002,-0.149364,0.227186,-0.036239999999999994
140,-2.8475200000000003,-1.34968,2.49202,-0.063569,0.9756530000000001,0.20989899999999997,-2.667504,-0.945818,-1.327169,0.069459,0.355661,-0.137908
141,-2.8541990000000004,-1.292042,2.510354,-0.07799400000000001,0.961399,0.26387,-2.691466,-1.2811219999999999,-0.8387290000000001,-0.066843,0.359631,-0.004288
142,-2.8899779999999997,-1.239396,2.501574,-0.081005,0.9455879999999999,0.315119,-2.518926,-1.433491,-0.447428,-0.057879999999999994,0.009109,-0.38717199999999996
143,-2.9337400000000002,-1.195429,2.488108,-0.075654,0.930373,0.358721,-1.9478810000000002,-1.6153959999999998,-0.208197,0.156937,-0.20800700000000003,-0.229677
144,-2.965574,-1.159102,2.482616,-0.07007200000000001,0.916444,0.39397600000000005,-1.7965959999999999,-1.01591,-0.27307,0.304386,-0.09352200000000001,-0.197351
145,-2.979108,-1.123334,2.481076,-0.069995,0.9015479999999999,0.42697799999999997,-1.750834,-0.319419,-0.262961,0.491671,-0.010190000000000001,0.004983
146,-2.9753700000000003,-1.08766,2.475294,-0.076865,0.885542,0.458154,-1.7869169999999999,0.878315,-0.05644400000000001,0.21424,-0.20512199999999997,-0.06813999999999999
147,-2.966513,-1.054984,2.456429,-0.08591599999999999,0.869892,0.4857,-1.603812,1.362091,0.281773,0.065012,-0.156437,-0.156217
148,-2.9657970000000002,-1.028139,2.430459,-0.090316,0.85634,0.5084529999999999,-1.3343120000000002,0.986461,0.47748500000000005,-0.312027,0.057586,-0.179901
149,-2.980142,-1.008351,2.406438,-0.085721,0.8459540000000001,0.52632,-0.918748,-0.181055,0.377198,-0.7873720000000001,0.6336149999999999,-0.061034000000000005
150,-3.005101,-0.995137,2.399416,-0.074074,0.838834,0.539324,-0.533349,-1.303321,-0.089758,-0.767342,0.287036,-0.181032
151,-3.0323990000000003,-0.9913790000000001,2.402559,-0.05966900000000001,0.836782,0.5442739999999999,0.019387,-1.7261630000000001,-0.054376999999999995,-0.23601599999999998,-0.535558,0.061073
152,-3.070659,-0.996343,2.395263,-0.038511000000000004,0.83949,0.542008,0.272032,-1.325106,0.396596,-0.023622999999999998,-0.596234,0.339492
153,-3.1044869999999998,-1.0032219999999998,2.3739060000000003,-0.019943000000000002,0.843208,0.5372170000000001,0.310501,-0.544504,0.690693,0.026412,-0.54882,0.129592
154,-3.138766,-1.017056,2.342797,-0.001486,0.850563,0.52587,0.91909,-0.409227,0.965031,0.266333,-0.533852,0.129221
155,3.087361,-1.0363229999999999,2.288859,0.027611,0.8605370000000001,0.5086390000000001,0.918952,-0.730398,1.627739,0.459388,-0.292575,0.156843
156,3.004159,-1.041308,2.214444,0.069198,0.863066,0.500329,0.323794,-0.719586,1.8372130000000002,-0.640991,0.164202,-0.7907649999999999
157,3.008569,-1.05006,2.180719,0.065986,0.867453,0.493123,0.766821,3.152454,0.182806,-0.082237,0.534097,0.110347
158,3.032797,-1.061165,2.1577759999999997,0.052972000000000005,0.872925,0.48496999999999996,0.7968930000000001,1.04456,0.883266,0.181647,0.295746,-0.417099
159,3.013322,-1.082553,2.116041,0.060003999999999995,0.883158,0.465221,1.098372,1.4205020000000002,0.6477430000000001,-0.529944,0.288137,-0.264385
160,3.032736,-1.101064,2.1014779999999997,0.049176,0.891689,0.44996800000000003,0.9642870000000001,1.374372,0.046525,-0.30116,0.16626300000000002,-0.20941300000000002
161,3.047227,-1.1240629999999998,2.0923950000000002,0.040707,0.901863,0.43009899999999995,1.293379,1.1150010000000001,0.15491,-0.217877,0.10949,-0.23641900000000002
162,3.051647,-1.1501299999999999,2.072167,0.036681,0.912817,0.406717,1.335479,1.184366,0.35380500000000004,-0.137206,0.02717,-0.159601
163,3.056937,-1.175502,2.04679,0.032560000000000006,0.922883,0.38369899999999996,1.299548,1.5539180000000001,0.409696,-0.061338,-0.19908299999999998,-0.171235
164,3.061073,-1.20099,2.0158,0.029071,0.9323969999999999,0.360263,1.309073,1.658855,0.532474,-0.08166799999999999,-0.15279500000000001,-0.238925
165,3.045969,-1.2255530000000001,1.968906,0.032312,0.9409930000000001,0.336878,1.310176,1.246481,0.8257030000000001,-0.196497,-0.130294,-0.23655199999999998
166,3.001361,-1.250556,1.9029619999999998,0.043999,0.94916,0.311701,1.399945,0.682176,0.9413520000000001,-0.305794,0.031125999999999997,-0.076762
167,2.941714,-1.27355,1.8290369999999998,0.058151999999999995,0.956147,0.287054,1.258381,0.43798100000000006,0.859492,-0.249635,0.11808699999999998,-0.12253399999999999
168,2.8850290000000003,-1.2959049999999999,1.765361,0.06888,0.962455,0.262554,1.33911,0.185817,0.44697700000000007,-0.19151500000000002,0.12191099999999999,-0.033291
169,2.8500330000000003,-1.322524,1.7217259999999999,0.070634,0.9693379999999999,0.235357,1.479908,0.513885,0.068321,-0.011368000000000001,0.011237,-0.03536
170,2.829126,-1.350843,1.688654,0.067071,0.975908,0.207618,1.443685,0.582913,-0.11255,-0.22039099999999998,0.07864299999999999,0.099832
171,2.819764,-1.377227,1.662336,0.060844,0.981324,0.18248499999999998,1.2664799999999998,0.954571,-0.194381,-0.334144,0.183166,0.14415999999999998
172,2.818625,-1.402916,1.6424880000000002,0.053032,0.985941,0.158452,1.27243,0.801363,-0.247554,-0.556709,0.357229,0.157435
173,2.790861,-1.427646,1.603458,0.049016000000000004,0.989771,0.133975,1.251427,0.38402600000000003,-0.026044,-0.572133,0.185842,0.31856999999999996
174,2.706185,-1.448919,1.5143799999999998,0.051278,0.992582,0.110232,1.1718469999999999,0.003058,0.20889699999999997,-0.597878,0.08597,0.290998
175,2.5888400000000003,-1.466389,1.4019409999999999,0.054717999999999996,0.994554,0.088698,0.9890180000000001,-0.386996,0.14189000000000002,-0.507995,-0.171022,0.100755
176,2.457143,-1.478695,1.283173,0.058148000000000005,0.995762,0.071256,0.741938,-0.810992,0.093706,-0.048993,-0.197574,-0.288525
177,2.3723349999999996,-1.4848350000000001,1.216274,0.05971900000000001,0.996308,0.061678,0.21561999999999998,-1.0535,-0.076302,-0.050563,-0.19812000000000002,-0.27894800000000003
178,2.4296029999999997,-1.487676,1.297334,0.05424,0.996547,0.062851,-0.416447,-1.141065,-0.53994,0.201573,0.689778,0.009918000000000001
179,2.703379,-1.476353,1.5875290000000002,0.040012,0.9955440000000001,0.085386,-1.636986,-0.49749399999999994,-0.849461,0.06550299999999999,0.8380290000000001,-0.043561
180,2.9684150000000002,-1.439712,1.860466,0.022522,0.9914209999999999,0.128747,-2.4126220000000003,-0.35380300000000003,-0.9458620000000001,-0.110779,0.070148,-0.406518
181,3.120071,-1.392516,2.028119,0.0038159999999999995,0.98415,0.17729,-2.426905,-0.926956,-1.190918,-0.237459,-0.43486400000000003,-0.370634
182,-3.047014,-1.342172,2.17028,-0.021402,0.973979,0.22561900000000001,-2.55345,-1.31129,-1.670941,-0.092581,0.15160099999999999,-0.218844
183,-2.9939,-1.281599,2.2589919999999997,-0.041964999999999995,0.9584729999999999,0.282072,-3.084003,-1.696663,-1.275707,-0.11282,0.629067,0.026476999999999997
184,-3.004616,-1.218344,2.284465,-0.047136000000000004,0.9385290000000001,0.341961,-2.976009,-1.911774,-0.589946,-0.06275800000000001,0.392465,-0.31242
185,-3.0470040000000003,-1.166082,2.2854259999999997,-0.037189,0.919215,0.39199,-2.2883,-2.144568,-0.246218,-0.090603,-0.142024,-0.45633599999999996
186,-3.0704439999999997,-1.129102,2.296233,-0.030388,0.9040290000000001,0.426385,-1.647819,-1.345861,-0.47243500000000005,0.002785,-0.23528200000000002,-0.23128600000000002
187,-3.077184,-1.096377,2.3118849999999997,-0.029403,0.889558,0.45587,-1.622651,-0.8924469999999999,-0.395929,0.186583,-0.255922,-0.039473
188,-3.079287,-1.06295,2.319022,-0.030279,0.8737940000000001,0.48534700000000003,-1.656235,-0.090994,-0.192092,0.103933,-0.294677,0.031758
189,-3.077795,-1.031784,2.31553,-0.032724,0.858216,0.5122399999999999,-1.5001229999999999,0.263148,0.087351,-0.045294,-0.10345499999999999,-0.13047999999999998
190,-3.085012,-1.004959,2.3075349999999997,-0.030318,0.84414,0.5352600000000001,-1.260462,-0.257706,0.129217,-0.256929,-0.001367,-0.14581
191,-3.103931,-0.98229,2.30203,-0.020902,0.8317709999999999,0.554721,-1.033198,-1.045417,0.050629,-0.328006,0.185288,-0.13969700000000002
192,-3.13111,-0.966309,2.302004,-0.005958,0.822793,0.568304,-0.657466,-1.561984,-0.031543,-0.21080900000000002,0.11186800000000001,-0.166968
193,3.117902,-0.9599559999999999,2.298649,0.013586,0.819166,0.57339,-0.12228900000000001,-1.450674,0.172879,-0.144583,-0.06399400000000001,-0.14879900000000001
194,3.085011,-0.9615940000000001,2.288304,0.032359,0.820105,0.571292,0.182299,-1.0884,0.42130100000000004,-0.149791,-0.424597,0.013241
195,3.047843,-0.9662149999999999,2.266989,0.05321,0.8227399999999999,0.565916,0.294118,-0.8534280000000001,0.703792,-0.141421,-0.408876,0.20800900000000003
196,3.014782,-0.970735,2.2393509999999996,0.071417,0.8253010000000001,0.560153,0.342702,-0.24216500000000002,0.712962,-0.23209200000000002,-0.167876,0.32374200000000003
197,3.003201,-0.975107,2.2191389999999998,0.0774,0.8277620000000001,0.55571,0.278106,0.520918,0.416704,-0.005562,-0.390323,0.11436500000000001
198,2.995886,-0.9834069999999999,2.19751,0.08046299999999999,0.832391,0.548312,0.6834899999999999,0.35630300000000004,0.7380760000000001,0.06802000000000001,-0.5372399999999999,-0.067477
199,2.9676240000000003,-0.9935889999999999,2.160025,0.094453,0.83799,0.5374439999999999,0.571952,0.337073,0.848417,-0.200822,-0.084984,-0.58235
200,2.9852790000000002,-1.0018479999999998,2.151908,0.08387,0.842468,0.532172,0.392486,1.643559,-0.174663,-0.103646,0.649323,-0.10286600000000001
201,3.0036709999999998,-1.0134100000000001,2.145611,0.072725,0.848641,0.523941,1.0785719999999999,0.740045,0.335488,-0.025041,0.683845,-0.314392
202,3.008266,-1.042263,2.127859,0.06703300000000001,0.863548,0.49978599999999995,1.46617,1.310537,0.12382,-0.229386,0.41680200000000006,-0.012313
203,3.029103,-1.070301,2.119609,0.053864999999999996,0.877345,0.476822,1.434409,1.271609,0.029644999999999998,-0.187318,-0.186351,-0.35614
204,3.036467,-1.09807,2.107365,0.047776,0.89033,0.452795,1.348068,0.7545350000000001,0.20809699999999998,-0.226609,-0.157161,-0.276983
205,3.037571,-1.122891,2.0899389999999998,0.044968,0.9013559999999999,0.43073,1.256744,0.903775,0.261747,-0.29165599999999997,-0.07671,-0.138235
206,3.042584,-1.1485889999999999,2.07208,0.040504000000000005,0.9121870000000001,0.40776100000000004,1.378685,1.182568,0.2334,-0.057976,0.014815,-0.089494
207,3.053083,-1.177766,2.053496,0.033854,0.923753,0.381483,1.537938,1.505767,0.256531,0.024206000000000002,-0.149232,-0.10403299999999999
208,3.060197,-1.208041,2.0263150000000003,0.028850999999999998,0.934923,0.35367,1.537784,1.657354,0.443274,-0.02113,-0.18670799999999999,-0.124971
209,3.0558259999999997,-1.2377850000000001,1.987659,0.028000999999999998,0.9450620000000001,0.325681,1.556857,1.5342049999999998,0.587774,-0.214937,-0.178674,-0.23992600000000003
210,3.031669,-1.267842,1.9340669999999998,0.032728,0.9544590000000001,0.296532,1.569731,1.226751,0.739945,-0.29026599999999997,-0.166541,-0.22423600000000002
211,2.993061,-1.294757,1.871407,0.040332,0.962142,0.269536,1.3511090000000001,0.944412,0.673618,-0.30585,-0.16993699999999998,-0.256245
212,2.951542,-1.318198,1.814457,0.04721,0.968266,0.24541,1.260721,0.535552,0.434229,-0.271911,-0.192876,-0.23984
213,2.92003,-1.3411620000000002,1.7733889999999999,0.050018,0.97375,0.222046,1.1719620000000002,0.44007700000000005,0.145311,-0.042648,-0.299815,-0.17924500000000002
214,2.903152,-1.361401,1.7459779999999998,0.049093,0.9781569999999999,0.201975,0.996917,0.5550970000000001,0.038187,-0.048849000000000004,-0.300804,-0.005991
215,2.891807,-1.378552,1.720996,0.047226,0.9815780000000001,0.18512,0.8225610000000001,0.684631,0.030394,-0.34697,-0.092662,0.10351600000000001
216,2.896607,-1.392773,1.7093209999999999,0.042947000000000006,0.984196,0.171783,0.658057,0.898066,-0.187877,-0.50216,0.126003,0.188554
217,2.959246,-1.403451,1.751375,0.030202,0.98603,0.163787,0.299272,1.154409,-0.578477,-0.42755600000000005,0.204705,-0.151046
218,3.028597,-1.4102219999999999,1.8014130000000002,0.018026,0.987136,0.158849,0.415333,0.64909,-0.31850900000000004,-0.45569399999999993,0.256364,-0.021612
219,3.040057,-1.420999,1.809262,0.015125,0.988801,0.148452,0.523135,0.014713,-0.011431,-0.452579,0.28691,0.060364
220,3.005933,-1.430668,1.776589,0.018887,0.9901979999999999,0.138371,0.46583199999999997,-0.160721,0.22019699999999998,-0.328244,0.43201300000000004,0.188915
221,2.981955,-1.437355,1.752896,0.021146,0.99111,0.13133599999999998,0.261835,0.11755499999999999,0.071001,-0.253217,0.36852399999999996,0.18034
222,2.968685,-1.440299,1.734334,0.022385,0.991497,0.128169,0.13034500000000002,0.34684499999999996,0.121064,-0.29863,0.37273,0.150151
223,2.986707,-1.438868,1.7423560000000002,0.02029,0.99131,0.12995299999999999,-0.266221,0.5764020000000001,-0.198194,-0.09071,0.666725,-0.077066
224,3.065321,-1.425249,1.812962,0.01105,0.9894270000000001,0.144595,-1.0287600000000001,0.333154,-0.510857,-0.073184,0.510192,-0.11140699999999999
225,-3.131798,-1.398606,1.897775,-0.001678,0.9852120000000001,0.171319,-1.519317,-0.006488,-0.663399,-0.06334,0.381228,-0.09256900000000001
226,-3.083018,-1.3639379999999999,1.954005,-0.012023,0.9786809999999999,0.205021,-1.8542889999999999,-0.628841,-0.58162,-0.016358,0.024905,-0.32014899999999996
227,-3.046549,-1.321308,2.008906,-0.023431,0.969039,0.245783,-2.196057,-0.805275,-0.918135,-0.21405700000000003,0.08397,-0.006631999999999999
228,-2.99988,-1.267888,2.070938,-0.04213,0.9544729999999999,0.295296,-2.732526,-0.662359,-1.293806,-0.257812,0.076914,-0.070962
229,-2.96781,-1.208721,2.123355,-0.06124500000000001,0.935164,0.348871,-2.7671040000000002,-0.9574799999999999,-1.254146,-0.07674,0.180437,-0.023218
230,-2.965225,-1.1562370000000002,2.151625,-0.07067000000000001,0.915294,0.39653,-2.259075,-1.424419,-0.808823,0.054434,0.11958800000000001,-0.347916
231,-2.984789,-1.117412,2.167935,-0.068399,0.89897,0.432629,-1.6648900000000002,-1.7085549999999998,-0.5981420000000001,0.043039,-0.008681,-0.361523
232,-2.9994389999999997,-1.083898,2.178296,-0.066287,0.8837879999999999,0.46316,-1.569667,-0.9629770000000001,-0.385856,0.096255,-0.17388800000000001,-0.21245799999999998
233,-3.012931,-1.054059,2.177849,-0.063389,0.8694360000000001,0.48995600000000006,-1.482947,-0.380627,-0.10612200000000001,0.08173,-0.14085899999999998,-0.041545
234,-3.017627,-1.022334,2.1711110000000002,-0.064466,0.8533270000000001,0.517368,-1.6460290000000002,0.251154,0.016911000000000002,-0.001925,-0.054301,-0.046436
235,-3.021779,-0.990359,2.159687,-0.06554700000000001,0.8362229999999999,0.544452,-1.592568,0.17160599999999998,0.149846,-0.180898,-0.017619,-0.108859
236,-3.037418,-0.9603659999999999,2.1452880000000003,-0.05960700000000001,0.8194020000000001,0.570106,-1.476507,-0.482253,0.26045300000000005,-0.317698,0.073634,-0.146324
237,-3.064159,-0.937161,2.133795,-0.0458,0.8058810000000001,0.590298,-0.9411950000000001,-1.083599,0.195529,-0.28230900000000003,0.128461,-0.225079
238,-3.0988569999999998,-0.927695,2.126846,-0.02562,0.80024,0.5991270000000001,-0.217102,-1.6336629999999999,0.19595,-0.080871,-0.004463,-0.25437
239,-3.140325,-0.9291510000000001,2.1134779999999997,-0.000759,0.8011119999999999,0.598508,0.141822,-1.379759,0.591238,0.000148,-0.324092,-0.119504
240,3.100995,-0.939261,2.091691,0.023961,0.807122,0.589893,0.6253380000000001,-1.008942,0.6795979999999999,-0.024038,-0.517022,-0.090656
241,3.066363,-0.9516819999999999,2.064788,0.043615,0.814393,0.578667,0.633599,-0.49378599999999995,0.7815439999999999,-0.107153,-0.42410299999999995,0.11588299999999999
242,3.0377549999999998,-0.957945,2.037317,0.059620000000000006,0.8180109999999999,0.572098,0.200054,-0.155445,0.7289439999999999,-0.303669,-0.082919,0.426712
243,3.0264849999999996,-0.9542649999999999,2.019788,0.06640900000000001,0.8158890000000001,0.574377,-0.335423,0.254664,0.399939,-0.250308,-0.237779,0.255762
244,3.012641,-0.949741,2.003734,0.07482799999999999,0.813265,0.577058,0.149068,-0.045894,0.5500550000000001,0.06537000000000001,-0.712755,-0.579438
245,3.008356,-0.9581639999999999,1.989961,0.076387,0.818137,0.569922,0.466212,0.620189,0.204244,-0.227617,0.465722,-0.146155
246,3.018685,-0.962319,1.9826099999999998,0.070079,0.820519,0.567303,0.414109,0.685246,0.230503,-0.296642,0.621009,-0.387783
247,3.0134819999999998,-0.9810559999999999,1.965379,0.07105299999999999,0.8310850000000001,0.551584,1.142098,0.43711400000000006,0.37904699999999997,-0.241128,0.462143,-0.154199
248,3.017576,-1.004627,1.953411,0.066352,0.8439620000000001,0.532279,1.160145,0.819666,0.06783099999999999,-0.040182999999999996,-0.2312,-0.178001
249,3.027766,-1.024702,1.9445029999999999,0.058988,0.8545590000000001,0.515988,0.9402469999999999,0.8924719999999999,0.166614,-0.0762,-0.279974,-0.160138
250,3.038452,-1.038583,1.933202,0.05224500000000001,0.8616860000000001,0.50474,0.6050909999999999,1.1406040000000002,0.209889,-0.245879,-0.132682,-0.06398999999999999
251,3.060433,-1.049195,1.9260680000000001,0.040395,0.867022,0.496623,0.551742,1.4726620000000001,0.067017,-0.264638,-0.028308,-0.090556
252,3.082881,-1.061687,1.9229630000000002,0.028599,0.873179,0.48655299999999996,0.6787449999999999,1.2028729999999999,0.025521000000000002,-0.22775700000000001,-0.00149,-0.077679
253,3.103825,-1.076894,1.920506,0.0179,0.88049,0.473721,0.81812,1.117164,0.026604000000000003,-0.293062,0.136905,-0.133633
254,3.118436,-1.096252,1.9164900000000002,0.010579999999999999,0.889501,0.45680299999999996,1.034986,0.774181,0.09585700000000001,-0.452078,0.204707,-0.11071900000000001
255,3.125312,-1.117903,1.910953,0.007123,0.899185,0.437504,1.118873,0.46595299999999995,0.113929,-0.44634799999999997,0.136963,-0.132069
256,3.1212150000000003,-1.1409129999999998,1.9000689999999998,0.008492,0.909014,0.41667,1.1404459999999998,0.222275,0.29385300000000003,-0.33181,0.187574,-0.18582
257,3.099135,-1.16487,1.875632,0.01676,0.918737,0.394505,1.267971,-0.11473499999999999,0.54514,-0.22109,0.32256599999999996,-0.07234700000000001
258,3.066749,-1.191087,1.841802,0.027714,0.9287719999999999,0.369603,1.419142,0.043489,0.5395840000000001,-0.044545,0.45860200000000007,0.11603800000000002
259,3.045007,-1.2224409999999999,1.808268,0.032918,0.9399350000000001,0.339752,1.7592830000000002,0.821534,0.41277600000000003,0.07136100000000001,0.446829,0.17338599999999998
260,3.034615,-1.260589,1.769571,0.032592,0.9522700000000001,0.303501,2.0801130000000003,1.5115969999999999,0.460066,-0.018218,0.423706,0.08537
261,3.0122169999999997,-1.305628,1.714491,0.03381,0.9650479999999999,0.259869,2.4562169999999997,1.4758870000000002,0.5396489999999999,-0.6495479999999999,0.476663,-0.017636000000000002
262,2.965256,-1.3550149999999999,1.6422900000000002,0.037558,0.976809,0.210777,2.6057799999999998,0.8879670000000001,0.382282,-0.8141079999999999,0.41029099999999996,0.19333699999999998
263,2.908433,-1.400714,1.575148,0.039105,0.9855709999999999,0.164666,2.102802,0.22945500000000002,0.062351,-0.589855,0.23710100000000003,0.11043499999999999
264,2.8542669999999997,-1.431041,1.5207959999999998,0.03947,0.99025,0.13357,1.3139809999999998,-0.160616,-0.007821,-0.204769,-0.067399,0.088827
265,2.804352,-1.446948,1.477726,0.040867,0.992341,0.116551,0.5730350000000001,-0.44063,0.063207,-0.084477,-0.276978,0.07256599999999999
266,2.7900150000000004,-1.4495879999999999,1.470269,0.041631,0.992663,0.11349300000000001,-0.10281199999999999,-0.24585,-0.10840699999999999,0.046397,-0.485446,-0.107252
267,2.852146,-1.439296,1.536311,0.037419,0.991366,0.125646,-0.903909,-0.161357,-0.29677600000000004,0.176784,-0.700168,-0.320714
268,2.956468,-1.4172040000000001,1.649093,0.028156999999999998,0.9882280000000001,0.150356,-1.434947,-0.477571,-0.678231,0.11545899999999999,-0.44597600000000004,-0.02914
269,3.086077,-1.383618,1.7902360000000002,0.010325,0.982533,0.185784,-2.057962,-0.46391099999999996,-1.155823,0.09479299999999999,-0.145253,-0.126626
270,-3.075002,-1.3315299999999999,1.9230200000000002,-0.015769,0.971512,0.23645100000000002,-2.881336,-0.326287,-1.5580610000000001,0.093848,0.207885,-0.26564099999999996
271,-2.987756,-1.267925,2.018583,-0.045701,0.954484,0.294729,-2.932028,-0.242889,-1.590568,-0.038130000000000004,0.6461020000000001,-0.317404
272,-2.94326,-1.21538,2.0740380000000003,-0.068563,0.9375020000000001,0.34115100000000004,-2.150235,-0.5818270000000001,-1.158453,-0.101375,0.6276689999999999,-0.14341199999999998
273,-2.939485,-1.1738979999999999,2.094516,-0.07759400000000001,0.922264,0.378684,-1.9121869999999999,-0.714834,-0.604349,-0.107403,0.547966,-0.015691999999999998
274,-2.939804,-1.132902,2.101275,-0.084984,0.905647,0.415421,-2.054435,-0.24272600000000003,-0.529035,-0.017128,0.30800700000000003,-0.077302
275,-2.952893,-1.090087,2.10023,-0.086738,0.886667,0.454193,-2.058198,-0.83705,-0.28474499999999997,0.028266000000000003,0.11086099999999999,-0.17012
276,-2.972534,-1.050702,2.092689,-0.083615,0.867772,0.48986999999999997,-1.8835369999999998,-0.485788,-0.100241,-0.070133,0.11341400000000001,-0.086214
277,-2.986443,-1.016556,2.0820849999999997,-0.081327,0.850301,0.519968,-1.6881509999999997,-0.075837,0.041602999999999994,0.031201,-0.089299,-0.126749
278,-2.9957990000000003,-0.9839450000000001,2.070093,-0.080445,0.8326879999999999,0.54786,-1.637625,0.059076,0.09199,0.020707,-0.186173,-0.213083
279,-3.007631,-0.954765,2.058113,-0.077171,0.816178,0.572617,-1.374649,-0.23293000000000003,0.160431,-0.013878,-0.188187,-0.297272
280,-3.028883,-0.9335399999999999,2.045867,-0.066919,0.803732,0.5912109999999999,-0.9251799999999999,-0.776061,0.26361100000000004,-0.20246,-0.12682100000000002,-0.350412
281,-3.055214,-0.9194559999999999,2.035831,-0.052302,0.795272,0.6039859999999999,-0.654863,-0.98874,0.201678,-0.15071600000000002,-0.260833,-0.451795
282,-3.0897959999999998,-0.905526,2.024995,-0.031958,0.78675,0.616438,-0.74107,-1.537525,0.318216,-0.17106,-0.252311,-0.464247
283,-3.134641,-0.892091,2.012555,-0.004364,0.778386,0.627765,-0.6301329999999999,-1.69803,0.400381,0.011459,-0.557912,-0.231631
284,3.10816,-0.884332,1.997997,0.021186,0.773492,0.633446,-0.192295,-1.267462,0.504369,-0.041114,-0.381784,0.148842
285,3.079453,-0.884763,1.9803959999999998,0.039338,0.7737649999999999,0.6322439999999999,0.133286,-0.430566,0.591028,-0.059266,-0.38205700000000004,0.150043
286,3.064275,-0.885949,1.961791,0.048858,0.774516,0.630659,0.08667000000000001,0.101232,0.575066,-0.463913,-0.053263,0.24631
287,3.048821,-0.887893,1.940977,0.058459000000000004,0.775744,0.628328,0.199933,0.00455,0.67853,-0.514864,0.050931,0.387251
288,3.031209,-0.89125,1.9204189999999999,0.069228,0.7778579999999999,0.624609,0.27124000000000004,-0.136966,0.575592,-0.525634,0.048818,0.39097
289,3.017066,-0.9011540000000001,1.9031799999999999,0.07709400000000001,0.784044,0.615893,0.7846420000000001,0.032168,0.45825299999999997,-0.181052,-0.114824,0.26871999999999996
290,2.997055,-0.9225629999999999,1.8779240000000001,0.086965,0.797151,0.597477,1.319009,0.002706,0.7023729999999999,0.16067,0.098906,-0.368031
291,2.987285,-0.942009,1.8582290000000001,0.090398,0.8087409999999999,0.58117,0.653104,0.428835,0.21006599999999997,0.080791,0.655034,-0.42327299999999995
292,2.996712,-0.94211,1.852928,0.08490299999999999,0.808801,0.581915,0.554046,0.661575,0.168484,-0.15173699999999998,0.787772,-0.030341000000000003
293,3.016088,-0.9715889999999999,1.844436,0.07059700000000001,0.825783,0.559547,1.479676,1.634617,0.054061,-0.004541,-0.060646000000000005,-0.160011
294,3.042176,-1.00062,1.8375759999999999,0.053574000000000004,0.8418059999999999,0.5371090000000001,1.519776,1.427188,-0.055419,-0.117478,-0.369226,-0.445587
295,3.068116,-1.0251139999999999,1.841531,0.0381,0.8547739999999999,0.517595,0.9970110000000001,0.9686459999999999,-0.28281,-0.274214,-0.32004499999999997,-0.39970500000000003
296,3.093709,-1.042824,1.85243,0.024114,0.8638299999999999,0.5032,0.8859540000000001,0.690008,-0.30245700000000003,-0.163197,0.212784,-0.251475
297,3.1067560000000003,-1.063401,1.8524490000000002,0.016924,0.8740129999999999,0.485601,1.11901,0.745011,0.12532100000000002,-0.064211,0.333888,-0.182394
298,3.116938,-1.089595,1.840416,0.01141,0.88644,0.46269799999999994,1.433494,1.2697379999999998,0.2326,0.097095,-0.064327,-0.120046
299,3.14092,-1.119234,1.83295,0.000293,0.899766,0.436366,1.474135,1.651428,0.117026,0.066357,-0.192277,-0.10810399999999999
300,-3.110629,-1.147429,1.8258159999999999,-0.012719,0.911711,0.41063,1.368571,2.0135400000000003,0.22905599999999998,0.002999,-0.24978499999999998,-0.131928
301,-3.083556,-1.174984,1.809396,-0.022364,0.9226840000000001,0.384903,1.386108,2.148752,0.499266,-0.285955,-0.11296099999999999,-0.21424899999999997
302,-3.07012,-1.2053209999999999,1.779349,-0.025522,0.9339540000000001,0.35647399999999996,1.516597,1.9546459999999999,0.7087289999999999,-0.402564,0.02384,-0.187468
303,-3.064192,-1.237542,1.747818,-0.025294,0.944983,0.326135,1.589386,1.662941,0.600653,-0.37058,-0.001074,-0.172235
304,-3.051861,-1.26931,1.7298799999999999,-0.026608999999999997,0.954896,0.29574,1.532981,1.367242,0.271625,-0.208438,-0.173555,-0.122323
305,-3.022601,-1.299411,1.7338049999999998,-0.031822,0.9634,0.266164,1.4705780000000002,1.24805,0.029924,-0.040658,-0.304282,-0.11858099999999999
306,-2.978657,-1.327882,1.754264,-0.039017,0.970641,0.23734,1.4229379999999998,1.1859469999999999,-0.11560699999999999,0.020172,-0.329177,-0.11771199999999998
307,-2.9185060000000003,-1.354322,1.7918310000000002,-0.047518,0.9766610000000001,0.209458,1.4039840000000001,1.174564,-0.183023,-0.172788,-0.328834,-0.233765
308,-2.851186,-1.379124,1.8364630000000002,-0.054546000000000004,0.9816870000000001,0.182517,1.212335,1.108845,-0.09882,-0.237873,-0.317853,-0.144706
309,-2.7919,-1.4007690000000002,1.878828,-0.05797000000000001,0.9855799999999999,0.158962,1.073461,0.729546,0.036361000000000004,-0.26714899999999997,-0.248596,-0.113521
310,-2.751833,-1.418133,1.9090790000000002,-0.057779,0.9883700000000001,0.140658,0.8144060000000001,0.355246,0.091646,-0.185858,-0.031627999999999996,-0.067156
311,-2.734457,-1.4310370000000001,1.920536,-0.055158000000000006,0.99025,0.127909,0.500967,0.349222,0.27212800000000004,-0.133669,-0.04335,-0.149637
312,-2.745622,-1.440799,1.9052630000000002,-0.049996,0.991562,0.119593,0.382749,0.20775100000000002,0.32169000000000003,-0.180351,-0.09459,-0.043375
313,-2.778196,-1.449458,1.867177,-0.043019999999999996,0.992648,0.11312699999999999,0.303897,0.325884,0.418196,-0.22496999999999998,-0.069353,-0.074293
314,-2.8073490000000003,-1.457194,1.8363169999999998,-0.037183,0.993554,0.107073,0.360688,-0.029421,0.244928,-0.303545,-0.16253,-0.028017
315,-2.82103,-1.46561,1.824381,-0.03308,0.9944729999999999,0.099633,0.36573,-0.16763,0.171433,-0.322939,-0.171612,-0.085137
316,-2.831487,-1.4746350000000001,1.818081,-0.029294999999999998,0.9953799999999999,0.09142,0.441362,-0.16481400000000002,0.200799,-0.11367999999999999,-0.057468,-0.097203
317,-2.66336,-1.481841,1.984184,-0.040878,0.9960459999999999,0.07886,0.585515,0.24953899999999998,0.35189499999999996,-0.049164,0.07803500000000001,-0.10246500000000001
318,-2.471489,-1.484876,2.165499,-0.053288,0.9963110000000001,0.067246,0.721206,0.662924,0.48584099999999997,-0.049297,0.164547,-0.0008710000000000001
319,-2.435848,-1.5040850000000001,2.1823330000000003,-0.043225,0.997776,0.050724,0.820675,1.077544,0.60885,-0.179447,0.4837,0.048657
320,-2.379536,-1.52642,2.213639,-0.030608999999999997,0.999016,0.032073000000000004,0.9611719999999999,1.364183,0.7333770000000001,-0.592026,0.612358,0.10635499999999999
321,-2.147177,-1.553073,2.421313,-0.0148,0.999843,0.00962,1.1565,1.0179129999999998,0.844144,-0.607835,0.611531,0.128807
322,-0.195253,-1.556147,-1.914641,-0.002822,0.999893,-0.014271,1.1478389999999998,-0.156374,0.407617,-0.36258,0.7974100000000001,-0.055979999999999995
323,0.045502999999999995,-1.5390409999999999,-1.666708,0.001442,0.9994959999999999,-0.031675999999999996,0.647825,-0.326201,0.154378,0.10329400000000001,0.812607,-0.031892000000000004
324,0.106603,-1.5348709999999999,-1.6055030000000001,0.0038179999999999998,0.9993549999999999,-0.035679,-0.048486,0.160144,0.080525,0.100918,0.8127489999999999,-0.027888999999999997
325,0.120728,-1.54162,-1.595446,0.003508,0.999574,-0.028919,-0.48703599999999997,0.212434,-0.09458899999999999,-0.121581,0.26695100000000005,0.07385599999999999
326,-0.133022,-1.556224,-1.852655,-0.0019210000000000002,0.9998940000000001,-0.014358000000000001,-0.8724639999999999,0.090336,-0.395158,-0.15651099999999998,-0.049119,0.093872
327,-2.104494,-1.5543870000000002,2.460696,-0.014051,0.999865,0.008303,-1.335569,-0.25400900000000004,-0.726964,-0.153109,-0.200747,-0.05587999999999999
328,-2.497519,-1.518117,2.072759,-0.0316,0.998613,0.042083999999999996,-1.8498709999999998,-0.279974,-0.9804870000000001,-0.016984,-0.182069,-0.158371
329,-2.5697970000000003,-1.471594,2.0060759999999997,-0.053586,0.995084,0.083271,-2.1422220000000003,-0.23983200000000002,-1.1748610000000002,0.104352,0.044055000000000004,-0.081822
330,-2.603464,-1.420038,1.97248,-0.07697000000000001,0.988657,0.128952,-2.4073700000000002,0.125357,-1.161158,0.204076,0.219717,-0.005783
331,-2.64288,-1.368757,1.9350759999999998,-0.095974,0.9796590000000001,0.176218,-2.2374509999999996,-0.449607,-0.8473129999999999,0.41643900000000006,0.144257,-0.545481
332,-2.676724,-1.3323459999999998,1.916942,-0.10588499999999999,0.9717049999999999,0.211125,-1.432343,-0.769776,-0.599861,0.175862,-0.007823,-0.094899
333,-2.6929790000000002,-1.300893,1.907631,-0.11564300000000001,0.9637969999999999,0.240249,-1.592076,-0.206839,-0.5792649999999999,0.24017,0.013009999999999999,-0.134139
334,-2.721489,-1.261459,1.880507,-0.12415999999999999,0.952536,0.277952,-2.155753,-0.090615,-0.384662,0.31909099999999996,0.119593,-0.171888
335,-2.764784,-1.2197280000000001,1.83676,-0.126538,0.9390059999999999,0.31977,-2.125324,-0.098495,-0.039404,0.177899,0.029561,-0.19228299999999998
336,-2.7946009999999997,-1.183647,1.8028950000000001,-0.128392,0.925989,0.355043,-1.791555,0.23844,-0.138985,0.09705,-0.002878,-0.168855
337,-2.801778,-1.150016,1.7850810000000001,-0.136148,0.9127709999999999,0.38511,-1.664973,0.508001,-0.26022399999999996,0.020378999999999998,-0.100011,-0.158059
338,-2.812938,-1.118572,1.765465,-0.141039,0.8994770000000001,0.413576,-1.575763,0.19667,-0.003897,-0.098967,-0.253512,-0.309908
339,-2.838076,-1.092894,1.7393869999999998,-0.137458,0.887962,0.438892,-1.291817,-0.24310700000000002,0.23686300000000002,-0.138665,-0.289588,-0.339175
340,-2.868678,-1.073379,1.713413,-0.12861199999999998,0.878818,0.459495,-1.0104309999999999,-0.455358,0.32455900000000004,-0.022481,-0.307315,-0.394889
341,-2.897582,-1.059287,1.691847,-0.11825899999999999,0.872007,0.47498999999999997,-0.678718,-0.475688,0.325834,0.245029,-0.363767,-0.347671
342,-2.9190959999999997,-1.053714,1.6743580000000002,-0.10908399999999999,0.869265,0.48215600000000003,-0.180568,-0.200683,0.385577,0.24316300000000002,-0.42357100000000003,-0.33468000000000003
343,-2.935228,-1.057323,1.658261,-0.100649,0.871044,0.48078000000000004,0.23596399999999998,-0.042581,0.447036,0.15515299999999999,-0.472652,-0.318533
344,-2.9484779999999997,-1.0674569999999999,1.64295,-0.092571,0.875977,0.473383,0.531566,-0.005346,0.46934899999999996,0.102306,-0.482926,-0.302225
345,-2.96227,-1.0830540000000002,1.629427,-0.08358600000000001,0.883393,0.461114,0.803304,-0.103125,0.44359899999999997,0.025297,-0.494996,-0.20586500000000002
346,-2.974221,-1.102109,1.619475,-0.075251,0.8921620000000001,0.445399,0.929319,-0.167114,0.352694,-0.019277000000000002,-0.442745,-0.032451
347,-2.981846,-1.119548,1.6132440000000001,-0.069367,0.899904,0.430533,0.737276,-0.056214,0.22516,-0.037353,-0.395189,0.025200999999999998
348,-2.981488,-1.12985,1.612334,-0.068039,0.9043479999999999,0.421332,0.371193,0.178135,0.012931,-0.075546,-0.29442399999999996,0.193719
349,-2.9646529999999998,-1.130624,1.620917,-0.075,0.9046780000000001,0.41943800000000003,-0.145267,0.584828,-0.277481,-0.163572,-0.076431,0.333843
350,-2.943035,-1.1200290000000002,1.63185,-0.085935,0.9001129999999999,0.427092,-0.6490229999999999,0.48773999999999995,-0.336423,-0.250812,0.188647,0.087801
351,-2.932397,-1.103098,1.639519,-0.093625,0.892608,0.440999,-0.824131,-0.027206,-0.3466,-0.12494200000000001,0.473038,0.046595
352,-2.932337,-1.0907200000000001,1.6465049999999999,-0.095939,0.8869600000000001,0.45176700000000003,-0.349511,-0.402239,-0.21141300000000002,0.259483,0.352313,0.195495
353,-2.93906,-1.089974,1.6477700000000002,-0.093033,0.8866149999999999,0.45305100000000004,0.046488999999999996,-0.306789,0.083923,0.41836599999999996,0.451474,0.135785
354,-2.949557,-1.0863770000000001,1.636225,-0.08888099999999999,0.8849459999999999,0.45713000000000004,-0.36280100000000004,0.232805,0.297222,0.5496810000000001,0.5109739999999999,0.20617
355,-2.949437,-1.081909,1.623077,-0.089689,0.882856,0.460996,-0.273767,0.784429,0.267227,0.483641,0.46040600000000004,-0.084714
356,-2.945573,-1.0755379999999999,1.600558,-0.092564,0.8798459999999999,0.466154,-0.5346380000000001,1.409557,0.540205,0.295063,0.533698,-0.490584
357,-2.933733,-1.066368,1.578643,-0.099738,0.875451,0.472901,-0.517746,1.617078,0.311458,0.172644,0.653144,-0.509888
358,-2.9049110000000002,-1.061285,1.574049,-0.11436600000000001,0.872983,0.474149,-0.007868,1.644713,-0.114442,0.153886,0.12326300000000001,-0.504728
359,-2.858677,-1.0669170000000001,1.588538,-0.134783,0.8757159999999999,0.463628,0.450168,1.7907970000000002,-0.280208,0.256472,-0.155166,-0.270376
360,-2.800092,-1.068859,1.604268,-0.161128,0.8766520000000001,0.453337,0.028286000000000002,2.502288,-0.418663,0.195277,-0.030873,-0.42477299999999996
361,-2.721875,-1.070347,1.6304809999999998,-0.195526,0.877367,0.438169,0.572611,2.833523,-0.6075649999999999,-0.017258000000000003,0.210233,-0.61955
362,-2.639545,-1.0823770000000001,1.6662560000000002,-0.225802,0.883075,0.41132399999999997,1.015227,2.349437,-0.34428000000000003,0.175036,0.202709,-0.47109300000000004
363,-2.5696220000000003,-1.098746,1.692986,-0.24613000000000002,0.8906379999999999,0.382336,1.005307,2.3758209999999997,-0.007893,0.22566799999999998,0.011553,-0.387372
364,-2.498277,-1.115738,1.7150459999999998,-0.263642,0.898235,0.35165799999999997,0.967657,2.673709,0.12178499999999999,0.238617,-0.033138,-0.43419300000000005
365,-2.423433,-1.133061,1.7377240000000003,-0.278917,0.9057139999999999,0.319194,0.99739,2.702128,0.181777,0.22506900000000002,-0.019712999999999998,-0.5498460000000001
366,-2.344406,-1.150167,1.7659040000000001,-0.292119,0.912832,0.28531100000000004,1.033923,2.697988,0.12007999999999999,0.128377,-0.020651,-0.431597
367,-2.251385,-1.162986,1.803043,-0.308237,0.917991,0.24956,0.9312950000000001,3.1381490000000003,-0.10766400000000001,0.11330599999999999,0.032173,-0.329073
368,-2.14585,-1.1687450000000001,1.842412,-0.328369,0.9202600000000001,0.212823,0.709245,3.662607,-0.266915,0.172745,0.05525,-0.310846
369,-2.0417650000000003,-1.170823,1.871227,-0.346999,0.9210709999999999,0.17668699999999998,0.422863,3.9527400000000004,-0.113327,0.280364,-0.014608000000000001,-0.304433
370,-1.950704,-1.174588,1.8830310000000001,-0.358404,0.922531,0.14311300000000002,0.224635,4.071499,0.195989,0.262167,-0.157272,-0.2538
371,-1.86277,-1.182617,1.8877009999999999,-0.362483,0.9256,0.108949,0.23612600000000003,4.191134,0.371104,0.16035,-0.078798,-0.274293
372,-1.768563,-1.189562,1.9006040000000002,-0.364813,0.928206,0.073103,0.381359,4.05176,0.201381,0.050161000000000004,-0.0017690000000000002,-0.135924
373,-1.6713240000000003,-1.193143,1.923216,-0.366877,0.9295329999999999,0.037006,0.404348,3.617408,0.1113,0.000101,-0.030637,-0.059757000000000005
374,-1.5956709999999998,-1.197563,1.9346139999999998,-0.36451300000000003,0.9311530000000001,0.009068999999999999,0.149954,2.97841,0.28980300000000003,-0.111759,-0.118272,0.007044
375,-1.533919,-1.206483,1.94232,-0.356064,0.934369,-0.013137000000000001,0.146011,2.585407,0.538107,-0.136581,-0.13050499999999998,-0.0019850000000000002
376,-1.473495,-1.219075,1.9583110000000001,-0.342884,0.938781,-0.033469,0.314722,2.069628,0.7044520000000001,-0.138729,-0.136733,0.125708
377,-1.4114360000000001,-1.234022,1.989118,-0.326256,0.943825,-0.052437,0.46906099999999995,1.4165809999999999,0.8452360000000001,-0.110069,0.054327999999999994,0.211617
378,-1.351405,-1.2499280000000002,2.028197,-0.307829,0.9489620000000001,-0.06863999999999999,0.40529899999999996,1.073479,0.921074,-0.10603499999999999,0.147275,0.17885399999999999
379,-1.3024790000000002,-1.2649350000000001,2.058764,-0.290338,0.9535879999999999,-0.079828,0.224071,0.967075,0.781075,0.06479800000000001,0.12707000000000002,0.168436
380,-1.257961,-1.276086,2.081948,-0.276363,0.956886,-0.089391,0.160519,1.2942790000000002,0.52918,0.376598,0.21138800000000002,0.46462
381,-1.204866,-1.281731,2.0983389999999997,-0.266181,0.9585110000000001,-0.101998,0.072009,2.199114,0.23577800000000002,0.17028,0.278702,0.413246
382,-1.162534,-1.2833700000000001,2.0923540000000003,-0.260184,0.9589770000000001,-0.11254700000000001,-0.197668,2.434534,-0.061237,-0.272073,0.385292,0.122801
383,-1.1531209999999998,-1.278103,2.061775,-0.263726,0.95747,-0.11703800000000002,-0.369152,1.6652040000000001,-0.660721,-0.30094099999999996,0.639942,-0.250393
384,-1.193211,-1.265656,1.994563,-0.279263,0.9538049999999999,-0.11076,-0.85893,0.970928,-1.105497,-0.124805,0.639335,-0.303394
385,-1.279816,-1.249391,1.887603,-0.302618,0.948793,-0.090628,-1.626004,0.670162,-1.415981,0.46584200000000003,0.601394,-0.245096
386,-1.4133229999999999,-1.2319579999999999,1.7264959999999998,-0.328276,0.943142,-0.052126,-2.78156,1.1438780000000002,-1.396886,0.807524,0.510975,-0.027127999999999996
387,-1.570713,-1.2130459999999998,1.533225,-0.350165,0.936687,-2.8999999999999997e-05,-3.417878,1.180807,-1.023227,0.552192,0.45351099999999994,-0.30346799999999996
388,-1.7382950000000001,-1.192285,1.33338,-0.36436399999999997,0.9292159999999999,0.061608,-3.733603,0.891581,-0.615933,0.33424299999999996,0.448272,-0.154549
389,-1.880782,-1.161484,1.155413,-0.379008,0.9173950000000001,0.121401,-3.6233910000000003,1.2902049999999998,-0.764157,0.30896999999999997,0.511881,-0.053315999999999995
390,-1.9920849999999999,-1.118649,1.001315,-0.398696,0.8995110000000001,0.17866300000000002,-3.850024,1.337164,-0.8555309999999999,0.383711,0.63,-0.108305
391,-2.10005,-1.0694700000000001,0.8619450000000001,-0.414835,0.8769459999999999,0.242644,-3.999017,0.446254,-0.641785,0.201914,0.396751,-0.202269
392,-2.2000189999999997,-1.01766,0.746043,-0.42474300000000004,0.850881,0.309182,-3.663903,-0.133793,-0.531879,0.114059,0.144724,-0.14815599999999998
393,-2.270752,-0.9759049999999999,0.658825,-0.428647,0.82821,0.361011,-2.923671,0.221136,0.109497,0.13727999999999999,-0.45894700000000005,-0.178562
394,-2.3322220000000002,-0.946375,0.5766,-0.423184,0.8113020000000001,0.40336500000000003,-2.719473,0.36107399999999995,0.634173,0.218319,-0.46331000000000006,-0.066177
395,-2.39736,-0.9183540000000001,0.48939399999999994,-0.411272,0.794604,0.446608,-2.8641650000000003,0.11611099999999999,1.0126950000000001,0.22216999999999998,-0.267596,-0.145109
396,-2.468109,-0.890149,0.403837,-0.392499,0.777166,0.49188999999999994,-2.6999299999999997,-0.312945,1.0742120000000002,0.167783,-0.09679199999999999,-0.153694
397,-2.5316799999999997,-0.8609319999999999,0.33456199999999997,-0.373308,0.75845,0.5342210000000001,-2.355181,-0.582447,0.772522,0.20524699999999999,-0.092481,-0.077769
398,-2.580102,-0.833369,0.28518499999999997,-0.35801,0.740201,0.569148,-1.863321,-0.587426,0.526001,0.247063,-0.108655,-0.170665
399,-2.620398,-0.8114779999999999,0.24896100000000002,-0.342779,0.725305,0.597019,-1.395491,-0.7263970000000001,0.5080819999999999,0.273351,-0.087198,-0.22711599999999998
400,-2.656773,-0.799499,0.21869899999999998,-0.324866,0.717007,0.616734,-0.780961,-0.7507010000000001,0.724982,0.482901,-0.153057,-0.10333699999999998
401,-2.6847849999999998,-0.800912,0.19233,-0.30701799999999996,0.7179909999999999,0.624682,-0.120752,-0.171955,0.876266,0.329998,-0.107548,0.246031
402,-2.692847,-0.8091659999999999,0.17288599999999998,-0.29939,0.723712,0.621775,0.13075799999999999,0.532057,0.6923189999999999,0.022505,-0.134189,0.40436300000000003
403,-2.689239,-0.81612,0.16005899999999998,-0.29942399999999997,0.728494,0.616149,0.105525,0.6427109999999999,0.48156099999999996,-0.154418,-0.053597000000000006,0.427964
404,-2.688609,-0.820262,0.150625,-0.29849000000000003,0.731325,0.613242,-0.014181000000000001,0.171959,0.294389,-0.276904,0.045286,0.557489
405,-2.691785,-0.817191,0.14561400000000002,-0.297516,0.729226,0.616207,-0.310954,0.033731,-0.045065,-0.079773,-0.20624699999999999,0.264652
406,-2.6953650000000002,-0.81828,0.144925,-0.294964,0.729971,0.6165510000000001,0.399294,-0.246768,0.220902,0.531796,-0.458487,-0.24666300000000002
407,-2.706739,-0.8364020000000001,0.135187,-0.28231300000000004,0.742236,0.607768,0.628879,-0.164299,0.9754959999999999,1.0350139999999999,0.016094999999999998,-0.184275
408,-2.726698,-0.8486290000000001,0.103952,-0.266449,0.750375,0.60493,0.004919,0.5963109999999999,0.982982,0.469604,0.989524,-0.268687
409,-2.686791,-0.856309,0.105834,-0.287831,0.75543,0.588623,0.744626,2.39115,-0.151807,0.485158,1.2050809999999998,-0.000763
410,-2.635623,-0.8820950000000001,0.120715,-0.308015,0.772072,0.555904,1.712748,1.744709,0.294823,0.26510700000000004,0.22519699999999998,-0.357692
411,-2.585291,-0.9135559999999999,0.140066,-0.322602,0.7916810000000001,0.5188119999999999,1.493133,1.7318240000000003,0.244167,0.018357,-0.017893,-0.448408
412,-2.5434419999999998,-0.938559,0.159178,-0.33277199999999996,0.806708,0.48834700000000003,1.353789,1.0762479999999999,0.206646,0.002008,0.10859100000000001,-0.46062200000000003
413,-2.510801,-0.965025,0.177547,-0.33582,0.8220629999999999,0.459821,1.414774,0.8440489999999999,0.412466,0.131139,0.299611,-0.236631
414,-2.476641,-0.9944059999999999,0.194122,-0.336276,0.8384360000000001,0.428885,1.478591,1.180943,0.55669,0.411944,0.292607,-0.062095000000000004
415,-2.429595,-1.025417,0.214128,-0.338918,0.854931,0.392717,1.5564719999999999,1.6844290000000002,0.586499,0.504598,0.070133,-0.070604
416,-2.369765,-1.056332,0.238715,-0.34319099999999997,0.870556,0.352634,1.559192,2.0487580000000003,0.582847,0.309438,-0.209454,-0.11468800000000001
417,-2.30025,-1.085493,0.268812,-0.347775,0.884534,0.31088899999999997,1.504602,2.196159,0.5320699999999999,0.256467,-0.204999,-0.08595900000000001
418,-2.223084,-1.1123120000000002,0.305225,-0.351724,0.896724,0.268654,1.4996040000000002,2.235733,0.496733,0.133187,-0.121822,-0.134422
419,-2.140917,-1.136599,0.34879699999999997,-0.354145,0.907208,0.227056,1.4417959999999999,2.1084389999999997,0.412103,0.088245,-0.018154,-0.089635
420,-2.055296,-1.156942,0.39869699999999997,-0.355858,0.9155780000000001,0.187303,1.365426,1.90762,0.348802,0.10709400000000001,-0.076039,-0.054826
421,-1.9757490000000002,-1.174786,0.447928,-0.354541,0.922607,0.151972,1.1952559999999999,1.62986,0.427018,0.13861400000000001,-0.166626,-0.00091
422,-1.90475,-1.191921,0.4916,-0.34944000000000003,0.9290809999999999,0.12123800000000001,1.0297610000000001,1.476585,0.5392899999999999,0.2424,-0.1731,0.01835
423,-1.8328220000000002,-1.209273,0.538759,-0.341624,0.935359,0.09162100000000001,1.052278,1.318626,0.594129,0.25966999999999996,-0.198787,0.041145999999999995
424,-1.762018,-1.225468,0.588975,-0.332333,0.9409639999999999,0.064335,0.985274,1.127114,0.592838,0.12623199999999998,-0.202378,0.200466
425,-1.6967290000000002,-1.238449,0.632424,-0.323677,0.9452790000000001,0.040978,0.805408,1.305208,0.434325,-0.17675,0.174823,0.039084
426,-1.620034,-1.243607,0.688125,-0.32099099999999997,0.9469489999999999,0.015818000000000002,1.047233,1.058848,0.029337000000000002,-0.20736,0.18845699999999999,0.250128
427,-1.5392350000000001,-1.24348,0.7525729999999999,-0.321341,0.946908,-0.010145,0.961117,0.8961309999999999,0.036420999999999995,-0.17388299999999998,-0.08419199999999999,0.187941
428,-1.476947,-1.2476559999999999,0.8074520000000001,-0.316146,0.9482430000000001,-0.029758,0.8286209999999999,0.153083,0.288548,-0.15657100000000002,0.334869,0.254764
429,-1.429047,-1.247844,0.8579620000000001,-0.314183,0.9483030000000001,-0.044836,0.737528,0.012874000000000002,-0.000328,-0.024898,0.536378,0.36195900000000003
430,-1.391674,-1.246204,0.8928200000000001,-0.313817,0.947781,-0.056821,0.440101,0.34398,0.039899000000000004,0.112249,0.689136,0.461347
431,-1.374239,-1.245892,0.8991370000000001,-0.31306999999999996,0.947681,-0.062340999999999994,-0.161917,0.6861729999999999,-0.030974,0.116781,0.612362,0.01661
432,-1.394941,-1.241955,0.8610329999999999,-0.31796399999999997,0.946417,-0.056499,-0.755633,0.7468560000000001,-0.571447,0.201738,0.6430600000000001,0.014782
433,-1.453584,-1.228492,0.785486,-0.333354,0.941984,-0.039252999999999996,-1.3737270000000001,0.5512199999999999,-0.928027,0.46941700000000003,0.45494300000000004,0.10370599999999999
434,-1.539791,-1.21449,0.684867,-0.348646,0.937192,-0.010814,-1.883443,0.350786,-0.712345,0.484083,-0.040097,-0.000325
435,-1.659593,-1.198241,0.552301,-0.362561,0.9314,0.032279,-2.657153,0.160178,-0.8595780000000001,0.43095100000000003,-0.000919,-0.028937
436,-1.7820099999999999,-1.167715,0.415411,-0.383536,0.9198569999999999,0.082234,-2.846366,0.154978,-1.25934,0.24724400000000002,0.175282,-0.004796
437,-1.8945319999999999,-1.1256709999999999,0.29601700000000003,-0.40820300000000004,0.9025569999999999,0.136969,-2.914348,-0.391779,-1.399051,0.085129,0.049607,-0.073446
438,-1.990535,-1.0818889999999999,0.20525700000000002,-0.428892,0.8828459999999999,0.191397,-2.54412,-0.9295889999999999,-1.225929,0.10793900000000001,0.102383,-0.075415
439,-2.0689740000000003,-1.038506,0.138237,-0.44582200000000005,0.8616469999999999,0.2425,-2.415509,-1.023835,-1.212091,0.20275,0.153597,0.047356
440,-2.145981,-0.9950459999999999,0.07476000000000001,-0.456854,0.838784,0.296183,-2.586786,-1.2590780000000001,-0.8433809999999999,0.5552279999999999,0.133445,-0.0599
441,-2.222038,-0.958443,0.015069999999999998,-0.45715200000000006,0.818297,0.348425,-2.258966,-1.1875959999999999,-0.35620999999999997,0.569517,0.17572100000000002,-0.0492
442,-2.270541,-0.929682,-0.033148000000000004,-0.457541,0.80143,0.385181,-1.929717,0.055959,-0.203817,0.327032,0.357842,0.428951
443,-2.298253,-0.898209,-0.084311,-0.46530699999999997,0.782213,0.41428400000000004,-2.492522,0.7425,-0.108215,0.08026599999999999,0.7250810000000001,0.55709
444,-2.331063,-0.862923,-0.14064300000000002,-0.471182,0.759746,0.448075,-2.2414669999999997,0.561667,-0.12545699999999999,-0.167978,0.7747539999999999,0.244995
445,-2.3509349999999998,-0.8414450000000001,-0.166494,-0.47367600000000004,0.745607,0.46871999999999997,-0.89146,-0.563607,-0.144496,-0.153399,0.45072799999999996,-0.18440299999999998
446,-2.383398,-0.835526,-0.17837999999999998,-0.46124,0.741649,0.487044,-0.3349,-1.392895,0.29735700000000004,-0.099932,0.12353900000000001,-0.10560499999999999
447,-2.4256330000000004,-0.8413870000000001,-0.198759,-0.43740500000000004,0.745568,0.502796,-0.090866,-1.451072,0.7809050000000001,0.08955,-0.143975,0.14344500000000002
448,-2.461864,-0.853101,-0.21562699999999999,-0.413387,0.753323,0.511483,0.23706300000000002,-0.8876229999999999,0.7835409999999999,0.544185,-0.5904510000000001,0.092887
449,-2.479863,-0.8703299999999999,-0.22846999999999998,-0.39608000000000004,0.764542,0.508524,0.46917600000000004,-0.126313,0.9390790000000001,0.564094,-0.698242,0.115469
450,-2.4783150000000003,-0.8928799999999999,-0.24079499999999998,-0.386151,0.778881,0.49419700000000005,0.8740760000000001,1.030951,1.026951,0.492504,-0.865094,0.06621200000000001
451,-2.4589790000000002,-0.9291590000000001,-0.24715700000000002,-0.377552,0.801117,0.464398,1.354901,1.0111569999999999,1.563377,0.810032,-1.015671,-0.034085000000000004
452,-2.487926,-0.967324,-0.288937,-0.34510100000000005,0.82337,0.45051899999999995,0.38361799999999996,-0.154194,2.389163,0.48882299999999995,-0.924383,-0.68462
453,-2.4930950000000003,-0.991433,-0.321048,-0.330679,0.8368110000000001,0.436346,0.5543060000000001,2.246412,0.510413,-0.24660700000000002,0.15554400000000002,-0.77651
454,-2.4500759999999997,-0.9852639999999999,-0.325208,-0.35242399999999996,0.833418,0.42568999999999996,-0.561045,1.5665959999999999,-0.07761900000000001,0.44057399999999997,0.9894120000000001,0.11491400000000002
455,-2.433792,-1.0031459999999999,-0.321529,-0.349563,0.843167,0.408505,1.085274,0.9144180000000001,0.682471,0.062988,1.273929,0.139575
456,-2.3918619999999997,-1.030438,-0.302849,-0.350562,0.857525,0.37650700000000004,1.519283,1.2869270000000002,0.391264,0.024421,0.23775100000000002,-0.222637
457,-2.334991,-1.056231,-0.265273,-0.35530700000000004,0.8705069999999999,0.34055,1.5203879999999999,1.095976,0.190691,0.157126,-0.41634399999999994,-0.131215
458,-2.291644,-1.0775219999999999,-0.233911,-0.355724,0.8807870000000001,0.31252800000000003,1.175274,0.6502560000000001,0.331993,0.111873,-0.400502,-0.083051
459,-2.258408,-1.099126,-0.21063400000000002,-0.351124,0.890811,0.28838800000000003,1.0783459999999998,0.676307,0.560951,0.060642999999999996,-0.316012,-0.020169
460,-2.224265,-1.123198,-0.190546,-0.34363499999999997,0.901489,0.263119,1.149123,0.910867,0.716037,0.166496,0.108444,0.15706199999999998
461,-2.178603,-1.151074,-0.16409,-0.334523,0.9132020000000001,0.23271399999999998,1.335001,1.089745,0.8431559999999999,0.134175,0.196493,0.067839
462,-2.122184,-1.1805370000000002,-0.12401,-0.324047,0.92481,0.199294,1.534068,0.8955569999999999,0.747587,0.085354,0.179255,0.049102999999999994
463,-2.055893,-1.2075790000000002,-0.069138,-0.314294,0.934759,0.165666,1.5355219999999998,0.644548,0.647506,-0.023032,-0.141378,0.025404
464,-1.987788,-1.231631,-0.004963,-0.304192,0.943033,0.134748,1.493729,0.275415,0.555816,0.0653,-0.259423,-0.030362
465,-1.915909,-1.250542,0.06792999999999999,-0.296246,0.949156,0.1065,1.4126530000000002,0.09639299999999999,0.373882,0.176083,-0.251707,-8.6e-05
466,-1.844011,-1.26495,0.142,-0.289932,0.953592,0.081245,1.2546950000000001,0.045961,0.335455,0.36171,-0.18946300000000002,0.14141099999999998
467,-1.7657060000000002,-1.277708,0.218575,-0.283439,0.957356,0.055955,1.2403549999999999,0.433701,0.353018,0.256782,-0.197163,0.070891
468,-1.667671,-1.287567,0.304502,-0.278147,0.960158,0.027030000000000002,1.32946,0.970535,0.292064,0.137232,-0.27166599999999996,0.129205
469,-1.556403,-1.294377,0.398837,-0.272884,0.962039,-0.003928,1.302832,0.967483,0.279063,-0.117771,-0.120715,0.13285
470,-1.453385,-1.2973290000000002,0.48978599999999994,-0.268212,0.9628399999999999,-0.031637,1.170668,0.6689649999999999,0.187723,-0.094932,0.13509100000000002,0.279958
471,-1.359909,-1.296231,0.5730770000000001,-0.265121,0.962543,-0.05675499999999999,1.150652,0.651224,0.112831,-0.049042,0.209454,0.30832600000000004
472,-1.265021,-1.293867,0.6589079999999999,-0.260721,0.961899,-0.082303,1.1222809999999999,0.626356,0.22910100000000003,-0.07382799999999999,0.390334,0.439725
473,-1.177332,-1.291372,0.73529,-0.254727,0.9612139999999999,-0.10574000000000001,0.9477469999999999,0.749366,0.25443000000000005,-0.239947,0.626829,0.5812649999999999
474,-1.1101159999999999,-1.291289,0.791412,-0.247121,0.961192,-0.122645,0.529199,0.546924,0.360724,-0.247554,0.6268520000000001,0.59817
475,-1.086601,-1.299733,0.813128,-0.236977,0.9634870000000001,-0.12463900000000001,-0.24163800000000002,-0.164613,0.47909700000000005,-0.376884,0.574294,0.295324
476,-1.133394,-1.311795,0.773487,-0.232004,0.9666459999999999,-0.10848699999999999,-0.9852989999999999,-0.525989,0.12078399999999999,0.079294,0.625532,0.050168
477,-1.24241,-1.315676,0.677059,-0.23887600000000003,0.967633,-0.08139099999999999,-1.2602950000000002,-1.040449,-0.45624899999999996,0.257598,0.499118,0.028229
478,-1.382896,-1.313028,0.5638380000000001,-0.250436,0.9669610000000001,-0.047619,-1.470507,-1.759845,-0.456796,0.417016,0.228519,0.02026
479,-1.549803,-1.306308,0.426099,-0.261357,0.9652270000000001,-0.005488,-1.8754669999999998,-1.589439,-0.628622,0.283619,0.077407,-0.086004
480,-1.7202080000000002,-1.28538,0.27512,-0.278419,0.9595450000000001,0.041911000000000004,-2.279272,-0.9460780000000001,-1.060624,0.266014,0.15768900000000002,0.031605
481,-1.871775,-1.250617,0.12977,-0.300588,0.9491790000000001,0.093305,-2.622001,-0.48496999999999996,-1.2569569999999999,0.29064,0.31707199999999996,0.065737
482,-1.999902,-1.208917,0.002865,-0.32193499999999997,0.935233,0.147298,-2.751374,-0.407317,-1.116955,0.222448,0.325875,0.11394800000000001
483,-2.1061,-1.1687889999999999,-0.09604,-0.336534,0.920277,0.19958599999999999,-2.326896,-1.064184,-0.788408,0.299058,0.19717,-0.21306
484,-2.1907799999999997,-1.140017,-0.154303,-0.339863,0.90864,0.242623,-1.4584979999999999,-1.7097759999999997,-0.467458,0.36204899999999995,-0.172343,-0.411522
485,-2.250384,-1.1156709999999999,-0.191414,-0.341915,0.898206,0.27626100000000003,-1.4332209999999999,-0.893619,-0.528148,0.355297,-0.16386099999999998,-0.0029760000000000003
486,-2.29613,-1.089397,-0.22700900000000002,-0.346468,0.8863479999999999,0.30716,-1.4308379999999998,-0.721522,-0.410847,0.380998,-0.200969,-0.08423
487,-2.337064,-1.06584,-0.262436,-0.348557,0.8751950000000001,0.33547,-1.4243430000000001,-0.304596,-0.251103,0.21649200000000002,-0.264127,-0.082464
488,-2.3738029999999997,-1.045663,-0.296087,-0.348195,0.8652569999999999,0.360678,-1.175567,-0.551225,-0.063179,0.20288599999999998,-0.252342,-0.235465
489,-2.412584,-1.0310709999999998,-0.321571,-0.34232399999999996,0.85785,0.383284,-0.8810549999999999,-0.99124,-0.038125,0.170525,-0.189194,-0.203154
490,-2.451306,-1.018163,-0.338426,-0.334253,0.851145,0.40475300000000003,-0.674182,-1.362231,-0.148368,0.079523,0.041738,-0.054426999999999996
491,-2.484877,-1.007953,-0.34491700000000003,-0.325768,0.845742,0.422605,-0.42892299999999994,-1.4151850000000001,-0.172224,0.111321,-0.016182,-0.123807
492,-2.517587,-1.001667,-0.35220500000000005,-0.314872,0.8423709999999999,0.437338,-0.297747,-1.149374,0.10715799999999999,0.319373,-0.583414,0.019983
493,-2.546266,-1.0003440000000001,-0.36590100000000003,-0.302827,0.841657,0.44711000000000006,-0.22983499999999998,-0.742622,0.360279,0.3443,-0.320828,-0.008115
494,-2.570366,-1.006484,-0.380737,-0.289165,0.844957,0.449921,0.239781,-0.47989799999999994,0.585413,0.23566700000000002,-0.062623,0.023117
495,-2.588437,-1.0229700000000002,-0.391968,-0.27363000000000004,0.8536590000000001,0.443159,0.647586,-0.30390100000000003,0.707677,-0.030264,0.10447100000000001,0.431658
496,-2.604683,-1.036551,-0.407285,-0.260441,0.8606530000000001,0.43754099999999996,0.053364999999999996,-0.076981,0.686144,-0.041027,0.044834,0.7175189999999999
497,-2.636082,-1.032376,-0.44400100000000003,-0.24831399999999998,0.8585200000000001,0.448642,-0.897926,0.038061000000000005,0.713535,0.215126,-0.22277800000000003,-0.158389
498,-2.652309,-1.033731,-0.468483,-0.24045500000000003,0.8592139999999999,0.451585,0.2714,0.5525180000000001,0.5170130000000001,0.397483,-0.11086199999999999,-0.20933600000000002
499,-2.628984,-1.04913,-0.472657,-0.244403,0.8669899999999999,0.434271,0.55416,1.5325600000000001,0.541233,0.142047,0.774108,-0.021262
500,-2.622795,-1.067948,-0.48838100000000007,-0.23895300000000003,0.8762129999999999,0.41850600000000004,0.9048860000000001,0.782459,0.806358,0.157868,0.413063,-0.14899
501,-2.599639,-1.093015,-0.48331,-0.237173,0.8880170000000001,0.393916,1.257105,1.0813030000000001,0.359783,0.322195,0.293532,-0.0077469999999999995
502,-2.554072,-1.112861,-0.46636000000000005,-0.245052,0.896967,0.36796100000000004,0.901508,1.795869,0.19401300000000002,0.290157,-0.096552,-0.186534
503,-2.5069779999999997,-1.131277,-0.45330299999999996,-0.252265,0.904956,0.34265500000000004,0.9703200000000001,1.595792,0.351779,0.159141,-0.087238,-0.17821099999999998
504,-2.4622669999999998,-1.152202,-0.433399,-0.255374,0.9136610000000001,0.316234,1.1262,1.264428,0.23258299999999998,0.004489,-0.043849,-0.10103999999999999
505,-2.401868,-1.1694579999999999,-0.397104,-0.263329,0.920539,0.288553,1.126276,1.436161,-0.089171,-0.019111000000000003,-0.042029000000000004,0.09955499999999999
506,-2.328863,-1.1858389999999999,-0.351624,-0.272687,0.9268139999999999,0.25817399999999996,1.235077,1.547169,0.027882999999999998,0.090298,0.001759,0.012654
507,-2.257804,-1.2063409999999999,-0.305732,-0.27557800000000005,0.934318,0.226061,1.3619809999999999,1.3357569999999999,0.30571,0.105717,0.045846,0.040311
508,-2.182171,-1.229013,-0.24993200000000002,-0.274452,0.942159,0.192382,1.502738,1.089159,0.313418,0.029976,-0.042821,0.03235
509,-2.0948029999999997,-1.2509620000000001,-0.17735599999999999,-0.272219,0.9492870000000001,0.157314,1.610532,0.8533860000000001,0.306996,0.15847999999999998,-0.26166500000000004,-0.009105
510,-2.006147,-1.273817,-0.10114400000000001,-0.265333,0.956225,0.12340999999999999,1.511741,0.765206,0.599112,0.151594,-0.26860300000000004,0.024798
511,-1.922407,-1.2979120000000002,-0.028068,-0.25301799999999997,0.9629969999999999,0.092821,1.331228,0.628886,0.746508,0.100369,-0.172913,-0.061066999999999996
512,-1.834134,-1.318624,0.052965,-0.240902,0.9683729999999999,0.064947,1.336342,0.41647,0.58231,0.094525,-0.167683,-0.021032
513,-1.7336919999999998,-1.3318299999999998,0.149818,-0.23356,0.971583,0.038386,1.248569,0.291211,0.28168699999999997,0.164697,-0.126124,0.08016000000000001
514,-1.627256,-1.337474,0.254669,-0.23083800000000002,0.9729040000000001,0.013047,1.2492159999999999,0.249346,0.094806,0.129931,-0.23019699999999998,0.117645
515,-1.517017,-1.338115,0.360109,-0.23024899999999998,0.973052,-0.012395,1.20884,0.44050600000000006,0.010957999999999999,0.113809,-0.315764,0.14088900000000001
516,-1.408103,-1.337091,0.461987,-0.228521,0.972815,-0.03751,1.1392309999999999,0.500993,0.13003399999999998,0.006444,-0.248709,0.040013
517,-1.309346,-1.33575,0.5581109999999999,-0.22496999999999998,0.972504,-0.060196000000000006,1.0677860000000001,0.076029,0.17174,-0.100333,-0.044021,0.086151
518,-1.2276340000000001,-1.3319729999999999,0.642989,-0.222762,0.971617,-0.079593,0.9949459999999999,-0.10328699999999999,0.056093,-0.08513,0.215608,0.39209299999999997
519,-1.1581860000000002,-1.323817,0.714202,-0.22395500000000002,0.9696549999999999,-0.09803400000000001,0.8754719999999999,0.192945,-0.12778699999999998,-0.15012999999999999,0.236262,0.49750900000000003
520,-1.104908,-1.313402,0.761633,-0.227427,0.9670559999999999,-0.114351,0.710422,0.373002,-0.257357,-0.21352100000000002,0.265167,0.33034
521,-1.076009,-1.301146,0.790825,-0.234442,0.9638639999999999,-0.126494,0.558129,-0.162875,-0.38058000000000003,-0.172922,0.481479,0.25974899999999995
522,-1.066821,-1.291166,0.8094859999999999,-0.241681,0.961158,-0.13328099999999998,0.386212,-0.549459,-0.259508,-0.130252,0.550546,0.23676599999999998
523,-1.078443,-1.285914,0.808221,-0.24765900000000002,0.9596950000000001,-0.132848,-0.06031,-0.441358,-0.26597,0.064843,0.731971,0.177846
524,-1.114519,-1.282734,0.7756970000000001,-0.25502800000000003,0.9587959999999999,-0.125173,-0.557449,-0.083325,-0.39274699999999996,0.525871,1.000005,0.172841
525,-1.200911,-1.286367,0.6821520000000001,-0.261628,0.959822,-0.101441,-1.677446,0.23472300000000001,-0.37,0.394334,0.851045,0.034408999999999995
526,-1.3257649999999999,-1.2907,0.547042,-0.26818600000000004,0.9610290000000001,-0.067062,-1.9424549999999998,0.17160799999999998,-0.340791,0.19680599999999998,0.315796,0.181838
527,-1.475781,-1.2909469999999998,0.391393,-0.27496,0.961097,-0.026204,-2.214468,-0.11270999999999999,-0.398943,0.19358499999999998,-0.008811,0.223989
528,-1.645484,-1.280934,0.215088,-0.285019,0.958283,0.021327000000000002,-2.66725,0.08455499999999999,-0.5860920000000001,0.17541600000000002,0.044356,0.28174299999999997
529,-1.8173529999999998,-1.258429,0.033218,-0.298014,0.951609,0.075004,-2.837627,0.027082,-0.717532,0.12575799999999998,0.17124,0.092538
530,-1.9577950000000002,-1.2283549999999999,-0.10806600000000001,-0.31095100000000003,0.9419379999999999,0.126728,-2.469832,-0.5142800000000001,-0.7196100000000001,0.078987,0.189486,0.073406
531,-2.0630610000000003,-1.196034,-0.20752800000000002,-0.322585,0.9305950000000001,0.173003,-2.1699599999999997,-0.6955140000000001,-0.6788270000000001,0.154281,-0.056495000000000004,-0.084593
532,-2.16275,-1.167582,-0.285235,-0.325612,0.9198049999999999,0.21893800000000002,-1.892679,-1.8142200000000002,-0.345377,0.21608400000000003,-0.406423,-0.292134
533,-2.253854,-1.144992,-0.34277199999999997,-0.32038099999999997,0.9107069999999999,0.260704,-1.480197,-1.757657,-0.196221,0.180778,-0.377473,-0.14899400000000002
534,-2.313879,-1.124044,-0.381714,-0.31814499999999996,0.901855,0.292298,-1.1851559999999999,-0.9828979999999999,-0.261383,0.37400700000000003,-0.294693,0.003875
535,-2.3551290000000003,-1.106934,-0.410818,-0.316698,0.894331,0.31602399999999997,-1.017939,-0.640077,-0.090807,0.345857,-0.30589099999999997,0.07437200000000001
536,-2.3940740000000003,-1.093444,-0.441853,-0.312327,0.888215,0.336932,-0.926788,-0.575148,0.10950399999999999,0.266855,-0.292878,-0.018573
537,-2.435905,-1.082449,-0.47145600000000004,-0.304279,0.883109,0.357111,-0.8281,-0.9196209999999999,0.12131700000000001,0.054539,-0.139487,-0.13327999999999998
538,-2.474883,-1.070832,-0.49045600000000006,-0.296456,0.8776,0.376734,-0.673999,-1.2633940000000001,-0.089742,0.045327,-0.139379,-0.154871
539,-2.515289,-1.060152,-0.500971,-0.28647399999999995,0.8724299999999999,0.395973,-0.5082270000000001,-1.6623290000000002,-0.103028,0.111364,-0.14129,-0.157523
540,-2.555721,-1.054751,-0.509538,-0.272835,0.869778,0.411149,-0.196346,-1.574928,0.146866,0.29496100000000003,-0.312664,0.0023190000000000003
541,-2.5898470000000002,-1.057257,-0.517672,-0.25750500000000004,0.8710110000000001,0.418361,0.105448,-1.22183,0.29486799999999996,0.32659699999999997,-0.24721700000000002,0.013675999999999999
542,-2.616403,-1.0668309999999999,-0.525193,-0.24211300000000002,0.875675,0.41781599999999997,0.44677,-0.8624569999999999,0.43779700000000005,0.212023,-0.176349,0.139923
543,-2.632028,-1.081261,-0.530459,-0.229368,0.882552,0.410474,0.572515,-0.381548,0.477583,0.043134,-0.044112,0.40517
544,-2.643375,-1.091615,-0.5396810000000001,-0.220317,0.887373,0.405001,0.15886199999999998,-0.122129,0.43056400000000006,-0.008489,0.025682999999999997,0.557233
545,-2.663568,-1.0926930000000001,-0.560753,-0.211654,0.887869,0.408518,-0.28276599999999996,-0.07915900000000001,0.457334,0.007812,-0.337561,0.136953
546,-2.6735849999999997,-1.093826,-0.575271,-0.207098,0.88839,0.40971899999999994,-0.072866,0.28134000000000003,0.166714,0.5344140000000001,-0.25200700000000004,-0.24632800000000002
547,-2.665457,-1.0911879999999998,-0.577218,-0.21149400000000002,0.8871760000000001,0.410104,-0.251987,0.7708619999999999,-0.08406,0.184746,1.241609,0.5214300000000001
548,-2.6432580000000003,-1.096335,-0.575679,-0.21836,0.889539,0.401292,0.879434,0.8270299999999999,0.339309,0.210654,0.855914,-0.145494
549,-2.6095900000000003,-1.13189,-0.5521590000000001,-0.215558,0.905217,0.366214,2.030459,0.7571180000000001,0.30791399999999997,-0.042194,0.294795,-0.226352
550,-2.54892,-1.1593120000000001,-0.507994,-0.223413,0.9165280000000001,0.331752,1.448102,0.986015,-0.217739,0.290093,-0.324075,-0.34972600000000004
551,-2.49431,-1.176994,-0.46268100000000006,-0.23137800000000003,0.923457,0.306086,1.12604,0.609758,-0.15114,0.383417,-0.20890300000000003,-0.147181
552,-2.444948,-1.193444,-0.423785,-0.23641900000000002,0.929644,0.282605,1.131254,0.7284649999999999,-0.004909,0.32579,-0.050692,-0.07176
553,-2.385234,-1.213215,-0.379063,-0.2402,0.936746,0.25457199999999996,1.371301,1.051125,0.08288,0.17011700000000002,0.21878699999999998,0.09058200000000001
554,-2.302714,-1.2357,-0.320214,-0.244633,0.9443790000000001,0.219773,1.56113,1.545668,0.12095999999999998,0.190358,0.041629,0.12058900000000002
555,-2.198079,-1.258564,-0.24596500000000002,-0.24869899999999998,0.95165,0.180297,1.6610619999999998,1.748607,0.16626300000000002,0.157878,-0.202993,0.101319
556,-2.081904,-1.279101,-0.160468,-0.25082,0.957758,0.140663,1.5904770000000001,1.723236,0.178621,0.042247,-0.284036,0.057715999999999996
557,-1.958145,-1.2958100000000001,-0.06447,-0.251411,0.9624290000000001,0.102565,1.547675,1.452825,0.173328,0.008033,-0.319073,-0.016947999999999998
558,-1.8352650000000001,-1.311184,0.036217,-0.247775,0.9664889999999999,0.067101,1.484741,1.209242,0.402868,0.102007,-0.296537,-0.046439999999999995
559,-1.7151419999999997,-1.327576,0.140261,-0.23831799999999997,0.970567,0.034641000000000005,1.403137,0.820952,0.605758,0.102011,-0.206896,-0.012424
560,-1.593516,-1.3426790000000002,0.252319,-0.22607800000000003,0.974094,0.005137,1.35901,0.5248510000000001,0.632534,0.090168,-0.11726700000000001,0.025838
561,-1.466018,-1.351019,0.372897,-0.216809,0.9759459999999999,-0.0228,1.274907,0.514586,0.342472,0.086042,-0.049005,0.059391
562,-1.344531,-1.349875,0.487979,-0.21353699999999998,0.9756959999999999,-0.049158,1.2777120000000002,0.392099,0.06918400000000001,0.09912699999999999,-0.174259,0.14388399999999998
563,-1.230549,-1.344451,0.5976020000000001,-0.211548,0.974493,-0.074891,1.153928,0.434946,0.11740199999999999,0.023468,-0.248175,0.064973
564,-1.130534,-1.3377629999999998,0.692198,-0.208905,0.9729700000000001,-0.098415,1.154611,0.294549,0.062039,-0.036884,-0.154138,0.11178199999999999
565,-1.047525,-1.32694,0.7734979999999999,-0.209135,0.9704139999999999,-0.120653,1.045954,0.169875,-0.10092999999999999,-0.112764,0.05577000000000001,0.16688699999999998
566,-0.9898629999999999,-1.3135940000000002,0.8296709999999999,-0.21264299999999997,0.9671049999999999,-0.139601,0.8611540000000001,0.208404,-0.250755,-0.15925899999999998,0.28168899999999997,0.459395
567,-0.950809,-1.298658,0.8660389999999999,-0.218764,0.963198,-0.156173,0.740093,0.19129100000000002,-0.394721,-0.14557,0.30485300000000004,0.542663
568,-0.935683,-1.2877239999999999,0.877597,-0.22484099999999999,0.960202,-0.165702,0.272505,0.241461,-0.281615,-0.143216,0.389926,0.587623
569,-0.934175,-1.281431,0.8786579999999999,-0.229446,0.958425,-0.16963,0.23968699999999998,-0.098561,-0.203428,0.093429,0.35911,0.384535
570,-0.931628,-1.275336,0.889912,-0.233697,0.9566680000000001,-0.17369600000000002,0.258915,-0.488838,-0.12374500000000001,0.18818,0.303692,0.371678
571,-0.942757,-1.276939,0.885346,-0.23437399999999997,0.957134,-0.170183,-0.30997199999999997,-0.24940700000000002,0.166803,0.07948200000000001,0.363392,0.17935299999999998
572,-0.963216,-1.283219,0.869691,-0.232866,0.9589340000000001,-0.161917,-0.360448,-0.19977,0.052088,0.197755,0.9203690000000001,0.305746
573,-1.000949,-1.289372,0.829924,-0.23383600000000002,0.9606610000000001,-0.149831,-0.860778,0.156161,-0.07898200000000001,0.1887,0.7816489999999999,0.21867899999999998
574,-1.073883,-1.299173,0.752093,-0.235844,0.9633370000000001,-0.127898,-1.329601,-0.012381,-0.14827,0.112232,0.348385,0.14778
575,-1.199913,-1.3085040000000001,0.6299899999999999,-0.24166100000000001,0.9657979999999999,-0.093977,-1.835422,-0.702284,-0.341063,0.045478,0.090827,0.003355
576,-1.3764459999999998,-1.3084149999999999,0.46517600000000003,-0.254494,0.965775,-0.050093,-2.2161939999999998,-0.889834,-0.794272,0.07382999999999999,0.10856600000000001,-0.043443
577,-1.575639,-1.2915,0.27560300000000004,-0.275672,0.96125,0.001335,-2.532918,-0.7869689999999999,-1.2014719999999999,0.23293200000000003,0.318963,0.077782
578,-1.7581529999999999,-1.2623090000000001,0.105397,-0.29830100000000004,0.952794,0.056552,-2.588102,-1.134306,-1.139456,0.26074899999999995,0.361476,0.030499000000000002
579,-1.9132639999999999,-1.231384,-0.029492,-0.313596,0.94295,0.111802,-2.39891,-1.427158,-0.795928,0.148801,0.192487,0.000213
580,-2.043611,-1.201106,-0.136547,-0.321683,0.9324389999999999,0.164544,-2.267086,-1.5425149999999999,-0.5673279999999999,0.332303,-0.118246,-0.204004
581,-2.159168,-1.173712,-0.222665,-0.32169899999999996,0.922192,0.214637,-1.9434310000000001,-1.8718759999999999,-0.26768000000000003,0.481153,-0.24377100000000002,-0.17360599999999998
582,-2.247162,-1.149605,-0.289406,-0.318839,0.912602,0.255922,-1.7185150000000002,-0.8568290000000001,-0.156314,0.412574,-0.194249,0.030775
583,-2.300207,-1.128212,-0.341923,-0.319306,0.903648,0.285414,-1.4227530000000002,0.005683,-0.056009,0.288499,-0.329216,0.011659000000000001
584,-2.338524,-1.109643,-0.38962399999999997,-0.320157,0.89554,0.30903800000000003,-1.4167379999999998,0.30335,0.091066,0.182859,-0.320116,-0.036302
585,-2.3805560000000003,-1.091422,-0.439302,-0.318092,0.887284,0.33398,-1.433851,-0.084738,0.187584,0.052740999999999996,-0.302079,-0.148647
586,-2.431457,-1.073256,-0.484887,-0.311145,0.8787590000000001,0.361896,-1.338686,-0.7933020000000001,0.144291,0.008655,-0.189505,-0.187167
587,-2.4810939999999997,-1.0552629999999998,-0.51605,-0.30245900000000003,0.87003,0.389312,-1.073485,-1.340937,-0.064662,0.031722,-0.10686199999999998,-0.247177
588,-2.529897,-1.039772,-0.533571,-0.290811,0.862289,0.41458900000000004,-0.80528,-1.7752299999999999,-0.11564300000000001,0.146555,-0.166793,-0.232933
589,-2.576795,-1.028246,-0.546928,-0.276357,0.856395,0.436133,-0.569657,-1.675395,0.021539,0.413839,-0.472178,0.029351
590,-2.61315,-1.022198,-0.560021,-0.262929,0.8532559999999999,0.450354,-0.325432,-1.009172,0.236035,0.40729299999999996,-0.277725,0.157815
591,-2.642621,-1.024767,-0.577024,-0.248495,0.854593,0.455981,0.026699,-0.659151,0.576673,0.29837600000000003,-0.249231,0.11591900000000001
592,-2.666313,-1.0337120000000002,-0.597964,-0.234116,0.8592040000000001,0.454924,0.19609000000000001,-0.08935599999999999,0.727745,-0.032760000000000004,-0.18626099999999998,0.305284
593,-2.684915,-1.043792,-0.618255,-0.22178299999999998,0.864317,0.451403,0.185911,-0.069786,0.637918,-0.064075,0.05861,0.514432
594,-2.7030060000000002,-1.04873,-0.636133,-0.211765,0.866791,0.451471,-0.078173,-0.15542,0.43749399999999994,-0.067547,0.103348,0.646246
595,-2.718038,-1.053596,-0.648786,-0.203219,0.869207,0.450754,0.30355,-0.104003,0.302294,0.370944,-0.397619,-0.06788
596,-2.7170650000000003,-1.063501,-0.64956,-0.200102,0.8740620000000001,0.44268900000000005,0.49605,0.369789,0.199414,0.40788,0.273003,0.003249
597,-2.7000189999999997,-1.0709739999999999,-0.6541520000000001,-0.204821,0.877668,0.433296,0.315206,1.166421,0.40436500000000003,0.170183,0.809191,0.280816
598,-2.68182,-1.0981319999999999,-0.653356,-0.202018,0.890358,0.40798,1.647904,0.860824,0.546525,0.047369999999999995,0.267189,-0.098562
599,-2.634297,-1.129502,-0.630652,-0.207494,0.9042,0.373316,1.4865549999999998,1.5576969999999999,0.10867,0.105947,-0.219675,-0.07017000000000001
600,-2.5747240000000002,-1.150077,-0.60006,-0.219315,0.912795,0.344532,1.031613,1.573623,-0.016305,0.249344,-0.399383,-0.128223
601,-2.525995,-1.1646889999999999,-0.583605,-0.22810999999999998,0.918666,0.322515,0.69402,1.7144400000000002,0.225779,0.204032,-0.142192,-0.09575399999999999
602,-2.483509,-1.179653,-0.576446,-0.233168,0.924474,0.301625,0.760396,1.908577,0.370204,0.090102,0.211497,0.063441
603,-2.426034,-1.201342,-0.5586979999999999,-0.236898,0.932524,0.272534,1.209101,2.164328,0.492651,0.117406,0.408159,0.110797
604,-2.345772,-1.228391,-0.521447,-0.23987199999999997,0.94195,0.234923,1.5310030000000001,2.250898,0.409331,0.13170199999999999,0.195639,0.10315
605,-2.2465479999999998,-1.254385,-0.460301,-0.242773,0.950358,0.19462100000000002,1.62523,1.9475369999999999,0.26723600000000003,-0.026575,-0.166484,0.063863
606,-2.138754,-1.2769,-0.380244,-0.2442,0.9571219999999999,0.15582200000000002,1.625756,1.286265,0.20078900000000002,-0.128404,-0.313934,0.011184999999999999
607,-2.035939,-1.2980129999999999,-0.290182,-0.240786,0.963025,0.120843,1.605625,0.545255,0.378923,-0.10581800000000001,-0.261075,0.000998
608,-1.935066,-1.31981,-0.190965,-0.23205900000000002,0.9686680000000001,0.08848099999999999,1.6063379999999998,0.127119,0.5151279999999999,0.064243,-0.090693,0.008123
609,-1.8274290000000002,-1.337914,-0.08126900000000001,-0.22321999999999997,0.9730049999999999,0.058577,1.4817209999999998,0.060895000000000005,0.401111,0.137603,-0.082075,0.050569
610,-1.702954,-1.348754,0.042813,-0.218296,0.97545,0.029019,1.466631,0.279159,0.17746800000000001,0.269321,-0.141481,0.09424199999999999
611,-1.567515,-1.352136,0.171428,-0.216915,0.976189,-0.000712,1.369575,0.613522,0.028947000000000004,0.276729,-0.267449,0.151179
612,-1.437203,-1.349685,0.2883,-0.217354,0.9756540000000001,-0.029211,1.216711,0.920198,-0.073995,0.21872800000000003,-0.269142,0.171698
613,-1.324001,-1.343542,0.383889,-0.21847199999999997,0.974289,-0.05504,1.0389620000000002,0.99334,-0.095627,0.059002,-0.220108,0.110765
614,-1.227816,-1.336443,0.46674899999999997,-0.218685,0.972665,-0.078091,1.004952,0.644722,0.001791,-0.106358,-0.15018499999999999,0.026211
615,-1.144082,-1.3312549999999999,0.546966,-0.215979,0.971447,-0.098195,0.933658,0.108596,0.136576,-0.116373,-0.15523900000000002,0.120152
616,-1.0709600000000001,-1.3278450000000002,0.6206430000000001,-0.21113400000000002,0.9706319999999999,-0.115298,0.804614,0.04872,0.303462,-0.012789,-0.165319,0.12428499999999999
617,-1.0062799999999998,-1.325799,0.68835,-0.204918,0.970138,-0.12976600000000002,0.7183970000000001,-0.103475,0.343646,-0.061257000000000006,0.055421000000000005,0.149953
618,-0.948226,-1.3243850000000001,0.751366,-0.198157,0.969794,-0.142236,0.670976,-0.184373,0.369055,-0.067102,0.125924,0.173624
619,-0.907905,-1.322387,0.7988850000000001,-0.19379000000000002,0.969305,-0.151301,0.41216499999999995,-0.245679,0.20709299999999997,-0.084424,0.252711,0.141276
620,-0.88733,-1.320052,0.826399,-0.19239,0.968728,-0.156685,0.316238,-0.334386,0.096509,0.022575,0.14407999999999999,0.195198
621,-0.8655780000000001,-1.318573,0.8547030000000001,-0.190027,0.96836,-0.161761,0.33226,-0.21134899999999998,0.21610500000000002,0.076548,0.164453,0.22165100000000001
622,-0.835313,-1.3203719999999999,0.883242,-0.183753,0.968807,-0.166267,0.148721,0.373653,0.333714,0.077796,0.37537,0.389381
623,-0.7929430000000001,-1.323864,0.910552,-0.17413299999999998,0.9696670000000001,-0.171525,0.117146,1.0126540000000002,0.402109,-0.041855,0.397811,0.43654
624,-0.721873,-1.328341,0.9569840000000001,-0.158644,0.970751,-0.180198,0.280364,1.443792,0.601386,-0.027391000000000002,0.547513,0.374732
625,-0.647532,-1.3300889999999999,1.0083229999999999,-0.143799,0.9711700000000001,-0.19013,0.358123,1.026546,0.44864,-0.521027,0.557792,0.297186
626,-0.6006319999999999,-1.3280459999999998,1.037828,-0.135848,0.9706809999999999,-0.198299,0.164088,0.750422,0.138922,0.10397200000000001,0.311821,0.283062
627,-0.584137,-1.330124,1.042441,-0.131445,0.9711780000000001,-0.198829,-0.121531,0.5120100000000001,0.067798,0.22377600000000003,0.326826,0.312171
628,-0.5941,-1.33477,1.0208760000000001,-0.130892,0.972275,-0.193768,-0.51189,0.511243,-0.200915,0.310473,0.5231779999999999,0.410336
629,-0.65595,-1.342131,0.9506530000000001,-0.13825,0.9739700000000001,-0.17963099999999999,-0.899754,0.25413800000000003,-0.569695,0.165167,0.182631,0.272602
630,-0.7666029999999999,-1.348443,0.832989,-0.152973,0.9753809999999999,-0.158834,-1.182317,0.14375,-0.957155,0.042133,-0.039895,0.235143
631,-0.931299,-1.346552,0.662914,-0.178423,0.9749629999999999,-0.132705,-1.430036,0.012648999999999999,-1.5227389999999998,0.016878,0.005094,0.108321
632,-1.120016,-1.3335709999999998,0.473034,-0.211525,0.971994,-0.102382,-1.564606,-0.447378,-1.715369,0.081139,0.020255000000000002,0.13589
633,-1.302801,-1.316497,0.304534,-0.24258000000000002,0.9678399999999999,-0.066613,-1.632213,-1.3180319999999999,-1.30987,0.16972,0.047846,0.150811
634,-1.464507,-1.304235,0.17970999999999998,-0.261922,0.9646819999999999,-0.027944999999999998,-1.238618,-2.4041200000000003,-0.709661,0.370336,0.158578,-0.20418699999999998
635,-1.5825850000000001,-1.294292,0.099527,-0.272967,0.962016,0.003218,-1.09628,-1.60232,-0.478958,0.371646,0.159444,0.174486
636,-1.697241,-1.286404,0.000668,-0.278326,0.959832,0.035382,-1.523809,-0.782758,-0.199916,0.44418900000000006,0.12053599999999999,0.05434
637,-1.812889,-1.276448,-0.11023699999999999,-0.281648,0.956992,0.069549,-1.7172740000000002,-0.16841199999999998,-0.219146,0.493654,0.07242699999999999,0.21486
638,-1.906814,-1.262078,-0.21412899999999999,-0.286839,0.952724,0.10018200000000001,-1.619581,0.418307,-0.241648,0.501393,0.075642,0.14168499999999998
639,-1.9833599999999998,-1.247997,-0.306373,-0.290599,0.948351,0.12719,-1.5929719999999998,0.597468,-0.047275,0.35286999999999996,-0.036425,0.020972
640,-2.057785,-1.2361229999999999,-0.396138,-0.290269,0.9445180000000001,0.153705,-1.540225,0.444075,0.171207,0.05160700000000001,-0.334014,-0.0010869999999999999
641,-2.135106,-1.225485,-0.48364399999999996,-0.286005,0.9409700000000001,0.181032,-1.502794,0.14185799999999998,0.32461100000000004,0.050119,-0.37992,-0.017961
642,-2.2124029999999997,-1.217098,-0.56399,-0.277483,0.938098,0.20729299999999998,-1.283341,-0.22714499999999999,0.5050100000000001,0.048617,-0.45045799999999997,-0.047487
643,-2.2872779999999997,-1.212705,-0.6362800000000001,-0.264304,0.9365680000000001,0.230173,-1.00651,-0.42478299999999997,0.6717029999999999,0.183845,-0.579527,-0.067682
644,-2.35243,-1.212385,-0.695861,-0.248971,0.9364549999999999,0.24710300000000002,-0.62698,-0.464549,0.696838,0.24501900000000001,-0.655205,-0.079546
645,-2.400259,-1.21566,-0.73775,-0.2348,0.937599,0.256461,-0.249673,-0.40264,0.605391,0.288175,-0.6971970000000001,-0.087119
646,-2.434388,-1.222645,-0.763858,-0.22165100000000001,0.940005,0.259338,0.084953,-0.5399470000000001,0.553425,0.301912,-0.667529,-0.073181
647,-2.4595130000000003,-1.233378,-0.778814,-0.208693,0.9436129999999999,0.256977,0.345406,-0.546038,0.518932,0.261519,-0.580087,0.028637
648,-2.469348,-1.245636,-0.782183,-0.198937,0.9476,0.24994699999999997,0.474937,-0.145257,0.34734,0.187218,-0.45928800000000003,0.26050500000000004
649,-2.457904,-1.253803,-0.775895,-0.19689,0.950177,0.241648,0.281848,0.546768,0.08338999999999999,0.160879,-0.318463,0.475454
650,-2.439559,-1.254966,-0.773021,-0.200576,0.9505389999999999,0.237152,-0.04898,0.901991,-0.017653,0.126815,-0.18451700000000001,0.659622
651,-2.427638,-1.251783,-0.783234,-0.205369,0.9495450000000001,0.237029,-0.315015,1.1125459999999998,0.038971,0.037324,0.061577999999999994,0.699739
652,-2.4235860000000002,-1.2463090000000001,-0.797798,-0.209744,0.9478139999999999,0.24010599999999999,-0.33153299999999997,0.670876,-0.051377,-0.198932,0.193986,0.636694
653,-2.428043,-1.239945,-0.805137,-0.21261599999999997,0.945766,0.245594,-0.345706,-0.2192,-0.162499,-0.392411,0.20467,0.5684319999999999
654,-2.440819,-1.234309,-0.804275,-0.212894,0.9439200000000001,0.25236,-0.037135,-0.9136270000000001,-0.19684100000000002,-0.081738,0.06493,0.464818
655,-2.441812,-1.236133,-0.7858850000000001,-0.211535,0.9445209999999999,0.251255,0.40171,-0.8522360000000001,-0.21201399999999998,0.339159,0.006314999999999999,0.594204
656,-2.4351540000000003,-1.234205,-0.765265,-0.21438400000000002,0.943886,0.251225,-0.11330699999999999,-0.459958,-0.36246100000000003,0.726851,0.252617,0.40581799999999996
657,-2.4269060000000002,-1.225689,-0.757934,-0.22170900000000002,0.941039,0.25551,-0.105675,0.297392,-0.35376399999999997,0.7028800000000001,0.377473,0.29579
658,-2.402747,-1.2252040000000002,-0.7441300000000001,-0.22812399999999997,0.940875,0.250417,0.081335,0.857115,-0.096802,0.374395,0.239011,-0.21681799999999998
659,-2.3822099999999997,-1.218556,-0.752624,-0.237519,0.938602,0.250211,-0.481037,1.695655,-0.184057,0.237,0.787441,-0.232068
660,-2.340233,-1.208824,-0.7449479999999999,-0.25436,0.9352,0.246367,-0.053810000000000004,1.664775,-0.557048,0.23189899999999997,0.378933,-0.131072
661,-2.280621,-1.2055,-0.7188060000000001,-0.270942,0.934018,0.2328,0.323519,1.815937,-0.324938,0.312965,-0.344586,-0.072796
662,-2.221393,-1.2078870000000002,-0.695865,-0.282473,0.934868,0.215004,0.480055,1.949877,-0.12319100000000001,0.256762,-0.141777,-0.11888800000000001
663,-2.141388,-1.2118440000000001,-0.65995,-0.295637,0.936265,0.18974100000000002,0.669738,2.511023,-0.224066,0.273878,-0.08799900000000001,-0.125212
664,-2.057432,-1.2198959999999999,-0.625638,-0.303833,0.9390639999999999,0.160751,0.796949,2.587416,0.274516,0.321671,0.21495799999999998,-0.109222
665,-1.9747119999999998,-1.236612,-0.591508,-0.30159899999999995,0.944678,0.128908,0.8848590000000001,2.481608,0.550867,0.112954,0.21734,-0.11241400000000001
666,-1.881293,-1.250137,-0.545655,-0.300114,0.9490280000000001,0.096299,0.989917,2.5431209999999997,0.262034,0.08049400000000001,0.035591000000000005,-0.105393
667,-1.7668439999999999,-1.258366,-0.479293,-0.301478,0.9515889999999999,0.059873,1.1527459999999998,2.507072,0.078415,0.135432,-0.194708,-0.152799
668,-1.64567,-1.2617909999999999,-0.40431999999999996,-0.303254,0.952636,0.022747999999999997,1.147853,2.506425,-0.020965,0.11244200000000001,-0.158203,-0.029126
669,-1.5248979999999999,-1.25984,-0.331419,-0.305642,0.952041,-0.014038,1.0837860000000001,2.586066,-0.16786099999999998,0.06800199999999999,-0.103744,-0.025024
670,-1.4134440000000001,-1.2539799999999999,-0.268015,-0.307689,0.950232,-0.048819,0.942931,2.565313,-0.183774,0.040827999999999996,0.042444,0.045995999999999995
671,-1.315025,-1.248527,-0.219072,-0.306413,0.948519,-0.080127,0.7142149999999999,2.6103110000000003,-0.049765,0.22545,0.004804,0.094805
672,-1.22653,-1.2463520000000001,-0.18144100000000002,-0.30007399999999995,0.9478280000000001,-0.10759,0.565375,2.685674,0.14672000000000002,0.26970900000000003,-0.07858,0.150864
673,-1.138615,-1.2469629999999998,-0.146087,-0.28894200000000003,0.948023,-0.133278,0.5134989999999999,2.675712,0.28523899999999996,0.263414,-0.15821300000000002,0.155419
674,-1.041713,-1.2482360000000001,-0.099955,-0.27365,0.948427,-0.159999,0.656317,2.577583,0.45834600000000003,-0.12533699999999998,-0.13904,0.180675
675,-0.947419,-1.248932,-0.047625,-0.256833,0.9486469999999999,-0.184668,0.66113,1.977852,0.449534,-0.23314200000000002,-0.048302,0.19979
676,-0.8706870000000001,-1.248543,-0.002792,-0.242204,0.9485239999999999,-0.204051,0.544953,1.514916,0.435429,-0.202483,-0.139991,0.308222
677,-0.8041159999999999,-1.249577,0.042194,-0.227386,0.948851,-0.21903000000000003,0.465301,1.03521,0.587175,-0.20544400000000002,-0.16401500000000002,0.306508
678,-0.74123,-1.25268,0.091503,-0.21118299999999998,0.9498260000000001,-0.230713,0.443151,0.7237979999999999,0.694242,-0.158813,0.054689999999999996,0.27415500000000004
679,-0.6864779999999999,-1.256506,0.138165,-0.195936,0.951016,-0.239112,0.23971399999999998,0.5105930000000001,0.6418189999999999,0.21142399999999997,0.11275,0.318076
680,-0.63859,-1.264011,0.173996,-0.180005,0.953309,-0.242479,-0.052369000000000006,0.836383,0.674613,0.286161,0.076537,0.329164
681,-0.5852890000000001,-1.271987,0.202776,-0.162626,0.9556879999999999,-0.24537899999999999,-0.072564,1.6307770000000001,0.50147,0.298597,0.057602999999999994,0.40963999999999995
682,-0.527215,-1.27695,0.21678699999999998,-0.14572100000000002,0.9571370000000001,-0.250302,-0.154625,2.4963759999999997,0.157957,-0.020737000000000002,0.24174600000000002,0.409375
683,-0.48663,-1.282016,0.20405299999999998,-0.133176,0.958592,-0.251719,-0.41299300000000005,2.643312,-0.132456,-0.165286,0.27158699999999997,0.28499800000000003
684,-0.4678,-1.290036,0.170241,-0.12494200000000001,0.9608450000000001,-0.24731199999999998,-0.674312,2.515899,-0.27726,-0.15516300000000002,0.235749,0.295057
685,-0.461243,-1.302883,0.125573,-0.11781400000000002,0.964325,-0.237051,-0.954343,2.453821,-0.22786199999999998,-0.243484,0.209869,0.266836
686,-0.47787700000000005,-1.320325,0.060702,-0.11398699999999999,0.9687959999999999,-0.220088,-1.332945,2.248368,-0.46845699999999996,-0.191952,0.363098,0.295085
687,-0.557225,-1.345675,-0.065938,-0.11804500000000001,0.974767,-0.18945,-2.102673,2.0998229999999998,-0.7481760000000001,0.013368999999999999,0.362757,0.21693099999999998
688,-0.709359,-1.377224,-0.259527,-0.125291,0.981323,-0.145956,-2.6533990000000003,1.667814,-0.66067,0.208848,0.038558999999999996,-0.15124
689,-0.965852,-1.406073,-0.5428470000000001,-0.13486900000000002,0.9864639999999999,-0.093251,-2.867689,0.811842,-0.602318,0.295605,0.199632,-0.047878
690,-1.310946,-1.419694,-0.909257,-0.14546099999999998,0.988606,-0.038673,-2.882939,0.997181,-0.5845020000000001,0.374206,0.680767,0.050802999999999994
691,-1.6452759999999997,-1.413736,-1.280067,-0.155969,0.987691,0.011637999999999999,-2.745262,2.046704,-0.494087,0.21293,0.42186999999999997,0.095585
692,-1.911018,-1.395298,-1.595099,-0.16458,0.98464,0.058259000000000005,-2.696877,2.139287,-0.24604,-0.10528699999999999,0.00265,0.079665
693,-2.128161,-1.373657,-1.8508830000000003,-0.166213,0.9806309999999999,0.103598,-2.5824599999999998,1.468051,0.214955,-0.248216,0.03739,0.073251
694,-2.3169299999999997,-1.348083,-2.063917,-0.162186,0.975302,0.149925,-2.461855,0.677661,0.365293,-0.366394,0.051081,0.16503199999999998
695,-2.456366,-1.319883,-2.216071,-0.157123,0.968686,0.192236,-2.080897,0.408084,0.317025,-0.16566199999999998,-0.29436999999999997,0.163934
696,-2.549649,-1.295824,-2.3219090000000002,-0.151497,0.962433,0.225316,-1.59083,0.398329,0.46680699999999997,-0.035332,-0.478134,0.086528
697,-2.630873,-1.281574,-2.411562,-0.139407,0.958466,0.24880500000000003,-1.0791,0.188477,0.819959,0.11598499999999999,-0.68219,0.025975
698,-2.707521,-1.27557,-2.496453,-0.12236400000000001,0.956736,0.263967,-0.684759,0.292844,1.0180639999999999,0.023212,-0.589518,0.029368000000000002
699,-2.774581,-1.274902,-2.574376,-0.10463,0.956542,0.272169,-0.342735,0.421652,1.010674,-0.063751,-0.518843,0.057558000000000005
700,-2.827344,-1.2787030000000001,-2.6370560000000003,-0.089005,0.957643,0.273847,-0.000167,0.288984,0.8572770000000001,-0.14807,-0.448992,0.1122
701,-2.870011,-1.286216,-2.685367,-0.075312,0.95978,0.270456,0.238815,0.138552,0.707451,-0.178152,-0.46432700000000005,0.111945
702,-2.896155,-1.295617,-2.715766,-0.06602100000000001,0.962376,0.263569,0.407875,0.189223,0.410533,-0.117344,-0.481908,0.167553
703,-2.900457,-1.3062120000000002,-2.726414,-0.062447,0.965201,0.253933,0.519545,0.37503800000000004,0.199567,-0.043708,-0.453849,0.402516
704,-2.891194,-1.317497,-2.7296810000000002,-0.062094,0.968091,0.242774,0.518171,0.78622,0.204372,-0.034998,-0.439938,0.570199
705,-2.888355,-1.325877,-2.7471,-0.060748,0.9701569999999999,0.234735,0.19758299999999998,1.071108,0.367342,-0.08112799999999999,-0.171176,0.5657260000000001
706,-2.895887,-1.324835,-2.775634,-0.059224,0.9699040000000001,0.236166,-0.287003,0.91875,0.260535,-0.194469,0.099051,0.465692
707,-2.899069,-1.316466,-2.793124,-0.06041900000000001,0.967832,0.24422399999999997,-0.5225609999999999,0.49441499999999994,0.02122,-0.239446,0.362383,0.326348
708,-2.902857,-1.307431,-2.7982169999999997,-0.061559,0.965519,0.25293699999999997,-0.366475,-0.198349,-0.030213999999999998,0.033864,0.511333,0.45044799999999996
709,-2.921655,-1.3064120000000001,-2.811888,-0.057008,0.9652540000000001,0.25500900000000004,0.042829,-0.227588,0.266444,0.399858,0.6527430000000001,0.550304
710,-2.943191,-1.304226,-2.8388150000000003,-0.05191900000000001,0.96468,0.25824600000000003,-0.256795,0.65179,0.39461599999999997,0.342752,0.807415,0.394708
711,-2.954614,-1.302499,-2.87341,-0.049276,0.964224,0.260459,-0.160905,1.395838,0.45628900000000006,0.230383,0.368632,0.08207
712,-2.9526,-1.3051700000000002,-2.9116720000000003,-0.049316000000000006,0.9649280000000001,0.257828,0.180675,2.23904,0.55053,0.041473,0.024069999999999998,-0.25174
713,-2.9414830000000003,-1.313621,-2.951681,-0.050556,0.9671120000000001,0.24926199999999998,0.386394,2.510725,0.62853,0.017689,-0.136576,-0.40458099999999997
714,-2.943155,-1.322794,-2.998354,-0.048389,0.969405,0.24063800000000002,0.318684,1.935672,0.638408,-0.004666,-0.19409,-0.25814000000000004
715,-2.940875,-1.3343610000000001,-3.035371,-0.046698,0.9721790000000001,0.22952399999999998,0.596013,2.000326,0.480029,-0.088327,-0.083889,-0.280763
716,-2.906298,-1.349038,-3.046584,-0.051273,0.975512,0.21387199999999998,0.769875,2.428004,0.204026,-0.123074,0.273084,-0.246892
717,-2.849205,-1.367918,-3.041662,-0.058073,0.979491,0.192924,0.988425,2.629644,0.205294,-0.110292,0.210954,-0.195671
718,-2.799634,-1.38714,-3.041615,-0.061235000000000005,0.983182,0.172037,0.8457399999999999,2.394001,0.382993,-0.13351300000000002,-0.049894,-0.149667
719,-2.774973,-1.405519,-3.0628330000000004,-0.05897,0.9863729999999999,0.153576,0.788637,2.1911650000000003,0.5420149999999999,-0.062124,-0.215392,-0.134487
720,-2.7713740000000002,-1.424871,-3.099999,-0.052604,0.9893719999999999,0.13553800000000002,0.835083,1.951943,0.651605,-0.062523,-0.223075,-0.093073
721,-2.776094,-1.4459879999999998,3.138672,-0.044485000000000004,0.9922219999999999,0.11624100000000001,0.9101229999999999,2.023089,0.643492,-0.110178,-0.19179100000000002,-0.010589
722,-2.76439,-1.4665979999999998,3.1063259999999997,-0.0383,0.994576,0.096675,0.8822120000000001,2.284882,0.46777299999999994,-0.24772600000000003,-0.107857,0.02953
723,-2.7086419999999998,-1.48488,3.115293,-0.03599,0.9963110000000001,0.07786599999999999,0.848218,2.330645,0.24208200000000002,-0.29475999999999997,-0.141285,0.02893
724,-2.60311,-1.500638,-3.1063650000000003,-0.035932,0.99754,0.060150999999999996,0.783818,2.131055,0.127588,-0.302218,-0.201153,0.034270999999999996
725,-2.470968,-1.5139479999999998,-3.010544,-0.035286,0.9983850000000001,0.044482,0.701253,1.576285,0.139473,-0.345588,-0.11383299999999999,0.046354
726,-2.326168,-1.526418,-2.889486,-0.032263,0.999015,0.030381000000000002,0.63525,0.9817469999999999,0.22523200000000002,-0.348673,-0.08425099999999999,0.086654
727,-2.1677939999999998,-1.536761,-2.74637,-0.028091,0.9994209999999999,0.019094999999999997,0.48657,0.655242,0.22033899999999998,-0.284119,-0.12532100000000002,0.191644
728,-1.990779,-1.545134,-2.580517,-0.023355,0.9996709999999999,0.010429,0.384135,0.43500600000000006,0.24020100000000003,-0.408621,-0.170325,0.116997
729,-1.7304380000000001,-1.552094,-2.325189,-0.018364,0.999825,0.002957,0.36775599999999997,0.127145,0.2533,-0.41933400000000004,-0.172112,0.016544
730,-1.1519059999999999,-1.556066,-1.7461939999999998,-0.013328999999999999,0.999892,-0.005935,0.47770799999999997,-0.107554,0.242619,-0.135642,-0.124296,0.093093
731,-0.46041000000000004,-1.552422,-1.054916,-0.008112000000000001,0.9998309999999999,-0.016356,0.49118599999999996,0.074434,0.27452600000000005,-0.006903,0.010438,0.109221
732,-0.09386,-1.5450409999999999,-0.697095,-0.0024059999999999997,0.999668,-0.025558,0.425836,0.714939,0.262567,0.009898,0.375698,0.200821
733,0.062226,-1.536922,-0.566513,0.0021030000000000003,0.999426,-0.033745,0.381156,1.575248,0.143648,-0.213452,0.48992299999999994,0.101478
734,0.155223,-1.5295459999999999,-0.510879,0.006368,0.999149,-0.040695,0.322994,1.902591,0.118253,-0.313085,0.427929,0.14917
735,0.23230599999999998,-1.525666,-0.470434,0.010376,0.9989819999999999,-0.043861000000000004,0.07256599999999999,1.74574,0.13272799999999998,-0.358933,0.435512,0.09275
736,0.32754,-1.5266629999999999,-0.406113,0.014182,0.999026,-0.041738,-0.188277,1.374937,0.11429,-0.471182,0.643842,0.007406
737,0.41244,-1.5351569999999999,-0.343621,0.014266999999999998,0.999365,-0.032607,-0.647062,1.070941,-0.188696,0.083664,0.734201,0.087386
738,0.311717,-1.5609879999999998,-0.471106,0.002961,0.9999520000000001,-0.00919,-1.515225,1.481199,-0.7988310000000001,0.182296,0.613451,-0.034252
739,-2.689309,-1.538173,2.781661,-0.014233,0.999468,0.029294999999999998,-2.089485,1.387459,-0.8347690000000001,0.044552999999999995,0.052916,0.05865700000000001
740,-2.735888,-1.492137,2.7144340000000002,-0.031005,0.996908,0.072183,-2.26135,0.8969440000000001,-0.83,0.12947,0.17063399999999998,0.054846000000000006
741,-2.72567,-1.435424,2.705639,-0.054524,0.990851,0.12344300000000001,-2.796455,1.0379969999999998,-1.274026,0.11186600000000001,0.316766,0.0011300000000000001
742,-2.691121,-1.368852,2.721894,-0.087324,0.9796790000000001,0.180558,-3.075618,0.7729779999999999,-1.622808,-0.161302,0.32153000000000004,-0.10745299999999999
743,-2.6858619999999997,-1.29875,2.721802,-0.11825899999999999,0.9632229999999999,0.24127300000000002,-3.178525,-0.079709,-1.4173360000000002,-0.122601,0.284763,-0.27382
744,-2.7147330000000003,-1.2353969999999999,2.705227,-0.136269,0.9442790000000001,0.299608,-2.750074,-0.9393950000000001,-0.988089,-0.083137,0.209011,-0.312746
745,-2.736919,-1.186179,2.702687,-0.147723,0.926942,0.344896,-2.0308599999999997,-0.908885,-0.9831040000000001,-0.088345,-0.11598299999999999,-0.065828
746,-2.738973,-1.1407770000000002,2.716504,-0.163348,0.908958,0.383549,-2.052035,-0.6245350000000001,-1.211148,0.075808,-0.12123800000000001,0.15089
747,-2.7509,-1.090419,2.7166349999999997,-0.175984,0.8868209999999999,0.427287,-2.437354,-0.66345,-0.736294,0.167378,-0.222255,0.060506
748,-2.7881970000000003,-1.046664,2.691709,-0.173201,0.865758,0.46953100000000003,-2.114213,-0.913586,-0.003053,0.13542,-0.34871399999999997,-0.198107
749,-2.830644,-1.0111620000000001,2.661796,-0.162427,0.847449,0.505413,-1.880885,-0.577391,0.169062,-0.07059,-0.008994,0.123798
750,-2.85507,-0.975065,2.638085,-0.15858,0.827738,0.538234,-1.9341990000000002,-0.217718,0.046451,-0.13045199999999998,0.153081,0.086354
751,-2.882294,-0.941867,2.6202669999999997,-0.150835,0.808658,0.568608,-1.527266,-0.8433350000000001,0.03514,-0.35877800000000004,0.502728,-0.179646
752,-2.910257,-0.9214549999999999,2.611046,-0.13863399999999998,0.796482,0.588549,-0.789985,-1.0706639999999998,0.03524,-0.22040500000000002,0.26646,-0.358935
753,-2.94825,-0.913234,2.597293,-0.117433,0.791484,0.599796,-0.255515,-1.48379,0.586433,0.020204,-0.151043,-0.093449
754,-2.994077,-0.917436,2.573662,-0.08934299999999999,0.794046,0.601251,0.197554,-1.136723,0.779296,0.078693,-0.10186100000000001,0.13674
755,-3.0322869999999997,-0.922567,2.547889,-0.06586399999999999,0.797154,0.600167,0.062971,-0.650673,0.824735,-0.06290499999999999,-0.29741300000000004,0.158164
756,-3.039367,-0.924852,2.529902,-0.061426999999999995,0.798532,0.598805,0.14771800000000002,1.064108,0.297564,-0.055775,-0.5841149999999999,-0.109898
757,-3.003118,-0.936207,2.529868,-0.081832,0.805315,0.587167,0.8719030000000001,1.999829,0.100598,0.09204,-0.957857,-0.48948
758,-2.974163,-0.9628,2.521645,-0.095193,0.820794,0.563231,1.476191,1.467096,0.66525,0.334023,-0.857232,-0.25044099999999997
759,-2.999462,-0.9867819999999999,2.488314,-0.07810299999999999,0.834256,0.545812,0.7636,-0.449567,1.3399809999999999,-0.025397,-0.22861900000000002,-0.9640860000000001
760,-2.9765669999999997,-1.002635,2.482141,-0.088394,0.842892,0.530766,0.472545,2.832084,-0.42027700000000007,-0.21923800000000002,1.00803,0.355159
761,-2.935761,-1.0126540000000002,2.481563,-0.108241,0.848241,0.518425,0.7787109999999999,1.376495,0.750225,-0.367253,0.474208,-0.23639699999999997
762,-2.928485,-1.040214,2.456741,-0.107024,0.862513,0.49458100000000005,1.341361,1.792825,0.843352,-0.44178900000000004,0.27870700000000004,-0.070997
763,-2.910792,-1.0658020000000001,2.438977,-0.110672,0.8751770000000001,0.47096800000000005,1.039269,1.358826,0.680497,-0.296356,-0.058435,-0.299933
764,-2.913525,-1.089073,2.418531,-0.10475,0.8861979999999999,0.45130299999999995,1.02708,0.399752,0.772439,-0.136506,-0.118849,-0.22214699999999998
765,-2.935361,-1.113433,2.393002,-0.090423,0.89722,0.43222,1.1058270000000001,-0.057776999999999995,0.835533,-0.073929,-0.074955,-0.121628
766,-2.9560049999999998,-1.140895,2.365532,-0.076905,0.909007,0.40961800000000004,1.304186,0.43142700000000006,0.8694059999999999,0.158387,0.035405,0.002979
767,-2.965103,-1.172208,2.335457,-0.068143,0.92161,0.38208200000000003,1.476302,1.218077,0.8674639999999999,-0.046817000000000004,0.047751,-0.150393
768,-2.957719,-1.204967,2.311414,-0.06540499999999999,0.9338270000000001,0.35168699999999997,1.571885,1.5830739999999999,0.616632,-0.179117,0.004161,-0.186953
769,-2.9320630000000003,-1.2378719999999999,2.307602,-0.067974,0.945091,0.319653,1.61245,1.2604090000000001,0.287248,-0.352161,-0.09187999999999999,-0.274227
770,-2.910278,-1.269126,2.314035,-0.068114,0.954842,0.289193,1.474996,0.539888,0.23914000000000002,-0.20909299999999997,-0.22159600000000002,-0.33381
771,-2.903609,-1.2968959999999998,2.318148,-0.063764,0.962723,0.262855,1.319252,-0.105376,0.30083499999999996,-0.047641,-0.258194,-0.2658
772,-2.921707,-1.3225870000000002,2.30483,-0.053582000000000005,0.969354,0.23974299999999998,1.181967,-0.228512,0.576704,0.161325,-0.22278699999999999,-0.128445
773,-2.959086,-1.347434,2.266388,-0.040201,0.975158,0.21781999999999999,1.057228,0.169766,0.718464,0.071787,0.025986000000000002,0.17893900000000001
774,-2.996172,-1.368969,2.219439,-0.029046,0.9797020000000001,0.198331,0.9645729999999999,0.60715,0.6435489999999999,-0.259635,0.040104,-0.107984
775,-3.02806,-1.390876,2.171207,-0.020272,0.983858,0.177785,1.116511,0.8329,0.5342939999999999,-0.504448,0.08480700000000001,0.101802
776,-3.0350740000000003,-1.414479,2.148342,-0.01655,0.987807,0.154784,1.048411,0.766346,0.1878,-0.48645600000000006,0.146852,0.17308199999999999
777,-3.015861,-1.433584,2.1567119999999997,-0.01715,0.9906010000000001,0.135685,0.9480709999999999,0.338111,0.007118000000000001,-0.48797700000000005,0.244964,0.13201500000000002
778,-2.993109,-1.45186,2.178355,-0.017551,0.992935,0.11733199999999999,0.9226540000000001,-0.10067100000000001,0.001093,-0.269925,0.331024,0.239709
779,-2.9881330000000004,-1.468561,2.1880509999999997,-0.015596,0.9947790000000001,0.100833,0.745404,-0.275142,0.096219,-0.1266,0.39104,0.18978599999999998
780,-3.017297,-1.478905,2.1581799999999998,-0.011373000000000001,0.9957809999999999,0.091028,0.320284,0.276332,0.282686,-0.022837,0.31321,-0.06617200000000001
781,-3.053702,-1.481143,2.110921,-0.007857,0.995984,0.089161,-0.019686000000000002,0.647913,0.095033,0.015806999999999998,0.623462,-0.141041
782,-3.025057,-1.471791,2.12508,-0.01149,0.9951030000000001,0.098151,-0.722314,0.705819,-0.189823,-0.037704,0.274489,-0.14140899999999998
783,-3.000245,-1.447142,2.144268,-0.017373,0.9923649999999999,0.12209300000000001,-1.493307,-0.022941,-0.292551,-0.056205,0.159659,-0.207222
784,-2.99041,-1.409932,2.163693,-0.024121,0.987089,0.158332,-1.925266,-0.691661,-0.519038,-0.11664100000000001,-0.014325999999999998,-0.085883
785,-2.959701,-1.367458,2.209403,-0.036527,0.979398,0.198597,-2.133372,-0.624368,-0.9158200000000001,-0.047412,0.044696,-0.060688
786,-2.916989,-1.312658,2.265196,-0.056853999999999995,0.966867,0.24886,-2.768309,-0.5450510000000001,-1.2856889999999999,-0.068665,0.32459099999999996,-0.026966000000000004
787,-2.892344,-1.2503389999999999,2.30209,-0.07770099999999999,0.949092,0.305258,-2.957422,-0.49795500000000004,-1.1781110000000001,-0.034695,0.37453200000000003,-0.042151
788,-2.890266,-1.1910479999999999,2.316273,-0.092184,0.928758,0.359034,-2.73087,-0.753785,-0.801255,0.027884,0.281188,-0.226375
