,attitude.roll,attitude.pitch,attitude.yaw,gravity.x,gravity.y,gravity.z,rotationRate.x,rotationRate.y,rotationRate.z,userAcceleration.x,userAcceleration.y,userAcceleration.z
0,1.2323,-1.533031,0.7445039999999999,0.03555,0.999287,-0.012515,0.30788000000000004,0.093653,1.189655,-0.152997,-0.025044,0.156879
1,1.29682,-1.490391,0.8041,0.077296,0.996769,-0.021724,0.7314229999999999,0.553192,2.849905,0.43163,-0.012348,-0.100499
2,1.285037,-1.398831,0.773963,0.164168,0.98525,-0.048232,1.805722,0.8314469999999999,5.05759,0.418337,0.142603,-0.291138
3,1.283974,-1.30736,0.7631560000000001,0.249754,0.965501,-0.073666,0.815642,0.390834,3.417928,-0.05844,0.553801,-0.26282
4,1.3008819999999999,-1.265016,0.791953,0.290132,0.9536120000000001,-0.08027000000000001,0.146681,-1.304468,1.714818,-0.380754,-0.200469,0.203942
5,1.229047,-1.228941,0.752398,0.315844,0.942134,-0.112348,1.855046,-1.7397509999999998,1.4623899999999999,-0.379305,-0.382594,0.4288
6,1.094487,-1.182777,0.645027,0.336239,0.92566,-0.173475,3.0808419999999996,-1.9159400000000002,1.304533,-0.363491,-0.340577,0.19883499999999998
7,0.957722,-1.127063,0.538375,0.35112600000000005,0.9031549999999999,-0.24701900000000002,3.28681,-1.684351,1.286447,-0.490332,-0.17640999999999998,0.083857
8,0.8921469999999999,-1.069922,0.473109,0.37379,0.8771629999999999,-0.30143600000000004,2.5913630000000003,0.387356,1.41994,-0.553615,-0.095165,0.176893
9,0.88718,-1.0212700000000001,0.44693900000000003,0.40492100000000003,0.852772,-0.329873,1.7690700000000001,1.037454,1.529799,-0.560149,-0.143559,0.21322
10,0.905942,-0.9736459999999999,0.44018599999999997,0.44252299999999994,0.826942,-0.34689899999999996,1.652375,1.328214,1.9121029999999999,-0.40057600000000004,-0.16597699999999999,0.22836900000000002
11,0.93142,-0.914781,0.43509899999999996,0.489475,0.792429,-0.363962,2.066898,1.50681,2.44354,-0.350071,-0.098612,0.104745
12,0.9517559999999999,-0.8467309999999999,0.42906700000000003,0.539509,0.749119,-0.38438,2.125684,1.081566,2.7083459999999997,-0.131382,-0.0037579999999999996,0.088573
13,0.966666,-0.781714,0.42663199999999996,0.5840850000000001,0.704497,-0.403146,1.792864,0.614973,2.465201,0.039222,0.124574,0.124474
14,0.9658190000000001,-0.7271920000000001,0.424451,0.614453,0.664775,-0.424875,1.527024,-0.337893,2.024458,0.110141,0.18192,0.12742
15,0.9459639999999999,-0.684408,0.417721,0.628404,0.632214,-0.45322299999999993,1.389648,-0.952572,1.349169,0.053588,0.030246,0.239463
16,0.9183120000000001,-0.6539229999999999,0.407032,0.6306579999999999,0.608305,-0.48190600000000006,1.134639,-1.061209,0.766415,-0.012891,-0.05499,0.267505
17,0.8913399999999999,-0.637626,0.395069,0.625062,0.5952890000000001,-0.5049020000000001,0.720062,-0.944051,0.066888,-0.102204,-0.112455,0.202656
18,0.868725,-0.636667,0.383504,0.613921,0.594518,-0.5192760000000001,0.18899200000000002,-0.699349,-0.459496,-0.202818,-0.11601800000000001,0.119877
19,0.8513709999999999,-0.6495569999999999,0.37287,0.599003,0.604833,-0.524758,-0.25904099999999997,-0.438121,-0.9287049999999999,-0.251896,-0.174871,0.08889
20,0.843405,-0.673747,0.36293800000000004,0.583703,0.6239180000000001,-0.51963,-0.6612060000000001,0.144316,-1.311479,-0.112008,-0.1691,0.086112
21,0.852599,-0.710175,0.357198,0.570955,0.6519659999999999,-0.49894799999999995,-1.288741,1.005182,-1.59684,0.016875,-0.343983,0.151886
22,0.89518,-0.75447,0.363628,0.5685680000000001,0.684902,-0.455672,-1.7789830000000002,2.5091900000000003,-1.398161,0.306126,-0.368115,0.024534999999999998
23,0.978197,-0.787882,0.382521,0.585079,0.708861,-0.393949,-1.542025,3.769779,-0.631138,0.451222,0.22618200000000002,-0.572237
24,1.095812,-0.8175060000000001,0.47019099999999997,0.608317,0.729442,-0.312829,-4.358622,1.837209,0.517095,0.29015100000000005,1.531208,0.273781
25,1.177706,-0.854203,0.557128,0.606722,0.7540479999999999,-0.25159000000000004,-2.221253,0.17826199999999998,-0.9891340000000001,0.23454099999999997,1.815609,0.062946
26,1.1562729999999999,-0.8863059999999999,0.555,0.578728,0.774741,-0.254652,0.067352,-1.2403790000000001,-1.716949,-0.013909,-0.080756,0.193754
27,1.1091,-0.912991,0.5236310000000001,0.547367,0.7913359999999999,-0.27235,0.299065,-1.19103,-1.471839,-0.237492,-0.603729,-0.15828399999999998
28,1.068339,-0.9437110000000001,0.502899,0.51426,0.8097409999999999,-0.282585,-0.51727,-0.95631,-1.9190180000000001,-0.323921,-0.172763,-0.03431
29,1.061508,-0.994842,0.49189399999999994,0.47551400000000005,0.838673,-0.26553899999999997,-1.1377549999999998,0.786258,-2.6562490000000003,-0.522466,0.219768,-0.101496
30,1.081272,-1.058662,0.47901099999999996,0.43248500000000006,0.8717010000000001,-0.23041799999999998,-1.348149,1.8036439999999998,-3.017945,-0.496892,0.41119700000000003,-0.027776
31,1.114709,-1.120195,0.47504799999999997,0.390987,0.900185,-0.191813,-1.1035540000000001,1.769308,-2.6359049999999997,-0.44294300000000003,0.466941,0.176432
32,1.116366,-1.165088,0.44487899999999997,0.354612,0.918823,-0.173239,-0.086654,1.211555,-2.0330880000000002,-0.22135700000000003,0.263809,0.073934
33,1.095776,-1.194772,0.410337,0.326563,0.930132,-0.167951,-0.190216,0.152669,-1.410749,-0.23101300000000002,0.171308,-0.108981
34,1.0909870000000002,-1.218573,0.40846,0.306027,0.938608,-0.159247,-0.708217,-0.16400599999999999,-0.890533,-0.124173,0.006079,-0.102014
35,1.1275819999999999,-1.240149,0.43821000000000004,0.293281,0.945832,-0.13922400000000001,-1.054538,0.84944,-0.682743,-0.017447999999999998,-0.17035,0.046771
36,1.202675,-1.262248,0.49157399999999996,0.283326,0.952775,-0.10928,-1.268877,1.305231,-0.726485,-0.029053,-0.395036,0.08723099999999999
37,1.293181,-1.288577,0.5606180000000001,0.267817,0.96044,-0.076321,-1.4224700000000001,1.181553,-1.09914,-0.065089,-0.6416229999999999,0.150067
38,1.3959139999999999,-1.322689,0.642658,0.241815,0.9693790000000001,-0.042726,-1.368103,1.1641299999999999,-1.583711,-0.106454,-0.908603,0.102311
39,1.4979559999999998,-1.359772,0.726086,0.208896,0.977817,-0.015243000000000001,-1.072712,0.924257,-1.792848,-0.149081,-0.747333,0.139449
40,1.6147049999999998,-1.396094,0.8320799999999999,0.17363399999999998,0.984778,0.007629,-1.055833,0.451038,-1.748327,-0.238393,-0.58686,0.297516
41,1.7566950000000001,-1.4216719999999998,0.982942,0.145998,0.9889020000000001,0.027458,-1.054484,-1.007675,-1.130084,-0.129641,-0.346598,0.34815300000000005
42,1.871582,-1.426862,1.138873,0.136985,0.9896590000000001,0.042492,-0.970218,-2.398931,-0.137471,0.19455799999999998,0.23385100000000003,0.42494499999999996
43,1.9005560000000001,-1.415192,1.220602,0.146615,0.9879180000000001,0.05018,-0.55411,-2.3682,0.606742,0.33495199999999997,0.35365,-0.062829
44,1.8650360000000001,-1.399658,1.197514,0.162973,0.985392,0.049387,0.080309,0.290117,0.742363,-0.164026,0.33316599999999996,-0.381784
45,1.877059,-1.393075,1.1933639999999999,0.16855,0.9842489999999999,0.053298000000000005,-0.174421,0.861505,0.064736,-0.428896,0.259342,-0.397277
46,1.9243259999999998,-1.394503,1.22645,0.164525,0.9845010000000001,0.060715,-0.23462399999999997,0.7317560000000001,-0.202574,-0.266758,-0.019199,0.091614
47,1.9506689999999998,-1.395123,1.2377120000000001,0.162301,0.9846090000000001,0.064801,0.009897,0.752416,0.012752,-0.168328,-0.084752,0.17538800000000002
48,1.960162,-1.395367,1.233681,0.161456,0.9846520000000001,0.066248,-0.005615,0.598112,-0.013863999999999998,-0.056978999999999995,-0.173006,0.21916799999999997
49,1.987398,-1.393408,1.254418,0.161355,0.984308,0.0714,-0.337619,0.14413199999999998,0.050628,0.189887,-0.272836,0.06525800000000001
50,2.036707,-1.3878190000000001,1.3084639999999998,0.162552,0.9833059999999999,0.081736,-0.688286,-0.287019,0.016684,0.173447,-0.058227,-0.27263899999999996
51,2.1041,-1.382581,1.3646459999999998,0.16111199999999998,0.98234,0.095114,-0.401093,1.357016,-0.044305000000000004,0.101065,0.10771800000000001,-0.281302
52,2.161849,-1.386547,1.379976,0.152117,0.983074,0.10208300000000001,0.19791199999999998,2.330942,-0.362904,-0.15820499999999998,0.036015,-0.11926400000000001
53,2.193098,-1.399874,1.364637,0.138194,0.9854280000000001,0.099139,0.622748,2.2437169999999997,-0.49655699999999997,-0.185099,-0.060822,-0.002581
54,2.217978,-1.41596,1.352335,0.123019,0.988037,0.092974,0.425255,1.5675940000000002,-0.673326,-0.161853,0.045456,0.008131000000000001
55,2.306207,-1.420303,1.4146459999999998,0.11116400000000001,0.9886969999999999,0.10057100000000001,-0.776101,1.3184790000000002,-0.204972,0.13918699999999998,0.095653,0.055541999999999994
56,2.4577560000000003,-1.3997549999999999,1.539814,0.107521,0.985408,0.131924,-1.5685950000000002,1.3077290000000001,-0.026758999999999998,-0.126808,0.290166,-0.10537300000000001
57,2.557182,-1.381533,1.627646,0.10378699999999999,0.982143,0.156898,-0.8720680000000001,0.21384299999999998,-0.134794,-0.265835,0.371052,-0.149314
58,2.583872,-1.378573,1.654653,0.101101,0.981582,0.162078,0.007595,0.09043,-0.138106,-0.257366,0.40962299999999996,0.032929
59,2.588568,-1.383382,1.644907,0.097857,0.982489,0.158531,0.455298,1.066336,-0.021929,-0.055560000000000005,0.558786,-0.041816000000000006
60,2.562416,-1.39564,1.587859,0.095368,0.984699,0.145825,0.995067,1.7654990000000002,0.223431,-0.145829,0.5023,-0.002514
61,2.476127,-1.411036,1.458272,0.098208,0.987266,0.125121,1.362422,2.179384,0.5640930000000001,-0.062899,0.120675,0.010056
62,2.302707,-1.4226590000000001,1.237657,0.109779,0.9890479999999999,0.098622,1.7013040000000001,2.288313,1.001087,-0.010459999999999999,-0.100712,-0.089375
63,2.046086,-1.422439,0.9296129999999999,0.131411,0.989015,0.067629,1.928131,2.449593,1.497052,-0.04117,-0.255479,-0.27908499999999997
64,1.774214,-1.403158,0.604159,0.163396,0.985982,0.033704000000000005,2.186099,2.4878669999999996,1.824612,-0.202809,0.045146,-0.42213199999999995
65,1.567683,-1.3740709999999998,0.345103,0.195441,0.980712,-0.000609,2.171953,2.3368990000000003,1.495695,-0.454917,0.270036,-0.294191
66,1.417238,-1.349787,0.147149,0.21662199999999998,0.975677,-0.033527999999999995,2.094405,2.041338,0.884509,-0.585808,0.10482899999999999,-0.036128
67,1.310891,-1.324186,-0.002129,0.235908,0.9697450000000001,-0.06273300000000001,1.8727599999999998,1.9151349999999998,0.935465,-0.658516,0.009854,0.23643899999999998
68,1.245424,-1.294517,-0.103832,0.258457,0.9620770000000001,-0.08719400000000001,1.5366819999999999,1.3797540000000001,1.113265,-0.677128,-0.10457899999999999,0.273442
69,1.206098,-1.266404,-0.159647,0.279993,0.9540290000000001,-0.106895,1.051194,0.251859,0.943608,-0.33092699999999997,-0.179951,0.22817199999999999
70,1.166811,-1.243633,-0.197601,0.295482,0.946958,-0.126318,1.045459,-0.18444100000000002,0.833032,-0.141093,-0.19357,0.119192
71,1.126377,-1.211665,-0.250881,0.317314,0.9362020000000001,-0.151102,1.723885,0.919399,1.256168,-0.169014,-0.12313800000000001,0.002618
72,1.102364,-1.1696790000000001,-0.305577,0.348381,0.920625,-0.176279,1.7743220000000002,1.457306,1.492976,-0.18203,-0.133806,-0.163244
73,1.105617,-1.132852,-0.328991,0.379012,0.905625,-0.19023199999999998,0.885518,1.0678530000000002,1.3548069999999999,-0.090697,-0.223206,-0.289031
74,1.1346,-1.108152,-0.320983,0.404521,0.894875,-0.188564,0.142564,1.181265,1.077076,-0.109904,-0.159081,-0.11406300000000001
75,1.1773,-1.092699,-0.303693,0.42492299999999994,0.8878719999999999,-0.176406,-0.107545,1.442405,0.724617,-0.140377,-0.072808,-0.006929
76,1.21495,-1.085345,-0.293011,0.437371,0.8844639999999999,-0.162557,-0.06204,1.343025,0.23047600000000001,-0.130822,-0.119022,0.004842
77,1.234947,-1.087968,-0.296654,0.438341,0.8856850000000001,-0.153013,0.095122,1.043461,-0.38227,-0.116274,-0.24969899999999998,0.028013
78,1.236728,-1.100694,-0.312216,0.42793000000000003,0.8915219999999999,-0.148525,0.12309500000000001,0.584158,-0.8963690000000001,-0.10931099999999999,-0.35818099999999997,0.043529000000000005
79,1.225606,-1.1212,-0.327244,0.408959,0.900623,-0.147057,-0.170493,-0.17763800000000002,-1.143135,-0.12371199999999999,-0.41809399999999997,0.057227999999999994
80,1.227215,-1.146435,-0.314959,0.38766799999999996,0.9113020000000001,-0.13869700000000001,-1.038019,-0.567109,-1.0290549999999998,-0.07114,-0.468095,0.066385
81,1.283455,-1.1734959999999999,-0.249218,0.371059,0.9221090000000001,-0.10965499999999999,-1.9764650000000001,0.255397,-0.7770859999999999,0.09792000000000001,-0.383123,-0.133036
82,1.4111200000000002,-1.1885370000000002,-0.149981,0.368264,0.927824,-0.05930800000000001,-1.9882650000000002,2.612278,0.17480199999999999,0.4141,0.17416500000000001,-0.334278
83,1.566746,-1.165066,-0.036639,0.39467800000000003,0.9188139999999999,-0.001599,-2.0712040000000003,2.1587330000000002,2.043124,0.769034,0.973764,-0.379917
84,1.6503029999999999,-1.109076,0.030930000000000003,0.44407299999999994,0.895288,0.035381,-1.1256760000000001,0.40835,2.854206,0.724186,1.176795,-0.302471
85,1.657244,-1.073767,0.044624000000000004,0.47502799999999995,0.8790030000000001,0.041168,-0.129125,-0.47621899999999995,0.758972,0.286706,1.525767,-0.568893
86,1.649576,-1.086926,0.052111000000000005,0.463758,0.885201,0.036610000000000004,-0.239193,-0.8926729999999999,-1.291181,-0.12400599999999999,1.1901469999999998,-0.42200200000000004
87,1.6542880000000002,-1.125534,0.078187,0.42918599999999996,0.9024979999999999,0.035917000000000004,-0.476208,-0.795991,-2.351569,-0.79819,0.017241,0.220187
88,1.6790740000000002,-1.178579,0.104407,0.37999099999999997,0.924064,0.041306,-0.089184,0.6339199999999999,-2.7641,-0.769731,-0.527778,0.35176
89,1.71134,-1.2298719999999999,0.1079,0.331052,0.9424459999999999,0.046836,0.374531,1.875029,-2.383232,-0.665571,-0.709017,0.28612600000000005
90,1.767793,-1.272144,0.11743800000000001,0.288532,0.955734,0.057587,0.019344999999999998,2.580738,-1.933691,-0.58353,-0.783798,0.022751
91,1.860988,-1.299867,0.168441,0.25642600000000004,0.9635229999999999,0.076574,-0.53604,1.687295,-1.267719,-0.560793,-0.431174,-0.251852
92,1.9408619999999999,-1.316969,0.23820500000000003,0.23409899999999997,0.967959,0.090816,-0.526722,0.189636,-1.039272,-0.122222,0.182417,-0.10610499999999999
93,1.996198,-1.3258809999999999,0.28371199999999996,0.22085100000000002,0.970158,0.10006,-0.321875,0.8828239999999999,-0.342248,0.087072,0.303081,-0.009972
94,2.0522099999999996,-1.322109,0.32389,0.21814499999999998,0.9692360000000001,0.11396099999999999,-0.651894,0.776714,0.105304,-0.106603,-0.0399,0.14994000000000002
95,2.120685,-1.312527,0.374911,0.217745,0.966834,0.133467,-0.848274,1.1251229999999999,-0.006541,-0.30537600000000004,-0.157278,0.159364
96,2.1966040000000002,-1.3084209999999998,0.428062,0.210211,0.965777,0.151922,-0.547091,1.240964,-0.19900199999999998,-0.052205999999999995,-0.07066499999999999,0.033106000000000003
97,2.238706,-1.3045229999999999,0.45155200000000006,0.20658400000000002,0.964758,0.162966,-0.287735,0.764091,0.015997,0.081639,0.225244,-0.276537
98,2.271155,-1.30431,0.475951,0.201346,0.9647020000000001,0.169715,-0.247558,0.279808,-0.38902600000000004,-0.062872,0.113469,-0.304282
99,2.310658,-1.309402,0.511547,0.190855,0.9660299999999999,0.174219,-0.10392699999999999,0.34568699999999997,-0.471429,-0.156309,-0.009365,-0.255747
100,2.335867,-1.314093,0.52403,0.183132,0.967232,0.175834,0.10917400000000001,0.833714,-0.15650899999999998,-0.1096,-0.13404100000000002,-0.070701
101,2.355355,-1.316056,0.520903,0.17832699999999999,0.9677290000000001,0.178028,0.051838999999999996,1.2881610000000001,-0.000463,-0.130247,-0.11128299999999999,-0.005222999999999999
102,2.3954009999999997,-1.313687,0.532688,0.17261300000000002,0.9671290000000001,0.18670799999999999,-0.368508,1.44973,-0.08051799999999999,-0.11465999999999998,-0.061535,-0.014603999999999999
103,2.468076,-1.306907,0.582496,0.162687,0.965383,0.203869,-0.819232,1.0381209999999998,-0.385446,-0.09690599999999999,0.071421,-0.251553
104,2.54833,-1.3003770000000001,0.650508,0.14934,0.963659,0.221477,-0.703874,0.607182,-0.609482,-0.124742,0.034907,-0.26853499999999997
105,2.688677,-1.318916,0.778768,0.109052,0.9684459999999999,0.22408499999999998,-0.415783,0.6348560000000001,-0.587209,0.152895,-0.098756,-0.215982
106,2.745586,-1.315748,0.821421,0.097313,0.967651,0.23275500000000002,-0.35740700000000003,0.8455229999999999,-0.307197,0.25547,-0.071991,-0.191999
107,2.78272,-1.3112709999999999,0.8414809999999999,0.090126,0.966512,0.240261,-0.24405300000000002,0.894279,-0.07786900000000001,0.234963,-0.01653,-0.171078
108,2.802848,-1.308649,0.841742,0.086114,0.965836,0.244416,-0.073274,1.083675,0.096134,0.11412699999999999,0.134018,-0.113099
109,2.82342,-1.306132,0.8386969999999999,0.081828,0.9651799999999999,0.24844499999999997,-0.143991,1.204495,0.046347,-0.078044,0.23513699999999998,-0.08796799999999999
110,2.847033,-1.303285,0.8389610000000001,0.076737,0.964432,0.252936,-0.090152,1.0934540000000001,0.062888,-0.211167,0.298477,-0.141715
111,2.851156,-1.305793,0.8221459999999999,0.075001,0.9650920000000001,0.25093200000000004,0.415443,1.049268,0.284394,-0.168796,0.414013,-0.235246
112,2.8129939999999998,-1.3196219999999999,0.754258,0.080205,0.968621,0.235233,1.216699,1.595045,0.8319479999999999,0.001918,0.418037,-0.265262
113,2.718571,-1.342085,0.619442,0.093069,0.973959,0.20672600000000002,1.857932,1.9641979999999999,1.199149,0.12617,0.34923699999999996,-0.003922
114,2.583703,-1.361881,0.420496,0.10979000000000001,0.9782559999999999,0.17594100000000001,1.7109860000000001,3.844407,1.593092,0.059095,0.175842,-0.102501
115,2.400863,-1.370023,0.157003,0.134571,0.9799129999999999,0.14716400000000002,2.053759,3.6167580000000004,2.014521,-0.109226,-0.173531,-0.365807
116,2.17798,-1.365701,-0.140522,0.167249,0.979042,0.116193,2.203029,3.2821569999999998,2.177294,-0.232633,0.08886000000000001,-0.588957
117,1.987814,-1.355575,-0.404188,0.19525,0.976929,0.086496,1.988207,3.5589440000000003,1.34543,-0.737471,0.548477,-0.343866
118,1.904163,-1.3537629999999998,-0.5666859999999999,0.203466,0.976541,0.070458,1.4351969999999998,3.718196,0.6288600000000001,-0.947973,0.051886,-0.045007
119,1.8368790000000002,-1.339175,-0.708637,0.221466,0.9732959999999999,0.060359,1.25319,3.3738690000000005,1.378989,-0.551056,0.021883,0.052922000000000004
120,1.763368,-1.3216860000000001,-0.841923,0.241975,0.969132,0.047182,1.434053,2.47858,1.070547,-0.248322,0.038925,-0.009415999999999999
121,1.684232,-1.30851,-0.969533,0.257614,0.9658,0.029349,1.48462,2.1308830000000003,0.8651790000000001,-0.170395,0.06188,-0.100989
122,1.615425,-1.2881790000000002,-1.080337,0.278584,0.9603290000000001,0.012440999999999999,1.394144,1.691503,1.330855,-0.04488,-0.025148,-0.143804
123,1.531828,-1.253203,-1.189285,0.31203600000000004,0.94999,-0.012166,1.7995970000000001,0.484637,2.021032,0.033225,-0.186348,-0.186275
124,1.416497,-1.205862,-1.3039049999999999,0.352641,0.934147,-0.054848,2.231287,-0.644521,2.170773,0.055822000000000004,-0.192936,-0.09125499999999999
125,1.33199,-1.159565,-1.383523,0.388388,0.9166290000000001,-0.094554,1.6511580000000001,-0.47167200000000004,1.8065080000000002,0.266474,-0.22999899999999998,-0.2777
126,1.288422,-1.128157,-1.417959,0.411357,0.903624,-0.11934600000000001,0.775446,-0.730735,1.018785,0.24333600000000002,-0.28120300000000004,-0.30439099999999997
127,1.2654809999999999,-1.116792,-1.427507,0.418279,0.898698,-0.131829,0.148101,-0.615478,0.179974,0.081492,-0.39512800000000003,-0.22670700000000002
128,1.26033,-1.1205,-1.426715,0.414418,0.9003180000000001,-0.132963,-0.151228,-0.079712,-0.341959,-0.21799200000000002,-0.471867,-0.115878
129,1.2620719999999999,-1.13247,-1.4302979999999998,0.404352,0.9054629999999999,-0.128957,-0.060786,0.413749,-0.745748,-0.32865300000000003,-0.549796,-0.022959999999999998
130,1.259953,-1.153052,-1.444129,0.386251,0.914006,-0.12408599999999999,-0.074955,0.527792,-1.2801040000000001,-0.22971100000000003,-0.480901,-0.059889
131,1.25712,-1.184754,-1.454591,0.358145,0.926407,-0.116177,-0.45448,0.182418,-1.6935779999999998,-0.148306,-0.44862299999999994,-0.106723
132,1.263491,-1.222035,-1.445208,0.325716,0.9397969999999999,-0.103369,-0.904552,-0.251735,-1.689756,0.062482,-0.292977,-0.182749
133,1.301075,-1.256916,-1.397813,0.29758,0.9511430000000001,-0.082268,-1.437448,-0.410341,-1.258509,0.37019,0.116851,-0.469612
134,1.3916620000000002,-1.278143,-1.295423,0.283867,0.9574819999999999,-0.051401,-1.8606029999999998,-0.276514,-0.260712,0.5478890000000001,0.388755,-0.55216
135,1.5091,-1.27446,-1.178796,0.291453,0.956413,-0.018004,-1.348986,0.760946,0.65593,0.722921,0.776925,-0.655503
136,1.577977,-1.2611649999999999,-1.126055,0.30469,0.9524459999999999,0.002188,-0.52445,0.665625,0.6019909999999999,0.412855,0.259788,-0.714255
137,1.604432,-1.25168,-1.0917139999999999,0.31354099999999996,0.9495129999999999,0.01055,-0.627182,-0.749129,0.44178500000000004,-0.028461,0.176387,-0.386344
138,1.634523,-1.246171,-1.045259,0.318297,0.9477700000000001,0.020311000000000003,-0.7832680000000001,-0.509413,0.037668,-0.182051,0.05984400000000001,-0.301775
139,1.6720979999999999,-1.254738,-0.9995620000000001,0.309219,0.950468,0.031432,-0.6445649999999999,-0.263219,-0.909191,-0.438537,0.33005,-0.002227
140,1.752648,-1.293056,-0.9152899999999999,0.26965100000000003,0.961677,0.049583999999999996,-1.16687,0.326782,-2.8107580000000003,-0.48388400000000004,0.358406,0.271934
141,1.9574150000000001,-1.362211,-0.724531,0.191777,0.978325,0.078074,-1.181898,1.223163,-4.514757,-0.694524,0.964134,0.275533
142,2.2836540000000003,-1.4354959999999999,-0.41605299999999995,0.102022,0.9908610000000001,0.088199,0.295417,0.8976459999999999,-4.0457529999999995,-0.688357,0.48358100000000004,0.027188
143,2.587688,-1.482445,-0.122445,0.046394,0.9961,0.075012,0.683358,0.28281300000000004,-1.945336,-0.865394,-0.321753,-0.49215699999999996
144,2.790248,-1.496522,0.071738,0.025524,0.997243,0.069633,0.181701,0.820493,-0.642026,-0.598461,-0.596395,0.153893
145,2.913601,-1.499688,0.163528,0.016049,0.9974729999999999,0.06916900000000001,-0.07993099999999999,2.071671,-0.285466,-0.365521,-0.630163,0.443771
146,3.097633,-1.490026,0.28668000000000005,0.003544,0.99674,0.080571,-0.8185899999999999,3.654989,-0.5233899999999999,-0.17429,-0.523809,0.518184
147,-2.975931,-1.468265,0.41174099999999997,-0.016874,0.994748,0.100926,-1.103803,4.422333,-0.628915,-0.049105,-0.152082,0.422314
148,-2.84522,-1.4429379999999998,0.477162,-0.037233999999999996,0.9918370000000001,0.121931,-1.162415,1.899559,-0.7938029999999999,-0.251844,0.324752,-0.09310800000000001
149,-2.796152,-1.4176090000000001,0.530378,-0.051663,0.98829,0.14356,-1.077679,-1.053701,-0.522371,0.173611,0.260535,0.099955
150,-2.896703,-1.39798,0.44542600000000004,-0.041687,0.9851040000000001,0.166812,-1.01003,-0.014608000000000001,0.9028459999999999,0.45718400000000003,0.005054,-0.074222
151,-2.954555,-1.387951,0.353653,-0.033808,0.9833299999999999,0.178643,-0.49943000000000004,2.395593,0.324348,0.041895,-0.143853,-0.11715
152,-2.93288,-1.3812790000000001,0.320349,-0.039031,0.982095,0.184284,-0.33883800000000003,2.747678,0.315405,-0.252259,-0.003213,0.000301
153,-2.920401,-1.3764239999999999,0.277159,-0.042373,0.9811690000000001,0.188432,-0.353736,2.741398,0.300354,-0.106644,0.077669,0.010543
154,-2.894955,-1.3675950000000001,0.253244,-0.049267,0.979426,0.195686,-0.569891,2.133728,0.071023,0.154033,0.008596,-0.063713
155,-2.9074240000000002,-1.3559430000000001,0.21084699999999998,-0.049468,0.977008,0.20737399999999998,-0.7109979999999999,1.0874139999999999,0.512554,0.640364,-0.18704500000000002,-0.12953900000000002
156,-2.977978,-1.347715,0.11190699999999999,-0.036034,0.9752200000000001,0.21827,-0.491889,1.792575,1.133818,0.713677,-0.171708,-0.146325
157,-2.98909,-1.344008,0.044661,-0.034156,0.9743930000000001,0.22223,-0.220344,2.884197,0.43783500000000003,0.243796,-0.171949,-0.32515
158,-2.983619,-1.340634,0.003812,-0.035887999999999996,0.9736290000000001,0.22528299999999998,-0.287968,1.8563900000000002,0.45043,0.313308,-0.12321099999999999,-0.229235
159,-2.997976,-1.33441,-0.035149,-0.033517,0.972191,0.23176799999999997,-0.389386,0.814157,0.37093899999999996,0.276116,-0.069511,-0.22011
160,-3.008556,-1.325065,-0.061176999999999995,-0.032266,0.96996,0.24110399999999998,-0.630303,0.815063,0.087245,0.183282,0.026226,-0.12800599999999998
161,-2.976757,-1.310677,-0.045839,-0.042201,0.966359,0.253698,-0.651018,0.814412,-0.530331,-0.166188,0.23505700000000002,-0.273306
162,-2.90773,-1.297144,0.009465000000000001,-0.062624,0.9627899999999999,0.262883,-0.43128299999999997,0.824002,-0.9870760000000001,-0.248808,0.251382,-0.262792
163,-2.826232,-1.285911,0.07325599999999999,-0.087167,0.959694,0.267179,-0.25077,1.115228,-0.9787110000000001,-0.065559,0.278633,-0.28670999999999996
164,-2.745757,-1.2723719999999998,0.131347,-0.11336199999999999,0.955801,0.27126999999999996,-0.426709,1.296188,-1.058152,-0.011104000000000001,0.36649499999999996,-0.246825
165,-2.664745,-1.25413,0.182871,-0.142923,0.9502790000000001,0.27665500000000004,-0.51888,1.86875,-1.1054629999999999,0.045465,0.453866,-0.193555
166,-2.5824849999999997,-1.233849,0.224046,-0.175359,0.943768,0.280258,-0.579717,2.18713,-1.018702,0.23341900000000002,0.550937,-0.198929
167,-2.529001,-1.216265,0.244193,-0.199603,0.937809,0.284018,-0.474574,1.318983,-0.590634,0.43851,0.489437,-0.29177
168,-2.508597,-1.208231,0.251793,-0.20980700000000002,0.93499,0.285952,-0.076865,0.430932,-0.23420500000000002,0.47283800000000004,0.41806800000000005,-0.296694
169,-2.4834549999999997,-1.2090239999999999,0.264469,-0.216475,0.935271,0.28,0.252745,0.8031,-0.083897,0.28533800000000004,0.646913,-0.20086800000000002
170,-2.467376,-1.213946,0.26557600000000003,-0.218073,0.937002,0.272885,0.158411,0.646217,0.335457,0.194117,0.611781,-0.078213
171,-2.4785009999999996,-1.2295260000000001,0.24172399999999997,-0.206012,0.9423299999999999,0.263756,0.585996,0.624688,1.085158,0.21698299999999998,0.23830300000000001,-0.010231
172,-2.4853970000000003,-1.264014,0.214178,-0.18424200000000002,0.95331,0.239267,1.371628,1.1560030000000001,1.533277,0.189613,0.095579,-0.099161
173,-2.480782,-1.309925,0.191394,-0.15829400000000002,0.966166,0.203619,1.7014080000000003,1.390501,1.7457200000000002,0.12294000000000001,0.117346,-0.149618
174,-2.4938119999999997,-1.359349,0.149854,-0.126634,0.977728,0.167348,1.601852,1.2803120000000001,1.9481279999999999,0.056215,0.07749299999999999,-0.266256
175,-2.564327,-1.400914,0.067842,-0.092257,0.985605,0.141657,0.9240200000000001,-0.23858800000000002,1.6911029999999998,-0.0040420000000000005,0.09336,-0.262614
176,-2.7145259999999998,-1.439467,-0.082716,-0.054232,0.991389,0.119172,1.291543,0.22000799999999998,2.039186,-0.12640099999999999,0.184881,-0.175569
177,-2.9716669999999996,-1.476415,-0.357195,-0.015931999999999998,0.995549,0.092856,1.287658,1.161037,1.9450180000000001,-0.313368,0.44700100000000004,-0.100897
178,2.880303,-1.504229,-0.81775,0.017174000000000002,0.997785,0.064224,1.593809,1.333719,1.6531740000000001,-0.30327600000000005,0.28969,0.000687
179,2.147037,-1.511951,-1.570476,0.049275,0.9982690000000001,0.032019,1.504775,0.842572,1.7439799999999999,-0.294712,0.10907599999999999,0.20986300000000002
180,1.5449110000000001,-1.480341,-2.183668,0.09027400000000001,0.9959120000000001,-0.002337,2.2525779999999997,-0.37100500000000003,2.217571,-0.21930300000000003,0.000167,-0.063047
181,1.15442,-1.41877,-2.550424,0.138488,0.988466,-0.06124400000000001,2.9968060000000003,-1.289101,2.59462,-0.19493,-0.131273,0.293773
182,0.993292,-1.342239,-2.710179,0.189822,0.973994,-0.12368900000000001,3.238721,0.336635,2.619863,-0.24626399999999998,-0.116801,0.356218
183,0.9191860000000001,-1.260257,-2.793916,0.24295799999999998,0.952169,-0.185316,3.207636,0.18393800000000002,2.737346,-0.13205699999999998,-0.29212,-0.402758
184,0.8891610000000001,-1.191802,-2.825324,0.287306,0.9290370000000001,-0.233111,2.0740060000000002,0.077735,2.041629,-0.077559,-0.414465,-0.35394000000000003
185,0.887091,-1.144462,-2.839457,0.320585,0.910488,-0.261216,1.603392,0.728054,1.52583,-0.36070100000000005,-0.31283099999999997,-0.174652
186,0.889803,-1.1016700000000001,-2.851696,0.35126,0.891964,-0.28462800000000005,1.520529,0.571739,1.527588,-0.35788200000000003,-0.16334100000000001,0.07746
187,0.8948950000000001,-1.059107,-2.853383,0.381995,0.871919,-0.306323,1.2342799999999998,0.21404299999999998,1.71619,-0.270285,-0.13003599999999998,0.19903900000000002
188,0.911759,-1.01721,-2.8360790000000002,0.41563900000000004,0.8506440000000001,-0.321939,0.79359,0.051278,2.042333,-0.185643,-0.223676,0.18099400000000002
189,0.9342290000000001,-0.976583,-2.807859,0.45020200000000005,0.8285889999999999,-0.33279899999999996,0.5194949999999999,-0.177814,2.027894,0.0024809999999999997,-0.344275,0.11442999999999999
190,0.9438120000000001,-0.943678,-2.7850639999999998,0.4752,0.809722,-0.344285,0.405877,-0.604522,1.4775120000000002,0.104085,-0.29522600000000004,0.086716
191,0.935213,-0.9244760000000001,-2.776123,0.484646,0.798305,-0.35752399999999995,0.32650500000000005,-0.893543,0.565067,0.214435,-0.261959,0.12516300000000002
192,0.912335,-0.921687,-2.7804900000000004,0.4781,0.796622,-0.36987800000000004,0.010298,-0.9504299999999999,-0.118595,-0.079571,-0.30135300000000004,0.11263
193,0.9004340000000001,-0.930687,-2.778019,0.468027,0.802031,-0.37107199999999996,-0.502602,-0.494623,-0.44002299999999994,-0.05314,-0.41757,0.073923
194,0.9071889999999999,-0.948967,-2.77085,0.458895,0.812814,-0.358811,-0.8858590000000001,0.45342200000000005,-0.627649,-0.034579,-0.47896700000000003,0.09401
195,0.951,-0.972565,-2.745365,0.458425,0.826333,-0.327133,-1.6011799999999998,1.5223879999999999,-0.397939,0.114283,-0.45696400000000004,0.13636800000000002
196,1.036045,-0.999209,-2.693225,0.46544300000000005,0.841043,-0.27569,-1.9011759999999998,2.426791,-0.400125,0.111232,-0.191705,-0.239004
197,1.107392,-1.038972,-2.657995,0.453622,0.861883,-0.226673,-1.656714,1.5790629999999999,-1.9996639999999999,0.153129,1.572916,-0.062344000000000004
198,1.1554309999999999,-1.085386,-2.629579,0.42689399999999994,0.884483,-0.188271,-1.7545959999999998,0.9755280000000001,-1.235795,0.200166,1.9540330000000001,0.06794
199,1.2147,-1.112567,-2.573396,0.414604,0.8968370000000001,-0.15421300000000002,-1.448165,0.040582,-0.7944859999999999,0.30526,1.122709,0.146446
200,1.214137,-1.135419,-2.557203,0.395206,0.906711,-0.147251,-0.299985,-1.116095,-1.043493,0.20110699999999998,-0.24524200000000002,-0.010173999999999999
201,1.1611690000000001,-1.155196,-2.5882099999999997,0.370332,0.914874,-0.160794,0.457981,-1.21061,-1.24104,0.131133,-0.346957,-0.07875399999999999
202,1.0836379999999999,-1.178956,-2.6456880000000003,0.337459,0.924208,-0.178766,0.417493,-1.290215,-1.8105830000000003,-0.044597000000000005,-0.30319,-0.083151
203,1.00102,-1.217602,-2.7074689999999997,0.291247,0.9382729999999999,-0.186588,-0.313033,-1.158302,-2.463197,-0.235461,-0.27256199999999997,0.069523
204,0.936718,-1.272186,-2.761609,0.23700100000000002,0.9557459999999999,-0.174286,-1.132941,-0.246247,-2.862131,-0.231431,-0.241269,0.127502
205,0.909855,-1.336173,-2.802538,0.183513,0.9726020000000001,-0.142702,-1.6644990000000002,1.176469,-2.811051,-0.209392,-0.19054300000000002,0.14836300000000002
206,0.924033,-1.397216,-2.826942,0.13782,0.984973,-0.10406900000000001,-1.598573,2.229293,-2.418834,-0.281909,0.011975,0.145695
207,0.943258,-1.448109,-2.853195,0.09905,0.992483,-0.07184600000000001,-1.2040870000000001,2.118623,-1.9918529999999999,-0.276312,0.120371,-0.02137
208,0.936018,-1.487637,-2.890216,0.066863,0.9965440000000001,-0.049242,-0.932333,1.054938,-1.5602340000000001,-0.196151,0.13278900000000002,-0.10684
209,0.9248540000000001,-1.5200209999999998,-2.910709,0.040492,0.998711,-0.030524000000000003,-0.9420700000000001,0.234179,-1.161872,0.270268,-0.042672,-0.011178
210,1.215932,-1.544059,-2.6237619999999997,0.024988999999999997,0.9996430000000001,-0.00926,-1.106902,0.228125,-0.572286,0.466847,-0.039422000000000006,-0.016222
211,2.162889,-1.550044,-1.6752220000000002,0.017133000000000002,0.999785,0.011524,-0.964218,-0.337807,-0.362261,0.47137700000000005,-0.044295,-0.021091
212,2.8996939999999998,-1.540707,-0.921738,0.0071909999999999995,0.999547,0.029144999999999997,-0.887331,-1.080495,-0.6470560000000001,0.33420900000000003,-0.196828,0.074584
213,-2.9280470000000003,-1.5199479999999999,-0.441324,-0.010763,0.998707,0.049634,-1.149384,-1.227876,-1.125125,0.121771,-0.315388,0.155246
214,-2.6815849999999997,-1.483241,-0.17432899999999998,-0.038811,0.9961700000000001,0.078333,-1.557998,-0.8597819999999999,-1.712768,-0.080208,-0.288055,0.178991
215,-2.499421,-1.4340549999999999,0.026432999999999998,-0.081635,0.990665,0.109149,-1.341409,-0.9478540000000001,-2.5187180000000002,-0.21316500000000002,-0.19742200000000001,0.023328
216,-2.341767,-1.3880350000000001,0.20277,-0.13034600000000002,0.9833459999999999,0.126638,-0.441673,-0.57412,-2.455228,-0.17063399999999998,0.0010140000000000001,0.011759
217,-2.2021330000000003,-1.356954,0.346575,-0.171302,0.977223,0.12525,0.327177,0.14637,-1.881419,-0.150872,-0.14027799999999999,-0.02445
218,-2.092294,-1.339418,0.449378,-0.198828,0.9733510000000001,0.11423699999999999,0.456474,0.675761,-0.91659,0.102942,-0.119103,-0.080973
219,-2.073125,-1.339805,0.45672799999999997,-0.200652,0.97344,0.110224,-0.240585,0.33059499999999997,0.489037,0.44290100000000004,-0.000234,-0.358729
220,-2.183453,-1.346134,0.344889,-0.182252,0.9748690000000001,0.128102,-1.222553,-0.156126,1.045754,0.465211,0.152954,-0.268681
221,-2.322737,-1.346013,0.20093,-0.16278900000000002,0.974842,0.152245,-1.123541,0.21341500000000002,0.9872200000000001,0.483285,0.178981,-0.31490300000000004
222,-2.425653,-1.3474760000000001,0.089545,-0.145351,0.975167,0.16708699999999999,-0.62443,0.290977,0.872034,0.479808,0.28589499999999995,-0.280963
223,-2.472172,-1.3495059999999999,0.035559,-0.136195,0.975615,0.172112,-0.09275900000000001,0.273319,0.298931,0.271586,0.25847,-0.097787
224,-2.4842,-1.355596,0.022271,-0.13048099999999999,0.976934,0.169031,0.241069,-0.13514400000000001,0.391517,0.223392,0.235987,-0.093455
225,-2.520736,-1.368452,-0.0034990000000000004,-0.116904,0.979598,0.163455,0.459412,-0.8572780000000001,0.703752,0.197287,0.391831,-0.20985700000000002
226,-2.5688169999999997,-1.388312,-0.02546,-0.098348,0.9833959999999999,0.152504,0.818991,-1.560551,0.7060960000000001,0.187673,0.6023430000000001,-0.32863600000000004
227,-2.601543,-1.412117,-0.028285,-0.081243,0.9874370000000001,0.135519,1.1556110000000002,-1.272745,0.63544,-0.069895,0.575796,-0.289312
228,-2.5750830000000002,-1.446144,0.00572,-0.066721,0.992241,0.104897,1.8180349999999998,0.22976300000000002,0.742827,-0.196051,0.47615799999999997,-0.283425
229,-2.506882,-1.489951,0.057336,-0.047876999999999996,0.996734,0.06501900000000001,1.94765,1.050886,1.213766,-0.050283,0.11119200000000001,-0.099488
230,-2.630531,-1.535248,-0.086885,-0.017366,0.999368,0.030969,1.423714,0.9298719999999999,1.8266259999999999,0.17593499999999998,-0.060280999999999994,0.09632
231,2.017731,-1.537611,-1.73216,0.029892000000000002,0.999449,0.014325999999999998,0.480621,0.196545,2.7471259999999997,0.21371500000000002,-0.122054,0.119295
232,1.6632959999999999,-1.473594,-2.0900119999999998,0.096622,0.9952799999999999,0.008962999999999999,0.356475,0.342316,3.695722,0.271801,0.188848,-0.059912
233,1.521627,-1.400303,-2.2494650000000003,0.169455,0.9855010000000001,-0.008339,1.383628,0.8314459999999999,3.2963449999999996,-0.19301500000000002,0.791492,-0.249428
234,1.354092,-1.3570200000000001,-2.410614,0.207184,0.9772370000000001,-0.045614,1.945613,-1.539854,1.212799,-0.322189,0.248914,-0.141276
235,1.173829,-1.3327229999999999,-2.541588,0.217486,0.971794,-0.091175,1.4513610000000001,-2.4284619999999997,0.61869,-0.35296900000000003,-0.39070900000000003,0.03751
236,1.0882690000000002,-1.303013,-2.610666,0.23438,0.96436,-0.122775,1.8844049999999999,-0.866583,1.261715,-0.369863,-0.383274,0.06911
237,1.000208,-1.24585,-2.697093,0.268679,0.9476680000000001,-0.172438,2.779745,0.28901,2.140294,-0.327685,-0.198599,0.242567
238,0.963433,-1.180097,-2.752482,0.31272300000000003,0.924643,-0.21734299999999998,2.436138,0.725997,2.1159689999999998,-0.338952,-0.274084,-0.05948200000000001
239,0.9484049999999999,-1.1273360000000001,-2.774829,0.34861,0.903272,-0.250136,1.514964,0.04774,1.768573,-0.25338,-0.357984,-0.043611000000000004
240,0.9445450000000001,-1.088262,-2.77323,0.37596599999999997,0.8858219999999999,-0.27197,1.030515,-0.457701,1.514805,-0.264714,-0.279956,-0.055728
241,0.932472,-1.047929,-2.777482,0.401038,0.866391,-0.297547,1.440468,-0.26047800000000004,1.655216,-0.257071,-0.192654,0.061264
242,0.930839,-1.001209,-2.783575,0.432571,0.842124,-0.32203899999999996,1.520492,0.38093899999999997,1.821596,-0.194884,-0.135443,0.058152999999999996
243,0.936207,-0.9580620000000001,-2.783789,0.46313999999999994,0.818079,-0.340949,1.059497,0.157519,1.616768,-0.028524,-0.159555,0.05915
244,0.939211,-0.932365,-2.7771060000000003,0.480975,0.803032,-0.35185500000000003,0.354792,-0.289554,0.8112520000000001,0.169904,-0.19535,0.12120299999999999
245,0.9316709999999999,-0.9286559999999999,-2.7772200000000002,0.480695,0.800816,-0.357245,0.014515,-0.353476,-0.22294499999999998,0.171344,-0.245381,0.135123
246,0.923502,-0.940183,-2.783399,0.470366,0.807666,-0.35557,-0.40212800000000004,0.026877999999999996,-0.67286,0.107149,-0.315677,0.167719
247,0.942256,-0.962518,-2.7756119999999997,0.462241,0.820633,-0.335994,-1.1333739999999999,1.000371,-0.795651,0.161004,-0.42096000000000006,0.259563
248,1.003544,-0.9926379999999999,-2.740082,0.460891,0.83747,-0.293633,-1.8735540000000002,1.958793,-0.6054970000000001,0.282669,-0.6251439999999999,-0.072517
249,1.084897,-1.027236,-2.695461,0.457323,0.855873,-0.241527,-1.580429,2.381391,-1.312222,0.10703800000000001,-0.34165100000000004,-0.181401
250,1.104192,-1.074633,-2.725636,0.425163,0.879416,-0.214155,-0.269192,1.504394,-2.9106810000000003,0.163125,1.169565,-0.5319229999999999
251,1.096158,-1.138766,-2.730921,0.372427,0.908117,-0.191359,-1.8728360000000002,-0.823254,-2.847329,0.007501000000000001,1.6745700000000001,-0.078432
252,1.101705,-1.193583,-2.7096270000000002,0.32854099999999997,0.929695,-0.166512,-1.26475,-0.521628,-1.815839,-0.14871600000000001,0.133141,0.21685100000000002
253,1.097772,-1.2234450000000001,-2.709653,0.303026,0.9402780000000001,-0.155082,-0.403186,0.021366999999999997,-1.157833,-0.035891,-0.22953800000000002,0.214698
254,1.085473,-1.247066,-2.730381,0.281368,0.948055,-0.148392,-0.20063399999999998,0.546454,-1.309847,0.00243,-0.161388,0.154694
255,1.0585879999999999,-1.275324,-2.7725150000000003,0.253817,0.956665,-0.14271099999999998,-0.068372,0.658215,-1.6669200000000002,-0.015841,-0.139435,0.044201
256,1.015396,-1.308446,-2.828672,0.220363,0.965783,-0.136748,-0.29203,0.48851700000000003,-1.925707,-0.03149,-0.111871,0.050735
257,0.968767,-1.350814,-2.888236,0.179842,0.975901,-0.123573,-0.719598,0.65871,-2.291039,-0.151125,0.055959,0.131691
258,0.924802,-1.3980860000000002,-2.954998,0.137218,0.985123,-0.103449,-0.887352,1.378101,-2.2279709999999997,-0.13386099999999998,0.068405,0.167398
259,0.8883719999999999,-1.4393799999999999,-3.027915,0.10168200000000001,0.9913770000000001,-0.082635,-0.805739,1.936378,-1.784804,-0.126355,0.005937,0.100838
260,0.86529,-1.471639,-3.0870490000000004,0.07535,0.995088,-0.064179,-0.753135,1.563449,-1.277621,-0.041796,-0.02556,-0.000793
261,0.830566,-1.497752,-3.139713,0.053863,0.997333,-0.049205,-0.6396149999999999,0.447916,-1.0628229999999999,0.133301,-0.019688,-0.09854600000000001
262,0.731733,-1.518001,3.045425,0.035236,0.998607,-0.039237,-0.400403,-0.23237,-0.842367,0.279674,0.011189,-0.095086
263,0.542769,-1.530083,2.8617619999999997,0.021,0.9991709999999999,-0.034814,-0.147645,-0.279907,-0.629033,0.384868,0.00919,-0.052663999999999996
264,0.46597700000000003,-1.538017,2.787902,0.014699,0.9994629999999999,-0.029227,-0.48415,0.027612,0.014497,0.614436,-0.128659,0.063682
265,1.141309,-1.532355,-2.817857,0.034901999999999996,0.9992610000000001,-0.015985,-0.657323,-0.234672,1.01882,0.382715,-0.054863999999999996,-0.059698
266,1.592315,-1.534502,-2.3662360000000002,0.036224,0.999341,0.00078,-1.0067979999999999,0.178924,-0.341861,0.146927,-0.384214,0.104002
267,2.477462,-1.5395379999999999,-1.48654,0.019226,0.9995120000000001,0.024562999999999998,-1.2024709999999998,0.227588,-1.151934,-0.019959,-0.54837,0.022236000000000002
268,-2.9702740000000003,-1.525196,-0.644277,-0.007764,0.9989600000000001,0.044877,-0.859756,-0.672788,-1.3940780000000002,-0.045306,-0.401991,0.00035
269,-2.602509,-1.506369,-0.257179,-0.033035,0.997925,0.055225,-0.251294,-0.951306,-1.2687620000000002,-0.055954,-0.2892,0.009258
270,-2.3287009999999997,-1.494632,0.029663,-0.055245,0.997101,0.052288,0.396725,-0.402632,-1.0459530000000001,-0.072532,-0.10928399999999999,-0.034679
271,-2.105326,-1.487271,0.259065,-0.07177599999999999,0.9965139999999999,0.042492,0.482408,-0.24337399999999998,-0.720819,0.018324,0.178062,-0.2393
272,-2.012474,-1.478537,0.352749,-0.083274,0.9957469999999999,0.039375,-0.10667599999999999,0.169027,-0.511818,0.119407,0.196468,-0.23435100000000003
273,-2.069339,-1.4660309999999999,0.288213,-0.09183200000000001,0.994517,0.049994,-0.794452,0.413652,-0.35136100000000003,0.298711,0.105153,-0.14740699999999998
274,-2.174484,-1.4515040000000001,0.17311600000000002,-0.097962,0.992893,0.067551,-0.931207,0.473371,-0.248775,0.361344,0.058589999999999996,-0.10426400000000001
275,-2.249406,-1.4404780000000001,0.09568099999999999,-0.101148,0.9915209999999999,0.081562,-0.587226,-0.21240100000000003,-0.080987,0.324919,0.004665,-0.14868599999999998
276,-2.3359259999999997,-1.432231,0.020325,-0.099618,0.9904149999999999,0.09565900000000001,-0.7471220000000001,-0.766301,0.046792,0.424737,0.334948,-0.015474000000000002
277,-2.437957,-1.419047,-0.063544,-0.09779600000000001,0.9885079999999999,0.115255,-0.927069,-1.0156459999999998,-0.046012,0.538058,0.6877,-0.08192999999999999
278,-2.499155,-1.406043,-0.108894,-0.098258,0.986459,0.131302,-0.556571,-0.6349319999999999,-0.203077,0.55883,0.803702,-0.058258000000000004
279,-2.5031689999999998,-1.3984020000000001,-0.10325899999999999,-0.10222,0.9851770000000001,0.137745,-0.135374,-0.49559,-0.249452,0.372377,0.605582,-0.06406
280,-2.501423,-1.398947,-0.087788,-0.10214,0.9852700000000001,0.13713599999999998,0.25572399999999995,-0.8164939999999999,0.007928,0.2375,0.36594099999999996,-0.17043
281,-2.503011,-1.40873,-0.06540499999999999,-0.096171,0.9868959999999999,0.129551,0.6139859999999999,-1.386299,0.200236,0.088129,0.218518,-0.12685
282,-2.505484,-1.421953,-0.038502999999999996,-0.088088,0.988943,0.119277,0.657589,-1.39188,0.226185,-0.070237,0.179956,-0.018417
283,-2.495362,-1.43506,-0.007520999999999999,-0.08147599999999999,0.9908020000000001,0.108019,0.668837,-0.781543,0.23295900000000003,-0.159948,0.10511500000000001,0.02107
284,-2.4920459999999998,-1.452769,0.005203,-0.071207,0.993043,0.09375599999999999,0.8269,-0.302372,0.678897,-0.11623199999999999,-0.043107,0.012796
285,-2.576174,-1.482742,-0.079731,-0.047101,0.9961260000000001,0.07423099999999999,1.0641559999999999,0.21091,1.582544,0.028852,-0.171571,-0.008251999999999999
286,-3.134481,-1.519843,-0.648882,-0.000362,0.9987020000000001,0.050884,1.214954,0.621758,2.869211,0.26382,-0.199126,-0.083614
287,1.903666,-1.496716,-1.9095849999999999,0.069922,0.997257,0.024174,1.467912,0.6585439999999999,3.838739,0.326669,0.094555,-0.30601999999999996
288,1.5153020000000001,-1.427469,-2.303111,0.142602,0.9897459999999999,-0.007922,1.683802,-0.296553,3.272109,0.071021,0.676117,-0.42715200000000003
289,1.349328,-1.382069,-2.446273,0.183015,0.982244,-0.041208,1.256683,-1.7353939999999999,1.427218,-0.22029200000000002,0.455211,-0.11963499999999999
290,1.2452239999999999,-1.3581450000000002,-2.5113380000000003,0.199953,0.977475,-0.067501,0.7996479999999999,-1.908391,0.864499,-0.330462,-0.329358,0.423199
291,1.1939549999999999,-1.333118,-2.544553,0.218915,0.9718870000000001,-0.086637,1.044781,-0.6611020000000001,1.221399,-0.360212,-0.404138,0.27728
292,1.104425,-1.289225,-2.627832,0.248182,0.96062,-0.12493699999999999,2.328135,-0.144707,1.772359,-0.32963400000000004,-0.273654,0.295027
293,1.021871,-1.225627,-2.722918,0.28864,0.941018,-0.17654,3.010212,0.570353,2.181063,-0.407491,-0.1177,-0.030781
294,0.971009,-1.1601219999999999,-2.786693,0.32954,0.916852,-0.225348,2.5058279999999997,0.23504099999999997,2.0230770000000002,-0.451931,-0.27073400000000003,-0.160227
295,0.94729,-1.106626,-2.8106419999999996,0.36344,0.894193,-0.261392,1.609638,-0.19463,1.8261560000000001,-0.34705199999999997,-0.48335100000000003,-0.08451
296,0.9449270000000001,-1.064125,-2.81009,0.393285,0.874365,-0.284269,1.1052110000000002,-0.034710000000000005,1.6985139999999999,-0.284933,-0.420263,0.089537
297,0.9581649999999999,-1.0218610000000001,-2.804422,0.42688400000000004,0.853081,-0.300033,1.16396,0.691718,1.936207,-0.248509,-0.23635100000000003,0.176635
298,0.9843850000000001,-0.971874,-2.796975,0.46956499999999995,0.825944,-0.311965,1.2487549999999998,1.11522,2.248178,-0.169424,-0.033005,0.095076
299,1.014599,-0.924839,-2.786593,0.5112260000000001,0.798524,-0.317811,0.8322780000000001,1.009048,1.9879630000000001,0.312322,-0.00554,0.18066500000000002
300,1.04017,-0.894501,-2.775715,0.539837,0.7798970000000001,-0.316754,0.313242,0.737375,1.114085,0.39047600000000005,-0.05801900000000001,0.19173800000000002
301,1.049535,-0.885703,-2.77063,0.548709,0.77436,-0.315089,-0.018626,-0.080735,0.065957,0.42045299999999997,-0.10002799999999999,0.086329
302,1.039104,-0.8932100000000001,-2.7715389999999998,0.540366,0.779088,-0.317839,-0.273496,-0.595394,-0.47888800000000004,0.07242699999999999,-0.245168,0.036314
303,1.0284739999999999,-0.910416,-2.771893,0.525396,0.789759,-0.31659899999999996,-0.515888,-0.376498,-0.929515,-0.027882999999999998,-0.359644,-0.113577
304,1.0300120000000001,-0.940464,-2.773177,0.505303,0.807832,-0.303433,-0.932803,0.46164099999999997,-1.574435,-0.065011,-0.43367100000000003,-0.095112
305,1.044508,-0.986416,-2.7749639999999998,0.477024,0.8340540000000001,-0.277123,-1.092706,1.038953,-2.2172240000000003,0.018841,-0.615441,-0.161368
306,1.06457,-1.040324,-2.78037,0.442481,0.862568,-0.24531799999999998,-1.558218,1.182215,-2.4748959999999998,0.064752,-0.579503,0.008197
307,1.096258,-1.102095,-2.785904,0.401809,0.892156,-0.206404,-1.003675,2.283818,-2.981976,-0.002868,0.691539,-0.31300500000000003
308,1.166144,-1.157011,-2.74548,0.36959899999999996,0.9156049999999999,-0.158295,-2.622584,0.953383,-1.603959,0.408965,2.2830340000000002,-0.026474
309,1.229904,-1.193794,-2.680273,0.34694400000000003,0.9297719999999999,-0.123075,-1.069048,-0.364533,-1.04449,0.225917,0.544242,0.027525
310,1.206272,-1.208896,-2.686394,0.330781,0.935226,-0.126218,0.223688,-1.026705,-0.67462,0.09945599999999999,-0.38764899999999997,0.090543
311,1.141748,-1.223659,-2.735048,0.309364,0.940351,-0.141525,0.576004,-0.893292,-1.308991,0.08228300000000001,-0.35728200000000004,0.044631
312,1.046167,-1.251019,-2.816825,0.27207,0.949305,-0.15745399999999998,0.510042,-0.9452149999999999,-2.119096,0.008478,-0.301875,-0.025118
313,0.926715,-1.292299,-2.923657,0.21982600000000002,0.96147,-0.165069,-0.124794,-0.737646,-2.859801,-0.234138,-0.027295999999999997,0.141311
314,0.805615,-1.351953,-3.042797,0.156576,0.9761489999999999,-0.15037,-1.218366,-0.011859,-3.3266370000000003,-0.227728,0.030839,0.18307
315,0.695222,-1.417532,3.1163819999999998,0.09777899999999999,0.9882780000000001,-0.11722,-1.7379229999999999,0.9902690000000001,-2.802781,-0.277878,0.007906999999999999,0.30172899999999997
316,0.615816,-1.468816,3.0041330000000004,0.058788,0.9948049999999999,-0.08308,-1.462603,1.8648060000000002,-1.6974369999999999,-0.23401999999999998,-0.085716,0.187328
317,0.592296,-1.502262,2.941079,0.038207,0.9976520000000001,-0.05678099999999999,-1.091284,1.8967720000000001,-0.956743,-0.12263399999999999,-0.12098900000000001,0.083911
318,0.545134,-1.525012,2.864325,0.023697,0.9989520000000001,-0.039076,-0.6869850000000001,1.1753360000000002,-0.713712,0.277909,-0.146321,-0.14921800000000002
319,0.388857,-1.5383719999999999,2.6955310000000003,0.012255,0.999474,-0.029911,-0.3151,0.31253600000000004,-0.5220020000000001,0.459409,-0.116219,-0.175426
320,0.165175,-1.5438399999999999,2.4744509999999997,0.004412,0.9996370000000001,-0.026467,-0.125063,-0.40374899999999997,-0.315726,0.569441,-0.11604600000000001,-0.126746
321,-0.013926,-1.548917,2.309792,-0.000303,0.999761,-0.021730000000000003,-0.364572,-0.856217,-0.17688199999999998,0.530134,-0.2011,-0.015548
322,-0.677196,-1.5594299999999999,1.6604880000000002,-0.006954999999999999,0.999935,-0.00865,-0.814237,-0.5583520000000001,-0.482712,0.223233,-0.35676199999999997,0.10296400000000001
323,-2.115748,-1.5457379999999998,0.22723800000000002,-0.021327000000000002,0.9996860000000001,0.012928,-1.238477,-0.080474,-0.805686,0.113078,-0.395362,0.122921
324,-2.377169,-1.51519,-0.033961,-0.038429000000000005,0.9984540000000001,0.040076,-1.35343,-0.091504,-0.8780459999999999,-0.05545800000000001,-0.44094399999999995,0.070901
325,-2.422136,-1.487349,-0.06903200000000001,-0.054902,0.9965200000000001,0.062665,-0.91299,-0.770853,-0.801459,-0.070663,-0.279113,0.01401
326,-2.411691,-1.4699870000000002,-0.03648,-0.067085,0.994923,0.074978,-0.350209,-1.2176280000000002,-0.650609,-0.07772000000000001,-0.175724,0.003773
327,-2.353575,-1.45957,0.043493000000000004,-0.07867400000000001,0.993821,0.078263,0.051605,-0.864166,-0.6803020000000001,-0.124726,0.10822999999999999,-0.024796000000000002
328,-2.280348,-1.4535879999999999,0.123233,-0.088699,0.993139,0.07617,0.10985199999999999,0.049505,-0.380896,-0.014405000000000001,0.301249,-0.181059
329,-2.257446,-1.4492639999999999,0.136898,-0.09374099999999999,0.992624,0.07684099999999999,-0.215901,0.6591199999999999,-0.16817200000000002,0.200781,0.327338,-0.186506
330,-2.278491,-1.441981,0.102626,-0.097595,0.991715,0.083495,-0.454588,0.52027,-0.136546,0.370834,0.24520799999999998,-0.207473
331,-2.294285,-1.4325,0.08280599999999999,-0.103307,0.990452,0.09124700000000001,-0.372321,0.041684,-0.40455,0.36945100000000003,0.215709,-0.083633
332,-2.276992,-1.417066,0.099952,-0.11648800000000001,0.988207,0.099357,-0.47202,0.044569,-0.7727189999999999,0.2764,0.152342,0.055032000000000005
333,-2.2798849999999997,-1.3980190000000001,0.09832,-0.130465,0.9851110000000001,0.11193199999999999,-0.7246640000000001,-0.2194,-0.608571,0.278033,0.080456,0.065589
334,-2.334085,-1.381998,0.05700499999999999,-0.135598,0.9822299999999999,0.12973099999999999,-0.8311930000000001,-0.952557,-0.188564,0.362771,0.146401,-0.027694999999999997
335,-2.408502,-1.3723889999999999,0.004658,-0.131888,0.980382,0.14646099999999998,-0.57182,-1.108041,0.107208,0.41406899999999996,0.309383,-0.117836
336,-2.43891,-1.3696840000000001,-0.01349,-0.12908599999999998,0.9798450000000001,0.152425,-0.013217,-0.39357600000000004,-0.026538,0.120557,0.576429,-0.211644
337,-2.428461,-1.369413,0.005884,-0.130846,0.979791,0.15126900000000001,0.173378,-0.551351,-0.159629,0.17894100000000002,0.536704,-0.289407
338,-2.427187,-1.376354,0.024663,-0.126578,0.9811559999999999,0.145959,0.518278,-1.025058,0.254653,0.23877600000000002,0.45105,-0.290338
339,-2.438567,-1.3904969999999999,0.034916,-0.115924,0.9837899999999999,0.13678800000000002,0.6286609999999999,-0.987756,0.420951,0.08278200000000001,0.43750500000000003,-0.12346700000000001
340,-2.421669,-1.411348,0.062934,-0.10466700000000001,0.9873149999999999,0.11935599999999999,1.235271,-0.20438800000000001,0.596168,-0.013588999999999999,0.389653,-0.116182
341,-2.3316169999999996,-1.449227,0.146463,-0.08781,0.9926200000000001,0.083596,2.043598,0.654848,1.0707309999999999,-0.067464,0.22477199999999997,-0.13334000000000001
342,-2.132833,-1.497594,0.331036,-0.061841999999999994,0.9973219999999999,0.038947,2.161193,0.695188,1.5361770000000001,0.064131,0.071007,-0.044975
343,-1.7520580000000001,-1.547174,0.698878,-0.023071,0.9997209999999999,0.004228,1.191703,0.9770340000000001,2.22232,0.128555,-0.000713,0.0576
344,1.434987,-1.53647,-2.419476,0.033894,0.999411,-0.004632,0.376809,0.6454270000000001,3.2703189999999998,0.370204,-0.090887,-0.060233
345,1.426701,-1.46289,-2.4267279999999998,0.106548,0.9941840000000001,-0.01546,0.551821,-0.13761900000000002,3.667787,0.274113,0.189807,0.143481
346,1.409165,-1.400565,-2.450883,0.16718,0.9855459999999999,-0.027259,0.8331040000000001,0.358978,2.581666,0.167689,0.374287,0.10926
347,1.310863,-1.359158,-2.540251,0.202988,0.9776879999999999,-0.053985000000000005,1.502879,-1.258184,1.488148,-0.198045,0.305179,-0.23726
348,1.169363,-1.328396,-2.644177,0.220937,0.970765,-0.093784,1.5704799999999999,-2.248832,0.8831399999999999,-0.371068,-0.011170000000000001,0.08111900000000001
349,1.056877,-1.297857,-2.7159310000000003,0.234731,0.962983,-0.132509,1.490666,-1.9375,1.150307,-0.34233600000000003,-0.281006,0.272753
350,1.0022440000000001,-1.250456,-2.748453,0.265342,0.9491280000000001,-0.169535,1.766895,-0.680304,2.1985509999999997,-0.328392,-0.29783699999999996,0.08993
351,0.9814860000000001,-1.185041,-2.7666939999999998,0.312786,0.926515,-0.209116,2.176443,-0.09097899999999999,2.585216,-0.41968900000000003,-0.251252,-0.0008449999999999999
352,0.9543790000000001,-1.1245,-2.78662,0.35218299999999997,0.9020520000000001,-0.24952600000000003,1.9049180000000001,-0.701651,2.089515,-0.434763,-0.305296,-0.028291000000000004
353,0.929377,-1.075923,-2.794773,0.380524,0.8800290000000001,-0.284157,1.392385,-0.918927,1.725155,-0.259964,-0.48307100000000003,0.058632000000000004
354,0.917317,-1.036208,-2.7957099999999997,0.404514,0.8604790000000001,-0.30974,1.166979,-0.237677,1.5197450000000001,-0.336598,-0.364827,0.138628
355,0.9233299999999999,-0.99623,-2.795489,0.43347600000000003,0.8394280000000001,-0.327801,1.238177,0.541334,1.650636,-0.34274699999999997,-0.154904,0.122524
356,0.9375040000000001,-0.9569690000000001,-2.795617,0.4643,0.81745,-0.340875,1.083242,0.761071,1.44631,-0.243902,-0.07411799999999999,0.12282699999999999
357,0.951946,-0.929425,-2.795856,0.487335,0.801276,-0.347067,0.658578,0.700751,0.9157190000000001,-0.006118,-0.193152,0.17272
358,0.965041,-0.9144680000000001,-2.796426,0.501634,0.792238,-0.34744200000000003,0.321286,0.6379060000000001,0.408175,0.209929,-0.223162,0.143966
359,0.972938,-0.914701,-2.798994,0.50421,0.79238,-0.343366,-0.12109400000000001,0.41887399999999997,-0.376573,0.338091,-0.235206,0.165128
360,0.985085,-0.932818,-2.7979060000000002,0.49629799999999996,0.803301,-0.329226,-0.8324020000000001,0.767178,-0.8146180000000001,0.36117,-0.31206,0.21844699999999997
361,1.0312459999999999,-0.963253,-2.7701740000000004,0.489752,0.821053,-0.293272,-1.899099,1.439158,-0.9030459999999999,0.429925,-0.49532299999999996,0.209898
362,1.113553,-1.004176,-2.714254,0.48163500000000004,0.84372,-0.236974,-2.416291,1.9395209999999998,-1.174356,0.48771000000000003,-0.600358,0.049871
363,1.1853209999999998,-1.054626,-2.676176,0.457329,0.869715,-0.185573,-1.174862,2.153698,-2.527945,0.139472,-0.16283699999999998,-0.7243850000000001
364,1.17477,-1.12058,-2.715626,0.401471,0.9003530000000001,-0.16786199999999998,-0.784535,0.11244000000000001,-3.350475,0.366489,2.179939,-0.34881599999999996
365,1.208329,-1.187557,-2.6532419999999997,0.34962,0.927458,-0.132583,-2.778213,-1.2711729999999999,-2.2014709999999997,0.116445,2.452043,0.142715
366,1.246918,-1.2227059999999998,-2.593016,0.323356,0.940026,-0.10855,-0.8352629999999999,-0.8667469999999999,-0.8627540000000001,0.016030000000000003,-0.257226,0.14627
367,1.216936,-1.236449,-2.605092,0.30780799999999997,0.944625,-0.11370699999999999,0.281492,-0.8698110000000001,-0.798334,0.0077280000000000005,-0.44631800000000005,0.052016
368,1.147551,-1.25765,-2.665149,0.280858,0.951369,-0.12651800000000002,0.533752,-0.49309200000000003,-1.717862,-0.057377,-0.45497,-0.00515
369,1.0468,-1.295087,-2.7604740000000003,0.23568899999999998,0.962232,-0.1362,0.20165999999999998,-0.5000600000000001,-2.6164110000000003,-0.310411,-0.33266999999999997,-0.132706
370,0.9300200000000001,-1.349689,-2.8729259999999996,0.175789,0.9756549999999999,-0.13109500000000002,-0.722546,-0.231225,-3.242779,-0.397377,-0.06632300000000001,0.019385
371,0.8225100000000001,-1.414731,-2.991145,0.11388599999999999,0.9878469999999999,-0.10573199999999999,-1.45121,0.943298,-3.025048,-0.28722600000000004,0.169182,0.182225
372,0.766717,-1.469114,-3.081438,0.070388,0.994835,-0.07306900000000001,-1.46861,2.008311,-1.880332,-0.196075,0.19228399999999998,0.21261
373,0.815499,-1.504779,-3.073464,0.047972,0.997822,-0.045168,-1.129682,1.88737,-0.9687530000000001,-0.026518,0.151577,0.10861400000000002
374,0.8512549999999999,-1.52852,-3.0617330000000003,0.031689999999999996,0.9991059999999999,-0.027769,-0.639301,0.7368,-0.843144,0.09337100000000001,0.125802,0.025266
375,0.778541,-1.544551,-3.135207,0.01828,0.999656,-0.018532,-0.408708,-0.328465,-0.513292,0.471955,-0.070655,-0.089943
376,0.959624,-1.552616,-2.939618,0.014644999999999998,0.999835,-0.010261,-0.428519,-0.892956,0.009653,0.5329619999999999,-0.146258,-0.070366
377,1.435071,-1.554701,-2.443866,0.015603,0.99987,-0.002131,-0.432195,-0.997345,0.01083,0.384802,-0.258995,0.037119
378,2.175928,-1.556262,-1.687179,0.011646,0.9998940000000001,0.008056,-0.610138,-0.595793,-0.353055,0.30744499999999997,-0.28683600000000004,0.084367
379,-2.981905,-1.543995,-0.558188,-0.004228,0.999641,0.02625,-1.0899379999999999,-0.041621,-1.058938,-0.027083,-0.44257299999999994,0.10784400000000001
380,-2.638399,-1.514063,-0.209879,-0.027295,0.998391,0.049586,-1.1267260000000001,-0.44926800000000006,-1.115289,-0.026432,-0.36477,-0.011683
381,-2.548482,-1.492514,-0.104456,-0.04367,0.9969379999999999,0.064785,-0.40070700000000004,-0.86679,-0.696281,-0.002137,-0.15570499999999998,-0.073635
382,-2.414323,-1.490572,0.041557,-0.053233,0.996784,0.059811,0.6433810000000001,-0.275764,-0.48571499999999995,0.030024000000000002,-0.013904,-0.12089200000000001
383,-2.1377509999999997,-1.4922799999999998,0.31993699999999997,-0.066107,0.996919,0.042089,0.8760190000000001,-0.066661,-0.764232,0.158132,0.051436,-0.362249
384,-1.9820490000000002,-1.478412,0.480129,-0.084508,0.9957360000000001,0.036856,-0.17958,-0.172785,-1.015024,0.206456,0.030448000000000003,-0.239477
385,-2.054716,-1.453018,0.406848,-0.103974,0.993072,0.054649,-1.255383,0.113791,-0.886173,0.271485,0.049149,-0.086586
386,-2.195723,-1.425907,0.26097600000000004,-0.117066,0.9895219999999999,0.084448,-1.5832469999999998,0.170978,-0.517863,0.32666100000000003,0.10255,-0.029318
387,-2.311254,-1.402061,0.145005,-0.12394000000000001,0.985798,0.113272,-1.347199,-0.218666,-0.251864,0.367089,0.136425,-0.027381
388,-2.411834,-1.3851040000000001,0.054185000000000004,-0.12306900000000001,0.982809,0.137587,-1.053591,-0.752743,0.119407,0.53382,0.376185,-0.062575
389,-2.497641,-1.374863,-0.016171,-0.11686300000000001,0.980866,0.15567,-0.633467,-0.7766890000000001,0.149078,0.524303,0.6831050000000001,-0.08909600000000001
390,-2.519126,-1.369275,-0.029249,-0.11668599999999998,0.9797629999999999,0.162598,-0.16312100000000002,-0.23353800000000002,-0.22327800000000003,0.204455,0.8882639999999999,-0.095444
391,-2.477531,-1.364067,0.018244999999999997,-0.12649100000000002,0.978707,0.16162200000000002,0.286236,-0.39418200000000003,-0.6653819999999999,-0.09521900000000001,0.710853,-0.177033
392,-2.414919,-1.3677629999999998,0.10032100000000001,-0.133951,0.979459,0.15068499999999999,0.879957,-1.155965,-0.353679,-0.098837,0.344393,-0.14362
393,-2.363075,-1.384026,0.177651,-0.130374,0.9826090000000001,0.13218,1.227951,-1.037955,0.201939,-0.073117,0.182766,-0.117791
394,-2.281444,-1.409462,0.26590199999999997,-0.12172899999999999,0.987014,0.10476600000000001,1.523577,0.233873,0.505749,-0.16559400000000002,0.181123,-0.28213499999999997
395,-2.176038,-1.4386459999999999,0.348878,-0.108326,0.991281,0.074947,1.061334,1.895154,1.043049,-0.122326,0.091727,-0.08105
396,-2.249102,-1.470304,0.220849,-0.078074,0.9949549999999999,0.062917,0.21302800000000002,2.616393,2.0317819999999998,0.061320000000000006,-0.057179999999999995,-0.12474500000000001
397,-2.634637,-1.506473,-0.194422,-0.031172000000000002,0.9979319999999999,0.056128,0.209583,0.605723,2.690223,0.22018200000000002,-0.207283,0.077814
398,2.59651,-1.507479,-1.23609,0.032766,0.9979959999999999,0.054037,0.106314,-1.169705,3.4811919999999996,0.368571,-0.192973,0.174494
399,1.8731919999999997,-1.451986,-1.934525,0.113113,0.99295,0.035287,1.5125520000000001,-1.253767,4.102145,0.480347,0.283157,-0.116479
400,1.541468,-1.40029,-2.267696,0.16958,0.985499,-0.004975,1.9667689999999998,0.8845040000000001,1.781332,-0.271158,0.578756,-0.6764060000000001
401,1.3326049999999998,-1.3770639999999998,-2.470943,0.187064,0.981292,-0.045419,2.0922810000000003,-1.734174,0.666068,-0.41001000000000004,0.125168,-0.5899260000000001
402,1.11986,-1.350878,-2.651135,0.196325,0.975915,-0.095063,1.9013639999999998,-0.34526100000000004,0.617021,-0.632269,-0.647744,0.345017
403,1.020942,-1.310359,-2.768956,0.219533,0.9662780000000001,-0.134553,2.589986,0.833562,1.459943,-0.626942,-0.5976100000000001,0.008561
404,0.9311860000000001,-1.243506,-2.8681080000000003,0.257921,0.946917,-0.191878,3.182257,-0.05778200000000001,2.204432,-0.554064,-0.463168,0.018385
405,0.8819229999999999,-1.168495,-2.922316,0.302245,0.920162,-0.248881,2.941923,0.324651,2.412703,-0.236037,-0.121991,0.1636
406,0.88192,-1.097086,-2.937887,0.35215599999999997,0.889882,-0.289982,2.232697,0.828026,2.61968,-0.12567,-0.176625,0.135533
407,0.906336,-1.033044,-2.929638,0.40323000000000003,0.8588620000000001,-0.31584,1.6996630000000001,0.8875379999999999,2.584902,-0.090028,-0.219092,0.1454
408,0.925834,-0.9735290000000001,-2.926627,0.44941000000000003,0.826875,-0.33808499999999997,1.846643,0.76468,2.279506,0.012672,-0.249223,0.119182
409,0.922903,-0.919701,-2.94129,0.483241,0.79542,-0.36575799999999997,1.961382,0.230055,1.612286,0.00411,-0.226863,0.12221199999999999
410,0.903581,-0.8803200000000001,-2.9635860000000003,0.500315,0.770943,-0.39411399999999996,1.5849309999999999,-0.234384,0.8689049999999999,0.005132,-0.229744,0.16636199999999998
411,0.883085,-0.856189,-2.9832919999999996,0.506364,0.75535,-0.415976,1.0438530000000001,-0.27424899999999997,0.38554499999999997,0.11601199999999999,-0.18918800000000002,0.150549
412,0.8652120000000001,-0.84452,-2.99717,0.505524,0.747653,-0.430645,0.534737,-0.46481999999999996,-0.00018999999999999998,0.20664899999999997,-0.21194699999999997,0.143536
413,0.845435,-0.8467370000000001,-3.008628,0.49566800000000005,0.749123,-0.439458,-0.024506,-0.464329,-0.43672700000000003,0.09764,-0.35481999999999997,0.14238499999999998
414,0.8456290000000001,-0.862725,-3.0079569999999998,0.48672600000000005,0.759618,-0.43136199999999997,-0.864973,0.282127,-0.698856,0.134154,-0.42018599999999995,0.110454
415,0.8755350000000001,-0.895706,-2.991784,0.479901,0.78065,-0.400343,-1.8684189999999998,1.221314,-1.063855,0.26511,-0.492213,0.158461
416,0.93466,-0.949025,-2.957071,0.468538,0.8128479999999999,-0.346041,-2.751087,1.751901,-1.649676,0.369048,-0.739621,-0.017149
417,1.003624,-1.008169,-2.9241080000000004,0.44988599999999995,0.845857,-0.286571,-2.079008,2.159686,-2.177479,0.237614,-0.5308390000000001,-0.398152
418,1.030818,-1.068288,-2.93855,0.41309399999999996,0.8763770000000001,-0.24760900000000002,-0.7934680000000001,1.958663,-2.836949,0.16497,1.364285,-0.503475
419,1.104379,-1.117446,-2.864773,0.39119,0.898985,-0.196951,-4.071569,-0.39776500000000004,-0.7876810000000001,0.006943,3.369646,0.424933
420,1.193036,-1.162799,-2.773889,0.368787,0.917917,-0.146341,-1.341992,-0.028368,-1.225219,-0.24401599999999998,-0.09270700000000001,0.08565700000000001
421,1.166611,-1.17668,-2.789939,0.353042,0.923336,-0.151009,0.522223,-0.523098,-0.60054,-0.100326,-0.726528,0.16736600000000001
422,1.106514,-1.189868,-2.853754,0.332417,0.92832,-0.166472,0.902343,0.220979,-1.590148,-0.001912,-0.414984,-0.025697
423,1.023945,-1.225142,-2.949801,0.289392,0.9408540000000001,-0.176177,0.33608899999999997,0.314944,-2.751109,-0.140848,-0.182752,-0.289354
424,0.955766,-1.2818399999999999,-3.033876,0.232725,0.958542,-0.164405,-0.9531209999999999,0.9773950000000001,-3.193593,-0.182738,0.11955299999999999,-0.026116000000000004
425,0.9659459999999999,-1.3457780000000001,-3.062553,0.183524,0.9747899999999999,-0.126867,-1.7634330000000003,2.287614,-2.474541,-0.14868900000000002,0.18850999999999998,0.128942
426,1.032765,-1.3928209999999999,-3.041264,0.152004,0.9842040000000001,-0.090709,-1.056937,2.041868,-1.573053,-0.24479299999999998,0.162723,0.008815
427,0.976109,-1.418539,-3.1220790000000003,0.125606,0.988431,-0.08495599999999999,0.338677,0.614027,-1.3585120000000002,-0.173976,0.144549,-0.012990999999999999
428,0.8428680000000001,-1.4310479999999999,3.03022,0.10396500000000002,0.990251,-0.092653,0.180035,-0.563144,-0.94471,0.09914500000000001,-0.050035,-0.096526
429,0.782832,-1.449692,2.983921,0.085177,0.992676,-0.085615,-0.77653,-0.621925,-0.866927,0.16613499999999998,-0.21110500000000001,-0.074327
430,0.8266469999999999,-1.478115,3.029859,0.06804600000000001,0.995708,-0.062652,-1.316737,0.26513000000000003,-0.851541,0.166466,-0.309658,-0.061295
431,0.9776229999999999,-1.508438,-3.117216,0.051601,0.9980559999999999,-0.034788,-1.344302,0.991842,-0.876165,0.018313999999999997,-0.49799499999999997,0.09917999999999999
432,1.453726,-1.538878,-2.6639779999999997,0.031517,0.999491,-0.0037070000000000002,-1.621897,1.151556,-1.148569,0.0053490000000000005,-0.579828,0.031081
433,2.957231,-1.542786,-1.174104,0.005097,0.9996079999999999,0.027333999999999997,-1.42769,0.443441,-1.38986,0.006957,-0.49144399999999994,0.034647000000000004
434,-2.769475,-1.516349,-0.62088,-0.019749,0.998518,0.0506,-1.014849,0.053966,-1.053192,-0.020488,-0.378706,0.187361
435,-2.716879,-1.495624,-0.565156,-0.030914999999999998,0.9971760000000001,0.06836,-0.8662690000000001,-0.29588400000000004,-0.27404,0.022218,-0.318312,0.228042
436,-2.8249419999999996,-1.476899,-0.664672,-0.029176,0.9955950000000001,0.08904,-1.142305,-0.501237,0.169743,0.061632000000000006,-0.274465,0.22445199999999998
437,-2.925549,-1.454128,-0.75384,-0.024942,0.993202,0.113649,-1.1588399999999999,-0.670354,0.11857000000000001,0.18041400000000002,-0.156593,-0.037767
438,-2.958702,-1.441478,-0.776523,-0.023446,0.99165,0.12676400000000002,-0.3918,-0.432435,-0.10390799999999999,0.203057,0.09,-0.295771
439,-2.908001,-1.4317309999999999,-0.7194159999999999,-0.032077,0.990346,0.13481300000000002,-0.5014930000000001,-0.23167600000000002,-0.6625439999999999,0.091968,0.168818,-0.167925
440,-2.845518,-1.4142649999999999,-0.6533329999999999,-0.045474,0.9877739999999999,0.149074,-0.796496,-0.107107,-0.6562180000000001,0.165438,0.200764,-0.073147
441,-2.808843,-1.397559,-0.614887,-0.056292999999999996,0.985032,0.162885,-0.565318,-0.04455,-0.516883,0.356632,0.182647,-0.10449000000000001
442,-2.769687,-1.389016,-0.573846,-0.065682,0.9835229999999999,0.16839200000000001,-0.135876,-0.090001,-0.445459,0.255181,0.014096000000000001,-0.095424
443,-2.745613,-1.385507,-0.5472600000000001,-0.071048,0.982883,0.169946,-0.078359,-0.08381,-0.179078,0.265079,-0.098301,-0.095376
444,-2.751171,-1.3822,-0.554056,-0.071339,0.982268,0.173344,-0.23310100000000003,0.160719,0.075901,0.308293,-0.136794,-0.133961
445,-2.763385,-1.378479,-0.572963,-0.070566,0.981564,0.177597,-0.21816300000000002,0.39398,0.071434,0.134378,0.015338999999999998,-0.184357
446,-2.753933,-1.375742,-0.5729989999999999,-0.07325599999999999,0.981037,0.17940899999999999,-0.06840700000000001,0.523143,-0.12423800000000002,0.068084,0.08037899999999999,-0.21075
447,-2.721045,-1.373564,-0.553883,-0.079988,0.980613,0.17885299999999998,-0.020495,0.843095,-0.257841,-0.050519999999999995,0.1401,-0.146993
448,-2.66535,-1.371217,-0.519482,-0.090875,0.98015,0.17616800000000002,0.086354,1.202329,-0.40924299999999997,0.094705,0.051892999999999995,-0.077428
449,-2.6155,-1.370085,-0.488034,-0.100098,0.979925,0.172381,0.08086900000000001,0.675222,-0.18962,0.113739,0.05758099999999999,-0.138292
450,-2.599708,-1.369913,-0.478046,-0.102895,0.979891,0.170924,0.044021,0.17638399999999999,-0.085621,0.274969,0.10900699999999999,-0.24155700000000002
451,-2.575583,-1.371415,-0.45980200000000004,-0.106199,0.980189,0.167149,0.243905,0.457082,-0.125177,0.040601,0.16627999999999998,-0.180928
452,-2.541713,-1.374531,-0.43595500000000004,-0.110073,0.9808020000000001,0.160935,0.19484400000000002,0.510317,-0.07538099999999999,0.0017809999999999998,0.206576,-0.207184
453,-2.524747,-1.376526,-0.429883,-0.11165499999999999,0.981189,0.157447,0.13783099999999998,0.561025,0.08011599999999999,0.129004,0.351117,0.000542
454,-2.526608,-1.3827399999999999,-0.440446,-0.107841,0.982369,0.152671,0.201795,0.34028800000000003,0.346833,0.193199,0.467337,-0.036765
455,-2.540302,-1.392096,-0.466156,-0.100536,0.984075,0.146546,0.295036,0.839965,0.516691,0.11506199999999998,0.531412,0.006834999999999999
456,-2.536909,-1.407858,-0.48716000000000004,-0.092201,0.9867549999999999,0.133424,0.7630239999999999,1.395873,0.684822,0.103218,0.073746,-0.008684
457,-2.518137,-1.436931,-0.502387,-0.077898,0.9910530000000001,0.108321,1.322453,1.880209,1.08976,0.088197,-0.196284,-0.08322
458,-2.520668,-1.4775340000000001,-0.550754,-0.05414600000000001,0.995654,0.075696,1.575841,2.512164,1.6066719999999999,0.070427,-0.310794,-0.227872
459,-2.676997,-1.5279200000000002,-0.762188,-0.01915,0.999081,0.038209,1.922895,2.824346,2.090464,0.027512,-0.10930999999999999,-0.293245
460,1.411969,-1.545692,-3.011518,0.024585,0.999685,-0.0039380000000000005,2.2049540000000003,2.609619,2.263625,-0.269092,0.284632,-0.125838
461,0.966158,-1.4863790000000001,2.782741,0.06932,0.996439,-0.047898,2.319366,1.7981080000000003,2.107367,-0.549071,0.208181,0.130616
462,0.885025,-1.430532,2.673723,0.108173,0.9901790000000001,-0.088513,2.021867,1.1723430000000001,1.6788020000000001,-0.463779,0.078989,0.24821100000000001
463,0.853342,-1.38636,2.614947,0.138164,0.9830399999999999,-0.120558,1.678675,1.510916,1.224113,-0.29943400000000003,0.007056999999999999,0.20864699999999997
464,0.8479110000000001,-1.3501290000000001,2.569657,0.164123,0.9757520000000001,-0.144787,1.459871,2.198688,0.9802850000000001,-0.19401500000000002,-0.092298,0.14497100000000002
465,0.8695709999999999,-1.315757,2.542251,0.192745,0.9676540000000001,-0.162751,1.347834,2.484485,1.269687,-0.05711,-0.164324,0.063843
466,0.9127790000000001,-1.2702229999999999,2.5428479999999998,0.23424,0.955167,-0.181052,1.483059,1.8085689999999999,2.0833459999999997,-0.01105,-0.11579600000000001,0.007773
467,0.9422440000000001,-1.215071,2.5471939999999997,0.2817,0.9373940000000001,-0.204767,1.648568,1.025535,2.2201020000000002,-0.068214,-0.114106,0.047983
468,0.951714,-1.164978,2.5360400000000003,0.321498,0.9187799999999999,-0.22907600000000003,1.580686,1.076837,1.704679,-0.079097,-0.200396,0.083415
469,0.960899,-1.126596,2.5189369999999998,0.35225,0.902955,-0.246141,1.274953,1.343237,1.151,-0.034089,-0.23896799999999999,0.06350800000000001
470,0.973506,-1.102142,2.500939,0.37347600000000003,0.892177,-0.25402600000000003,0.862031,1.4376799999999998,0.535903,0.032865,-0.24634899999999998,-0.006426
471,0.9809389999999999,-1.0931819999999999,2.4784900000000003,0.381981,0.888094,-0.255679,0.604382,1.317883,-0.183588,0.029747000000000003,-0.24707199999999999,0.004657
472,0.9735360000000001,-1.096581,2.443623,0.37758,0.889651,-0.256801,0.549531,1.078737,-0.803234,0.012908000000000001,-0.261706,0.017619
473,0.950852,-1.109322,2.398926,0.36240300000000003,0.8953969999999999,-0.25869200000000003,0.388861,0.716816,-1.2642959999999999,-0.071616,-0.379787,0.090067
474,0.9181600000000001,-1.1307459999999998,2.3515919999999997,0.338432,0.9047299999999999,-0.25868800000000003,0.049412,0.37406999999999996,-1.570671,-0.035774,-0.45285600000000004,0.12976600000000002
475,0.888595,-1.159645,2.314295,0.310207,0.9166610000000001,-0.25198400000000004,-0.527633,0.132279,-1.609643,0.086857,-0.461095,0.148636
476,0.880741,-1.1963270000000001,2.305303,0.282085,0.930702,-0.232841,-1.33771,-0.026347000000000002,-1.465547,0.27036,-0.414268,0.134956
477,0.912226,-1.23653,2.336203,0.259455,0.944651,-0.200771,-1.7873569999999999,0.32915500000000003,-1.001262,0.542363,-0.179011,0.0009109999999999999
478,1.0101149999999999,-1.260797,2.4258189999999997,0.25834,0.952334,-0.162212,-1.924059,0.768135,0.425433,0.995734,0.242063,-0.183583
479,1.174244,-1.252416,2.579262,0.288725,0.949744,-0.120899,-1.79688,0.939364,1.9814330000000002,1.183077,0.606775,-0.398968
480,1.292734,-1.226602,2.695104,0.324465,0.941348,-0.09262100000000001,-1.1393659999999999,-0.053401,1.394435,0.680906,0.74629,-0.474274
481,1.342196,-1.227148,2.76305,0.32814699999999997,0.9415319999999999,-0.076349,-1.128581,-1.084957,-0.384894,0.121499,0.572308,-0.288046
482,1.351769,-1.260522,2.811214,0.298012,0.95225,-0.06633700000000001,-1.176828,-2.1781610000000002,-2.147465,-0.193458,0.7245689999999999,-0.135872
483,1.347618,-1.330754,2.852994,0.23183,0.9713280000000001,-0.052615999999999996,-1.382571,-1.973397,-3.889297,-0.38968200000000003,0.830765,0.343586
484,1.332597,-1.415608,2.85913,0.150175,0.9879819999999999,-0.036463999999999996,-0.717911,-0.462426,-4.035074,-0.518552,0.311578,0.576518
485,1.148488,-1.484516,2.6655,0.078556,0.9962799999999999,-0.035299000000000004,0.400062,0.896641,-3.350685,-0.62946,-0.260257,0.36035700000000004
486,0.441637,-1.5164229999999999,1.927213,0.023194,0.9985219999999999,-0.049059,0.865291,1.724789,-2.530239,-0.584947,-0.661913,0.154254
487,-0.247975,-1.504157,1.209873,-0.016328,0.9977799999999999,-0.06448999999999999,0.631791,0.853289,-1.7701790000000002,-0.46816899999999995,-0.7198260000000001,0.031501
488,-0.544309,-1.493119,0.9083610000000001,-0.040155,0.996985,-0.066339,-0.271106,0.031451,-0.861035,-0.404654,-0.5784050000000001,0.168511
489,-0.759213,-1.494386,0.686628,-0.052508000000000006,0.997082,-0.055332000000000006,-0.614643,0.5407569999999999,-0.589554,-0.286649,-0.080685,0.22903800000000002
490,-0.954673,-1.49894,0.477386,-0.058542,0.9974190000000001,-0.041451999999999996,-0.8631139999999999,0.772068,-0.145069,-0.06455,0.208544,0.389841
491,-1.196866,-1.5116100000000001,0.208931,-0.05499299999999999,0.9982489999999999,-0.021578999999999997,-1.150757,1.5839370000000002,0.337922,0.060226999999999996,0.16836199999999998,0.396381
492,-1.595168,-1.5334889999999999,-0.231871,-0.037160000000000006,0.9993040000000001,0.000906,-1.200588,2.434253,1.122696,0.311788,0.128168,0.073633
493,-2.354963,-1.5451979999999998,-1.041361,-0.017991,0.9996719999999999,0.017947,-0.7261340000000001,2.234871,0.755592,-0.057402,0.08849299999999999,-0.14049
494,-2.730152,-1.5426540000000002,-1.447339,-0.011186,0.999604,0.025637,-0.254734,1.2200469999999999,0.251712,-0.138457,-0.017121,-0.11331400000000001
495,-2.805694,-1.5418690000000002,-1.550826,-0.00948,0.999582,0.027154,-0.0009199999999999999,1.652695,-0.004511,-0.002421,-0.114648,0.158408
496,-2.558261,-1.541651,-1.343509,-0.015962,0.999575,0.024187,0.163098,2.150109,-0.394972,-0.12118399999999999,-0.190753,0.22595
497,-2.277557,-1.53808,-1.105266,-0.024763,0.9994649999999999,0.021146,0.067352,2.010742,-0.358074,-0.165697,-0.176268,0.194873
498,-2.174876,-1.530676,-1.0354290000000002,-0.032911,0.999195,0.022713,-0.31058600000000003,1.409392,-0.429378,0.012129000000000001,0.050518,0.000999
499,-2.2441459999999998,-1.51381,-1.126616,-0.044455,0.9983770000000001,0.035463,-0.8539950000000001,0.961199,-0.562923,0.179327,0.089941,-0.084962
500,-2.3382810000000003,-1.4962870000000001,-1.240054,-0.053525,0.997225,0.051641,-0.784665,0.963173,-0.317818,0.27267199999999997,-0.018175999999999998,-0.093221
501,-2.380141,-1.483711,-1.299726,-0.05996900000000001,0.9962110000000001,0.062913,-0.530466,0.8279,-0.276345,0.350161,-0.074107,-0.06289700000000001
502,-2.388257,-1.473394,-1.324748,-0.06649,0.99526,0.070896,-0.416029,0.92006,-0.24575300000000003,0.37840999999999997,-0.075384,-0.080341
503,-2.391623,-1.466601,-1.3523530000000001,-0.07086,0.994577,0.076068,-0.306246,1.319474,-0.05856,0.33802600000000005,-0.054680999999999993,-0.07828
504,-2.397893,-1.462135,-1.383677,-0.073388,0.994102,0.079779,-0.273921,1.169092,-0.042118,0.12095,0.003228,-0.019719999999999998
505,-2.410699,-1.4569459999999999,-1.416199,-0.075803,0.993526,0.084552,-0.330999,0.832586,-0.022857,0.13284,-0.071911,-0.050891000000000006
506,-2.432709,-1.4525709999999998,-1.454242,-0.076754,0.9930200000000001,0.089499,-0.281072,0.8629879999999999,0.056500999999999996,0.175387,-0.073098,-0.0034700000000000004
507,-2.449996,-1.450814,-1.4934120000000002,-0.076308,0.9928110000000001,0.09215599999999999,-0.179814,1.174376,0.152949,0.12772999999999998,0.022402000000000002,-0.030739999999999996
508,-2.4648380000000003,-1.45082,-1.5318690000000001,-0.074927,0.992812,0.09327300000000001,-0.130136,1.11331,0.196103,0.036459,0.072344,-0.043894999999999997
509,-2.48545,-1.451914,-1.571739,-0.072326,0.992942,0.093937,-0.084484,0.8584200000000001,0.22879499999999997,-0.1353,0.22756300000000002,0.029431
510,-2.5049200000000003,-1.454373,-1.607092,-0.069031,0.99323,0.093363,0.017504,0.765372,0.232832,-0.255569,0.42022200000000004,0.072821
511,-2.518924,-1.46242,-1.638818,-0.063052,0.994133,0.087822,0.410855,0.9992530000000001,0.543996,-0.151121,0.582481,-0.049935
512,-2.525386,-1.484953,-1.675341,-0.049514999999999997,0.996318,0.06991699999999999,1.041499,1.855298,0.905158,-0.012405,0.395665,0.0009289999999999999
513,-2.4789689999999998,-1.517863,-1.676723,-0.032489,0.998599,0.041636,1.46704,2.66609,1.0395510000000001,0.090061,-0.009692000000000001,0.035681
514,-2.132332,-1.558442,-1.388688,-0.01008,0.9999239999999999,0.006340999999999999,1.848355,3.01953,1.299203,0.073801,-0.17662,-0.074685
515,0.6020399999999999,-1.534734,1.278859,0.020342,0.99935,-0.029604000000000002,1.6378190000000001,3.683911,1.5692780000000002,-0.084719,-0.066153,-0.20443499999999998
516,0.787833,-1.4896479999999999,1.394169,0.057416999999999996,0.9967090000000001,-0.057138,1.502102,3.306685,1.7162279999999999,-0.41934,0.26295,-0.369925
517,0.8302290000000001,-1.4505940000000002,1.368747,0.088478,0.992784,-0.08088,1.4651379999999998,3.4235330000000004,1.033226,-0.749977,0.302641,-0.098853
518,0.788569,-1.416788,1.2636610000000001,0.108794,0.9881639999999999,-0.108106,1.795338,2.9508229999999998,0.6793520000000001,-0.747374,-0.034566,0.198224
519,0.780036,-1.3842139999999998,1.196913,0.130447,0.9826440000000001,-0.131854,1.326949,2.811424,0.780945,-0.41552700000000004,-0.174249,0.400363
520,0.802149,-1.358527,1.1699190000000002,0.15143199999999998,0.977555,-0.14644200000000002,1.0180799999999999,2.1003,0.662194,-0.059315,-0.084504,0.34769
521,0.812923,-1.331921,1.146656,0.171837,0.9716049999999999,-0.162628,1.233731,1.478364,0.961463,0.143593,0.046538,0.200943
522,0.832139,-1.2883799999999999,1.143302,0.20603600000000002,0.960385,-0.187622,1.667505,0.9253879999999999,1.9404880000000002,0.11616900000000001,0.24466300000000002,0.026657
523,0.8452379999999999,-1.233775,1.140844,0.247381,0.943744,-0.219414,1.904902,0.719327,1.850544,-0.078878,0.057691,0.028007999999999998
524,0.8412069999999999,-1.1891129999999999,1.12205,0.277659,0.928039,-0.248277,1.578682,0.646192,1.242677,-0.041117,-0.280792,-0.019972999999999998
525,0.8386620000000001,-1.1588969999999998,1.1057700000000001,0.297754,0.9163620000000001,-0.267611,1.036892,0.631049,0.704801,-0.061212,-0.269115,-0.000638
526,0.839403,-1.143973,1.090509,0.30809699999999995,0.910285,-0.276496,0.562131,0.804257,0.159674,-0.057044000000000004,-0.283576,-0.06133400000000001
527,0.8447959999999999,-1.13869,1.0777729999999999,0.313176,0.9080860000000001,-0.278019,0.309349,0.83798,-0.062188,-0.086385,-0.18201099999999998,-0.082149
528,0.8390719999999999,-1.138744,1.056322,0.31154299999999996,0.908108,-0.27977399999999997,0.36333899999999997,0.5816060000000001,-0.46420200000000006,-0.042347,-0.197705,-0.05832999999999999
529,0.8147220000000001,-1.144663,1.0198639999999999,0.300723,0.9105709999999999,-0.283584,0.313064,0.377842,-0.878763,-0.028674,-0.23857399999999998,-0.054612
530,0.787625,-1.158355,0.9826809999999999,0.284066,0.9161450000000001,-0.282804,-0.134433,0.332183,-1.060223,0.157523,-0.34517600000000004,-0.002612
531,0.780229,-1.181039,0.967176,0.267276,0.925002,-0.270054,-0.8762469999999999,0.359931,-0.9628909999999999,0.26157800000000003,-0.31608400000000003,0.029331
532,0.809937,-1.209878,0.987883,0.255747,0.935573,-0.24349400000000002,-1.463324,0.655612,-0.604175,0.304815,-0.13100799999999999,0.082682
533,0.879964,-1.23374,1.043947,0.254875,0.943732,-0.210715,-1.454944,0.935657,-0.049,0.260292,0.146524,0.176001
534,0.959283,-1.243965,1.1112360000000001,0.262855,0.9470639999999999,-0.184307,-1.012745,0.599734,0.456584,0.383721,0.270282,-0.106297
535,1.016618,-1.2383629999999999,1.170388,0.277491,0.9452510000000001,-0.17173,-0.375682,-0.385259,0.8724930000000001,0.194601,0.9024969999999999,-0.300682
536,1.030781,-1.232063,1.211643,0.284997,0.943176,-0.170842,-0.525349,-1.4256360000000001,0.370716,-0.20133299999999998,1.161011,0.021855
537,1.035527,-1.236845,1.2295969999999998,0.281922,0.9447540000000001,-0.167185,-0.205866,-0.012868000000000001,-0.22493000000000002,-0.538193,0.664392,-0.030875
538,1.032853,-1.245963,1.213494,0.274064,0.9477040000000001,-0.163517,0.064351,0.955559,-0.747712,-0.7530680000000001,-0.183345,0.16739300000000001
539,1.019213,-1.262728,1.1681290000000002,0.258239,0.9529209999999999,-0.158891,0.243088,1.7580790000000002,-1.2602389999999999,-0.717132,-0.449823,0.437226
540,0.991439,-1.285878,1.094775,0.235199,0.959685,-0.153879,0.255173,2.302207,-1.7458240000000003,-0.5463859999999999,-0.422362,0.511362
541,0.952996,-1.3190600000000001,1.00473,0.20303,0.9684809999999999,-0.144272,-0.082975,2.372179,-2.167019,-0.33571999999999996,-0.33405100000000004,0.37178
542,0.893798,-1.35538,0.910574,0.166597,0.9768870000000001,-0.13389600000000002,-0.28770300000000004,0.93079,-1.972186,-0.081606,0.034755,0.188873
543,0.8416309999999999,-1.383294,0.868275,0.138991,0.9824729999999999,-0.124177,-0.789312,-1.280409,-0.818108,0.245378,0.37253800000000004,0.07989600000000001
544,0.915858,-1.3941370000000002,0.96075,0.13935899999999998,0.9844360000000001,-0.107031,-1.029032,-0.125863,0.506538,0.381957,0.201461,0.191641
545,1.055373,-1.3964809999999999,1.073464,0.15087899999999999,0.9848459999999999,-0.08547300000000001,-0.7459180000000001,2.146141,0.31866500000000003,0.24903899999999998,-0.034147000000000004,0.019906
546,1.167525,-1.397482,1.14056,0.15859,0.9850190000000001,-0.067663,-0.462562,2.165879,0.19884200000000002,-0.05400599999999999,-0.011218,-0.09321
547,1.252356,-1.398579,1.195858,0.162725,0.9852069999999999,-0.053644000000000004,-0.48466800000000004,1.113082,0.028052999999999998,-0.22232600000000002,0.058554999999999996,0.054407000000000004
548,1.319181,-1.404413,1.251315,0.160374,0.98619,-0.041226,-0.5466989999999999,0.342031,-0.236312,-0.298771,-0.0051719999999999995,0.222058
549,1.376578,-1.413949,1.310446,0.15323599999999998,0.987725,-0.030141,-0.598692,-0.274821,-0.443119,-0.17824500000000001,0.002449,0.27007
550,1.447517,-1.426482,1.394075,0.14268599999999998,0.989605,-0.01768,-0.800901,-0.72226,-0.5283479999999999,0.049819,-0.015896,0.134272
551,1.553226,-1.436244,1.507247,0.13408399999999998,0.9909620000000001,-0.002356,-0.769841,0.185632,-0.358379,0.20045,-0.031809,-0.071207
552,1.6686330000000003,-1.441353,1.606603,0.12842,0.991634,0.012604,-0.585354,0.980342,-0.25555900000000004,0.080946,-0.010707,-0.158402
553,1.7694990000000002,-1.446105,1.6955650000000002,0.121873,0.992236,0.02454,-0.489383,0.37859299999999996,-0.37162199999999995,-0.102006,0.025693,-0.05310499999999999
554,1.869104,-1.451663,1.7934419999999998,0.113554,0.9929120000000001,0.034916,-0.54183,0.043457,-0.43244799999999994,-0.013288999999999999,-0.065361,0.043697
555,1.996718,-1.456681,1.9191650000000002,0.103647,0.9934959999999999,0.047024,-0.6087859999999999,0.239035,-0.532511,-0.01005,-0.103207,0.078876
556,2.138945,-1.4606379999999999,2.054766,0.09261799999999999,0.9939389999999999,0.059124,-0.538668,0.416666,-0.5258390000000001,-0.021024,-0.09374600000000001,-0.006405
557,2.163561,-1.4923629999999999,2.072685,0.06492,0.996926,0.043727999999999996,-0.42042299999999994,0.37895999999999996,-0.522828,-0.012933000000000002,-0.055474,-0.00465
558,2.269996,-1.498181,2.168625,0.055463,0.997365,0.04664,-0.361221,0.733487,-0.5218010000000001,-0.033704000000000005,-0.077412,0.052816999999999996
559,2.453353,-1.466425,2.333488,0.066136,0.9945579999999999,0.08042,-0.323277,0.9938389999999999,-0.394751,-0.019856,-0.032034,0.03431
560,2.545504,-1.4617209999999998,2.408334,0.061082000000000004,0.994057,0.090036,-0.473808,0.8182560000000001,-0.311188,0.015272999999999998,0.232933,-0.054178
561,2.6723790000000003,-1.454609,2.520629,0.052394,0.993258,0.10334700000000001,-0.7062729999999999,0.767178,-0.389658,0.02425,0.332426,-0.127181
562,2.802587,-1.445006,2.6322740000000002,0.041704000000000005,0.992099,0.118269,-0.67323,1.17,-0.45510500000000004,0.075575,0.5812039999999999,-0.001997
563,2.9032310000000003,-1.437406,2.7092959999999997,0.031389999999999994,0.991117,0.129186,-0.353557,1.046632,-0.25082,0.179014,0.5377069999999999,-0.045263
564,2.9106240000000003,-1.4377739999999999,2.704559,0.03035,0.991166,0.129058,0.281796,0.386581,0.158251,-0.034241,0.516891,-0.14114200000000002
565,2.883736,-1.447817,2.669175,0.031268000000000004,0.992448,0.11855999999999998,0.5747270000000001,0.602438,0.0029920000000000003,-0.24571500000000002,0.861419,-0.03247
566,2.877318,-1.455185,2.641378,0.030117,0.993324,0.111294,0.26461,1.299626,0.147347,-0.088588,0.400596,0.12215
567,2.828236,-1.459812,2.563886,0.034122,0.993848,0.105306,0.60849,1.33503,0.585537,-0.069385,-0.008618,0.079723
568,2.527645,-1.475269,2.237482,0.054909000000000006,0.995441,0.07790599999999999,1.9562810000000002,1.0924459999999998,1.472273,-0.085503,-0.30751300000000004,0.051153
569,1.9515080000000002,-1.477467,1.631941,0.08645499999999999,0.995648,0.034602999999999995,2.1965380000000003,1.5882370000000001,1.6869599999999998,-0.023559,0.229694,-0.12258499999999999
570,1.624863,-1.452528,1.272975,0.11776500000000001,0.993014,0.006372999999999999,1.150447,1.359029,1.572056,-0.067518,0.221982,-0.109569
571,1.55023,-1.4158979999999999,1.1733,0.15420599999999998,0.988027,-0.003172,0.42842399999999997,1.239019,2.1055509999999997,-0.108125,0.113322,-0.044466000000000006
572,1.560382,-1.360745,1.153642,0.20846900000000002,0.9780200000000001,-0.002171,0.12881199999999998,1.609779,3.151977,0.004711,0.26770700000000003,-0.12543800000000002
573,1.572301,-1.291097,1.1320709999999998,0.276044,0.961139,0.00041500000000000006,0.471908,1.593448,3.474861,-0.13714300000000001,0.500013,-0.222583
574,1.535815,-1.234437,1.0735709999999998,0.329832,0.9439629999999999,-0.011543000000000001,1.215791,0.307394,2.365413,-0.304487,0.681312,-0.270287
575,1.401651,-1.19659,0.9742120000000001,0.36030100000000004,0.9307979999999999,-0.061530999999999995,2.335904,-3.588117,1.345258,-0.5316420000000001,-0.087399,0.353279
576,1.220956,-1.163065,0.855001,0.37249699999999997,0.9180229999999999,-0.135905,2.691985,-2.576981,0.989663,-0.447417,-0.309823,0.691172
577,1.125838,-1.1126,0.758095,0.399251,0.8968520000000001,-0.190384,2.995507,0.645841,1.966145,-0.44002299999999994,-0.169938,0.146286
578,1.0807120000000001,-1.038905,0.688854,0.44746,0.86185,-0.23871799999999999,3.118777,0.557241,2.703125,-0.44686499999999996,0.042325,-0.17511600000000002
579,1.040816,-0.971565,0.637402,0.48663,0.8257690000000001,-0.285111,2.619727,0.031773,1.876713,-0.332882,-0.17708800000000002,-0.17181300000000002
580,1.007363,-0.928358,0.5968859999999999,0.506532,0.800637,-0.319997,1.861,-0.010740999999999999,0.913273,-0.542832,-0.328942,-0.000193
581,0.988057,-0.897015,0.5645560000000001,0.520964,0.781468,-0.34336300000000003,1.635951,0.60197,0.7976840000000001,-0.5922069999999999,-0.227894,0.161386
582,0.990434,-0.8631489999999999,0.538982,0.543607,0.759893,-0.35643600000000003,1.582574,1.363709,1.093301,-0.395063,-0.10935,0.147329
583,1.010349,-0.826477,0.5237729999999999,0.573825,0.73555,-0.360117,1.2784799999999998,1.602402,1.338698,-0.225055,-0.078247,0.155161
584,1.034634,-0.793482,0.518388,0.602945,0.712799,-0.35828499999999996,0.860133,1.256903,1.256102,0.0026920000000000004,-0.104493,0.17235599999999998
585,1.050784,-0.7694449999999999,0.516518,0.623343,0.6957369999999999,-0.35691300000000004,0.564773,0.590817,0.7859430000000001,0.103051,-0.087949,0.155283
586,1.046833,-0.761795,0.507444,0.626518,0.690221,-0.362025,0.409296,-0.150136,-0.263187,0.320168,0.040612999999999996,0.136851
587,1.028133,-0.777239,0.49082700000000007,0.610437,0.701314,-0.368128,-0.12350499999999999,-0.316738,-1.2932569999999999,0.23920300000000003,-0.10991400000000001,0.22396300000000002
588,1.0345209999999998,-0.8081229999999999,0.490537,0.593869,0.7229909999999999,-0.352982,-1.246419,0.750315,-1.2971270000000001,0.067188,-0.318801,0.299027
589,1.076057,-0.8463860000000001,0.5154489999999999,0.583228,0.74889,-0.314646,-1.609793,1.367129,-1.2534530000000002,-0.010992,-0.5087619999999999,-0.22350100000000003
590,1.10825,-0.889093,0.511373,0.563898,0.776501,-0.281173,-0.308254,2.1138220000000003,-2.6297349999999997,-0.407922,-0.027583999999999997,-0.396744
591,1.098443,-0.960766,0.466437,0.510155,0.819631,-0.260653,-0.765636,0.570869,-4.253582,-0.385765,1.064921,-0.286115
592,1.092098,-1.037643,0.44818800000000003,0.451115,0.861208,-0.234109,-1.7269299999999999,0.42205200000000004,-2.969693,-0.396305,1.37483,0.21295999999999998
593,1.130863,-1.084619,0.477867,0.422749,0.884126,-0.198987,-1.415136,0.7306090000000001,-1.2843930000000001,-0.20891300000000002,0.476867,0.28404
594,1.153601,-1.109293,0.487658,0.407092,0.8953840000000001,-0.180428,-0.34223400000000004,0.7308899999999999,-0.9532280000000001,-0.016909,-0.143019,0.221795
595,1.150149,-1.1283040000000002,0.46618000000000004,0.390855,0.9036870000000001,-0.174849,0.214981,0.808688,-1.178035,-0.097673,-0.370286,0.069914
596,1.125467,-1.150383,0.424019,0.368322,0.9129200000000001,-0.175803,0.353875,0.565413,-1.466241,-0.226018,-0.388018,-0.026712
597,1.09205,-1.1792559999999999,0.376808,0.338699,0.924322,-0.175791,0.029117,0.528809,-1.8872060000000002,-0.28129499999999996,-0.109732,0.008219
598,1.078232,-1.2199389999999999,0.34536999999999995,0.302833,0.9390780000000001,-0.162526,-0.754424,0.938233,-2.096165,-0.29018299999999997,0.175485,0.085958
599,1.113816,-1.264364,0.357649,0.270692,0.9534159999999999,-0.133097,-1.413792,1.33837,-1.690019,-0.24067800000000003,0.170486,0.289668
600,1.203629,-1.300145,0.42069300000000004,0.249522,0.9635969999999999,-0.095968,-1.53118,1.473716,-1.070375,-0.150172,0.127117,0.256826
601,1.302363,-1.326659,0.49687,0.233042,0.9703459999999999,-0.064103,-1.1805219999999998,1.06498,-0.9242600000000001,0.023398,0.090903,0.159776
602,1.36952,-1.3469209999999998,0.5511159999999999,0.21750500000000003,0.975044,-0.04438,-0.6321180000000001,0.515946,-0.7626970000000001,0.20285999999999998,0.063286,0.032645
603,1.382986,-1.361098,0.562195,0.204481,0.978094,-0.038862,-0.041112,-0.106511,-0.6584270000000001,0.287387,-0.032171,-0.045047000000000004
604,1.342739,-1.375701,0.531647,0.188815,0.981029,-0.043823,0.20339200000000002,-0.744639,-0.863136,0.123151,-0.13439500000000001,-0.021439
605,1.2901049999999998,-1.3935600000000001,0.49745600000000006,0.169382,0.9843350000000001,-0.048833,-0.040562,-1.016037,-0.9798610000000001,-0.079965,-0.20490100000000003,0.031865
606,1.266481,-1.415608,0.49194099999999996,0.14743399999999998,0.987983,-0.046305,-0.399359,-0.763838,-1.1333090000000001,-0.184543,-0.285407,0.088099
607,1.280894,-1.441201,0.514253,0.123802,0.991614,-0.036931,-0.572597,-0.16976,-1.163054,-0.196053,-0.348166,0.11006600000000001
608,1.32154,-1.462517,0.5552060000000001,0.104679,0.994143,-0.026646,-0.43450900000000003,0.05309,-0.802385,-0.207035,-0.348041,0.046193
609,1.334195,-1.47316,0.564891,0.094709,0.995237,-0.022836000000000002,-0.006776000000000001,0.240492,-0.35312,-0.154981,-0.26362399999999997,-0.0050420000000000005
610,1.293397,-1.476351,0.517416,0.090645,0.9955430000000001,-0.025810000000000003,0.209155,0.309191,-0.13805599999999998,-0.01252,-0.114165,-0.176537
611,1.312997,-1.479607,0.532454,0.08799900000000001,0.9958450000000001,-0.023202,-0.39266100000000004,0.252845,-0.177438,0.086882,0.119084,-0.236777
612,1.495411,-1.489373,0.708655,0.081038,0.9966870000000001,-0.006121,-1.020638,0.323196,-0.442561,0.087312,0.199099,-0.094206
613,1.781675,-1.495203,0.9932979999999999,0.07378,0.997144,0.015793,-1.073,0.011585,-0.259862,0.19259300000000001,0.163348,-0.050095
614,2.021182,-1.4907620000000001,1.2355,0.07191499999999999,0.996799,0.034773,-0.878481,-0.155141,-0.026485,0.273452,0.1927,-0.058684
615,2.169284,-1.482805,1.390724,0.07255299999999999,0.996131,0.049475,-0.7169479999999999,-0.48613100000000004,0.022069,0.36622899999999997,0.328133,-0.169363
616,2.2838220000000002,-1.4744469999999998,1.522938,0.072723,0.9953620000000001,0.062891,-0.762664,-1.049005,-0.10251099999999999,0.450425,0.45343,-0.241709
617,2.411844,-1.468541,1.6723400000000002,0.068018,0.994776,0.076044,-0.6723359999999999,-0.969219,-0.41924399999999995,0.033147,0.465764,-0.018411
618,2.50224,-1.466926,1.779743,0.061836,0.99461,0.083164,-0.22802199999999997,-0.741152,-0.29679099999999997,0.005501,0.475757,0.003002
619,2.491643,-1.472141,1.7822490000000002,0.059572,0.995138,0.078372,0.495051,-0.6272,-0.116698,-0.24014499999999997,0.23031100000000002,-0.065386
620,2.341685,-1.485909,1.644152,0.060772,0.9963989999999999,0.059034,1.153332,-0.6049640000000001,0.145313,-0.22048600000000002,0.177704,-0.139417
621,1.9870869999999998,-1.492997,1.298055,0.071026,0.996975,0.031403,1.42625,-0.339675,0.698082,-0.252483,0.246067,-0.154038
622,1.618249,-1.483274,0.92571,0.087259,0.996172,0.004144,1.305342,0.42402799999999996,0.82765,-0.335794,0.27345,-0.064858
623,1.407325,-1.464183,0.6983020000000001,0.104949,0.9943219999999999,-0.017311,1.072027,0.885503,0.977117,-0.254042,0.112825,0.120399
624,1.318315,-1.431122,0.59132,0.134774,0.9902610000000001,-0.03477,0.917108,0.78018,1.8745439999999998,-0.022302000000000002,-0.016842,0.18831900000000001
625,1.325695,-1.376375,0.591497,0.18740199999999999,0.98116,-0.046875,0.47609300000000004,0.066058,3.151041,0.12396900000000001,0.013958000000000002,0.240829
626,1.37507,-1.297935,0.641221,0.264326,0.9630040000000001,-0.052405999999999994,0.347932,0.34586300000000003,4.416698,0.26367399999999996,0.316293,0.15174100000000001
627,1.3856,-1.203658,0.628931,0.35279699999999997,0.933358,-0.066094,1.577783,1.108019,4.295057,-0.002577,0.9744790000000001,-0.36089299999999996
628,1.307604,-1.140427,0.55906,0.40283,0.9088120000000001,-0.10853900000000001,2.135535,-1.997232,1.94323,-0.19836199999999998,0.43622,-0.272549
629,1.183314,-1.1031790000000001,0.49040200000000006,0.41733400000000004,0.892645,-0.17032,1.775053,-3.111934,1.0309469999999998,-0.38378,-0.127829,0.378374
630,1.118732,-1.0750879999999998,0.450316,0.42786599999999997,0.879632,-0.207773,1.40635,-0.492903,0.9384899999999999,-0.593195,-0.431909,0.292414
631,1.0874059999999999,-1.036019,0.41039799999999993,0.45125,0.860382,-0.236873,1.9558240000000002,0.34648,1.540525,-0.713488,-0.3358,0.030285000000000003
632,1.0653110000000001,-0.9845280000000001,0.375871,0.48406099999999996,0.8330110000000001,-0.267902,1.969097,0.366169,1.9326290000000002,-0.717337,-0.254794,0.044893999999999996
633,1.049666,-0.935082,0.35437399999999997,0.514931,0.8046479999999999,-0.295603,1.639878,-0.168936,1.769714,-0.492821,-0.400366,0.063837
634,1.019657,-0.889598,0.335776,0.536475,0.7768189999999999,-0.329757,1.683766,-0.989848,1.627931,-0.413871,-0.373605,0.21797199999999997
635,0.9975129999999999,-0.8432940000000001,0.318527,0.5586840000000001,0.746838,-0.360692,1.720173,0.046307999999999995,1.6856099999999998,-0.41518999999999995,-0.31504499999999996,0.256139
636,0.998697,-0.795144,0.303225,0.588685,0.713965,-0.37907399999999997,1.736,0.812874,1.77981,-0.40263499999999997,-0.250784,0.143433
637,1.007313,-0.748592,0.29327800000000004,0.6193770000000001,0.680608,-0.39133,1.393201,0.6896359999999999,1.7273669999999999,-0.349891,-0.129598,0.142337
638,1.013041,-0.711417,0.290748,0.642641,0.652907,-0.400897,0.9004479999999999,0.140928,1.378524,-0.276598,-0.08543300000000001,0.234927
639,1.00898,-0.684055,0.28839699999999996,0.655885,0.631941,-0.412868,0.805756,-0.21925100000000003,0.9574450000000001,-0.219834,-0.072767,0.338054
640,1.001702,-0.663546,0.278909,0.663642,0.6159140000000001,-0.424526,0.858369,0.08822999999999999,0.47565,-0.18698800000000002,-0.09269,0.287518
641,1.001236,-0.653995,0.267939,0.6683680000000001,0.608362,-0.42798800000000004,0.42881899999999995,0.393203,-0.026601,-0.070315,-0.13453099999999998,0.106394
642,1.005929,-0.659433,0.261061,0.667564,0.6126689999999999,-0.42307,-0.114443,0.502793,-0.58708,0.061012000000000004,-0.156889,0.055852
643,1.023069,-0.678937,0.259299,0.664388,0.627966,-0.40526599999999996,-0.6737270000000001,1.278514,-0.950903,0.099802,-0.113791,0.16143
644,1.070082,-0.704861,0.269069,0.668191,0.647928,-0.365654,-1.167182,2.425074,-0.870361,0.174262,-0.236002,-0.314735
645,1.130494,-0.7291489999999999,0.281829,0.67461,0.666235,-0.317843,-0.808906,2.447947,-1.039872,0.039791,-0.008261,-0.68353
646,1.16864,-0.770544,0.286866,0.660281,0.696526,-0.280843,-1.112931,1.6818220000000002,-2.059029,-0.094165,0.602821,-0.797054
647,1.231255,-0.808129,0.322834,0.651404,0.722996,-0.23009000000000002,-2.306101,1.5768799999999998,-0.890048,0.32023,1.013942,0.301577
648,1.276324,-0.8343200000000001,0.365765,0.642763,0.7408399999999999,-0.194944,-1.244329,0.08025700000000001,-0.767482,0.328871,0.9960979999999999,0.266431
649,1.275212,-0.8532420000000001,0.36594899999999997,0.629021,0.753416,-0.19154000000000002,0.158645,0.069985,-1.012975,0.340217,0.217729,0.15825999999999998
650,1.2577129999999999,-0.8753479999999999,0.341765,0.609576,0.767767,-0.197338,0.43618,-0.135733,-1.489336,0.128583,-0.038,-0.401478
651,1.231522,-0.9086120000000001,0.320175,0.5797869999999999,0.788651,-0.204619,-0.1262,-0.6134689999999999,-1.943441,-0.065565,-0.083161,-0.263658
652,1.211589,-0.9509780000000001,0.308736,0.543806,0.813984,-0.204198,-0.509233,-0.39274699999999996,-2.196364,-0.26264699999999996,-0.058276999999999995,0.080068
653,1.201963,-0.999433,0.295511,0.504404,0.8411639999999999,-0.194963,-0.484092,0.35739699999999996,-2.531503,-0.30042399999999997,-0.140481,0.228608
654,1.194559,-1.051502,0.268253,0.46154700000000004,0.8681690000000001,-0.182337,-0.15271600000000002,1.033411,-2.709516,-0.299361,-0.23438,0.211207
655,1.1845,-1.098234,0.22707,0.42161899999999997,0.8904049999999999,-0.171486,0.11426800000000001,1.42635,-2.371665,-0.301822,-0.299157,0.096748
656,1.178274,-1.134738,0.189829,0.390237,0.906424,-0.16155999999999998,-0.006443000000000001,1.259321,-1.790113,-0.125436,0.000254,-0.016723
657,1.189211,-1.16498,0.18185199999999999,0.36636399999999997,0.918781,-0.147004,-0.76272,0.644059,-1.25195,0.077361,0.19714,0.014268000000000001
658,1.2398360000000002,-1.192153,0.234643,0.349587,0.929167,-0.120117,-1.766516,-0.23442600000000002,-0.740816,0.14312,0.223421,0.109757
659,1.318492,-1.2148889999999999,0.333077,0.337395,0.9373309999999999,-0.08698,-2.071134,-0.862711,-0.533836,0.159141,0.030717,0.13109300000000002
660,1.395465,-1.231842,0.435389,0.327389,0.943103,-0.057997,-1.6883,-1.007327,-0.398517,0.06514400000000001,-0.198459,0.066328
661,1.4431100000000001,-1.2418870000000002,0.509714,0.320365,0.9463950000000001,-0.04113,-1.042071,-1.207082,-0.289061,-0.029899000000000002,-0.214446,0.067375
662,1.45945,-1.251591,0.554633,0.311852,0.949485,-0.034868,-0.644839,-1.357751,-0.516829,-0.140572,-0.192588,0.05092
663,1.457076,-1.270267,0.583008,0.294095,0.9551799999999999,-0.033589,-0.501153,-1.5656709999999998,-1.125514,-0.25282,-0.196116,0.012242
664,1.447178,-1.302877,0.6083149999999999,0.262685,0.964324,-0.032639,-0.595846,-1.7563080000000002,-1.85339,-0.337056,-0.212279,0.036683
665,1.440885,-1.349577,0.634592,0.21754600000000002,0.9756309999999999,-0.028422000000000003,-0.557191,-1.393794,-2.498791,-0.38140999999999997,-0.282012,0.06200599999999999
666,1.410796,-1.401568,0.6187560000000001,0.16623800000000002,0.985715,-0.026827999999999998,-0.00035499999999999996,-0.273802,-2.545475,-0.379815,-0.36036399999999996,0.13135
667,1.323849,-1.441634,0.524146,0.124856,0.99167,-0.031475,0.388391,0.5973470000000001,-1.7565959999999998,-0.35987199999999997,-0.356416,0.138439
668,1.236273,-1.459642,0.423646,0.10472999999999999,0.9938290000000001,-0.036403,0.23355599999999999,0.5166109999999999,-0.614577,-0.224679,-0.134713,0.018992
669,1.211584,-1.460046,0.387409,0.103423,0.993873,-0.038836,0.169127,0.751164,0.19118,-0.000671,0.093727,-0.125822
670,1.2610700000000001,-1.4493340000000001,0.41396700000000003,0.115355,0.992633,-0.036916000000000004,-0.100827,1.282577,0.731269,0.223146,0.128156,-0.21848499999999998
671,1.375982,-1.434294,0.511787,0.133466,0.990698,-0.026335,-0.614049,0.531439,0.9390860000000001,0.30256900000000003,0.049463,-0.134355
672,1.493938,-1.418304,0.6334989999999999,0.151417,0.9883959999999999,-0.011661,-0.791076,-0.4807,0.8579620000000001,0.341458,0.030159,-0.09412899999999999
673,1.5735940000000002,-1.4037030000000001,0.733639,0.16628199999999999,0.986072,0.000465,-0.760476,-1.190703,0.697784,0.407738,0.217205,0.01635
674,1.642523,-1.392197,0.828693,0.177162,0.984093,0.012729,-0.927674,-1.170863,0.410307,0.411919,0.426231,0.15659800000000001
675,1.7510580000000002,-1.388566,0.957399,0.178255,0.983442,0.032485,-1.299469,-0.704797,-0.200705,0.2469,0.701784,0.14447100000000002
676,1.8953520000000001,-1.391139,1.110287,0.16933199999999998,0.9839049999999999,0.056972,-1.218312,-0.115531,-0.579044,-0.052404,0.8245819999999999,-0.102413
677,2.004354,-1.398515,1.228602,0.155538,0.985196,0.072004,-0.508474,-0.749818,-0.815759,-0.242193,0.6168239999999999,-0.145262
678,2.006634,-1.414566,1.261836,0.141017,0.987821,0.06567200000000001,0.380648,-1.824675,-0.7889430000000001,-0.177699,0.622073,0.06415
679,1.9344169999999998,-1.427681,1.2187620000000001,0.13326400000000002,0.989776,0.050713,0.621613,-1.087299,-0.250889,-0.187051,0.449204,-0.028725
680,1.806713,-1.428874,1.095212,0.137491,0.9899459999999999,0.033052,1.022169,0.19108499999999998,0.45316000000000006,-0.16047,0.32807800000000004,-0.091951
681,1.636588,-1.4187,0.910734,0.151146,0.988456,0.009959,1.3655620000000002,0.750925,0.811628,-0.101357,0.162683,-0.16808499999999998
682,1.4807780000000001,-1.399665,0.739488,0.169577,0.9853930000000001,-0.015306,1.332912,0.561714,1.003922,-0.058767999999999994,-0.046291000000000006,-0.052748
683,1.387061,-1.3724299999999998,0.635256,0.193724,0.98039,-0.036,1.017795,0.396106,1.3993120000000001,-0.010985,-0.239576,0.043858
684,1.349383,-1.3322040000000002,0.589726,0.230544,0.971672,-0.051896000000000005,0.807859,0.28183600000000003,2.1842029999999997,0.058687,-0.311698,0.082902
685,1.348638,-1.274571,0.585962,0.284721,0.9564450000000001,-0.064315,0.630855,0.113324,3.185175,0.202416,-0.055826,0.049193
686,1.3588280000000001,-1.1963190000000001,0.592955,0.357585,0.9306989999999999,-0.076953,0.837851,0.187329,4.21095,0.167942,0.603664,-0.07836699999999999
687,1.350359,-1.1138780000000001,0.5889850000000001,0.430497,0.897416,-0.096465,0.994783,-0.7032,3.5327309999999996,-0.09439199999999999,0.62448,-0.087617
688,1.295296,-1.0660610000000001,0.56772,0.465329,0.875303,-0.131543,1.075284,-2.4241040000000003,1.45567,-0.386838,0.065661,0.160367
689,1.212631,-1.046666,0.535122,0.468692,0.8657600000000001,-0.17543599999999998,1.0730629999999999,-2.595432,0.348128,-0.6280859999999999,-0.270972,0.35291100000000003
690,1.1457680000000001,-1.0306959999999998,0.49403100000000005,0.468462,0.857657,-0.21203400000000003,1.408116,-0.796791,0.47635,-0.648988,-0.30762399999999995,0.188001
691,1.116419,-0.999303,0.45486400000000005,0.486,0.841094,-0.237394,1.682611,0.562516,1.299056,-0.554725,-0.133391,-0.052476999999999996
692,1.1069120000000001,-0.952894,0.43171499999999996,0.518097,0.815096,-0.259202,1.5234,0.29485300000000003,2.038565,-0.40522800000000003,-0.073793,-0.095718
693,1.0931959999999998,-0.903993,0.419235,0.5492630000000001,0.785803,-0.284279,1.421622,-0.463571,1.8476139999999999,-0.39775900000000003,-0.176733,0.076424
694,1.0657159999999999,-0.86524,0.400633,0.5674819999999999,0.761251,-0.313771,1.4309020000000001,-0.659333,1.2454530000000001,-0.473839,-0.310095,0.234913
695,1.0439180000000001,-0.831189,0.381898,0.5825859999999999,0.738733,-0.338908,1.338185,-0.223065,1.183357,-0.409398,-0.270975,0.21873
696,1.032014,-0.7953020000000001,0.368164,0.600888,0.714075,-0.359197,1.330703,-0.022522,1.388147,-0.330549,-0.26468800000000003,0.203542
697,1.0262440000000002,-0.7547729999999999,0.357132,0.623062,0.685124,-0.377348,1.386184,0.195855,1.60724,-0.228683,-0.149372,0.209242
698,1.029283,-0.714392,0.350878,0.647399,0.655158,-0.389403,1.1238290000000002,0.40682399999999996,1.557067,-0.080154,-0.057761,0.175932
699,1.033968,-0.684191,0.347362,0.66592,0.632047,-0.396307,0.7483890000000001,0.327367,0.9745020000000001,-0.100674,0.016315,0.15498900000000002
700,1.0371139999999999,-0.669697,0.342976,0.674981,0.620748,-0.398829,0.377662,0.237682,0.281956,-0.136498,0.063013,0.110972
701,1.034914,-0.670037,0.338591,0.67392,0.621015,-0.40020500000000003,0.0011,-0.133487,-0.342972,0.031615,-0.035535000000000004,0.070707
702,1.026393,-0.684886,0.33295399999999997,0.662524,0.6325850000000001,-0.401113,-0.332732,-0.195053,-0.9071100000000001,0.023832,-0.10716300000000001,0.148519
703,1.03108,-0.709715,0.333621,0.6507189999999999,0.651617,-0.389809,-0.894917,0.564079,-1.11604,0.141807,-0.23993499999999998,0.25795799999999997
704,1.063518,-0.746096,0.344621,0.641863,0.6787770000000001,-0.356741,-1.43286,1.684337,-1.6115469999999998,0.090773,-0.455099,0.129339
705,1.115251,-0.79651,0.35599400000000003,0.627896,0.71492,-0.307614,-1.3296299999999999,2.3822959999999997,-2.283632,0.005848,-0.5158229999999999,-0.41228000000000004
706,1.14602,-0.851463,0.334857,0.600321,0.7522449999999999,-0.271534,0.17491099999999998,2.434242,-2.991034,0.231054,0.8870979999999999,-0.596707
707,1.172221,-0.8840040000000001,0.33523600000000003,0.5843510000000001,0.773284,-0.246079,-2.219402,-0.159893,-0.073233,0.43426499999999996,3.6779029999999997,0.378983
708,1.212824,-0.911408,0.407117,0.5737899999999999,0.790367,-0.21464899999999998,-1.750623,-1.0110139999999999,-1.019586,0.144243,1.9761279999999999,0.241092
709,1.18202,-0.934824,0.40583,0.5496260000000001,0.804495,-0.22514099999999998,0.163856,-1.377757,-1.008948,-0.238331,-0.802481,0.238889
710,1.1491559999999998,-0.947506,0.380524,0.532579,0.811962,-0.238884,0.449402,-0.270884,-1.0030299999999999,-0.149599,-0.484921,-0.019951
711,1.113212,-0.981534,0.34315500000000004,0.498565,0.8313510000000001,-0.24551599999999998,0.06358,-0.340936,-2.59515,-0.301178,-0.153632,-0.033263
712,1.064346,-1.039081,0.297493,0.443359,0.8619389999999999,-0.245934,-0.44479799999999997,-0.586022,-3.200864,-0.363189,0.15155,0.097466
713,1.0359040000000002,-1.097669,0.279231,0.392016,0.8901469999999999,-0.232273,-1.540985,-0.602487,-2.396651,-0.49809499999999995,0.294881,0.45505100000000004
714,1.067442,-1.149881,0.31767399999999996,0.357906,0.9127149999999999,-0.19708599999999998,-2.080515,0.27924,-1.583292,-0.466762,0.266285,0.367176
715,1.12374,-1.183704,0.351806,0.340384,0.926011,-0.16319,-0.88635,1.643743,-0.992381,-0.410483,0.197357,0.22466799999999998
716,1.153832,-1.205655,0.352769,0.326473,0.9340729999999999,-0.14460699999999999,-0.352381,1.200136,-1.075677,-0.11799200000000001,-0.10600899999999999,-0.11378599999999998
717,1.154652,-1.2330860000000001,0.343001,0.303034,0.943516,-0.133928,-0.48289499999999996,0.032437,-1.45538,-0.00886,-0.158039,-0.159652
718,1.1487450000000001,-1.26597,0.346075,0.27377399999999996,0.9538989999999999,-0.12293399999999999,-0.857833,-0.519237,-1.431654,0.084182,-0.194072,-0.129599
719,1.1815799999999999,-1.296226,0.38166500000000003,0.250835,0.962542,-0.102877,-1.167463,0.283532,-1.0513540000000001,0.20892800000000003,-0.181399,0.117525
720,1.258025,-1.322318,0.444583,0.233975,0.9692879999999999,-0.075664,-1.1840870000000001,0.985093,-0.923114,0.200153,-0.194172,0.08985499999999999
721,1.327274,-1.346027,0.498513,0.216279,0.9748450000000001,-0.053735000000000005,-0.743739,0.620562,-0.98687,0.188079,-0.231712,0.045892
722,1.3537290000000002,-1.366938,0.525413,0.197668,0.9792930000000001,-0.043594,-0.441334,-0.39914299999999997,-0.92363,-0.016775,-0.31578,-0.008713
723,1.365227,-1.388409,0.559541,0.177525,0.9834139999999999,-0.037016,-0.670804,-1.488701,-1.045614,-0.051089999999999997,-0.35435500000000003,0.025144999999999997
724,1.409875,-1.412692,0.6456770000000001,0.155373,0.987527,-0.025221,-1.073473,-2.2799490000000002,-1.0260479999999998,-0.040244999999999996,-0.391016,0.054319000000000006
725,1.4929709999999998,-1.433539,0.777521,0.13636600000000001,0.9905950000000001,-0.010634000000000001,-0.992192,-2.2852509999999997,-0.836398,-0.185224,-0.201151,0.0269
726,1.54043,-1.4499360000000001,0.861366,0.120457,0.992705,-0.0036590000000000004,-0.305402,-1.383292,-0.816734,-0.354206,0.026063,-0.044849
727,1.495088,-1.468612,0.83047,0.101651,0.994784,-0.007711,0.297246,-0.414178,-1.000705,-0.321332,0.169264,-0.030742000000000002
728,1.444426,-1.483945,0.782429,0.085976,0.996231,-0.010923,-0.05296699999999999,-0.015330000000000002,-0.540054,-0.041939,0.175293,0.022215000000000002
729,1.535209,-1.485595,0.8686309999999999,0.08497,0.996373,-0.003025,-0.477782,0.41684899999999997,0.17427,0.181067,0.06399099999999999,-0.050472
730,1.621261,-1.481835,0.9429219999999999,0.088661,0.9960459999999999,0.004478,-0.169977,0.6920149999999999,0.09274600000000001,0.221031,0.081515,-0.066612
731,1.602637,-1.485063,0.907199,0.08551399999999999,0.9963270000000001,0.002724,0.3179,0.879237,-0.263008,0.20235799999999998,0.128719,-0.03846
732,1.56095,-1.489388,0.854066,0.081237,0.9966879999999999,-0.0008,0.072515,0.297925,-0.13258599999999998,0.22773800000000002,0.051193999999999996,0.049979
733,1.620395,-1.489655,0.9169860000000001,0.080874,0.99671,0.0040149999999999995,-0.44244300000000003,-0.430571,0.00896,0.21665700000000002,0.076151,0.11396600000000001
734,1.7762310000000001,-1.489247,1.0894469999999998,0.079667,0.996677,0.016600999999999998,-0.820881,-0.9868530000000001,-0.14359,0.194701,0.281552,0.15466400000000002
735,1.9847029999999999,-1.4875399999999999,1.318391,0.076066,0.9965360000000001,0.033414,-0.9460139999999999,-0.8679680000000001,-0.194822,0.150817,0.428375,0.182757
736,2.163082,-1.4817719999999999,1.506326,0.0737,0.9960399999999999,0.049591,-0.777033,-0.223315,-0.11542000000000001,0.002502,0.819786,0.076447
737,2.2787479999999998,-1.4773889999999998,1.628679,0.07080399999999999,0.995641,0.06060599999999999,-0.39826999999999996,-0.543868,-0.201026,-0.151447,0.878642,-0.012006999999999999
738,2.337508,-1.479466,1.7102529999999998,0.065631,0.9958319999999999,0.063223,-0.167149,-1.354349,-0.449405,-0.237796,0.867403,0.102289
739,2.404026,-1.4869450000000002,1.803036,0.05626799999999999,0.9964870000000001,0.061926,0.178517,-1.1965139999999999,-0.526241,-0.296243,0.525486,-0.0893
740,2.273609,-1.502799,1.691682,0.051766,0.9976889999999999,0.043851,1.316893,-0.804708,-0.127822,-0.398201,0.276344,-0.271802
741,1.661371,-1.517699,1.0896709999999998,0.052726,0.998591,0.004789,2.182851,-0.40920300000000004,0.11486500000000001,-0.404533,-0.021403,-0.3103
742,0.996049,-1.498955,0.42203100000000004,0.060174,0.9974200000000001,-0.038974,2.094913,0.43397700000000006,0.586392,-0.196221,-0.2462,-0.140531
743,0.870455,-1.4620549999999999,0.27517600000000003,0.082941,0.994093,-0.069908,1.282304,1.328363,1.401033,0.022588999999999998,-0.241148,0.096276
744,0.996531,-1.42413,0.369752,0.12266600000000001,0.9892639999999999,-0.07936499999999999,0.285464,1.730545,2.1210139999999997,0.102737,-0.20693000000000003,0.266712
745,1.211336,-1.384882,0.54132,0.173001,0.982768,-0.065012,-1.002235,3.0926970000000003,2.5215389999999998,0.230456,-0.133219,-0.013663
746,1.409844,-1.3346360000000002,0.7047180000000001,0.230922,0.9722430000000001,-0.037492000000000004,-0.872585,0.863821,3.020956,0.141316,0.136445,0.13751300000000002
747,1.48504,-1.278461,0.7829,0.287109,0.957573,-0.024682,-0.443204,-0.45551400000000003,2.7799549999999997,0.045609,0.236686,-0.003257
748,1.473098,-1.233018,0.789849,0.329793,0.943493,-0.032323000000000005,0.381257,-1.157904,1.8935799999999998,-0.118474,0.16586700000000001,0.045857999999999996
749,1.405086,-1.204767,0.7533569999999999,0.35299200000000003,0.9337559999999999,-0.059036,1.060959,-1.9973130000000001,1.032007,-0.40156,-0.267588,0.12553399999999998
750,1.299407,-1.179459,0.685535,0.36745,0.9244,-0.102245,1.763364,-2.092661,1.090447,-0.412479,-0.341575,0.170284
751,1.1974280000000002,-1.133317,0.611518,0.394458,0.9058229999999999,-0.154526,2.338912,-1.425568,2.130856,-0.290225,-0.194656,-0.035843
752,1.116228,-1.0629899999999999,0.553693,0.43687299999999996,0.873813,-0.21350100000000002,2.564881,-1.216245,2.8671029999999997,-0.302138,-0.1003,0.11761400000000001
753,1.079797,-0.993554,0.529153,0.481238,0.8379709999999999,-0.257305,1.924118,-0.817032,2.690131,-0.297721,-0.074741,-0.01772
754,1.047269,-0.9364120000000001,0.517736,0.513292,0.805437,-0.29630100000000004,1.558999,-1.223515,2.095239,-0.425752,-0.045885,0.106771
755,1.0178459999999998,-0.8910030000000001,0.5034850000000001,0.5349470000000001,0.7777029999999999,-0.330154,1.5755569999999999,-0.674975,1.5680180000000001,-0.588276,-0.191185,0.182678
756,0.995345,-0.846092,0.48445900000000003,0.556144,0.748696,-0.360763,1.816077,-0.270196,1.632205,-0.564735,-0.20014200000000001,0.171097
757,0.985877,-0.797655,0.46619499999999997,0.58228,0.715721,-0.38559899999999997,1.800719,0.631958,1.679011,-0.49713599999999997,-0.169425,0.204645
758,1.0064309999999999,-0.7528560000000001,0.45643599999999995,0.6165729999999999,0.683725,-0.39032,1.2962690000000001,1.6668599999999998,1.7200950000000002,-0.12495,-0.019144,0.164184
759,1.040366,-0.714674,0.460035,0.651515,0.6553720000000001,-0.38211,0.6351720000000001,1.413897,1.617525,0.111577,0.077935,0.147079
760,1.06399,-0.690221,0.467584,0.674172,0.6367079999999999,-0.374283,0.239083,0.632008,0.890437,0.32463800000000004,0.020916,0.141601
761,1.066675,-0.684864,0.466545,0.6781510000000001,0.632568,-0.37411300000000003,0.13834200000000002,-0.046245999999999995,-0.168005,0.129741,-0.080139,0.14311
762,1.062426,-0.691998,0.460955,0.672596,0.638077,-0.374785,-0.050862,-0.04401,-0.562435,0.091045,-0.181061,0.086836
763,1.0573219999999999,-0.7088810000000001,0.456818,0.661196,0.650984,-0.372868,-0.503931,-0.115435,-0.9554090000000001,0.017393000000000002,-0.245391,0.117299
764,1.066087,-0.740093,0.467451,0.646333,0.674357,-0.357055,-1.468436,0.23662399999999997,-1.314043,0.11344800000000001,-0.541071,0.170212
765,1.0996139999999999,-0.785077,0.492174,0.630251,0.7068800000000001,-0.321085,-1.9039810000000001,1.234599,-1.6879680000000001,0.163724,-0.694886,-0.154944
766,1.145933,-0.8390850000000001,0.511521,0.6087359999999999,0.7440319999999999,-0.275403,-1.606759,1.700423,-2.551749,0.065947,-0.49745,-0.099185
767,1.170368,-0.89936,0.48971099999999995,0.572891,0.782929,-0.24250300000000002,-0.6229180000000001,1.8424060000000002,-2.680723,0.193253,3.675796,0.683193
768,1.247044,-0.9396760000000001,0.566738,0.5593859999999999,0.8073670000000001,-0.18770699999999998,-3.193416,1.15725,-0.675656,-0.113418,2.456824,0.575616
769,1.2748059999999999,-0.962334,0.600055,0.54674,0.820528,-0.166727,-0.12733,-1.043525,-0.690943,0.120558,0.608229,0.141871
770,1.220934,-0.968266,0.56623,0.5323869999999999,0.8239040000000001,-0.194253,1.153737,-1.054577,-0.636047,-0.228111,-0.607825,0.13358399999999998
771,1.161621,-0.978302,0.509007,0.512323,0.829551,-0.22216999999999998,1.2940180000000001,-0.5203909999999999,-1.408082,-0.324015,-0.7108220000000001,-0.325087
772,1.095744,-1.008865,0.448543,0.473812,0.8462280000000001,-0.2437,0.424915,-0.783645,-2.485242,-0.5808369999999999,-0.275397,-0.12419000000000001
773,1.0567600000000001,-1.067165,0.40527399999999997,0.42023,0.8758360000000001,-0.237292,-0.9011040000000001,0.503904,-3.373164,-0.512195,0.0008880000000000001,0.20993299999999998
774,1.079583,-1.13819,0.387498,0.369656,0.907876,-0.197747,-1.547213,2.83562,-3.036698,-0.33518600000000004,0.200232,0.267357
775,1.164756,-1.193778,0.408454,0.33820100000000003,0.929767,-0.145403,-1.466636,3.0792450000000002,-1.961816,-0.18456,0.358914,0.21028400000000003
776,1.2114530000000001,-1.2298280000000001,0.421349,0.313023,0.9424309999999999,-0.11758800000000001,-0.499615,0.8728049999999999,-1.405304,-0.086217,0.242627,0.080937
777,1.191618,-1.252522,0.400845,0.290682,0.9497770000000001,-0.115825,0.04261,-0.367349,-1.033528,0.136046,-0.09386599999999999,0.006938
778,1.1653639999999998,-1.267974,0.385025,0.274021,0.954499,-0.11761300000000001,-0.23305700000000001,-0.602082,-0.701867,0.324795,-0.3443,-0.041063
779,1.1769020000000001,-1.28544,0.407138,0.259922,0.9595610000000001,-0.108028,-0.873402,-0.405993,-0.699114,0.24935500000000002,-0.41508199999999995,0.050334
780,1.228557,-1.306877,0.468607,0.245714,0.965375,-0.087538,-1.287316,-0.375874,-0.679611,0.165663,-0.412839,0.11080699999999999
781,1.307453,-1.327282,0.558006,0.232777,0.9704969999999999,-0.06275800000000001,-1.397572,-0.398099,-0.620532,-0.09467,-0.341712,0.183379
782,1.393165,-1.345333,0.6558069999999999,0.22001199999999999,0.974691,-0.039497000000000004,-1.2135280000000002,-0.537139,-0.641501,-0.192607,-0.310094,0.135902
783,1.456473,-1.361683,0.735559,0.20620700000000003,0.978215,-0.023677,-0.803912,-0.856816,-0.706596,-0.206421,-0.29775,0.098476
784,1.477381,-1.378362,0.777404,0.190382,0.981542,-0.017837000000000002,-0.320825,-1.049664,-0.85039,-0.20886100000000002,-0.22110500000000002,0.019195
785,1.457698,-1.396433,0.7789590000000001,0.17233800000000002,0.9848370000000001,-0.019575,-0.029351,-1.055791,-0.902825,-0.176549,-0.166447,0.002149
786,1.440369,-1.41331,0.780434,0.15546500000000002,0.987625,-0.020393,-0.22941799999999998,-0.8127340000000001,-0.773143,-0.12299500000000001,-0.07787999999999999,0.034187
787,1.4891370000000002,-1.426609,0.8363139999999999,0.14316700000000002,0.9896229999999999,-0.011717,-0.6183390000000001,0.032337,-0.513091,-0.040644,0.118272,0.030913
788,1.577167,-1.434187,0.916428,0.136138,0.990683,0.000867,-0.44623100000000004,0.575166,-0.280781,-0.004347,0.261071,-0.063474
789,1.595958,-1.441318,0.9232299999999999,0.129029,0.9916290000000001,0.003247,0.183946,0.586345,-0.42594399999999993,-0.001267,0.186914,-0.11228699999999998
790,1.561559,-1.448369,0.877849,0.12206700000000001,0.9925149999999999,-0.0011279999999999999,0.266083,0.527802,-0.24263,0.202243,0.034295,-0.09247000000000001
791,1.557769,-1.449819,0.8629030000000001,0.12062200000000001,0.992691,-0.0015710000000000001,-0.038975,0.535401,-0.014034,0.24285700000000002,-0.022324,-0.070175
792,1.612948,-1.449911,0.912666,0.12043399999999999,0.9927020000000001,0.0050799999999999994,-0.460208,0.079957,-0.038826,0.283573,0.088505,-0.015455000000000002
793,1.732068,-1.450862,1.038409,0.11804500000000001,0.9928170000000001,0.019204,-0.9186559999999999,-0.463309,-0.180201,0.24294699999999997,0.193707,0.06597
794,1.9246459999999999,-1.450677,1.243036,0.11235999999999999,0.9927940000000001,0.041505,-1.325445,-0.499411,-0.38916300000000004,0.130865,0.386356,0.08174
795,2.1537189999999997,-1.447408,1.4831729999999999,0.102709,0.992397,0.067722,-1.319257,-0.47533000000000003,-0.555793,-0.038668,0.537296,0.09478400000000001
796,2.310979,-1.44363,1.654078,0.09360399999999999,0.991925,0.0855,-0.678583,-0.7410439999999999,-0.463383,-0.041724000000000004,0.698489,0.019725
797,2.354988,-1.445352,1.7177189999999998,0.088543,0.992142,0.08832999999999999,0.0392,-1.078803,-0.269929,-0.074414,0.807189,-0.141629
798,2.292294,-1.4546459999999999,1.6813069999999999,0.08697300000000001,0.9932620000000001,0.076512,0.707004,-1.4512559999999999,-0.148351,-0.171522,0.568246,-0.133794
