,attitude.roll,attitude.pitch,attitude.yaw,gravity.x,gravity.y,gravity.z,rotationRate.x,rotationRate.y,rotationRate.z,userAcceleration.x,userAcceleration.y,userAcceleration.z
0,-2.345168,-1.125299,0.9924959999999999,-0.308026,0.9023959999999999,0.301307,0.156595,-0.634745,-0.703471,-0.075748,0.05346,-0.162574
1,-2.363433,-1.113665,0.99941,-0.30982,0.897322,0.314339,-0.38149,-1.371232,-0.408252,-0.291162,0.48861800000000005,0.16361199999999998
2,-2.374277,-1.117713,1.016941,-0.30387,0.8991020000000001,0.31506300000000004,0.8391799999999999,-1.1142219999999998,0.061417,0.26410500000000003,0.271003,-0.43048000000000003
3,-2.359827,-1.1309799999999999,1.042977,-0.29995900000000003,0.9048299999999999,0.302145,0.766105,-0.335036,0.0075650000000000005,0.48781,0.07823300000000001,-0.687094
4,-2.350955,-1.13693,1.0625719999999998,-0.298795,0.9073469999999999,0.29568099999999997,0.335054,-0.426932,-0.080786,0.21365100000000004,0.390489,-0.50764
5,-2.3538189999999997,-1.138401,1.060168,-0.297001,0.907964,0.295594,-0.133029,0.339582,0.168149,-0.033412,0.048639999999999996,-0.096467
6,-2.33921,-1.136883,1.0573270000000001,-0.30227800000000005,0.907328,0.29218099999999997,-0.060114,1.015079,-0.188994,-0.028136,0.049276,-0.093053
7,-2.3110020000000002,-1.127037,1.067701,-0.31698000000000004,0.9031440000000001,0.289551,-0.289941,0.891124,-0.692504,0.025171000000000002,-0.145377,-0.51561
8,-2.279334,-1.112319,1.080227,-0.336047,0.896727,0.287989,-0.18506,1.292001,-0.600418,-0.190519,0.094209,-0.26850300000000005
9,-2.237304,-1.1128879999999999,1.0920940000000001,-0.34745,0.8969790000000001,0.27329899999999996,0.501307,1.5978450000000002,0.10794200000000001,-0.096138,0.314416,-0.14807
10,-2.1804810000000003,-1.125789,1.1232870000000001,-0.35289299999999996,0.902608,0.24647800000000003,1.078225,1.4205370000000002,-0.007442,0.091464,0.277828,-0.061891999999999996
11,-2.119416,-1.130543,1.155233,-0.363611,0.904644,0.222242,0.405948,1.6708060000000002,-0.205806,-0.115225,-0.217281,-0.093519
12,-2.081442,-1.1304049999999999,1.163237,-0.371896,0.9045850000000001,0.208339,0.08164199999999999,1.406924,-0.001567,-0.102393,-0.324262,-0.156032
13,-2.051023,-1.134423,1.171478,-0.37483299999999997,0.9062899999999999,0.19525,0.405729,1.004736,0.128331,0.135667,-0.44636000000000003,-0.21841300000000002
14,-2.01001,-1.1435870000000001,1.19664,-0.37499,0.910126,0.176178,0.799523,0.890051,0.228437,0.236425,-0.344116,-0.159378
15,-1.963745,-1.157385,1.228604,-0.371101,0.9157559999999999,0.15382300000000002,0.88897,0.822852,0.43851899999999994,0.21373699999999998,-0.18637,-0.08680700000000001
16,-1.916402,-1.16913,1.261051,-0.367819,0.9204110000000001,0.132436,0.741364,0.954376,0.176673,0.161993,-0.10913099999999999,0.012691
17,-1.8649349999999998,-1.1729100000000001,1.291531,-0.370812,0.921882,0.112328,0.590171,1.269013,-0.053385,0.062554,-0.337028,-0.105386
18,-1.805854,-1.177671,1.329377,-0.372525,0.923716,0.089214,0.9130299999999999,1.124401,0.13278900000000002,0.026516,-0.323298,-0.093166
19,-1.7403220000000001,-1.188755,1.3821620000000001,-0.367452,0.9279059999999999,0.06289600000000001,1.132193,0.624746,0.48533699999999996,-0.049402999999999996,-0.226688,-0.072494
20,-1.68455,-1.2053690000000001,1.434511,-0.35502,0.9339709999999999,0.04056,1.001183,0.253309,0.778659,0.026177999999999996,0.058628,0.106398
21,-1.638148,-1.2225469999999998,1.476222,-0.340459,0.9399719999999999,0.022965,0.654493,0.47831999999999997,0.753516,0.008947,0.122422,0.127807
22,-1.599617,-1.236164,1.502556,-0.32826500000000003,0.9445309999999999,0.009464,0.389935,0.806897,0.598492,-0.171261,0.106464,0.231595
23,-1.566714,-1.245754,1.5191219999999999,-0.319326,0.9476370000000001,-0.0013039999999999998,0.231219,0.9072979999999999,0.403906,-0.41204300000000005,0.11463399999999999,0.172812
24,-1.537606,-1.251271,1.532585,-0.313923,0.949385,-0.010423,0.200141,0.677044,0.20315899999999998,-0.536007,0.133043,0.088563
25,-1.514243,-1.252775,1.548866,-0.31216700000000003,0.9498559999999999,-0.017672999999999998,0.281206,0.250332,0.017333,-0.46070600000000006,0.203449,0.212238
26,-1.492341,-1.251839,1.5667520000000001,-0.312592,0.9495629999999999,-0.024575,0.28465100000000004,0.267514,-0.020053,-0.246185,0.46054700000000004,0.07210599999999999
27,-1.473025,-1.250731,1.585138,-0.313106,0.9492149999999999,-0.030711000000000002,0.210748,-0.028397000000000002,-0.014849000000000001,-0.252019,0.584385,-0.001623
28,-1.4788139999999999,-1.249752,1.579708,-0.314204,0.9489059999999999,-0.028983,-0.22515300000000002,0.0064150000000000006,-0.08416799999999999,-0.126805,0.151634,-0.11014600000000001
29,-1.5017969999999998,-1.248265,1.558293,-0.316193,0.9484360000000001,-0.021852,-0.372435,-0.244468,-0.087012,0.001115,-0.062694,-0.298827
30,-1.5405010000000001,-1.2472159999999999,1.53015,-0.317797,0.948103,-0.009631,-0.515204,-0.903417,-0.077551,0.09105099999999999,-0.122313,-0.338987
31,-1.6133600000000001,-1.244326,1.48081,-0.320391,0.9471799999999999,0.013645,-0.977877,-1.431775,-0.213633,0.161578,0.09559,-0.160023
32,-1.702502,-1.2325629999999999,1.41244,-0.328927,0.943342,0.043574,-1.280716,-1.0659239999999999,-0.598641,-0.069175,0.426576,-0.190302
33,-1.795837,-1.2162030000000001,1.331787,-0.338435,0.937788,0.077474,-1.558733,-0.700751,-0.570072,-0.007298999999999999,0.535723,-0.149251
34,-1.87126,-1.1975149999999999,1.25888,-0.34831599999999996,0.9311360000000001,0.107924,-1.471323,-0.16553199999999998,-0.492167,0.122929,0.380998,-0.112364
35,-1.935568,-1.181562,1.1891120000000002,-0.35449400000000003,0.9252,0.13536700000000002,-1.5012809999999999,0.047758,-0.258709,0.190172,0.30697800000000003,-0.047004000000000004
36,-1.9992740000000002,-1.166713,1.122288,-0.357615,0.9194629999999999,0.163351,-1.435833,-0.22141799999999998,-0.133993,0.229167,0.304322,-0.087332
37,-2.061906,-1.1533799999999998,1.0619889999999998,-0.357469,0.9141389999999999,0.191179,-1.3528879999999999,-0.42873599999999995,-0.042349,0.15104800000000002,0.031555,-0.084749
38,-2.1211599999999997,-1.1396950000000001,1.008315,-0.35615,0.9085059999999999,0.21853499999999998,-1.253255,-0.593061,-0.060671,0.060694000000000005,-0.090101,-0.075393
39,-2.1728009999999998,-1.124567,0.967089,-0.35568299999999997,0.9020809999999999,0.24438400000000002,-1.070807,-0.7687510000000001,-0.23863299999999998,0.021988,-0.08926,-0.093428
40,-2.2093380000000002,-1.107008,0.945729,-0.359183,0.8943639999999999,0.26661399999999996,-0.755522,-0.956089,-0.549179,-0.057305999999999996,-0.232133,-0.149808
41,-2.234084,-1.092624,0.943427,-0.362576,0.8878370000000001,0.283312,-0.329158,-1.214573,-0.48070799999999997,0.02586,-0.43494099999999997,-0.166018
42,-2.256693,-1.08715,0.946141,-0.359834,0.8853049999999999,0.29451,0.015631,-1.230242,-0.05846900000000001,0.020662,-0.531515,-0.127594
43,-2.279191,-1.092639,0.947393,-0.34942199999999995,0.8878440000000001,0.29936399999999996,0.289606,-1.153823,0.306542,0.23676599999999998,-0.6280180000000001,-0.126269
44,-2.296965,-1.104986,0.948084,-0.33582399999999996,0.893458,0.298225,0.48258100000000004,-0.725014,0.5295310000000001,0.33928800000000003,-0.5969949999999999,-0.12206199999999999
45,-2.302804,-1.119867,0.9520280000000001,-0.32415,0.900042,0.29126199999999997,0.6264149999999999,-0.35349400000000003,0.470239,0.30544299999999996,-0.464343,0.004515
46,-2.297717,-1.135225,0.962347,-0.31526,0.9066290000000001,0.280388,0.689329,-0.192578,0.401038,0.18466,-0.37464699999999995,0.10277599999999999
47,-2.2896919999999996,-1.1472959999999999,0.975001,-0.309241,0.9116559999999999,0.270622,0.515418,-0.17723599999999998,0.178682,0.015799,-0.236943,0.194207
48,-2.276302,-1.151837,0.991345,-0.309682,0.9135129999999999,0.26377,0.352187,-0.059113,-0.181532,-0.131663,-0.10263,0.211267
49,-2.2678580000000004,-1.152528,1.007486,-0.311415,0.9137940000000001,0.260741,0.22121100000000002,-0.64272,-0.10905999999999999,-0.289568,0.371347,-0.008986
50,-2.295943,-1.154867,1.005734,-0.30236999999999997,0.914741,0.267965,-0.074925,-1.6358489999999999,0.22022399999999998,-0.21769499999999997,0.647728,0.072901
51,-2.331614,-1.155649,0.998091,-0.292102,0.915057,0.278084,0.021512,-1.081235,-0.030844999999999997,-0.023175,0.923932,0.312843
52,-2.320812,-1.156107,1.016945,-0.294783,0.915242,0.274627,0.38961599999999996,0.059559,-0.320292,0.167296,0.342388,0.418732
53,-2.305632,-1.148687,1.0332860000000001,-0.30394899999999997,0.912227,0.274667,-0.466027,-0.177255,-0.56311,-0.132407,0.540624,0.036032
54,-2.33481,-1.129541,1.008592,-0.308363,0.904216,0.295448,-0.954656,-0.49989300000000003,-0.17514100000000002,-0.127993,0.5486340000000001,0.015250999999999999
55,-2.35243,-1.1314110000000002,1.001317,-0.30190900000000004,0.905013,0.299644,0.42544099999999996,-0.32579400000000003,0.36733499999999997,0.449324,-0.074249,-0.40879
56,-2.3452450000000002,-1.14794,1.010402,-0.29331999999999997,0.9119209999999999,0.286966,0.749328,-0.103555,0.45370200000000005,0.305496,-0.28953,-0.401239
57,-2.356872,-1.1590260000000001,1.007259,-0.282801,0.916414,0.28318499999999996,-0.0020870000000000003,-0.689876,0.410749,0.294978,-0.294023,-0.397458
58,-2.3924630000000002,-1.1546459999999998,0.9796590000000001,-0.275277,0.914652,0.296005,-0.69447,-0.24851700000000002,0.12867699999999999,-0.407173,0.345099,-0.155685
59,-2.3932849999999997,-1.149933,0.9709530000000001,-0.277963,0.9127370000000001,0.299386,0.043579,0.678663,-0.075659,-0.534141,0.20795999999999998,-0.43512799999999996
60,-2.3598689999999998,-1.156928,0.9945879999999999,-0.283304,0.9155719999999999,0.285394,0.847198,0.404588,-0.164766,-0.528799,0.205125,-0.42113599999999995
61,-2.316471,-1.16549,1.034845,-0.28965,0.9189809999999999,0.267506,0.795763,0.261332,-0.258945,-0.054649,-0.099249,-0.129002
62,-2.286137,-1.171814,1.0662040000000002,-0.293238,0.921457,0.254782,0.652751,-0.072213,-0.106761,0.0982,0.012274,-0.21098899999999998
63,-2.255896,-1.180343,1.098066,-0.29470999999999997,0.924737,0.240817,0.771295,0.22127,-0.076399,0.099672,0.008994,-0.197024
64,-2.211538,-1.187475,1.130375,-0.299804,0.927427,0.223563,0.638461,1.035665,-0.092257,0.167251,-0.10461199999999998,-0.106589
65,-2.161906,-1.1928020000000001,1.154442,-0.30641999999999997,0.929407,0.20565799999999998,0.41713100000000003,1.4898930000000001,-0.005723,0.114693,-0.185113,-0.136734
66,-2.116991,-1.195677,1.1684139999999998,-0.31306100000000003,0.930464,0.190304,0.293133,1.616261,-0.064435,0.115124,-0.151152,-0.19298900000000002
67,-2.061553,-1.197756,1.1967370000000002,-0.321418,0.9312239999999999,0.171753,0.644598,1.33121,-0.213302,0.142798,-0.21018499999999998,-0.218414
68,-1.9957209999999999,-1.2006379999999999,1.24186,-0.329574,0.93227,0.14912899999999998,0.856175,1.154755,-0.225485,0.16744900000000001,-0.466038,-0.09085599999999999
69,-1.928541,-1.204443,1.290201,-0.335516,0.9336399999999999,0.125426,0.882917,1.05722,-0.100191,0.150778,-0.466645,-0.07913099999999999
70,-1.8645040000000002,-1.210772,1.338036,-0.337192,0.9358879999999999,0.10198600000000001,0.9495319999999999,0.885742,0.10025099999999999,-0.020093,-0.290579,-0.143978
71,-1.794084,-1.219349,1.397418,-0.33569099999999996,0.938876,0.076227,1.2009889999999999,0.643836,0.170684,-0.151949,0.0032630000000000003,0.014776
72,-1.7253450000000001,-1.227336,1.462061,-0.332714,0.9415950000000001,0.051834000000000005,1.035995,0.291646,0.20950700000000003,-0.157459,-0.012716,0.057922
73,-1.6810770000000002,-1.2344389999999998,1.502578,-0.32802600000000004,0.9439629999999999,0.036322,0.586611,0.313166,0.278979,-0.10498800000000001,-0.180841,0.078805
74,-1.6440810000000001,-1.241058,1.536074,-0.322907,0.946127,0.023706,0.555341,0.244015,0.283123,-0.00891,-0.18474400000000002,0.22048
75,-1.611736,-1.24914,1.5642260000000001,-0.315853,0.9487129999999999,0.012938,0.453629,0.338479,0.45747899999999997,0.001644,-0.12031300000000002,0.221452
76,-1.570186,-1.260289,1.597781,-0.30551999999999996,0.9521790000000001,-0.00018600000000000002,0.5799989999999999,0.5485439999999999,0.562779,-0.223029,0.13765,0.116596
77,-1.5231459999999999,-1.2688709999999999,1.63537,-0.297,0.954766,-0.014163,0.502033,0.542266,0.335779,-0.47418000000000005,0.250846,0.056597
78,-1.48856,-1.269773,1.661707,-0.29547399999999996,0.955033,-0.024354,0.353852,0.40484499999999995,-0.067799,-0.543149,0.206954,0.10180700000000001
79,-1.458236,-1.2671459999999999,1.688249,-0.297092,0.9542510000000001,-0.033583,0.44660500000000003,0.163725,-0.05616,-0.34184000000000003,0.31204499999999996,0.146482
80,-1.4275959999999999,-1.2658719999999999,1.7205290000000002,-0.297125,0.9538700000000001,-0.042842,0.42249899999999996,-0.150706,0.008167,-0.392755,0.524478,0.030588999999999998
81,-1.424424,-1.263382,1.727285,-0.299338,0.953119,-0.044131000000000004,-0.001962,-0.096147,-0.21385300000000002,-0.32909499999999997,0.399649,-0.081114
82,-1.438579,-1.258333,1.717282,-0.3047,0.9515790000000001,-0.040523,-0.18218199999999998,-0.401967,-0.30231399999999997,-0.134494,0.030660000000000003,-0.255787
83,-1.469319,-1.2520719999999999,1.701187,-0.311722,0.949636,-0.031742,-0.25953699999999996,-1.039625,-0.34583400000000003,0.103424,-0.13175,-0.303921
84,-1.5353,-1.247058,1.661086,-0.31789,0.948053,-0.011289,-0.86621,-1.589628,-0.272455,0.160938,0.12730999999999998,-0.18725899999999998
85,-1.630755,-1.239013,1.594368,-0.32512199999999997,0.9454629999999999,0.019517,-1.161059,-1.609219,-0.445405,-0.061322,0.455096,-0.267106
86,-1.7270400000000001,-1.227861,1.520371,-0.332136,0.9417719999999999,0.052321000000000006,-1.3345850000000001,-1.0281280000000002,-0.423861,0.024778,0.6188060000000001,-0.19084
87,-1.80741,-1.214252,1.446788,-0.339292,0.937109,0.081814,-1.38806,-0.277196,-0.35576199999999997,0.06887599999999999,0.559855,-0.11996099999999998
88,-1.877245,-1.202177,1.370267,-0.34352,0.932826,0.108695,-1.53407,0.180632,-0.16936199999999998,0.12371700000000001,0.401647,-0.12393900000000001
89,-1.948509,-1.190286,1.2947520000000001,-0.345194,0.928475,0.13696,-1.419361,-0.295338,-0.054719000000000004,0.09434,0.266532,-0.22762800000000002
90,-2.019809,-1.180102,1.232921,-0.343061,0.924645,0.1653,-1.211056,-0.8663209999999999,0.029720999999999997,0.070783,0.004157,-0.124269
91,-2.0892560000000002,-1.169633,1.179956,-0.33915300000000004,0.920608,0.193493,-1.105194,-1.110396,-0.030116000000000004,0.102596,-0.162185,-0.09417400000000001
92,-2.14728,-1.156755,1.1401459999999999,-0.33727399999999996,0.9155030000000001,0.21928000000000003,-0.940536,-0.9802540000000001,-0.217139,0.126444,-0.20963099999999998,-0.097897
93,-2.18139,-1.1407200000000002,1.120496,-0.34158499999999997,0.908934,0.239042,-0.691296,-0.7186859999999999,-0.576793,0.165102,-0.263365,-0.08499
94,-2.19918,-1.124126,1.1165690000000001,-0.349434,0.90189,0.253914,-0.469604,-0.7673979999999999,-0.575182,0.147851,-0.44652200000000003,-0.139351
95,-2.2189650000000003,-1.113992,1.11552,-0.35161,0.897467,0.266281,-0.20965799999999998,-1.024119,-0.27073,0.069078,-0.604971,-0.091446
96,-2.240132,-1.115151,1.114358,-0.34508,0.897977,0.273019,0.139311,-0.991074,0.219842,0.20151,-0.621045,-0.12984500000000002
97,-2.256468,-1.122484,1.116575,-0.335468,0.90118,0.274441,0.32448299999999997,-0.8341540000000001,0.24443600000000001,0.26900100000000005,-0.664974,-0.087018
98,-2.2646290000000002,-1.1328690000000001,1.119893,-0.326004,0.905633,0.271171,0.416321,-0.418592,0.404778,0.20372,-0.455788,0.037423000000000005
99,-2.2665439999999997,-1.144965,1.1250040000000001,-0.317052,0.910696,0.264753,0.48306099999999996,-0.301584,0.390139,0.194768,-0.460851,0.043841000000000005
100,-2.267321,-1.155317,1.131297,-0.30959699999999996,0.9149229999999999,0.258936,0.40975,-0.372146,0.250849,0.06997300000000001,-0.289007,0.196951
101,-2.2667580000000003,-1.160126,1.140695,-0.306363,0.916853,0.255938,0.20711,-0.43408800000000003,-0.06668099999999999,0.004743,-0.074477,0.283506
102,-2.267557,-1.157271,1.149308,-0.308165,0.91571,0.257862,-0.051107,-0.397253,-0.262948,0.0065439999999999995,-0.07333300000000001,0.281582
103,-2.274875,-1.154331,1.154037,-0.30832,0.914525,0.261852,0.038323,-0.740218,-0.087764,-0.415297,0.5655319999999999,0.30194499999999996
104,-2.286536,-1.1562,1.165555,-0.30395500000000003,0.9152790000000001,0.264306,0.36390900000000004,-1.196137,-0.10840699999999999,-0.137802,0.607426,0.473075
105,-2.278896,-1.1584379999999999,1.192917,-0.30440900000000004,0.916178,0.260644,0.526859,-0.585192,-0.384721,0.035151999999999996,0.37351,0.46836000000000005
106,-2.264198,-1.153776,1.220752,-0.31148899999999996,0.9143,0.258869,-0.091241,-0.638782,-0.578024,0.136745,0.871268,-0.065647
107,-2.2842439999999997,-1.1360350000000001,1.2085350000000001,-0.318454,0.9069709999999999,0.27563499999999996,-0.850864,-0.22988699999999998,-0.409734,0.041125,0.925732,-0.163422
108,-2.280303,-1.1341350000000001,1.2109450000000002,-0.320844,0.906169,0.275499,0.447905,0.34417600000000004,0.09212100000000001,0.531995,0.527059,-0.335909
109,-2.261921,-1.14534,1.22486,-0.31800900000000004,0.91085,0.26306599999999997,0.43326899999999996,-0.07003,0.324354,0.351518,-0.23789200000000002,-0.745305
110,-2.2977950000000003,-1.1492280000000001,1.20302,-0.305721,0.9124479999999999,0.271947,-0.630197,-1.028985,0.498684,-0.162357,-0.052860000000000004,-0.20880700000000002
111,-2.340559,-1.1447399999999999,1.159573,-0.29675300000000004,0.910603,0.287616,-0.733064,0.556303,0.28229,-0.403167,-0.02129,-0.087268
112,-2.317789,-1.13764,1.155299,-0.307962,0.907645,0.285171,0.016325,1.540057,-0.49246999999999996,-0.37517399999999995,0.013024,-0.370285
113,-2.258627,-1.132542,1.193756,-0.327856,0.905494,0.269398,0.59648,1.019113,-0.722759,-0.30851100000000004,0.07347999999999999,-0.161686
114,-2.2126650000000003,-1.133518,1.2262959999999998,-0.33918000000000004,0.905908,0.253521,0.528072,0.606943,-0.154415,-0.21984099999999998,0.153083,-0.09904099999999999
115,-2.187911,-1.144102,1.250785,-0.337512,0.9103389999999999,0.239486,0.901799,-0.144718,0.214491,0.021685,0.256257,-0.10746700000000001
116,-2.151477,-1.156193,1.2894290000000002,-0.336783,0.915276,0.220977,0.9418979999999999,0.385874,-0.10744400000000001,0.153754,-0.025475,-0.14640799999999998
117,-2.093589,-1.156505,1.329032,-0.348756,0.915402,0.20098,0.5283760000000001,1.4586540000000001,-0.559292,0.157899,-0.22214899999999999,-0.11202100000000001
118,-2.0329189999999997,-1.149302,1.356681,-0.366194,0.912479,0.1824,0.222706,1.850526,-0.523473,0.095121,-0.45286899999999997,-0.153469
119,-1.985528,-1.146065,1.372044,-0.377126,0.911149,0.166036,0.284434,1.499311,-0.126282,0.05234199999999999,-0.313463,-0.13735
120,-1.9429319999999999,-1.150372,1.392925,-0.38019400000000003,0.912916,0.148398,0.5626869999999999,0.9584379999999999,0.093204,0.034262,-0.202467,-0.091239
121,-1.9073060000000002,-1.154699,1.415102,-0.381508,0.914673,0.133457,0.41295200000000004,0.7464270000000001,-0.037893,0.056343,-0.09336900000000001,-0.012546
122,-1.871284,-1.152477,1.435216,-0.388007,0.913773,0.12023199999999999,0.365063,0.9820260000000001,-0.305585,0.13661900000000002,-0.453995,-0.09220199999999999
123,-1.822877,-1.151893,1.466051,-0.393887,0.913536,0.101449,0.782175,0.970039,-0.067647,0.153805,-0.565788,-0.092752
124,-1.760231,-1.161524,1.515595,-0.390806,0.9174110000000001,0.074931,1.234676,0.803404,0.45167799999999997,0.114607,-0.390937,-0.13530999999999999
125,-1.690393,-1.180182,1.58043,-0.37801999999999997,0.924675,0.045426999999999995,1.421541,0.302539,0.8680950000000001,0.087005,-0.194389,-0.073351
126,-1.630464,-1.199846,1.6385150000000002,-0.36183899999999997,0.931983,0.021616,0.94321,0.433208,0.840018,0.115577,0.104928,0.090948
127,-1.585184,-1.2145110000000001,1.670334,-0.348742,0.937199,0.005018,0.42566899999999996,0.929016,0.642419,0.018465000000000002,0.07798300000000001,0.130175
128,-1.5494940000000001,-1.226138,1.6838119999999999,-0.33778,0.941191,-0.007197,0.119387,1.305382,0.5607489999999999,0.007504,0.073992,0.14238900000000002
129,-1.520573,-1.235873,1.6864540000000001,-0.328264,0.944435,-0.016501,0.019635,1.259522,0.394536,-0.35215599999999997,0.273613,0.11817000000000001
130,-1.496212,-1.239876,1.689512,-0.323992,0.945744,-0.02421,0.024959000000000002,0.9645360000000001,0.100122,-0.47668299999999997,0.068981,0.169473
131,-1.477269,-1.240202,1.6928720000000002,-0.323169,0.94585,-0.030313999999999997,0.106125,0.646135,0.000685,-0.415051,0.092481,0.249354
132,-1.454252,-1.2398209999999998,1.7067400000000001,-0.322743,0.9457260000000001,-0.037785,0.30139699999999997,0.393075,-0.021128,-0.322353,0.5066510000000001,0.09378500000000001
133,-1.446188,-1.237478,1.7114509999999998,-0.324627,0.9449620000000001,-0.040662000000000004,-0.11489500000000001,0.222455,-0.14879900000000001,-0.26566,0.449524,-0.12013499999999999
134,-1.457022,-1.23319,1.693632,-0.329071,0.94355,-0.037602,-0.346193,0.167218,-0.25396199999999997,-0.189072,0.11145799999999999,-0.352016
135,-1.490265,-1.230116,1.662956,-0.333029,0.942527,-0.026876999999999998,-0.579809,-0.494741,-0.21201599999999998,0.049994,-0.004875,-0.40838
136,-1.562409,-1.225401,1.607,-0.33854,0.9409420000000001,-0.002839,-1.175458,-1.160116,-0.333897,0.43776800000000005,0.169227,-0.16003299999999998
137,-1.655313,-1.211072,1.5267110000000002,-0.35074299999999997,0.9359940000000001,0.029713999999999997,-1.555574,-0.739345,-0.7996310000000001,0.175374,0.511409,-0.233114
138,-1.7512009999999998,-1.195822,1.435127,-0.36028899999999997,0.930517,0.065712,-1.7536889999999998,-0.257732,-0.38929899999999995,0.167051,0.662912,-0.081978
139,-1.823864,-1.183503,1.349607,-0.365639,0.9259350000000001,0.094559,-1.688738,0.6476970000000001,-0.165679,0.06346900000000001,0.5205069999999999,0.0063170000000000006
140,-1.886734,-1.1713049999999998,1.260665,-0.369684,0.921259,0.12084500000000001,-1.8783310000000002,1.00078,-0.12045399999999999,-0.037176999999999995,0.34526599999999996,-0.022502
141,-1.9517689999999999,-1.1578620000000002,1.176763,-0.372512,0.915947,0.149206,-1.654737,0.298603,-0.007965,0.10324100000000001,0.168434,-0.14308800000000002
142,-2.012476,-1.14855,1.1111879999999998,-0.370469,0.912171,0.17517,-1.28834,-0.170901,0.136201,0.128525,0.040436,-0.092361
143,-2.065979,-1.138673,1.058036,-0.36848000000000003,0.9080790000000001,0.19900299999999999,-1.179477,-0.313417,-0.015612000000000001,0.04858,-0.025892000000000002,-0.050306000000000003
144,-2.1136909999999998,-1.125797,1.0163879999999998,-0.368551,0.902611,0.22237300000000002,-1.004068,-0.6254609999999999,-0.188107,-0.029154000000000003,-0.050163,-0.071021
145,-2.152124,-1.110782,0.9903870000000001,-0.371021,0.8960459999999999,0.243786,-0.809515,-0.791315,-0.43863599999999997,0.004978,-0.14868599999999998,-0.09588300000000001
146,-2.178541,-1.094614,0.979633,-0.376297,0.8887510000000001,0.26174000000000003,-0.542555,-0.8811540000000001,-0.580866,0.088852,-0.42872899999999997,-0.157477
147,-2.196555,-1.084178,0.982864,-0.37901799999999997,0.883919,0.273893,-0.031772,-1.175776,-0.339775,0.15328,-0.687264,-0.198713
148,-2.212202,-1.088015,0.998181,-0.371967,0.885707,0.27775900000000003,0.654787,-1.5358530000000001,0.133363,0.198398,-0.793925,-0.13528800000000002
149,-2.22293,-1.103633,1.01506,-0.357926,0.892849,0.273304,0.762828,-1.076559,0.531976,0.318864,-0.583447,-0.07849500000000001
150,-2.229004,-1.121405,1.0265739999999999,-0.34365100000000004,0.900711,0.26572399999999996,0.758363,-0.659963,0.517524,0.304588,-0.591309,-0.07091499999999999
151,-2.225302,-1.1372959999999999,1.041693,-0.333233,0.907501,0.255703,0.7045359999999999,-0.44504099999999996,0.364117,0.23258600000000001,-0.399231,0.11855
152,-2.220038,-1.147837,1.056993,-0.326936,0.9118780000000001,0.24814699999999998,0.506962,-0.475411,0.138449,0.04944,-0.219388,0.131644
153,-2.212673,-1.152786,1.074927,-0.32513600000000004,0.913899,0.24302800000000002,0.411191,-0.422976,-0.10370499999999999,-0.038419999999999996,-0.211536,0.132522
154,-2.203227,-1.154543,1.093585,-0.326121,0.91461,0.23899600000000001,0.310992,-0.47029399999999993,-0.17164200000000002,-0.157781,0.11162000000000001,0.180179
155,-2.2109959999999997,-1.155525,1.103069,-0.323533,0.915007,0.240985,0.08036599999999999,-1.035901,0.01441,-0.152908,0.9680190000000001,0.203199
156,-2.237701,-1.155817,1.100011,-0.316773,0.915125,0.24937199999999998,0.00944,-1.17298,-0.00941,0.001343,1.01969,0.356844
157,-2.240689,-1.159036,1.113721,-0.313715,0.9164180000000001,0.24848800000000001,0.43937299999999996,-0.516999,-0.058522000000000005,0.26058400000000004,0.37009699999999995,0.46962200000000004
158,-2.243627,-1.1574659999999999,1.118788,-0.314109,0.9157879999999999,0.25030399999999997,-0.409818,-0.39219499999999996,-0.17035899999999998,0.11888800000000001,0.695357,0.068635
159,-2.2737939999999996,-1.144179,1.08736,-0.31567199999999995,0.9103709999999999,0.267509,-0.8852620000000001,0.097755,-0.005529,-0.122805,0.728316,0.131432
160,-2.276204,-1.1448049999999999,1.07815,-0.31459299999999996,0.9106290000000001,0.267899,0.286901,0.47098199999999996,0.214757,0.306383,0.07987999999999999,-0.25300700000000004
161,-2.261984,-1.153482,1.086522,-0.31227,0.9141809999999999,0.258351,0.28936100000000003,0.084217,0.23022399999999998,0.215285,-0.19569,-0.47366800000000003
162,-2.284865,-1.1554149999999999,1.067779,-0.30494099999999996,0.914963,0.26427,-0.515868,-0.432309,0.361994,0.12050799999999999,-0.040375,-0.40874099999999997
163,-2.318787,-1.149572,1.033576,-0.299717,0.912589,0.278092,-0.699642,0.23820700000000003,0.14086600000000002,-0.293835,0.530084,-0.167481
164,-2.308606,-1.146521,1.023588,-0.304591,0.9113370000000001,0.276898,0.087487,1.229941,0.000883,-0.41345699999999996,0.19733599999999998,-0.45478500000000005
165,-2.273216,-1.151708,1.042661,-0.31058600000000003,0.91346,0.26289,0.568911,0.685483,-0.12431099999999999,-0.144706,-0.15998099999999998,-0.24396900000000002
166,-2.24043,-1.15448,1.0641459999999998,-0.31704899999999997,0.914585,0.25099499999999997,0.315988,0.613089,-0.18260099999999999,-0.004392,-0.273609,-0.20213599999999998
167,-2.2161049999999998,-1.156512,1.081006,-0.321575,0.9154049999999999,0.24209099999999997,0.427566,0.373687,-0.084307,0.081997,-0.198074,-0.21166500000000002
168,-2.1777580000000003,-1.1630209999999999,1.108407,-0.325719,0.918005,0.226181,0.721144,0.9020540000000001,-0.070114,0.160924,-0.005423,-0.260925
169,-2.123682,-1.169707,1.137831,-0.33223600000000003,0.920636,0.205017,0.571315,1.581936,0.000607,0.13320099999999999,0.040454000000000004,0.034393
170,-2.0768619999999998,-1.172301,1.150047,-0.339379,0.921646,0.188085,0.065888,1.84696,-0.036378,0.141808,-0.013885,-0.021032
171,-2.041553,-1.168172,1.1495950000000001,-0.349196,0.9200360000000001,0.17771199999999998,-0.10634,1.734573,-0.286333,0.11917,-0.077263,-0.094338
172,-1.9951889999999999,-1.160234,1.162405,-0.363702,0.916897,0.164339,0.17127699999999998,1.7443110000000002,-0.56428,0.122262,-0.452892,-0.128603
173,-1.9380119999999998,-1.1532149999999999,1.1890129999999999,-0.378496,0.9140729999999999,0.145594,0.49084399999999995,1.512628,-0.44531499999999996,0.126802,-0.573222,-0.051705999999999995
174,-1.8774369999999998,-1.154255,1.226716,-0.38571,0.914494,0.122126,0.846266,1.217954,-0.056826,0.025907999999999997,-0.499104,-0.04185
175,-1.8135240000000001,-1.161576,1.2718399999999999,-0.386214,0.917432,0.09562999999999999,1.082293,1.031895,0.180069,-0.024598,-0.372204,-0.10321400000000001
176,-1.739997,-1.174275,1.336425,-0.380681,0.9224100000000001,0.06503300000000001,1.520091,0.491093,0.509628,0.018116999999999998,-0.204713,-0.06217999999999999
177,-1.6684869999999998,-1.191842,1.407481,-0.368169,0.929052,0.036081999999999996,1.296151,0.272556,0.7422850000000001,0.049535,-0.082097,-0.033639999999999996
178,-1.613437,-1.208068,1.456733,-0.354488,0.934932,0.015125,0.760847,0.561022,0.72963,0.103282,0.046452,0.085248
179,-1.571496,-1.222402,1.485441,-0.34137199999999995,0.9399219999999999,0.000239,0.381621,0.889542,0.688104,0.016527,0.041035,0.13919600000000001
180,-1.536038,-1.235819,1.5026760000000001,-0.328531,0.944418,-0.011424,0.228343,0.955111,0.674131,-0.045706000000000004,0.089045,0.193934
181,-1.503292,-1.2493459999999998,1.5150620000000001,-0.315204,0.948778,-0.02131,0.13506300000000002,1.0769309999999999,0.660505,-0.39269699999999996,0.169309,0.188882
182,-1.4743620000000002,-1.257839,1.5271430000000001,-0.306424,0.951427,-0.029642,0.170423,0.726813,0.27450399999999997,-0.568805,0.147556,0.10795
183,-1.451019,-1.258688,1.540663,-0.304846,0.9516879999999999,-0.036689,0.233042,0.38466,0.004051,-0.5943390000000001,0.123171,0.11571400000000001
184,-1.4286860000000001,-1.2581069999999999,1.559544,-0.304498,0.9515100000000001,-0.043566,0.343075,0.159583,-0.015188,-0.356101,0.423597,0.024721
185,-1.41838,-1.255209,1.573334,-0.306758,0.950614,-0.04712,0.04736,-0.258544,-0.156655,-0.28120900000000004,0.6163109999999999,-0.100249
186,-1.4337280000000001,-1.249228,1.5603420000000001,-0.313071,0.948741,-0.043183,-0.23710100000000003,-0.17561400000000002,-0.402303,-0.13794800000000002,0.3989,-0.176116
187,-1.463393,-1.241794,1.538359,-0.32121900000000003,0.946365,-0.034633,-0.346194,-0.7153079999999999,-0.40771399999999997,0.020406999999999998,-0.124786,-0.43143100000000006
188,-1.5293729999999999,-1.234421,1.496575,-0.32976500000000003,0.9439569999999999,-0.013668000000000001,-0.900789,-1.6464619999999999,-0.433896,0.014549000000000001,-0.00719,-0.305363
189,-1.6314549999999999,-1.224509,1.4256799999999998,-0.338765,0.9406389999999999,0.020574000000000002,-1.319023,-1.692767,-0.479487,-0.025005,0.5317270000000001,-0.12576800000000002
190,-1.733481,-1.211325,1.340272,-0.347116,0.936083,0.056974000000000004,-1.62881,-0.649617,-0.538535,0.196054,0.8159310000000001,-0.093778
191,-1.813453,-1.1958309999999999,1.257703,-0.35549200000000003,0.9305200000000001,0.087997,-1.5817290000000002,0.077972,-0.314812,0.072045,0.49318599999999996,-0.047514999999999995
192,-1.8805189999999998,-1.18468,1.1794850000000001,-0.358658,0.9263790000000001,0.11477799999999999,-1.528592,0.25479,-0.09034,0.042983999999999994,0.23061900000000002,-0.06425700000000001
193,-1.94723,-1.174566,1.112155,-0.35890500000000003,0.922522,0.141869,-1.230486,-0.52525,-0.017824,0.027697000000000003,0.12653499999999998,-0.152382
194,-2.008768,-1.167837,1.063511,-0.355113,0.919905,0.166301,-0.9226129999999999,-0.9689479999999999,0.117354,0.067531,-0.018324,-0.07395499999999999
195,-2.07033,-1.1615790000000001,1.019403,-0.349256,0.917432,0.190588,-0.9325690000000001,-1.0710870000000001,0.093915,0.052441999999999996,-0.074507,-0.058691
196,-2.129622,-1.152408,0.9803870000000001,-0.344469,0.913745,0.215401,-0.8620700000000001,-1.23465,-0.089117,0.07281599999999999,-0.19324000000000002,-0.105294
197,-2.174194,-1.14004,0.959584,-0.343808,0.90865,0.236931,-0.599759,-1.304763,-0.364933,0.09036,-0.231404,-0.155495
198,-2.205821,-1.127537,0.9527,-0.34526399999999996,0.903359,0.254404,-0.40718200000000004,-1.254025,-0.433087,0.166293,-0.408943,-0.195718
199,-2.232374,-1.1199219999999999,0.9542719999999999,-0.343806,0.900066,0.26769899999999996,-0.055064,-1.507509,-0.218795,0.14716600000000002,-0.55624,-0.187255
200,-2.25641,-1.122923,0.961859,-0.33518000000000003,0.9013700000000001,0.274173,0.38932100000000003,-1.500907,0.142155,0.131643,-0.6071810000000001,-0.132297
201,-2.272121,-1.135724,0.972669,-0.321988,0.90684,0.271937,0.670227,-1.127068,0.44915,0.243878,-0.675959,-0.14638800000000002
202,-2.2778509999999996,-1.151499,0.9840549999999999,-0.30950900000000003,0.913375,0.26445100000000005,0.695234,-0.6091850000000001,0.387772,0.347473,-0.548248,-0.076188
203,-2.2664560000000002,-1.165259,1.003494,-0.302825,0.91889,0.252827,0.75032,-0.173982,0.197456,0.27537399999999995,-0.42655,0.042247
204,-2.246428,-1.1745649999999999,1.027204,-0.301141,0.922522,0.241353,0.575692,-0.07344500000000001,-0.017537,0.114633,-0.284155,0.121074
205,-2.224646,-1.176555,1.0500559999999999,-0.304869,0.9232879999999999,0.23362,0.29599200000000003,0.100096,-0.282496,-0.0028399999999999996,-0.07052,0.20505500000000002
206,-2.215377,-1.17374,1.061605,-0.30909699999999996,0.9222030000000001,0.23234499999999997,-0.03053,-0.207353,-0.103853,-0.18955999999999998,0.467582,0.232697
207,-2.243297,-1.176584,1.0476,-0.300437,0.923299,0.239248,-0.145716,-1.072044,0.44978900000000005,-0.19822,0.46648599999999996,0.225794
208,-2.278909,-1.183218,1.036,-0.28707,0.9258270000000001,0.245804,0.21024400000000001,-1.099193,0.27071300000000004,-0.036752,0.7352449999999999,0.447143
209,-2.2785279999999997,-1.18825,1.047169,-0.28362,0.927717,0.24266300000000002,0.25708600000000004,-0.302222,-0.081411,0.039723,0.5025350000000001,0.157316
210,-2.2864419999999996,-1.179443,1.041843,-0.28784499999999996,0.924394,0.250251,-0.7494390000000001,0.04219,-0.35593800000000003,-0.102246,0.616271,0.062661
211,-2.306254,-1.164743,1.023248,-0.292876,0.918687,0.264993,-0.612424,-0.240952,-0.263819,-0.317704,0.501494,0.066275
212,-2.304027,-1.160767,1.024522,-0.296177,0.9171090000000001,0.266782,0.23519400000000001,0.291195,-0.07698300000000001,0.373662,0.04775,-0.38108600000000004
213,-2.292509,-1.168151,1.039917,-0.294139,0.920027,0.258872,0.396931,-0.51886,0.160194,0.46154300000000004,0.0085,-0.48113199999999995
214,-2.327301,-1.1717,1.0223280000000001,-0.28257899999999997,0.9214129999999999,0.266704,-0.416235,-0.948775,0.48407700000000004,0.184343,0.011295999999999999,-0.209148
215,-2.3599759999999996,-1.1718879999999998,0.9936229999999999,-0.273593,0.921486,0.27566999999999997,-0.291109,0.073321,0.251837,-0.485867,-0.038444,-0.32719899999999996
216,-2.348219,-1.168986,0.9951840000000001,-0.27871999999999997,0.9203549999999999,0.274309,0.117654,0.7038439999999999,-0.337911,-0.484937,-0.008565999999999999,-0.47921899999999995
217,-2.294835,-1.169606,1.03823,-0.292532,0.9205969999999999,0.258668,0.909033,0.618003,-0.602533,-0.082727,-0.101108,-0.20923000000000003
218,-2.239214,-1.177849,1.089257,-0.300494,0.923784,0.23729499999999998,0.999928,0.225739,-0.088649,-0.026364999999999996,-0.077013,-0.092046
219,-2.212543,-1.192446,1.1225459999999998,-0.29588000000000003,0.929275,0.2211,0.9132540000000001,-0.376402,0.317442,0.142179,0.050827,-0.075654
220,-2.190393,-1.206189,1.15038,-0.290279,0.934264,0.207056,0.741045,0.053183,0.130886,0.1291,-0.027648000000000002,-0.11525899999999999
221,-2.142399,-1.209056,1.184291,-0.297624,0.935282,0.191441,0.45351099999999994,1.276163,-0.429233,0.10779000000000001,-0.177119,-0.092534
222,-2.079932,-1.2006290000000002,1.2147430000000001,-0.315866,0.932267,0.176324,0.172474,1.8343939999999999,-0.724604,0.08944099999999999,-0.19253599999999998,-0.112604
223,-2.015763,-1.190328,1.246564,-0.33517399999999997,0.928491,0.159832,0.416688,1.600142,-0.6969609999999999,0.06640599999999999,-0.23600100000000002,-0.136578
224,-1.946654,-1.185075,1.2946870000000001,-0.349943,0.926527,0.138094,0.8634229999999999,0.9811540000000001,-0.5360189999999999,0.070463,-0.31966999999999995,-0.048769
225,-1.8838540000000001,-1.182234,1.345346,-0.360423,0.9254549999999999,0.11667000000000001,0.789276,0.767783,-0.39312199999999997,0.072429,-0.428613,0.012129000000000001
226,-1.830615,-1.183473,1.3850040000000001,-0.36501300000000003,0.9259229999999999,0.09702999999999999,0.784517,0.824765,0.012695999999999999,0.021309,-0.5362600000000001,-0.143371
227,-1.7608110000000001,-1.193973,1.445325,-0.361325,0.9298379999999999,0.069496,1.554188,0.581968,0.38905700000000004,-0.020954,-0.39860300000000004,-0.17461300000000002
228,-1.657313,-1.210387,1.551293,-0.351317,0.935752,0.030470999999999998,2.1235939999999998,0.034682,0.627676,-0.023819999999999997,-0.276634,-0.10681099999999999
229,-1.559221,-1.224507,1.655056,-0.339365,0.9406389999999999,-0.003928,1.55435,0.154854,0.6395689999999999,0.085809,-0.019405000000000002,-0.011391
230,-1.484416,-1.235823,1.726335,-0.327496,0.944419,-0.028360000000000003,0.9435379999999999,0.473505,0.6028479999999999,0.10506900000000001,0.083688,0.186853
231,-1.433331,-1.246422,1.76551,-0.315686,0.94785,-0.043670999999999995,0.375708,0.8877709999999999,0.594078,0.12353299999999999,0.136882,0.276856
232,-1.388889,-1.2580209999999998,1.787412,-0.302601,0.951483,-0.05566,0.194991,1.3228229999999999,0.6456689999999999,-0.099728,0.27842100000000003,0.254727
233,-1.349591,-1.269759,1.7983630000000002,-0.28926199999999996,0.9550290000000001,-0.065051,-0.056825,1.444516,0.534795,-0.426512,0.26709299999999997,0.11275
234,-1.3290600000000001,-1.275358,1.7938990000000001,-0.282669,0.956675,-0.069694,-0.12867699999999999,1.132391,0.064676,-0.557846,0.205862,0.12989
235,-1.313593,-1.2713,1.793627,-0.28531100000000004,0.955485,-0.075045,0.161441,0.46193199999999995,-0.35225,-0.6529520000000001,0.39110300000000003,-0.135267
236,-1.321443,-1.261321,1.785009,-0.295117,0.952493,-0.075152,-0.085992,-0.002804,-0.60121,-0.411609,0.386709,-0.16253399999999998
237,-1.340802,-1.249965,1.76902,-0.307029,0.948974,-0.071887,-0.18887,-0.49176000000000003,-0.5137079999999999,-0.256981,0.231233,-0.29501
238,-1.387775,-1.245917,1.737901,-0.313841,0.9476889999999999,-0.058089999999999996,-0.6476729999999999,-1.1306129999999999,-0.19455899999999998,0.16403,0.094822,-0.39826999999999996
239,-1.484621,-1.245458,1.665414,-0.31842,0.947543,-0.027507999999999998,-1.405138,-1.41326,-0.249694,0.28227199999999997,0.694669,-0.098301
240,-1.5981040000000002,-1.2357799999999999,1.565844,-0.328639,0.9444049999999999,0.008976999999999999,-1.710825,-0.7161609999999999,-0.619123,0.292491,0.697807,-0.134785
241,-1.698627,-1.222613,1.461215,-0.338385,0.939994,0.043493000000000004,-1.8070400000000002,0.389129,-0.419318,0.03478,0.545022,-0.017309
242,-1.7778669999999999,-1.211703,1.357148,-0.34389699999999995,0.9362159999999999,0.072246,-1.9181720000000002,1.092586,-0.15073499999999998,-0.028464,0.401644,0.007206000000000001
243,-1.8545669999999999,-1.200788,1.253795,-0.347139,0.9323239999999999,0.10124,-1.852695,0.811764,-0.044164,-0.11775,0.255786,-0.07574299999999999
244,-1.924434,-1.192249,1.173991,-0.34668000000000004,0.9292020000000001,0.127979,-1.3135370000000002,-0.143067,0.107172,-0.043548,0.157681,-0.156589
245,-1.9892,-1.186711,1.1139709999999998,-0.342366,0.927142,0.15223599999999998,-1.089673,-0.590472,0.176607,0.065495,-0.029131,-0.050735
246,-2.054186,-1.178965,1.059004,-0.338106,0.924211,0.177481,-1.100524,-0.762479,0.044292000000000005,0.088091,-0.134966,-0.03768
247,-2.11145,-1.167401,1.0189139999999999,-0.336535,0.919734,0.20202799999999999,-0.844999,-1.1712639999999999,-0.24716,0.078325,-0.253657,-0.100008
248,-2.1506990000000004,-1.1518680000000001,1.003565,-0.34025900000000003,0.9135260000000001,0.22288000000000002,-0.600489,-1.264357,-0.621347,0.09837699999999999,-0.44187600000000005,-0.153666
249,-2.176787,-1.134892,1.003236,-0.347028,0.906488,0.240479,-0.40930500000000003,-1.280748,-0.684084,0.090559,-0.665079,-0.205369
250,-2.1979349999999998,-1.1251639999999998,1.010551,-0.34899,0.902338,0.252927,0.048121,-1.478645,-0.343077,0.183722,-0.789103,-0.168043
251,-2.213828,-1.129541,1.022757,-0.341762,0.904216,0.256071,0.491833,-1.210683,0.192722,0.41176999999999997,-0.748317,-0.148649
252,-2.21906,-1.1427770000000002,1.038615,-0.330848,0.90979,0.250607,0.73075,-0.802134,0.380806,0.434196,-0.67218,-0.143109
253,-2.211121,-1.157727,1.058906,-0.321884,0.9158930000000001,0.239819,0.81939,-0.377118,0.311446,0.41172700000000007,-0.509216,-0.066052
254,-2.191312,-1.171163,1.085125,-0.316529,0.9212040000000001,0.226219,0.757854,-0.17936,0.194326,0.205384,-0.271378,0.148979
255,-2.1808259999999997,-1.178618,1.101069,-0.313245,0.9240790000000001,0.21894699999999997,0.25354499999999996,-0.217633,0.07975800000000001,0.104505,-0.180335,0.184832
256,-2.1841459999999997,-1.177227,1.10115,-0.313567,0.9235459999999999,0.220725,-0.158974,-0.11200399999999999,-0.136903,-0.11374000000000001,0.094108,0.318322
257,-2.184879,-1.173828,1.099844,-0.31597,0.9222370000000001,0.22276300000000002,-0.064345,-0.125353,-0.077473,-0.410105,0.546284,0.34863299999999997
258,-2.1993669999999996,-1.1731260000000001,1.095313,-0.313232,0.921966,0.22769699999999998,-0.086961,-0.754312,0.053498000000000004,-0.45814499999999997,0.7209939999999999,0.30346100000000004
259,-2.216256,-1.1725,1.0994030000000001,-0.309803,0.921723,0.233302,0.093003,-1.054443,-0.171323,-0.055202,0.583267,0.34435
260,-2.23336,-1.165123,1.1017489999999999,-0.31112,0.9188370000000001,0.242743,-0.47530600000000006,-0.786162,-0.44268199999999996,0.120157,1.084429,0.217996
261,-2.248136,-1.1498700000000002,1.086121,-0.318385,0.912711,0.25606799999999996,-0.740066,0.323977,-0.24406,-0.158894,1.2440120000000001,0.09964500000000001
262,-2.2463900000000003,-1.140792,1.069679,-0.325285,0.908964,0.260683,-0.43718100000000004,1.0959709999999998,-0.157476,0.658567,0.29699899999999996,-0.583757
263,-2.23832,-1.137273,1.059955,-0.329888,0.9074909999999999,0.26002800000000004,-0.18775,0.36643400000000004,0.11439300000000001,0.42998500000000006,-0.08321100000000001,-0.6008789999999999
264,-2.2629099999999998,-1.139532,1.04102,-0.321815,0.908438,0.266751,-0.35434899999999997,-0.48988000000000004,0.482864,0.170829,-0.395468,-0.3475
265,-2.290076,-1.1386889999999998,1.0043549999999999,-0.315027,0.908085,0.275898,-0.7614850000000001,0.7876380000000001,0.240169,-0.26293,-0.193287,-0.2654
266,-2.281816,-1.126629,0.986507,-0.325569,0.902969,0.280414,-0.439936,1.401729,-0.427079,-0.394356,-0.08216799999999999,-0.321292
267,-2.231568,-1.1232600000000001,1.0100069999999999,-0.341642,0.901516,0.265573,0.679809,1.424991,-0.288964,-0.43022299999999997,-0.054058,-0.276071
268,-2.183154,-1.138254,1.041971,-0.342994,0.907903,0.24093,1.082946,0.676106,0.425179,0.014793,0.430629,-0.066553
269,-2.140853,-1.1556899999999999,1.076178,-0.339496,0.9150729999999999,0.217633,1.003544,0.562343,0.17267000000000002,0.125415,0.410778,-0.042905
270,-2.092912,-1.160402,1.114067,-0.345794,0.916963,0.198961,0.6337189999999999,0.797064,-0.395303,0.226867,0.076002,-0.14168
271,-2.035921,-1.1549180000000001,1.15009,-0.361055,0.9147620000000001,0.181195,0.47228100000000006,1.423941,-0.645062,0.258592,-0.526349,-0.187527
272,-1.9695669999999998,-1.149093,1.182873,-0.37718,0.912393,0.158923,0.47506400000000004,2.014319,-0.435359,0.24511599999999997,-0.516717,-0.16598800000000002
273,-1.912216,-1.1483510000000001,1.202899,-0.386307,0.9120889999999999,0.137269,0.295271,1.833234,-0.016572,0.22773800000000002,-0.43290200000000006,-0.113724
274,-1.8705180000000001,-1.154151,1.215228,-0.38663200000000003,0.914452,0.11948199999999999,0.40483,1.324665,0.262583,0.012365000000000001,-0.043144,-0.10918199999999999
275,-1.8263639999999999,-1.159386,1.240485,-0.386892,0.916558,0.101088,0.640357,0.9798540000000001,-0.025886000000000003,-0.019953,-0.08333600000000001,-0.097426
276,-1.7670599999999999,-1.161565,1.279859,-0.390243,0.917427,0.077589,0.922112,1.2589569999999999,-0.00398,0.130966,-0.518578,-0.10453599999999999
277,-1.688421,-1.1723299999999999,1.343015,-0.385303,0.921657,0.045531,1.4891370000000002,0.7741680000000001,0.591329,0.24005500000000002,-0.361202,-0.20735100000000004
278,-1.621346,-1.190361,1.403246,-0.370829,0.9285030000000001,0.018761,0.8896280000000001,0.5622189999999999,0.8341719999999999,0.22760999999999998,-0.05065,0.0033490000000000004
279,-1.584388,-1.203627,1.421095,-0.358919,0.9333469999999999,0.004879,0.118621,1.282014,0.520216,-0.068938,0.25209299999999996,0.261677
280,-1.552402,-1.210485,1.4269319999999999,-0.352484,0.935787,-0.0064849999999999994,0.188845,1.258149,0.300684,-0.181955,-0.108852,0.149612
281,-1.520176,-1.22062,1.4439030000000002,-0.342602,0.939312,-0.017358000000000002,0.27055300000000004,0.604328,0.697334,-0.208729,0.10477,0.255044
282,-1.48969,-1.236461,1.460149,-0.32704,0.944629,-0.026583,0.19342,0.8492959999999999,0.77553,-0.273775,0.273008,0.267443
283,-1.4601389999999999,-1.247517,1.474037,-0.315711,0.948199,-0.035079,0.164804,0.770942,0.41544,-0.48444499999999996,0.14944200000000002,0.155227
284,-1.434624,-1.2500719999999998,1.4883620000000002,-0.312312,0.9490069999999999,-0.042793,0.228214,0.495274,0.034881,-0.509526,0.232557,0.209083
285,-1.411239,-1.249321,1.505351,-0.31193000000000004,0.9487700000000001,-0.050197000000000006,0.33210500000000004,0.29273000000000005,-0.019681999999999998,-0.315267,0.360739,0.057537
286,-1.398507,-1.247675,1.518041,-0.312805,0.948249,-0.054433,-0.018356,-0.061845000000000004,-0.022743,-0.29246500000000003,0.61268,-0.07313099999999999
287,-1.4167299999999998,-1.248716,1.496357,-0.312769,0.9485790000000001,-0.048572000000000004,-0.49762399999999996,0.147457,-0.000722,-0.097586,0.183883,-0.21204800000000001
288,-1.45466,-1.2513459999999998,1.4575850000000001,-0.311906,0.949408,-0.036388,-0.6748569999999999,-0.26986,0.085101,0.155305,-0.143805,-0.309895
289,-1.5248620000000002,-1.253326,1.399965,-0.311812,0.9500280000000001,-0.014333000000000002,-1.1001049999999999,-1.054928,-0.08884700000000001,0.25193699999999997,-0.07045,-0.212626
290,-1.630365,-1.243899,1.3132979999999999,-0.320513,0.9470430000000001,0.019115,-1.547485,-1.1854719999999999,-0.620575,-0.199155,0.45852,-0.297939
291,-1.746552,-1.2264,1.2147370000000002,-0.332404,0.9412799999999999,0.05903099999999999,-1.7010299999999998,-1.0406739999999999,-0.733996,-0.12606199999999998,0.5903520000000001,-0.195078
292,-1.8320150000000002,-1.205452,1.140767,-0.34512800000000005,0.934001,0.092262,-1.373237,-0.698987,-0.6851430000000001,-0.002833,0.486333,-0.10553699999999999
293,-1.899088,-1.18784,1.078323,-0.353687,0.9275639999999999,0.12047200000000001,-1.37714,-0.34109,-0.406823,0.136692,0.402133,0.031521
294,-1.963768,-1.173066,1.014694,-0.357782,0.921942,0.148313,-1.343792,-0.323875,-0.212195,0.133356,0.39115300000000003,-0.034513
295,-2.024626,-1.160899,0.963102,-0.358155,0.917162,0.174704,-1.0876219999999999,-0.8993979999999999,-0.099642,0.10450799999999999,0.185271,-0.141928
296,-2.086242,-1.15086,0.9226209999999999,-0.354711,0.913115,0.200954,-0.8810530000000001,-1.4318229999999998,-0.06547,0.03391,-0.041274,-0.144482
297,-2.145508,-1.141163,0.8975200000000001,-0.3496,0.909119,0.22641399999999998,-0.558515,-1.976719,-0.20993299999999998,0.0008609999999999999,-0.21539299999999997,-0.131596
298,-2.189993,-1.131075,0.892967,-0.346637,0.9048700000000001,0.247047,-0.285376,-1.98413,-0.45798,0.069354,-0.305078,-0.132072
299,-2.222426,-1.118488,0.896904,-0.347472,0.8994409999999999,0.265045,-0.314973,-1.79397,-0.567389,0.165725,-0.386898,-0.167678
300,-2.25211,-1.10887,0.9051530000000001,-0.346157,0.8951950000000001,0.280677,0.009346,-1.8321349999999998,-0.362112,0.179623,-0.6093529999999999,-0.177406
301,-2.276248,-1.1133680000000001,0.918235,-0.336213,0.897191,0.28633600000000003,0.566656,-1.704059,0.158636,0.25351,-0.689412,-0.19273900000000002
302,-2.287303,-1.126341,0.9340040000000001,-0.324221,0.9028450000000001,0.282366,0.683524,-0.9572209999999999,0.303773,0.409976,-0.625318,-0.145098
303,-2.2885459999999997,-1.138152,0.9452870000000001,-0.315814,0.90786,0.27573600000000004,0.5049279999999999,-0.404525,0.237724,0.417133,-0.47853900000000005,-0.08404
304,-2.284141,-1.146839,0.9544799999999999,-0.31105,0.9114680000000001,0.269171,0.36887,-0.10769200000000001,0.184051,0.274582,-0.339431,0.05550599999999999
305,-2.28523,-1.152895,0.9569040000000001,-0.306581,0.9139430000000001,0.265887,0.145464,-0.186871,0.198615,0.045564,-0.225726,0.153943
306,-2.292948,-1.157163,0.95409,-0.301589,0.915666,0.265664,0.091776,-0.275055,0.186602,-0.049623,-0.196184,0.17407899999999998
307,-2.298402,-1.160762,0.954779,-0.297672,0.917107,0.265111,0.166653,-0.347289,0.07078200000000001,-0.13583,-0.039101,0.169689
308,-2.3023540000000002,-1.16487,0.962205,-0.29381599999999997,0.918737,0.263766,0.266332,-0.717299,0.074089,-0.212669,0.416041,0.217709
309,-2.318649,-1.166965,0.96335,-0.288067,0.9195620000000001,0.26720900000000003,-0.03926,-0.875801,0.01661,-0.22076700000000002,0.638513,0.232211
310,-2.324366,-1.165852,0.971391,-0.287281,0.9191239999999999,0.269552,0.176749,-0.513462,-0.20667199999999997,0.042727999999999995,0.578968,0.46030600000000005
311,-2.33124,-1.158223,0.973017,-0.290493,0.916092,0.276345,-0.689884,-0.285051,-0.372173,0.025417,1.063461,0.11900999999999999
312,-2.350261,-1.138827,0.948543,-0.297769,0.908143,0.294257,-0.959298,0.386675,-0.289457,-0.245871,1.1590260000000001,0.085077
313,-2.3344240000000003,-1.1306370000000001,0.9495530000000001,-0.30775399999999997,0.904684,0.294637,0.18293,0.961324,-0.330285,0.162597,0.335444,-0.224966
314,-2.304323,-1.135788,0.9735799999999999,-0.313017,0.906867,0.282118,0.5574819999999999,-0.134213,-0.014343999999999999,0.37209899999999996,-0.5851810000000001,-0.500426
315,-2.326844,-1.139621,0.9688,-0.304053,0.908475,0.286709,-0.313788,-1.1667969999999999,0.290677,0.26363200000000003,-0.425626,-0.548
316,-2.3670560000000003,-1.132462,0.940442,-0.296823,0.90546,0.303342,-0.757794,-0.2779,0.028995,-0.45393999999999995,0.277554,-0.020047
317,-2.357859,-1.125677,0.9378610000000001,-0.30393000000000003,0.902559,0.30494299999999996,0.114205,0.9102379999999999,-0.28263,-0.643961,0.37411300000000003,-0.287945
318,-2.308667,-1.131713,0.9710260000000001,-0.31451999999999997,0.905142,0.285959,1.028621,0.9241209999999999,-0.284806,-0.151193,0.196512,-0.23523899999999998
319,-2.251085,-1.140944,1.0198200000000002,-0.323947,0.909027,0.26211799999999996,0.9860620000000001,0.443956,-0.316535,0.159244,-0.067886,-0.086352
320,-2.214656,-1.146673,1.055399,-0.329108,0.9114,0.247015,0.663741,0.126885,-0.132509,0.195319,-0.1334,-0.21347600000000003
321,-2.184329,-1.15401,1.0828790000000001,-0.33097,0.9143950000000001,0.233066,0.682822,0.457633,-0.011023,0.19434300000000002,-0.154461,-0.259052
322,-2.138414,-1.1602709999999998,1.109708,-0.336486,0.916911,0.214548,0.541177,1.436158,-0.038903,0.159255,-0.333476,-0.120019
323,-2.090834,-1.1643430000000001,1.123418,-0.343065,0.918529,0.196443,0.243808,1.839463,0.061051999999999995,0.10693599999999999,-0.201945,-0.14843900000000002
324,-2.042563,-1.167658,1.138403,-0.34943,0.919834,0.178276,0.455452,1.585615,-0.043966000000000005,0.047337,-0.108891,-0.18123599999999998
325,-1.9871619999999999,-1.1711559999999999,1.171677,-0.35581999999999997,0.921201,0.157351,0.745927,1.0609389999999999,-0.155565,0.102143,-0.23112199999999997,-0.046786
326,-1.931516,-1.172919,1.210288,-0.362501,0.9218860000000001,0.136744,0.691555,1.02615,-0.199697,0.199522,-0.5983539999999999,-0.07700599999999999
327,-1.8736130000000002,-1.178202,1.250931,-0.365154,0.923919,0.11408299999999999,1.018289,0.968176,0.161582,0.184901,-0.660339,-0.16960999999999998
328,-1.790872,-1.1946379999999999,1.3254,-0.358462,0.930083,0.080188,1.8346689999999999,0.45774499999999996,0.559976,-0.015027,-0.188094,-0.069155
329,-1.7048240000000001,-1.212046,1.413206,-0.347927,0.9363360000000001,0.046912999999999996,1.453635,0.174689,0.546995,-0.08971,0.086338,0.022499
330,-1.6490639999999999,-1.2227940000000002,1.4656959999999999,-0.33994800000000003,0.940056,0.026661,0.742922,0.435676,0.365439,-0.090045,0.131798,-0.008702
331,-1.606722,-1.229193,1.499369,-0.334753,0.942219,0.012031,0.494364,0.6019720000000001,0.286578,0.034689,-0.005039,0.163796
332,-1.5728360000000001,-1.237967,1.5193299999999998,-0.32668800000000003,0.9451219999999999,0.000666,0.29152100000000003,0.8211229999999999,0.535913,-0.034151999999999995,-0.00023700000000000001,0.253469
333,-1.537526,-1.250651,1.539042,-0.3145,0.94919,-0.010467,0.300572,0.812112,0.650287,-0.136016,-0.003389,0.23541199999999998
334,-1.507362,-1.259852,1.555413,-0.305311,0.952045,-0.019393,0.2088,0.697716,0.30048400000000003,-0.517259,0.275387,0.156555
335,-1.480832,-1.258968,1.570838,-0.305529,0.951774,-0.027561000000000002,0.251663,0.518316,-0.160458,-0.522306,0.125832,0.10573199999999999
336,-1.456918,-1.255759,1.587113,-0.307815,0.950785,-0.035206,0.284844,0.38471900000000003,-0.079939,-0.45427,0.158132,0.177021
337,-1.43489,-1.2532219999999998,1.605112,-0.309354,0.949996,-0.042304,0.19301,0.119823,-0.08985499999999999,-0.329485,0.5956130000000001,-0.0011070000000000001
338,-1.443919,-1.250842,1.591145,-0.311965,0.94925,-0.039795,-0.349431,0.313119,-0.272285,-0.12877,0.305023,-0.142456
339,-1.468898,-1.244035,1.5629110000000002,-0.319282,0.9470870000000001,-0.032647,-0.45426400000000006,-0.105752,-0.393189,0.093391,-0.081761,-0.252311
340,-1.516784,-1.237011,1.521844,-0.32711399999999996,0.944809,-0.017685,-0.783015,-0.670041,-0.451378,0.11364300000000001,-0.188873,-0.390365
341,-1.601076,-1.2237200000000001,1.458451,-0.339965,0.940371,0.010297,-1.1845,-1.568458,-0.804476,-0.1335,0.12447899999999999,-0.34715
342,-1.700698,-1.207101,1.38228,-0.352704,0.9345889999999999,0.046076,-1.536706,-1.150488,-0.594896,-0.141574,0.711118,-0.027857
343,-1.785897,-1.191797,1.298251,-0.36143600000000004,0.929035,0.078967,-1.664565,0.157777,-0.510939,0.336564,0.8870959999999999,-0.038699000000000004
344,-1.8505009999999997,-1.17335,1.216661,-0.371994,0.922053,0.10685,-1.725813,0.6401399999999999,-0.406231,0.27355999999999997,0.42976899999999996,-0.022896
345,-1.910797,-1.160664,1.1431069999999999,-0.37587800000000005,0.917068,0.132962,-1.438591,0.091244,-0.053145000000000005,0.076333,0.240479,-0.15936
346,-1.970221,-1.1525450000000002,1.086756,-0.374165,0.913801,0.157941,-1.094553,-0.647526,0.048481,0.091862,0.162402,-0.184201
347,-2.030673,-1.14454,1.041138,-0.37048200000000003,0.9105200000000001,0.183498,-0.9723930000000001,-1.06423,-0.012088,0.031524,0.014056,-0.101864
348,-2.08623,-1.1341649999999999,1.006134,-0.36792199999999997,0.9061809999999999,0.20843299999999998,-0.8338450000000001,-1.26325,-0.178576,0.022341,-0.167046,-0.11041
349,-2.133172,-1.122817,0.983532,-0.366412,0.901324,0.23093699999999998,-0.642967,-1.384953,-0.278568,0.084323,-0.291568,-0.066493
350,-2.1739319999999998,-1.109467,0.9714209999999999,-0.366575,0.8954610000000001,0.25247800000000004,-0.5307890000000001,-1.553903,-0.482667,0.058575999999999996,-0.26126,-0.153937
351,-2.207183,-1.096503,0.9726090000000001,-0.367285,0.889616,0.271402,-0.241364,-1.789016,-0.545505,0.06229199999999999,-0.369184,-0.20792600000000003
352,-2.234641,-1.090849,0.982176,-0.363651,0.887019,0.284478,0.184962,-1.7706119999999999,-0.190038,0.07316900000000001,-0.660594,-0.200021
353,-2.2559009999999997,-1.100425,0.9928879999999999,-0.350926,0.8914,0.286756,0.626918,-1.346339,0.418187,0.329396,-0.740933,-0.091977
354,-2.265927,-1.116806,1.004014,-0.336773,0.8987040000000001,0.280868,0.7456229999999999,-0.815157,0.412995,0.447658,-0.560829,-0.084609
355,-2.261206,-1.131338,1.0213940000000001,-0.32799,0.904982,0.270928,0.743613,-0.439662,0.285381,0.361483,-0.45104799999999995,-0.007058
356,-2.2518279999999997,-1.142833,1.039719,-0.322412,0.9098129999999999,0.261272,0.58991,-0.359725,0.142131,0.105523,-0.319511,0.098576
357,-2.244998,-1.148696,1.054793,-0.32001599999999997,0.9122299999999999,0.25573,0.331588,-0.333594,-0.041304,0.0046630000000000005,-0.236709,0.125236
358,-2.241196,-1.148516,1.066362,-0.321115,0.912157,0.25461300000000003,0.09322899999999999,-0.34918499999999997,-0.19784100000000002,-0.08945399999999999,0.043944,0.234477
359,-2.2514830000000003,-1.148184,1.066251,-0.318714,0.9120209999999999,0.258094,-0.068912,-0.709012,0.149728,-0.29380500000000004,0.625165,0.224923
360,-2.282819,-1.149948,1.0540690000000001,-0.30925199999999997,0.9127430000000001,0.266901,-0.12499,-1.0445209999999998,0.18501700000000001,-0.23704299999999998,0.843391,0.302557
361,-2.292227,-1.1533930000000001,1.057664,-0.304365,0.9141450000000001,0.26771999999999996,0.355027,-0.295593,0.018642,0.125425,0.173456,0.155971
362,-2.277372,-1.155441,1.075974,-0.306884,0.9149729999999999,0.26195300000000005,0.11438800000000002,-0.261549,-0.293935,0.057998,0.377339,-0.1238
363,-2.2947330000000004,-1.1407040000000002,1.062669,-0.312359,0.908927,0.276144,-0.9891049999999999,-0.181728,-0.383999,-0.045870999999999995,0.696724,-0.015859
364,-2.303378,-1.132002,1.055326,-0.31583,0.905265,0.284114,0.068872,0.046622000000000004,-0.06498,0.10181,0.342325,-0.256419
365,-2.284966,-1.141899,1.0687799999999998,-0.31422100000000003,0.909425,0.272368,0.659759,0.12728499999999998,0.29583000000000004,0.403882,-0.059694000000000004,-0.386901
366,-2.295442,-1.150795,1.0677649999999999,-0.30528099999999997,0.9130879999999999,0.27027199999999996,-0.062808,-0.8238639999999999,0.353958,0.45378,-0.20440899999999998,-0.5578390000000001
367,-2.3348240000000002,-1.149302,1.037595,-0.295387,0.912479,0.283024,-0.579465,-0.165888,0.360188,-0.494713,0.260083,-0.11093599999999999
368,-2.33415,-1.148678,1.023145,-0.295989,0.912223,0.28321799999999997,-0.004131,0.9913879999999999,0.031575,-0.549425,0.129754,-0.408447
369,-2.2953770000000002,-1.148906,1.0469110000000001,-0.306589,0.912317,0.271394,0.582087,0.758387,-0.549417,-0.38883,0.018363,-0.517702
370,-2.233784,-1.150938,1.0956569999999999,-0.321252,0.9131469999999999,0.250867,0.890468,0.836936,-0.480066,0.026543999999999998,-0.13189700000000001,-0.26910100000000003
371,-2.183771,-1.156511,1.134727,-0.329225,0.9154040000000001,0.231562,0.7523449999999999,0.624991,-0.105813,0.20381300000000002,0.025697,-0.08806900000000001
372,-2.1433240000000002,-1.165748,1.166051,-0.33119699999999996,0.919083,0.21347,0.771112,0.718966,0.086478,0.25356,0.02806,-0.07118200000000001
373,-2.095697,-1.1717629999999999,1.1934790000000002,-0.336194,0.9214370000000001,0.194686,0.510288,1.341796,-0.130855,0.174039,-0.15334,-0.084624
374,-2.04238,-1.170552,1.216404,-0.347086,0.920966,0.177,0.27917600000000004,1.730007,-0.309223,0.11246700000000001,-0.24365900000000001,-0.09689099999999999
375,-1.988317,-1.167039,1.236769,-0.359099,0.9195909999999999,0.159297,0.347513,1.72027,-0.33116599999999996,0.015105,-0.22882600000000003,-0.19451400000000002
376,-1.930423,-1.166405,1.266809,-0.368261,0.919342,0.138458,0.633342,1.362911,-0.189843,0.124991,-0.274414,-0.06871000000000001
377,-1.876416,-1.168696,1.3006209999999998,-0.37319,0.920241,0.117743,0.647494,1.070496,-0.069728,0.188558,-0.42790100000000003,-0.013297
378,-1.8258590000000001,-1.173519,1.3322,-0.374363,0.922118,0.097612,0.7200529999999999,1.063996,0.160455,0.164875,-0.471724,-0.044222000000000004
379,-1.7603209999999998,-1.184046,1.380785,-0.370398,0.92614,0.071052,1.224442,0.996348,0.389459,0.020682,-0.366203,-0.093437
380,-1.676654,-1.198232,1.454703,-0.36193800000000004,0.9313969999999999,0.038458,1.501328,0.5771189999999999,0.5596409999999999,-0.068466,-0.125641,0.028803
381,-1.606085,-1.211608,1.522996,-0.35126599999999997,0.936182,0.012401,1.084871,0.265347,0.565678,-0.103828,0.016012000000000002,0.0761
382,-1.553556,-1.22203,1.571593,-0.341658,0.939795,-0.0058909999999999995,0.7391909999999999,0.414972,0.47761400000000004,-0.023332,-0.047079,0.069642
383,-1.512612,-1.2312610000000002,1.6045690000000001,-0.332456,0.94291,-0.019365,0.421654,0.537382,0.51049,-0.025042,-0.0019,0.173296
384,-1.478911,-1.243144,1.6267969999999998,-0.32043299999999997,0.9468,-0.029526,0.28830100000000003,0.713979,0.685589,-0.146012,0.152168,0.245194
385,-1.443423,-1.25702,1.647489,-0.306122,0.951175,-0.039204,0.21075100000000002,0.7951819999999999,0.692421,-0.264465,0.270825,0.23875900000000003
386,-1.414029,-1.26511,1.661607,-0.29722600000000005,0.953641,-0.046981,0.144518,0.790874,0.229423,-0.401108,0.240207,0.152724
387,-1.3910930000000001,-1.265123,1.6713779999999998,-0.296059,0.953644,-0.053783000000000004,0.150088,0.584168,-0.030919,-0.49637600000000004,0.117675,0.131236
388,-1.369821,-1.263421,1.6839389999999999,-0.29643800000000003,0.953131,-0.060391999999999994,0.274206,0.373027,-0.084261,-0.36944,0.30733699999999997,0.03758
389,-1.362938,-1.261603,1.690805,-0.297709,0.9525790000000001,-0.062788,-0.089416,-0.031689999999999996,-0.05744,-0.318319,0.586956,-0.063692
390,-1.383797,-1.260651,1.6670779999999998,-0.299845,0.9522889999999999,-0.05673400000000001,-0.458946,0.045531999999999996,-0.133827,-0.064458,0.21866999999999998,-0.17544400000000002
391,-1.4181780000000002,-1.259892,1.636894,-0.302333,0.9520569999999999,-0.046502999999999996,-0.440802,-0.661887,-0.130658,-0.012563,-0.082245,-0.517385
392,-1.496573,-1.256009,1.585384,-0.30873,0.9508620000000001,-0.022956999999999998,-1.061365,-1.8090970000000002,-0.414465,0.003295,0.254994,-0.17255399999999999
393,-1.612603,-1.242556,1.4944520000000001,-0.32206399999999996,0.9466110000000001,0.013472,-1.59771,-1.1750450000000001,-0.801447,0.016628999999999998,0.259245,-0.208983
394,-1.7221939999999998,-1.2233559999999999,1.395103,-0.336567,0.9402469999999999,0.051349,-1.713715,-0.58787,-0.752803,0.134938,0.662185,-0.159884
395,-1.80473,-1.2085059999999999,1.312396,-0.34473400000000004,0.9350879999999999,0.082149,-1.4767139999999999,-0.063361,-0.258301,0.111321,0.250322,0.013737000000000001
396,-1.876818,-1.198724,1.2330139999999998,-0.34662800000000005,0.9315760000000001,0.109516,-1.574966,0.156521,-0.015715,0.079218,0.24939299999999998,-0.088611
397,-1.951324,-1.188065,1.151981,-0.34671599999999997,0.9276479999999999,0.138695,-1.495064,-0.093086,-0.002018,0.067754,0.168238,-0.166405
398,-2.017111,-1.178751,1.0909659999999999,-0.34462600000000004,0.9241299999999999,0.16491,-1.130886,-0.643295,0.080279,0.063239,-0.097927,-0.043282
399,-2.08259,-1.171132,1.0386520000000001,-0.339227,0.921192,0.190549,-1.037613,-0.994188,0.10381300000000002,0.037057,-0.18368800000000002,-0.059278
400,-2.139328,-1.1603649999999999,1.002536,-0.336214,0.916949,0.21480700000000003,-0.7525310000000001,-1.26023,-0.21218499999999998,0.066652,-0.296481,-0.108392
401,-2.179094,-1.148901,0.9880469999999999,-0.336014,0.912314,0.233996,-0.47900699999999996,-1.308567,-0.349081,0.095276,-0.440665,-0.12109600000000001
402,-2.2102180000000002,-1.138416,0.982468,-0.336227,0.9079709999999999,0.25003400000000003,-0.342233,-1.3067309999999999,-0.39406199999999997,0.138733,-0.530346,-0.135502
403,-2.231823,-1.130087,0.987952,-0.336704,0.90445,0.261872,-0.038407,-1.311181,-0.343864,0.085987,-0.6754760000000001,-0.149095
404,-2.248242,-1.1331120000000001,0.9972209999999999,-0.330226,0.9057360000000001,0.26564899999999997,0.449221,-1.227722,0.20636500000000002,0.17274,-0.7027479999999999,-0.13009
405,-2.256966,-1.147691,1.011773,-0.31764499999999996,0.911818,0.260125,0.79289,-0.9359620000000001,0.472242,0.297442,-0.639418,-0.122262
406,-2.254506,-1.166118,1.028778,-0.305204,0.9192290000000001,0.248685,0.889595,-0.557018,0.46175,0.338163,-0.45603299999999997,-0.079846
407,-2.239214,-1.182674,1.05269,-0.296984,0.9256209999999999,0.234523,0.81945,-0.20343699999999998,0.27920900000000004,0.21675300000000003,-0.27008899999999997,0.08749900000000001
408,-2.2211689999999997,-1.192523,1.074317,-0.293896,0.9293040000000001,0.22359400000000001,0.46481000000000006,-0.057451999999999996,0.043673000000000003,0.16164800000000001,-0.173017,0.160408
409,-2.212543,-1.191699,1.084333,-0.296428,0.928999,0.221509,-0.076919,-0.052273,-0.248538,0.086253,0.063371,0.272937
410,-2.218427,-1.183077,1.079084,-0.30149699999999996,0.925774,0.22807399999999997,-0.46122399999999997,-0.06705499999999999,-0.21488400000000002,-0.339067,0.6196520000000001,0.22801100000000002
411,-2.250212,-1.178903,1.054702,-0.2971,0.9241879999999999,0.23996599999999998,-0.42906099999999997,-0.713695,0.293575,-0.52132,0.85395,0.255502
412,-2.282223,-1.181718,1.040033,-0.28729499999999997,0.925259,0.247652,0.077195,-0.9005270000000001,0.22364299999999998,-0.25445300000000004,0.57407,0.5408609999999999
413,-2.2798580000000004,-1.184251,1.052196,-0.2861,0.926217,0.24544499999999997,0.301481,-0.126129,-0.229765,-0.024997,0.013984,0.22817300000000001
414,-2.263993,-1.177207,1.0723799999999999,-0.294969,0.9235389999999999,0.24503899999999998,-0.22402600000000003,-0.45598,-0.6688470000000001,-0.115034,0.380905,-0.105527
415,-2.288479,-1.155853,1.061922,-0.303673,0.9151389999999999,0.265099,-0.9423739999999999,-0.9469299999999999,-0.614484,-0.247902,0.6123109999999999,0.001457
416,-2.302868,-1.149393,1.066327,-0.304218,0.912516,0.273387,0.376126,-0.710707,-0.09283,0.455585,0.300009,-0.487224
417,-2.2706939999999998,-1.1610610000000001,1.098298,-0.304689,0.917226,0.256583,0.9933569999999999,0.43522700000000003,-0.019485,0.615358,-0.152776,-0.459937
418,-2.243315,-1.167402,1.124931,-0.307043,0.919734,0.24451799999999999,0.289724,-0.204512,-0.06523999999999999,0.29497399999999996,0.070287,-0.278911
419,-2.264486,-1.165291,1.109695,-0.303289,0.918903,0.252203,-0.546784,-0.179278,0.20982699999999999,-0.326303,0.12347000000000001,-0.18929100000000001
420,-2.2818650000000003,-1.1632069999999999,1.085813,-0.30031199999999997,0.9180790000000001,0.258685,-0.25064000000000003,0.366442,0.144966,-0.39918200000000004,0.088436,-0.47661099999999995
421,-2.2628619999999997,-1.164419,1.095903,-0.304316,0.918559,0.252222,0.49023100000000003,0.586864,-0.20799600000000001,-0.21068299999999998,-0.109126,-0.323892
422,-2.208365,-1.171411,1.1379350000000001,-0.312435,0.9213,0.23144299999999998,0.990836,0.858965,-0.223007,-0.066365,-0.049184,-0.218473
423,-2.150275,-1.179027,1.18287,-0.319463,0.924235,0.209064,0.8674379999999999,0.7707,-0.15432200000000001,0.137532,0.09007799999999999,-0.118351
424,-2.0977349999999997,-1.185106,1.226212,-0.325139,0.9265389999999999,0.18917,0.869183,0.627112,-0.21181,0.174566,-0.085276,-0.20010999999999998
425,-2.0385720000000003,-1.187691,1.270453,-0.333617,0.927509,0.168534,0.708604,1.138259,-0.292635,0.17413199999999998,-0.26117199999999996,-0.13351500000000002
426,-1.9804990000000002,-1.1878440000000001,1.301083,-0.342708,0.927566,0.14883,0.40522199999999997,1.62469,-0.19603199999999998,0.192378,-0.28012,-0.123806
427,-1.9343759999999999,-1.187498,1.3144870000000002,-0.349506,0.927436,0.132985,0.140515,1.705079,-0.09009400000000001,0.15248399999999998,-0.240119,-0.171575
428,-1.8865290000000001,-1.1860870000000001,1.329291,-0.35670999999999997,0.9269069999999999,0.116523,0.369073,1.67055,-0.17818399999999998,0.117086,-0.23322800000000002,-0.20210899999999998
429,-1.8253700000000002,-1.1873340000000001,1.36475,-0.362045,0.927375,0.094211,0.804272,1.256445,-0.094497,0.11377000000000001,-0.335746,-0.072132
430,-1.755742,-1.189243,1.413979,-0.36598200000000003,0.9280870000000001,0.068469,0.954608,1.225069,-0.10408900000000001,0.073822,-0.533877,-0.073871
431,-1.675805,-1.193396,1.4737879999999999,-0.36644499999999997,0.9296260000000001,0.038622000000000004,1.3040100000000001,1.152397,0.18366,0.097845,-0.415512,-0.18854
432,-1.580691,-1.204043,1.557585,-0.358539,0.9334969999999999,0.0035479999999999995,1.570072,0.669515,0.5632199999999999,0.062137,0.082098,-0.05529
433,-1.51092,-1.215325,1.619477,-0.347379,0.9374819999999999,-0.020825,0.7131270000000001,0.624538,0.5658380000000001,-0.093035,0.14288599999999999,0.252133
434,-1.471196,-1.224792,1.640927,-0.337432,0.940735,-0.03372,0.171779,1.171058,0.494058,-0.084397,0.002166,0.272856
435,-1.440156,-1.2342600000000001,1.6501549999999998,-0.327376,0.9439040000000001,-0.043014,0.073803,0.99554,0.516031,-0.13849,-0.045711,0.28994699999999995
436,-1.415605,-1.247427,1.657212,-0.313913,0.9481700000000001,-0.049112,0.017888,0.8925360000000001,0.748645,-0.255331,0.152706,0.369332
437,-1.383942,-1.2609219999999999,1.670827,-0.299598,0.9523719999999999,-0.056642,0.139119,0.9118129999999999,0.6180760000000001,-0.55996,0.140981,0.122545
438,-1.356792,-1.26688,1.685534,-0.292401,0.9541719999999999,-0.06354800000000001,0.165126,0.521632,0.13592100000000001,-0.573947,0.12195399999999999,0.200969
439,-1.336973,-1.263815,1.6982509999999997,-0.293928,0.95325,-0.070008,0.285998,0.266851,-0.18978399999999998,-0.44441499999999995,0.556607,-0.046387
440,-1.318135,-1.255874,1.7209139999999998,-0.299877,0.9508209999999999,-0.077422,0.402023,-0.43595500000000004,-0.358989,-0.36836599999999997,0.567154,-0.06930700000000001
441,-1.328597,-1.248753,1.7176049999999998,-0.307238,0.948591,-0.075903,-0.105705,-0.21351399999999998,-0.401276,-0.091459,0.21550300000000003,-0.19028699999999998
442,-1.354292,-1.242492,1.6989040000000002,-0.314881,0.9465899999999999,-0.069259,-0.27425,-0.588284,-0.30690100000000003,0.020921000000000002,0.056430999999999995,-0.450273
443,-1.404698,-1.2406270000000001,1.6702990000000002,-0.319711,0.9459879999999999,-0.053597000000000006,-0.6017680000000001,-1.571199,-0.10710399999999999,0.168283,0.112133,-0.352027
444,-1.499401,-1.240046,1.6098139999999999,-0.323895,0.945799,-0.023163999999999997,-1.1439979999999998,-1.797655,-0.281517,0.24648699999999998,0.5548569999999999,-0.29666
445,-1.608698,-1.228489,1.521282,-0.335389,0.941983,0.012718,-1.673945,-0.945169,-0.686894,0.106401,0.626758,-0.096702
446,-1.703697,-1.213666,1.423278,-0.346474,0.9369040000000001,0.04632,-1.6809919999999998,0.28449800000000003,-0.49944399999999994,0.093544,0.45186000000000004,-0.005151
447,-1.7734470000000002,-1.203532,1.3366360000000002,-0.351686,0.933313,0.072262,-1.583382,0.559534,-0.100668,0.09875700000000001,0.45545,-0.031093
448,-1.8498400000000002,-1.196497,1.2491379999999999,-0.35144899999999996,0.9307639999999999,0.10069700000000001,-1.623651,0.114623,0.10685599999999999,0.106591,0.163551,-0.10721199999999999
449,-1.9281560000000002,-1.190572,1.166959,-0.347652,0.928582,0.12980999999999998,-1.485002,-0.246423,0.23220100000000002,0.16766,-0.051704999999999994,-0.07937999999999999
450,-2.010575,-1.1842549999999998,1.088069,-0.341087,0.926218,0.160485,-1.486675,-0.5810649999999999,0.27000599999999997,0.16109400000000001,-0.049342000000000004,-0.110054
451,-2.088828,-1.173049,1.018705,-0.336495,0.9219360000000001,0.19178499999999998,-1.33197,-0.819262,0.029974,0.015831,-0.35720799999999997,-0.158155
452,-2.1467080000000003,-1.161989,0.980138,-0.333368,0.917596,0.216469,-0.698558,-1.2884799999999998,-0.12843800000000002,0.0055780000000000005,-0.352654,-0.128945
453,-2.187533,-1.153797,0.964333,-0.330377,0.914308,0.234235,-0.39866399999999996,-1.2883719999999999,-0.148777,-0.00701,-0.527513,-0.092557
454,-2.215402,-1.148992,0.9594530000000001,-0.32723,0.912352,0.245988,-0.073185,-1.210919,-0.08678200000000001,0.076284,-0.607206,-0.10435599999999999
455,-2.234544,-1.1519110000000001,0.9665809999999999,-0.320361,0.913543,0.25056300000000004,0.330518,-1.211837,0.059181,0.26910700000000004,-0.703704,-0.092269
456,-2.24257,-1.1582620000000001,0.9756870000000001,-0.313792,0.916108,0.24950999999999998,0.29778499999999997,-0.552755,0.16813499999999998,0.390162,-0.750352,-0.09976
457,-2.245751,-1.165529,0.9775200000000001,-0.307791,0.918997,0.24634099999999998,0.269323,-0.135484,0.27208699999999997,0.421392,-0.538824,-0.058612
458,-2.2376009999999997,-1.17265,0.9853209999999999,-0.304638,0.921781,0.23976999999999998,0.341663,0.147149,0.125884,0.305492,-0.39465100000000003,0.064597
459,-2.2267080000000004,-1.175463,0.9943059999999999,-0.305175,0.922868,0.234855,0.119431,0.11251400000000002,-0.07751799999999999,0.155135,-0.226473,0.180093
460,-2.2241049999999998,-1.1708049999999999,0.9975280000000001,-0.309195,0.921064,0.23667,-0.240905,-0.048325,-0.302019,-0.029764,-0.002729,0.293939
461,-2.232309,-1.16079,0.989093,-0.31450700000000004,0.917118,0.244854,-0.47605,-0.050013999999999996,-0.20858800000000002,-0.47335,0.46230699999999997,0.20560100000000003
462,-2.257515,-1.159124,0.976936,-0.30941799999999997,0.9164530000000001,0.25367199999999995,-0.072202,-1.122825,0.259216,-0.534393,0.612081,0.20534299999999997
463,-2.2893220000000003,-1.1654200000000001,0.972701,-0.29684499999999997,0.918954,0.25958000000000003,0.23556999999999997,-1.302641,0.204981,-0.151977,0.7450319999999999,0.565082
464,-2.287591,-1.168687,0.987786,-0.295028,0.9202370000000001,0.25709099999999996,0.366215,-0.225411,-0.23879099999999998,0.044891,0.145055,0.379688
465,-2.266559,-1.164002,1.012758,-0.303676,0.918394,0.25359,-0.03466,-0.320434,-0.636712,0.036494,0.28071799999999997,-0.046605
466,-2.286622,-1.1432879999999999,1.001384,-0.312817,0.9100020000000001,0.27205999999999997,-1.102989,-0.55143,-0.5520109999999999,-0.21193299999999998,0.502062,0.008443
467,-2.298551,-1.1383809999999999,1.0009860000000002,-0.31288,0.907956,0.278739,0.545791,-0.53628,0.089737,0.5841810000000001,0.018680000000000002,-0.669013
468,-2.277328,-1.157126,1.0315940000000001,-0.305724,0.915652,0.26094,1.085758,-0.302504,0.300444,0.749602,-0.000567,-0.776031
469,-2.2815369999999997,-1.168524,1.037082,-0.296692,0.9201739999999999,0.255398,-0.039302,-0.480419,0.479753,0.10908499999999999,0.596931,0.012378
470,-2.314202,-1.1712790000000002,0.991712,-0.286326,0.921249,0.263235,-0.6642359999999999,1.21045,0.685797,-0.114324,0.276185,0.147349
471,-2.310028,-1.1684139999999998,0.963849,-0.289371,0.9201309999999999,0.263814,-0.38063800000000003,1.412568,-0.020712,-0.259747,-0.15290399999999998,-0.41218999999999995
472,-2.2812919999999997,-1.159486,0.970759,-0.303048,0.9165979999999999,0.26074,-0.017263,0.9513959999999999,-0.624333,-0.301322,-0.309267,-0.352216
473,-2.233761,-1.154397,1.0037989999999999,-0.318768,0.914551,0.248915,0.530539,0.9330620000000001,-0.5104569999999999,-0.315983,-0.17924500000000002,-0.16811900000000002
474,-2.1828849999999997,-1.162133,1.038992,-0.325212,0.917653,0.228309,0.9443020000000001,0.77051,0.086573,0.078813,0.324764,-0.051628
475,-2.133254,-1.177899,1.084807,-0.323858,0.9238040000000001,0.204153,1.265385,0.301665,0.10544,0.172307,0.11303099999999999,-0.135916
476,-2.072181,-1.184844,1.136922,-0.33008000000000004,0.9264399999999999,0.180917,0.8168340000000001,0.9017370000000001,-0.38450300000000004,0.178239,-0.2177,-0.056039
477,-2.01266,-1.178508,1.171972,-0.345558,0.9240370000000001,0.163469,0.25563,1.582274,-0.653146,0.237801,-0.409403,-0.142672
478,-1.9602,-1.170033,1.190994,-0.360887,0.9207629999999999,0.148093,0.201019,1.770082,-0.41982700000000006,0.251222,-0.41311899999999996,-0.169729
479,-1.9071360000000002,-1.170009,1.2139799999999998,-0.36825399999999997,0.9207540000000001,0.12875,0.540054,1.432684,0.01133,0.22741599999999998,-0.39527199999999996,-0.107953
480,-1.860412,-1.178374,1.240113,-0.366471,0.9239860000000001,0.109206,0.607112,1.012481,0.340281,0.003846,-0.22406500000000001,0.006516
481,-1.8155299999999999,-1.187381,1.2662440000000001,-0.362913,0.927393,0.090634,0.6259859999999999,1.076734,0.239918,-0.07234299999999999,-0.343423,-0.128384
482,-1.749595,-1.195431,1.314144,-0.360739,0.9303739999999999,0.065196,1.212372,0.9958239999999999,0.25159499999999996,0.001486,-0.495986,-0.163875
483,-1.66185,-1.209803,1.395155,-0.35170999999999997,0.9355469999999999,0.032113,1.611891,0.355644,0.691041,0.041575,-0.123932,-0.027214999999999996
484,-1.591828,-1.226539,1.465945,-0.337392,0.941326,0.007097,0.986014,0.257477,0.741274,0.022634,0.142978,0.12396099999999999
485,-1.5469190000000002,-1.23824,1.503102,-0.326336,0.945211,-0.007794,0.428371,0.573555,0.503033,0.016873,0.07371,0.192394
486,-1.516833,-1.247442,1.5182950000000002,-0.317255,0.948175,-0.017137,0.14613900000000002,0.913326,0.494217,-0.038672000000000005,0.079901,0.24255500000000002
487,-1.48518,-1.260057,1.530165,-0.30461,0.952108,-0.026144,0.145702,1.045564,0.72478,-0.42678999999999995,0.281931,0.15312699999999999
488,-1.454389,-1.272833,1.541544,-0.291554,0.955936,-0.034093,0.084208,0.9357770000000001,0.527939,-0.576457,0.21216999999999997,0.131658
489,-1.430341,-1.2771299999999999,1.550504,-0.28658,0.957189,-0.040518,0.139284,0.64122,0.08325199999999999,-0.661693,0.096125,0.122519
490,-1.406599,-1.276461,1.568198,-0.286169,0.956995,-0.047415,0.36693400000000004,0.148701,-0.023485,-0.427515,0.454977,0.056158000000000007
491,-1.388719,-1.2725030000000002,1.592301,-0.288998,0.955839,-0.053209000000000006,0.250121,-0.352044,-0.17214200000000002,-0.219379,0.218599,-0.194303
492,-1.3956309999999998,-1.266299,1.589294,-0.295194,0.9539979999999999,-0.052243,-0.087703,-0.23393000000000003,-0.378684,-0.21318299999999998,0.220441,-0.19527
493,-1.41946,-1.2581579999999999,1.5776459999999999,-0.30402399999999996,0.951525,-0.046363999999999995,-0.083001,-0.937738,-0.467479,-0.11498199999999999,-0.124911,-0.46723100000000006
494,-1.468569,-1.249827,1.558196,-0.313809,0.9489299999999999,-0.032192,-0.45206199999999996,-1.8091529999999998,-0.40912,0.131527,0.355498,-0.253742
495,-1.56322,-1.244674,1.5002659999999999,-0.320331,0.947292,-0.002427,-1.108482,-1.943887,-0.24582199999999998,0.285831,0.709691,-0.18948299999999998
496,-1.6679979999999999,-1.234582,1.417349,-0.328326,0.94401,0.032014999999999995,-1.557043,-0.765796,-0.629684,0.277773,0.701696,-0.12933499999999998
497,-1.760254,-1.217682,1.316961,-0.33960100000000004,0.9383,0.065121,-1.8698869999999999,0.54911,-0.447683,0.075075,0.25647800000000004,-0.081051
498,-1.835019,-1.205206,1.220537,-0.345063,0.9339129999999999,0.093356,-1.7181549999999999,0.669855,-0.13913,0.037843,0.204164,-0.057971
499,-1.905116,-1.1957149999999999,1.143247,-0.346035,0.930478,0.120198,-1.301317,-0.204644,0.009112,0.014889,0.174548,-0.105092
500,-1.9718639999999998,-1.1887530000000002,1.082782,-0.34320300000000004,0.927905,0.145536,-1.14069,-0.696651,0.098459,0.020738999999999997,-0.018206,-0.000638
501,-2.042595,-1.17935,1.024127,-0.339816,0.924358,0.17338499999999998,-1.2636100000000001,-0.874675,-0.030358,0.008014,-0.133877,-0.030683999999999996
502,-2.111641,-1.163845,0.9728959999999999,-0.339292,0.9183319999999999,0.203772,-1.172296,-1.226576,-0.285643,-0.061998000000000004,-0.22767300000000001,-0.07324800000000001
503,-2.165391,-1.145979,0.9445530000000001,-0.34139400000000003,0.911114,0.230861,-0.820034,-1.433466,-0.533949,-0.00962,-0.231869,-0.12163900000000001
504,-2.1999720000000003,-1.127866,0.9398280000000001,-0.346495,0.9035,0.252198,-0.505782,-1.559232,-0.790103,0.12071099999999998,-0.418469,-0.157059
505,-2.226353,-1.10972,0.9465469999999999,-0.352663,0.895574,0.271201,-0.39864299999999997,-1.680048,-0.773176,0.229814,-0.643179,-0.20597
506,-2.2600439999999997,-1.098946,0.947807,-0.350754,0.8907290000000001,0.289047,-0.231821,-1.773323,-0.23671199999999998,0.37439,-0.831418,-0.096863
507,-2.293819,-1.1004450000000001,0.941341,-0.339792,0.891409,0.29984299999999997,0.020495,-1.044816,0.378344,0.43561700000000003,-0.793905,-0.14282999999999998
508,-2.313228,-1.109773,0.9324969999999999,-0.32776700000000003,0.895598,0.300746,0.293158,-0.351544,0.46375,0.39869,-0.574278,-0.10218300000000001
509,-2.313357,-1.123879,0.936745,-0.318388,0.901784,0.292216,0.6654,-0.150385,0.452205,0.035108999999999994,-0.39120900000000003,0.041876
510,-2.307218,-1.138932,0.94657,-0.310083,0.9081870000000001,0.281105,0.6165970000000001,-0.147849,0.39310900000000004,-0.06604600000000001,-0.25392,0.171699
511,-2.305434,-1.150224,0.9528469999999999,-0.30295300000000003,0.912855,0.27365900000000004,0.402172,-0.264858,0.269984,-0.129557,0.077791,0.429649
512,-2.308199,-1.155933,0.957681,-0.298333,0.915172,0.270987,0.168328,-0.49870200000000003,0.07743799999999999,-0.362678,0.583242,0.310236
513,-2.322588,-1.155791,0.9580799999999999,-0.294498,0.915114,0.27534000000000003,-0.045013,-0.8691709999999999,-0.065651,-0.405484,0.707109,0.32414699999999996
514,-2.336488,-1.1545809999999999,0.966441,-0.291441,0.914626,0.280174,0.201128,-1.082578,-0.197176,-0.053866,0.409364,0.491417
515,-2.333798,-1.156185,0.9900370000000001,-0.291132,0.915273,0.278375,0.422124,-0.982525,-0.367744,0.069376,0.370173,0.211432
516,-2.338139,-1.1471870000000002,1.005947,-0.295837,0.9116110000000001,0.28534299999999996,-0.416483,-0.761293,-0.619576,0.036896,0.740839,0.09631
517,-2.33897,-1.13645,1.010883,-0.302622,0.9071450000000001,0.292373,-0.035995,0.162965,-0.316864,0.631495,0.419347,-0.254607
518,-2.3008919999999997,-1.142567,1.03168,-0.309393,0.909702,0.276934,0.7561,1.106826,0.054927,0.78533,-0.028355,-0.34952
519,-2.281013,-1.1540489999999999,1.041747,-0.306896,0.9144100000000001,0.263901,0.24122399999999997,0.168543,0.444571,0.301677,-0.373303,-0.44004899999999997
520,-2.317116,-1.157821,1.007595,-0.294636,0.9159309999999999,0.272463,-0.716642,-0.31250500000000003,0.627572,-0.017055,0.090081,-0.16778800000000002
521,-2.358516,-1.148728,0.961015,-0.28897,0.912243,0.29031599999999996,-0.9946370000000001,0.45543500000000003,0.101217,-0.479004,0.394351,-0.1476
522,-2.340963,-1.14254,0.9534540000000001,-0.29806900000000003,0.909691,0.289124,0.140503,1.6232209999999998,-0.144451,-0.631772,0.287162,-0.363724
523,-2.281573,-1.145455,0.985959,-0.312693,0.910898,0.26919099999999996,0.705993,1.327394,-0.44777,-0.09421399999999999,-0.175653,-0.151362
524,-2.235125,-1.146607,1.018928,-0.324027,0.911373,0.253734,0.506954,0.35823,-0.33468600000000004,-0.055611,-0.209606,-0.176571
525,-2.2053990000000003,-1.1512950000000002,1.057035,-0.32798099999999997,0.913292,0.241456,0.976089,-0.369062,-0.281339,-0.027670999999999998,-0.20793899999999998,-0.217209
526,-2.1518200000000003,-1.158834,1.114059,-0.33467600000000003,0.9163370000000001,0.219759,1.184006,0.448762,-0.38455300000000003,0.222646,-0.197144,-0.154802
527,-2.083399,-1.16449,1.163318,-0.344395,0.918587,0.19381900000000002,0.8292219999999999,1.4994370000000001,-0.155505,0.370305,-0.226998,-0.05803099999999999
528,-2.028299,-1.172092,1.1869459999999998,-0.34827199999999997,0.921565,0.171469,0.46647700000000003,1.67799,0.261544,0.37666900000000003,-0.183192,-0.02825
529,-1.9852509999999999,-1.180359,1.1997799999999998,-0.34834299999999996,0.924743,0.153249,0.398675,1.483538,0.197226,0.137222,-0.07975700000000001,-0.126546
530,-1.9360330000000001,-1.182799,1.2242979999999999,-0.353352,0.9256690000000001,0.13512000000000002,0.533852,1.234401,-0.22025300000000003,0.009541,-0.304392,-0.054003999999999996
531,-1.879087,-1.180224,1.2595049999999999,-0.362741,0.924691,0.11551199999999999,0.620699,1.1909809999999998,-0.359528,0.017404,-0.476342,-0.059559
532,-1.8170400000000002,-1.180305,1.3028629999999999,-0.369133,0.9247219999999999,0.09278,0.938946,1.045017,-0.09754,0.019859,-0.585016,-0.05268
533,-1.7386110000000001,-1.188405,1.368362,-0.36787,0.927775,0.06232000000000001,1.513151,0.7814770000000001,0.307392,-0.040820999999999996,-0.450434,-0.054935000000000005
534,-1.6463889999999999,-1.204551,1.458859,-0.35706,0.933679,0.027043,1.763227,0.13432,0.756484,-0.080715,-0.273904,0.031017000000000003
535,-1.568235,-1.222913,1.53919,-0.340877,0.9400959999999999,-0.0008730000000000001,1.194619,0.276385,0.886927,0.022686,0.172041,-0.003064
536,-1.509433,-1.238432,1.589998,-0.325633,0.945274,-0.020007,0.639171,0.704978,0.7479020000000001,0.10228999999999999,0.270715,0.140979
537,-1.463115,-1.251924,1.61748,-0.311648,0.9495899999999999,-0.033689,0.22021,1.181835,0.67493,0.088305,0.266398,0.15466
538,-1.4310260000000001,-1.263405,1.6248,-0.299589,0.953126,-0.042148000000000005,-0.012292,1.286583,0.522552,-0.637575,0.338591,0.05405
539,-1.402403,-1.268581,1.633222,-0.293392,0.954679,-0.049878,0.16353900000000002,0.796667,0.076823,-0.734775,0.349611,-0.023929
540,-1.3811930000000001,-1.262434,1.648722,-0.298026,0.952832,-0.05719400000000001,0.31793000000000005,-0.004032,-0.41993199999999997,-0.730141,0.351459,-0.016613
541,-1.373815,-1.249051,1.664468,-0.310077,0.948685,-0.061882000000000006,0.404917,-0.643393,-0.712266,-0.572217,0.6353,-0.47316800000000003
542,-1.389186,-1.234098,1.6697330000000001,-0.324909,0.943851,-0.059664,0.06638200000000001,-1.199322,-0.721396,-0.302548,0.581922,-0.41633400000000004
543,-1.436376,-1.221608,1.647009,-0.339018,0.939651,-0.045847000000000006,-0.508151,-1.1829610000000002,-0.585493,0.389494,0.346146,-0.140981
544,-1.518945,-1.215433,1.584649,-0.347433,0.93752,-0.018031000000000002,-1.3777760000000001,-1.246774,-0.39066,1.055609,0.514232,0.185222
545,-1.622563,-1.206032,1.492165,-0.35622,0.934208,0.018456999999999998,-1.664973,-0.684906,-0.25879,0.33621599999999996,0.34336500000000003,-0.17618699999999998
546,-1.713185,-1.207812,1.40161,-0.351441,0.934841,0.050381999999999996,-1.550958,-0.03185,0.43017299999999997,-0.158127,0.169086,-0.255064
547,-1.789639,-1.2103540000000002,1.315405,-0.344244,0.9357409999999999,0.076561,-1.434116,0.218523,0.320641,-0.367655,0.013890000000000001,-0.12334500000000001
548,-1.8692259999999998,-1.2063620000000002,1.234084,-0.340634,0.934326,0.10478499999999999,-1.452965,-0.38352600000000003,0.112978,-0.233188,0.040253,-0.007784
549,-1.9529849999999997,-1.1991100000000001,1.1546299999999998,-0.336951,0.931716,0.135438,-1.495258,-0.478419,0.170488,0.134406,0.033082,0.008787999999999999
550,-2.032568,-1.187754,1.074975,-0.334569,0.927532,0.166501,-1.611029,-0.078834,-0.022045,0.355779,-0.094921,0.00246
551,-2.098005,-1.170792,1.005568,-0.336515,0.921059,0.19591,-1.489411,-0.210827,-0.152417,0.231382,-0.311639,-0.12399600000000001
552,-2.1550130000000003,-1.155427,0.956518,-0.336572,0.914968,0.222546,-1.042908,-0.825887,-0.174148,0.11876800000000001,-0.371785,-0.126599
553,-2.1941610000000003,-1.142522,0.934832,-0.33716399999999996,0.909684,0.242421,-0.5703550000000001,-1.002664,-0.331922,-0.013788,-0.5933390000000001,-0.12723299999999998
554,-2.213886,-1.133284,0.9374120000000001,-0.339028,0.905809,0.254054,-0.003043,-1.190553,-0.45697299999999996,-0.07836,-0.721528,-0.052561000000000004
555,-2.218039,-1.133276,0.958702,-0.337976,0.905805,0.255463,0.543145,-1.097964,-0.10930899999999999,-0.005102000000000001,-0.751157,-0.050277999999999996
556,-2.217747,-1.146543,0.9832059999999999,-0.328432,0.9113459999999999,0.248099,0.970416,-1.178237,0.412934,0.15803699999999998,-0.745712,-0.001547
557,-2.215578,-1.166453,1.0089700000000001,-0.314402,0.9193610000000001,0.236431,0.9445110000000001,-0.9461629999999999,0.47441300000000003,0.257349,-0.495395,-0.126827
558,-2.213613,-1.181257,1.0291649999999999,-0.303938,0.925084,0.22762800000000002,0.658131,-0.7908850000000001,0.253228,0.22953600000000002,-0.421513,-0.045591
559,-2.2086360000000003,-1.187438,1.049427,-0.300467,0.927414,0.22270399999999999,0.374604,-0.617999,-0.11110199999999999,0.12967599999999999,-0.12796,0.31643499999999997
560,-2.2075099999999996,-1.183478,1.0619299999999998,-0.303668,0.925925,0.22454699999999997,-0.12491300000000001,-0.48723,-0.411724,0.171451,0.06650700000000001,0.455034
561,-2.221264,-1.172061,1.061204,-0.308944,0.9215530000000001,0.235089,-0.465834,-0.8026369999999999,-0.361358,0.031814,0.385469,0.290256
562,-2.260478,-1.166137,1.0424229999999999,-0.303697,0.9192370000000001,0.25049,-0.328462,-1.288846,0.16258499999999998,-0.296218,0.849882,0.35487199999999997
563,-2.281926,-1.171923,1.04888,-0.294221,0.921499,0.253469,0.590821,-1.201236,0.10052799999999999,0.062089,0.46296099999999996,0.503885
564,-2.2629919999999997,-1.17875,1.078098,-0.294116,0.9241290000000001,0.24383200000000002,0.625855,0.052891999999999995,-0.27044,0.160403,0.21641999999999997,0.6001920000000001
565,-2.236199,-1.174892,1.1076,-0.303346,0.9226479999999999,0.23806599999999997,-0.104598,-0.444999,-0.6060439999999999,0.157686,0.419256,-0.286695
566,-2.277231,-1.153944,1.078705,-0.307962,0.9143680000000001,0.262799,-1.3083200000000001,-0.693362,-0.32357800000000003,-0.266837,0.520935,-0.149289
567,-2.287199,-1.158109,1.076926,-0.302452,0.916047,0.263352,1.0030940000000002,-0.217939,0.524103,0.04261,0.23496999999999998,-0.36154200000000003
568,-2.262643,-1.182051,1.1038729999999999,-0.29185,0.925385,0.24178200000000002,0.846878,-0.12029400000000001,0.483363,0.475459,0.119872,-0.625052
569,-2.28793,-1.182822,1.081723,-0.285105,0.9256770000000001,0.24861399999999997,-0.9460930000000001,0.001891,0.253833,0.070384,0.677762,-0.0076170000000000005
570,-2.314326,-1.170914,1.033759,-0.286539,0.921107,0.263496,-0.852726,1.4305729999999999,0.136218,-0.223425,0.437276,0.08741
571,-2.2991919999999997,-1.168631,1.022432,-0.292063,0.920216,0.260529,0.032317,0.9083540000000001,-0.039597,-0.438589,-0.080372,-0.505662
572,-2.265521,-1.1670719999999999,1.047684,-0.30177,0.9196040000000001,0.25146799999999997,0.48377200000000004,0.40507600000000005,-0.579523,-0.360232,-0.310184,-0.33850399999999997
573,-2.210409,-1.1680620000000002,1.0902379999999998,-0.314434,0.9199930000000001,0.23392,0.7723300000000001,0.966741,-0.36351500000000003,-0.2159,-0.22590100000000002,-0.32941
574,-2.150019,-1.177124,1.132587,-0.320988,0.923507,0.209945,1.061304,1.0993959999999998,0.044258,0.329335,0.169099,-0.110824
575,-2.0817509999999997,-1.191918,1.183845,-0.32260900000000003,0.9290799999999999,0.180859,1.206803,1.044186,0.138281,0.326454,0.084455,-0.0518
576,-2.0166009999999996,-1.1995850000000001,1.225034,-0.327262,0.931889,0.156396,0.5543399999999999,1.591903,-0.13617100000000001,0.24776399999999998,-0.015552000000000002,0.08377799999999999
577,-1.9653909999999999,-1.193559,1.238073,-0.340017,0.929686,0.141596,-0.11540399999999999,2.039758,-0.46402600000000005,0.019566999999999998,-0.294325,-0.155588
578,-1.9237389999999999,-1.1839899999999999,1.241636,-0.353951,0.926119,0.130384,-0.000122,1.8209509999999998,-0.457599,0.007638,-0.404787,-0.224836
579,-1.867502,-1.179403,1.2679129999999998,-0.36478,0.924378,0.111524,0.616247,1.4622700000000002,-0.272305,0.1189,-0.510728,-0.117033
580,-1.808656,-1.183686,1.306603,-0.366856,0.926004,0.08894400000000001,0.8296100000000001,0.987684,0.20942600000000003,0.23264,-0.559198,-0.055283000000000006
581,-1.7429860000000001,-1.196061,1.355399,-0.360583,0.9306049999999999,0.06271,1.158595,1.0814219999999999,0.458363,0.085147,-0.387804,-0.213878
582,-1.6534080000000002,-1.209047,1.430179,-0.352674,0.9352790000000001,0.029200999999999998,1.505079,0.832886,0.5059670000000001,0.014905000000000002,-0.086753,-0.076351
583,-1.584086,-1.221695,1.491823,-0.341993,0.939681,0.004545,0.711708,0.5263979999999999,0.583071,-0.055438,0.27173,0.076387
584,-1.559763,-1.229881,1.503295,-0.334298,0.942449,-0.003689,0.046225,0.797153,0.317429,-0.045829,0.045695,0.16631700000000002
585,-1.54001,-1.235558,1.505522,-0.328806,0.944332,-0.010126000000000001,0.028758999999999996,0.938926,0.309648,0.021372,-0.117092,0.324655
586,-1.5195370000000001,-1.246117,1.504834,-0.31855300000000003,0.9477530000000001,-0.016343,-0.071312,1.1348,0.696463,-0.147161,0.142228,0.262544
587,-1.495357,-1.263197,1.508049,-0.30187600000000003,0.9530629999999999,-0.022817,0.057287,0.9547120000000001,0.865302,-0.42090299999999997,0.21611100000000003,0.27036
588,-1.465878,-1.273914,1.520689,-0.290896,0.956253,-0.030632999999999997,0.178741,0.819172,0.290553,-0.646436,0.142273,0.04197
589,-1.441998,-1.27342,1.53379,-0.29055,0.956109,-0.037631,0.214707,0.385883,-0.07610900000000001,-0.650749,0.104393,0.16238699999999998
590,-1.423991,-1.271717,1.549458,-0.29143600000000003,0.955608,-0.043094,0.269861,0.084186,-0.06786,-0.34822800000000004,0.466526,-0.031307999999999996
591,-1.422137,-1.2703149999999999,1.554127,-0.29268099999999997,0.9551940000000001,-0.043833,-0.117829,-0.171487,0.003467,-0.143201,0.470343,-0.080877
592,-1.4419959999999998,-1.270894,1.533566,-0.29294499999999996,0.9553649999999999,-0.037941,-0.417836,-0.009470000000000001,-0.02661,0.16234500000000002,-0.013944,-0.18444000000000002
593,-1.491452,-1.2725959999999998,1.489155,-0.29284,0.955867,-0.023284,-0.798458,-0.614486,0.021713,0.159707,-0.218135,-0.238954
594,-1.578849,-1.270202,1.4223540000000001,-0.296042,0.955161,0.002384,-1.03855,-1.424078,-0.30687,-0.06461499999999999,0.040368,-0.33470500000000003
595,-1.6842650000000001,-1.259177,1.344003,-0.30459200000000003,0.951838,0.034711,-1.404215,-1.571101,-0.518608,-0.27763699999999997,0.569783,-0.23505900000000002
596,-1.787173,-1.2402790000000001,1.256213,-0.316931,0.945875,0.06966699999999999,-1.493058,-0.514947,-0.8239569999999999,0.03916,0.744067,-0.107555
597,-1.8601580000000002,-1.219833,1.181133,-0.329478,0.939042,0.098091,-1.504399,0.107084,-0.5257310000000001,0.11962300000000001,0.6366109999999999,0.084007
598,-1.927702,-1.202624,1.102367,-0.33720100000000003,0.9329870000000001,0.12573299999999998,-1.615199,0.348456,-0.318511,0.123669,0.493054,7.5e-05
599,-1.9870189999999999,-1.187217,1.034094,-0.342262,0.9273309999999999,0.15129700000000001,-1.2790030000000001,0.014464,-0.203571,0.064934,0.107993,-0.16918
600,-2.035591,-1.176087,0.9922540000000001,-0.343719,0.923108,0.172352,-0.788971,-0.796054,-0.135016,0.016616,-0.008573,-0.146474
601,-2.084057,-1.168795,0.9668450000000001,-0.340821,0.9202799999999999,0.192103,-0.5083880000000001,-1.465141,-0.088402,-0.049865,-0.188193,-0.071299
602,-2.1263900000000002,-1.162201,0.954714,-0.337534,0.9176799999999999,0.20955100000000002,-0.30340700000000004,-1.563341,-0.217167,0.038172000000000005,-0.337388,-0.072176
603,-2.156062,-1.154247,0.954559,-0.337242,0.9144899999999999,0.22349699999999997,-0.188891,-1.446817,-0.418411,0.124519,-0.383759,-0.12075999999999999
604,-2.178625,-1.146304,0.965292,-0.338066,0.911248,0.23519,0.105206,-1.749379,-0.401014,0.119881,-0.531273,-0.190298
605,-2.197838,-1.148876,0.984713,-0.331585,0.9123040000000001,0.240265,0.56776,-1.89655,0.037172000000000004,0.122876,-0.763989,-0.213562
606,-2.2118439999999997,-1.162077,1.008881,-0.318506,0.917631,0.237661,0.8779870000000001,-1.675029,0.314657,0.165918,-0.845823,-0.178579
607,-2.214429,-1.1776280000000001,1.032834,-0.306437,0.9237,0.22989099999999998,0.7672220000000001,-0.9278540000000001,0.306516,0.324214,-0.784433,-0.11018599999999999
608,-2.20283,-1.185813,1.0579450000000001,-0.30297199999999996,0.9268049999999999,0.22184600000000002,0.554685,-0.44181400000000004,-0.11006099999999999,0.404016,-0.328279,-0.02455
609,-2.186432,-1.186302,1.0827149999999999,-0.306199,0.9269879999999999,0.216587,0.26612800000000003,-0.28444400000000003,-0.31951399999999996,0.372605,-0.269487,0.033382
610,-2.184701,-1.180175,1.091169,-0.311211,0.924673,0.219325,-0.265169,-0.301686,-0.342431,0.247383,-0.092504,0.18074500000000002
611,-2.201782,-1.170268,1.0787280000000001,-0.3148,0.920855,0.230001,-0.553433,-0.221291,-0.21742899999999998,-0.036686,0.272428,0.401301
612,-2.220389,-1.163358,1.058549,-0.31552600000000003,0.9181389999999999,0.239662,-0.488699,0.027510000000000003,0.110649,-0.477382,0.646223,0.382988
613,-2.247036,-1.163235,1.0363069999999999,-0.309116,0.91809,0.24805300000000002,-0.194424,-0.573879,0.265162,-0.516598,0.555665,0.485192
614,-2.25887,-1.165846,1.037843,-0.304305,0.9191219999999999,0.25017,0.264506,-0.622116,-0.057378,-0.32695100000000005,0.296042,0.610761
615,-2.247856,-1.165889,1.06266,-0.307012,0.9191389999999999,0.246779,0.342384,-0.768918,-0.442274,-0.11055999999999999,0.266973,-0.11038099999999999
616,-2.272923,-1.150876,1.0650979999999999,-0.311232,0.913121,0.26328,-0.9399299999999999,-1.4655559999999999,-0.68,-0.300951,0.7603409999999999,0.11457300000000001
617,-2.3034779999999997,-1.1351360000000001,1.0604069999999999,-0.31369,0.906592,0.28224499999999997,-0.024188,-1.088584,-0.37498400000000004,0.0681,0.799662,-0.131793
618,-2.273637,-1.144599,1.093587,-0.315411,0.910544,0.267202,1.099679,0.562521,0.00035499999999999996,0.533795,0.405694,-0.43188999999999994
619,-2.242163,-1.155882,1.1208719999999999,-0.315598,0.915151,0.250737,0.528997,-0.011203,0.11354000000000002,0.7093510000000001,-0.268255,-0.603002
620,-2.268253,-1.157464,1.108899,-0.307841,0.9157870000000001,0.25795500000000005,-0.577124,-0.9455889999999999,0.30783699999999997,0.04983,0.193054,-0.100393
621,-2.30974,-1.153784,1.071252,-0.29936599999999997,0.9143030000000001,0.272769,-0.544554,0.12704000000000001,0.305622,-0.3278,0.208866,-0.058214999999999996
622,-2.30456,-1.153165,1.0679319999999999,-0.301195,0.9140520000000001,0.271594,0.215658,0.5617300000000001,-0.10089,-0.53993,0.026758999999999998,-0.534289
623,-2.253463,-1.1560110000000001,1.102442,-0.312655,0.9152030000000001,0.254214,0.803002,1.231365,-0.50357,-0.00398,0.0009199999999999999,-0.25152800000000003
624,-2.17835,-1.154915,1.152236,-0.33167399999999997,0.914761,0.23060799999999998,0.684579,1.525458,-0.686372,0.16408699999999998,0.008228000000000001,-0.15446600000000002
625,-2.116318,-1.152313,1.194468,-0.347366,0.9137059999999999,0.210838,0.6808350000000001,0.904626,-0.473026,0.254196,-0.053736,-0.173881
626,-2.062605,-1.154515,1.2303549999999999,-0.35641,0.9145989999999999,0.190934,0.637315,1.262533,-0.162936,0.264217,-0.228091,-0.191697
627,-2.008754,-1.157993,1.250941,-0.363288,0.916,0.170123,0.31761,2.030854,0.049627,0.29923099999999997,-0.258087,-0.089145
628,-1.965917,-1.162419,1.250192,-0.366494,0.917767,0.152848,-0.016941,2.0983099999999997,0.25337,0.13455999999999999,-0.138454,-0.075486
629,-1.9286990000000002,-1.165988,1.248109,-0.368858,0.919178,0.137957,0.085286,1.9057400000000002,0.10371199999999998,-0.07846900000000001,-0.151767,-0.140551
630,-1.883427,-1.166318,1.259967,-0.374435,0.919308,0.121029,0.335773,1.606522,-0.144119,-0.125382,-0.20603600000000002,-0.096721
631,-1.8273400000000002,-1.1644780000000001,1.290822,-0.382267,0.918582,0.10027799999999999,0.67733,1.2374129999999999,-0.308971,0.025135,-0.5972930000000001,-0.003858
632,-1.7632029999999999,-1.164825,1.337479,-0.387596,0.9187190000000001,0.07551000000000001,1.074031,0.982511,-0.045226999999999996,0.053520000000000005,-0.6149319999999999,-0.094294
633,-1.684137,-1.174998,1.405438,-0.38304299999999997,0.922689,0.043601,1.5471549999999998,0.678296,0.495783,0.050981,-0.500005,-0.07143300000000001
634,-1.604636,-1.190048,1.483797,-0.371374,0.9283870000000001,0.012572,1.38523,0.175425,0.651257,-0.013834,0.24040599999999998,0.061006
635,-1.551587,-1.201584,1.53401,-0.36078499999999997,0.9326120000000001,-0.0069310000000000005,0.661945,0.5268470000000001,0.509022,-0.002023,0.17668699999999998,0.127674
636,-1.51522,-1.209709,1.558344,-0.352717,0.9355129999999999,-0.019622999999999998,0.32832100000000003,0.7393149999999999,0.412416,0.035731,-0.027157,0.135224
637,-1.4879360000000001,-1.219169,1.569814,-0.343215,0.9388129999999999,-0.028504,0.074379,0.8600700000000001,0.537605,-0.128419,0.125701,0.304231
638,-1.4617229999999999,-1.231008,1.577918,-0.331277,0.942825,-0.036277,0.096846,0.945989,0.610291,-0.369895,0.27124000000000004,0.241325
639,-1.434699,-1.239458,1.587553,-0.32227,0.945608,-0.044133,0.126639,0.854459,0.297628,-0.463084,0.198542,0.168004
640,-1.40785,-1.240575,1.599693,-0.319927,0.9459709999999999,-0.052597000000000005,0.197847,0.715928,-0.018959,-0.46840299999999996,0.187788,0.218231
641,-1.384833,-1.239599,1.610384,-0.31954,0.9456540000000001,-0.060117,0.181125,0.589086,0.014200999999999998,-0.35047399999999995,0.244898,0.202787
642,-1.365717,-1.238261,1.621934,-0.319571,0.945218,-0.066472,0.111384,0.194393,-0.05628300000000001,-0.260538,0.589817,0.041234
643,-1.374391,-1.236626,1.608957,-0.32165,0.9446829999999999,-0.063999,-0.303007,0.20594200000000001,-0.187379,-0.105992,0.238697,-0.20519600000000002
644,-1.404167,-1.2347629999999998,1.576861,-0.325148,0.9440700000000001,-0.054686,-0.59912,-0.130842,-0.15803699999999998,0.042647000000000004,-0.178949,-0.303438
645,-1.459916,-1.2339950000000002,1.534295,-0.328409,0.943817,-0.036564,-0.763048,-1.257242,-0.18124,0.06566799999999999,-0.27973899999999996,-0.348736
646,-1.550665,-1.228983,1.475744,-0.335096,0.942148,-0.0067469999999999995,-1.058449,-1.8649,-0.344894,-0.213015,0.36851999999999996,-0.28588600000000003
647,-1.655186,-1.222367,1.399262,-0.340173,0.93991,0.028775,-1.428469,-1.3395270000000001,-0.338538,0.20533200000000001,0.8576819999999999,-0.126996
648,-1.7443490000000001,-1.206728,1.319022,-0.350696,0.934456,0.061483,-1.547597,-0.407773,-0.677054,0.23212,0.719597,-0.076543
649,-1.823696,-1.190204,1.233279,-0.359623,0.9284450000000001,0.09293799999999999,-1.808798,0.214939,-0.332504,0.237384,0.489158,0.087604
650,-1.9032630000000001,-1.1769450000000001,1.141216,-0.362703,0.9234379999999999,0.12523499999999999,-1.780101,0.261536,-0.022579,0.20745999999999998,0.21433400000000002,-0.197684
651,-1.971888,-1.16687,1.070568,-0.361809,0.919525,0.153436,-1.281036,-0.466871,0.017092,0.21166300000000002,0.036316,-0.167962
652,-2.0341150000000003,-1.156664,1.019953,-0.35994299999999996,0.915466,0.179824,-1.0862100000000001,-0.915552,-0.10168200000000001,0.133717,-0.212448,-0.08694400000000001
653,-2.087486,-1.143122,0.981359,-0.360585,0.909933,0.204875,-0.920882,-0.8992950000000001,-0.314192,0.034000999999999997,-0.347433,-0.0872
654,-2.120525,-1.1286610000000001,0.965677,-0.36480300000000004,0.90384,0.223527,-0.4966,-0.941498,-0.5173409999999999,0.025631,-0.348634,-0.110398
655,-2.141294,-1.11748,0.9656170000000001,-0.368566,0.899,0.236498,-0.165047,-1.104036,-0.384494,-0.010767,-0.43791,-0.09137200000000001
656,-2.158202,-1.114581,0.975158,-0.366683,0.897726,0.24414,0.268835,-1.379368,-0.10550899999999999,0.082855,-0.6052609999999999,-0.123794
657,-2.173639,-1.12259,0.989449,-0.35693600000000003,0.901226,0.24568600000000002,0.5784699999999999,-1.447918,0.251391,0.30234,-0.6645770000000001,-0.126789
658,-2.1863040000000002,-1.1364530000000002,1.005372,-0.343561,0.9071469999999999,0.24294899999999997,0.713024,-1.214852,0.45819899999999997,0.35021399999999997,-0.7217979999999999,-0.054442
659,-2.191189,-1.152198,1.016866,-0.330706,0.913659,0.23629,0.595513,-0.532683,0.461845,0.394839,-0.546258,-0.045799
660,-2.186559,-1.16351,1.029152,-0.323337,0.918199,0.228771,0.48149200000000003,-0.261827,0.22569299999999998,0.223667,-0.317171,0.122852
661,-2.180666,-1.168226,1.040598,-0.321126,0.920057,0.224379,0.202025,-0.26621999999999996,-0.031557999999999996,0.106512,-0.171323,0.186998
662,-2.1843470000000003,-1.16452,1.044813,-0.32308400000000004,0.9185989999999999,0.227521,-0.184724,-0.41718599999999995,-0.304327,-0.029164999999999996,0.033061,0.406878
663,-2.1957150000000003,-1.1547129999999999,1.038718,-0.32776700000000003,0.9146790000000001,0.23643899999999998,-0.490305,-0.23308299999999998,-0.258627,-0.309638,0.362619,0.339977
664,-2.22313,-1.147573,1.018009,-0.326345,0.9117700000000001,0.249293,-0.503888,-0.603804,0.020559,-0.443003,1.020817,0.41657
665,-2.239358,-1.143317,1.017248,-0.325299,0.910014,0.256959,0.13029300000000002,-0.770061,-0.24399,-0.116809,0.532613,0.512465
666,-2.2301029999999997,-1.1432719999999998,1.040222,-0.327696,0.9099950000000001,0.25396199999999997,0.363145,-0.576575,-0.34729699999999997,0.221433,0.303628,0.006353
667,-2.251289,-1.134425,1.036359,-0.328486,0.906291,0.26590199999999997,-0.876065,-0.847519,-0.253048,-0.137304,0.9451639999999999,0.11044100000000001
668,-2.281524,-1.122227,1.011893,-0.32865300000000003,0.901068,0.282902,-0.397253,0.024561000000000003,-0.040382,0.146325,0.711145,-0.177052
669,-2.264522,-1.128257,1.016917,-0.329232,0.903667,0.27379499999999996,0.50734,0.681032,0.175535,0.504631,0.249806,-0.34484000000000004
670,-2.255892,-1.131243,1.026122,-0.329491,0.904942,0.269235,-0.007051999999999999,-0.347225,-0.11088699999999999,0.223259,-0.37193699999999996,-0.728708
671,-2.2839419999999997,-1.127049,1.009028,-0.324678,0.903149,0.280851,-0.5595140000000001,-0.500889,0.167461,-0.144285,0.146091,-0.033582
672,-2.28878,-1.125808,0.9947370000000001,-0.32416,0.902616,0.28315500000000005,0.01127,0.8768389999999999,0.123749,-0.350432,0.22313200000000002,-0.085737
673,-2.2551669999999997,-1.131406,1.011227,-0.329572,0.905011,0.268903,0.627097,0.9204209999999999,-0.119832,-0.129733,-0.011685,-0.38251999999999997
674,-2.20549,-1.137071,1.0394450000000002,-0.338384,0.9074059999999999,0.24916100000000002,0.5758340000000001,1.39142,-0.112248,0.056844000000000006,-0.072186,-0.207627
675,-2.156733,-1.142,1.060215,-0.346394,0.909467,0.229897,0.514922,1.489156,0.007909999999999999,0.090687,-0.00462,-0.167245
676,-2.107039,-1.151775,1.087366,-0.349727,0.913488,0.20785399999999998,0.8582270000000001,1.097524,0.145406,0.141048,0.09679700000000001,-0.119399
677,-2.048326,-1.158765,1.121941,-0.355641,0.916309,0.184035,0.661406,1.6012899999999999,-0.188831,0.141484,-0.23071599999999998,-0.051208000000000004
678,-1.9860060000000002,-1.1553440000000001,1.147965,-0.36928,0.914934,0.162793,0.238934,2.08414,-0.42527299999999996,0.11458,-0.302797,-0.050641000000000005
679,-1.9354209999999998,-1.1501700000000001,1.157534,-0.381457,0.912833,0.145599,0.070104,1.991234,-0.22230300000000003,0.026202,-0.335685,-0.11628699999999999
680,-1.8883009999999998,-1.14941,1.1708120000000002,-0.38855100000000004,0.912523,0.127686,0.34945,1.606239,-0.09060399999999999,0.066179,-0.355257,-0.047363999999999996
681,-1.842848,-1.150274,1.189252,-0.39319299999999996,0.912876,0.10968900000000001,0.352371,1.329166,-0.06779600000000001,0.07082100000000001,-0.35561,-0.029366000000000003
682,-1.801284,-1.151513,1.2102549999999999,-0.39631,0.913381,0.092997,0.5181520000000001,0.9970829999999999,-0.016006,0.050287,-0.47678100000000007,-0.093562
683,-1.751986,-1.156976,1.2440309999999999,-0.395498,0.9155909999999999,0.07245499999999999,0.8655149999999999,0.903284,0.229027,0.06252100000000001,-0.38719499999999996,-0.04978
684,-1.688331,-1.167907,1.297157,-0.389343,0.919932,0.045973,1.251418,0.616474,0.48953199999999997,0.056366,-0.39153499999999997,-0.023299
685,-1.62384,-1.182765,1.359275,-0.377804,0.9256559999999999,0.020059,1.1912479999999999,0.23456100000000002,0.677608,-0.040409,0.051440999999999994,0.12381600000000001
686,-1.5695459999999999,-1.19614,1.410803,-0.365921,0.930633,-0.00045700000000000005,0.8560629999999999,0.36383499999999996,0.607803,-0.024719,0.008576,0.054748000000000005
687,-1.528251,-1.206966,1.4480629999999999,-0.355502,0.934541,-0.015134,0.541641,0.36838699999999996,0.541508,0.06361699999999999,0.022887,0.083005
688,-1.493594,-1.217876,1.472005,-0.344578,0.9383670000000001,-0.026655,0.302102,0.767442,0.588461,-0.075008,0.294344,0.21958699999999998
689,-1.461023,-1.229252,1.48671,-0.332894,0.9422389999999999,-0.03669,0.14008099999999998,1.013117,0.5635140000000001,-0.330955,0.381919,0.270196
690,-1.43147,-1.237566,1.497274,-0.323895,0.944991,-0.045420999999999996,0.130083,0.932054,0.331744,-0.49763900000000005,0.26143,0.253612
691,-1.402325,-1.2402739999999999,1.5106549999999999,-0.319909,0.945873,-0.054411,0.268948,0.725888,0.087287,-0.563712,0.272129,0.150526
692,-1.374714,-1.237953,1.534019,-0.320438,0.945117,-0.06365,0.350612,-0.027924,-0.084229,-0.356473,0.534878,-0.186029
693,-1.374214,-1.235647,1.535739,-0.32254099999999997,0.944361,-0.064236,-0.110042,-0.017621,-0.130189,-0.239959,0.41684499999999997,-0.225437
694,-1.3921290000000002,-1.235084,1.5200799999999999,-0.324164,0.944176,-0.058542,-0.286537,-0.270887,-0.044571,-0.040444,0.175651,-0.253684
695,-1.431297,-1.236018,1.495771,-0.325334,0.944483,-0.045681,-0.56526,-1.246904,-0.013219999999999999,0.218279,0.039327,-0.18541400000000002
696,-1.525857,-1.235511,1.430515,-0.32866999999999996,0.944317,-0.014780000000000001,-1.324537,-1.63642,-0.247693,0.265407,0.22790900000000003,-0.043737
697,-1.6326260000000001,-1.226286,1.341105,-0.337054,0.941241,0.020867,-1.636215,-0.934581,-0.46548199999999995,0.07651000000000001,0.48386899999999994,-0.270882
698,-1.736548,-1.2156559999999998,1.243385,-0.34292100000000003,0.9375979999999999,0.05736599999999999,-1.661979,-0.314163,-0.28379099999999996,-0.034658,0.458505,-0.109124
699,-1.8116279999999998,-1.206486,1.1613360000000001,-0.345988,0.93437,0.084974,-1.465171,0.24782300000000002,-0.068423,-0.018087,0.392474,-0.115293
700,-1.8834060000000001,-1.198308,1.081821,-0.346262,0.931424,0.11191400000000001,-1.470991,-0.007123,0.022661,0.00445,0.238406,-0.051184
701,-1.949657,-1.190877,1.015224,-0.344514,0.928694,0.137148,-1.171174,-0.388827,0.11283900000000001,0.194825,-0.000868,-0.131793
702,-2.0163919999999997,-1.1851200000000002,0.956358,-0.33942,0.926544,0.162119,-1.128019,-0.691778,0.17869000000000002,0.208164,-0.10639900000000001,-0.10904900000000001
703,-2.083017,-1.175959,0.9003549999999999,-0.33526,0.923059,0.18850899999999998,-1.125507,-0.785879,-0.000633,0.12386400000000002,-0.228571,-0.11555699999999999
704,-2.131782,-1.161735,0.8652350000000001,-0.336756,0.9174950000000001,0.211592,-0.8527020000000001,-0.78945,-0.40892,0.124918,-0.23715100000000003,-0.150999
705,-2.158817,-1.145145,0.8506389999999999,-0.343533,0.9107700000000001,0.22903099999999998,-0.615382,-0.623386,-0.5848,0.080578,-0.41576,-0.078564
706,-2.175349,-1.130485,0.848224,-0.350648,0.9046190000000001,0.24224299999999999,-0.35631399999999996,-0.866251,-0.547428,0.018282,-0.54355,-0.089197
707,-2.194921,-1.1231950000000002,0.851625,-0.35118299999999997,0.901488,0.252906,0.037963,-1.295299,-0.155291,0.005159,-0.5954119999999999,-0.104163
708,-2.212255,-1.129702,0.866441,-0.342039,0.904285,0.25544,0.6561779999999999,-1.5736059999999998,0.175191,0.24526799999999999,-0.801899,-0.100563
709,-2.2211689999999997,-1.143002,0.883144,-0.33014699999999997,0.909883,0.251173,0.6324,-0.941657,0.40174699999999997,0.36219,-0.651552,-0.016325
710,-2.225144,-1.155326,0.892803,-0.320223,0.914927,0.245639,0.48643100000000006,-0.518915,0.305114,0.346453,-0.396204,0.114041
711,-2.226028,-1.162249,0.900675,-0.31497600000000003,0.9176989999999999,0.24205700000000002,0.204299,-0.350937,0.101034,0.154606,-0.277211,0.162225
712,-2.235558,-1.162873,0.901429,-0.312204,0.9179459999999999,0.244694,-0.030861000000000003,-0.583938,-0.034906,-0.07546,-0.140801,0.21316100000000002
713,-2.243255,-1.162169,0.906832,-0.310817,0.917667,0.24749200000000002,0.12834600000000002,-0.605496,-0.10960999999999999,-0.226201,0.095425,0.30785100000000004
714,-2.2537580000000004,-1.163657,0.9112530000000001,-0.30714,0.918257,0.249881,0.067636,-0.8511290000000001,0.097515,-0.5090520000000001,0.7152569999999999,0.32919
715,-2.277271,-1.1654959999999999,0.909999,-0.29989499999999997,0.918984,0.255936,0.071657,-1.222605,0.017903,-0.237443,1.017432,0.48982200000000004
716,-2.282983,-1.166665,0.927221,-0.297615,0.9194450000000001,0.256942,0.40836,-0.883906,-0.25898499999999997,0.113442,0.299702,0.576126
717,-2.2663,-1.166097,0.9563870000000001,-0.302261,0.919221,0.252276,0.357042,-0.402455,-0.467196,0.177367,0.075866,-0.015002000000000001
718,-2.2766450000000003,-1.153281,0.9608700000000001,-0.308576,0.914099,0.263011,-0.8411799999999999,-0.7463420000000001,-0.546692,0.025434000000000002,0.48642799999999997,-0.06940700000000001
719,-2.292599,-1.140866,0.954356,-0.312836,0.9089950000000001,0.275378,0.137651,-0.303679,-0.207137,0.024262,0.31877300000000003,-0.189623
720,-2.2582310000000003,-1.1586020000000001,0.9893790000000001,-0.309603,0.9162440000000001,0.25419400000000003,1.369102,0.31827,0.365757,0.723422,-0.11834700000000001,-0.49182
721,-2.246289,-1.175448,1.0061639999999998,-0.300526,0.9228629999999999,0.240792,0.24005100000000001,-0.6123689999999999,0.442384,0.385289,0.708561,-0.341454
722,-2.307214,-1.174224,0.956269,-0.286145,0.9223899999999999,0.259402,-1.137851,-0.259112,0.674793,-0.054842999999999996,0.8244049999999999,0.247953
723,-2.3203259999999997,-1.174468,0.9167930000000001,-0.282553,0.922485,0.26297800000000005,-0.15141,1.4665920000000001,0.363279,-0.53927,0.390412,0.018715
724,-2.288538,-1.172942,0.926499,-0.291829,0.921895,0.25479,0.168691,1.034526,-0.554739,-0.372249,-0.371541,-0.471053
725,-2.228062,-1.162459,0.9719129999999999,-0.31432899999999997,0.917782,0.24257800000000002,0.475333,0.8639889999999999,-1.062989,-0.27020500000000003,-0.246457,-0.169489
726,-2.169474,-1.157653,1.0195379999999998,-0.331635,0.9158629999999999,0.22624,0.751184,0.671955,-0.432701,-0.155441,-0.061447,-0.10754200000000001
727,-2.1260220000000003,-1.171816,1.063394,-0.33009099999999997,0.921458,0.204762,1.3783159999999999,-0.21026999999999998,0.398545,0.2581,0.143957,-0.10690699999999999
728,-2.074861,-1.1945700000000001,1.118162,-0.321684,0.9300579999999999,0.177439,1.3298780000000001,0.369558,0.361144,0.249892,-0.056538,0.020406999999999998
729,-2.022059,-1.20244,1.1522700000000001,-0.32400300000000004,0.9329200000000001,0.15701600000000002,0.358406,1.425207,-0.11807999999999999,0.275084,-0.159147,-0.002963
730,-1.977698,-1.1971829999999999,1.16252,-0.335147,0.9310149999999999,0.144432,0.029794,1.844048,-0.412537,0.21660100000000002,-0.33696,-0.21123499999999998
731,-1.917509,-1.190122,1.188266,-0.349404,0.928414,0.12624200000000002,0.506562,1.7213209999999999,-0.504121,0.201546,-0.44942600000000005,-0.14613900000000002
732,-1.851141,-1.1881549999999999,1.229007,-0.358761,0.927682,0.103297,0.720679,1.255892,-0.181562,0.183072,-0.455163,-0.123698
733,-1.798976,-1.1914069999999999,1.260726,-0.36072,0.928891,0.083768,0.565238,1.1211309999999999,0.086717,-0.013548,-0.21950999999999998,-0.083142
734,-1.7460779999999998,-1.196023,1.294072,-0.36041799999999996,0.930591,0.06383,0.72264,1.02465,0.101827,-0.019267,-0.24634099999999998,0.029188
735,-1.6884099999999997,-1.201451,1.336847,-0.358476,0.932564,0.042357,0.832218,0.809778,0.194734,-0.087798,-0.26459499999999997,0.082826
736,-1.634923,-1.208275,1.380723,-0.353869,0.935006,0.022723,0.806806,0.5078699999999999,0.32526700000000003,-0.118986,-0.369774,0.09704299999999999
737,-1.577869,-1.218222,1.435871,-0.34526999999999997,0.9384870000000001,0.002442,1.126266,0.11810999999999999,0.5480520000000001,-0.058462,-0.171,0.060530999999999995
738,-1.516951,-1.2308860000000001,1.500192,-0.332883,0.9427840000000001,-0.017941,0.9281,0.098995,0.704789,0.008085,0.06124400000000001,0.11086800000000001
739,-1.4674770000000001,-1.245509,1.540846,-0.31784,0.947559,-0.032956,0.452639,0.788289,0.8351799999999999,0.09558,0.40347,0.22593400000000002
740,-1.421196,-1.2635,1.565876,-0.299065,0.953155,-0.045077,0.154658,1.3012860000000002,0.9435370000000001,-0.359093,0.43397600000000003,0.200961
741,-1.387873,-1.275501,1.573521,-0.286127,0.956716,-0.05293099999999999,-0.033076999999999995,1.218995,0.374037,-0.609548,0.241617,0.18137999999999999
742,-1.369181,-1.276987,1.573346,-0.283696,0.957148,-0.057985,0.0030670000000000003,0.7604,-0.057753,-0.600398,0.039862,0.19131700000000001
743,-1.35731,-1.2747600000000001,1.572015,-0.285071,0.9565,-0.0618,0.055103,0.588122,-0.17681,-0.515115,0.46290299999999995,-0.048704000000000004
744,-1.3624290000000001,-1.271873,1.565947,-0.288085,0.9556540000000001,-0.060912,-0.23550700000000002,-0.138762,-0.099928,-0.44072100000000003,0.5116310000000001,0.024503999999999998
745,-1.388943,-1.272706,1.540601,-0.288815,0.9558989999999999,-0.053109,-0.45962700000000006,-0.294969,-0.003017,0.060635,-0.18673399999999998,-0.30088000000000004
746,-1.450782,-1.2756399999999999,1.494898,-0.288758,0.956757,-0.034822000000000006,-0.8218,-1.302734,0.048087,0.051803999999999996,-0.077774,-0.34605199999999997
747,-1.5483069999999999,-1.2728540000000002,1.42964,-0.293439,0.955943,-0.0066,-1.004746,-1.855335,-0.394726,-0.089679,0.18343099999999998,-0.430091
748,-1.6640419999999998,-1.262337,1.3477139999999999,-0.302232,0.952802,0.028263999999999997,-1.334395,-1.75773,-0.5413640000000001,-0.019790000000000002,0.8132189999999999,-0.09673
749,-1.7496900000000002,-1.244265,1.275981,-0.315601,0.947161,0.05706900000000001,-1.208634,-0.350035,-0.766616,0.127139,0.8401930000000001,-0.072938
750,-1.8200290000000001,-1.226868,1.197041,-0.326732,0.9414370000000001,0.083161,-1.6491959999999999,0.43329300000000004,-0.472663,0.26616999999999996,0.711517,0.094802
751,-1.90029,-1.20896,1.0990280000000001,-0.334913,0.935249,0.114527,-1.928388,0.662675,-0.317879,0.254942,0.388223,-0.14943900000000002
752,-1.9657619999999998,-1.191678,1.018843,-0.341572,0.928991,0.14239200000000002,-1.438597,0.23368699999999998,-0.289338,0.23129699999999997,0.185633,-0.23658400000000002
753,-2.01925,-1.178563,0.9705239999999999,-0.344421,0.924058,0.165718,-0.910631,-0.8892100000000001,-0.190208,-0.012589,-0.085816,-0.183754
754,-2.073978,-1.169333,0.944707,-0.342298,0.9204899999999999,0.188415,-0.558728,-1.890675,-0.20249,-0.19488699999999998,-0.247486,-0.000732
755,-2.127269,-1.158159,0.929967,-0.34049,0.9160659999999999,0.21180100000000002,-0.568347,-1.9130459999999998,-0.45997,-0.13869700000000001,-0.317983,-0.050531
756,-2.1686959999999997,-1.140221,0.9237200000000001,-0.344954,0.908726,0.234933,-0.565037,-1.7434169999999998,-0.791313,0.107207,-0.538792,-0.13134200000000001
757,-2.19814,-1.12616,0.926515,-0.348199,0.902767,0.252463,-0.206046,-1.54887,-0.470725,0.25763800000000003,-0.756115,-0.231863
758,-2.221254,-1.123677,0.936952,-0.34405399999999997,0.9016959999999999,0.261799,0.312253,-1.6832630000000002,-0.07916799999999999,0.318892,-0.8429040000000001,-0.256077
759,-2.237461,-1.134349,0.954299,-0.332183,0.906259,0.261375,0.771117,-1.4936770000000001,0.329719,0.438262,-0.841058,-0.23396999999999998
760,-2.243258,-1.1516520000000001,0.974723,-0.318346,0.913438,0.25348899999999996,0.877467,-0.9725530000000001,0.452639,0.405519,-0.598435,-0.154398
761,-2.237469,-1.166579,0.995817,-0.309056,0.9194110000000001,0.243181,0.719396,-0.530045,0.219164,0.303059,-0.34125500000000003,0.078062
762,-2.227354,-1.1725430000000001,1.014081,-0.30715,0.92174,0.23669099999999998,0.27071100000000003,-0.26727399999999996,-0.10263699999999999,0.18874200000000002,-0.10521099999999999,0.274356
763,-2.230994,-1.166698,1.015002,-0.31053600000000003,0.919457,0.24110700000000002,-0.430095,-0.190555,-0.298842,0.044545,0.176948,0.376325
764,-2.2455060000000002,-1.155991,1.00027,-0.314675,0.9151950000000001,0.251724,-0.48455299999999996,-0.029135,-0.126377,-0.345893,0.406903,0.367005
765,-2.2652330000000003,-1.155756,0.9900950000000001,-0.309813,0.9151,0.258019,-0.026755,-0.853427,0.21757100000000001,-0.623522,0.733719,0.319954
766,-2.286941,-1.157414,0.986518,-0.30299299999999996,0.915767,0.26368600000000003,0.054683,-0.786659,-0.032978,-0.254151,0.448658,0.581437
767,-2.274337,-1.156306,1.0090649999999999,-0.30706700000000003,0.915322,0.26050300000000004,0.420134,-0.19475,-0.519361,-0.098725,0.044822,0.6703439999999999
768,-2.242552,-1.148332,1.0486879999999998,-0.320894,0.9120809999999999,0.255148,0.170809,-0.622237,-1.023687,-0.050169,0.165418,-0.375738
769,-2.253703,-1.123362,1.059294,-0.335596,0.90156,0.27300100000000005,-0.896076,-1.12341,-1.046511,-0.20906599999999997,0.530691,0.023066
770,-2.245675,-1.118394,1.0864690000000001,-0.34126999999999996,0.899399,0.273093,1.252429,-0.535726,-0.159519,0.139457,0.342773,-0.44208400000000003
771,-2.200683,-1.1446120000000002,1.139018,-0.334032,0.91055,0.24348899999999998,1.455227,-0.056667999999999996,0.542037,0.895433,0.076557,-0.7416739999999999
772,-2.210279,-1.156195,1.1379540000000001,-0.323194,0.915277,0.24037199999999997,-0.448485,-0.473629,0.437407,0.518476,0.739767,-0.412797
773,-2.255268,-1.155018,1.076949,-0.31289,0.914802,0.255345,-0.915225,1.3867120000000002,0.749025,-0.161368,0.17238599999999998,0.276332
774,-2.247576,-1.153039,1.052166,-0.316256,0.9140010000000001,0.254064,-0.315225,1.356019,-0.086367,-0.231,-0.21038800000000002,-0.39166799999999996
775,-2.2158860000000002,-1.141774,1.0603989999999999,-0.332355,0.909373,0.250092,-0.053815999999999996,1.110882,-0.813823,-0.352612,-0.402979,-0.37703000000000003
776,-2.1597009999999996,-1.135432,1.0982120000000002,-0.350664,0.906716,0.234233,0.754734,1.133512,-0.514443,-0.37344099999999997,0.088462,-0.136745
777,-2.0989150000000003,-1.145751,1.146218,-0.356145,0.91102,0.20777199999999998,1.3274219999999999,0.55892,0.155796,-0.19633,0.315512,-0.081002
778,-2.0423,-1.1668,1.205163,-0.350167,0.9194969999999999,0.178536,1.561792,0.162262,0.31283299999999997,0.23066,0.24514499999999997,-0.029778
779,-1.975832,-1.176175,1.26213,-0.353313,0.923142,0.15148,0.909842,0.985016,-0.277092,0.349788,-0.281312,-0.028418000000000002
780,-1.9234240000000002,-1.171142,1.2917319999999999,-0.36512,0.9211959999999999,0.13436700000000001,0.21777399999999997,1.3408209999999998,-0.476799,0.32648499999999997,-0.42063100000000003,-0.047163
781,-1.879851,-1.1640979999999999,1.306832,-0.3768,0.918432,0.120307,0.21429299999999998,1.578139,-0.414102,0.196746,-0.5482229999999999,-0.171469
782,-1.825549,-1.160763,1.334279,-0.385736,0.917108,0.10045,0.681377,1.277342,-0.189332,0.048395,-0.307595,-0.19832
783,-1.7629,-1.1668889999999998,1.38317,-0.385746,0.919532,0.075028,1.162231,0.650898,0.20793499999999998,-0.01205,-0.21804,-0.136964
784,-1.6948029999999998,-1.175508,1.444424,-0.38207800000000003,0.9228860000000001,0.047625,1.258029,0.649305,0.256676,0.218581,-0.504886,-0.180346
785,-1.619553,-1.187944,1.513009,-0.373085,0.9276030000000001,0.018205000000000002,1.440762,0.46358599999999994,0.720731,0.280403,-0.23493000000000003,-0.083116
786,-1.544722,-1.206601,1.5870229999999999,-0.356037,0.9344110000000001,-0.009285999999999999,1.169274,0.314591,0.919851,0.21228400000000003,-0.027427999999999998,0.030983999999999998
787,-1.4969370000000002,-1.2199440000000001,1.624672,-0.34271999999999997,0.9390799999999999,-0.025359,0.34643,0.815441,0.5256970000000001,0.043373,0.092887,0.21585
