,attitude.roll,attitude.pitch,attitude.yaw,gravity.x,gravity.y,gravity.z,rotationRate.x,rotationRate.y,rotationRate.z,userAcceleration.x,userAcceleration.y,userAcceleration.z
0,-2.652199,-1.189675,-3.106474,-0.174854,0.928248,0.328296,-0.177723,0.5797869999999999,0.054386000000000004,0.21432800000000002,0.492025,-0.30298200000000003
1,-2.668682,-1.185438,-3.111348,-0.171208,0.9266639999999999,0.334631,-0.067688,-1.144894,-0.040912000000000004,0.32805300000000004,0.593585,-0.637472
2,-2.668673,-1.199424,-3.093544,-0.165292,0.9318299999999999,0.32306,1.3029629999999999,-0.37041199999999996,0.095856,0.505807,0.587823,-0.59314
3,-2.641322,-1.2355260000000001,-3.061284,-0.15781900000000001,0.944321,0.288699,2.188627,-0.371017,0.544288,0.460187,0.772399,-0.49612700000000004
4,-2.612777,-1.295296,-3.005155,-0.137238,0.962289,0.234866,3.500057,-1.530151,0.767509,0.10545399999999999,0.640555,-0.316882
5,-2.516709,-1.369053,-2.873145,-0.117217,0.979719,0.16250599999999998,3.960026,-1.836022,0.669633,-0.22863899999999998,0.051927999999999995,0.035675
6,-2.30944,-1.432579,-2.626849,-0.101862,0.9904629999999999,0.09275599999999999,3.7166629999999996,-1.333749,0.482487,-0.37044299999999997,0.488968,0.599733
7,-1.7236099999999999,-1.4703620000000002,-2.026443,-0.099083,0.9949610000000001,0.01526,4.124447,-0.08507,-0.20525900000000002,-0.30298600000000003,0.720188,0.665892
8,-1.019472,-1.4435280000000001,-1.3297459999999999,-0.108109,0.9919120000000001,-0.066479,3.843911,0.849093,-0.47333500000000006,-0.40274,0.521988,0.18069100000000002
9,-0.685657,-1.400549,-1.0127,-0.10727300000000001,0.9855430000000001,-0.131131,2.6984470000000003,1.050969,0.11767799999999999,-0.439968,0.5998,-0.059039
10,-0.5134340000000001,-1.362422,-0.8621040000000001,-0.10160599999999999,0.978369,-0.18019200000000002,2.396489,1.2863639999999998,0.12060799999999999,-0.369784,0.5092260000000001,0.147324
11,-0.391361,-1.318921,-0.744379,-0.095063,0.968447,-0.23037399999999997,2.487639,-0.282951,0.34865100000000004,0.196549,0.170424,0.5134850000000001
12,-0.301743,-1.285076,-0.653473,-0.08376,0.9594590000000001,-0.269111,1.8884740000000002,0.7378560000000001,0.799288,0.22780300000000003,0.01541,0.5938640000000001
13,-0.20706799999999997,-1.244867,-0.5631109999999999,-0.065828,0.9473530000000001,-0.313347,2.64413,0.157469,0.6301220000000001,0.119645,-0.22724499999999997,0.56292
14,-0.151624,-1.191233,-0.501513,-0.055964,0.9288270000000001,-0.366262,2.826003,-0.5150640000000001,0.558547,0.011118000000000001,-0.502633,0.6517390000000001
15,-0.130313,-1.140662,-0.45624799999999993,-0.054186,0.90891,-0.41345600000000005,2.451623,-1.226343,0.535479,0.005266,-0.5239149999999999,0.660816
16,-0.131023,-1.098851,-0.42030500000000004,-0.059395,0.8906860000000001,-0.450722,2.011022,-1.9820209999999998,0.484231,-0.009681,-0.569976,0.6429520000000001
17,-0.159141,-1.06467,-0.394011,-0.076825,0.8746290000000001,-0.47866499999999995,1.630433,-2.841648,0.26903,0.007077,-0.623607,0.783826
18,-0.202389,-1.039721,-0.377808,-0.10180299999999999,0.8622629999999999,-0.496122,1.065864,-2.78479,0.126145,-0.067325,-0.7011149999999999,0.888258
19,-0.24177800000000002,-1.028982,-0.36945900000000004,-0.123471,0.856775,-0.500691,0.23969000000000001,-1.9678650000000002,0.078735,0.008603,-0.779473,0.912998
20,-0.266401,-1.038067,-0.368669,-0.133707,0.861424,-0.48996999999999996,-0.8623559999999999,-0.8811450000000001,0.199967,0.096612,-0.815602,0.731715
21,-0.277479,-1.071315,-0.37348600000000004,-0.131205,0.8778309999999999,-0.460649,-2.1055610000000002,-0.012686,0.413429,0.17614200000000002,-0.753838,0.39227399999999996
22,-0.273547,-1.13012,-0.385587,-0.11523199999999999,0.9044629999999999,-0.410691,-3.327932,1.210469,0.619104,0.20725700000000002,-0.7424149999999999,0.07396
23,-0.24907800000000002,-1.197933,-0.395042,-0.089799,0.9312879999999999,-0.353041,-2.9888,1.722476,0.689183,-0.212569,0.327287,-1.0963
24,-0.23136199999999998,-1.2321440000000001,-0.388346,-0.076178,0.943203,-0.323364,-0.805443,-0.556347,0.444572,-0.178918,1.8944279999999998,-1.615418
25,-0.23048200000000002,-1.227255,-0.354811,-0.076946,0.9415680000000001,-0.327916,1.000305,-1.59604,0.473472,0.277721,1.157202,-0.621334
26,-0.212155,-1.199341,-0.31109000000000003,-0.07643,0.9318,-0.354833,1.650548,-0.784382,0.46308699999999997,-0.055071,-0.420646,-0.467524
27,-0.180864,-1.171292,-0.26466100000000004,-0.069966,0.9212540000000001,-0.382616,1.3773879999999998,-0.602035,0.653225,-0.044657999999999996,-0.5027510000000001,-0.34884499999999996
28,-0.169696,-1.165246,-0.22731300000000002,-0.06662799999999999,0.9188850000000001,-0.388857,-0.351544,-1.359076,0.727577,0.282098,-0.595246,0.250628
29,-0.153891,-1.199231,-0.200605,-0.055652999999999994,0.93176,-0.358783,-2.173248,0.70733,0.7656149999999999,0.160588,-0.033414,0.760883
30,-0.054458000000000006,-1.244212,-0.16591,-0.017462000000000002,0.9471430000000001,-0.320333,-1.8627790000000002,4.879452,0.903443,-0.102869,0.562271,0.8598379999999999
31,0.046092,-1.236167,-0.154829,0.015132,0.9445319999999999,-0.328069,1.7762209999999998,1.3737709999999999,-0.420084,-1.074168,1.9947990000000002,-0.5845600000000001
32,-0.015861,-1.200078,-0.19153599999999998,-0.005746,0.932067,-0.362237,1.08809,-0.845649,-0.50964,-0.500525,-1.80722,1.631509
33,-0.021144999999999997,-1.210715,-0.21547,-0.00745,0.935868,-0.352269,-1.4470290000000001,1.7814020000000002,-0.463417,-0.44430200000000003,-1.7164009999999998,0.923451
34,-0.0037689999999999998,-1.2614530000000002,-0.28024699999999997,-0.001147,0.952534,-0.30442800000000003,-2.842873,5.044436,-1.406701,-0.220975,0.610424,1.161805
35,-0.049088,-1.3196709999999998,-0.421207,-0.012193,0.968633,-0.248191,-3.130559,3.674218,-2.1536419999999996,-0.12892,1.192149,1.145713
36,-0.24635500000000002,-1.3686120000000002,-0.673016,-0.04897,0.9796299999999999,-0.194742,-2.359839,1.755452,-2.503654,0.063863,1.016143,0.9834379999999999
37,-0.506971,-1.386324,-0.9493799999999999,-0.08905700000000001,0.983033,-0.16035,-1.6616380000000002,-0.241006,-1.7452590000000001,0.5866,0.48913500000000004,-0.253819
38,-0.709767,-1.401604,-1.132479,-0.109724,0.985721,-0.127716,-1.391132,-1.4370379999999998,-0.451425,0.627073,0.236096,-0.342102
39,-0.84536,-1.415324,-1.239989,-0.11585,0.9879389999999999,-0.102728,-1.018849,-1.434985,0.043624,0.385732,0.03202,-0.091318
40,-0.9871469999999999,-1.439036,-1.355681,-0.10961800000000001,0.991332,-0.072391,-1.71905,-1.428379,0.596336,0.159575,-0.130752,0.132099
41,-1.3321209999999999,-1.468717,-1.67635,-0.098996,0.9947940000000001,-0.024087,-2.540307,-1.112419,0.6158319999999999,0.080563,-0.19433399999999998,0.220086
42,-1.935329,-1.481578,-2.274614,-0.083222,0.996023,0.031756,-2.9776569999999998,0.38569699999999996,0.909959,-0.031494,-0.345037,0.18649000000000002
43,-2.4866599999999996,-1.458661,-2.870669,-0.068146,0.993719,0.088729,-2.939766,3.088294,0.8789870000000001,-0.06398,-0.35515399999999997,-0.221572
44,-2.707725,-1.42135,3.110795,-0.062584,0.9888540000000001,0.135079,-2.286625,4.061788,0.621656,-0.07323500000000001,-0.303185,-0.40421399999999996
45,-2.773434,-1.392548,2.978155,-0.06380599999999999,0.9841559999999999,0.165411,-1.464543,2.647798,0.26815100000000003,-0.092383,-0.264872,-0.460851
46,-2.777073,-1.366593,2.9388360000000002,-0.07228899999999999,0.979223,0.18945,-1.338009,1.216011,-0.359381,-0.153602,-0.16739400000000002,-0.122769
47,-2.751035,-1.33704,2.952611,-0.088179,0.9728030000000001,0.21418,-1.267647,0.49010299999999996,-0.8386600000000001,0.05934,-0.11214600000000001,-0.005012
48,-2.7113240000000003,-1.309279,2.984785,-0.107839,0.9659989999999999,0.234971,-1.047281,0.285197,-0.9362020000000001,0.23688299999999998,-0.069209,-0.126527
49,-2.694286,-1.277694,3.009297,-0.12496600000000001,0.9573520000000001,0.26048899999999997,-1.575621,-0.770558,-0.994088,0.381802,0.056426,-0.533896
50,-2.727087,-1.231778,3.0039700000000003,-0.133931,0.943082,0.30439,-2.267594,-1.624511,-0.760681,0.47461400000000004,0.175906,-0.559746
51,-2.755544,-1.197332,2.99543,-0.137371,0.931069,0.337984,-1.155292,-0.215013,-0.427842,0.167996,0.367805,-0.232607
52,-2.732303,-1.181265,2.995421,-0.151123,0.9250870000000001,0.348381,-0.561962,1.6920939999999998,-0.20929299999999998,0.11283900000000001,0.447395,-0.140052
53,-2.7142310000000003,-1.173015,2.986916,-0.160552,0.9219229999999999,0.352527,-0.479786,0.760815,0.042439,0.10786300000000001,0.411497,-0.219058
54,-2.727862,-1.162755,2.976585,-0.159527,0.9179,0.36332600000000004,-0.492992,-0.645845,-0.088311,0.031307,0.580407,-0.519911
55,-2.728462,-1.165821,2.986573,-0.15817799999999999,0.919112,0.360842,0.7725069999999999,-0.154817,-0.103601,0.300451,0.670549,-0.711062
56,-2.7005209999999997,-1.193649,3.012783,-0.15721400000000002,0.9297190000000001,0.333017,1.796355,0.16809000000000002,0.30799299999999996,0.47250600000000004,0.77661,-0.499169
57,-2.684343,-1.24227,3.041425,-0.14244,0.946519,0.289495,2.8409419999999996,-1.0283120000000001,0.757998,0.41393900000000006,0.835693,-0.490361
58,-2.6368080000000003,-1.315141,3.118693,-0.12229200000000001,0.967498,0.221331,4.101818,-1.416831,0.654072,-0.049049,0.313859,-0.21654
59,-2.536923,-1.389259,-3.024425,-0.102629,0.983567,0.148519,3.81753,-1.792976,0.638683,-0.276018,0.20231500000000002,0.27120500000000003
60,-2.274249,-1.453997,-2.741203,-0.088857,0.993187,0.075369,3.849706,-0.462031,0.506879,-0.19683399999999998,0.594673,0.6390020000000001
61,-1.529312,-1.4859200000000001,-1.99403,-0.08468300000000001,0.9964,-0.003515,3.946281,0.372594,0.028988999999999997,-0.283283,0.795867,0.600927
62,-0.864506,-1.45632,-1.334857,-0.08689,0.993455,-0.074126,3.154775,0.259805,-0.11633199999999999,-0.412438,0.504424,-0.202699
63,-0.6021989999999999,-1.4172770000000001,-1.070476,-0.086615,0.988239,-0.12600899999999998,2.4614990000000003,0.23173200000000002,0.045504,-0.36796,0.505108,0.012789
64,-0.436587,-1.371987,-0.9189729999999999,-0.08351,0.980302,-0.17896900000000002,2.713225,1.1651129999999998,0.043929,-0.38710100000000003,0.402632,0.12673800000000002
65,-0.309247,-1.333668,-0.8064279999999999,-0.071492,0.972016,-0.22376300000000002,1.84978,0.42364399999999997,0.800491,0.11758800000000001,0.23574699999999998,0.515373
66,-0.21226,-1.297093,-0.693628,-0.056942999999999994,0.9627760000000001,-0.264227,2.495238,-0.49487700000000007,0.837155,0.23566900000000002,0.048514999999999996,0.7104699999999999
67,-0.125436,-1.2464309999999998,-0.610916,-0.039872000000000005,0.9478530000000001,-0.31619899999999995,2.633384,0.491403,0.758876,0.018586000000000002,-0.42215699999999995,0.5172640000000001
68,-0.084537,-1.1977360000000001,-0.557307,-0.030774,0.9312159999999999,-0.363162,2.5033529999999997,-1.108431,0.552782,0.032269,-0.677524,0.690509
69,-0.08983300000000001,-1.149538,-0.530269,-0.036683999999999994,0.912575,-0.407258,2.289746,-1.4399879999999998,0.269704,0.023729,-0.71241,0.753907
70,-0.106853,-1.110316,-0.511065,-0.047393,0.8958389999999999,-0.441842,1.848768,-2.103802,0.15638,-0.012116,-0.678508,0.7203
71,-0.15448199999999998,-1.079651,-0.503967,-0.07257000000000001,0.881793,-0.46601800000000004,1.30009,-2.957113,-0.160417,0.0016309999999999999,-0.7130920000000001,0.899459
72,-0.21716300000000002,-1.0621040000000002,-0.5061479999999999,-0.10493699999999999,0.873382,-0.475595,0.577987,-2.9692979999999998,-0.216719,0.029985,-0.704589,0.935175
73,-0.272255,-1.0602260000000001,-0.513717,-0.131406,0.872466,-0.470674,-0.300296,-2.022599,-0.171725,0.033826,-0.759307,0.881975
74,-0.309931,-1.078716,-0.5266609999999999,-0.144097,0.881352,-0.449949,-1.406993,-0.8937649999999999,0.07760800000000001,0.14724,-0.782261,0.442808
75,-0.328106,-1.123192,-0.544806,-0.139472,0.901487,-0.409717,-2.7641430000000002,0.429279,0.461675,0.23346599999999998,-0.643033,-0.104352
76,-0.326437,-1.193086,-0.56907,-0.11825999999999999,0.9295120000000001,-0.349315,-3.726202,1.516883,0.7729600000000001,0.015111000000000001,0.126198,-0.861684
77,-0.307082,-1.251878,-0.581133,-0.094775,0.949575,-0.298869,-1.8547650000000002,1.155159,0.631603,-0.309125,1.002451,-1.491368
78,-0.292642,-1.259485,-0.5496949999999999,-0.088364,0.951933,-0.29328200000000004,0.532432,-1.652366,0.557872,0.060242,2.163821,-1.60778
79,-0.279657,-1.233533,-0.500868,-0.091338,0.943664,-0.31804899999999997,1.8873419999999999,-1.45255,0.29682,-0.001176,-0.042739,-0.381536
80,-0.24994299999999997,-1.196174,-0.450931,-0.09051000000000001,0.9306459999999999,-0.354549,1.9433580000000001,-0.521031,0.397499,-0.202261,-0.435254,-0.26210500000000003
81,-0.231382,-1.174511,-0.409714,-0.088517,0.922501,-0.375706,0.569842,-1.481722,0.475662,-0.039947,-0.601487,-0.162899
82,-0.23579899999999998,-1.1911559999999999,-0.394573,-0.086576,0.9287979999999999,-0.360329,-1.284877,-0.316565,0.548808,0.203519,0.074544,0.09855
83,-0.171503,-1.2102979999999999,-0.374683,-0.0602,0.9357209999999999,-0.347563,0.090754,4.36648,0.398591,-0.51347,2.360177,-0.09485
84,-0.12729000000000001,-1.1838389999999999,-0.372744,-0.047906,0.926062,-0.374317,1.647085,-0.38222,-0.49137299999999995,-1.219703,3.192209,-0.775219
85,-0.157839,-1.171851,-0.39206199999999997,-0.06105700000000001,0.9214709999999999,-0.383616,-0.385954,-0.303561,-0.284553,-0.560937,-1.8472979999999999,1.389125
86,-0.136829,-1.204508,-0.41608599999999996,-0.048852,0.9336629999999999,-0.35480300000000004,-2.392848,3.7099580000000003,-0.299441,-0.390509,-1.16874,0.888739
87,-0.11386099999999999,-1.253627,-0.49062700000000004,-0.035434,0.9501219999999999,-0.309857,-2.6005220000000002,4.50706,-1.252631,-0.178723,0.235348,1.1711690000000001
88,-0.187478,-1.3118049999999999,-0.634953,-0.047733,0.966649,-0.251616,-3.563998,2.521611,-1.804814,-0.08984,0.889415,0.773894
89,-0.385763,-1.368702,-0.874926,-0.075523,0.979648,-0.185967,-3.054971,1.415991,-1.7474990000000001,0.410972,0.734631,0.35376799999999997
90,-0.596968,-1.389716,-1.108141,-0.101234,0.98365,-0.14894000000000002,-1.3657139999999999,0.530478,-1.28057,0.575172,0.591897,0.12318299999999999
91,-0.7388100000000001,-1.388069,-1.246597,-0.12236400000000001,0.983352,-0.134331,-0.403649,-0.811326,-0.8939799999999999,0.36391,0.158723,-0.057670000000000006
92,-0.8403930000000001,-1.390352,-1.31827,-0.133682,0.983764,-0.11973099999999999,-0.843621,-1.896824,0.014463,0.272262,-0.050048,-0.043706
93,-1.0279209999999999,-1.4169770000000002,-1.459184,-0.131179,0.988193,-0.07914600000000001,-2.204749,-2.822806,0.45906800000000003,0.27776999999999996,-0.082065,-0.0034799999999999996
94,-1.413038,-1.444431,-1.7875310000000002,-0.124453,0.992027,-0.019798,-2.773684,-2.79668,0.545859,0.054155999999999996,-0.263191,0.225487
95,-1.933611,-1.453832,-2.279473,-0.10909100000000001,0.993168,0.041413,-2.965134,-0.65833,0.892159,0.020636,-0.35564,0.063262
96,-2.3992299999999998,-1.435956,-2.78419,-0.090874,0.990923,0.099053,-3.0508610000000003,3.2847,1.121516,-0.07259299999999999,-0.394899,-0.067635
97,-2.621343,-1.400448,-3.105408,-0.084267,0.985526,0.147091,-2.623425,5.247819,0.797246,-0.13506300000000002,-0.379828,-0.372723
98,-2.6734400000000003,-1.369622,3.026832,-0.090164,0.979833,0.178315,-1.659029,4.2281830000000005,0.27011,-0.333389,-0.27934699999999996,-0.502259
99,-2.6649979999999998,-1.342666,2.9875279999999997,-0.103748,0.974091,0.20095,-1.3306850000000001,1.203935,-0.563343,-0.362087,-0.264176,-0.28174499999999997
100,-2.639084,-1.3102280000000002,3.004156,-0.124079,0.9662440000000001,0.225777,-1.204756,0.218075,-1.084629,0.035593,-0.149654,0.050513999999999996
101,-2.607999,-1.284353,3.0449450000000002,-0.143707,0.959255,0.243261,-0.762228,-0.851662,-1.151738,0.23457399999999998,0.090397,-0.254262
102,-2.624734,-1.248425,3.064031,-0.156554,0.9484870000000001,0.27543,-1.98832,-2.263401,-1.092264,0.47263999999999995,0.22560100000000002,-0.637796
103,-2.696143,-1.196976,3.037412,-0.157339,0.930939,0.32953699999999997,-2.38828,-1.907418,-0.525083,0.533499,0.27526799999999996,-0.45359099999999997
104,-2.709707,-1.1707610000000002,3.0139669999999996,-0.163017,0.921047,0.353688,-0.852925,1.8693540000000002,-0.08443200000000001,0.150306,0.46715200000000007,-0.26356999999999997
105,-2.668707,-1.16316,3.005261,-0.18056,0.918061,0.352931,-0.25601199999999996,2.134059,0.067881,0.10800499999999999,0.447479,-0.24259499999999998
106,-2.662334,-1.158342,2.997761,-0.184843,0.91614,0.355693,-0.338338,-0.144928,-0.036596,0.17024,0.506696,-0.323467
107,-2.678115,-1.155418,2.994843,-0.180404,0.9149639999999999,0.360962,0.157461,-0.625216,0.028370999999999997,0.305526,0.679107,-0.586364
108,-2.661355,-1.1768020000000001,3.013839,-0.177347,0.923383,0.340454,1.606959,0.224233,0.263871,0.532419,0.633258,-0.459442
109,-2.645203,-1.2181959999999998,3.038771,-0.164467,0.938478,0.303656,2.317143,-1.085102,0.718104,0.479317,0.8734569999999999,-0.48152799999999996
110,-2.634276,-1.277575,3.094663,-0.140423,0.957318,0.252632,3.5712330000000003,-2.33515,0.550072,-0.021686,0.690479,-0.490547
111,-2.535456,-1.350843,-3.04569,-0.124297,0.975908,0.179313,4.111064,-1.567185,0.373398,-0.31909299999999996,0.105925,-0.046165
112,-2.316268,-1.415476,-2.81448,-0.11366400000000002,0.9879620000000001,0.104931,3.6603830000000004,0.124453,0.502678,-0.075164,0.516432,0.497608
113,-1.853592,-1.460122,-2.357243,-0.106058,0.9938819999999999,0.030819,3.797761,0.6411939999999999,0.363038,-0.193411,0.68161,0.592381
114,-1.125243,-1.459358,-1.644255,-0.100348,0.9937969999999999,-0.047925,3.758785,1.0712629999999999,0.20625500000000002,-0.22558000000000003,0.682747,0.345929
115,-0.712389,-1.423466,-1.238181,-0.095951,0.989167,-0.11109400000000001,2.759925,0.081844,0.217637,-0.347744,0.562652,-0.082677
116,-0.51613,-1.382675,-1.0419690000000001,-0.092294,0.9823569999999999,-0.162651,2.5694529999999998,0.27064099999999996,0.05583099999999999,-0.343482,0.486439,0.19442
117,-0.417071,-1.34433,-0.9409930000000001,-0.090955,0.9744659999999999,-0.205288,2.046118,-0.352645,0.267687,-0.249575,0.373786,0.278041
118,-0.317325,-1.3100829999999999,-0.823045,-0.08043099999999999,0.9662059999999999,-0.24489899999999998,2.128932,-0.762404,0.901178,-0.004850999999999999,0.123912,0.42406800000000006
119,-0.220151,-1.268166,-0.710577,-0.065083,0.954556,-0.290838,2.645947,-0.342518,0.943775,0.180058,-0.272122,0.6311859999999999
120,-0.14436300000000002,-1.217431,-0.629105,-0.049783999999999995,0.938214,-0.342456,2.742671,-0.159842,0.731641,-0.014928,-0.572384,0.5737949999999999
121,-0.116477,-1.167088,-0.57886,-0.045652,0.9196110000000001,-0.390169,2.4853669999999997,-1.3363909999999999,0.5433439999999999,-0.067583,-0.666589,0.685457
122,-0.12400699999999999,-1.123424,-0.545027,-0.05350800000000001,0.901587,-0.42927600000000005,2.090981,-2.184234,0.323759,0.015696,-0.661032,0.729279
123,-0.15550999999999998,-1.089588,-0.526982,-0.071688,0.8864360000000001,-0.457265,1.509004,-2.539176,0.080866,0.006854000000000001,-0.705559,0.775395
124,-0.206994,-1.066087,-0.520771,-0.099379,0.875315,-0.47323000000000004,0.9883639999999999,-2.977575,-0.124102,-0.001527,-0.683054,0.8867430000000001
125,-0.263419,-1.054826,-0.521012,-0.128467,0.869815,-0.47635900000000003,0.248654,-2.585093,-0.13084,0.02071,-0.67467,0.907725
126,-0.309187,-1.060079,-0.527105,-0.14873499999999998,0.872394,-0.465624,-0.6376390000000001,-1.6717400000000002,0.0017350000000000002,0.10247,-0.750049,0.7413810000000001
127,-0.337543,-1.086767,-0.535687,-0.154109,0.885127,-0.439089,-1.77311,-0.6477069999999999,0.377052,0.11317,-0.7383069999999999,0.371309
128,-0.349763,-1.139732,-0.553337,-0.143182,0.9085219999999999,-0.392538,-3.160413,0.686753,0.596387,0.09823,-0.739943,0.086798
129,-0.360047,-1.212164,-0.5869300000000001,-0.123661,0.936378,-0.328487,-3.587969,1.081999,0.693307,-0.264813,0.45205,-0.9068950000000001
130,-0.35418499999999997,-1.250581,-0.592007,-0.10917,0.949168,-0.295231,-0.433802,-0.185303,0.5289560000000001,-0.256796,2.142843,-1.79298
131,-0.33269299999999996,-1.23779,-0.541285,-0.10675699999999999,0.9450639999999999,-0.30896,1.3283459999999998,-1.460151,0.527943,0.208075,0.720067,-0.705521
132,-0.299194,-1.208223,-0.483687,-0.10454200000000001,0.9349870000000001,-0.338924,1.835568,-0.7339899999999999,0.44403000000000004,0.167576,0.102702,-0.403386
133,-0.257153,-1.176852,-0.42713100000000004,-0.09761900000000001,0.9234020000000001,-0.371211,1.639752,-0.586344,0.7202109999999999,-0.085303,-0.474641,-0.23293000000000003
134,-0.23356999999999997,-1.167524,-0.376616,-0.090829,0.919782,-0.38177300000000003,-0.033972,-1.400051,0.798225,0.06112000000000001,-0.432889,-0.07892
135,-0.226485,-1.189249,-0.356511,-0.083614,0.92809,-0.362847,-1.316055,0.336431,0.557376,0.108242,0.1898,-0.154075
136,-0.151153,-1.187722,-0.3346,-0.056282000000000006,0.9275200000000001,-0.369512,1.4255959999999999,3.14955,0.11465499999999999,-0.815697,2.9812939999999997,-0.6773020000000001
137,-0.154577,-1.1513879999999999,-0.337144,-0.062697,0.91333,-0.402364,1.447697,-0.777107,-0.42388400000000004,-0.47795299999999996,-1.262222,1.9590049999999999
138,-0.170629,-1.156061,-0.34462600000000004,-0.06842100000000001,0.915223,-0.397096,-1.284817,0.531487,-0.029108999999999996,-0.712951,-1.9643099999999998,1.6815509999999998
139,-0.125104,-1.202466,-0.377781,-0.044926999999999995,0.9329299999999999,-0.357244,-2.5777959999999998,5.456607,-0.593518,-0.21503699999999998,-0.054802,1.328435
140,-0.08913,-1.245909,-0.460192,-0.028413,0.9476870000000001,-0.317936,-2.4433759999999998,5.110027,-1.4168020000000001,-0.16535899999999998,0.33353299999999997,1.4526860000000001
141,-0.158279,-1.306033,-0.609568,-0.041246,0.9651540000000001,-0.25841,-3.5622519999999995,2.961098,-1.977339,-0.094527,0.710016,0.597216
142,-0.33414299999999997,-1.3583290000000001,-0.8226530000000001,-0.069158,0.977514,-0.19921,-2.660834,0.654575,-1.643348,0.273015,0.5775859999999999,0.505774
143,-0.529221,-1.380317,-1.023534,-0.095585,0.981914,-0.16343,-1.3694950000000001,0.026064,-1.165641,0.558796,0.527043,0.31201999999999996
144,-0.640845,-1.386794,-1.1393149999999999,-0.10939000000000002,0.9831190000000001,-0.14666300000000002,-0.740866,0.057305999999999996,-0.466946,0.54068,0.196568,-0.115223
145,-0.734234,-1.401656,-1.226566,-0.11278800000000001,0.9857299999999999,-0.12496199999999999,-1.337612,-0.6661199999999999,0.075674,0.33226999999999995,0.015688999999999998,-0.110176
146,-0.9075850000000001,-1.433062,-1.378667,-0.10819300000000001,0.9905299999999999,-0.084527,-2.274706,-1.5167549999999999,0.491098,0.231515,-0.230138,0.11161199999999999
147,-1.269295,-1.466983,-1.704227,-0.09895,0.994616,-0.030772000000000004,-2.5574630000000003,-1.921947,0.566554,0.042737,-0.21547199999999997,0.135661
148,-1.8140740000000002,-1.4815,-2.226632,-0.086551,0.996016,0.021481,-2.470109,-0.6603180000000001,0.6713020000000001,-0.09994199999999999,-0.274748,-0.033108
149,-2.338348,-1.467797,-2.773279,-0.073987,0.9947,0.071392,-2.631968,2.2580310000000003,0.671772,-0.128589,-0.350566,-0.10725
150,-2.599767,-1.433706,-3.123246,-0.070475,0.990618,0.117086,-2.543784,5.134483,0.54372,-0.026264999999999997,-0.384295,-0.123357
151,-2.673626,-1.402316,2.983692,-0.075637,0.985841,0.14965499999999998,-1.66385,4.618849,0.324065,-0.043702,-0.362016,-0.185543
152,-2.6808330000000002,-1.375826,2.908698,-0.08614,0.9810530000000001,0.17353,-1.533822,2.391995,-0.21376199999999998,-0.255062,-0.203817,-0.190971
153,-2.670954,-1.339281,2.895394,-0.104046,0.9733200000000001,0.204504,-1.695085,0.661288,-0.9636309999999999,-0.151829,-0.207222,-0.062230999999999995
154,-2.6449599999999998,-1.303151,2.923165,-0.126006,0.9643959999999999,0.23251,-1.309158,-0.598222,-1.209285,0.124724,0.06252,-0.280926
155,-2.666454,-1.260327,2.9421630000000003,-0.139756,0.95219,0.271663,-2.254921,-2.846912,-1.2151459999999998,0.47506800000000005,0.260472,-0.8074899999999999
156,-2.747598,-1.203574,2.921611,-0.137821,0.933328,0.331514,-2.5275529999999997,-2.621437,-0.62234,0.509419,0.275336,-0.824617
157,-2.729413,-1.1911129999999999,2.9267369999999997,-0.148475,0.928782,0.33958499999999997,0.442275,2.4797580000000004,-0.16482,0.17617,0.377187,-0.41706899999999997
158,-2.655881,-1.207165,2.935882,-0.16604000000000002,0.9346110000000001,0.31453400000000004,0.759962,3.191321,0.368462,0.31447800000000004,0.437123,0.005565
159,-2.632083,-1.2111180000000001,2.921949,-0.171674,0.93601,0.307266,-0.349428,0.711549,0.21754400000000002,0.236722,0.44260600000000005,0.0074010000000000005
160,-2.681004,-1.198507,2.895988,-0.161677,0.9314969999999999,0.325843,-0.888331,-2.103644,0.050744,0.12362200000000001,0.575263,-0.521048
161,-2.709548,-1.199576,2.9021310000000002,-0.151895,0.9318850000000001,0.32942,1.0200200000000001,-0.9069649999999999,-0.098761,0.292123,0.65303,-0.785886
162,-2.6678610000000003,-1.236018,2.946952,-0.149892,0.944483,0.292376,2.290705,-0.093543,0.24342600000000003,0.453984,0.750143,-0.729891
163,-2.625178,-1.292498,3.014008,-0.135647,0.9615239999999999,0.238894,3.507115,-1.466621,0.5047149999999999,0.367641,0.7804800000000001,-0.566287
164,-2.505261,-1.3674870000000001,-3.1077619999999997,-0.119985,0.979404,0.162393,4.38253,-2.1542369999999997,0.407025,-0.19271300000000002,0.164609,0.098044
165,-2.2372799999999997,-1.435139,-2.798189,-0.106298,0.9908129999999999,0.083608,3.955954,-1.3306440000000002,0.47669700000000004,-0.24125100000000002,0.48866400000000004,0.647593
166,-1.676813,-1.470372,-2.2242580000000003,-0.099691,0.9949620000000001,0.010609,3.6961410000000003,-0.085385,0.181662,-0.174494,0.626041,0.67886
167,-0.99646,-1.453859,-1.548874,-0.097952,0.9931709999999999,-0.063385,3.5911129999999996,0.587859,0.00915,-0.224619,0.684137,0.09800700000000001
168,-0.6579510000000001,-1.412355,-1.215776,-0.096481,0.987474,-0.12484200000000001,2.742496,0.28283,0.035660000000000004,-0.187592,0.635054,-0.101141
169,-0.49590200000000006,-1.366602,-1.060019,-0.096487,0.979225,-0.178351,2.7052169999999998,0.630807,-0.106052,-0.21428899999999998,0.579339,0.131903
170,-0.385348,-1.3193840000000001,-0.9610620000000001,-0.09350900000000001,0.968562,-0.230528,2.5451040000000003,0.631401,0.15027100000000002,-0.24636599999999997,0.5340779999999999,0.301345
171,-0.29399899999999995,-1.2813510000000001,-0.85306,-0.08271,0.9584020000000001,-0.273174,2.0676229999999998,-1.223018,1.039141,0.16129300000000002,0.212969,0.6682239999999999
172,-0.200534,-1.244548,-0.745344,-0.06384,0.9472510000000001,-0.314069,2.366125,0.002779,1.130454,0.23808,-0.188142,0.554852
173,-0.11440499999999999,-1.199601,-0.656658,-0.041408,0.931894,-0.360358,2.408049,0.074002,1.131724,-0.08226499999999999,-0.44657299999999994,0.598151
174,-0.07536799999999999,-1.15475,-0.596871,-0.030431,0.914694,-0.402999,2.3340560000000004,-1.5032450000000002,0.8234440000000001,-0.115398,-0.5159819999999999,0.649017
175,-0.081196,-1.111404,-0.558217,-0.035963,0.896322,-0.441942,2.082957,-2.1232900000000003,0.5223140000000001,-0.015734,-0.721121,0.790483
176,-0.110223,-1.07812,-0.536705,-0.052028,0.88107,-0.47011499999999995,1.47716,-2.636551,0.198273,-0.12036600000000001,-0.820844,0.8198770000000001
177,-0.162609,-1.0574290000000002,-0.530155,-0.07950800000000001,0.8710959999999999,-0.484634,0.762954,-2.992037,-0.060497,-0.08870499999999999,-0.845842,0.875992
178,-0.223951,-1.052011,-0.5344220000000001,-0.110115,0.8684219999999999,-0.483444,-0.071745,-2.731882,-0.192711,-0.008416,-0.7987810000000001,0.934265
179,-0.28175,-1.062863,-0.548137,-0.13523,0.873751,-0.46719499999999997,-0.927583,-2.0164150000000003,-0.15046700000000002,0.063452,-0.794864,0.773088
180,-0.326061,-1.09146,-0.565376,-0.147726,0.887301,-0.436891,-1.830525,-1.061142,0.168877,0.09407599999999999,-0.813113,0.61905
181,-0.354317,-1.141681,-0.59292,-0.144354,0.909334,-0.390221,-3.0731889999999997,0.318984,0.29836599999999996,0.0371,-0.608889,-0.194465
182,-0.39672199999999996,-1.210617,-0.648555,-0.136182,0.935834,-0.32506799999999997,-3.616455,0.480778,0.268727,-0.259936,0.421741,-0.935292
183,-0.41022600000000004,-1.238151,-0.668057,-0.13023099999999999,0.945182,-0.29945,0.159448,-0.689181,0.263486,-0.462649,1.6583189999999999,-1.690433
184,-0.40072800000000003,-1.221233,-0.620658,-0.1336,0.939522,-0.315355,1.3941620000000001,-1.6517830000000002,0.42289499999999997,0.34444600000000003,0.7328560000000001,-0.645094
185,-0.362414,-1.192231,-0.563265,-0.13103099999999998,0.9291959999999999,-0.34558,1.9297080000000002,-0.482868,0.41445600000000005,0.044712,-0.183423,-0.34234699999999996
186,-0.314952,-1.161824,-0.499939,-0.12318599999999999,0.91753,-0.378106,1.534505,-0.634467,0.8391780000000001,-0.074126,-0.322422,-0.204841
187,-0.291953,-1.1576389999999999,-0.45606599999999997,-0.11556199999999998,0.915858,-0.384513,-0.261818,-0.852879,0.539559,-0.2342,0.536977,-0.088754
188,-0.30316,-1.169815,-0.462692,-0.116526,0.9206790000000001,-0.37252199999999996,-0.188444,0.53028,-0.163523,-0.526876,2.04563,-0.265036
189,-0.28776199999999996,-1.144377,-0.45953299999999997,-0.11738599999999999,0.910452,-0.396606,1.510155,-0.09811,-0.33458699999999997,-0.526016,2.0558560000000003,-0.240952
190,-0.28984499999999996,-1.138595,-0.45337200000000005,-0.11971500000000002,0.9080459999999999,-0.401399,-0.605224,-0.077472,0.333204,-0.3234,-1.336207,1.681947
191,-0.256832,-1.173499,-0.459581,-0.098287,0.92211,-0.374236,-2.248314,3.380094,0.23931599999999997,-0.348094,-0.559699,0.975844
192,-0.19358499999999998,-1.219265,-0.502174,-0.066243,0.938846,-0.337904,-2.301845,5.6916839999999995,-0.497888,-0.186443,-0.030826,1.252256
193,-0.18193,-1.265994,-0.597266,-0.054297000000000005,0.9539059999999999,-0.295151,-2.904245,4.512277,-1.535691,-0.24895599999999998,0.587277,0.8842620000000001
194,-0.302108,-1.31897,-0.797616,-0.074137,0.9684590000000001,-0.23788800000000002,-3.154128,3.11168,-2.177644,-0.090353,0.461442,0.717105
195,-0.5195420000000001,-1.349431,-1.052921,-0.109008,0.975599,-0.190589,-2.173743,0.5651109999999999,-2.0884840000000002,0.24372800000000003,0.599658,0.472923
196,-0.7400869999999999,-1.354651,-1.263413,-0.144626,0.9767309999999999,-0.158364,-1.079926,-1.259003,-1.34891,0.545474,0.5237569999999999,0.319131
197,-0.8826879999999999,-1.359549,-1.378451,-0.161966,0.97777,-0.133163,-1.3806690000000001,-1.6041459999999998,-0.291961,0.7071930000000001,0.089185,-0.363221
198,-1.068805,-1.381019,-1.529843,-0.16536700000000001,0.9820459999999999,-0.090769,-1.9906830000000002,-2.039567,0.166876,0.492088,0.012781,-0.114828
199,-1.316183,-1.403535,-1.735866,-0.161115,0.986044,-0.041932,-2.155749,-2.125509,0.489504,0.34774499999999997,-0.195303,0.100953
200,-1.6208280000000002,-1.426469,-2.024564,-0.143646,0.989603,0.007193000000000001,-2.547663,-0.12725799999999998,1.1465040000000002,0.181671,-0.31298200000000004,0.13890999999999998
201,-2.046477,-1.436777,-2.481361,-0.11878299999999999,0.9910329999999999,0.061189,-3.042855,2.1884509999999997,1.359063,-0.006903,-0.327489,-0.123582
202,-2.426762,-1.4180629999999999,-2.936774,-0.099726,0.988359,0.114897,-2.995606,4.25017,1.215746,-0.146597,-0.241258,-0.43334799999999996
203,-2.596352,-1.3900270000000001,3.081829,-0.09324199999999999,0.983706,0.153718,-1.970848,4.382688,0.754853,-0.24341300000000002,-0.265063,-0.41594
204,-2.623878,-1.369885,2.9891959999999997,-0.098763,0.979885,0.17341099999999998,-1.012956,2.303368,-0.098915,-0.365669,-0.23598899999999998,-0.46212200000000003
205,-2.5994770000000003,-1.346178,2.986907,-0.11491900000000001,0.974879,0.190798,-1.17455,0.999733,-0.822628,-0.273066,-0.15848800000000002,0.018872999999999997
206,-2.5743270000000003,-1.313799,3.00561,-0.136577,0.9671569999999999,0.21436599999999997,-1.207224,-0.151611,-1.115142,0.120875,-0.031824,-0.013300999999999999
207,-2.574704,-1.280294,3.024477,-0.153817,0.9581,0.241628,-1.456149,-1.387635,-1.089659,0.28667600000000004,0.125945,-0.319936
208,-2.627933,-1.233559,3.0080310000000003,-0.16258399999999998,0.943672,0.288182,-2.5300130000000003,-2.023876,-0.890178,0.533281,0.09861,-0.660115
209,-2.68332,-1.191541,2.978942,-0.16378900000000002,0.928941,0.332027,-1.404561,-0.5429189999999999,-0.324466,0.270966,0.337264,-0.53799
210,-2.657123,-1.179511,2.984139,-0.177621,0.92442,0.337488,-0.191675,1.7497639999999999,-0.362729,0.28884299999999996,0.421421,-0.433435
211,-2.6145080000000003,-1.1763940000000002,2.992164,-0.193287,0.923227,0.33210300000000004,-0.094033,1.424396,-0.084958,0.268924,0.44769899999999996,-0.011545999999999999
212,-2.62414,-1.1691850000000001,2.981039,-0.193366,0.920433,0.339725,-0.601852,-0.8825379999999999,-0.024661000000000002,0.154426,0.570656,-0.363728
213,-2.6567220000000002,-1.163254,2.979586,-0.184738,0.918098,0.350668,0.194923,-1.509128,-0.130456,0.213867,0.642464,-0.55567
214,-2.645676,-1.183039,3.00645,-0.17992,0.925759,0.33256199999999997,1.5438,-0.24817600000000004,0.11556400000000001,0.501819,0.7585970000000001,-0.533841
215,-2.615855,-1.223647,3.0459099999999997,-0.170739,0.9403459999999999,0.294273,2.502771,-0.807181,0.549199,0.39426500000000003,0.8436809999999999,-0.494087
216,-2.583114,-1.285256,3.1180950000000003,-0.149259,0.9595100000000001,0.238878,3.695129,-2.075871,0.567699,0.049268,0.760919,-0.433229
217,-2.459708,-1.3587799999999999,-3.005045,-0.132626,0.9776090000000001,0.163375,4.027968,-1.3824239999999999,0.557385,-0.20560100000000003,-0.0048,0.276398
218,-2.253978,-1.418334,-2.766338,-0.11778599999999999,0.9884,0.09587000000000001,3.5224480000000002,-1.344429,0.551669,-0.089184,0.536899,0.8024
219,-1.7973259999999998,-1.45927,-2.289873,-0.108447,0.9937870000000001,0.024996,3.771075,-0.42272600000000005,0.276623,-0.145307,0.5956140000000001,0.8006880000000001
220,-1.151821,-1.451901,-1.63874,-0.108351,0.9929399999999999,-0.048254000000000005,3.5104660000000005,-0.172009,-0.123965,-0.376222,0.5565439999999999,-0.182108
221,-0.786237,-1.415298,-1.2535399999999999,-0.109601,0.987934,-0.109417,3.079167,-0.907719,0.150635,-0.481433,0.436001,-0.063358
222,-0.579829,-1.3702590000000001,-1.042876,-0.109134,0.97996,-0.16663599999999998,2.733743,0.477549,-0.184702,-0.429806,0.43108199999999997,0.115351
223,-0.48303500000000005,-1.329866,-0.9630219999999999,-0.110825,0.971116,-0.211306,1.970716,1.051682,-0.043352999999999996,-0.260529,0.291838,0.538668
224,-0.3732,-1.299452,-0.849925,-0.097721,0.963412,-0.24957600000000002,2.153885,-0.22466,0.8974610000000001,-0.019405000000000002,0.195524,0.56766
225,-0.254139,-1.257115,-0.733888,-0.07757599999999999,0.951204,-0.298651,2.786522,0.445467,0.8647020000000001,0.230866,-0.095873,0.631292
226,-0.176525,-1.203355,-0.657941,-0.063084,0.933249,-0.353645,2.8368349999999998,0.028577999999999996,0.646602,0.036701,-0.555778,0.610161
227,-0.145695,-1.1522430000000001,-0.605538,-0.059007000000000004,0.9136780000000001,-0.402133,2.577208,-1.367651,0.5183909999999999,0.062318,-0.637753,0.663912
228,-0.152977,-1.109215,-0.571001,-0.067865,0.89535,-0.440163,2.022404,-2.258781,0.340469,0.065805,-0.680994,0.725105
229,-0.191078,-1.077177,-0.55108,-0.089986,0.880624,-0.465193,1.425573,-3.079161,0.08845599999999999,-0.022593000000000002,-0.808511,0.956404
230,-0.248425,-1.0586959999999999,-0.542733,-0.12048199999999999,0.871717,-0.474966,0.632842,-3.1984529999999998,-0.028024,0.007201000000000001,-0.802091,0.992041
231,-0.305097,-1.057094,-0.54388,-0.147611,0.8709309999999999,-0.46871,-0.274956,-2.467668,-0.041711,0.039853,-0.788198,0.9695799999999999
232,-0.34841300000000003,-1.074401,-0.552427,-0.162598,0.8793049999999999,-0.447643,-1.2685030000000002,-1.334929,0.198794,0.12620499999999998,-0.782519,0.60583
233,-0.36707,-1.1141379999999999,-0.565186,-0.158249,0.897531,-0.411576,-2.3883959999999997,0.286749,0.554225,0.13688699999999998,-0.784051,0.29704400000000003
234,-0.361898,-1.174688,-0.5827979999999999,-0.136603,0.9225700000000001,-0.36083899999999997,-3.1850240000000003,1.363226,0.841042,0.11006800000000001,-0.561241,-0.40239
235,-0.339357,-1.223544,-0.589882,-0.113284,0.940311,-0.320907,-1.465206,0.858685,0.5823729999999999,-0.435712,1.2813219999999998,-1.795152
236,-0.344801,-1.230472,-0.571174,-0.112825,0.9426459999999999,-0.314146,0.399452,-1.8365799999999999,0.327523,-0.072615,1.529216,-1.065523
237,-0.332391,-1.2074719999999999,-0.532014,-0.11596300000000001,0.9347209999999999,-0.335931,1.782068,-0.788413,0.210856,0.186718,0.9204889999999999,-0.48473299999999997
238,-0.298796,-1.167661,-0.48551000000000005,-0.11548199999999999,0.9198350000000001,-0.374922,2.219934,-0.36630799999999997,0.29989899999999997,-0.024531999999999998,-0.250783,-0.363985
239,-0.273073,-1.1429610000000001,-0.43652799999999997,-0.11189600000000001,0.909866,-0.399528,0.724219,-1.357748,0.713738,-0.025906000000000002,-0.551834,-0.192162
240,-0.270289,-1.159361,-0.42245900000000003,-0.10678399999999999,0.9165479999999999,-0.385405,-1.177589,0.534746,0.357266,-0.181821,0.5702229999999999,0.11350899999999998
241,-0.22629499999999997,-1.1542270000000001,-0.42010699999999995,-0.090785,0.914483,-0.394308,1.3832950000000002,2.250268,-0.370527,-0.566823,2.307121,-0.276071
242,-0.237459,-1.125361,-0.437003,-0.10135,0.902423,-0.41876,0.876547,-0.371783,-0.6281479999999999,-0.16233699999999998,-0.567874,1.533109
243,-0.252109,-1.139778,-0.45645,-0.104218,0.9085409999999999,-0.404588,-1.7467130000000002,1.451293,-0.050602999999999995,-0.341629,-1.32361,1.287355
244,-0.19309300000000001,-1.188009,-0.488738,-0.071674,0.9276270000000001,-0.36656500000000003,-2.6320669999999997,5.734653,-0.319718,-0.126278,-0.057342,1.1484860000000001
245,-0.143188,-1.23527,-0.557722,-0.046986,0.9442370000000001,-0.325895,-2.6383799999999997,5.2317290000000005,-1.083964,-0.179546,0.251335,1.158506
246,-0.19736800000000002,-1.295339,-0.699956,-0.053333000000000005,0.9623010000000001,-0.266705,-3.680861,3.4160470000000003,-1.930678,-0.16076300000000002,0.7386729999999999,0.645443
247,-0.379859,-1.347844,-0.926582,-0.081984,0.975249,-0.205346,-2.814645,0.880475,-1.828443,0.15306,0.7075060000000001,0.68461
248,-0.590118,-1.368052,-1.141732,-0.112046,0.979518,-0.167301,-1.3946,-0.310942,-1.3523209999999999,0.5301520000000001,0.685445,0.391346
249,-0.735284,-1.3725049999999999,-1.278343,-0.132141,0.980405,-0.146097,-1.020686,-0.735648,-0.6964819999999999,0.5962069999999999,0.131076,-0.256461
250,-0.8918799999999999,-1.389039,-1.4086239999999999,-0.140672,0.9835280000000001,-0.113504,-1.729812,-1.8556,0.003959000000000001,0.36131399999999997,0.045295999999999996,-0.169638
251,-1.1130659999999999,-1.413928,-1.586946,-0.140139,0.987721,-0.069036,-1.9733040000000002,-2.5197830000000003,0.34387199999999996,0.282595,-0.149144,0.059499
252,-1.400901,-1.436809,-1.825482,-0.131656,0.9910370000000001,-0.022585,-2.1729950000000002,-2.109705,0.795946,0.11616900000000001,-0.278436,0.097445
253,-1.865746,-1.454936,-2.297288,-0.110601,0.993296,0.033602,-3.2442,1.573066,1.162963,0.174428,-0.288248,0.17838900000000002
254,-2.381564,-1.4379899999999999,-2.886346,-0.091222,0.991194,0.095972,-3.494218,4.395630000000001,1.2174200000000002,-0.073543,-0.397093,-0.255807
255,-2.630066,-1.404082,3.04587,-0.081227,0.986135,0.14469500000000002,-2.411337,4.849886,0.965892,-0.099575,-0.31650300000000003,-0.444317
256,-2.686144,-1.377689,2.918675,-0.084411,0.9814129999999999,0.17234000000000002,-1.2619719999999999,2.250674,-0.043969,-0.44154399999999994,-0.189207,-0.664391
257,-2.651894,-1.356472,2.937081,-0.100037,0.9771200000000001,0.187686,-0.84355,0.480083,-0.912583,-0.406585,-0.269067,-0.24275500000000003
258,-2.598744,-1.327676,2.973575,-0.12435399999999999,0.970592,0.206121,-1.0466309999999999,0.9448479999999999,-1.0791030000000001,0.039638,-0.143809,0.23432399999999998
259,-2.5639540000000003,-1.298581,3.004705,-0.146812,0.9631780000000001,0.225241,-1.133081,-0.324357,-1.154993,0.26950799999999997,0.041125,-0.181646
260,-2.5952479999999998,-1.256851,3.00173,-0.160449,0.9511229999999999,0.263858,-2.2221830000000002,-1.996978,-0.9756540000000001,0.48401099999999997,0.146564,-0.613391
261,-2.669657,-1.2123110000000001,2.964109,-0.159502,0.9364299999999999,0.312502,-1.912339,-1.428849,-0.26385,0.409182,0.222125,-0.650225
262,-2.659708,-1.192092,2.9583310000000003,-0.171344,0.9291440000000001,0.327613,-0.39813699999999996,2.001104,-0.452085,0.153644,0.47005600000000003,-0.355323
263,-2.607455,-1.189455,2.967579,-0.189468,0.9281659999999999,0.320324,-0.057446000000000004,1.768075,-0.034929,0.34077399999999997,0.515468,-0.09109099999999999
264,-2.6168139999999998,-1.1797469999999999,2.954326,-0.190967,0.92451,0.329866,-0.790246,-0.8508459999999999,-0.080489,0.283436,0.630971,-0.244615
265,-2.654789,-1.171229,2.94828,-0.18198399999999998,0.9212290000000001,0.343826,0.049272,-1.612162,-0.098218,0.332023,0.702641,-0.713882
266,-2.641088,-1.191934,2.975341,-0.177484,0.9290860000000001,0.324494,1.700007,-0.12855999999999998,0.150693,0.506922,0.694724,-0.6184850000000001
267,-2.6099040000000002,-1.2347299999999999,3.01905,-0.167192,0.944059,0.284248,2.561007,-0.93735,0.5305529999999999,0.469804,0.717745,-0.45883999999999997
268,-2.564069,-1.295261,3.104979,-0.148531,0.9622799999999999,0.227936,3.727954,-2.0806880000000003,0.392754,0.026736000000000003,0.707795,-0.462876
269,-2.397088,-1.367725,-2.97621,-0.136657,0.979452,0.148317,4.49336,-0.870765,0.31963800000000003,-0.197312,0.095179,0.075972
270,-2.0854060000000003,-1.423329,-2.650215,-0.1279,0.9891459999999999,0.072318,3.603222,-0.41940200000000005,0.370526,-0.085539,0.37885,0.46511099999999994
271,-1.565226,-1.450444,-2.124361,-0.120057,0.992766,-0.000669,3.830264,0.243488,0.368058,-0.136047,0.5637979999999999,0.408765
272,-0.988675,-1.4317360000000001,-1.551742,-0.115781,0.990347,-0.076208,3.5693599999999996,0.33065700000000003,0.10761400000000002,-0.187563,0.535914,0.135152
273,-0.705543,-1.3917540000000002,-1.256542,-0.11548,0.984015,-0.13557,2.839783,-0.835334,0.085852,-0.27181900000000003,0.520502,-0.095723
274,-0.559345,-1.3483319999999999,-1.089826,-0.117075,0.9753569999999999,-0.18700899999999998,2.646163,-0.592368,-0.033316000000000005,-0.271857,0.506745,0.21684
275,-0.45081800000000005,-1.3079610000000002,-0.9733,-0.113204,0.965657,-0.233861,2.32865,-0.278737,0.66375,-0.252763,0.481868,0.36115
276,-0.349535,-1.276758,-0.8452799999999999,-0.09925199999999999,0.957081,-0.272294,2.123551,-1.4245450000000002,1.000275,0.200768,0.11545899999999999,0.742768
277,-0.242667,-1.235675,-0.7334430000000001,-0.079028,0.944371,-0.319247,2.602193,0.700836,1.078875,0.09427100000000001,-0.22874899999999998,0.5022
278,-0.15072,-1.1916639999999998,-0.644103,-0.055573000000000004,0.9289860000000001,-0.365919,2.40084,-0.167793,1.0946049999999998,-0.019165,-0.346039,0.51341
279,-0.11685899999999999,-1.1454389999999999,-0.5809,-0.048112,0.910891,-0.40983100000000006,2.468529,-1.781798,0.798044,0.08694500000000001,-0.537219,0.747417
280,-0.127895,-1.102428,-0.542657,-0.057578,0.8923059999999999,-0.447744,2.051568,-2.56192,0.445755,0.0067209999999999995,-0.6859460000000001,0.754476
281,-0.17008900000000002,-1.068271,-0.520482,-0.081527,0.8763690000000001,-0.47468999999999995,1.575489,-3.3719360000000003,0.161457,-0.075653,-0.770397,0.862934
282,-0.23004499999999997,-1.045872,-0.509225,-0.114272,0.8653620000000001,-0.48794499999999996,0.851449,-3.4327449999999997,0.012267,-0.057602999999999994,-0.825216,0.933975
283,-0.28888600000000003,-1.039666,-0.5080720000000001,-0.144296,0.8622350000000001,-0.485519,-0.021408,-2.602695,-0.080351,-0.014258000000000002,-0.787147,0.9162899999999999
284,-0.332485,-1.0520690000000001,-0.5161220000000001,-0.16181800000000002,0.868451,-0.468624,-1.0589959999999998,-1.35559,0.103083,0.11428699999999999,-0.8342860000000001,0.629909
285,-0.351107,-1.087495,-0.528911,-0.159829,0.885466,-0.436354,-2.186141,0.271611,0.415728,0.1186,-0.734236,0.112197
286,-0.345149,-1.139889,-0.541975,-0.141322,0.908587,-0.39306199999999997,-2.621858,1.022656,0.786668,0.028498000000000002,-0.216006,-0.578175
287,-0.329127,-1.179738,-0.534933,-0.1232,0.9245059999999999,-0.360708,-1.091164,-0.124123,0.661029,-0.31427,1.103906,-1.3221379999999998
288,-0.33214099999999996,-1.185386,-0.507576,-0.122582,0.926644,-0.35539299999999996,0.25308200000000003,-1.8723490000000003,0.5882689999999999,-0.127693,1.453147,-1.56459
289,-0.318954,-1.175741,-0.47029799999999994,-0.120681,0.922975,-0.365448,0.976509,-0.566168,0.455984,0.251129,0.36685,-0.350204
290,-0.29353,-1.152674,-0.42947399999999997,-0.11748199999999999,0.913853,-0.388678,1.4528459999999999,-0.70095,0.44880200000000003,-0.07339,-0.121327,-0.48368199999999995
291,-0.278451,-1.134914,-0.38663400000000003,-0.116051,0.9064979999999999,-0.405948,0.618057,-1.525628,0.677968,0.038277,-0.33406399999999997,-0.198606
292,-0.278461,-1.1477760000000001,-0.372408,-0.11284100000000001,0.911853,-0.394703,-0.9738100000000001,0.462825,0.297901,-0.346281,1.3468440000000002,-0.11301800000000001
293,-0.230431,-1.14316,-0.373917,-0.094721,0.909949,-0.40375900000000003,1.554027,2.7574669999999997,-0.569734,-0.627416,2.4589939999999997,-0.6321289999999999
294,-0.260601,-1.102352,-0.402442,-0.11633399999999999,0.892272,-0.436254,1.280329,-0.8460780000000001,-1.201552,-0.4113,-0.448745,1.536611
295,-0.29280700000000004,-1.116047,-0.435195,-0.126782,0.8983709999999999,-0.420542,-2.055602,0.8408190000000001,-0.050903,-0.2486,-1.9784950000000001,1.630457
296,-0.239945,-1.1733049999999998,-0.47325200000000006,-0.09199500000000001,0.922035,-0.37601599999999996,-3.1626060000000003,6.144372,-0.30898600000000004,-0.026474,-0.253105,0.707544
297,-0.178233,-1.2246709999999998,-0.545779,-0.060147000000000006,0.940694,-0.33388,-2.655245,5.908544999999999,-0.914026,-0.139057,0.401225,1.474948
298,-0.226012,-1.28721,-0.674327,-0.06270099999999999,0.960058,-0.272683,-3.924571,2.6369540000000002,-1.645091,-0.020124,1.106165,0.399804
299,-0.389397,-1.340937,-0.8747969999999999,-0.086495,0.973698,-0.210783,-2.6720770000000003,0.8859739999999999,-1.4824110000000001,0.364373,0.6371720000000001,0.465055
300,-0.55205,-1.3623530000000001,-1.048874,-0.10852300000000001,0.9783540000000001,-0.17619500000000002,-1.373525,0.11928,-1.08673,0.575229,0.369394,0.29687600000000003
301,-0.691091,-1.368101,-1.184951,-0.12830899999999998,0.979527,-0.155118,-0.954084,-0.561706,-0.848987,0.478926,0.169703,0.045072
302,-0.8226629999999999,-1.379481,-1.293018,-0.13937,0.9817549999999999,-0.129352,-1.2851059999999999,-1.7355330000000002,-0.057175,0.24947800000000003,0.015804,-0.07021799999999999
303,-0.985324,-1.405658,-1.410527,-0.137008,0.9863959999999999,-0.090838,-1.87478,-2.747821,0.522185,0.277129,-0.15203,0.039064999999999996
304,-1.273914,-1.4318469999999999,-1.6349799999999999,-0.13244,0.9903620000000001,-0.040517000000000004,-2.215909,-3.419801,0.499299,0.18918800000000002,-0.163153,0.027791000000000003
305,-1.6954150000000001,-1.4510120000000002,-2.0157529999999997,-0.118568,0.992834,0.014853,-2.719201,-1.067492,0.8901469999999999,0.019844,-0.214484,0.117349
306,-2.205479,-1.449176,-2.558859,-0.097694,0.992613,0.07193300000000001,-3.151959,3.187247,1.257686,0.085517,-0.398146,0.001813
307,-2.534928,-1.421003,-3.001292,-0.085082,0.9888020000000001,0.122603,-2.830551,6.169562,1.09374,-0.079377,-0.365129,-0.257293
308,-2.655095,-1.393825,3.051764,-0.082308,0.984381,0.155622,-1.7591900000000003,4.436182,0.742386,-0.222913,-0.34068899999999996,-0.321257
309,-2.6886740000000002,-1.365983,2.977718,-0.088999,0.9790989999999999,0.182877,-1.469276,0.45523900000000006,-0.57081,-0.506735,-0.18111,-0.6023569999999999
310,-2.656039,-1.330596,3.0190099999999997,-0.111026,0.97129,0.2104,-1.270247,-0.43075699999999995,-1.353428,-0.35981399999999997,-0.213234,0.07193300000000001
311,-2.627173,-1.3007600000000001,3.061643,-0.13125599999999998,0.9637610000000001,0.23224,-1.025736,-0.939327,-1.190835,0.325974,0.166747,-0.342042
312,-2.653382,-1.257838,3.074331,-0.14440699999999998,0.951427,0.271907,-2.3729869999999997,-2.448794,-1.0957620000000001,0.487105,0.24191700000000002,-0.6511640000000001
313,-2.7116119999999997,-1.211665,3.050082,-0.146507,0.9362030000000001,0.319468,-1.6523240000000001,-0.695417,-0.38795100000000005,0.675545,0.290223,-0.562403
314,-2.694054,-1.1992180000000001,3.043598,-0.157125,0.9317549999999999,0.327327,-0.233987,2.0384729999999998,-0.11769600000000001,0.171971,0.386924,-0.642162
315,-2.6480759999999997,-1.198906,3.045769,-0.17214100000000002,0.931642,0.32001599999999997,0.050393,1.817539,0.007418999999999999,0.217231,0.46040200000000003,-0.129831
316,-2.646363,-1.194908,3.039771,-0.174458,0.930182,0.322996,-0.41888000000000003,-0.538211,-0.012068,0.24077300000000001,0.471369,-0.12023699999999998
317,-2.6817189999999997,-1.189181,3.036738,-0.165293,0.9280639999999999,0.333729,0.09297799999999999,-1.889262,-0.118925,0.40624499999999997,0.690405,-0.808002
318,-2.669241,-1.210597,3.067323,-0.160363,0.9358270000000001,0.313866,1.726832,-0.14984,0.10603900000000001,0.526513,0.6126199999999999,-0.680779
319,-2.6351,-1.252998,3.113527,-0.151586,0.949926,0.27324499999999996,2.626589,-0.934049,0.432728,0.372564,0.804393,-0.6020409999999999
320,-2.57566,-1.317521,-3.0770150000000003,-0.13435899999999998,0.968097,0.211508,3.951419,-1.6186450000000001,0.521907,0.258429,0.72659,-0.428259
321,-2.431063,-1.3917620000000002,-2.891499,-0.11615,0.984016,0.134987,4.03108,-2.059338,0.63626,-0.044754,0.20285799999999998,0.364585
322,-2.139381,-1.449386,-2.562639,-0.10205800000000001,0.9926389999999999,0.065212,3.5539949999999996,-1.330435,0.4536,-0.224633,0.548758,0.807026
323,-1.514512,-1.4714770000000001,-1.919254,-0.098999,0.995072,-0.0055780000000000005,3.774285,-0.330872,-0.086662,-0.297425,0.687896,0.6513760000000001
324,-0.8948219999999999,-1.439308,-1.2969629999999999,-0.102278,0.991368,-0.08202899999999999,3.72914,0.094231,-0.061885,-0.427187,0.5323439999999999,0.08444
325,-0.611612,-1.3940620000000001,-1.006733,-0.100951,0.9844229999999999,-0.14394400000000002,2.8826970000000003,-0.267955,0.136697,-0.41385,0.45496899999999996,-0.053032
326,-0.46746099999999996,-1.347186,-0.8596879999999999,-0.099926,0.975103,-0.197961,2.609266,0.21090599999999998,-0.030333,-0.396503,0.630549,0.158227
327,-0.365181,-1.305601,-0.7605270000000001,-0.0936,0.965041,-0.24481399999999998,2.266511,0.294819,0.593144,-0.11247,0.382859,0.41549899999999995
328,-0.239156,-1.270294,-0.638582,-0.070117,0.9551879999999999,-0.287576,2.229423,0.763185,1.2460360000000001,0.192401,-0.062015,0.6048060000000001
329,-0.126645,-1.225399,-0.543812,-0.042763999999999996,0.940941,-0.335859,2.558555,0.849409,0.9768969999999999,0.06311900000000001,-0.24514,0.611875
330,-0.069987,-1.1758629999999999,-0.479103,-0.026905000000000002,0.9230219999999999,-0.383804,2.6196599999999997,-0.655452,0.8307690000000001,0.022511,-0.448093,0.763336
331,-0.059391,-1.125848,-0.44067700000000004,-0.025547,0.902633,-0.42965200000000003,2.459308,-1.7222220000000001,0.544732,0.059437000000000004,-0.542953,0.67219
332,-0.083797,-1.081597,-0.41817299999999996,-0.039332,0.882709,-0.46826999999999996,2.066809,-2.478094,0.23424299999999998,0.036677,-0.563984,0.761758
333,-0.132326,-1.048482,-0.40762800000000005,-0.065823,0.866667,-0.494526,1.416613,-3.054385,-0.006705,-0.066867,-0.715605,0.823292
334,-0.193274,-1.028956,-0.405934,-0.09905499999999999,0.8567610000000001,-0.506111,0.687431,-3.075748,-0.159186,-0.044805000000000005,-0.782435,0.9594959999999999
335,-0.251338,-1.025256,-0.412059,-0.129045,0.8548469999999999,-0.502577,-0.19231700000000002,-2.2917330000000002,-0.18876800000000002,0.000719,-0.8107949999999999,0.9476450000000001
336,-0.293883,-1.039955,-0.42312799999999995,-0.146649,0.862381,-0.484554,-1.154266,-1.2592020000000002,0.042470999999999995,0.054988999999999996,-0.8078770000000001,0.861843
337,-0.314092,-1.077232,-0.43504,-0.146372,0.88065,-0.45059,-2.327988,0.027062,0.40757,0.107721,-0.768437,0.298658
338,-0.317425,-1.140077,-0.457397,-0.13031800000000002,0.908666,-0.396665,-3.5727870000000004,1.17282,0.540549,0.034203,-0.563512,-0.328768
339,-0.311407,-1.205176,-0.48424300000000003,-0.109546,0.933902,-0.340333,-2.479326,1.5379459999999998,0.457988,-0.09322799999999999,-0.19523900000000002,-0.683883
340,-0.305703,-1.217227,-0.469268,-0.104208,0.9381430000000001,-0.33019499999999996,0.38854,-1.566543,0.438201,-0.337656,2.207594,-1.678655
341,-0.29525100000000004,-1.1975790000000002,-0.427267,-0.10609500000000001,0.9311590000000001,-0.34883600000000003,1.486681,-1.0737459999999999,0.391829,0.25287,0.633828,-0.527384
342,-0.260004,-1.166439,-0.383119,-0.10114400000000001,0.919356,-0.380204,1.820601,0.096943,0.380911,0.197824,0.088152,-0.316619
343,-0.2259,-1.137114,-0.338547,-0.09412100000000001,0.907425,-0.409538,1.307652,-1.0272059999999998,0.629801,0.034658,-0.34024,-0.275002
344,-0.223545,-1.141052,-0.312743,-0.092364,0.9090719999999999,-0.40627199999999997,-0.723458,-0.173689,0.46817299999999995,-0.024961,0.113572,0.09621299999999999
345,-0.174733,-1.148472,-0.303526,-0.071256,0.9121389999999999,-0.40364,0.623726,3.153298,0.067396,-0.14711300000000002,0.961427,-0.142671
346,-0.16173099999999999,-1.100524,-0.312512,-0.072966,0.891445,-0.447216,2.281283,-0.788881,-0.9371950000000001,-0.873827,-1.711177,2.607845
347,-0.195394,-1.09709,-0.336498,-0.08857000000000001,0.889884,-0.447507,-1.330273,-0.331793,-0.22593400000000002,-0.8582219999999999,-1.709616,2.608136
348,-0.164604,-1.152954,-0.367892,-0.066493,0.913966,-0.400305,-3.274378,5.422664,-0.364392,-0.267934,-0.7555189999999999,0.154257
349,-0.085574,-1.2064110000000001,-0.43429700000000004,-0.030458999999999996,0.934343,-0.355071,-2.501579,6.758427,-1.010185,-0.150296,0.7018270000000001,1.295532
350,-0.08474,-1.265677,-0.519351,-0.025426,0.9538110000000001,-0.299329,-3.543967,2.644942,-1.324115,-0.015681,1.112275,0.44296
351,-0.146242,-1.328438,-0.623147,-0.034972,0.970775,-0.23743000000000003,-2.796794,1.5802969999999998,-0.798376,0.40306,0.47253900000000004,0.47421599999999997
352,-0.231553,-1.3654030000000001,-0.730688,-0.046805,0.978981,-0.198508,-1.72459,0.715349,-0.942534,0.496558,0.290444,0.517524
353,-0.376046,-1.384844,-0.8925280000000001,-0.067897,0.9827610000000001,-0.171964,-1.257607,0.782194,-1.2801209999999998,0.31299899999999997,0.254971,0.251386
354,-0.524012,-1.401745,-1.0491030000000001,-0.08418400000000001,0.9857450000000001,-0.145671,-1.4585700000000001,-0.28618299999999997,-0.597562,0.197068,0.131153,0.013652000000000001
355,-0.686855,-1.42926,-1.1844299999999999,-0.08945,0.99,-0.109077,-1.910986,-2.142341,0.171845,0.090762,-0.076335,-0.11519700000000001
356,-1.00734,-1.46211,-1.441556,-0.091704,0.994099,-0.057936,-2.394906,-3.7692,0.10432000000000001,0.11706400000000002,-0.17111700000000002,-0.112016
357,-1.502535,-1.4801229999999999,-1.8652330000000001,-0.090338,0.995892,-0.006176,-2.232281,-3.260183,0.275719,0.035894999999999996,-0.173611,-0.100162
358,-2.059367,-1.482469,-2.407356,-0.07789299999999999,0.996102,0.041404,-2.38656,0.9820450000000001,0.866341,0.046643000000000004,-0.381523,-0.045188
359,-2.509481,-1.462824,-2.9347830000000004,-0.063672,0.9941770000000001,0.08694099999999999,-2.576507,5.12934,0.9868180000000001,0.053279999999999994,-0.407507,-0.077694
360,-2.694959,-1.434884,3.037265,-0.058524,0.990778,0.12220299999999999,-1.781095,6.332911,0.8776,0.003135,-0.295771,-0.012889
361,-2.746416,-1.4127,2.877079,-0.060609,0.9875290000000001,0.145305,-1.496327,4.337808,0.325602,-0.10366700000000001,-0.377345,-0.22080500000000003
362,-2.733524,-1.3782590000000001,2.849566,-0.075934,0.9815219999999999,0.175637,-1.68345,0.866402,-0.9242809999999999,-0.288323,-0.203598,-0.339319
363,-2.684664,-1.342746,2.897414,-0.099744,0.974109,0.20288499999999998,-1.211282,-0.21648699999999999,-1.190923,-0.163623,-0.209064,0.052592999999999994
364,-2.663382,-1.309123,2.94115,-0.11905,0.965958,0.22967600000000002,-1.535575,-1.781887,-1.332181,0.162156,0.08644,-0.207429
365,-2.731379,-1.251788,2.940865,-0.125075,0.9495469999999999,0.287605,-3.082134,-4.221499,-1.024733,0.5170279999999999,0.262825,-0.736717
366,-2.823297,-1.204161,2.921075,-0.11218499999999999,0.9335389999999999,0.34047,-1.249223,-2.135162,-0.349101,0.384356,0.396814,-0.685014
367,-2.778234,-1.205848,2.9362790000000003,-0.126848,0.934142,0.333599,0.49849099999999996,3.214682,-0.007259000000000001,0.143496,0.477876,-0.28071199999999996
368,-2.715928,-1.213381,2.919439,-0.144464,0.9368040000000001,0.31863400000000003,-0.061523,3.5277010000000004,0.520403,0.288034,0.432886,0.14083800000000002
369,-2.723273,-1.204245,2.895654,-0.145591,0.9335690000000001,0.327494,-0.810453,-1.0598450000000001,-0.044039,0.12136,0.5640970000000001,-0.318385
370,-2.769129,-1.1943780000000002,2.896866,-0.133771,0.9299870000000001,0.342388,0.067207,-2.3105450000000003,-0.255291,0.107221,0.5943970000000001,-0.62846
371,-2.7571790000000003,-1.215176,2.928776,-0.13057,0.9374309999999999,0.322762,1.722191,-0.157808,-0.045663999999999996,0.49278299999999997,0.5892569999999999,-0.7425470000000001
372,-2.726279,-1.259584,2.969281,-0.12355,0.9519629999999999,0.28018200000000004,2.6675020000000003,-0.868193,0.427594,0.380417,0.75957,-0.568833
373,-2.683263,-1.326301,3.051656,-0.107102,0.97026,0.217083,3.924169,-2.1665509999999997,0.350441,0.115418,0.40735,-0.270656
374,-2.571577,-1.401936,-3.071254,-0.090692,0.985777,0.141487,4.068811,-2.18019,0.439064,-0.018851,0.138201,-0.019295
375,-2.302869,-1.462769,-2.770123,-0.080194,0.9941709999999999,0.07206699999999999,3.368382,-1.038324,0.274611,-0.10178200000000001,0.507996,0.714859
376,-1.615851,-1.491687,-2.070957,-0.078946,0.996872,0.0035590000000000005,3.6344489999999996,-0.155609,-0.12204000000000001,-0.142398,0.678756,0.666836
377,-0.890274,-1.461825,-1.3443450000000001,-0.08453,0.9940690000000001,-0.06842899999999999,3.435571,0.043942,-0.302078,-0.235585,0.663158,0.159844
378,-0.617168,-1.416195,-1.062691,-0.089116,0.988073,-0.125579,2.628271,-0.391884,-0.103128,-0.27447,0.5265449999999999,-0.102494
379,-0.510475,-1.3825120000000002,-0.945491,-0.091451,0.9823270000000001,-0.16331099999999998,1.514282,-0.610857,-0.055082000000000006,-0.262721,0.604526,0.157146
380,-0.399754,-1.3507790000000002,-0.824701,-0.084939,0.975894,-0.20103800000000002,2.4113919999999998,-0.011342,0.823154,-0.23163499999999998,0.253675,0.506214
381,-0.26464099999999996,-1.300306,-0.6839770000000001,-0.069891,0.9636399999999999,-0.25790100000000005,3.0449759999999997,-0.44751499999999994,0.659359,0.05013,0.070158,0.502271
382,-0.18798299999999998,-1.243472,-0.5999869999999999,-0.060083000000000004,0.9469059999999999,-0.315846,2.935182,0.21469000000000002,0.587241,0.106607,-0.352576,0.664937
383,-0.129495,-1.192912,-0.543896,-0.047644,0.9294469999999999,-0.36586599999999997,2.531348,0.041597,0.534436,-0.037515,-0.540089,0.651449
384,-0.112132,-1.1441649999999999,-0.509393,-0.046304000000000005,0.910365,-0.411208,2.479063,-1.163092,0.27924099999999996,0.035713999999999996,-0.617899,0.714324
385,-0.131184,-1.099607,-0.493279,-0.059379999999999995,0.8910290000000001,-0.450045,2.060968,-1.909317,-0.023962,0.048088,-0.568962,0.7363609999999999
386,-0.17361,-1.0646950000000002,-0.487043,-0.083739,0.874641,-0.477484,1.5661770000000002,-2.7017450000000003,-0.16206700000000002,0.027282,-0.542747,0.809759
387,-0.23102199999999998,-1.040244,-0.48585500000000004,-0.11586199999999999,0.8625280000000001,-0.492566,0.961533,-2.942255,-0.231143,0.021777,-0.583048,0.8879670000000001
388,-0.28521599999999997,-1.030068,-0.489079,-0.144836,0.857334,-0.493964,0.150455,-2.23017,-0.181105,0.02925,-0.7033729999999999,0.924415
389,-0.321058,-1.0394139999999998,-0.497296,-0.159907,0.862108,-0.480832,-0.950217,-0.971298,0.044601999999999996,0.100062,-0.810182,0.7409939999999999
390,-0.335948,-1.075596,-0.510174,-0.156659,0.8798739999999999,-0.448642,-2.355366,0.343434,0.417662,0.121457,-0.8429780000000001,0.525409
391,-0.330712,-1.138952,-0.5298970000000001,-0.135909,0.9081950000000001,-0.395866,-3.508288,1.477423,0.749987,0.154631,-0.576271,-0.263314
392,-0.31169600000000003,-1.202084,-0.538172,-0.110529,0.932792,-0.343048,-2.312297,1.0565209999999998,0.808018,0.040095,-0.252311,-0.599
393,-0.296148,-1.217177,-0.512454,-0.101062,0.938125,-0.33121999999999996,0.166794,-1.351417,0.627595,-0.224728,1.8229529999999998,-1.618914
394,-0.27660799999999997,-1.206043,-0.46734,-0.09741799999999999,0.934212,-0.343158,1.05542,-0.742713,0.548632,0.286856,0.755104,-0.634717
395,-0.240456,-1.182972,-0.42384399999999994,-0.09006,0.9257340000000001,-0.367294,1.448391,-0.023665000000000002,0.477817,-0.08723099999999999,-0.212523,-0.461075
396,-0.209225,-1.157637,-0.378432,-0.083393,0.9158569999999999,-0.39274699999999996,1.247609,-1.112258,0.622019,-0.160519,-0.195719,-0.464354
397,-0.21486100000000002,-1.156487,-0.35961,-0.08582999999999999,0.9153950000000001,-0.3933,-0.49358599999999997,-0.39803499999999997,0.145333,-0.10116599999999999,0.344386,-0.042536000000000004
398,-0.17516400000000001,-1.153676,-0.35597399999999996,-0.070602,0.914259,-0.398929,1.224011,2.717984,-0.033601,-0.3714,2.133562,-0.521435
399,-0.178479,-1.093983,-0.361084,-0.081479,0.8884620000000001,-0.45165900000000003,2.6558919999999997,-1.585605,-1.0382360000000002,-0.380069,1.512371,-0.186815
400,-0.210143,-1.090965,-0.38801599999999997,-0.096296,0.887073,-0.45147299999999996,-1.435684,0.238188,-0.166506,-0.657855,-2.847003,2.975262
401,-0.171834,-1.1524299999999998,-0.413862,-0.06946799999999999,0.9137540000000001,-0.40028400000000003,-3.4191550000000004,5.3757019999999995,-0.23394600000000002,-0.47203599999999996,-1.010891,0.032059
402,-0.090252,-1.209494,-0.48129799999999995,-0.03186,0.9354370000000001,-0.352052,-2.8656330000000003,6.9937309999999995,-0.9478610000000001,0.148742,0.9066489999999999,1.8730630000000001
403,-0.072907,-1.273074,-0.55598,-0.021368,0.9560069999999999,-0.292563,-3.414403,2.94506,-1.115285,-0.047846,1.13341,0.5492
404,-0.11972000000000001,-1.329033,-0.6472100000000001,-0.028594,0.970917,-0.23769899999999997,-2.453353,1.560866,-0.783127,0.407393,0.494857,0.201856
405,-0.205146,-1.361691,-0.751825,-0.042287,0.978217,-0.20323,-1.565099,0.501995,-1.0233940000000001,0.46138500000000005,0.21260900000000002,0.514784
406,-0.363683,-1.381472,-0.9205540000000001,-0.06694299999999999,0.982132,-0.17588299999999998,-1.3313780000000002,0.29848800000000003,-1.481904,0.346316,0.245529,0.308299
407,-0.544834,-1.3939350000000001,-1.1011549999999999,-0.091184,0.984401,-0.15046400000000001,-1.277316,-0.6244310000000001,-0.899231,0.180051,0.139119,0.026425
408,-0.704667,-1.4132129999999998,-1.2355120000000002,-0.101655,0.987609,-0.11955199999999999,-1.606878,-1.622846,-0.018969999999999997,0.085313,0.046921,-0.037551999999999995
409,-0.922134,-1.441079,-1.414876,-0.103077,0.991598,-0.07814299999999999,-2.002266,-2.364419,0.09245,0.238377,-0.08576,-0.049268
410,-1.2719850000000001,-1.461442,-1.709313,-0.104295,0.994027,-0.032126,-1.982098,-2.98388,0.208752,0.12492400000000001,-0.151635,-0.108392
411,-1.7170310000000002,-1.475013,-2.1177259999999998,-0.094612,0.995416,0.013935,-2.300195,-0.920033,0.648266,0.061485000000000005,-0.202768,-0.101048
412,-2.244755,-1.467961,-2.6738880000000003,-0.080206,0.994717,0.064062,-2.750458,2.636457,0.8883909999999999,0.059699,-0.377118,-0.137976
413,-2.566338,-1.441318,-3.090539,-0.070244,0.9916290000000001,0.108333,-2.3380099999999997,5.574319,0.8394370000000001,0.017814,-0.49030200000000007,-0.11085
414,-2.663424,-1.416952,2.982774,-0.070511,0.988189,0.136047,-1.4696870000000002,5.045044,0.5780569999999999,-0.115356,-0.380004,-0.233276
415,-2.6814720000000003,-1.3931719999999999,2.895685,-0.078459,0.984266,0.15831199999999998,-1.4494719999999999,2.305224,-0.254709,-0.262361,-0.247358,-0.32799
416,-2.660419,-1.358762,2.8942229999999998,-0.097398,0.977605,0.18655,-1.48,0.688004,-1.008082,-0.173842,-0.17455,0.184605
417,-2.6214,-1.326819,2.93593,-0.12006700000000001,0.970385,0.209608,-1.079698,-0.671791,-1.2289379999999999,0.045863,-0.033907,0.061678
418,-2.644574,-1.283574,2.954239,-0.135073,0.959034,0.249011,-2.392288,-2.910558,-1.267285,0.469195,0.22555100000000003,-0.6028319999999999
419,-2.752624,-1.221211,2.926124,-0.12989,0.939515,0.316921,-3.037229,-4.5608629999999994,-0.660788,0.5142439999999999,0.213577,-0.714626
420,-2.813517,-1.190968,2.9160009999999996,-0.119467,0.9287280000000001,0.350984,-0.389602,-0.576411,-0.372867,0.060812,0.5252359999999999,-0.498658
421,-2.755642,-1.195489,2.9314169999999997,-0.137986,0.9303950000000001,0.339592,0.400093,3.2147069999999998,0.057215999999999996,0.221742,0.46224399999999993,-0.137749
422,-2.71276,-1.19963,2.916115,-0.150814,0.9319049999999999,0.329857,-0.152718,2.04791,0.349679,0.254116,0.479258,-0.038781
423,-2.729189,-1.192755,2.906319,-0.14793900000000001,0.9293889999999999,0.338152,-0.28220500000000004,-1.654538,-0.182728,0.180059,0.6038140000000001,-0.482012
424,-2.746801,-1.2025139999999999,2.928998,-0.138466,0.932947,0.33231700000000003,1.167987,-1.552154,-0.137479,0.49198100000000006,0.630499,-0.619029
425,-2.72783,-1.2367629999999998,2.965122,-0.13181500000000002,0.944728,0.300186,2.161192,-0.709201,0.25293899999999997,0.406062,0.790029,-0.5413060000000001
426,-2.698284,-1.293028,3.0333200000000002,-0.11761600000000001,0.96167,0.24770100000000003,3.50388,-2.316855,0.192807,0.12637400000000001,0.723114,-0.427404
427,-2.60127,-1.364544,-3.10348,-0.10534600000000001,0.9788049999999999,0.17561500000000002,4.035414,-2.0851889999999997,0.13960699999999998,-0.19542,0.16677899999999998,-0.08803
428,-2.395864,-1.426448,-2.862386,-0.097599,0.9896,0.10566600000000001,3.57425,-1.170739,0.161919,-0.059597000000000004,0.334359,0.625779
429,-1.9299580000000003,-1.467495,-2.382922,-0.09653300000000001,0.994669,0.036243,3.591518,-0.186556,-0.08598,-0.009393,0.571401,0.765347
430,-1.234651,-1.462526,-1.6829459999999998,-0.102006,0.994144,-0.035642,3.547167,-0.15321099999999999,-0.39398099999999997,-0.182891,0.666363,0.354367
431,-0.850356,-1.421756,-1.27871,-0.111588,0.988914,-0.097957,3.0498279999999998,-1.1082239999999999,-0.364184,-0.23402399999999998,0.5365989999999999,-0.161961
432,-0.6577810000000001,-1.375494,-1.069187,-0.11864000000000001,0.9809889999999999,-0.153569,2.755366,-0.31601999999999997,-0.285003,-0.303647,0.43977200000000005,0.093144
433,-0.5447390000000001,-1.341926,-0.955076,-0.117565,0.973923,-0.194037,1.7688709999999999,0.272464,0.456175,-0.325031,0.400451,0.557578
434,-0.392465,-1.317899,-0.808962,-0.095696,0.968192,-0.231183,2.1156610000000002,0.6586810000000001,1.073399,-0.346901,0.406183,0.594724
435,-0.264841,-1.273317,-0.688496,-0.076723,0.9560780000000001,-0.28288800000000003,2.843844,0.184619,0.712692,0.192644,-0.11629600000000001,0.485525
436,-0.177576,-1.2230159999999999,-0.601838,-0.060202,0.9401309999999999,-0.335451,2.593395,0.396869,0.8644950000000001,0.087012,-0.358558,0.669084
437,-0.126861,-1.173809,-0.53874,-0.048918,0.9222299999999999,-0.383533,2.6009290000000003,-0.9500280000000001,0.688949,0.098341,-0.58495,0.6846810000000001
438,-0.123919,-1.126974,-0.49674799999999997,-0.053074,0.9031170000000001,-0.4261,2.245991,-2.0419549999999997,0.468883,0.150593,-0.556773,0.7432850000000001
439,-0.151839,-1.0902209999999999,-0.47063999999999995,-0.069924,0.8867290000000001,-0.45696899999999996,1.7211169999999998,-2.943748,0.267683,0.09362100000000001,-0.550776,0.7718189999999999
440,-0.201698,-1.063433,-0.451542,-0.097336,0.8740290000000001,-0.476023,1.168718,-3.442183,0.185415,-0.009689,-0.590002,0.8969219999999999
441,-0.254348,-1.051048,-0.43972,-0.12496700000000001,0.867944,-0.480681,0.348082,-2.834005,0.12122000000000001,-0.051882000000000005,-0.700525,0.937362
442,-0.29342399999999996,-1.056032,-0.43777299999999997,-0.142397,0.870409,-0.471286,-0.585,-1.524816,0.13973,0.010164,-0.804247,0.8718440000000001
443,-0.312556,-1.0810600000000001,-0.442655,-0.14464200000000002,0.8824569999999999,-0.44760200000000006,-1.620684,-0.29596100000000003,0.35631599999999997,0.092365,-0.726268,0.313843
444,-0.311717,-1.126428,-0.453004,-0.13184300000000002,0.902882,-0.409169,-2.552898,0.9229709999999999,0.567228,0.174308,-0.6232800000000001,-0.062664
445,-0.285926,-1.179015,-0.451747,-0.107695,0.9242299999999999,-0.366331,-2.191274,1.295142,0.9549049999999999,0.150099,-0.08116699999999999,-0.756624
446,-0.249304,-1.204531,-0.416684,-0.088361,0.9336709999999999,-0.347057,-0.43679700000000005,-0.806055,0.884395,-0.310611,1.156752,-1.504322
447,-0.239056,-1.20603,-0.374717,-0.084468,0.934207,-0.346584,0.375917,-1.103003,0.646897,0.079249,0.9683200000000001,-1.00031
448,-0.212544,-1.190559,-0.340706,-0.07829,0.9285770000000001,-0.362786,1.24989,-0.206682,0.316432,0.218229,0.713178,-0.517722
449,-0.203767,-1.160607,-0.309247,-0.080697,0.9170450000000001,-0.39053000000000004,1.553197,-1.578682,0.301081,-0.148536,0.236946,-0.43034700000000004
450,-0.233087,-1.147868,-0.306222,-0.094802,0.911891,-0.399331,0.014921,-0.998662,-0.356682,-0.234986,0.8375290000000001,-0.086494
451,-0.243997,-1.127781,-0.339542,-0.103558,0.9034629999999999,-0.415966,1.897261,1.0606389999999999,-1.21891,-0.874866,2.505777,-0.474354
452,-0.28175100000000003,-1.06249,-0.3472,-0.13532,0.8735700000000001,-0.46750600000000003,2.476552,-1.9796479999999999,-0.9246840000000001,0.33423400000000003,0.84344,-0.408532
453,-0.286167,-1.082436,-0.370895,-0.132438,0.8831030000000001,-0.450096,-2.809126,1.878064,0.371934,-0.34275100000000003,-3.169221,3.711586
454,-0.208648,-1.148743,-0.372056,-0.08485,0.91225,-0.400748,-2.758766,5.387416,0.510931,-0.5078159999999999,-1.135532,-0.311548
455,-0.11399400000000001,-1.210244,-0.43131099999999994,-0.040129000000000005,0.935702,-0.350498,-3.3061260000000003,7.3664130000000005,-1.072124,0.023344,1.221357,1.833531
456,-0.106724,-1.267617,-0.510917,-0.031802,0.954392,-0.296854,-2.8304270000000002,2.454484,-0.966367,-0.0060090000000000005,0.921524,0.7164699999999999
457,-0.16029200000000002,-1.315275,-0.604416,-0.04034,0.967532,-0.249505,-2.387127,1.663417,-0.9259370000000001,0.305186,0.297132,0.039468
458,-0.247604,-1.353484,-0.715382,-0.05284,0.9764799999999999,-0.20902600000000002,-1.968376,0.569086,-0.949384,0.227645,-0.090433,0.541988
459,-0.42708199999999996,-1.375191,-0.9006,-0.080505,0.98093,-0.176897,-1.487933,-0.118746,-1.7153349999999998,0.203826,0.029033999999999997,0.43762399999999996
460,-0.6675439999999999,-1.382557,-1.134372,-0.11584000000000001,0.9823350000000001,-0.146956,-1.479464,-0.9215780000000001,-1.552945,0.174587,0.23362199999999997,0.157363
461,-0.885683,-1.392182,-1.321175,-0.137569,0.9840909999999999,-0.11241500000000001,-1.59982,-2.1326169999999998,-0.429533,0.193477,0.084619,-0.135296
462,-1.105353,-1.408809,-1.492089,-0.144117,0.986909,-0.072382,-1.752129,-2.82415,0.010397,0.423749,0.04634,-0.102407
463,-1.38424,-1.42516,-1.714965,-0.142595,0.9894139999999999,-0.026914999999999998,-1.9195950000000002,-2.597434,0.468272,0.481691,-0.046039,-0.109102
464,-1.701009,-1.4443059999999999,-2.016871,-0.125073,0.9920110000000001,0.016378999999999998,-2.1630599999999998,0.182069,1.161627,0.339291,-0.152808,-0.039313
465,-2.119831,-1.4571120000000002,-2.477691,-0.09675299999999999,0.9935450000000001,0.059190999999999994,-2.505573,3.060633,1.676838,0.196804,-0.395339,-0.121645
466,-2.520978,-1.443403,-2.976675,-0.073875,0.9918959999999999,0.103345,-2.573407,5.390033,1.293092,-0.12378800000000001,-0.219344,-0.168744
467,-2.68655,-1.418859,3.049295,-0.066513,0.9884799999999999,0.135938,-1.477201,3.508204,0.7338,-0.342102,-0.197632,-0.355497
468,-2.717607,-1.4001620000000001,2.971996,-0.069853,0.985477,0.15476099999999998,-1.05606,1.74343,-0.259784,-0.42276199999999997,-0.27573000000000003,-0.319373
469,-2.6780909999999998,-1.372295,2.989919,-0.08816,0.9803629999999999,0.176385,-1.256901,0.738168,-0.9734709999999999,-0.24616,-0.187394,0.148948
470,-2.631462,-1.341181,3.035716,-0.111133,0.9737540000000001,0.19861700000000002,-1.051655,-0.33124000000000003,-1.183244,0.00307,-0.10472000000000001,0.170889
471,-2.64186,-1.303202,3.055324,-0.126701,0.96441,0.232071,-2.110819,-2.3061849999999997,-1.083425,0.322929,0.087409,-0.189118
472,-2.748088,-1.242109,3.014322,-0.123769,0.9464670000000001,0.298125,-3.229725,-3.576522,-0.5149100000000001,0.31552600000000003,0.304327,-0.567214
473,-2.82842,-1.198695,2.979806,-0.112008,0.931565,0.345886,-1.394413,-1.3034350000000001,-0.188809,0.050607,0.475051,-0.815094
474,-2.794324,-1.1931770000000002,2.991917,-0.12548199999999998,0.9295450000000001,0.346695,0.231911,2.279001,-0.245065,0.081597,0.505269,-0.375123
475,-2.744494,-1.195402,2.994165,-0.141795,0.9303629999999999,0.338107,-0.065314,2.004889,0.096109,0.193339,0.556392,-0.053149
476,-2.742507,-1.189208,2.988089,-0.144702,0.928074,0.343127,-0.328277,-0.685327,-0.10951500000000002,0.18420699999999998,0.55505,-0.282794
477,-2.764638,-1.195209,2.999935,-0.135021,0.930292,0.34106,0.86877,-1.807239,-0.037759,0.494762,0.6494810000000001,-0.516841
478,-2.768224,-1.226181,3.019847,-0.123225,0.941205,0.31455500000000003,1.952593,-0.6878479999999999,0.407416,0.487178,0.7716850000000001,-0.44849700000000003
479,-2.7650259999999998,-1.2767950000000001,3.0517630000000002,-0.10656099999999999,0.957092,0.26947600000000005,2.902615,-1.989784,0.425334,0.13111199999999998,0.712799,-0.495123
480,-2.725278,-1.343899,3.1392889999999998,-0.09096900000000001,0.974369,0.20573699999999998,3.823552,-2.174225,0.196995,-0.135106,0.29034,-0.223529
481,-2.607036,-1.41215,-2.981672,-0.080483,0.987442,0.135938,3.633003,-1.893189,0.145097,-0.048438999999999996,0.138123,0.19484200000000002
482,-2.264269,-1.4698790000000002,-2.616847,-0.077472,0.9949120000000001,0.064394,3.795296,-0.363375,-0.014894999999999999,0.021228,0.5385810000000001,0.6725899999999999
483,-1.401728,-1.4897690000000001,-1.7535560000000001,-0.079777,0.996719,-0.013618,3.854435,0.314485,-0.152083,-0.107082,0.582367,0.615974
484,-0.79192,-1.4551479999999999,-1.146426,-0.082121,0.9933200000000001,-0.081057,3.041875,-0.025876,-0.11245699999999999,-0.350664,0.44399700000000003,0.061724
485,-0.582596,-1.413538,-0.9215549999999999,-0.08616499999999999,0.98766,-0.130773,2.319095,-0.86698,-0.13458699999999998,-0.49736199999999997,0.395396,0.136465
486,-0.47047,-1.376582,-0.7995720000000001,-0.08748500000000001,0.9812,-0.172026,2.131308,-0.086721,0.175022,-0.511376,0.356691,0.335433
487,-0.339746,-1.332609,-0.669111,-0.078627,0.971767,-0.22245399999999999,2.77441,0.14744200000000002,0.46549700000000005,-0.164018,0.207523,0.44453100000000006
488,-0.232875,-1.281993,-0.566183,-0.06572599999999999,0.958585,-0.277117,2.854232,0.686825,0.574322,0.16000999999999999,-0.07244600000000001,0.523333
489,-0.156868,-1.228333,-0.497384,-0.052462,0.9419299999999999,-0.331685,2.8261939999999997,0.287827,0.478498,0.17688199999999998,-0.286138,0.624959
490,-0.123706,-1.17195,-0.45588900000000004,-0.04792,0.92151,-0.385387,2.830007,-0.475236,0.290427,0.130775,-0.5222180000000001,0.746532
491,-0.12286300000000001,-1.120003,-0.430917,-0.053394000000000004,0.9001020000000001,-0.432395,2.546084,-1.59435,0.147804,0.168659,-0.5659649999999999,0.696311
492,-0.152428,-1.07549,-0.413127,-0.07216900000000001,0.8798229999999999,-0.46979,2.075699,-2.605438,0.05822000000000001,0.188502,-0.503175,0.792605
493,-0.204463,-1.040805,-0.402301,-0.10264300000000001,0.8628110000000001,-0.49499499999999996,1.5325469999999999,-3.243213,-0.084694,0.025265,-0.545139,0.906586
494,-0.261598,-1.0193299999999998,-0.397318,-0.13550299999999998,0.851757,-0.506111,0.778112,-2.8473080000000004,-0.13533599999999998,-0.011714,-0.688046,0.947456
495,-0.305861,-1.015578,-0.39777399999999996,-0.158726,0.849785,-0.502663,-0.211995,-1.7557470000000002,0.010173,0.059588999999999996,-0.732979,0.8865290000000001
496,-0.326006,-1.035245,-0.40065500000000004,-0.163434,0.8599870000000001,-0.483436,-1.439586,-0.321331,0.40248,0.088132,-0.736483,0.7578189999999999
497,-0.31501,-1.084385,-0.40287,-0.14483,0.884016,-0.444454,-2.875502,1.162361,0.9065,0.2212,-0.6711560000000001,-0.01595
498,-0.277479,-1.152083,-0.39919299999999996,-0.111376,0.9136129999999999,-0.391032,-3.15357,1.9602709999999999,1.142817,0.054858000000000004,-0.358971,-0.727483
499,-0.23476799999999998,-1.196941,-0.375448,-0.084953,0.930926,-0.355187,-1.195763,-0.027661,0.8097310000000001,-0.62397,0.9006780000000001,-1.62258
500,-0.24094000000000002,-1.1961709999999999,-0.352143,-0.087315,0.9306450000000001,-0.35535300000000003,0.825261,-1.7622080000000002,0.193683,-0.187115,1.6630740000000002,-0.995508
501,-0.250141,-1.168843,-0.335418,-0.096842,0.920299,-0.37904,1.642088,-0.718854,-0.093573,0.20261600000000002,0.650304,-0.24000900000000003
502,-0.235029,-1.134664,-0.312188,-0.098373,0.906392,-0.41082299999999994,1.711352,-0.481504,0.164049,-0.091568,-0.08949800000000001,-0.267094
503,-0.248306,-1.119212,-0.30522699999999997,-0.107249,0.8997569999999999,-0.42300699999999997,0.08003500000000001,-0.2587,-0.32619499999999996,-0.45397,0.46091499999999996,-0.443112
504,-0.233975,-1.094358,-0.32765700000000003,-0.10632899999999999,0.888634,-0.446121,2.292176,0.709516,-0.881346,-0.49431800000000004,3.0531080000000004,-0.401062
505,-0.24071700000000001,-1.032833,-0.31616500000000003,-0.122153,0.8587540000000001,-0.49761400000000006,1.8952240000000002,-0.721711,-0.397312,-0.188638,-2.3205310000000003,2.357493
506,-0.207892,-1.060813,-0.322903,-0.100756,0.8727530000000001,-0.47765100000000005,-2.770779,2.818563,0.625235,-0.9099709999999999,-2.49052,2.278311
507,-0.14305299999999999,-1.125383,-0.323376,-0.061422000000000004,0.902433,-0.426429,-2.667145,4.417346,0.052411,-0.987391,-1.406232,0.037544
508,-0.052411,-1.183383,-0.393396,-0.019791,0.925889,-0.377276,-3.165555,8.152209,-1.6457830000000002,0.269364,1.56903,1.981646
509,-0.041969,-1.236257,-0.49035200000000007,-0.013775999999999998,0.9445620000000001,-0.328044,-2.495975,3.192662,-1.521519,0.018734999999999998,1.1035030000000001,1.17982
510,-0.111131,-1.281666,-0.600897,-0.03162,0.958492,-0.28336,-2.352416,1.27326,-1.435804,0.246006,0.521259,-0.065853
511,-0.21580300000000002,-1.316138,-0.719696,-0.053943,0.967749,-0.246071,-1.6862419999999998,0.09109199999999999,-1.286494,0.370578,0.199319,0.523277
512,-0.365712,-1.336329,-0.8696280000000001,-0.083083,0.9726379999999999,-0.21696100000000001,-1.4461760000000001,-0.417839,-1.561903,0.39971799999999996,0.19443,0.494167
513,-0.546551,-1.354285,-1.0399370000000001,-0.111654,0.9766530000000001,-0.183529,-1.766593,-0.895116,-1.01019,0.373601,0.168977,0.096981
514,-0.7120340000000001,-1.377305,-1.184713,-0.125634,0.981339,-0.145567,-1.759212,-1.3296860000000001,-0.234052,0.444375,0.072982,0.061735000000000005
515,-0.8782549999999999,-1.402843,-1.3169389999999999,-0.128655,0.985929,-0.106734,-1.718651,-2.315889,0.202261,0.349876,-0.100004,-0.089723
516,-1.1102940000000001,-1.432139,-1.492127,-0.12381600000000001,0.990403,-0.061422000000000004,-2.072438,-2.89411,0.718618,0.243765,-0.157151,0.008794
517,-1.445843,-1.465671,-1.799865,-0.10411500000000001,0.9944790000000001,-0.013078,-2.39455,-0.482207,1.221749,0.03162,-0.291827,0.051713
518,-2.0259549999999997,-1.48448,-2.408026,-0.077432,0.9962770000000001,0.037898,-2.830595,2.430841,1.453184,-0.140205,-0.41737399999999997,-0.182093
519,-2.5809889999999998,-1.461396,-3.061266,-0.058051,0.994022,0.09246900000000001,-3.069064,5.945489,1.051772,-0.195596,-0.304431,-0.13708599999999999
520,-2.727187,-1.426089,2.955819,-0.058062,0.989548,0.131995,-1.7093080000000003,5.278231,0.505582,-0.272886,-0.358414,-0.322531
521,-2.713852,-1.403838,2.903135,-0.06893400000000001,0.986095,0.15120799999999998,-1.0411190000000001,1.9574029999999998,-0.514193,-0.46062200000000003,-0.272228,-0.253106
522,-2.6522349999999997,-1.372223,2.95467,-0.092727,0.980349,0.17411500000000002,-1.314771,0.034718,-1.3756959999999998,-0.373291,-0.190752,0.183032
523,-2.611624,-1.336417,3.0104029999999997,-0.117397,0.972659,0.200379,-1.291766,-1.244804,-1.364282,0.262783,0.045423000000000005,-0.037736
524,-2.656576,-1.289403,3.0162560000000003,-0.129466,0.9606690000000001,0.245664,-2.552479,-3.253869,-1.082093,0.569117,0.13852799999999998,-0.515119
525,-2.749568,-1.232966,2.982343,-0.12663,0.943476,0.306295,-2.563768,-2.487387,-0.411243,0.65112,0.260885,-0.667867
526,-2.7702240000000002,-1.207919,2.971275,-0.128813,0.9348790000000001,0.330766,-0.45195799999999997,0.933307,-0.400875,0.012861000000000001,0.4902,-0.776857
527,-2.703984,-1.2054770000000001,2.992334,-0.151391,0.93401,0.323581,0.16841,2.581872,-0.285423,0.26908200000000004,0.503429,-0.239704
528,-2.672675,-1.202926,2.996778,-0.162523,0.9330950000000001,0.320808,-0.312126,0.265949,-0.13198800000000002,0.342287,0.6155189999999999,-0.073295
529,-2.697848,-1.200192,3.0032360000000002,-0.15549100000000002,0.932109,0.3271,0.308654,-2.37704,-0.127469,0.426075,0.659566,-0.358624
530,-2.723606,-1.2209709999999998,3.020555,-0.139122,0.939433,0.313225,1.5725209999999998,-1.511978,0.35988200000000004,0.601616,0.8346610000000001,-0.42502700000000004
531,-2.72422,-1.269191,3.040291,-0.120413,0.9548610000000001,0.27155100000000004,2.705203,-1.141693,0.817041,0.34360300000000005,0.914219,-0.429571
532,-2.7051380000000003,-1.334648,3.107134,-0.0989,0.9722459999999999,0.212024,3.766119,-2.749748,0.303083,-0.25658400000000003,0.5987680000000001,-0.4043
533,-2.569921,-1.407178,-2.9878880000000003,-0.088127,0.9866440000000001,0.136986,3.9960519999999997,-2.094681,0.12332,-0.153587,0.229023,0.325752
534,-2.218147,-1.466656,-2.610464,-0.082916,0.994582,0.062687,3.8517089999999996,-0.469764,0.155481,-0.027512,0.592042,0.717724
535,-1.363145,-1.486968,-1.7577650000000002,-0.081925,0.9964879999999999,-0.017261000000000002,4.038583999999999,0.5456340000000001,-0.053886,-0.059188,0.632845,0.748386
536,-0.726645,-1.4446700000000001,-1.1324370000000001,-0.083569,0.992057,-0.094014,3.5450769999999996,0.612482,-0.09267,-0.26511,0.5289550000000001,0.413091
537,-0.5134850000000001,-1.395446,-0.9099360000000001,-0.08569299999999999,0.984665,-0.151953,2.643355,-0.8374870000000001,-0.07788300000000001,-0.435105,0.5325310000000001,-0.156228
538,-0.41403,-1.3532030000000002,-0.797655,-0.08684800000000001,0.9764200000000001,-0.197638,2.4329810000000003,-0.237683,0.090794,-0.40579699999999996,0.461477,-0.010614
539,-0.30873,-1.301299,-0.692444,-0.080898,0.9639049999999999,-0.253658,2.9371869999999998,0.22797399999999998,0.41952700000000004,-0.37193699999999996,0.34826,0.358089
540,-0.22010500000000002,-1.256467,-0.600069,-0.067504,0.9510040000000001,-0.301719,2.371048,0.24216700000000002,0.823615,0.155928,0.080078,0.610817
541,-0.137954,-1.210836,-0.527497,-0.048438,0.935911,-0.34889000000000003,2.492424,0.379344,0.7794220000000001,0.18502000000000002,-0.187467,0.5908640000000001
542,-0.09967000000000001,-1.1597879999999998,-0.47656099999999996,-0.039756,0.916718,-0.39755,2.765115,-0.8905129999999999,0.555423,0.130484,-0.387162,0.753034
543,-0.092399,-1.108283,-0.445413,-0.041169,0.894934,-0.444295,2.457856,-1.305246,0.374347,0.029466000000000003,-0.588827,0.757955
544,-0.117453,-1.065674,-0.427688,-0.05670599999999999,0.875115,-0.48058100000000004,1.9455209999999998,-2.3590419999999996,0.079426,0.022954,-0.689996,0.778295
545,-0.164848,-1.034681,-0.42045200000000005,-0.08382300000000001,0.8597,-0.503875,1.319973,-2.8408919999999998,-0.09096900000000001,0.018836000000000002,-0.733189,0.8775940000000001
546,-0.222379,-1.0164540000000002,-0.41954600000000003,-0.116094,0.850247,-0.513422,0.633005,-2.89146,-0.16940999999999998,0.051138,-0.750775,0.920298
547,-0.276219,-1.01395,-0.424191,-0.14413499999999999,0.8489260000000001,-0.5084770000000001,-0.26345,-2.179102,-0.113559,0.075959,-0.7982670000000001,0.915292
548,-0.31510900000000003,-1.0323799999999999,-0.433551,-0.15892,0.8585219999999999,-0.487529,-1.392069,-1.154691,0.161391,0.150528,-0.8424389999999999,0.7733869999999999
549,-0.331967,-1.07656,-0.444891,-0.154595,0.880331,-0.44846099999999994,-2.670296,0.242326,0.6260319999999999,0.20734499999999997,-0.794226,0.400502
550,-0.316779,-1.1444860000000001,-0.45364399999999994,-0.12881199999999998,0.9104979999999999,-0.392938,-3.4986660000000005,1.517556,1.0533780000000001,0.14802300000000002,-0.683859,-0.297324
551,-0.283632,-1.2007459999999999,-0.44311000000000006,-0.10120900000000001,0.932309,-0.347211,-1.6042370000000001,0.48180500000000004,0.819042,-0.28531100000000004,0.334689,-0.9436969999999999
552,-0.286562,-1.203863,-0.414396,-0.101404,0.9334319999999999,-0.344124,0.585476,-2.1481630000000003,0.470239,-0.31708400000000003,2.118952,-1.733711
553,-0.286327,-1.183698,-0.379921,-0.106618,0.9260079999999999,-0.362132,1.4541520000000001,-1.143567,0.24001,0.22202,0.32361,-0.23293000000000003
554,-0.264409,-1.150276,-0.344531,-0.10668699999999999,0.912877,-0.394047,1.9114939999999998,-0.26209,0.252758,0.032392000000000004,-0.025715,-0.272884
555,-0.24381,-1.125075,-0.30244,-0.10407000000000001,0.9023,-0.418358,0.880756,-1.500293,0.7011390000000001,-0.262507,-0.335161,-0.268104
556,-0.243954,-1.136196,-0.275857,-0.1017,0.9070389999999999,-0.40858,-1.113601,-0.504302,0.575905,-0.308136,-0.071452,0.17042100000000002
557,-0.21414299999999997,-1.162466,-0.275304,-0.084383,0.9177850000000001,-0.388007,-0.738444,2.85887,0.227044,-0.174086,0.595536,0.301978
558,-0.174246,-1.131424,-0.278474,-0.073745,0.905019,-0.418929,2.168705,-0.16583499999999998,-0.8629290000000001,-0.5919810000000001,2.666865,-0.752396
559,-0.22803800000000002,-1.110574,-0.317533,-0.10040700000000001,0.8959540000000001,-0.432649,-0.267871,-0.362923,-0.8786280000000001,-0.277843,-1.818729,2.0508580000000003
560,-0.216558,-1.145451,-0.351774,-0.088663,0.9108959999999999,-0.402997,-2.712944,4.0748940000000005,-0.061771000000000006,-0.309805,-1.8674849999999998,1.611889
561,-0.14063499999999998,-1.1994,-0.40883200000000003,-0.050871,0.9318209999999999,-0.35933400000000004,-2.58546,7.091730999999999,-0.96419,-0.0013449999999999998,0.334582,1.3808639999999999
562,-0.11435799999999999,-1.2463879999999998,-0.5011359999999999,-0.036372,0.947839,-0.316666,-2.8776990000000002,4.372332,-1.571633,-0.210988,0.764121,0.782379
563,-0.23570300000000002,-1.308884,-0.6779350000000001,-0.060466,0.9658969999999999,-0.251768,-3.498933,1.276224,-1.993952,-0.043949,0.863876,0.5580729999999999
564,-0.4168,-1.3508229999999999,-0.866189,-0.088336,0.9759030000000001,-0.199522,-2.1270729999999998,-0.039101,-1.1259700000000001,0.6828489999999999,0.56998,0.627333
565,-0.5381670000000001,-1.3669069999999999,-1.000491,-0.10378299999999999,0.9792870000000001,-0.17385799999999998,-1.091466,0.637944,-0.8407979999999999,0.6815260000000001,0.28852,-0.050462
566,-0.650371,-1.379944,-1.114795,-0.11485699999999999,0.981843,-0.15097,-1.2838040000000002,-0.536483,-0.285161,0.534977,0.155074,-0.248047
567,-0.7809689999999999,-1.4059190000000001,-1.223428,-0.115543,0.986439,-0.11657100000000001,-1.8464650000000002,-1.494451,0.272953,0.18671,-0.01009,0.06403500000000001
568,-1.030821,-1.436941,-1.4298819999999999,-0.114469,0.9910549999999999,-0.068612,-2.281411,-2.831055,0.29085900000000003,0.09249600000000001,-0.29208,0.045952999999999994
569,-1.463459,-1.4652399999999999,-1.808572,-0.104755,0.994434,-0.011288,-2.705094,-2.384077,0.766958,0.048083999999999995,-0.337482,0.063091
570,-2.0691029999999997,-1.471582,-2.416125,-0.087008,0.995082,0.047341,-3.05267,1.677113,0.9783120000000001,-0.012296,-0.336864,0.008154999999999999
571,-2.5159599999999998,-1.4481549999999999,-2.9497299999999997,-0.07164,0.992489,0.099163,-2.760195,5.23543,1.18303,0.08577,-0.40975600000000006,-0.24506799999999998
572,-2.698442,-1.4213049999999998,3.041889,-0.063862,0.9888469999999999,0.13455,-1.710288,4.919929,0.851073,0.09161799999999999,-0.28943,-0.27981300000000003
573,-2.7504009999999997,-1.4008209999999999,2.9245330000000003,-0.064498,0.9855889999999999,0.156379,-1.21699,2.093036,0.070862,-0.380997,-0.24771999999999997,-0.462134
574,-2.729798,-1.371552,2.930591,-0.079222,0.980217,0.181382,-1.3894799999999998,0.249295,-0.9064719999999999,-0.3584,-0.179527,-0.053132000000000006
575,-2.698393,-1.341587,2.965344,-0.097434,0.9738459999999999,0.20525500000000002,-1.059069,-0.370489,-0.978145,0.170432,-0.051239,-0.128641
576,-2.68215,-1.312489,3.001962,-0.113276,0.966824,0.22895500000000002,-1.314966,-1.3462100000000001,-1.0406389999999999,0.296535,0.087024,-0.326901
577,-2.721082,-1.268979,2.997224,-0.121348,0.9547979999999999,0.271359,-2.295457,-1.730823,-0.711573,0.519282,0.051413,-0.6264609999999999
578,-2.750117,-1.231746,2.979429,-0.12690099999999999,0.9430709999999999,0.30743000000000004,-1.377818,0.12856099999999998,-0.295212,0.46557,0.198897,-0.575481
579,-2.7299439999999997,-1.216993,2.977031,-0.138629,0.9380620000000001,0.317525,-0.370366,1.635553,-0.27621999999999997,0.127475,0.47017200000000003,-0.41131999999999996
580,-2.689577,-1.212222,2.982741,-0.153283,0.936398,0.31569400000000003,-0.22133899999999998,1.473571,-0.124352,0.152841,0.495975,-0.132467
581,-2.689894,-1.201647,2.9782490000000004,-0.157497,0.932634,0.32463400000000003,-0.61146,-0.663816,-0.207659,0.11573299999999999,0.5353220000000001,-0.320865
582,-2.71247,-1.195904,2.987048,-0.152354,0.9305469999999999,0.332972,0.31811300000000003,-1.633964,-0.293926,0.268016,0.6228739999999999,-0.776224
583,-2.678712,-1.219034,3.033928,-0.153852,0.938767,0.308295,1.868414,0.14565799999999998,-0.192443,0.42641999999999997,0.61174,-0.752311
584,-2.6122330000000002,-1.2623010000000001,3.1037369999999997,-0.153324,0.952792,0.262067,2.7622009999999997,-0.440799,0.2365,0.409351,0.7525310000000001,-0.5072300000000001
585,-2.5272,-1.326111,-3.060701,-0.139648,0.9702139999999999,0.197948,4.030026,-1.914668,0.350862,0.24278200000000003,0.670655,-0.269496
586,-2.346746,-1.3937,-2.827759,-0.125745,0.984359,0.12339100000000001,3.9731419999999997,-2.508716,0.30635999999999997,-0.155643,0.15379400000000001,0.136024
587,-2.003621,-1.440364,-2.4462610000000002,-0.11806900000000001,0.991506,0.054553,3.6529260000000003,-1.042194,0.142011,-0.021731999999999998,0.49419700000000005,0.780454
588,-1.402091,-1.4515930000000001,-1.8414490000000001,-0.11723299999999999,0.9929040000000001,-0.019968,3.723934,0.544587,-0.065693,0.014221000000000001,0.658998,0.8931520000000001
589,-0.944557,-1.417594,-1.386465,-0.123645,0.988287,-0.08944099999999999,3.261333,-0.190603,-0.42583699999999997,-0.270962,0.662714,-0.17719100000000002
590,-0.7398899999999999,-1.373222,-1.1537879999999998,-0.13234,0.9805459999999999,-0.14496900000000001,2.896782,-1.499684,-0.145763,-0.30455,0.5217890000000001,0.003276
591,-0.584918,-1.327023,-0.989559,-0.13326500000000002,0.970434,-0.20124,2.802023,0.852082,0.026818,-0.273992,0.498453,0.295921
592,-0.435855,-1.2866540000000002,-0.8668969999999999,-0.118353,0.959902,-0.254125,2.419204,1.386317,0.757328,-0.169184,0.132429,0.45761599999999997
593,-0.315712,-1.261989,-0.749368,-0.09436599999999999,0.9526969999999999,-0.2889,1.4283860000000002,-0.10498900000000001,1.329158,0.268362,-0.044677,0.7290399999999999
594,-0.21063800000000002,-1.232029,-0.6396609999999999,-0.069484,0.9431649999999999,-0.324979,2.355317,0.121637,1.128107,0.105082,-0.337391,0.623746
595,-0.146589,-1.184125,-0.560345,-0.055082000000000006,0.92617,-0.373062,2.616495,-0.870107,0.895125,0.029813,-0.49758100000000005,0.703598
596,-0.11552899999999999,-1.139421,-0.504584,-0.048198000000000005,0.908391,-0.415333,2.218786,-1.417893,0.76593,0.005076,-0.571203,0.648289
597,-0.133221,-1.0994629999999999,-0.467182,-0.060313,0.890964,-0.45005100000000003,1.951441,-3.0562259999999997,0.44996899999999995,0.0321,-0.625186,0.806435
598,-0.181061,-1.0686149999999999,-0.44370699999999996,-0.086676,0.8765350000000001,-0.47347,1.416433,-3.625522,0.224771,-0.031381,-0.656579,0.9194690000000001
599,-0.24159299999999997,-1.048047,-0.430521,-0.119449,0.86645,-0.48476400000000003,0.830001,-3.486407,0.043172,-0.05999500000000001,-0.684657,0.9589770000000001
600,-0.298707,-1.040988,-0.427388,-0.148722,0.8629040000000001,-0.48298900000000006,0.059682000000000006,-2.618411,-0.037029,-0.012151,-0.727024,0.8855620000000001
601,-0.341097,-1.051013,-0.431569,-0.166154,0.867927,-0.468077,-0.870891,-1.5134530000000002,0.169768,0.11139,-0.7721319999999999,0.602033
602,-0.358635,-1.083259,-0.438896,-0.164425,0.883489,-0.438647,-2.018599,0.087034,0.520759,0.174175,-0.68601,0.010119
603,-0.351545,-1.1352719999999998,-0.447291,-0.145276,0.9066489999999999,-0.396084,-2.6033310000000003,0.8951399999999999,0.870289,0.042447000000000006,-0.26782399999999995,-0.695621
604,-0.323021,-1.173956,-0.431777,-0.12269000000000001,0.9222870000000001,-0.366517,-0.946944,0.28970100000000004,0.8569979999999999,-0.532462,1.1689610000000001,-1.4490809999999998
605,-0.30898200000000003,-1.176721,-0.397857,-0.116756,0.9233520000000001,-0.365772,0.577759,-1.173822,0.559739,-0.032856,1.334781,-1.09544
606,-0.292975,-1.155666,-0.361288,-0.116476,0.915064,-0.386123,1.5411860000000002,-0.768985,0.249756,0.08934600000000001,-0.021311,-0.373017
607,-0.282582,-1.120368,-0.329042,-0.12139200000000001,0.9002610000000001,-0.41808500000000004,1.954078,-1.080117,0.176127,-0.0007700000000000001,-0.25663,-0.288565
608,-0.281907,-1.0958450000000002,-0.29534699999999997,-0.12721400000000002,0.889315,-0.43924399999999997,0.79428,-1.655042,0.567209,0.178087,-0.375307,-0.091289
609,-0.279242,-1.111185,-0.27727199999999996,-0.122268,0.896225,-0.42641599999999996,-1.2453040000000002,0.277165,0.521644,-0.176896,0.230942,0.085092
610,-0.244385,-1.130075,-0.275839,-0.103218,0.904444,-0.413916,0.024734,2.7588310000000003,0.060522,-0.5071640000000001,2.699606,-0.5791109999999999
611,-0.222086,-1.09175,-0.281236,-0.10152699999999999,0.8874350000000001,-0.449612,1.8147779999999998,-0.7509640000000001,-1.0291540000000001,-0.892049,1.498246,0.096692
612,-0.256205,-1.0936190000000001,-0.310639,-0.11638499999999999,0.8882950000000001,-0.44428100000000004,-1.574006,0.240754,-0.21020100000000003,-0.434564,-2.170033,2.0417549999999998
613,-0.208786,-1.149799,-0.337271,-0.08470599999999999,0.912682,-0.39979499999999996,-3.223647,5.781147,-0.085681,0.083104,0.171074,1.252105
614,-0.13134400000000002,-1.199559,-0.40623899999999996,-0.047510000000000004,0.9318790000000001,-0.359643,-2.247425,6.873871,-1.134598,-0.061026,0.493505,1.724145
615,-0.145808,-1.253752,-0.513728,-0.045295999999999996,0.950161,-0.30845,-3.500875,2.925519,-1.8016590000000001,-0.173103,1.139713,0.640145
616,-0.293222,-1.311587,-0.6953239999999999,-0.074085,0.966593,-0.24537399999999998,-2.86675,0.420897,-1.7790650000000001,0.48172299999999996,0.444799,0.49822799999999995
617,-0.44681099999999996,-1.337244,-0.8499450000000001,-0.1,0.972851,-0.20871199999999998,-1.375748,-0.176229,-1.0649959999999998,0.598001,0.406315,0.430255
618,-0.5633050000000001,-1.346665,-0.9683350000000001,-0.118682,0.974987,-0.187918,-1.014628,-0.114318,-0.876682,0.5115350000000001,0.219425,0.092352
619,-0.664564,-1.363659,-1.058627,-0.126832,0.9786239999999999,-0.16189,-1.398526,-1.019185,0.088535,0.322343,-0.033998,-0.004674
620,-0.779569,-1.391629,-1.136833,-0.125277,0.983992,-0.126746,-1.6302969999999999,-2.667597,0.39667600000000003,0.319323,-0.08770599999999999,-0.008249
621,-1.006077,-1.427348,-1.3005149999999999,-0.12075899999999999,0.9897290000000001,-0.07650599999999999,-2.455132,-3.087862,0.715124,0.284593,-0.07707,0.017043
622,-1.4007120000000002,-1.468637,-1.6715259999999998,-0.100506,0.9947860000000001,-0.017261000000000002,-3.020795,0.121189,1.3608129999999998,0.13575399999999999,-0.391606,0.108555
623,-2.1265400000000003,-1.487718,-2.458844,-0.070491,0.9965510000000001,0.043776999999999996,-3.4511809999999996,4.554272,1.615977,-0.076161,-0.39027399999999995,-0.21275300000000003
624,-2.67025,-1.45682,-3.122476,-0.05164199999999999,0.9935120000000001,0.101328,-2.90617,5.985833,1.186388,-0.06556000000000001,-0.345593,-0.370218
625,-2.813607,-1.425237,2.9316299999999997,-0.046725,0.989425,0.13731500000000002,-1.528203,2.65867,0.33608499999999997,-0.562497,-0.255752,-0.635362
626,-2.7684580000000003,-1.401475,2.968884,-0.061429,0.985699,0.156916,-0.912291,-0.297426,-1.272045,-0.424518,-0.262265,0.176183
627,-2.662936,-1.369679,3.076495,-0.092008,0.979844,0.177312,-1.0970440000000001,0.227924,-1.420355,-0.058962,-0.037933999999999996,0.224742
628,-2.631959,-1.337725,3.108606,-0.112679,0.9729620000000001,0.20161600000000002,-1.395023,-0.388393,-1.015722,0.333077,0.11033599999999999,-0.266328
629,-2.668205,-1.293595,3.100085,-0.12476400000000001,0.961825,0.24356799999999998,-2.403664,-1.9834439999999998,-0.8572860000000001,0.5264979999999999,0.135724,-0.598198
630,-2.7337740000000004,-1.248065,3.066907,-0.12578699999999998,0.9483729999999999,0.291147,-1.889315,-1.216014,-0.34620300000000004,0.42925399999999997,0.218757,-0.6289
631,-2.7340869999999997,-1.224646,3.0657650000000003,-0.134463,0.940686,0.311496,-0.682137,0.856727,-0.5220239999999999,0.205447,0.516437,-0.35185500000000003
632,-2.687907,-1.215119,3.079215,-0.15262,0.9374110000000001,0.31299699999999997,-0.251109,1.846946,-0.241477,0.408358,0.60272,-0.073938
633,-2.681975,-1.20547,3.0682240000000003,-0.158479,0.9340069999999999,0.320178,-0.68647,-0.07634500000000001,-0.013453999999999999,0.234148,0.631087,-0.387164
634,-2.706705,-1.196641,3.066604,-0.15398199999999998,0.930817,0.331465,-0.021404,-1.420988,-0.25704899999999997,0.228933,0.681167,-0.70796
635,-2.691567,-1.211085,3.100073,-0.153117,0.935998,0.316956,1.402526,-0.464366,-0.160734,0.4248,0.5337430000000001,-0.639313
636,-2.659209,-1.2459040000000001,-3.13472,-0.148077,0.947685,0.282781,2.248685,-0.812761,0.18318099999999998,0.406805,0.522209,-0.43303500000000006
637,-2.612304,-1.3012489999999999,-3.0634580000000002,-0.134456,0.963892,0.22985500000000003,3.350172,-1.302742,0.548289,0.190486,0.6658689999999999,-0.243664
638,-2.4925,-1.3751,-2.906494,-0.11753499999999999,0.9809129999999999,0.154901,4.445305,-1.6581290000000002,0.560666,-0.144032,0.36157100000000003,-0.07776799999999999
639,-2.1792830000000003,-1.446343,-2.572504,-0.10184700000000001,0.992266,0.070953,4.069536,-0.382243,0.69848,-0.088354,0.386625,0.550201
640,-1.545231,-1.477857,-1.9240110000000001,-0.092765,0.995684,-0.002372,3.6550589999999996,-0.656181,0.299626,-0.12867,0.785718,0.8380200000000001
641,-0.867549,-1.450696,-1.2460579999999999,-0.09137999999999999,0.9927969999999999,-0.077477,3.780065,0.7104159999999999,-0.036674,-0.281362,0.56598,0.649636
642,-0.545147,-1.401514,-0.935011,-0.087359,0.985706,-0.14405,2.889971,0.320878,0.113568,-0.32031,0.475567,-0.048393
643,-0.46685699999999997,-1.359803,-0.8313290000000001,-0.09425900000000001,0.977823,-0.18701600000000002,2.063704,-1.955919,-0.159546,-0.41935200000000006,0.5302180000000001,-0.104198
644,-0.38359699999999997,-1.317038,-0.7115199999999999,-0.093954,0.9679760000000001,-0.232796,2.885826,-0.9619409999999999,0.70591,-0.394251,0.26069200000000003,0.42240200000000006
645,-0.290351,-1.2690860000000002,-0.596874,-0.08507100000000001,0.95483,-0.28471399999999997,2.447973,-0.841018,0.6824,0.12330999999999999,0.064946,0.705307
646,-0.20353800000000002,-1.227842,-0.516753,-0.067972,0.941765,-0.329327,2.3724830000000003,1.193608,0.760451,0.21373899999999998,-0.290673,0.628903
647,-0.13698,-1.17432,-0.454765,-0.05273200000000001,0.922427,-0.382552,3.0453099999999997,-0.498592,0.5793119999999999,0.169371,-0.387347,0.668075
648,-0.11808800000000001,-1.11834,-0.413547,-0.051504999999999995,0.8993760000000001,-0.43413100000000004,2.617534,-0.844965,0.45712700000000006,0.07891000000000001,-0.601433,0.695163
649,-0.125148,-1.074438,-0.386144,-0.059442999999999996,0.879323,-0.4725,2.134163,-2.210438,0.29099400000000003,0.045985000000000005,-0.593907,0.703854
650,-0.168185,-1.0361879999999999,-0.36804499999999996,-0.085287,0.860468,-0.502314,1.7849720000000002,-3.196977,0.08472,3.7e-05,-0.583918,0.922068
651,-0.22485,-1.008427,-0.358742,-0.11888,0.845994,-0.5197689999999999,1.164978,-3.147305,-0.077771,-0.044679,-0.70717,0.949609
652,-0.275826,-0.994751,-0.355925,-0.148348,0.838623,-0.5241210000000001,0.36128899999999997,-2.269909,-0.082372,0.059511,-0.7536930000000001,0.8711059999999999
653,-0.306073,-0.999769,-0.356982,-0.16286,0.8413459999999999,-0.5153760000000001,-0.63063,-1.0146600000000001,0.15585,0.117282,-0.76757,0.745692
654,-0.313664,-1.027425,-0.357199,-0.159525,0.8559709999999999,-0.49179700000000004,-1.734248,0.031406,0.587976,0.173335,-0.6417069999999999,0.365576
655,-0.296306,-1.076932,-0.353459,-0.13841199999999998,0.880508,-0.45337299999999997,-2.620135,1.031169,0.9554530000000001,0.0035240000000000002,-0.128387,-0.712735
656,-0.26404299999999997,-1.126336,-0.34428600000000004,-0.11221600000000001,0.9028430000000001,-0.41506800000000005,-1.806398,1.2283879999999998,0.74724,-0.312589,0.447362,-1.233614
657,-0.248579,-1.143298,-0.33093,-0.102001,0.910006,-0.40185,-0.240458,-0.6238279999999999,0.381333,-0.355823,1.8316169999999998,-1.50916
658,-0.242417,-1.13188,-0.29901,-0.102011,0.9052129999999999,-0.41253199999999995,1.2637610000000001,-1.35867,0.625654,0.19425,0.287475,-0.406529
659,-0.22452199999999997,-1.101237,-0.251621,-0.100743,0.891768,-0.44113500000000005,1.9243139999999999,-1.076591,0.640588,0.068699,-0.150953,-0.32140799999999997
660,-0.20587199999999997,-1.067971,-0.21072800000000003,-0.098511,0.876224,-0.47172600000000003,1.571228,-0.8706520000000001,0.595129,0.11817899999999999,-0.45496000000000003,-0.110351
661,-0.197956,-1.0637860000000001,-0.174946,-0.09549400000000001,0.8742,-0.47608100000000003,-0.471271,-1.2944229999999999,0.9809200000000001,0.131443,-0.621713,0.28884099999999996
662,-0.168453,-1.099316,-0.143449,-0.076151,0.8908969999999999,-0.447775,-2.19873,1.454936,0.909783,-0.175085,-0.23673699999999998,0.66799
663,-0.09388099999999999,-1.1515819999999999,-0.135755,-0.038156999999999996,0.913409,-0.405248,-2.191815,4.230491000000001,0.243977,-0.647619,0.44985699999999995,1.015234
664,-0.06552000000000001,-1.1306180000000001,-0.164476,-0.027898000000000003,0.904676,-0.425184,2.309657,0.113396,-1.30775,-1.089274,1.752825,-0.272478
665,-0.15485,-1.114401,-0.233075,-0.067972,0.897647,-0.43543999999999994,-0.598121,-0.46676599999999996,-1.55378,0.104334,-1.661502,1.737198
666,-0.164819,-1.14477,-0.29551700000000003,-0.067804,0.910615,-0.407654,-2.164885,3.7720559999999996,-0.751898,0.029917000000000003,-0.917161,0.9397120000000001
667,-0.11279600000000001,-1.19445,-0.353649,-0.041367,0.9300139999999999,-0.365187,-2.7794790000000003,5.754044,-0.8954629999999999,0.038407,-0.014334,1.193632
668,-0.085122,-1.257493,-0.427059,-0.026202999999999997,0.9513209999999999,-0.307084,-3.67656,4.086886,-1.182672,-0.012813999999999999,1.341404,1.121049
669,-0.190116,-1.3267360000000001,-0.6036560000000001,-0.045663999999999996,0.9703649999999999,-0.237287,-3.343689,2.741659,-2.056701,0.229807,1.211047,0.8415959999999999
670,-0.313719,-1.364021,-0.764528,-0.063355,0.978698,-0.195279,-1.6706900000000002,0.9463090000000001,-0.768319,0.623444,0.34228600000000003,-0.11966199999999999
671,-0.40181500000000003,-1.381362,-0.8535590000000001,-0.073641,0.9821110000000001,-0.1733,-0.897062,-0.506948,-0.584797,0.272463,0.149496,-0.001215
672,-0.510683,-1.3904020000000001,-0.942992,-0.08769099999999999,0.983773,-0.15652,-0.8088609999999999,-1.293336,-0.34175500000000003,0.125945,-0.016549,0.14268
673,-0.6105970000000001,-1.414169,-1.0162879999999999,-0.089431,0.987759,-0.12779400000000002,-1.69144,-1.4068889999999998,0.31452399999999997,0.113205,-0.175717,0.20575100000000002
674,-0.8011010000000001,-1.450849,-1.177978,-0.085923,0.992815,-0.08326599999999999,-2.2145259999999998,-1.7458220000000002,0.27925700000000003,0.138428,-0.125368,0.119048
675,-1.174791,-1.484644,-1.513737,-0.079372,0.996291,-0.033185,-2.466152,-1.88464,0.579984,0.077725,-0.152968,0.028424
676,-1.8911369999999998,-1.504208,-2.2190939999999997,-0.063137,0.997784,0.020947,-2.7760689999999997,0.518165,0.9625049999999999,0.082837,-0.33108200000000004,0.059115999999999995
677,-2.600054,-1.483592,-2.9883,-0.044886,0.9962,0.07462,-2.857507,4.113298,1.0759020000000001,-0.082723,-0.25961300000000004,-0.24167399999999997
678,-2.8455150000000002,-1.4449459999999998,2.947518,-0.03662,0.992091,0.120047,-2.1259959999999998,5.1813839999999995,0.80511,-0.166154,-0.265117,-0.31458200000000003
679,-2.890966,-1.419857,2.8129299999999997,-0.037291000000000005,0.9886299999999999,0.14566199999999999,-1.146644,3.7470779999999997,0.33415700000000004,-0.257204,-0.25854299999999997,-0.349779
680,-2.8387130000000003,-1.399124,2.807889,-0.050952,0.985301,0.163048,-0.983958,2.457014,-0.600952,-0.23449499999999998,-0.159571,0.049187
681,-2.743112,-1.373043,2.865396,-0.076231,0.980511,0.181069,-1.075357,1.62816,-1.036363,-0.175921,-0.157909,0.10080700000000001
682,-2.69449,-1.3436649999999999,2.904372,-0.097358,0.974316,0.203045,-1.330285,-0.410231,-0.95221,0.27934899999999996,-0.025174000000000002,-0.391339
683,-2.7522990000000003,-1.2934860000000001,2.8990110000000002,-0.103904,0.9617950000000001,0.253283,-2.9772119999999997,-3.892206,-0.959252,0.48424399999999995,0.21441300000000002,-0.70003
684,-2.864564,-1.2315209999999999,2.8762849999999998,-0.09102,0.942996,0.320112,-2.532579,-4.015779,-0.545791,0.134844,0.461499,-0.441053
685,-2.857843,-1.213093,2.8912080000000002,-0.09801900000000001,0.9367030000000001,0.33612,0.028354,1.9189319999999999,-0.38382,0.034435,0.347369,-0.545303
686,-2.776491,-1.220112,2.903667,-0.12265799999999999,0.9391379999999999,0.320894,0.444978,3.708394,0.103906,0.237709,0.442134,-0.132295
687,-2.735042,-1.224138,2.897166,-0.134353,0.9405129999999999,0.31206,-0.098436,1.241027,0.089385,0.181701,0.48792299999999994,-0.346194
688,-2.746452,-1.2213120000000002,2.9001639999999997,-0.131807,0.939549,0.31602399999999997,0.13106500000000001,-1.589222,-0.156417,0.159196,0.495525,-0.48051400000000005
689,-2.751573,-1.239853,2.92492,-0.12354100000000001,0.945736,0.300529,1.528299,-0.94955,0.103555,0.529287,0.547031,-0.551246
690,-2.7295979999999997,-1.284833,2.959994,-0.112954,0.95939,0.258474,2.735947,-0.760595,0.553992,0.45540699999999995,0.7701479999999999,-0.529791
691,-2.6895599999999997,-1.352684,3.032485,-0.094514,0.976308,0.19464700000000001,3.823553,-1.8403470000000002,0.567246,0.031342,0.5275529999999999,-0.211416
692,-2.556987,-1.4275959999999999,-3.073468,-0.078753,0.989764,0.119004,4.023643,-2.132189,0.38314699999999996,-0.180036,0.18858,0.124313
693,-2.1402229999999998,-1.484289,-2.627724,-0.072751,0.9962610000000001,0.046572,3.614218,-0.725468,0.066564,-0.180484,0.547395,0.737302
694,-1.232309,-1.490501,-1.717079,-0.075641,0.996778,-0.026628,3.707062,0.36747199999999997,-0.27174699999999996,-0.184567,0.621981,0.7008840000000001
695,-0.686533,-1.443629,-1.1845510000000001,-0.08038200000000001,0.991925,-0.098084,3.304759,0.8683069999999999,-0.22819699999999998,-0.298234,0.5179630000000001,-0.106277
696,-0.46535200000000004,-1.398142,-0.974057,-0.077089,0.985132,-0.153523,2.4811490000000003,0.606268,0.213971,-0.29675100000000004,0.538977,-0.08855700000000001
697,-0.3399,-1.355953,-0.859719,-0.071076,0.97701,-0.200993,2.28365,0.572891,0.20729299999999998,-0.29496700000000003,0.597087,-0.015224000000000001
698,-0.244554,-1.321302,-0.760941,-0.059783,0.969037,-0.239564,1.7660349999999998,-0.41674300000000003,0.919586,-0.114122,0.29538200000000003,0.42321800000000004
699,-0.155861,-1.28942,-0.6570199999999999,-0.043104,0.960674,-0.274309,2.041934,-0.110607,0.8463459999999999,0.126127,0.071751,0.74695
700,-0.08066,-1.245797,-0.588394,-0.025727,0.947651,-0.318266,2.357344,0.361892,0.6941189999999999,0.061723,-0.210117,0.494108
701,-0.032466,-1.202739,-0.540628,-0.011679,0.9330280000000001,-0.359611,2.079253,-0.022802,0.701216,-0.07624199999999999,-0.449218,0.583702
702,-0.016534,-1.1620219999999999,-0.504628,-0.006572,0.917608,-0.397429,2.0843220000000002,-1.4177309999999999,0.551351,0.039927,-0.59667,0.692625
703,-0.037802999999999996,-1.12372,-0.48225100000000004,-0.016339,0.9017149999999999,-0.43201999999999996,1.7692849999999998,-2.417109,0.329309,0.08357,-0.693051,0.7238899999999999
704,-0.09199600000000001,-1.094425,-0.47308,-0.042126,0.8886649999999999,-0.456617,1.289051,-3.4900300000000004,-0.005956,0.006847,-0.740441,0.8074319999999999
705,-0.166171,-1.076284,-0.47371,-0.078502,0.8802,-0.468063,0.618999,-3.6596260000000003,-0.16958399999999998,-0.010395,-0.788663,0.920792
706,-0.23664000000000002,-1.073922,-0.480783,-0.111751,0.879077,-0.463394,-0.244731,-2.845946,-0.17238699999999998,0.062313,-0.82265,0.840576
707,-0.287231,-1.0893389999999998,-0.491238,-0.131187,0.8863209999999999,-0.44409799999999994,-1.152526,-1.604925,0.087806,0.145332,-0.769576,0.5491550000000001
708,-0.309274,-1.124433,-0.500872,-0.131391,0.9020229999999999,-0.41120500000000004,-2.107333,-0.044549,0.445537,0.12951400000000002,-0.755783,0.278713
709,-0.308168,-1.1790459999999998,-0.514554,-0.115807,0.924242,-0.363818,-2.934155,0.8344,0.605278,-0.177925,0.086103,-0.64436
710,-0.31185300000000005,-1.2248350000000001,-0.528572,-0.10404300000000001,0.94075,-0.322743,-1.40355,0.22832600000000003,0.327258,-0.36377600000000004,0.816803,-1.061382
711,-0.304264,-1.224313,-0.506653,-0.101738,0.940573,-0.323991,0.8584350000000001,-1.096481,0.398167,-0.070763,1.685037,-1.388701
712,-0.286661,-1.197534,-0.46081300000000003,-0.10310599999999999,0.931143,-0.34977199999999997,1.776203,-1.3401889999999999,0.341864,0.08213999999999999,0.052698,-0.471059
713,-0.267098,-1.164511,-0.416538,-0.104306,0.918595,-0.381184,1.7318060000000002,-0.747845,0.367501,-0.020374,-0.26957800000000004,-0.38250300000000004
714,-0.240144,-1.139758,-0.37458400000000003,-0.099374,0.908532,-0.405823,1.171442,-0.821342,0.584803,-0.031348,-0.383676,-0.272094
715,-0.23910700000000001,-1.136838,-0.35036,-0.09958099999999999,0.907308,-0.408502,-0.21681,-0.6514270000000001,0.322788,0.062059,0.27282199999999995,-0.018027
716,-0.202486,-1.125912,-0.337538,-0.086546,0.90266,-0.42156000000000005,1.6852369999999999,2.036368,-0.019884,-0.0016190000000000002,2.033604,-0.826731
717,-0.20504499999999998,-1.0734709999999998,-0.340341,-0.097138,0.878862,-0.467082,1.9888849999999998,-1.089792,-0.9206770000000001,-0.824233,1.1535790000000001,0.23545300000000002
718,-0.23173600000000003,-1.084154,-0.358718,-0.107406,0.883908,-0.455158,-1.950491,0.063981,0.07582,-0.742142,-1.569669,0.852619
719,-0.18196500000000002,-1.1294879999999998,-0.38301199999999996,-0.077293,0.904194,-0.42006899999999997,-2.378666,5.413069,-0.43608900000000006,-0.29126799999999997,-0.462574,-0.36380500000000005
720,-0.119756,-1.1728399999999999,-0.449029,-0.046298,0.921855,-0.384757,-2.23658,5.577934,-1.028171,0.086338,0.938466,1.803763
721,-0.112622,-1.2261309999999999,-0.5169100000000001,-0.037972000000000006,0.9411889999999999,-0.335739,-3.1295040000000003,2.485362,-1.045398,0.237969,0.569874,0.33219899999999997
722,-0.166169,-1.282901,-0.615455,-0.046964,0.958844,-0.280021,-2.830897,1.876479,-1.151491,0.152921,0.21672399999999997,0.7418130000000001
723,-0.277504,-1.324794,-0.757703,-0.066715,0.969894,-0.23420700000000003,-2.172841,0.7443609999999999,-1.522526,0.340808,0.371857,0.6245569999999999
724,-0.454682,-1.3472030000000002,-0.9403540000000001,-0.097379,0.975107,-0.199202,-1.620368,-0.289635,-1.565412,0.359692,0.508993,0.26274000000000003
725,-0.636903,-1.3601889999999999,-1.109651,-0.124323,0.9779040000000001,-0.16806300000000002,-1.510247,-1.212121,-0.873389,0.289682,0.176957,-0.112424
726,-0.786986,-1.3855030000000002,-1.225079,-0.130476,0.9828819999999999,-0.13006199999999998,-1.792359,-2.207908,0.37359899999999996,0.277067,-0.033862,-0.044346
727,-1.00105,-1.4175309999999999,-1.3839629999999998,-0.128544,0.9882780000000001,-0.082347,-2.186327,-3.275851,0.316668,0.13535,-0.09308999999999999,0.04658
728,-1.348242,-1.441892,-1.666468,-0.125368,0.9917030000000001,-0.028370999999999997,-2.418597,-3.077419,0.445115,-0.067152,-0.292698,0.085759
729,-1.818888,-1.4555360000000002,-2.113888,-0.111473,0.9933649999999999,0.028237,-2.915398,0.327027,0.91905,-0.004357,-0.49437200000000003,0.14852100000000001
730,-2.309479,-1.4408040000000002,-2.6861610000000002,-0.095834,0.991563,0.087273,-3.5566699999999996,5.599979,0.9825889999999999,0.011346,-0.47229099999999996,-0.24122
731,-2.5349909999999998,-1.406296,-3.047125,-0.093351,0.9865,0.134537,-2.428182,6.600035000000001,0.86314,-0.022295,-0.30533299999999997,-0.22843899999999998
732,-2.611723,-1.3866969999999998,3.070249,-0.092519,0.983101,0.157953,-1.340676,2.442361,0.42954799999999993,-0.399134,-0.324547,-0.530374
733,-2.655704,-1.356255,3.0230330000000003,-0.09942000000000001,0.977074,0.188253,-1.7117509999999998,-0.597194,-0.76449,-0.48894399999999993,-0.32589,0.10142000000000001
734,-2.647554,-1.318776,3.03858,-0.11824100000000001,0.968411,0.21953899999999998,-1.3742299999999998,-0.33511199999999997,-1.062638,0.184937,-0.16479100000000002,0.055607000000000004
735,-2.655148,-1.282872,3.055657,-0.132746,0.958835,0.251019,-1.8187330000000002,-1.8931950000000002,-1.047723,0.348139,0.030911,-0.26862800000000003
736,-2.725773,-1.228796,3.0331099999999998,-0.135469,0.9420860000000001,0.30679,-2.720185,-2.229197,-0.689326,0.524598,0.21022800000000003,-0.544369
737,-2.7581279999999997,-1.193542,3.013115,-0.137818,0.92968,0.34161199999999997,-1.052454,0.344555,-0.282528,0.051133,0.334831,-0.8249340000000001
738,-2.710544,-1.184411,3.025918,-0.157453,0.926277,0.342369,-0.036686,2.366644,-0.41262,0.22186,0.48076599999999997,-0.331856
739,-2.660885,-1.18258,3.034708,-0.175037,0.925586,0.335635,-0.158295,1.562324,-0.032152,0.45936899999999997,0.46738900000000005,-0.116198
740,-2.674288,-1.175251,3.022555,-0.173574,0.9227870000000001,0.343998,-0.47074799999999994,-1.185275,0.035416,0.319738,0.635273,-0.808659
741,-2.7006959999999998,-1.180089,3.0356549999999998,-0.162524,0.92464,0.34442,1.0804340000000001,-1.6999,-0.21907600000000002,0.43222299999999997,0.745221,-0.8385309999999999
742,-2.656686,-1.2173129999999999,3.091001,-0.161356,0.9381729999999999,0.306258,2.535484,-0.008168,0.098704,0.5194489999999999,0.747939,-0.647475
743,-2.593282,-1.280627,-3.112874,-0.149134,0.9581959999999999,0.244168,3.918333,-0.9987959999999999,0.744156,0.5203949999999999,0.914409,-0.30148
744,-2.4729419999999998,-1.367532,-2.9585619999999997,-0.12514,0.9794129999999999,0.158393,4.909675,-1.6689939999999999,0.9848120000000001,-0.116224,0.515735,0.159448
745,-2.1959619999999997,-1.443222,-2.643872,-0.10315799999999999,0.991873,0.07445299999999999,4.023059,-1.8696549999999998,0.785528,-0.25554499999999997,0.532251,0.745325
746,-1.564505,-1.47672,-1.975157,-0.093925,0.9955780000000001,-0.000591,4.0343860000000005,-1.2776129999999999,0.040298,-0.331871,0.872769,0.690761
747,-0.8785120000000001,-1.441751,-1.277002,-0.099057,0.991685,-0.082137,4.1068690000000005,-0.09767999999999999,-0.190376,-0.49473900000000004,0.721984,0.445036
748,-0.59004,-1.3875790000000001,-0.976599,-0.101369,0.9832629999999999,-0.151385,3.129381,-0.730754,-0.067137,-0.454722,0.577284,0.034762
749,-0.452654,-1.3361299999999998,-0.828467,-0.10169199999999999,0.972592,-0.20909899999999998,3.057985,0.227329,0.160804,-0.45008100000000006,0.667346,0.13601
750,-0.30991199999999997,-1.28455,-0.708624,-0.08611,0.95931,-0.2689,2.784774,1.513808,0.7565189999999999,-0.173656,0.557718,0.37603200000000003
751,-0.19458399999999998,-1.2534040000000002,-0.588667,-0.060345,0.950052,-0.306199,1.947137,-0.7399060000000001,1.379535,0.305325,-0.015864,0.801117
752,-0.102128,-1.207946,-0.49658100000000005,-0.036186,0.934889,-0.353089,2.630076,0.42535,1.093324,0.037987,-0.320891,0.541978
753,-0.062586,-1.155458,-0.436472,-0.025237,0.9149799999999999,-0.40270900000000004,2.776938,-1.607609,0.803194,0.040221,-0.565706,0.8467549999999999
754,-0.067277,-1.102236,-0.401329,-0.030358999999999997,0.8922190000000001,-0.45058000000000004,2.584509,-2.023201,0.471233,0.060877,-0.755958,0.7764770000000001
755,-0.10192999999999999,-1.056876,-0.381729,-0.050022000000000004,0.8708239999999999,-0.48904200000000003,2.092288,-2.894823,0.155923,0.001041,-0.753499,0.8623790000000001
756,-0.163873,-1.024183,-0.375155,-0.0848,0.85429,-0.512832,1.3584459999999998,-3.6282349999999997,-0.147365,0.01345,-0.847851,1.0492549999999998
757,-0.23828000000000002,-1.006306,-0.37648899999999996,-0.126273,0.8448610000000001,-0.5198689999999999,0.568366,-3.575192,-0.20636300000000002,0.038856,-0.8480049999999999,1.045519
758,-0.303977,-1.0051940000000001,-0.380465,-0.160411,0.844266,-0.511354,-0.323812,-2.74613,-0.035264,0.061763,-0.836392,0.974656
759,-0.345578,-1.025045,-0.38566300000000003,-0.175827,0.8547379999999999,-0.48837299999999995,-1.390067,-1.272808,0.344233,0.10409500000000001,-0.879167,0.660416
760,-0.352796,-1.068738,-0.3936,-0.166276,0.8765940000000001,-0.451592,-2.582713,0.762514,0.683671,0.102433,-0.7176130000000001,-0.165703
761,-0.336754,-1.134045,-0.40660599999999997,-0.139769,0.9061299999999999,-0.399239,-3.266165,1.523665,0.8734059999999999,-0.278871,0.310682,-0.89643
762,-0.320887,-1.16893,-0.404542,-0.123368,0.9203319999999999,-0.37117100000000003,-0.41240699999999997,-0.41783000000000003,0.405514,-0.298095,2.154741,-1.6319569999999999
763,-0.334853,-1.161106,-0.377787,-0.130901,0.9172440000000001,-0.376201,0.9583280000000001,-2.181165,0.358596,0.31650900000000004,0.9011309999999999,-0.609486
764,-0.32415,-1.136473,-0.335547,-0.134025,0.9071549999999999,-0.398882,1.657225,-0.8694780000000001,0.46861899999999995,0.302894,0.226512,-0.323225
765,-0.28862,-1.104567,-0.282359,-0.127947,0.8932700000000001,-0.43092700000000006,1.846436,-0.7317640000000001,0.763525,0.068422,-0.321813,-0.390819
766,-0.269415,-1.092783,-0.23539699999999997,-0.12244100000000001,0.887911,-0.443421,0.014457,-1.113628,0.877268,-0.036937,-0.23986999999999997,0.20460599999999998
767,-0.252033,-1.115011,-0.22359,-0.109766,0.897915,-0.426262,-1.176908,1.460216,0.27812600000000004,-0.285894,0.529346,0.317878
768,-0.19639,-1.105307,-0.22053499999999998,-0.087586,0.893602,-0.44023199999999996,2.176576,2.776409,-0.10926500000000001,-0.562972,2.646666,-0.420684
769,-0.2105,-1.0517940000000001,-0.22403299999999998,-0.10364200000000001,0.8683139999999999,-0.48506499999999997,1.443552,-1.506989,-0.8235370000000001,-0.764523,-2.090467,2.671207
770,-0.23638299999999998,-1.0715350000000001,-0.24564499999999997,-0.112124,0.877936,-0.465463,-2.308688,1.043205,0.049633,-0.724195,-2.524604,2.412591
771,-0.170646,-1.139442,-0.282672,-0.071002,0.9084,-0.412029,-3.5726980000000004,7.155088,-0.551346,-0.263288,-0.769225,0.28191700000000003
772,-0.092174,-1.192192,-0.35917,-0.034022000000000004,0.9291809999999999,-0.368055,-2.657593,6.357966,-1.2778049999999999,-0.19112200000000001,0.93973,1.222318
773,-0.125601,-1.257216,-0.47215100000000004,-0.038642,0.951235,-0.306037,-3.6917199999999997,2.4763490000000004,-1.774641,-0.016732,1.140226,0.500525
774,-0.247311,-1.307404,-0.636808,-0.063735,0.965512,-0.252436,-2.197701,1.420585,-1.7190560000000001,0.569731,0.36493200000000003,0.573145
775,-0.368132,-1.3299379999999998,-0.774727,-0.08584299999999999,0.971133,-0.22255500000000003,-1.391691,0.228667,-1.117967,0.553891,0.341,0.34079499999999996
776,-0.496068,-1.3442020000000001,-0.898352,-0.106931,0.9744370000000001,-0.197579,-1.197437,-0.733721,-0.9092100000000001,0.351011,0.164296,-0.032081
777,-0.612186,-1.36484,-0.9918299999999999,-0.11751900000000001,0.978866,-0.167364,-1.587297,-1.492742,0.096373,0.242794,0.009918999999999999,-0.042842
778,-0.738298,-1.398655,-1.087402,-0.11528499999999998,0.9852200000000001,-0.12669,-2.054487,-1.6542,0.384941,0.21265100000000003,-0.14813800000000002,0.071697
779,-0.955584,-1.43346,-1.2721040000000001,-0.111802,0.990584,-0.079011,-2.2141919999999997,-1.7890529999999998,0.413908,0.155916,-0.226424,0.0365
780,-1.262203,-1.4668139999999998,-1.5551620000000002,-0.09888999999999999,0.994599,-0.031524,-2.341991,-0.777487,0.902033,0.11714000000000001,-0.241211,0.009475
781,-1.789261,-1.491576,-2.101019,-0.077251,0.996864,0.01715,-2.58316,2.110157,1.190409,0.0713,-0.370719,-0.081207
782,-2.437659,-1.483191,-2.834891,-0.056624,0.996165,0.066692,-2.8224110000000002,5.102422,1.154994,-0.041719,-0.306178,-0.24943200000000001
783,-2.7438830000000003,-1.4532049999999999,3.034965,-0.045438,0.993094,0.108161,-1.911344,4.87852,0.946932,-0.168353,-0.282294,-0.379218
784,-2.811213,-1.430495,2.900103,-0.045363,0.990174,0.132275,-1.144002,2.304968,-0.021834,-0.366624,-0.2865,-0.336407
