,attitude.roll,attitude.pitch,attitude.yaw,gravity.x,gravity.y,gravity.z,rotationRate.x,rotationRate.y,rotationRate.z,userAcceleration.x,userAcceleration.y,userAcceleration.z
0,-2.587829,-1.104663,1.308206,-0.23634899999999998,0.8933129999999999,0.382259,-1.317971,-0.713175,-0.653618,0.383444,0.194746,-0.49843999999999994
1,-2.603948,-1.080927,1.30243,-0.24095,0.882394,0.404121,-0.733036,-0.146368,-0.382135,0.370848,0.291785,-0.504524
2,-2.593966,-1.071469,1.30532,-0.249306,0.8779049999999999,0.408803,-0.295441,0.497137,-0.248511,0.22271,0.31080100000000005,-0.301595
3,-2.586256,-1.065128,1.3040120000000002,-0.25538099999999997,0.874851,0.411591,-0.240067,0.383434,-0.100564,0.154581,0.36657399999999996,-0.257492
4,-2.577064,-1.0641639999999999,1.309316,-0.259604,0.874384,0.409938,0.22116599999999997,0.147759,-0.171816,0.084479,0.455084,-0.478542
5,-2.557746,-1.0723719999999999,1.327013,-0.263509,0.878337,0.398845,0.809105,0.28168699999999997,-0.052509,0.225408,0.563191,-0.575328
6,-2.527836,-1.096455,1.3516059999999999,-0.263056,0.889594,0.373381,1.6667880000000002,0.42727299999999996,0.358152,0.421382,0.641748,-0.47705
7,-2.483003,-1.1408399999999999,1.392585,-0.255094,0.908984,0.329644,2.659894,0.30506,0.755146,0.36482,0.7409180000000001,-0.595513
8,-2.4173240000000003,-1.20095,1.464909,-0.239499,0.932383,0.270728,3.642527,-0.11826600000000001,0.805281,0.015668,0.511907,-0.6698970000000001
9,-2.276722,-1.270263,1.6115389999999998,-0.225271,0.9551790000000001,0.19203699999999999,4.16708,0.048185000000000006,0.81621,-0.21596700000000002,0.30834,-0.38753200000000004
10,-2.115856,-1.330355,1.7972240000000002,-0.203611,0.971233,0.123455,3.602904,-1.596537,1.02268,0.073209,0.316548,0.618626
11,-1.888571,-1.376452,2.071819,-0.183437,0.981174,0.060336,3.6057410000000005,-1.94382,0.755021,-0.237157,0.767529,0.952283
12,-1.573561,-1.3942290000000002,2.408163,-0.17563199999999998,0.984452,0.00048600000000000005,2.900621,-0.048595,0.010594,-0.404934,0.801787,0.83916
13,-1.281021,-1.3774879999999998,2.691706,-0.184082,0.981374,-0.054887,2.6703930000000002,0.8589040000000001,-0.559403,-0.532593,0.643946,0.734453
14,-1.08406,-1.362182,2.8947950000000002,-0.18304,0.978319,-0.09686499999999999,2.055365,-0.366958,0.703715,-0.657903,0.198775,-0.34222199999999997
15,-0.8339040000000001,-1.352277,3.128729,-0.16053299999999998,0.9762200000000001,-0.145669,2.2576490000000002,2.09346,0.886777,-0.580525,0.098213,0.069741
16,-0.619268,-1.331013,-2.991704,-0.137843,0.971389,-0.193382,1.956549,2.3402279999999998,0.7091689999999999,-0.585805,-0.061203,0.363227
17,-0.467211,-1.3020450000000001,-2.845177,-0.11958900000000001,0.964103,-0.237062,2.351456,-0.142551,0.80484,0.23546399999999998,-0.29499000000000003,0.7097479999999999
18,-0.348306,-1.264669,-2.724688,-0.10285599999999999,0.953508,-0.283265,2.417594,0.11917,0.831672,0.274136,-0.224458,0.435654
19,-0.277766,-1.22155,-2.635744,-0.093829,0.939631,-0.329067,2.4969240000000004,-1.1555469999999999,0.658671,0.22619899999999998,-0.262232,0.497784
20,-0.236884,-1.180575,-2.5653490000000003,-0.089267,0.924825,-0.369765,2.2031009999999998,-1.158093,0.750626,0.080539,-0.259679,0.5801069999999999
21,-0.201758,-1.143558,-2.5023009999999997,-0.08303300000000001,0.910114,-0.405949,1.9976349999999998,-1.1918870000000001,0.854988,-0.081487,-0.401401,0.562016
22,-0.18370999999999998,-1.111687,-2.449416,-0.080953,0.8964479999999999,-0.435688,1.619293,-1.663203,0.766423,-0.273875,-0.592004,0.644932
23,-0.185023,-1.089542,-2.4110150000000004,-0.08515700000000001,0.886415,-0.45498599999999995,1.001882,-1.782791,0.57212,-0.303027,-0.767183,0.691421
24,-0.200897,-1.079543,-2.391142,-0.09413300000000001,0.881742,-0.46224,0.351181,-1.6459110000000001,0.206341,-0.15504300000000001,-0.887495,0.6521359999999999
25,-0.23341199999999998,-1.079834,-2.395104,-0.10905,0.8818799999999999,-0.458686,-0.281016,-1.2839450000000001,-0.253602,-0.038914,-0.9082469999999999,0.599417
26,-0.277325,-1.093893,-2.423879,-0.125674,0.8884209999999999,-0.44148699999999996,-1.2447629999999998,-0.732805,-0.5815060000000001,0.012225,-0.8711479999999999,0.39864
27,-0.34062600000000004,-1.1265290000000001,-2.480409,-0.143583,0.902926,-0.405097,-2.330778,-0.628278,-0.7377090000000001,0.10362,-0.624011,0.036323
28,-0.436525,-1.172447,-2.566294,-0.163998,0.921703,-0.351517,-2.994357,-1.115916,-0.759879,0.031108999999999998,-0.209499,-0.254409
29,-0.555272,-1.2162540000000002,-2.6737599999999997,-0.18301099999999998,0.9378059999999999,-0.294996,-2.582817,-0.557602,-0.6113729999999999,-0.14111700000000002,0.38603200000000004,-0.5565060000000001
30,-0.627894,-1.240717,-2.755966,-0.190395,0.946016,-0.262291,-1.277662,0.6334930000000001,-0.440345,-0.217915,0.565992,-0.927269
31,-0.667395,-1.248585,-2.806924,-0.195991,0.9485379999999999,-0.24871300000000002,-0.601692,0.126996,-0.370881,0.0044020000000000005,0.242396,-0.851202
32,-0.6952119999999999,-1.251837,-2.826308,-0.200856,0.9495620000000001,-0.24079499999999998,-0.195746,-0.7984829999999999,0.014496,0.238957,-0.165795,-0.39423
33,-0.718069,-1.258024,-2.827884,-0.202438,0.951484,-0.231713,-0.299514,-1.134493,0.21609499999999998,0.270995,-0.18123599999999998,-0.212348
34,-0.7495539999999999,-1.262265,-2.836331,-0.20688,0.952781,-0.222269,-0.194931,-1.169953,-0.064071,-0.20492399999999997,-0.030463,-1.323019
35,-0.8001729999999999,-1.264948,-2.88911,-0.216027,0.953592,-0.209736,-1.423168,0.582487,-0.878199,-0.278312,0.775031,0.941059
36,-0.9351790000000001,-1.271621,-3.028851,-0.237163,0.9555799999999999,-0.174968,-1.56007,-0.25297600000000003,-0.687941,-0.56908,0.461153,1.659725
37,-1.006185,-1.301803,-3.103103,-0.224504,0.964039,-0.142199,-2.155709,0.5205960000000001,1.1122020000000001,-0.6815329999999999,0.8382229999999999,1.325396
38,-1.189808,-1.338767,2.9670099999999997,-0.21345,0.973202,-0.0855,-3.593177,1.0442790000000002,-0.195331,-1.273976,1.833805,0.947041
39,-1.3583370000000001,-1.356347,2.7626180000000002,-0.20800700000000003,0.977094,-0.04487,-0.90891,3.450186,0.810577,0.20169,-0.14791600000000002,0.053812
40,-1.214695,-1.370063,2.8161680000000002,-0.186861,0.9799209999999999,-0.069504,0.22018400000000002,3.619282,0.435824,0.38788,-0.568483,-0.22505100000000003
41,-1.200289,-1.370544,2.817309,-0.185401,0.980017,-0.072019,0.133358,-0.966707,-0.026787000000000002,0.301261,0.021128,0.708493
42,-1.232221,-1.365337,2.849132,-0.192417,0.978967,-0.06775700000000001,0.381193,-4.242248,-0.286846,0.322391,0.348059,0.7530140000000001
43,-1.3495190000000001,-1.355192,2.8290189999999997,-0.20870500000000003,0.9768469999999999,-0.04695,-0.400357,-4.916869,-0.5990880000000001,0.295542,0.532918,0.706008
44,-1.528829,-1.353483,2.727607,-0.2154,0.9764799999999999,-0.009045000000000001,-1.496102,-3.242464,0.135663,0.169319,0.307089,0.540738
45,-1.7864849999999999,-1.3658489999999999,2.497343,-0.19878099999999999,0.9790719999999999,0.043552,-2.831873,-0.737718,1.221255,-0.048213,0.134713,0.291638
46,-2.146444,-1.369551,2.128053,-0.167658,0.9798180000000001,0.108805,-3.545454,0.51975,1.728474,-0.20094800000000002,-0.074072,0.225744
47,-2.48334,-1.343245,1.7484419999999998,-0.137992,0.9742219999999999,0.17844300000000002,-3.964752,2.482121,1.7924650000000002,-0.274545,-0.315698,0.093224
48,-2.66434,-1.293053,1.492359,-0.125937,0.961677,0.243533,-3.5148309999999996,3.9497459999999998,0.951968,-0.509943,-0.482642,-0.492267
49,-2.659872,-1.253118,1.405797,-0.14471199999999998,0.9499629999999999,0.276801,-1.612471,4.067880000000001,-0.135164,-0.61069,-0.547696,-1.05445
50,-2.6384819999999998,-1.229248,1.3891069999999999,-0.16148900000000002,0.9422370000000001,0.29343,-1.183166,0.476789,-0.49503199999999997,-0.233317,-0.230567,-0.472492
51,-2.648459,-1.19743,1.383019,-0.172663,0.931105,0.321281,-1.59615,-0.009817,-0.725892,0.07902,-0.121717,0.316185
52,-2.627122,-1.165892,1.3803450000000002,-0.19383699999999998,0.91914,0.342926,-1.157146,1.8323770000000001,-0.65682,0.25148400000000004,0.117084,0.228942
53,-2.586243,-1.148353,1.379258,-0.216156,0.91209,0.348364,-0.6193350000000001,1.978187,-0.291124,0.36993400000000004,0.21623699999999998,-0.15711
54,-2.578183,-1.133212,1.3678860000000002,-0.22630799999999998,0.9057780000000001,0.358246,-1.021149,0.017005000000000003,-0.20702800000000002,0.490392,0.17591800000000002,-0.743927
55,-2.645909,-1.098696,1.3373979999999999,-0.216292,0.8906149999999999,0.400014,-2.130855,-2.949831,-0.299639,0.751158,0.38856,-1.5138909999999999
56,-2.691109,-1.081803,1.317884,-0.204519,0.882806,0.422864,-0.25640999999999997,-0.12665099999999999,0.178784,0.378865,0.149619,-0.804196
57,-2.6680349999999997,-1.083228,1.314737,-0.21364699999999998,0.883475,0.416912,0.070978,1.7787849999999998,-0.018992,-0.032126999999999996,-0.027197000000000002,-0.15223299999999998
58,-2.624711,-1.0867639999999998,1.3261530000000001,-0.229958,0.885126,0.40455,0.41163500000000003,1.415133,-0.21590399999999998,0.2725,-0.06661399999999999,-0.591425
59,-2.588718,-1.094147,1.343833,-0.240929,0.8885370000000001,0.390441,0.643292,0.8768530000000001,-0.071523,0.576469,0.22193600000000002,-0.988708
60,-2.537562,-1.1181510000000001,1.374207,-0.24839099999999997,0.899293,0.35994899999999996,1.868416,1.394803,0.14147,0.5767899999999999,0.24327,-0.778895
61,-2.466585,-1.156184,1.434728,-0.251726,0.915272,0.314485,2.3943689999999997,0.10968599999999999,0.05065,0.016069,0.255168,-0.37301799999999996
62,-2.39358,-1.1943700000000002,1.53493,-0.250027,0.929984,0.269457,3.034075,-1.369397,-0.383094,-0.044650999999999996,0.5167930000000001,-0.434374
63,-2.2517169999999997,-1.238065,1.71612,-0.253777,0.945154,0.20560599999999998,4.182944,-1.405478,-0.614304,-0.032126999999999996,0.580573,-0.46030600000000005
64,-2.038836,-1.277132,1.980936,-0.258319,0.95719,0.130581,4.508791,-2.383911,-0.502884,0.263782,0.633616,0.548481
65,-1.7897880000000002,-1.303024,2.292475,-0.258251,0.964363,0.057477,4.5198529999999995,-2.38232,-0.11183900000000001,0.595669,0.962334,0.996158
66,-1.4971459999999999,-1.316374,2.637914,-0.25099099999999996,0.967809,-0.018519,4.3481510000000005,-2.022826,0.711168,0.55223,1.176295,0.8343
67,-1.2360440000000001,-1.3286799999999999,2.944295,-0.226437,0.970833,-0.078765,2.795309,-1.439542,1.64495,0.017849,1.518501,0.31233099999999997
68,-1.042683,-1.350794,3.130643,-0.188486,0.9758969999999999,-0.10995999999999999,1.362978,2.290598,1.934609,-0.436895,1.4265379999999999,-0.16089900000000001
69,-0.760827,-1.3482180000000001,-2.931708,-0.152199,0.975331,-0.159868,2.2185040000000003,3.2532229999999998,1.023885,-0.7740100000000001,0.43900600000000006,-0.008375
70,-0.558229,-1.322586,-2.7682599999999997,-0.13012100000000001,0.969354,-0.20836500000000002,2.059129,1.174608,0.6953550000000001,-0.770468,-0.065866,0.677756
71,-0.45704399999999995,-1.2924579999999999,-2.636475,-0.121246,0.961513,-0.246549,2.517258,-2.420593,0.804643,-0.756958,-0.372417,0.9170200000000001
72,-0.380722,-1.240535,-2.510831,-0.1205,0.945958,-0.301062,3.150983,-1.747377,0.531537,-0.26498299999999997,-0.456425,0.45349799999999996
73,-0.33512600000000003,-1.200412,-2.44089,-0.119047,0.9321879999999999,-0.341831,1.7811080000000001,-0.664114,0.41803100000000004,0.159864,-0.454313,0.5780069999999999
74,-0.301581,-1.175281,-2.392262,-0.11443900000000001,0.922798,-0.36788899999999997,1.425618,-0.6280600000000001,0.5009600000000001,0.261687,-0.389153,0.6733859999999999
75,-0.27723600000000004,-1.1523379999999999,-2.351356,-0.11121700000000001,0.913716,-0.390831,1.2897530000000001,-0.832692,0.377427,0.159968,-0.415868,0.687797
76,-0.283157,-1.129551,-2.325876,-0.119316,0.9042209999999999,-0.410055,1.173875,-1.724959,0.103228,-0.08686100000000001,-0.660492,0.867894
77,-0.308718,-1.1128149999999999,-2.314446,-0.13433699999999998,0.8969469999999999,-0.421231,0.65463,-1.8321450000000001,-0.080791,-0.28068699999999996,-0.9599049999999999,0.810895
78,-0.35433400000000004,-1.106179,-2.3229759999999997,-0.155467,0.893993,-0.420241,0.030623,-1.911675,-0.430083,-0.246144,-1.015926,0.688902
79,-0.41758,-1.10724,-2.350957,-0.181332,0.894468,-0.40870700000000004,-0.49227200000000004,-1.879305,-0.61217,-0.137622,-1.018781,0.562455
80,-0.49684700000000004,-1.120314,-2.398875,-0.20753400000000002,0.9002370000000001,-0.382751,-1.437291,-1.85883,-0.650844,-0.056871000000000005,-0.7919,0.18754500000000002
81,-0.597769,-1.145576,-2.458666,-0.23216399999999998,0.910948,-0.340983,-1.7469029999999999,-2.653153,-0.209745,0.185976,-0.021603999999999998,-0.819631
82,-0.672307,-1.169353,-2.4822610000000003,-0.243351,0.9204979999999999,-0.305711,-0.6692779999999999,-2.118798,0.556603,-0.122601,1.3234290000000002,-1.984618
83,-0.6739649999999999,-1.17509,-2.455922,-0.24055700000000002,0.922724,-0.301175,0.285767,-1.264991,0.663661,-0.061796000000000004,1.355993,-1.106143
84,-0.649671,-1.16844,-2.418845,-0.23687800000000003,0.920141,-0.31181,0.795722,0.134889,-0.070576,-0.741073,1.751902,-1.05756
85,-0.638335,-1.159468,-2.408632,-0.23823699999999998,0.91659,-0.321092,0.484712,-0.134965,0.017328,-1.12422,2.496633,0.032213
86,-0.635789,-1.1223459999999998,-2.405979,-0.257456,0.90112,-0.348848,2.736007,0.8240139999999999,-1.191289,-1.665014,1.877704,-0.434065
87,-0.52285,-1.110693,-2.3460360000000002,-0.22173,0.896006,-0.384713,0.012844999999999999,4.281727,0.943067,-0.17621900000000001,-2.2520700000000002,2.581033
88,-0.46876,-1.134528,-2.3375779999999997,-0.190903,0.906335,-0.376974,-1.576544,0.858685,0.5347,-0.795258,-2.3247459999999998,1.948004
89,-0.539766,-1.170124,-2.382613,-0.200451,0.9207989999999999,-0.334581,-2.3677639999999998,-3.193952,-0.294574,0.112469,-1.671562,0.5334800000000001
90,-0.7215550000000001,-1.216502,-2.5479830000000003,-0.229161,0.937891,-0.26046199999999997,-3.9680440000000003,1.069184,-1.279024,1.059925,-0.768992,1.3701729999999999
91,-0.851525,-1.259723,-2.7916380000000003,-0.230254,0.9520059999999999,-0.201652,-4.8074959999999995,6.906124,-1.423758,0.393783,0.429724,1.398582
92,-1.047485,-1.287914,3.126322,-0.241761,0.960255,-0.139488,-5.082408,7.595325,-2.2416150000000004,-0.191146,1.245052,1.0550760000000001
93,-1.231827,-1.295012,2.805262,-0.256796,0.9622120000000001,-0.090541,-3.268675,5.471965,-0.5533899999999999,-0.435892,1.6827009999999998,0.747386
94,-1.2583030000000002,-1.319939,2.652285,-0.23620100000000002,0.9687,-0.076311,-2.353909,6.236505999999999,0.598222,0.928767,1.053044,-0.6332220000000001
95,-1.386987,-1.331625,2.448744,-0.23289400000000002,0.971535,-0.043297,-2.338062,1.195215,-0.377971,1.057449,0.234017,-0.192802
96,-1.565201,-1.3202180000000001,2.2995349999999997,-0.247946,0.9687690000000001,-0.001387,-1.44466,-2.881196,-0.985007,1.1202299999999998,-0.001408,-0.211396
97,-1.7084169999999999,-1.296195,2.227015,-0.268586,0.962533,0.037198,-0.715342,-3.9881839999999995,-1.0425879999999998,0.7731180000000001,-0.306726,-0.287
98,-1.8103939999999998,-1.286135,2.205047,-0.27279699999999996,0.959757,0.06664199999999999,-0.314645,-3.9068949999999996,-0.141519,0.311173,-0.260416,-0.136817
99,-1.911155,-1.285644,2.175754,-0.265154,0.959619,0.093902,-0.489982,-3.401685,0.209123,0.120974,-0.27958,0.028564999999999997
100,-2.0097389999999997,-1.284844,2.126344,-0.255319,0.959393,0.11987,-0.754211,-1.905086,0.200018,-0.028891000000000003,-0.193433,0.21579299999999998
101,-2.078214,-1.278979,2.06332,-0.251434,0.957722,0.139791,-1.076864,0.5930949999999999,0.18601700000000002,-0.118546,-0.088353,0.456035
102,-2.141781,-1.267974,1.955828,-0.250899,0.954499,0.161167,-2.025543,2.413995,0.38963400000000004,-0.18629600000000002,-0.08480900000000001,0.072384
103,-2.272752,-1.2402090000000001,1.786093,-0.24784699999999998,0.945852,0.209589,-3.4615480000000005,0.611928,0.473779,-0.4227,-0.024954,-0.579233
104,-2.375563,-1.2098440000000001,1.681289,-0.24483400000000002,0.9355610000000001,0.254506,-1.2585540000000002,-0.11625999999999999,-0.218131,-0.389428,-0.008513,-0.366582
105,-2.359134,-1.1944540000000001,1.6837939999999998,-0.259103,0.9300149999999999,0.260631,-0.427467,1.069458,-0.688136,-0.072181,0.009392,0.021031
106,-2.341284,-1.172995,1.6812150000000001,-0.277973,0.9219149999999999,0.269805,-1.002475,0.821207,-0.71213,0.115131,0.08631,-0.05506799999999999
107,-2.354048,-1.14665,1.6623869999999998,-0.291621,0.911391,0.290371,-1.251562,-0.202798,-0.675163,0.24830100000000002,0.160021,-0.160885
108,-2.3910009999999997,-1.118087,1.6429310000000001,-0.298333,0.899265,0.319859,-1.353708,-1.369818,-0.71711,0.361718,0.149288,-0.373448
109,-2.4294599999999997,-1.091556,1.6303040000000002,-0.301302,0.887346,0.349034,-0.951542,-1.052007,-0.622841,0.357195,0.150038,-0.469792
110,-2.4307939999999997,-1.0748090000000001,1.631858,-0.310489,0.879499,0.360649,-0.484833,0.335108,-0.5262859999999999,0.30582,0.18066600000000002,-0.353767
111,-2.4186259999999997,-1.062714,1.633661,-0.321869,0.8736790000000001,0.364794,-0.37136199999999997,0.535583,-0.409315,0.21994,0.28485900000000003,-0.393297
112,-2.395506,-1.055343,1.6465189999999998,-0.334579,0.8700690000000001,0.361976,0.185595,0.6566529999999999,-0.532698,0.425994,0.5423,-0.352225
113,-2.353786,-1.059092,1.680359,-0.34707,0.8719110000000001,0.345402,1.0376940000000001,0.500711,-0.369517,0.5417569999999999,0.63494,-0.25763400000000003
114,-2.3102709999999997,-1.078244,1.7302389999999999,-0.349364,0.881129,0.318664,1.8148849999999999,-0.409111,0.040865,0.718291,0.896352,-0.074142
115,-2.28052,-1.114986,1.794821,-0.333894,0.897905,0.28683000000000003,2.531605,-1.9280580000000003,0.716525,0.005111999999999999,0.722426,-0.332714
116,-2.2322740000000003,-1.168505,1.876983,-0.308938,0.920166,0.24050100000000002,3.537629,-0.582547,0.8927430000000001,-0.651846,0.525055,-0.822364
117,-2.068299,-1.2255049999999998,2.046189,-0.297428,0.9409770000000001,0.161523,4.187958,0.534538,0.692892,-0.406597,0.381701,-0.05082
118,-1.8746990000000001,-1.2725389999999999,2.237885,-0.28037399999999996,0.95585,0.08793,3.3921099999999997,0.794219,1.177314,-0.091071,0.261954,0.948889
119,-1.6664290000000002,-1.313313,2.427195,-0.253467,0.9670340000000001,0.024314,2.725572,1.5011709999999998,1.586223,-0.091152,0.338127,0.812249
120,-1.427141,-1.3409659999999999,2.64082,-0.22544899999999998,0.9737049999999999,-0.032612,2.4459049999999998,1.6089579999999999,1.247641,-0.328857,0.428303,0.45613400000000004
121,-1.206689,-1.348428,2.84375,-0.206066,0.9753780000000001,-0.078532,1.802979,0.564671,0.8193360000000001,-0.44405,0.29441300000000004,-0.019459999999999998
122,-1.094608,-1.356757,2.977214,-0.18876199999999999,0.977181,-0.097359,0.8475209999999999,-1.633032,1.124195,-0.07246799999999999,0.188743,-0.050392
123,-0.913726,-1.360573,-3.0974,-0.165215,0.977984,-0.12745,2.462399,-0.153177,1.275652,0.118279,0.232343,0.1905
124,-0.666557,-1.3371,-2.867573,-0.14317,0.972817,-0.181996,2.634189,1.08049,0.8415729999999999,-0.130405,-0.151543,0.420414
125,-0.521576,-1.311691,-2.692228,-0.127653,0.96662,-0.222137,1.9849080000000001,-2.3377950000000003,1.357369,0.11776500000000001,-0.23398400000000003,0.8743129999999999
126,-0.38345999999999997,-1.288923,-2.5109529999999998,-0.10406300000000002,0.9605360000000001,-0.257945,2.097505,-1.126335,1.7315490000000002,0.21124099999999998,-0.25027,0.6783859999999999
127,-0.250266,-1.262154,-2.357645,-0.07522899999999999,0.9527469999999999,-0.29429299999999997,1.912837,-0.717511,1.6859380000000002,0.073443,-0.29135500000000003,0.499783
128,-0.15423499999999998,-1.231195,-2.22972,-0.051173,0.942888,-0.32914899999999997,1.932396,-1.583666,1.690389,-0.017278,-0.324205,0.604463
129,-0.094474,-1.196605,-2.122516,-0.034480000000000004,0.9308040000000001,-0.36388200000000004,1.959545,-2.296002,1.583601,-0.108373,-0.39699,0.628897
130,-0.069871,-1.1614389999999999,-2.039045,-0.027787,0.917377,-0.397042,1.7289189999999999,-2.749361,1.405246,-0.256225,-0.47175900000000004,0.556619
131,-0.066896,-1.137066,-1.9703419999999998,-0.028092000000000002,0.9074040000000001,-0.41931199999999996,1.021606,-3.125543,1.254441,-0.35971,-0.534754,0.591477
132,-0.08755800000000001,-1.127617,-1.9191740000000002,-0.037498000000000004,0.903393,-0.427166,0.280391,-3.413441,0.900324,-0.35769,-0.6229060000000001,0.661327
133,-0.12857000000000002,-1.132124,-1.8919669999999997,-0.054457000000000005,0.905317,-0.42122600000000004,-0.431224,-3.191669,0.40368699999999996,-0.320833,-0.69058,0.6344069999999999
134,-0.191641,-1.150335,-1.8978669999999997,-0.07774500000000001,0.9129010000000001,-0.400704,-1.260237,-2.6132459999999997,-0.203185,-0.180266,-0.813886,0.517281
135,-0.275269,-1.185163,-1.9486459999999999,-0.102237,0.92656,-0.361979,-2.3050900000000003,-1.325944,-0.740903,-0.122357,-0.541642,0.1878
136,-0.369165,-1.2278120000000001,-2.04009,-0.12134600000000001,0.9417549999999999,-0.313635,-2.515707,0.120841,-0.8595959999999999,-0.138923,-0.26103000000000004,-0.062769
137,-0.432014,-1.25488,-2.12489,-0.130082,0.9505120000000001,-0.28213499999999997,-1.16655,1.1540350000000001,-0.666694,-0.297607,1.37801,-1.497375
138,-0.45660100000000003,-1.259257,-2.1543509999999997,-0.135143,0.9518629999999999,-0.275115,-0.073975,-0.524983,0.019274,0.089992,1.1715200000000001,-1.2373969999999999
139,-0.448329,-1.264738,-2.1196599999999997,-0.130599,0.9535290000000001,-0.271518,-0.096926,-1.5018120000000001,0.8300780000000001,0.638915,0.384255,-0.706784
140,-0.458124,-1.277279,-2.091444,-0.12795299999999998,0.957232,-0.259479,-0.56162,-1.9834880000000001,0.47707200000000005,-0.269905,0.201337,0.088977
141,-0.514509,-1.292039,-2.127049,-0.135405,0.961398,-0.23953000000000002,-1.042524,-0.063536,-0.517921,-0.483889,0.539975,0.335965
142,-0.583254,-1.300706,-2.23061,-0.14694300000000002,0.9637469999999999,-0.22269899999999998,-1.0893389999999998,1.873044,-0.986474,-0.802901,1.2090889999999999,0.299374
143,-0.549381,-1.2998809999999998,-2.2377849999999997,-0.139732,0.963526,-0.228226,0.7493310000000001,2.3258229999999998,0.338634,0.15851600000000002,1.253362,-0.585953
144,-0.455147,-1.283839,-2.197692,-0.12441700000000001,0.959109,-0.254214,0.9756799999999999,2.734408,-0.003208,-0.255344,-0.919208,1.3076809999999999
145,-0.42219700000000004,-1.281649,-2.182391,-0.116835,0.9584870000000001,-0.26009,-0.418029,-0.197569,0.22368600000000002,-0.5381020000000001,-1.08924,0.8668870000000001
146,-0.472208,-1.305814,-2.22003,-0.119118,0.965097,-0.233224,-1.7361540000000002,-0.453507,-0.16334300000000002,-0.158393,-0.679117,1.0720610000000002
147,-0.604352,-1.33504,-2.379182,-0.13272,0.9723379999999999,-0.192196,-2.534161,2.076975,-1.447617,-0.149796,-0.555742,0.97308
148,-0.8337700000000001,-1.348808,-2.671752,-0.16302,0.975462,-0.147965,-2.692684,2.802994,-2.2497529999999997,-0.167302,-0.442838,0.797257
149,-1.070821,-1.3452620000000002,-2.94235,-0.196243,0.974675,-0.10720199999999999,-2.014813,0.143754,-1.4286940000000001,-0.361252,0.553524,0.680063
150,-1.228673,-1.345159,-3.077429,-0.210749,0.9746520000000001,-0.075054,-0.957575,-1.871268,-0.33555,-0.14829,0.591037,0.666713
151,-1.314324,-1.338861,-3.1223959999999997,-0.22233000000000003,0.973223,-0.058304999999999996,-0.160778,-2.118216,-0.542244,0.269892,0.5929840000000001,0.506365
152,-1.3922809999999999,-1.332057,3.125656,-0.232708,0.9716370000000001,-0.041989,-0.720386,-2.263081,-0.326981,0.5993310000000001,0.267041,-0.050311
153,-1.637569,-1.325285,2.914013,-0.242497,0.9700129999999999,0.016216,-3.420193,-1.782402,-0.44366400000000006,0.688878,0.00072,-0.453884
154,-1.927252,-1.316508,2.649637,-0.23573000000000002,0.967843,0.087777,-2.823337,-1.527922,0.6657890000000001,0.352688,-0.225289,0.012138
155,-2.095795,-1.318546,2.493983,-0.21595599999999998,0.968353,0.125086,-1.1398270000000001,-0.495408,1.0052370000000002,0.138273,-0.255417,0.201041
156,-2.1918889999999998,-1.325437,2.378794,-0.197526,0.97005,0.141342,-1.1775959999999999,1.848068,1.070337,0.091127,-0.24843099999999999,0.358933
157,-2.278731,-1.3208280000000001,2.225124,-0.187917,0.9689200000000001,0.160847,-1.8593810000000002,3.577901,0.906329,-0.084132,-0.08845800000000001,0.267376
158,-2.3562990000000004,-1.299682,2.0623419999999997,-0.18933599999999998,0.9634729999999999,0.189376,-2.459391,3.995174,0.46149300000000004,-0.164271,-0.035495,0.17565999999999998
159,-2.45211,-1.262617,1.9300549999999999,-0.192947,0.952888,0.234026,-2.7271330000000003,-0.598268,-0.111331,-0.472764,0.100976,-0.910967
160,-2.539362,-1.227909,1.90707,-0.190448,0.941788,0.277049,-0.7517550000000001,-3.7483470000000003,-1.0089620000000001,-0.24181799999999998,-0.100235,-0.023646
161,-2.543666,-1.211978,1.9452630000000002,-0.197675,0.936312,0.290231,-0.325212,-0.709537,-1.006672,-0.063662,0.006147,0.24253000000000002
162,-2.514006,-1.190749,1.963671,-0.21781999999999999,0.9286469999999999,0.300266,-0.808829,0.930457,-0.721596,0.178315,0.10974400000000001,0.060666
163,-2.506942,-1.1701540000000001,1.9605099999999998,-0.23122800000000002,0.920811,0.31405700000000003,-0.9211739999999999,0.111901,-0.518369,0.379239,0.165142,-0.38852
164,-2.532691,-1.145184,1.9496799999999999,-0.236146,0.9107860000000001,0.338665,-1.281556,-1.322591,-0.581005,0.45443900000000004,0.174648,-0.547726
165,-2.566075,-1.122657,1.9407759999999998,-0.235819,0.9012549999999999,0.363481,-0.704252,-0.82805,-0.345802,0.438379,0.341848,-0.543122
166,-2.559689,-1.114678,1.941886,-0.242081,0.897769,0.367964,-0.23664699999999997,0.800709,-0.20682199999999998,0.115845,0.309247,-0.22320399999999999
167,-2.5364709999999997,-1.108859,1.945866,-0.253525,0.895191,0.366535,-0.11209000000000001,0.9070889999999999,-0.27766,0.17460699999999998,0.356198,-0.33208000000000004
168,-2.511089,-1.107329,1.962875,-0.26355300000000004,0.894508,0.361088,0.34126,0.287098,-0.404022,0.285953,0.386361,-0.586537
169,-2.477934,-1.1136139999999999,1.994695,-0.27191,0.8973,0.34771799999999997,0.8967209999999999,0.289067,-0.31255,0.44297600000000004,0.5260859999999999,-0.646042
170,-2.4312709999999997,-1.133068,2.039119,-0.27639600000000003,0.905717,0.321358,1.672002,0.275564,-0.005879,0.539305,0.601363,-0.5063409999999999
171,-2.3687720000000003,-1.169961,2.108289,-0.272404,0.9207350000000001,0.279344,2.7125529999999998,-0.252512,0.34817,0.442371,0.681605,-0.5445720000000001
172,-2.276662,-1.223175,2.220736,-0.25925,0.9401860000000001,0.220975,3.720387,-0.79395,0.6090720000000001,0.284091,0.44898999999999994,-0.45988199999999996
173,-2.0965599999999998,-1.28406,2.427726,-0.24461,0.9591719999999999,0.141933,4.633127,-0.899436,0.623061,-0.037967,0.370174,-0.247829
174,-1.841689,-1.334976,2.718261,-0.225102,0.9723229999999999,0.062515,4.224031,-1.508083,1.070704,-0.069286,0.5016609999999999,0.6204069999999999
175,-1.517304,-1.369826,3.0726970000000002,-0.19931400000000002,0.979873,-0.010672,3.87,-0.672966,1.391901,-0.13660799999999998,0.5728300000000001,0.9760190000000001
176,-1.140197,-1.37406,-2.835937,-0.177608,0.9807100000000001,-0.081584,3.27791,1.224995,0.664283,-0.56548,0.887057,0.8658549999999999
177,-0.8782979999999999,-1.341486,-2.612126,-0.17493399999999998,0.973823,-0.14511500000000002,2.583212,2.463311,-0.446698,-0.735482,0.43947600000000003,0.407567
178,-0.763845,-1.315732,-2.521966,-0.174512,0.9676469999999999,-0.182202,0.8785059999999999,0.067638,0.198217,-0.7774989999999999,0.059147000000000005,-0.39119299999999996
179,-0.6942560000000001,-1.317828,-2.42417,-0.16012300000000002,0.968174,-0.19233599999999998,1.557174,-0.959615,1.288519,-0.589068,0.050793,0.033568
180,-0.504836,-1.287448,-2.2420619999999998,-0.135213,0.960125,-0.24468600000000001,2.871654,1.2840129999999998,0.9091969999999999,-0.422724,-0.001583,0.44243999999999994
181,-0.373963,-1.2473610000000002,-2.128189,-0.1161,0.948149,-0.29585,2.242117,0.46524499999999996,0.81505,0.31065,-0.191405,0.693998
182,-0.265326,-1.21643,-2.006105,-0.090988,0.937867,-0.334845,2.1863900000000003,-0.423141,1.6479439999999999,0.5093840000000001,-0.028763,0.75936
183,-0.17735399999999998,-1.180061,-1.9058529999999998,-0.067194,0.924629,-0.37488699999999997,2.109125,-0.42773599999999995,1.266055,0.31256999999999996,-0.168724,0.5050140000000001
184,-0.138253,-1.137401,-1.829264,-0.057874,0.907545,-0.415941,2.456445,-2.1220830000000004,1.105078,0.127317,-0.208021,0.643877
185,-0.128823,-1.094004,-1.770204,-0.058957,0.8884709999999999,-0.455124,2.204293,-2.113155,0.9558909999999999,-0.15959500000000001,-0.50189,0.71904
186,-0.128546,-1.0600969999999998,-1.722993,-0.062658,0.872403,-0.48475,1.563305,-2.147875,0.870273,-0.254801,-0.56442,0.7542810000000001
187,-0.143493,-1.040997,-1.6849060000000002,-0.072266,0.862909,-0.500162,0.757746,-2.4834810000000003,0.780687,-0.314239,-0.625085,0.80311
188,-0.16634000000000002,-1.038252,-1.655836,-0.084066,0.861518,-0.5007149999999999,-0.043149,-2.29377,0.653072,-0.176463,-0.74639,0.812559
189,-0.19616,-1.050176,-1.6414959999999998,-0.096948,0.867511,-0.487874,-0.8296319999999999,-1.937156,0.33306399999999997,-0.111929,-0.788882,0.799779
190,-0.233302,-1.0777139999999998,-1.64937,-0.109431,0.880878,-0.46051400000000003,-1.737264,-1.2721149999999999,-0.022368,-0.102299,-0.792713,0.7060890000000001
191,-0.287527,-1.12173,-1.6845240000000001,-0.123108,0.900853,-0.416296,-2.679611,-1.137749,-0.305792,0.077499,-0.22351500000000002,-0.18786
192,-0.374749,-1.1745299999999999,-1.750849,-0.14128,0.922508,-0.359183,-2.960337,-1.586651,-0.48984399999999995,0.012801,0.243721,-0.876383
193,-0.44653699999999996,-1.205747,-1.808977,-0.15416300000000002,0.934106,-0.321983,-0.7075640000000001,0.308822,-0.13257,-0.09615800000000001,0.9892799999999999,-1.2845229999999999
194,-0.43010299999999996,-1.204408,-1.7779909999999999,-0.149372,0.9336270000000001,-0.32561,0.48361400000000004,-1.67655,0.622846,-0.20629499999999998,0.408871,-0.57263
195,-0.415299,-1.202669,-1.7285130000000002,-0.14519,0.933003,-0.32927,0.437808,-1.235059,0.812103,-0.09808,-0.075886,-0.41088800000000003
196,-0.40011599999999997,-1.206016,-1.69278,-0.138957,0.9342020000000001,-0.328559,-0.27129899999999996,-0.725431,0.521282,-0.25327,-0.576338,-0.130823
197,-0.425203,-1.224695,-1.7163099999999998,-0.139931,0.940702,-0.309017,-1.417284,0.272768,-0.357535,-0.658927,-0.17172,0.43392600000000003
198,-0.49845200000000006,-1.249595,-1.8112759999999999,-0.150924,0.948857,-0.277283,-1.9807860000000002,0.990084,-1.030029,-0.826722,0.113353,0.550812
199,-0.59985,-1.277975,-1.9327919999999998,-0.162944,0.957433,-0.23825100000000002,-2.121918,0.848347,-0.628113,0.038310000000000004,0.969248,0.125474
200,-0.610993,-1.2855020000000001,-1.989091,-0.161449,0.9595790000000001,-0.23051100000000002,-0.09184099999999999,2.188038,-0.41696000000000005,0.112453,0.9825450000000001,-0.55405
201,-0.637487,-1.288625,-2.041528,-0.165714,0.9604530000000001,-0.223743,-0.926085,0.94804,-0.488497,-0.21792199999999998,-0.241108,0.8770180000000001
202,-0.694932,-1.3054700000000001,-2.12302,-0.167902,0.965007,-0.201402,-1.531933,1.2059739999999999,-0.264459,-0.155417,-0.59109,0.759706
203,-0.773466,-1.329697,-2.238155,-0.166798,0.971076,-0.170827,-2.120821,1.8750950000000002,-0.31856799999999996,-0.10328299999999999,-0.545371,0.678898
204,-0.9449709999999999,-1.355467,-2.441169,-0.173158,0.9769059999999999,-0.125148,-2.774873,0.666092,-0.5715520000000001,-0.059401,-0.289894,0.573238
205,-1.197236,-1.3762780000000001,-2.692152,-0.17994200000000002,0.981141,-0.070531,-2.602814,-0.775279,-0.175397,-0.025167,0.046310000000000004,0.659184
206,-1.4331530000000001,-1.383125,-2.9128119999999997,-0.184783,0.982441,-0.025596,-1.728202,-0.9111530000000001,-0.25457199999999996,0.089675,0.401744,0.7176279999999999
207,-1.5420399999999999,-1.3802780000000001,-3.0135490000000003,-0.18926700000000002,0.981906,-0.005444,-0.473055,-0.211851,-0.131333,0.209073,0.435895,0.46488599999999997
208,-1.557828,-1.384568,-3.03094,-0.185114,0.9827100000000001,-0.0024010000000000004,-0.17416800000000002,0.147042,0.434316,0.35882,0.179842,0.037084
209,-1.675992,-1.395782,3.125123,-0.17313299999999998,0.9847239999999999,0.01828,-2.124822,0.623351,0.511951,0.552512,-0.002455,-0.434433
210,-2.011229,-1.384755,2.773253,-0.167294,0.9827440000000001,0.078848,-3.3345599999999997,0.340231,0.43443000000000004,0.246961,-0.121004,-0.135198
211,-2.274851,-1.371291,2.502396,-0.151042,0.980165,0.128271,-1.919382,0.058200999999999996,1.004424,0.182292,-0.193864,0.08745700000000001
212,-2.414974,-1.368655,2.345654,-0.133363,0.9796389999999999,0.15004,-0.9676290000000001,1.228961,0.973253,0.025056000000000002,-0.17164000000000001,0.236587
213,-2.499775,-1.3608959999999999,2.2025580000000002,-0.124722,0.978052,0.16688,-1.4754559999999999,3.679393,0.8063319999999999,-0.056614,-0.006097,0.168081
214,-2.555977,-1.340866,2.0617520000000003,-0.12595499999999998,0.9736819999999999,0.189913,-1.8066900000000001,4.095685,0.618683,-0.124899,0.0021780000000000002,0.06841799999999999
215,-2.598561,-1.312624,1.94528,-0.131918,0.966858,0.21856799999999998,-2.0175970000000003,2.906708,0.301471,-0.200006,0.043442,-0.27632199999999996
216,-2.659192,-1.27588,1.860514,-0.13483,0.9568260000000001,0.257474,-2.198457,-0.164627,-0.037688,-0.187588,0.031180000000000003,-0.483533
217,-2.70853,-1.244499,1.8335650000000001,-0.134507,0.9472360000000001,0.290932,-1.067412,-1.281093,-0.4706,-0.006697,0.006591,-0.262887
218,-2.702389,-1.228856,1.848569,-0.142575,0.942106,0.303476,-0.575962,0.199377,-0.564136,0.020093,0.0134,-0.045313
219,-2.680259,-1.209071,1.853566,-0.157523,0.9352879999999999,0.316878,-0.9863379999999999,1.1058459999999999,-0.454933,0.128639,-0.020386,-0.126616
220,-2.66587,-1.187381,1.850568,-0.171319,0.927392,0.332538,-0.958944,0.534841,-0.47430600000000006,0.210977,0.156073,-0.348529
221,-2.669412,-1.1650909999999999,1.851535,-0.179499,0.918824,0.351468,-1.036409,-0.596063,-0.511854,0.263377,0.074401,-0.466718
222,-2.6821490000000003,-1.1439110000000001,1.848097,-0.183598,0.9102600000000001,0.37108800000000003,-0.830268,-0.160608,-0.363558,0.297367,0.201373,-0.456506
223,-2.665258,-1.133092,1.853293,-0.19434400000000002,0.9057270000000001,0.376664,-0.23536999999999997,0.965309,-0.326662,0.249795,0.218327,-0.25229
224,-2.639593,-1.127001,1.8603319999999999,-0.20659699999999998,0.9031290000000001,0.376382,-0.235238,0.8265440000000001,-0.25704899999999997,0.157921,0.293862,-0.361153
225,-2.623129,-1.121802,1.870434,-0.21508899999999997,0.900884,0.37700300000000003,0.041548,0.103778,-0.369557,0.116273,0.41141700000000003,-0.582767
226,-2.601807,-1.125209,1.896006,-0.22149899999999997,0.902358,0.369697,0.6411899999999999,-0.127328,-0.37148200000000003,0.115451,0.429414,-0.727561
227,-2.5669619999999997,-1.138792,1.9338220000000002,-0.227561,0.908128,0.351434,1.273947,0.20042000000000001,-0.298047,0.344764,0.550276,-0.612008
228,-2.493404,-1.16887,2.000163,-0.23617,0.920309,0.311837,2.491787,0.8967,-0.185747,0.37397199999999997,0.5931489999999999,-0.677804
229,-2.376522,-1.2172399999999999,2.109997,-0.239788,0.938147,0.24974000000000002,3.511649,0.530547,0.186109,0.35168,0.611749,-0.776397
230,-2.1970970000000003,-1.2756,2.293927,-0.23569400000000001,0.9567450000000001,0.170516,4.383508,-0.009894,0.315737,0.20487199999999997,0.548702,-0.173431
231,-1.964518,-1.327029,2.556619,-0.222874,0.9704360000000001,0.092584,4.181529,-1.61286,0.688122,0.242954,0.660195,0.497641
232,-1.641198,-1.365306,2.915657,-0.203519,0.9789610000000001,0.014352,4.362926,-0.961058,1.099819,0.353589,0.577695,1.0753700000000002
233,-1.2502870000000001,-1.377002,-2.961141,-0.182755,0.981281,-0.060666,3.472629,0.046755,0.7910699999999999,-0.520462,0.984952,0.946393
234,-0.990293,-1.34985,-2.7198029999999997,-0.18323699999999998,0.97569,-0.120183,2.548543,1.705691,-0.612608,-0.6218020000000001,0.745135,0.746632
235,-0.8651770000000001,-1.315601,-2.6151169999999997,-0.192143,0.967614,-0.163694,1.493018,0.23711500000000002,-0.340361,-0.700649,0.506217,0.40005300000000005
236,-0.8248260000000001,-1.314768,-2.5357540000000003,-0.185975,0.967404,-0.17185899999999998,1.11951,-2.186446,1.061642,-0.523543,-0.013027,0.08248899999999999
237,-0.654554,-1.288685,-2.355716,-0.169473,0.96047,-0.22083699999999998,2.928032,1.046073,0.708006,-0.36536199999999996,-0.155614,0.328365
238,-0.511257,-1.251214,-2.227075,-0.15370999999999999,0.949367,-0.273987,2.350764,0.429659,0.580849,-0.19033,-0.27468400000000004,0.507386
239,-0.42108,-1.221507,-2.12374,-0.139881,0.939616,-0.31232600000000005,2.0099080000000002,-0.22064,0.995908,0.226978,-0.28025300000000003,0.768534
240,-0.334869,-1.1874149999999999,-2.028211,-0.12293,0.9274049999999999,-0.353273,2.322303,-0.348167,0.914933,0.197774,-0.283698,0.673326
241,-0.28078400000000003,-1.1500219999999999,-1.944966,-0.11318800000000001,0.912773,-0.392464,2.162066,-1.443263,1.051949,0.21649000000000002,-0.262977,0.6159899999999999
242,-0.239398,-1.1197409999999999,-1.872328,-0.103362,0.8999879999999999,-0.42347700000000005,1.706839,-1.079691,1.1017139999999999,0.13365,-0.353143,0.6439050000000001
243,-0.20976599999999998,-1.0962120000000002,-1.810974,-0.095154,0.889483,-0.446946,1.272586,-1.408072,1.014712,-0.066925,-0.573824,0.72345
244,-0.203175,-1.0817,-1.767895,-0.094801,0.882758,-0.46015900000000004,0.684778,-1.707313,0.700137,-0.332689,-0.829901,0.833282
245,-0.218862,-1.0798,-1.7461419999999999,-0.102371,0.881863,-0.46025200000000005,-0.11274400000000001,-1.702075,0.348456,-0.294006,-0.8651399999999999,0.872819
246,-0.255225,-1.091676,-1.7506509999999997,-0.11638299999999999,0.887401,-0.44606,-0.921227,-1.4564290000000002,-0.173457,-0.152232,-0.8917959999999999,0.855865
247,-0.31453000000000003,-1.119961,-1.79155,-0.134796,0.900084,-0.414336,-2.0928970000000002,-1.03178,-0.6564760000000001,-0.018966999999999998,-0.6483439999999999,0.364958
248,-0.420663,-1.1669100000000001,-1.882481,-0.16048199999999999,0.9195409999999999,-0.358725,-3.224666,-1.3809850000000001,-1.058108,0.012014,-0.397309,0.027045
249,-0.5866939999999999,-1.215584,-2.022939,-0.19253399999999998,0.937573,-0.289622,-3.1382950000000003,-1.624188,-1.05292,-0.49597299999999994,2.0670349999999997,-1.962164
250,-0.583913,-1.2212290000000001,-2.043452,-0.188807,0.9395209999999999,-0.285736,0.47957799999999995,1.2148370000000002,0.8530559999999999,0.313578,1.9431080000000003,-1.880799
251,-0.537676,-1.2279579999999999,-1.9589590000000001,-0.172157,0.9418040000000001,-0.28872,0.509551,-2.492484,1.399605,0.505073,0.011427,-0.21015100000000003
252,-0.500887,-1.229192,-1.880553,-0.160863,0.942218,-0.293837,0.5895640000000001,-1.432416,1.034542,-0.145793,-0.576343,0.048644
253,-0.489522,-1.230424,-1.850645,-0.156967,0.94263,-0.294622,-0.147492,-0.484166,0.037937,-0.695206,-0.061847000000000006,0.270604
254,-0.5518310000000001,-1.242702,-1.9210349999999998,-0.168927,0.946658,-0.274398,-1.7451240000000001,0.7092310000000001,-1.0451110000000001,-0.759555,0.234433,0.602965
255,-0.619871,-1.2634290000000001,-2.027666,-0.175753,0.953133,-0.24625100000000003,-1.482751,1.911098,-0.53314,-0.597913,1.6328799999999999,-0.41535500000000003
256,-0.6191220000000001,-1.2557690000000001,-2.0554509999999997,-0.179801,0.950788,-0.252322,0.952626,1.0591760000000001,-0.587676,-0.14901099999999998,0.18393199999999998,0.522311
257,-0.6264430000000001,-1.244405,-2.072219,-0.18796600000000002,0.947206,-0.259736,-0.309665,-0.047972,-0.47757,-0.052742,-0.89969,1.256867
258,-0.680664,-1.2604799999999998,-2.128071,-0.192157,0.9522370000000001,-0.237301,-1.620199,0.281955,-0.064131,-0.035244,-0.7694979999999999,1.003476
259,-0.756411,-1.290928,-2.2350119999999998,-0.18957000000000002,0.9610920000000001,-0.20089100000000001,-2.4527080000000003,1.8454720000000002,-0.330459,-0.049047,-0.492357,0.706216
260,-0.9054200000000001,-1.317086,-2.4255,-0.197441,0.967988,-0.154943,-2.7901540000000002,1.451647,-0.898474,-0.11126,-0.20398,0.687719
261,-1.083785,-1.331438,-2.6192860000000002,-0.209497,0.97149,-0.11094000000000001,-2.0501560000000003,-0.115409,-0.46614399999999995,-0.06803,0.080603,0.684106
262,-1.2279360000000001,-1.3412469999999999,-2.751949,-0.21427399999999996,0.973769,-0.076487,-1.353664,-0.994898,-0.11191199999999998,0.082102,0.28730900000000004,0.67428
263,-1.3266790000000002,-1.342142,-2.8354779999999997,-0.21992399999999998,0.973972,-0.054779999999999995,-0.684636,-0.672694,-0.28177199999999997,0.1902,0.36040900000000003,0.553376
264,-1.381969,-1.3424909999999999,-2.883596,-0.222281,0.974051,-0.042479,-0.5708270000000001,-0.386929,0.083989,0.319755,0.2306,0.189864
265,-1.500153,-1.35216,-2.99191,-0.216333,0.976194,-0.015308,-2.0205509999999998,-0.8089930000000001,0.32864,0.480311,0.04027,-0.508389
266,-1.855058,-1.3497299999999999,2.955403,-0.210445,0.975664,0.061487,-4.266858999999999,-1.547203,0.404694,0.26173,-0.065706,-0.34526999999999997
267,-2.182974,-1.329976,2.632269,-0.195166,0.971143,0.13703800000000002,-2.991622,0.148884,0.854741,0.17291800000000002,-0.134229,-0.045669
268,-2.300313,-1.32382,2.48244,-0.18223499999999998,0.969656,0.162927,-1.047175,1.966809,0.892699,0.162704,-0.247885,0.124991
269,-2.34801,-1.321715,2.372064,-0.175715,0.969139,0.172862,-1.2052040000000002,3.493263,0.784953,0.015009,-0.175057,0.018178
270,-2.394925,-1.31047,2.254013,-0.174806,0.966306,0.1889,-1.606982,3.1301740000000002,0.558285,-0.058546,-0.091215,-0.005306
271,-2.462173,-1.2839120000000002,2.139723,-0.177786,0.9591299999999999,0.220113,-2.2568099999999998,1.272002,0.139521,-0.167917,0.00817,-0.153249
272,-2.551326,-1.24455,2.0535330000000003,-0.178368,0.9472520000000001,0.266244,-2.2249209999999997,-1.112479,-0.321878,-0.004417,-0.024248,-0.17363800000000001
273,-2.596423,-1.213818,2.0325,-0.1812,0.9369569999999999,0.298774,-1.048777,-1.0547469999999999,-0.5936100000000001,-0.001585,-0.013953,-0.206168
274,-2.598001,-1.193905,2.0375650000000003,-0.190343,0.9298129999999999,0.314969,-0.795059,0.094836,-0.584765,0.076848,0.173245,-0.174344
275,-2.592737,-1.172509,2.037789,-0.20233299999999999,0.921726,0.330862,-0.986821,0.20291099999999998,-0.539241,0.25097800000000003,0.171215,-0.4802
276,-2.6012009999999997,-1.147551,2.0305020000000003,-0.21129699999999998,0.911761,0.35218499999999997,-1.222808,-0.278991,-0.501816,0.299722,0.211652,-0.560772
277,-2.615491,-1.124383,2.020165,-0.21679400000000001,0.902001,0.373337,-0.917436,-0.048537000000000004,-0.322654,0.312848,0.253715,-0.564042
278,-2.607253,-1.114072,2.019135,-0.224588,0.897502,0.379524,-0.238289,0.669849,-0.20987199999999998,0.155358,0.286306,-0.255073
279,-2.593251,-1.1095540000000002,2.022259,-0.23199099999999998,0.8955,0.379798,-0.136218,0.376454,-0.187418,0.10683800000000002,0.360649,-0.281913
280,-2.5801979999999998,-1.108018,2.037378,-0.23765999999999998,0.894816,0.37790100000000004,0.314641,-0.185601,-0.414285,0.090107,0.416433,-0.44070600000000004
281,-2.553297,-1.112652,2.0689290000000002,-0.245435,0.896875,0.367919,0.703408,0.098724,-0.45893500000000004,0.13250399999999998,0.457007,-0.548506
282,-2.509996,-1.125369,2.1080799999999997,-0.254375,0.9024270000000001,0.347715,1.278391,0.532629,-0.24289899999999998,0.371761,0.619958,-0.407072
283,-2.447955,-1.155289,2.167704,-0.258062,0.9149120000000001,0.310368,2.3702259999999997,0.230325,0.083445,0.502965,0.767614,-0.435292
284,-2.3733310000000003,-1.204544,2.256573,-0.24884,0.9336760000000001,0.25751799999999997,3.291704,-0.820773,0.5334720000000001,0.453445,0.8509610000000001,-0.597453
285,-2.252408,-1.266868,2.409958,-0.232386,0.954168,0.18854200000000002,4.312798,-1.221905,0.59453,0.131449,0.455545,-0.556096
286,-2.056033,-1.3262909999999999,2.639708,-0.214114,0.9702569999999999,0.112899,4.046802,-1.2625549999999999,0.867257,-0.067731,0.40915300000000004,0.255006
287,-1.7771810000000001,-1.370104,2.936298,-0.19509400000000002,0.979929,0.040846,3.67464,0.046573,0.947369,0.037166000000000005,0.42409300000000005,0.998674
288,-1.425663,-1.386658,-3.0040560000000003,-0.18115,0.983094,-0.026476999999999997,3.024159,1.028832,0.427752,-0.24321199999999998,0.5401600000000001,0.844943
289,-1.135122,-1.367883,-2.733062,-0.18268,0.979484,-0.085039,2.660742,1.235842,-0.408265,-0.424712,0.279549,0.619554
290,-0.947348,-1.3337430000000001,-2.561399,-0.190645,0.9720340000000001,-0.137098,2.253489,0.725276,-0.513004,-0.5455,0.24157399999999998,0.31411500000000003
291,-0.873603,-1.3162,-2.464485,-0.193072,0.967765,-0.161698,1.067077,-2.256565,0.547547,-0.518415,0.105553,-0.28685
292,-0.748317,-1.30261,-2.302769,-0.180287,0.964253,-0.194179,2.593938,-0.49263999999999997,0.864668,-0.12923800000000002,-0.026555000000000002,0.31093899999999997
293,-0.6034970000000001,-1.2682790000000002,-2.160384,-0.169072,0.9545899999999999,-0.245288,2.436084,0.475991,0.395511,-0.013880000000000002,-0.125244,0.506976
294,-0.49897700000000006,-1.236207,-2.048509,-0.157135,0.9445450000000001,-0.28833400000000003,2.291112,-0.500985,0.81663,0.160125,-0.227352,0.796543
295,-0.41757700000000003,-1.198104,-1.947014,-0.14766600000000002,0.93135,-0.332829,2.578719,-0.740053,0.679008,0.171271,-0.43142700000000006,0.6888770000000001
296,-0.353589,-1.159459,-1.8604080000000003,-0.13844700000000001,0.916587,-0.375093,2.238846,-0.8857200000000001,0.904352,0.19531700000000002,-0.426887,0.647828
297,-0.298757,-1.130717,-1.7839450000000001,-0.125387,0.904718,-0.407134,1.632477,-0.550904,1.083421,0.162054,-0.36054400000000003,0.6025229999999999
298,-0.258205,-1.1089149999999999,-1.7220509999999998,-0.11378900000000002,0.895216,-0.43085500000000004,1.329925,-1.109449,0.8982899999999999,-0.008876,-0.44965900000000003,0.671013
299,-0.253438,-1.091597,-1.680621,-0.115604,0.887365,-0.44633500000000004,0.8676459999999999,-1.7371919999999998,0.57433,-0.184353,-0.742467,0.8374940000000001
300,-0.267726,-1.085122,-1.657643,-0.12348699999999999,0.88436,-0.450169,0.20058099999999998,-1.775534,0.35180300000000003,-0.250064,-0.8736790000000001,0.831837
301,-0.303758,-1.091623,-1.657548,-0.137901,0.8873770000000001,-0.439933,-0.6402220000000001,-1.750636,-0.08352799999999999,-0.139931,-0.880785,0.7041229999999999
302,-0.36273299999999997,-1.114351,-1.689588,-0.156393,0.897625,-0.412074,-1.7734880000000002,-1.4257469999999999,-0.427281,-0.06879600000000001,-0.64436,0.39857
303,-0.460741,-1.153779,-1.7631990000000002,-0.18008,0.914301,-0.362793,-2.707853,-1.7289279999999998,-0.7880689999999999,-0.097843,0.0012259999999999999,-0.387192
304,-0.609063,-1.188628,-1.8743919999999998,-0.21335,0.927858,-0.305867,-2.21157,-2.364753,-0.987818,-0.546309,1.7218759999999997,-1.794627
305,-0.5919800000000001,-1.1843549999999998,-1.8633369999999998,-0.210304,0.926256,-0.312754,0.8780819999999999,0.657438,1.124674,-0.08943999999999999,2.659605,-2.448828
306,-0.53993,-1.194482,-1.7742069999999999,-0.188916,0.930026,-0.315209,0.4365,-2.180771,1.5856299999999999,0.5646939999999999,0.030149000000000002,-0.23513
307,-0.5095689999999999,-1.192858,-1.704753,-0.17999600000000002,0.929427,-0.322117,0.759324,-1.37881,0.82201,-0.026699,-0.528701,-0.020184
308,-0.49961000000000005,-1.189756,-1.6744970000000001,-0.17815999999999999,0.928278,-0.326422,0.053328,-0.608592,0.097178,-0.467409,-0.255717,0.12526600000000002
309,-0.554321,-1.203316,-1.7314319999999999,-0.1891,0.933235,-0.30546,-1.8266630000000001,0.305165,-0.873183,-0.634738,0.387489,0.49431800000000004
310,-0.63507,-1.227201,-1.837416,-0.19983900000000002,0.94155,-0.271185,-1.8162040000000002,1.120526,-0.722467,-0.534918,1.340433,0.026189999999999998
311,-0.6449,-1.222251,-1.872011,-0.205294,0.9398709999999999,-0.272929,0.891907,1.17844,-0.48890600000000006,-0.15748399999999999,0.476526,0.23917600000000003
312,-0.635653,-1.2122709999999999,-1.878095,-0.20831999999999998,0.936415,-0.28235,-0.35684299999999997,0.23848200000000003,-0.375715,-0.37149899999999997,-0.538695,0.9880530000000001
313,-0.7025859999999999,-1.230018,-1.93944,-0.215964,0.9424950000000001,-0.25506,-1.8700919999999999,-0.417299,-0.23696199999999998,-0.263193,-0.669927,0.9106989999999999
314,-0.793006,-1.261349,-2.055951,-0.216959,0.9525020000000001,-0.21368299999999998,-2.684454,1.996762,-0.36645300000000003,-0.007483,-0.60419,0.9038219999999999
315,-0.919125,-1.289053,-2.245055,-0.22104200000000002,0.960572,-0.16862,-3.063206,2.763462,-1.0281049999999998,-0.060086,-0.23874,0.630916
316,-1.074805,-1.301094,-2.431325,-0.234321,0.96385,-0.12679300000000002,-1.944584,-0.009772,-0.586245,0.037041000000000004,0.05562,0.7393270000000001
317,-1.205732,-1.3104280000000001,-2.544219,-0.24045300000000003,0.9662950000000001,-0.0919,-1.375805,-1.39431,-0.094457,0.200398,0.301939,0.752087
318,-1.309384,-1.313576,-2.626417,-0.245731,0.967101,-0.065741,-0.800527,-1.0111809999999999,-0.234071,0.27267800000000003,0.452867,0.6852020000000001
319,-1.367314,-1.3119610000000002,-2.672788,-0.250653,0.9666889999999999,-0.05171900000000001,-0.505314,-0.501301,-0.126908,0.409055,0.37735100000000005,0.177482
320,-1.4726780000000002,-1.315699,-2.7751810000000003,-0.251104,0.9676389999999999,-0.024717,-2.268571,-0.101379,-0.041461000000000005,0.498266,0.107297,-0.575701
321,-1.7159650000000002,-1.318395,-3.023289,-0.247079,0.9683149999999999,0.036122,-3.143333,-0.327113,0.423804,0.325906,-0.061988999999999995,-0.39972399999999997
322,-1.919193,-1.319136,3.0600650000000003,-0.234029,0.9685,0.085002,-1.977988,-0.40281999999999996,0.7631899999999999,0.18973199999999998,-0.133829,-0.20882699999999998
323,-2.063847,-1.32229,2.911459,-0.216637,0.969281,0.11640199999999999,-1.479745,0.218046,0.9111530000000001,0.147195,-0.104047,0.009834
324,-2.176212,-1.321357,2.775199,-0.202961,0.969051,0.14047300000000001,-1.488873,1.640652,0.803512,0.09175499999999999,-0.170025,0.266281
325,-2.259514,-1.3165149999999999,2.636902,-0.194191,0.967844,0.159855,-1.5583,2.893323,0.8868799999999999,0.062675,-0.228663,0.174679
326,-2.339328,-1.3024120000000001,2.490736,-0.19062300000000001,0.9642,0.184299,-2.118964,2.924272,0.560321,-0.15566,-0.15704100000000001,-0.063648
327,-2.428197,-1.270519,2.3724369999999997,-0.193547,0.955254,0.223637,-2.1929369999999997,-0.076389,-0.22897199999999998,-0.414821,-0.108117,-0.605595
328,-2.477601,-1.240704,2.351666,-0.199736,0.9460120000000001,0.255247,-0.8567520000000001,-1.756476,-0.816758,-0.291444,-0.16276300000000002,-0.145628
329,-2.483885,-1.219774,2.364916,-0.210188,0.9390219999999999,0.27211,-0.746891,-0.369744,-0.847678,0.035933,0.037297000000000004,0.09371900000000001
330,-2.476371,-1.197136,2.3700650000000003,-0.225293,0.930997,0.28717800000000004,-0.865217,0.27880900000000003,-0.695511,0.169705,0.194262,-0.063179
331,-2.479125,-1.173535,2.364696,-0.237952,0.9221239999999999,0.305041,-1.117866,-0.100814,-0.646583,0.312888,0.156581,-0.324939
332,-2.508706,-1.143477,2.34727,-0.24511599999999997,0.9100799999999999,0.334152,-1.552025,-0.9964219999999999,-0.6089439999999999,0.440245,0.225662,-0.562607
333,-2.536889,-1.118902,2.332495,-0.248245,0.8996209999999999,0.359221,-0.774648,-0.355653,-0.35223499999999996,0.358078,0.356635,-0.489806
334,-2.528995,-1.1113389999999999,2.336382,-0.25497800000000004,0.896294,0.362806,-0.104719,0.426767,-0.260964,0.256366,0.415596,-0.349058
335,-2.515286,-1.108573,2.345298,-0.26138,0.8950629999999999,0.36128499999999997,0.109225,0.099958,-0.237686,0.306607,0.43484700000000004,-0.516818
336,-2.496778,-1.1122379999999998,2.366586,-0.266048,0.896691,0.35376199999999997,0.6401720000000001,-0.016798,-0.271215,0.196697,0.491385,-0.863238
337,-2.463334,-1.128117,2.402079,-0.26876,0.9036069999999999,0.333538,1.431525,0.156332,-0.030900999999999998,0.276115,0.5662560000000001,-0.80804
338,-2.390014,-1.162423,2.4733080000000003,-0.271136,0.917768,0.290125,2.747184,0.519987,0.061144000000000004,0.338198,0.701281,-0.664469
339,-2.26873,-1.214443,2.595322,-0.267271,0.937175,0.224177,3.9064330000000003,0.34707,0.47325100000000003,0.3085,0.7654920000000001,-0.51417
340,-2.073425,-1.274977,2.8041669999999996,-0.255449,0.9565629999999999,0.140426,4.597361,-0.707671,0.702687,0.13301300000000002,0.697962,0.095826
341,-1.836341,-1.329579,3.082249,-0.230488,0.9710479999999999,0.062685,4.310739,-1.557568,1.434575,0.118229,0.671454,1.2353040000000002
342,-1.510536,-1.374076,-2.8629330000000004,-0.195072,0.980713,-0.011769,3.489317,0.533712,1.843832,-0.392315,1.108551,0.998509
343,-1.181124,-1.380092,-2.5590189999999997,-0.175316,0.9818709999999999,-0.071997,2.405408,2.018325,0.21706999999999999,-0.684883,0.841036,0.6871550000000001
344,-0.9791030000000001,-1.351848,-2.396621,-0.180259,0.976126,-0.121136,1.9996490000000002,2.075227,-0.6062310000000001,-0.769295,0.29628899999999997,0.18899200000000002
345,-0.867243,-1.334468,-2.289877,-0.17852300000000002,0.9722040000000001,-0.151456,1.147625,-1.326142,0.649473,-0.7056319999999999,0.193323,-0.574924
346,-0.695867,-1.318551,-2.07773,-0.15998099999999998,0.968354,-0.19153699999999999,3.122313,-0.953161,1.300517,-0.46274499999999996,0.054792999999999994,0.42679700000000004
347,-0.506287,-1.27393,-1.889782,-0.141848,0.9562579999999999,-0.255815,3.052657,1.132492,0.601945,-0.060940999999999995,-0.350438,0.706896
348,-0.367194,-1.23898,-1.7734310000000002,-0.116943,0.9454520000000001,-0.304034,1.9768290000000002,1.1965629999999998,1.228872,0.297836,-0.363482,0.736834
349,-0.241371,-1.208285,-1.645096,-0.084765,0.935009,-0.344333,2.329063,-0.263586,1.635924,0.382708,-0.291607,0.715122
350,-0.170547,-1.1645940000000001,-1.548029,-0.06706000000000001,0.9186280000000001,-0.389383,2.535726,-1.45258,1.227625,0.377256,-0.455768,0.582254
351,-0.142701,-1.120798,-1.478947,-0.061858,0.9004479999999999,-0.43053500000000006,2.3052599999999996,-1.7128029999999999,0.968907,0.139648,-0.412304,0.601739
352,-0.134399,-1.0804049999999998,-1.43267,-0.06310700000000001,0.882149,-0.466718,2.011187,-1.728521,0.626111,-0.077793,-0.5310739999999999,0.6711550000000001
353,-0.14951099999999998,-1.04865,-1.403965,-0.074289,0.866751,-0.493172,1.432084,-2.139997,0.399334,-0.2656,-0.666327,0.8654860000000001
354,-0.179116,-1.030845,-1.3838780000000002,-0.09158999999999999,0.857734,-0.505864,0.6469630000000001,-2.437329,0.31090999999999996,-0.235498,-0.704017,0.913076
355,-0.22117699999999998,-1.029501,-1.377076,-0.113032,0.857042,-0.50269,-0.233736,-2.293835,0.08879400000000001,-0.160176,-0.8450790000000001,0.9513440000000001
356,-0.266548,-1.04654,-1.387391,-0.13185,0.8656959999999999,-0.482887,-1.315152,-1.481666,-0.146264,-0.07277,-0.797795,0.767357
357,-0.321282,-1.083027,-1.4227670000000001,-0.147992,0.883381,-0.44466999999999995,-2.3932900000000004,-1.090439,-0.34444,0.144833,-0.6174810000000001,0.349989
358,-0.396047,-1.1369790000000002,-1.485409,-0.162152,0.9073680000000001,-0.387793,-3.3350980000000003,-0.7782979999999999,-0.33112199999999997,0.233792,-0.201298,-0.254983
359,-0.474998,-1.191546,-1.5695290000000002,-0.16931300000000002,0.928942,-0.329229,-2.6143009999999998,0.711954,-0.405977,-0.19831700000000002,2.506162,-2.078852
360,-0.443862,-1.208377,-1.583038,-0.152245,0.935042,-0.320173,-0.065621,1.589045,0.753699,0.066368,2.419191,-2.11368
361,-0.414879,-1.210518,-1.5162069999999999,-0.142095,0.9357989999999999,-0.322617,0.45175,-2.776664,1.156013,0.443578,0.387886,-0.496658
362,-0.394737,-1.211433,-1.446675,-0.135239,0.9361209999999999,-0.324623,0.443223,-1.722459,1.020002,-0.278473,-0.409479,-0.014809000000000001
363,-0.39829499999999995,-1.21251,-1.429878,-0.136002,0.936499,-0.32321,-0.37059899999999996,-0.519476,-0.20926999999999998,-0.561859,-0.365805,0.087965
364,-0.47054399999999996,-1.228799,-1.5121129999999998,-0.152041,0.9420870000000001,-0.29891100000000004,-1.7126689999999998,0.638644,-1.21678,-0.974424,0.627753,0.526038
365,-0.52482,-1.248353,-1.593461,-0.15877,0.948464,-0.27422399999999997,-1.091302,1.509131,-0.197676,0.36128499999999997,0.860252,-0.167045
366,-0.504273,-1.250357,-1.607718,-0.15218399999999999,0.949097,-0.275764,0.203989,1.49304,-0.22706300000000001,0.119439,0.169601,0.262412
367,-0.48337700000000006,-1.245718,-1.6142020000000001,-0.14843399999999998,0.947626,-0.282779,-0.026561,1.2190590000000001,-0.24220999999999998,-0.129657,-0.449625,1.006977
368,-0.500365,-1.2543950000000001,-1.6504240000000001,-0.149265,0.950361,-0.272992,-1.0610760000000001,0.764843,-0.308674,-0.184521,-0.642454,0.908444
369,-0.561783,-1.276875,-1.7404,-0.154318,0.9571149999999999,-0.245168,-1.9947740000000003,1.576825,-0.89094,-0.187586,-0.46588900000000005,0.8498129999999999
370,-0.707701,-1.299856,-1.927756,-0.173976,0.96352,-0.203352,-2.660533,1.562877,-1.6198270000000001,-0.21297199999999997,-0.18701500000000001,0.643736
371,-0.900444,-1.322163,-2.146752,-0.19281199999999998,0.96925,-0.152866,-2.846745,0.501819,-0.649822,-0.250029,-0.030575,0.603016
372,-1.091914,-1.35198,-2.334204,-0.192633,0.9761549999999999,-0.100013,-2.4164369999999997,-0.9285040000000001,0.222412,-0.0189,0.258312,0.565025
373,-1.258585,-1.365266,-2.4792799999999997,-0.194192,0.9789530000000001,-0.062679,-1.091576,-1.303587,-0.10007,0.186075,0.5509689999999999,0.5983850000000001
374,-1.313229,-1.363597,-2.512633,-0.198906,0.978611,-0.052395000000000004,-0.002617,-0.9641200000000001,-0.155923,0.385491,0.24990500000000002,0.315671
375,-1.365441,-1.365575,-2.5446619999999998,-0.199474,0.979016,-0.041549,-0.91464,-1.161116,0.081513,0.569576,0.020954,-0.260285
376,-1.64325,-1.3716540000000002,-2.801456,-0.197278,0.980237,0.014319,-3.363575,-1.3268870000000001,0.236603,0.35932600000000003,-0.110242,-0.24994499999999997
377,-2.0068259999999998,-1.365694,3.12357,-0.184581,0.9790399999999999,0.086004,-3.377064,0.046111,0.815862,0.264293,-0.13291,0.154948
378,-2.245813,-1.351944,2.846874,-0.16947,0.976147,0.135653,-2.446278,2.279012,1.0534430000000001,0.16834100000000002,-0.211529,0.144239
379,-2.385212,-1.341942,2.644863,-0.155671,0.9739270000000001,0.16497799999999999,-1.802729,3.153032,1.171118,0.101609,-0.268437,-0.021805
380,-2.488055,-1.326933,2.475142,-0.146784,0.970412,0.191674,-2.000638,2.982311,0.8793979999999999,-0.12280799999999999,-0.08982799999999999,-0.160271
381,-2.559879,-1.294733,2.355773,-0.149749,0.9621360000000001,0.227714,-2.124266,1.374703,-0.050894999999999996,-0.42089899999999997,0.069755,-0.519035
382,-2.5968299999999997,-1.264109,2.322419,-0.156436,0.9533389999999999,0.258179,-1.212617,-0.9379870000000001,-0.579947,0.034687,0.023346000000000002,-0.002487
383,-2.605932,-1.239542,2.3311319999999998,-0.165987,0.945635,0.27965300000000004,-0.914963,-0.663385,-0.777977,0.151567,0.035887,0.026347000000000002
384,-2.604753,-1.217192,2.3401669999999997,-0.177084,0.9381309999999999,0.29754899999999995,-0.874185,-0.248572,-0.652174,0.24129299999999998,0.161021,-0.090273
385,-2.6106849999999997,-1.194495,2.341943,-0.186051,0.9300299999999999,0.316878,-1.0755290000000002,-0.578422,-0.574109,0.343873,0.17899400000000001,-0.5099779999999999
386,-2.642766,-1.166207,2.328933,-0.188306,0.919264,0.345654,-1.428864,-1.159533,-0.400644,0.324017,0.107073,-0.6498079999999999
387,-2.6638889999999997,-1.1461629999999998,2.32052,-0.189397,0.9111899999999999,0.365846,-0.571448,-0.200939,-0.306153,0.163884,0.320301,-0.31790300000000005
388,-2.646704,-1.1407610000000001,2.3291020000000002,-0.197991,0.9089510000000001,0.366865,-0.044682,0.740841,-0.24920100000000003,0.1699,0.23698400000000003,-0.09492300000000001
389,-2.623929,-1.1372389999999999,2.338988,-0.207877,0.9074770000000001,0.36504000000000003,-0.04533,0.53337,-0.313033,0.198188,0.307611,-0.060475
390,-2.60739,-1.133842,2.3544240000000003,-0.215454,0.9060450000000001,0.36420399999999997,0.048052,-0.101667,-0.360705,0.26915,0.352302,-0.369132
391,-2.5968299999999997,-1.134909,2.3691,-0.21878699999999998,0.9064959999999999,0.361081,0.38154299999999997,-0.00561,-0.16301400000000002,0.262198,0.36839099999999997,-0.551953
392,-2.569275,-1.149715,2.392952,-0.221358,0.9126479999999999,0.343594,1.2166299999999999,0.379452,0.053834,0.269835,0.512401,-0.438305
393,-2.526709,-1.180865,2.436995,-0.21926700000000002,0.9249350000000001,0.31048200000000004,2.11817,-0.15808,0.22959899999999997,0.228803,0.684333,-0.468533
394,-2.469007,-1.229819,2.512118,-0.20832399999999998,0.942428,0.261558,3.1532240000000002,-0.8295170000000001,0.47590200000000005,0.119045,0.5917359999999999,-0.653175
395,-2.339458,-1.294151,2.662004,-0.19631500000000002,0.9619770000000001,0.189852,4.346,-0.403115,0.43454899999999996,-0.096546,0.212995,-0.624895
396,-2.079077,-1.355151,2.932829,-0.186897,0.9768379999999999,0.104121,4.281708,-0.11890099999999999,0.543763,-0.159721,0.21400300000000003,-0.247798
397,-1.72108,-1.3969200000000002,-2.985486,-0.171011,0.984922,0.025894999999999998,3.8875940000000004,0.216299,0.975347,0.04125,0.583331,0.979735
398,-1.257267,-1.412197,-2.528685,-0.150197,0.987449,-0.048697000000000004,3.455715,1.119404,0.8793059999999999,-0.354518,0.912636,1.075126
399,-0.901156,-1.386136,-2.2167380000000003,-0.14393399999999998,0.982999,-0.11394800000000001,2.671352,3.156489,-0.373262,-0.496141,0.39548,0.651821
400,-0.725468,-1.348691,-2.101086,-0.14613800000000002,0.9754360000000001,-0.164794,1.583232,2.449818,-0.397048,-0.642986,0.087141,-0.364762
401,-0.682679,-1.353025,-2.0523700000000002,-0.136286,0.9763809999999999,-0.167613,-0.126175,-1.59818,1.070345,-0.61112,0.263533,-0.480382
402,-0.5238550000000001,-1.334328,-1.868852,-0.117176,0.9721709999999999,-0.202834,2.9764009999999996,-0.494328,0.9880530000000001,-0.190304,0.121395,0.45703
403,-0.377668,-1.281774,-1.718216,-0.105094,0.9585229999999999,-0.264913,2.993405,0.254077,0.56206,0.275351,-0.189038,0.726766
404,-0.26376700000000003,-1.243846,-1.603327,-0.083728,0.947026,-0.310035,2.107869,0.27019499999999996,1.293995,0.33803099999999997,-0.31264200000000003,0.531791
405,-0.169561,-1.206489,-1.501142,-0.060124000000000004,0.934371,-0.35118,2.313957,-0.6922560000000001,1.242189,0.25214000000000003,-0.314101,0.5106649999999999
406,-0.128674,-1.1627459999999998,-1.4209829999999999,-0.050918,0.9178959999999999,-0.393529,2.345986,-1.9872880000000002,1.1287040000000002,0.163925,-0.327839,0.595006
407,-0.109872,-1.1219219999999999,-1.360285,-0.047582,0.9009360000000001,-0.43132600000000004,2.0455810000000003,-1.592422,0.9445020000000001,0.045477,-0.396389,0.694495
408,-0.09604,-1.087489,-1.3132469999999998,-0.044562,0.8854629999999999,-0.46256,1.6690470000000002,-1.438369,0.8412620000000001,-0.090097,-0.4304,0.718923
409,-0.095996,-1.063244,-1.275252,-0.046585,0.8739370000000001,-0.48379399999999995,1.011681,-1.8011080000000002,0.748472,-0.297745,-0.619161,0.810241
410,-0.107576,-1.055569,-1.246098,-0.052903,0.870181,-0.48987700000000006,0.12748199999999998,-1.874205,0.6142029999999999,-0.16571,-0.719104,0.8251430000000001
411,-0.132279,-1.064284,-1.231323,-0.063984,0.874442,-0.48088500000000006,-0.718938,-1.813465,0.278132,-0.12336300000000001,-0.7806,0.806233
412,-0.16938499999999998,-1.089598,-1.23848,-0.078023,0.886441,-0.45620900000000003,-1.610364,-1.394342,-0.131351,-0.106716,-0.7416050000000001,0.563967
413,-0.224593,-1.130959,-1.270048,-0.094826,0.9048209999999999,-0.415088,-2.514997,-1.336001,-0.335364,0.13756500000000002,-0.574026,0.198993
414,-0.297046,-1.189375,-1.329487,-0.10895,0.9281360000000001,-0.355926,-3.4564410000000003,-0.564339,-0.41877200000000003,0.167147,-0.046514,-0.6520090000000001
415,-0.37316,-1.2427059999999999,-1.417422,-0.117469,0.946659,-0.300045,-2.240405,1.310362,-0.627393,-0.343561,1.871273,-1.578419
416,-0.351163,-1.256658,-1.426555,-0.10628599999999999,0.9510629999999999,-0.290124,-0.07456900000000001,0.367002,0.571466,-0.101768,1.990114,-1.558417
417,-0.319332,-1.256264,-1.366032,-0.097116,0.950941,-0.293715,0.44588999999999995,-1.597797,1.0262719999999999,0.093561,0.137163,-0.50731
418,-0.28906,-1.250392,-1.306384,-0.089772,0.949108,-0.30186799999999997,0.517297,-1.1423159999999999,0.546556,-0.43546599999999996,-0.399181,-0.204281
419,-0.330881,-1.2515450000000001,-1.332244,-0.10195900000000001,0.949471,-0.296815,-0.760504,-0.712992,-1.011842,-0.9234319999999999,0.24268299999999998,0.350404
420,-0.431001,-1.2626549999999999,-1.44315,-0.1267,0.9528989999999999,-0.275535,-1.035613,1.0601610000000001,-1.1730639999999999,-0.62478,0.952069,0.22531900000000002
421,-0.45597299999999996,-1.26994,-1.497801,-0.13047999999999998,0.955083,-0.266045,-0.33369899999999997,1.190479,-0.539146,0.225557,0.627482,0.214455
422,-0.465484,-1.263992,-1.52694,-0.135552,0.953304,-0.269864,0.024233,0.880108,-0.489246,-0.019019,-0.486339,1.1179629999999998
423,-0.49620200000000003,-1.272788,-1.578473,-0.139779,0.955923,-0.258189,-1.329318,1.015607,-0.433713,-0.19651,-0.673666,0.9262950000000001
424,-0.567913,-1.305692,-1.6885580000000002,-0.140916,0.965065,-0.220861,-2.611856,2.2479270000000002,-0.6023470000000001,-0.19680699999999998,-0.47451000000000004,0.8623860000000001
425,-0.716428,-1.342801,-1.900813,-0.148412,0.9741209999999999,-0.17043699999999998,-3.173871,2.9222200000000003,-1.173295,-0.245952,-0.194855,0.566678
426,-0.9483959999999999,-1.366955,-2.176211,-0.164447,0.9792959999999999,-0.117997,-2.789093,0.990509,-0.882916,-0.25402600000000003,-0.133913,0.475983
427,-1.186591,-1.3867049999999999,-2.4123240000000004,-0.169673,0.9831030000000001,-0.068598,-2.2506310000000003,-0.9487899999999999,0.105026,-0.038395,0.306539,0.645213
428,-1.388732,-1.400318,-2.593212,-0.16680999999999999,0.985504,-0.03071,-1.351976,-1.084128,0.137114,0.201234,0.307923,0.59582
429,-1.487272,-1.402084,-2.6854720000000003,-0.167287,0.9858020000000001,-0.014005000000000002,-0.49910600000000005,-0.009275,-0.06661,0.359319,0.10340099999999999,0.265516
430,-1.546504,-1.404965,-2.747316,-0.164982,0.986282,-0.004009,-0.689489,0.00168,0.288833,0.5134770000000001,0.040788,-0.20638
431,-1.7897009999999998,-1.407001,-2.987009,-0.15913,0.9866159999999999,0.035401999999999996,-2.897424,-0.47166199999999997,0.161853,0.36695500000000003,-0.177808,-0.28108299999999997
432,-2.195471,-1.383302,2.891485,-0.151166,0.982474,0.10898900000000002,-3.7117,-0.27689899999999995,0.64623,0.23714899999999997,-0.152503,0.017522
433,-2.4529810000000003,-1.356768,2.6250310000000003,-0.134949,0.977183,0.163971,-2.248609,0.7450899999999999,0.8783989999999999,0.096482,-0.204707,0.28413299999999997
434,-2.551599,-1.338196,2.475775,-0.128226,0.9730700000000001,0.191511,-1.521268,3.136864,0.723386,-0.02244,-0.149035,0.073061
435,-2.584425,-1.32228,2.3701470000000002,-0.130046,0.9692780000000001,0.208738,-1.342638,3.526886,0.536126,-0.11801600000000001,0.070608,-0.104947
436,-2.621396,-1.293779,2.273018,-0.13592200000000002,0.961875,0.237285,-2.3284,2.067768,0.24803200000000003,-0.19078399999999998,0.138054,-0.53622
437,-2.694354,-1.247475,2.191608,-0.13739300000000002,0.9481850000000001,0.286443,-2.38528,-0.615691,-0.22749,0.046695,0.022045,-0.500188
438,-2.719153,-1.220431,2.179907,-0.140713,0.9392469999999999,0.31304299999999996,-0.7670939999999999,-0.414887,-0.43115699999999996,0.102993,0.09603099999999999,-0.11681400000000002
439,-2.706711,-1.203943,2.184448,-0.151102,0.9334610000000001,0.32527,-0.845792,0.861454,-0.398091,0.080072,0.102016,-0.058226
440,-2.693523,-1.182035,2.179443,-0.1642,0.9253790000000001,0.341602,-1.1007069999999999,0.64925,-0.389986,0.08077999999999999,0.19602,-0.297764
441,-2.70411,-1.1564370000000002,2.172382,-0.170557,0.915374,0.364664,-1.271828,-0.696398,-0.456755,0.186212,0.151947,-0.482309
442,-2.720106,-1.132808,2.171175,-0.173504,0.9056069999999999,0.386977,-0.8578309999999999,-0.465545,-0.47125,0.31274,0.243182,-0.355696
443,-2.704062,-1.122858,2.1808509999999997,-0.183499,0.901342,0.392287,-0.13489500000000001,0.77877,-0.317176,0.261685,0.214243,-0.129409
444,-2.680503,-1.120095,2.185616,-0.193796,0.900142,0.390085,-0.11811700000000001,0.9524549999999999,-0.076931,0.205134,0.20718899999999998,-0.13858900000000002
445,-2.6684099999999997,-1.1170790000000002,2.185552,-0.199736,0.898824,0.39012800000000003,-0.08874800000000001,0.35689899999999997,-0.085577,0.101256,0.350612,-0.244772
446,-2.659075,-1.118263,2.19349,-0.202875,0.899342,0.387303,0.289044,0.092668,-0.13601,-0.021078,0.5278729999999999,-0.400136
447,-2.634317,-1.128711,2.209941,-0.207825,0.903861,0.37392800000000004,0.862241,0.78142,0.019867,0.129547,0.5308609999999999,-0.36446799999999996
448,-2.591262,-1.1546040000000002,2.237805,-0.211412,0.9146350000000001,0.344566,1.7916150000000002,0.77522,0.231465,0.325807,0.629905,-0.556343
449,-2.532721,-1.201049,2.292048,-0.20667199999999997,0.932419,0.296414,2.94312,0.173548,0.512676,0.327888,0.77652,-0.7792180000000001
450,-2.4337560000000003,-1.266836,2.402146,-0.194583,0.954159,0.22737600000000002,4.195180000000001,-0.349829,0.574435,0.111331,0.388218,-0.719564
451,-2.211822,-1.338578,2.630616,-0.18442,0.973158,0.137603,4.626715,0.22927899999999998,0.5670930000000001,-0.18490299999999998,0.298219,-0.253006
452,-1.897996,-1.391782,2.954005,-0.168569,0.9840200000000001,0.057212,3.903628,-0.316078,0.910982,-0.083338,0.363316,0.795357
453,-1.451569,-1.42056,-2.882216,-0.148558,0.9887360000000001,-0.017797,3.649169,0.854067,1.013459,-0.065813,0.389346,1.068303
454,-1.007992,-1.406532,-2.475273,-0.138268,0.9865389999999999,-0.087228,2.95319,2.72635,-0.128254,-0.503456,0.558856,0.8288049999999999
455,-0.763421,-1.3612950000000001,-2.291461,-0.14377,0.9781350000000001,-0.150232,2.618937,3.197769,-0.7785350000000001,-0.593932,0.11543199999999999,0.291269
456,-0.6667069999999999,-1.339979,-2.210007,-0.141457,0.9734799999999999,-0.179763,0.365978,-1.201999,0.6844439999999999,-0.6114109999999999,0.1055,-0.386399
457,-0.588517,-1.344125,-2.085312,-0.124741,0.9744200000000001,-0.186904,1.888882,-1.2680930000000001,1.239959,-0.19554100000000002,0.321311,0.163237
458,-0.42622299999999996,-1.296263,-1.9228720000000001,-0.112072,0.9625520000000001,-0.246824,3.300504,0.49355200000000005,0.364143,0.172619,-0.05943,0.58943
459,-0.316977,-1.2489860000000002,-1.809437,-0.09858,0.948664,-0.30051300000000003,2.4847580000000002,-0.233614,0.9661270000000001,0.413017,-0.160166,0.7145600000000001
460,-0.236306,-1.206602,-1.712606,-0.083387,0.9344110000000001,-0.346285,2.573141,-0.753746,0.958865,0.278242,-0.239037,0.623033
461,-0.187277,-1.161322,-1.633338,-0.07412300000000001,0.91733,-0.391154,2.4887919999999997,-1.643256,1.033123,0.196209,-0.280017,0.579448
462,-0.15967699999999999,-1.119602,-1.567167,-0.069329,0.899927,-0.43048500000000006,2.1327119999999997,-1.418025,0.9609120000000001,0.153893,-0.24389,0.668125
463,-0.14393399999999998,-1.084691,-1.5169110000000001,-0.067011,0.884159,-0.462347,1.777298,-1.617445,0.789906,-0.096014,-0.409321,0.742223
464,-0.144806,-1.056732,-1.477652,-0.070954,0.8707530000000001,-0.486566,1.2977049999999999,-1.798707,0.73017,-0.27108699999999997,-0.5723520000000001,0.8463379999999999
465,-0.151669,-1.0444639999999998,-1.4447649999999999,-0.0759,0.864655,-0.496591,0.356135,-1.706934,0.7074520000000001,-0.256848,-0.722993,0.9040309999999999
466,-0.166331,-1.050416,-1.424936,-0.082319,0.8676299999999999,-0.49033999999999994,-0.564577,-1.5193290000000002,0.411293,-0.163164,-0.727219,0.8506610000000001
467,-0.193251,-1.0744879999999999,-1.42603,-0.091449,0.879346,-0.46731000000000006,-1.574673,-1.110624,0.045859,-0.048031,-0.6912510000000001,0.560511
468,-0.237235,-1.118228,-1.454357,-0.10276500000000001,0.8993270000000001,-0.425019,-2.706356,-0.8944559999999999,-0.283858,0.049206,-0.61205,0.309632
469,-0.31146999999999997,-1.180216,-1.519817,-0.116672,0.924688,-0.36239499999999997,-3.611792,-0.573975,-0.522397,0.029331,-0.493978,0.063841
470,-0.39837,-1.234074,-1.6120649999999999,-0.12816,0.943843,-0.30450900000000003,-2.303146,0.7127479999999999,-0.558702,-0.196441,2.197667,-1.6917830000000003
471,-0.355132,-1.243758,-1.611399,-0.111694,0.946998,-0.301179,0.297021,1.269702,0.694679,0.244125,2.290276,-2.072966
472,-0.32809699999999997,-1.2386469999999998,-1.5468600000000001,-0.10507000000000001,0.9453440000000001,-0.308667,0.6143890000000001,-2.326962,1.025176,0.398588,0.353774,-0.605106
473,-0.297937,-1.235615,-1.477498,-0.09655599999999999,0.944351,-0.314434,0.369283,-1.461581,0.877077,0.042127,-0.565368,-0.08885499999999999
474,-0.304643,-1.239416,-1.4690969999999999,-0.097584,0.945594,-0.310352,-0.562196,-0.24784499999999998,-0.27505,-0.42328999999999994,-0.22072600000000003,0.288426
475,-0.363255,-1.256058,-1.540078,-0.109989,0.9508770000000001,-0.289352,-1.3049520000000001,0.789331,-0.861612,-0.698681,0.562917,0.221633
476,-0.368709,-1.267579,-1.570669,-0.10761,0.9543809999999999,-0.278509,-0.207558,1.19702,0.128295,0.133443,1.2820690000000001,-0.564692
477,-0.348427,-1.257635,-1.557872,-0.105175,0.951364,-0.289541,0.7569640000000001,0.0801,-0.047271,0.077877,0.543036,-0.127222
478,-0.33493,-1.246444,-1.560268,-0.104751,0.947857,-0.300971,0.19375499999999998,0.865799,-0.23915,-0.395264,-0.843167,1.459907
479,-0.352105,-1.2653530000000002,-1.582042,-0.103703,0.953714,-0.28225100000000003,-1.762627,0.088256,0.09748899999999999,-0.275508,-0.84472,1.069986
480,-0.41164700000000004,-1.3114729999999999,-1.675259,-0.102593,0.966564,-0.234986,-3.0213509999999997,2.5793369999999998,-0.791506,-0.215858,-0.670818,1.071076
481,-0.5848260000000001,-1.3542610000000002,-1.9326880000000002,-0.118592,0.976648,-0.179118,-3.379465,4.262346,-2.045983,-0.325881,-0.18024600000000002,0.572871
482,-0.866029,-1.3765459999999998,-2.287639,-0.147019,0.981193,-0.12503599999999998,-3.018007,2.241836,-1.6402860000000001,-0.451201,0.075677,0.41773000000000005
483,-1.14696,-1.3945530000000002,-2.5743169999999997,-0.15978499999999998,0.984509,-0.07209199999999999,-2.5348669999999998,-1.042672,-0.13078199999999998,-0.22211199999999998,0.310626,0.553751
484,-1.40381,-1.40913,-2.794323,-0.158681,0.9869600000000001,-0.026747000000000003,-1.5301200000000001,-2.307275,0.093637,0.169851,0.459161,0.640791
485,-1.526714,-1.406334,-2.879441,-0.163518,0.986507,-0.007213,-0.163799,-1.670982,-0.371925,0.449773,0.24741100000000002,0.40081300000000003
486,-1.52787,-1.397003,-2.849798,-0.172718,0.984936,-0.007418999999999999,0.277821,-1.524147,-0.44487200000000005,0.523029,0.166035,0.176013
487,-1.7216799999999999,-1.3859569999999999,-3.022061,-0.18165699999999999,0.982966,0.027619,-2.851377,-0.9925579999999999,-0.400113,0.5059680000000001,-0.001444,-0.386628
488,-2.0740790000000002,-1.3654190000000002,2.925436,-0.17861300000000002,0.978984,0.098339,-3.2153970000000003,-1.258419,0.332622,0.370431,-0.088451,0.05429400000000001
489,-2.289821,-1.347509,2.7126669999999997,-0.16658900000000001,0.975175,0.145822,-1.905488,0.481523,0.708078,0.29084099999999996,-0.21569899999999997,0.242788
490,-2.396211,-1.338558,2.562438,-0.156076,0.9731540000000001,0.169096,-1.3737709999999999,2.695604,0.9364870000000001,0.10708,-0.295297,0.167956
491,-2.461665,-1.33031,2.425264,-0.149725,0.9712219999999999,0.18517899999999998,-1.4242860000000002,3.7675769999999997,0.903782,-0.013575,-0.11338800000000002,0.14569300000000002
492,-2.514196,-1.3084069999999999,2.2936509999999997,-0.15225,0.965773,0.209961,-2.23946,3.270612,0.41588800000000004,-0.13225,0.011949,-0.03978
493,-2.61555,-1.261539,2.177827,-0.152803,0.9525600000000001,0.263175,-2.8713330000000004,-1.4109770000000001,-0.17539000000000002,-0.451887,-0.007293000000000001,-0.7391270000000001
494,-2.686873,-1.2267299999999999,2.159691,-0.148141,0.941391,0.303014,-0.9206790000000001,-2.5810049999999998,-0.711467,-0.099891,-0.013916,-0.07812999999999999
495,-2.681425,-1.210826,2.181675,-0.156419,0.9359069999999999,0.315578,-0.594781,0.41857799999999995,-0.669238,0.098161,0.154043,-0.033932
496,-2.652558,-1.1913209999999999,2.188686,-0.174007,0.928859,0.326989,-0.883661,1.124089,-0.493766,0.18168199999999998,0.282643,-0.346642
497,-2.645764,-1.168868,2.185863,-0.186102,0.920308,0.344061,-1.106349,-5.6000000000000006e-05,-0.497086,0.284796,0.120082,-0.5535640000000001
498,-2.658456,-1.146868,2.181956,-0.191082,0.91148,0.364239,-0.805906,-0.498867,-0.42598199999999997,0.315685,0.21999000000000002,-0.45010100000000003
499,-2.646773,-1.137398,2.195336,-0.199414,0.907544,0.369562,-0.058635,0.259351,-0.476213,0.28376399999999996,0.310748,-0.26206399999999996
500,-2.629363,-1.1320379999999999,2.207175,-0.20819899999999997,0.90528,0.37027,-0.220523,0.294224,-0.265881,0.24485,0.323968,-0.191269
501,-2.622578,-1.126675,2.210839,-0.213112,0.9029889999999999,0.37305900000000003,-0.0809,0.10592599999999999,-0.184548,0.258216,0.45428100000000005,-0.195523
502,-2.612083,-1.127507,2.222798,-0.216635,0.9033459999999999,0.370153,0.301404,-0.068979,-0.19981300000000002,0.17444500000000002,0.535146,-0.51705
503,-2.593005,-1.1391950000000002,2.242722,-0.21813600000000002,0.9082969999999999,0.356919,1.05469,0.172492,0.032671,0.184139,0.607618,-0.58397
504,-2.549571,-1.170651,2.285129,-0.21736999999999998,0.921004,0.323233,2.256555,0.217723,0.200173,0.286752,0.73082,-0.575338
505,-2.4717759999999998,-1.224709,2.365443,-0.210583,0.940707,0.26590199999999997,3.462086,0.047129000000000004,0.523938,0.283047,0.738263,-0.6331359999999999
506,-2.328042,-1.292941,2.520581,-0.19931300000000002,0.9616459999999999,0.188395,4.4899830000000005,-0.309105,0.5401199999999999,0.048129000000000005,0.395379,-0.6846869999999999
507,-2.0824979999999997,-1.356733,2.7910939999999997,-0.185186,0.977176,0.104,4.398558,-1.304233,0.6593289999999999,-0.101435,0.456265,0.28377199999999997
508,-1.71235,-1.398658,-3.0923979999999998,-0.16953,0.9852209999999999,0.024159,4.158930000000001,-0.6082850000000001,0.786018,0.026144,0.41727600000000004,1.163844
509,-1.2460639999999998,-1.405797,-2.6347720000000003,-0.155624,0.986419,-0.052391,3.4835,1.651659,0.449392,-0.269837,0.579499,1.000099
510,-0.905967,-1.372475,-2.346578,-0.155034,0.980399,-0.121527,2.882828,3.258893,-0.559924,-0.393916,0.514917,0.9012819999999999
511,-0.740488,-1.337383,-2.2228689999999998,-0.156027,0.9728829999999999,-0.17071,1.369948,0.930157,-0.037669,-0.68574,0.19385,-0.317388
512,-0.6971069999999999,-1.344651,-2.157427,-0.143933,0.9745379999999999,-0.17189000000000002,0.218585,-1.46543,1.170859,-0.45038199999999995,0.200877,-0.147568
513,-0.5148510000000001,-1.323483,-1.97702,-0.120528,0.9695739999999999,-0.213044,2.758131,1.199546,0.9202629999999999,-0.055512,0.165253,0.409775
514,-0.354635,-1.280114,-1.824022,-0.099516,0.9580489999999999,-0.268752,2.709527,0.049601,1.090177,0.335509,-0.099177,0.677337
515,-0.24107399999999998,-1.239066,-1.693197,-0.077751,0.9454799999999999,-0.316245,2.5182130000000003,-0.7198289999999999,1.3461969999999999,0.426048,-0.125351,0.747321
516,-0.172761,-1.191026,-1.597034,-0.063723,0.92875,-0.365175,2.744724,-1.434159,1.0325010000000001,0.323977,-0.28463099999999997,0.592409
517,-0.141336,-1.145111,-1.524567,-0.058168,0.9107559999999999,-0.408816,2.292466,-1.8025689999999999,1.114203,0.203203,-0.385945,0.632143
518,-0.112755,-1.107949,-1.459455,-0.050237000000000004,0.894785,-0.44365200000000005,1.86959,-1.398483,1.127823,-0.09971100000000001,-0.51269,0.692492
519,-0.098211,-1.079094,-1.406397,-0.046293,0.8815299999999999,-0.469843,1.339218,-1.797706,0.991102,-0.238314,-0.5749810000000001,0.756235
520,-0.10126399999999999,-1.062758,-1.36513,-0.049176,0.8737,-0.483964,0.620788,-2.006719,0.869916,-0.338519,-0.6660739999999999,0.8290420000000001
521,-0.115311,-1.0631549999999999,-1.3373389999999998,-0.055929,0.8738940000000001,-0.48288000000000003,-0.291389,-1.861584,0.531141,-0.145654,-0.834694,0.804322
522,-0.145177,-1.080398,-1.332913,-0.068134,0.8821450000000001,-0.46601499999999996,-1.180412,-1.488915,0.014912,-0.096264,-0.8191109999999999,0.810772
523,-0.19158,-1.1154950000000001,-1.358507,-0.083728,0.8981290000000001,-0.43167799999999995,-2.24876,-1.090236,-0.45666999999999996,-0.064389,-0.773068,0.630988
524,-0.271451,-1.168936,-1.4226020000000001,-0.104871,0.920335,-0.376798,-3.211492,-1.039721,-0.7988810000000001,-0.067325,0.01094,-0.480303
525,-0.371608,-1.22139,-1.519677,-0.124303,0.939576,-0.318959,-2.506729,0.284091,-0.795655,-0.142009,0.7892600000000001,-1.069407
526,-0.33523400000000003,-1.229515,-1.5265600000000001,-0.110106,0.942327,-0.316048,0.41995200000000005,1.769065,0.666053,0.136504,2.6522930000000002,-2.1541360000000003
527,-0.30302399999999996,-1.2237040000000001,-1.455278,-0.101504,0.940366,-0.324652,0.63813,-2.803867,1.201139,0.48782600000000004,0.5975520000000001,-1.014597
528,-0.28180900000000003,-1.222664,-1.382103,-0.09486499999999999,0.9400120000000001,-0.327671,0.326874,-1.964784,1.026974,-0.039182999999999996,-0.9109889999999999,0.10896700000000001
529,-0.278278,-1.226092,-1.356177,-0.092822,0.941175,-0.32490399999999997,-0.506219,-0.45198,0.124046,-0.303815,-0.472654,0.884078
530,-0.32192600000000005,-1.258913,-1.432504,-0.09708,0.951757,-0.291071,-2.7673360000000002,2.3790240000000002,-1.252017,-0.71487,0.320948,1.590876
531,-0.46916199999999997,-1.308817,-1.629592,-0.11709100000000001,0.965879,-0.230988,-3.4313339999999997,1.693557,-1.617904,-0.993826,1.347872,0.11766099999999999
532,-0.498619,-1.304095,-1.727611,-0.126023,0.9646459999999999,-0.231442,1.512558,2.728624,-1.014267,-0.227462,1.6992029999999998,-1.813816
533,-0.552181,-1.284709,-1.774268,-0.148016,0.959355,-0.240244,0.358138,-0.69812,-0.874798,-0.227167,-0.325414,1.331293
534,-0.557539,-1.273971,-1.792658,-0.154744,0.9562700000000001,-0.248175,0.033239,1.566875,-0.382178,0.10114,-1.020967,1.156104
535,-0.559167,-1.289583,-1.8597439999999998,-0.14720899999999998,0.9607190000000001,-0.235237,-1.908204,3.8443980000000004,-0.554618,0.033408999999999994,-0.6767529999999999,0.891762
536,-0.6689689999999999,-1.326419,-2.0485860000000002,-0.15003699999999998,0.9702879999999999,-0.189782,-3.4200169999999996,3.093233,-1.071621,-0.290163,-0.353177,0.762109
537,-0.923135,-1.3676,-2.337028,-0.16091,0.979427,-0.12173199999999999,-3.641683,0.177037,-0.479774,-0.42232600000000003,-0.072917,0.625211
538,-1.210431,-1.3935950000000001,-2.598201,-0.164916,0.984341,-0.062144000000000005,-2.0339009999999997,-2.470106,-0.026112,0.016403,0.482425,0.781458
539,-1.360596,-1.386736,-2.688201,-0.178956,0.983109,-0.038181,0.013687999999999999,-3.0681,-0.9072819999999999,0.355241,0.423263,0.634738
540,-1.39215,-1.36514,-2.661387,-0.200926,0.978927,-0.036282,0.409692,-2.778701,-0.895272,0.433791,0.288514,0.19001400000000002
541,-1.551202,-1.359153,-2.775619,-0.20999099999999998,0.9776870000000001,-0.004115,-2.732236,-1.9985099999999998,-0.139485,0.511688,-0.06843099999999999,-0.576589
542,-2.008872,-1.344027,3.0626349999999998,-0.203568,0.974398,0.095358,-5.411222,-0.618742,0.5247649999999999,0.46498100000000003,-0.044268,-0.372717
543,-2.3016919999999996,-1.306543,2.735579,-0.194451,0.9652879999999999,0.17433099999999999,-3.1524360000000002,2.654905,0.683762,0.145378,-0.157167,-0.13708399999999998
544,-2.350819,-1.300237,2.611933,-0.189979,0.963622,0.187948,-0.7711319999999999,3.479312,1.0454430000000001,0.153129,-0.122374,-0.338094
545,-2.390921,-1.2994860000000001,2.513168,-0.182785,0.9634209999999999,0.195942,-1.281528,2.1771700000000003,0.7829,-0.060348,-0.021435,-0.389378
546,-2.4750080000000003,-1.277583,2.399915,-0.17869100000000002,0.9573200000000001,0.22713699999999998,-2.056083,0.6959569999999999,0.243141,-0.286306,0.046846,-0.23464400000000002
547,-2.5349060000000003,-1.248149,2.335873,-0.180767,0.948399,0.260471,-1.451807,-0.198916,-0.269579,-0.16600499999999999,-0.20920300000000003,0.056927
548,-2.543603,-1.225462,2.3246729999999998,-0.19056199999999998,0.9409620000000001,0.27974899999999997,-0.8981549999999999,0.440576,-0.564565,-0.012913999999999998,-0.199034,0.177007
549,-2.532149,-1.202779,2.327568,-0.20592199999999997,0.933042,0.294978,-0.934802,0.152839,-0.77062,0.120976,0.078417,-0.173183
550,-2.5403580000000003,-1.177065,2.334634,-0.21699699999999997,0.923484,0.316344,-1.020626,-1.224984,-0.8570479999999999,0.167818,0.20980100000000002,-0.27522199999999997
551,-2.566711,-1.1488909999999999,2.337288,-0.22264899999999999,0.9123100000000001,0.343659,-1.206267,-1.377017,-0.771624,0.37091799999999997,0.168409,-0.569367
552,-2.585639,-1.124536,2.334735,-0.227766,0.902067,0.36658,-0.8681469999999999,-0.43854399999999993,-0.523705,0.43168500000000004,0.185472,-0.613834
553,-2.580708,-1.112183,2.339469,-0.235481,0.896667,0.374861,-0.290851,0.221398,-0.359217,0.24211799999999997,0.32927,-0.32192800000000005
554,-2.567252,-1.1049120000000001,2.348186,-0.24404,0.893425,0.37712199999999996,-0.14644100000000002,0.276407,-0.388189,0.13886099999999998,0.391487,-0.376375
555,-2.5441740000000004,-1.102848,2.368697,-0.253714,0.892496,0.37291399999999997,0.399989,0.247087,-0.455905,0.135413,0.47447799999999996,-0.444371
556,-2.508079,-1.110681,2.400473,-0.262859,0.896001,0.35786999999999997,0.927211,0.484141,-0.254905,0.297237,0.599726,-0.682348
557,-2.457559,-1.1337110000000001,2.442686,-0.26748299999999997,0.9059889999999999,0.32805700000000004,1.8844150000000002,0.671028,0.13076,0.472775,0.497896,-0.571206
558,-2.377959,-1.181067,2.5189630000000003,-0.262733,0.9250120000000001,0.274426,3.263315,0.294692,0.6066189999999999,0.391426,0.544089,-0.548459
559,-2.2598279999999997,-1.245007,2.647925,-0.247023,0.947398,0.203475,4.225043,-0.29347399999999996,0.871532,0.302657,0.581853,-0.469558
560,-2.054219,-1.3123879999999999,2.8732439999999997,-0.226237,0.9667979999999999,0.11876700000000001,4.506262,-0.8388110000000001,1.139114,-0.039464,0.762694,0.354484
561,-1.77967,-1.367872,-3.099632,-0.197126,0.9794809999999999,0.041783999999999995,4.162146,-1.343904,1.474916,-0.041658999999999995,0.79623,1.017375
562,-1.364059,-1.3992930000000001,-2.676209,-0.166998,0.9853290000000001,-0.035025,3.65001,1.000516,1.449106,-0.068873,0.781821,1.271628
563,-0.952534,-1.389831,-2.312245,-0.14663900000000002,0.98367,-0.10430299999999999,2.825873,3.4023489999999996,0.391278,-0.515486,0.7418239999999999,0.804574
564,-0.709433,-1.363418,-2.128256,-0.134105,0.9785739999999999,-0.1562,1.538246,2.245663,0.391243,-0.709859,0.31358600000000003,-0.153645
565,-0.6063890000000001,-1.372933,-2.018967,-0.11201400000000002,0.9804889999999999,-0.16150699999999998,0.091524,-1.331223,1.566107,-0.7614449999999999,0.198207,-0.376366
566,-0.394063,-1.351289,-1.78676,-0.083595,0.9760049999999999,-0.20103900000000002,2.9574700000000003,0.370714,1.319028,-0.29430500000000004,0.001519,0.562764
567,-0.232902,-1.302964,-1.6490369999999999,-0.061076,0.964347,-0.25748000000000004,2.499919,1.3362290000000001,0.823213,-0.155751,-0.26061100000000004,0.648472
568,-0.12632000000000002,-1.26581,-1.535025,-0.037829,0.953851,-0.29787399999999997,2.022671,-0.886042,1.528822,0.055544,-0.33205500000000004,0.751441
569,-0.036279,-1.221178,-1.413103,-0.012424,0.9395040000000001,-0.342302,2.523334,-1.324325,1.741184,0.588046,-0.301259,0.645097
570,0.015747999999999998,-1.175015,-1.324432,0.006071,0.922696,-0.385472,2.1647990000000004,-1.747427,1.56617,0.450945,-0.387707,0.621876
571,0.044662,-1.135274,-1.25404,0.018836000000000002,0.90665,-0.421455,1.8146400000000003,-1.717868,1.404521,0.29262699999999997,-0.30392800000000003,0.6732100000000001
572,0.055428,-1.103081,-1.20139,0.024977000000000003,0.8926,-0.45014899999999997,1.3970850000000001,-2.097677,1.110466,-0.473112,-0.689475,0.784148
573,0.034807,-1.079777,-1.162402,0.016409,0.8818530000000001,-0.471232,0.911484,-3.070875,0.882927,-0.411444,-0.735903,0.986231
574,-0.0025859999999999998,-1.072713,-1.1348719999999999,-0.001235,0.8785,-0.477734,-0.027485000000000002,-2.981986,0.514127,-0.275055,-0.824422,1.025922
575,-0.045383,-1.0850819999999999,-1.124274,-0.021179,0.884342,-0.46635200000000004,-0.982748,-2.2750619999999997,0.115579,-0.261704,-0.915637,0.972074
576,-0.09209500000000001,-1.117902,-1.1401700000000001,-0.04024,0.899185,-0.43570699999999996,-2.09828,-1.333528,-0.472396,-0.245725,-0.862533,0.723671
577,-0.167482,-1.1710120000000002,-1.196483,-0.064881,0.9211450000000001,-0.383763,-3.08625,-1.101275,-0.952817,-0.050246,-0.31595100000000004,0.153355
578,-0.268241,-1.231646,-1.294732,-0.08817,0.9430379999999999,-0.320775,-3.388433,0.134964,-1.086835,-0.204799,0.9448409999999999,-1.069331
579,-0.30274,-1.252069,-1.377018,-0.093419,0.949635,-0.299093,0.5014430000000001,3.2894730000000005,-0.521049,-0.367824,2.35223,-2.224756
580,-0.222904,-1.246617,-1.290109,-0.070412,0.9479120000000001,-0.310636,0.21616,-2.129106,2.000633,0.989403,0.748087,-0.8145319999999999
581,-0.17011400000000002,-1.255124,-1.182834,-0.05255599999999999,0.9505879999999999,-0.30595900000000004,-0.192307,-2.31652,1.537616,0.5391130000000001,-0.293758,-0.210383
582,-0.146707,-1.264836,-1.134116,-0.044029,0.953558,-0.297957,-0.500742,-0.12195999999999999,0.185621,-0.222359,-0.7356010000000001,0.35725300000000004
583,-0.200942,-1.284786,-1.210691,-0.056307,0.959377,-0.276433,-1.6591220000000002,1.188143,-1.4254129999999998,-0.8134140000000001,0.355213,0.957875
584,-0.32183,-1.322908,-1.357638,-0.0776,0.969433,-0.23273899999999997,-2.538523,0.993815,-1.084135,-0.098837,1.2552219999999998,-0.14194
585,-0.311923,-1.326316,-1.410285,-0.074276,0.9702629999999999,-0.23035,0.8587739999999999,3.165088,-0.6273529999999999,0.128063,0.8768440000000001,-0.5946779999999999
586,-0.294571,-1.306067,-1.424916,-0.075958,0.9651629999999999,-0.25035799999999997,0.729068,0.9782930000000001,-0.30285300000000004,-0.47766099999999995,-0.6802050000000001,1.204048
587,-0.307165,-1.306397,-1.444793,-0.07900900000000001,0.96525,-0.24907800000000002,-0.696815,-0.008822,-0.23143200000000003,-0.313402,-0.9151549999999999,0.821298
588,-0.366016,-1.332117,-1.513266,-0.084606,0.971651,-0.220737,-1.8675240000000002,0.976783,-0.604068,-0.290898,-0.591707,0.977298
589,-0.5127470000000001,-1.364272,-1.7047279999999998,-0.100583,0.97875,-0.17866400000000002,-2.547043,2.2578110000000002,-1.487466,-0.360614,-0.312139,0.712707
590,-0.7525689999999999,-1.392023,-1.9830310000000002,-0.121522,0.9840629999999999,-0.129775,-2.787932,1.2366979999999999,-1.134258,-0.44348000000000004,-0.062294,0.554107
591,-1.055841,-1.415407,-2.3016669999999997,-0.134659,0.987951,-0.076201,-2.640387,0.070234,-0.46729899999999996,-0.388153,0.197977,0.451629
592,-1.317186,-1.427066,-2.548189,-0.13861199999999999,0.9896889999999999,-0.035927,-1.352615,-1.426165,-0.064349,-0.051177,0.370648,0.503594
593,-1.401622,-1.422258,-2.595222,-0.14584,0.9889879999999999,-0.024909999999999998,0.276952,-1.972445,-0.462463,0.317456,0.237864,0.45139399999999996
594,-1.3981290000000002,-1.411195,-2.5512650000000003,-0.156524,0.987291,-0.027298000000000003,0.214369,-2.095932,-0.42962700000000004,0.491012,0.015792,-0.029541
595,-1.638344,-1.403406,-2.747357,-0.166193,0.986023,0.011243000000000001,-2.835768,-2.3705529999999997,-0.503992,0.512918,-0.20858800000000002,-0.396543
596,-2.062234,-1.382695,-3.1349299999999998,-0.16483399999999998,0.982361,0.088225,-3.5351879999999998,-1.927181,0.313085,0.388482,-0.076767,0.07710399999999999
597,-2.340529,-1.357958,2.877211,-0.15166500000000002,0.977435,0.14698599999999998,-2.527927,0.580903,0.665147,0.302055,-0.037555,0.401446
598,-2.466773,-1.337711,2.697135,-0.144288,0.972958,0.180331,-1.828384,3.197762,0.988215,0.115067,-0.09083300000000001,0.056059000000000005
599,-2.544318,-1.323361,2.5391209999999997,-0.137723,0.9695440000000001,0.202492,-1.704739,4.126233999999999,0.99323,-0.066561,-0.002518,-0.331047
600,-2.579789,-1.298411,2.4238310000000003,-0.14330199999999998,0.963132,0.227656,-1.8505919999999998,2.9845349999999997,0.252328,-0.293085,0.03345,-0.756312
601,-2.6094060000000003,-1.273327,2.376058,-0.148713,0.956081,0.25254499999999996,-1.154628,-0.078425,-0.277269,-0.132827,-0.028437999999999998,-0.140835
602,-2.608157,-1.251688,2.3750400000000003,-0.15951300000000002,0.949516,0.27011399999999997,-0.8708290000000001,0.56525,-0.584828,0.111799,-0.116172,0.243604
603,-2.579071,-1.233654,2.3808740000000004,-0.17640699999999998,0.9437040000000001,0.279802,-0.616924,1.285511,-0.572227,0.128692,-0.11035999999999999,0.233915
604,-2.5607,-1.214336,2.3910869999999997,-0.191487,0.9371379999999999,0.29170300000000005,-0.915869,-0.337387,-0.7249909999999999,0.236546,0.218685,-0.328812
605,-2.6067299999999998,-1.1808319999999999,2.379468,-0.19376400000000002,0.9249229999999999,0.327045,-1.8837720000000002,-2.472237,-0.675605,0.387489,0.16611099999999998,-0.5144380000000001
606,-2.670175,-1.1460629999999998,2.363167,-0.187136,0.911149,0.367113,-1.09627,-1.771621,-0.475517,0.316195,0.301406,-0.5370199999999999
607,-2.659063,-1.138917,2.3760830000000004,-0.19422,0.9081809999999999,0.37077,-0.043035000000000004,0.760683,-0.359242,0.190406,0.317817,-0.375821
608,-2.632757,-1.1316030000000001,2.383123,-0.20713600000000001,0.9050950000000001,0.371323,-0.273276,0.8805,-0.286229,0.2516,0.49268599999999996,-0.30357399999999995
609,-2.613061,-1.130066,2.3954779999999998,-0.21511,0.9044399999999999,0.368374,0.27086,0.213709,-0.243117,0.257911,0.5111479999999999,-0.389019
610,-2.591927,-1.1388969999999998,2.4129970000000003,-0.218666,0.908172,0.356921,0.796421,0.403554,0.043389,0.261223,0.543625,-0.48147799999999996
611,-2.55735,-1.16544,2.439345,-0.217498,0.9189620000000001,0.328921,1.853574,0.48157,0.39570900000000003,0.393127,0.707213,-0.482012
612,-2.50864,-1.216294,2.48975,-0.205321,0.9378190000000001,0.279864,3.0190509999999997,-0.189976,0.822385,0.322875,0.847398,-0.49060299999999996
613,-2.426612,-1.283248,2.5896049999999997,-0.185915,0.958942,0.21413200000000002,3.994732,-0.758067,0.850225,0.05652000000000001,0.583172,-0.5327350000000001
614,-2.217868,-1.357323,2.81264,-0.169006,0.977301,0.1277,4.603236,-0.210461,0.842023,-0.24612399999999998,0.43807399999999996,-0.305877
615,-1.881523,-1.4158979999999999,-3.119784,-0.146857,0.988027,0.04716,3.9334269999999996,-0.5004689999999999,1.219071,-0.21350999999999998,0.542338,0.599309
616,-1.362926,-1.444804,-2.5994610000000002,-0.122912,0.992073,-0.025924000000000003,3.471191,0.75965,1.112747,-0.33859,0.737495,0.985137
617,-0.8795700000000001,-1.424356,-2.150275,-0.112397,0.989297,-0.092997,3.03893,2.389448,-0.07702200000000001,-0.543975,0.257362,0.697245
618,-0.625926,-1.374306,-1.948641,-0.11435999999999999,0.980758,-0.158198,2.8652439999999997,2.707158,-0.5230229999999999,-0.577336,0.087525,0.446788
619,-0.53675,-1.351205,-1.867418,-0.111376,0.975987,-0.18717999999999999,0.42183100000000007,-1.188896,0.613241,-0.5414100000000001,0.078152,-0.48426800000000003
620,-0.415386,-1.338545,-1.7125,-0.092875,0.973151,-0.21057800000000002,2.477387,-0.590503,1.30088,-0.198873,0.13147899999999998,0.390296
621,-0.27198,-1.28631,-1.5722399999999999,-0.075393,0.9598059999999999,-0.270334,3.132316,0.382457,0.642979,-0.006409000000000001,-0.011533,0.628488
622,-0.177368,-1.232515,-1.466151,-0.058552,0.943326,-0.32664899999999997,2.891747,-0.60325,1.1991049999999999,0.376027,-0.06175,0.797154
623,-0.11003099999999999,-1.1765510000000001,-1.382735,-0.042178,0.9232870000000001,-0.381779,3.0077220000000002,-0.44712399999999997,0.949751,0.220721,-0.203621,0.6597029999999999
624,-0.073425,-1.118994,-1.321261,-0.032027,0.8996620000000001,-0.435404,2.90272,-1.359185,1.086919,0.141189,-0.210392,0.654352
625,-0.051688,-1.067748,-1.265963,-0.024907,0.876117,-0.48144799999999993,2.476474,-1.247967,1.0827309999999999,-0.041331,-0.30154699999999995,0.6599
626,-0.041803,-1.021947,-1.221773,-0.021802000000000002,0.853125,-0.521245,2.265199,-1.619564,0.9535450000000001,-0.23103600000000002,-0.407172,0.756505
627,-0.047106,-0.9844799999999999,-1.184967,-0.026054,0.8329850000000001,-0.552678,1.632524,-1.9249580000000002,0.8843549999999999,-0.29609,-0.498237,0.8008770000000001
628,-0.06362899999999999,-0.96372,-1.153067,-0.036273,0.821319,-0.56931,0.746012,-2.248495,0.777097,-0.158093,-0.596252,0.847844
629,-0.090167,-0.9611639999999999,-1.131451,-0.051556,0.819858,-0.570236,-0.185613,-2.087595,0.5086689999999999,-0.162433,-0.698032,0.870483
630,-0.119496,-0.977295,-1.124506,-0.06667100000000001,0.828987,-0.5552739999999999,-1.127052,-1.590729,0.147874,-0.038477,-0.6614760000000001,0.694846
631,-0.156283,-1.009779,-1.132583,-0.082811,0.846714,-0.525559,-1.925559,-1.417776,-0.053409000000000005,0.237429,-0.5875279999999999,0.16362000000000002
632,-0.19184,-1.056645,-1.155154,-0.09376699999999999,0.870711,-0.48276800000000003,-2.677409,-0.311992,-0.20749299999999998,0.219347,-0.299849,-0.698171
633,-0.200026,-1.10838,-1.1868809999999999,-0.088639,0.894977,-0.43721000000000004,-2.463341,2.052938,-0.131048,0.060212,0.96864,-1.446136
634,-0.172902,-1.140279,-1.196053,-0.071799,0.90875,-0.41111099999999995,-1.048977,0.41465799999999997,0.21208000000000002,-0.198053,1.643084,-1.458961
635,-0.186291,-1.157516,-1.1788370000000001,-0.074384,0.915808,-0.39465900000000004,-0.6924739999999999,-1.9363119999999998,0.677986,0.036435,0.249246,-0.465159
636,-0.196863,-1.168881,-1.153309,-0.076511,0.9203129999999999,-0.383617,-0.344478,-1.4337010000000001,0.426604,-0.045071,-0.374033,-0.025654000000000003
637,-0.215594,-1.1772850000000001,-1.16394,-0.082025,0.9235680000000001,-0.374548,-0.6806220000000001,0.282905,-0.458158,-0.683279,0.364304,0.392782
638,-0.253459,-1.194084,-1.220292,-0.092241,0.9298790000000001,-0.356102,-1.2206489999999999,0.474211,-0.943944,-0.35899200000000003,0.28475100000000003,0.523079
639,-0.310602,-1.2258229999999999,-1.274818,-0.103352,0.9410850000000001,-0.32197800000000004,-2.108565,-0.112205,-0.046747000000000004,0.230305,1.0222790000000002,-0.490171
640,-0.283871,-1.249392,-1.294468,-0.08847100000000001,0.948793,-0.303244,-0.7119800000000001,2.4165080000000003,-0.128894,-0.169036,0.026931,0.338217
641,-0.30212,-1.262151,-1.328219,-0.09038099999999999,0.9527459999999999,-0.289997,-0.8359620000000001,0.5416479999999999,-0.294,-0.24886799999999998,-0.638491,1.1292
642,-0.31354899999999997,-1.281441,-1.368471,-0.088003,0.9584280000000001,-0.271408,-1.3862219999999998,1.7740049999999998,-0.307969,-0.365534,-0.390328,0.68042
643,-0.363318,-1.318192,-1.4662600000000001,-0.088812,0.9682649999999999,-0.23359499999999997,-2.5848619999999998,2.53036,-0.8685129999999999,-0.344507,-0.204074,0.6024
644,-0.511721,-1.362306,-1.679455,-0.10134299999999999,0.978345,-0.180448,-3.184104,3.006585,-1.4255799999999998,-0.427587,-0.039258,0.506406
645,-0.747693,-1.398274,-1.9630869999999998,-0.116704,0.9851549999999999,-0.125854,-2.856407,1.285734,-0.803654,-0.298228,-0.024294,0.420807
646,-1.025357,-1.425665,-2.2370669999999997,-0.12360299999999999,0.9894870000000001,-0.075008,-2.338011,-1.1327770000000001,-0.104726,-0.030266,0.101639,0.536755
647,-1.3089959999999998,-1.438533,-2.4886150000000002,-0.127341,0.991266,-0.034121,-1.466118,-1.877961,-0.188479,0.22871999999999998,0.239752,0.611514
648,-1.443924,-1.4342059999999999,-2.592315,-0.135025,0.9906860000000001,-0.017224,-0.182417,-1.35628,-0.42587200000000003,0.425675,0.172247,0.385784
649,-1.448461,-1.425653,-2.574847,-0.14351,0.9894850000000001,-0.017644,0.22078699999999998,-1.043803,-0.330521,0.511262,0.096834,0.061498000000000004
650,-1.510433,-1.425067,-2.614729,-0.144905,0.9894,-0.008758,-0.8440799999999999,-1.1376,0.072358,0.429146,-0.07973200000000001,-0.360948
651,-1.8581330000000003,-1.423339,-2.952356,-0.14085599999999998,0.9891479999999999,0.041625,-3.171152,-0.421154,0.345742,0.345308,-0.07825900000000001,-0.27824299999999996
652,-2.246436,-1.4039709999999999,2.934282,-0.12953800000000001,0.986117,0.10382100000000001,-2.944755,0.693041,0.7026819999999999,0.256277,-0.165225,0.22891199999999998
653,-2.468673,-1.3819549999999998,2.670818,-0.116976,0.9822219999999999,0.146768,-2.089979,2.443434,0.990556,0.11084200000000001,-0.190154,0.012855000000000002
654,-2.5987419999999997,-1.364588,2.479698,-0.105749,0.978814,0.175281,-1.676797,3.019231,1.0279559999999999,0.048407,-0.124673,0.0037649999999999997
655,-2.686629,-1.3423049999999999,2.3231490000000004,-0.09951900000000001,0.974009,0.203435,-1.890261,3.336918,0.888257,-0.027419,-0.030268,-0.073598
656,-2.74872,-1.307834,2.202433,-0.099505,0.9656239999999999,0.240108,-2.237444,2.007556,0.365175,-0.376264,-0.161852,-0.46691400000000005
657,-2.77299,-1.276694,2.174464,-0.10443699999999999,0.9570629999999999,0.270382,-1.14222,-0.815943,-0.45356499999999994,-0.240274,-0.100724,-0.095196
658,-2.776237,-1.257351,2.186874,-0.110153,0.951277,0.28796,-0.798077,-0.331938,-0.577832,-0.068298,-0.004866,0.133381
659,-2.752797,-1.2362739999999999,2.201377,-0.124447,0.944567,0.303789,-0.934841,0.810513,-0.5781149999999999,0.204555,0.211439,-0.132372
660,-2.732577,-1.213773,2.209339,-0.138983,0.936941,0.320635,-1.0533,0.32729400000000003,-0.579391,0.25376,0.30445300000000003,-0.32036
661,-2.746594,-1.1828450000000001,2.20761,-0.14556,0.925686,0.34914,-1.7153909999999999,-1.196029,-0.543608,0.29193800000000003,0.272846,-0.504475
662,-2.780831,-1.1522,2.197014,-0.143473,0.91366,0.38029,-0.966672,-0.759694,-0.286837,0.140772,0.287893,-0.266123
663,-2.762438,-1.1474959999999998,2.206134,-0.152032,0.9117379999999999,0.381575,-0.001576,1.0882040000000002,-0.23546199999999998,0.150506,0.284978,-0.23806599999999997
664,-2.733305,-1.141254,2.210245,-0.165339,0.909157,0.382201,-0.364084,1.1830399999999999,-0.19431800000000002,0.200282,0.311211,-0.206984
665,-2.714315,-1.136551,2.2169659999999998,-0.174337,0.9071879999999999,0.38288,0.038627999999999996,0.30613,-0.229906,0.23055,0.567284,-0.35532199999999997
666,-2.700104,-1.1411069999999999,2.230925,-0.177992,0.9090950000000001,0.37662199999999996,0.507365,0.04935,-0.091706,0.263029,0.644875,-0.320913
667,-2.683208,-1.160199,2.247178,-0.17661500000000002,0.916883,0.357928,1.3404479999999999,0.097354,0.23451799999999998,0.308741,0.623782,-0.263736
668,-2.663536,-1.200069,2.271601,-0.16666199999999998,0.9320639999999999,0.321653,2.399337,-0.322334,0.652648,0.07059299999999999,0.712498,-0.735471
669,-2.635829,-1.259466,2.314459,-0.148392,0.9519270000000001,0.267948,3.279923,-0.800035,0.802553,-0.10539200000000001,0.496209,-0.89838
670,-2.527437,-1.335856,2.437318,-0.134125,0.9725280000000001,0.19021500000000002,4.660787,-0.148228,0.44068999999999997,-0.37411500000000003,0.30133699999999997,-0.33015300000000003
671,-2.249295,-1.407627,2.720917,-0.126427,0.986717,0.101923,4.136207,-0.076086,0.436934,-0.085685,0.276375,0.969183
672,-1.79408,-1.452648,-3.1128,-0.11488399999999999,0.993029,0.026087,3.667437,1.061078,0.714213,-0.083877,0.351713,1.039892
673,-1.144017,-1.458841,-2.501582,-0.101641,0.99374,-0.046219,3.185486,2.716236,0.40321399999999996,-0.537916,0.41478400000000004,0.756989
674,-0.739206,-1.419557,-2.154811,-0.101472,0.988585,-0.11130799999999999,2.972913,2.992057,-0.455338,-0.640243,0.22599899999999998,0.010554000000000001
675,-0.541511,-1.374868,-1.990421,-0.100326,0.980867,-0.166797,1.9926279999999998,0.320241,0.153329,-0.626603,0.297804,-0.516584
676,-0.493381,-1.3726559999999999,-1.8890959999999999,-0.093212,0.980434,-0.173341,0.35055,-3.526624,1.081483,-0.185505,0.28841,0.22956999999999997
677,-0.366778,-1.332597,-1.734804,-0.084606,0.971764,-0.220235,3.274676,0.360036,0.278669,0.021556,-0.10294400000000001,0.54894
678,-0.24286999999999997,-1.276932,-1.6283040000000002,-0.069654,0.957132,-0.281134,2.80108,0.874237,0.770357,0.09539500000000001,-0.096093,0.6693939999999999
679,-0.157851,-1.2326059999999999,-1.5407629999999999,-0.052152,0.943357,-0.32764,2.390927,-0.0962,0.852057,0.135572,-0.229764,0.637332
680,-0.10865799999999999,-1.1823489999999999,-1.477254,-0.041072000000000004,0.9254979999999999,-0.376506,2.710401,-0.7777229999999999,0.77825,0.16558399999999998,-0.29946,0.559916
681,-0.07903099999999999,-1.133159,-1.42272,-0.033458,0.9057559999999999,-0.422467,2.4330990000000003,-1.100068,0.9102540000000001,0.196208,-0.303186,0.608762
682,-0.054733000000000004,-1.090217,-1.375685,-0.025289,0.886727,-0.461592,2.095342,-0.8004640000000001,0.8711909999999999,-0.0057009999999999995,-0.5280229999999999,0.6164229999999999
683,-0.043317,-1.0523790000000002,-1.3383260000000001,-0.021457,0.868604,-0.49503400000000003,1.7992860000000002,-1.270883,0.75329,-0.135236,-0.6536390000000001,0.726921
684,-0.049093,-1.024467,-1.308167,-0.025496,0.8544370000000001,-0.518922,1.162744,-1.7307029999999999,0.677862,-0.145723,-0.723593,0.746217
685,-0.066352,-1.011984,-1.2845600000000001,-0.035151999999999996,0.847886,-0.5290060000000001,0.351962,-1.90715,0.484418,-0.090366,-0.7011109999999999,0.792205
686,-0.09523,-1.0148270000000001,-1.27354,-0.050183,0.849389,-0.525369,-0.377616,-1.901387,0.209054,-0.097629,-0.693994,0.746225
687,-0.13385899999999998,-1.0313940000000001,-1.275766,-0.068547,0.858016,-0.509022,-1.14096,-1.800743,-0.054916999999999994,0.085408,-0.656111,0.169255
688,-0.181921,-1.068167,-1.291296,-0.087153,0.8763190000000001,-0.473774,-2.390469,-1.635404,-0.092698,0.121592,-0.414542,-0.795772
689,-0.240457,-1.12779,-1.329143,-0.10208099999999999,0.903467,-0.416315,-3.3003169999999997,-0.885548,-0.34463699999999997,-0.30845700000000004,0.8400780000000001,-1.4493770000000001
690,-0.266276,-1.17326,-1.374844,-0.101871,0.922018,-0.373492,-1.7121549999999999,1.6623560000000002,-0.064412,-0.652157,1.782618,-1.32066
691,-0.24434099999999997,-1.1906780000000001,-1.3661590000000001,-0.089755,0.9286209999999999,-0.35999699999999996,-0.345549,-0.128101,0.5467,0.15755,0.32922199999999996,-0.504031
692,-0.226805,-1.185096,-1.330285,-0.084594,0.926535,-0.366562,0.849201,-0.9012979999999999,0.528263,-0.179841,-0.248923,-0.333878
693,-0.21857600000000002,-1.162967,-1.300638,-0.086,0.917984,-0.38716999999999996,1.306235,-1.1656520000000001,0.17394,-0.289503,-0.35972600000000005,-0.239341
694,-0.26154299999999997,-1.15809,-1.306475,-0.103708,0.9160389999999999,-0.38744,-0.9484290000000001,-1.818059,-0.41995,-0.094794,0.108299,1.301792
695,-0.343828,-1.210944,-1.3890049999999998,-0.118698,0.935949,-0.331513,-3.6193129999999996,0.595961,-0.528225,0.055359000000000005,1.026576,0.302018
696,-0.306785,-1.247025,-1.425231,-0.096074,0.948042,-0.303275,-0.208429,4.295079,-0.14274,-0.512462,1.622606,-1.018624
697,-0.340397,-1.241341,-1.464907,-0.10800799999999999,0.946219,-0.30495,-0.317816,-0.787304,-0.592054,-0.313684,-0.419501,1.4459110000000002
698,-0.380446,-1.256959,-1.500773,-0.114629,0.951156,-0.286623,-1.415405,-0.022647,-0.12106900000000001,-0.146846,-0.630035,0.8201309999999999
699,-0.42702399999999996,-1.296856,-1.566008,-0.112034,0.9627129999999999,-0.246216,-2.560464,1.543168,-0.15884700000000002,-0.119457,-0.656667,0.9241030000000001
700,-0.505794,-1.342622,-1.7082220000000001,-0.109582,0.974081,-0.197855,-2.9326790000000003,3.5380629999999997,-0.80921,0.042474,-0.3234,0.67547
701,-0.686686,-1.373944,-1.9567900000000003,-0.123975,0.9806870000000001,-0.15123,-2.532773,2.409948,-1.42454,-0.10042000000000001,-0.077657,0.520035
702,-0.909468,-1.390732,-2.189014,-0.141308,0.9838319999999999,-0.109971,-1.8971770000000001,-1.052592,-0.54613,-0.131855,0.190332,0.556977
703,-1.105648,-1.402971,-2.346086,-0.149256,0.98595,-0.074908,-1.178652,-2.2177919999999998,-0.157195,0.151255,0.432675,0.686954
704,-1.220274,-1.403023,-2.4339009999999996,-0.156796,0.985959,-0.057328,-0.403105,-0.7656229999999999,-0.345918,0.39819,0.186145,0.258194
705,-1.257725,-1.402357,-2.46909,-0.159456,0.985848,-0.051619000000000005,-0.332321,-0.033556,0.069176,0.43144399999999994,0.092949,0.048139999999999995
706,-1.383291,-1.412856,-2.5869299999999997,-0.15448299999999998,0.987553,-0.029311,-1.769743,-0.767936,0.350633,0.43722799999999995,-0.071232,-0.220705
707,-1.834009,-1.420695,-3.020595,-0.144337,0.988756,0.038894,-3.9616339999999997,-1.034292,0.6614720000000001,0.180623,-0.183534,0.21466100000000002
708,-2.3118849999999997,-1.39737,2.779216,-0.12726600000000002,0.984999,0.11646,-3.621894,0.793463,0.9638100000000001,0.091835,-0.198485,0.330729
709,-2.54727,-1.364244,2.487027,-0.11481400000000001,0.9787440000000001,0.16988399999999998,-2.64443,3.28251,1.0411549999999998,-0.038049,-0.256652,-0.128029
710,-2.640518,-1.3410879999999998,2.323317,-0.109358,0.973733,0.199667,-1.516764,3.245562,0.7788189999999999,-0.165346,-0.103082,-0.253805
711,-2.664724,-1.322709,2.2387080000000004,-0.11269100000000001,0.969384,0.218123,-1.255255,2.502168,0.244283,-0.22954899999999998,0.055534,-0.304458
712,-2.687338,-1.2968110000000002,2.1886959999999998,-0.118709,0.9627,0.243101,-1.544016,0.544587,-0.136581,0.041897000000000004,0.007347,-0.236539
713,-2.720587,-1.2683440000000001,2.157318,-0.121717,0.954609,0.27182399999999995,-1.392983,-0.35681799999999997,-0.221965,0.148847,0.035091000000000004,-0.099583
714,-2.733954,-1.243477,2.146179,-0.127447,0.946908,0.295135,-1.083115,0.03488,-0.409378,0.14824500000000002,0.096763,-0.076034
715,-2.7259759999999997,-1.222588,2.150321,-0.137755,0.9399860000000001,0.31214000000000003,-0.881106,0.243414,-0.519329,0.19226,0.242525,-0.176215
716,-2.720883,-1.19995,2.154427,-0.147998,0.9320209999999999,0.330778,-1.146189,-0.100823,-0.5175350000000001,0.23532399999999998,0.155824,-0.488874
717,-2.732075,-1.173465,2.1486110000000003,-0.154064,0.9220969999999999,0.354939,-1.1786809999999999,-0.304747,-0.375427,0.198711,0.299491,-0.632725
718,-2.731075,-1.158631,2.150168,-0.159861,0.916256,0.367287,-0.354241,0.175752,-0.306191,0.140573,0.287815,-0.254052
719,-2.71266,-1.154363,2.161404,-0.168222,0.914537,0.36783499999999997,-0.027372000000000004,0.5038229999999999,-0.303259,0.19588599999999998,0.270704,-0.17560499999999998
720,-2.687084,-1.153702,2.178313,-0.177839,0.91427,0.363956,0.21798800000000002,0.484912,-0.31540799999999997,0.258253,0.28583400000000003,-0.273838
721,-2.662107,-1.157718,2.196296,-0.185177,0.915889,0.356139,0.43767799999999996,0.365346,-0.17592,0.146298,0.55753,-0.753844
722,-2.634863,-1.172809,2.220153,-0.18808,0.9218430000000001,0.33883800000000003,1.2683389999999999,0.213633,0.013811000000000002,0.179077,0.606813,-0.6177229999999999
723,-2.580836,-1.210293,2.274497,-0.187584,0.9357190000000001,0.298699,2.666234,0.18366400000000002,0.16889200000000001,0.262734,0.602855,-0.598382
724,-2.486641,-1.268966,2.3717029999999997,-0.181053,0.954794,0.235731,3.656417,0.02988,0.47190299999999996,0.15251900000000002,0.58172,-0.60095
725,-2.294151,-1.3391680000000001,2.570074,-0.172048,0.9732940000000001,0.151922,4.625286,0.076502,0.493566,0.095342,0.475498,-0.288946
726,-1.9785419999999998,-1.399697,2.895689,-0.15626199999999998,0.985398,0.067498,4.107494,-0.408577,1.036432,0.17591600000000002,0.6562640000000001,0.9402379999999999
727,-1.49361,-1.43992,-2.892058,-0.130057,0.991448,-0.010059,3.8795599999999997,0.060454999999999995,1.4220030000000001,-0.173227,0.886497,0.9479860000000001
728,-0.934682,-1.437125,-2.346474,-0.10716500000000001,0.991079,-0.079144,2.997574,1.3340239999999999,0.714525,-0.48460200000000003,0.662684,0.721691
729,-0.656352,-1.400627,-2.100178,-0.10331900000000001,0.985556,-0.134132,2.469854,1.855443,-0.283275,-0.578535,0.273309,0.46971899999999994
730,-0.5186569999999999,-1.362077,-1.994594,-0.102702,0.978297,-0.17993199999999998,1.8489099999999998,1.3931930000000001,-0.031715,-0.450979,0.004369,-0.25032
731,-0.43017700000000003,-1.358722,-1.882595,-0.087769,0.9775959999999999,-0.19128699999999998,0.23349899999999998,-2.362305,1.4669379999999999,-0.313278,0.16196,-0.098371
732,-0.289312,-1.328853,-1.713428,-0.068347,0.970874,-0.22961199999999998,2.846631,-0.42948500000000006,0.964627,-0.016888999999999998,-0.09714099999999999,0.535749
733,-0.177067,-1.277619,-1.606739,-0.050901999999999996,0.9573299999999999,-0.28446,2.6232759999999997,0.725735,0.776784,0.067686,-0.34992399999999996,0.812277
734,-0.09632,-1.2337200000000001,-1.526709,-0.031805,0.9437260000000001,-0.32918200000000003,2.265572,-0.109984,0.955886,0.106146,-0.386322,0.722417
735,-0.06209099999999999,-1.18595,-1.460824,-0.023294,0.9268559999999999,-0.374682,2.602537,-2.255675,0.986626,0.252405,-0.301291,0.700839
736,-0.057865,-1.138824,-1.404324,-0.024212,0.908142,-0.41795299999999996,2.223957,-1.95618,1.0103030000000002,0.13937,-0.276855,0.665039
737,-0.028794999999999998,-1.102218,-1.3524200000000002,-0.013003,0.8922110000000001,-0.45142299999999996,1.7247880000000002,-0.5151979999999999,0.994288,-0.125532,-0.33113000000000004,0.573387
738,-0.017452000000000002,-1.070438,-1.315674,-0.008372,0.877411,-0.479659,1.521867,-1.5329190000000001,0.733529,-0.328329,-0.470276,0.815505
739,-0.035916000000000003,-1.0472270000000001,-1.288913,-0.017953,0.8660399999999999,-0.499645,0.900695,-2.2437549999999997,0.547435,-0.322944,-0.702008,0.933193
740,-0.063693,-1.040006,-1.269991,-0.03222,0.8624069999999999,-0.505182,0.06346399999999999,-2.115511,0.371575,-0.209632,-0.809658,0.926477
741,-0.095509,-1.049657,-1.26581,-0.047478,0.867252,-0.495593,-0.808025,-1.504823,-0.009173,-0.169441,-0.806477,0.864382
742,-0.131736,-1.076116,-1.283088,-0.062360000000000006,0.8801200000000001,-0.47063,-1.7025860000000002,-0.823674,-0.40833200000000003,-0.084628,-0.599679,0.41694899999999996
743,-0.182042,-1.118766,-1.323679,-0.079074,0.8995620000000001,-0.429566,-2.478977,-0.7677649999999999,-0.662722,-0.029675,-0.044673000000000004,-0.5424640000000001
744,-0.258784,-1.158336,-1.3832950000000002,-0.10258099999999999,0.9161370000000001,-0.387506,-1.8001790000000002,-1.355349,-0.8302799999999999,-0.047688,0.5218510000000001,-1.371481
745,-0.274541,-1.160143,-1.396476,-0.108225,0.91686,-0.384248,0.45798,0.239371,0.406564,0.392099,1.9919080000000002,-1.440657
746,-0.261651,-1.153391,-1.353298,-0.10486199999999998,0.9141440000000001,-0.39158200000000004,0.634947,-1.8324150000000001,0.741604,-0.027752,-0.43739799999999995,-0.42276400000000003
747,-0.241794,-1.150531,-1.302003,-0.097692,0.9129809999999999,-0.396124,0.184424,-1.125766,1.0387899999999999,-0.101893,-0.5873729999999999,-0.27398
748,-0.23244499999999998,-1.158583,-1.271947,-0.092288,0.916236,-0.389854,-0.52347,-0.698878,0.393434,-0.431043,-0.12906600000000001,0.42621499999999996
749,-0.252465,-1.178619,-1.2961479999999999,-0.095468,0.9240790000000001,-0.370075,-1.357634,0.718435,-0.6044510000000001,-0.762045,0.5145649999999999,0.466038
750,-0.293373,-1.198112,-1.3562670000000001,-0.10529300000000001,0.9313530000000001,-0.348548,-0.951045,0.6088939999999999,-0.736067,-0.201165,1.092832,-0.5014890000000001
751,-0.28644200000000003,-1.207647,-1.362519,-0.100361,0.934783,-0.340735,-0.364181,0.42179300000000003,0.25531,0.590946,0.769563,-0.525674
752,-0.316162,-1.2083709999999999,-1.383601,-0.110231,0.93504,-0.336959,-0.007037999999999999,-0.23761500000000002,-0.585246,-0.261488,-0.8656729999999999,1.5036
753,-0.326354,-1.211611,-1.4041,-0.11268800000000001,0.936183,-0.332947,-0.638293,0.583869,-0.077962,-0.386381,-0.730754,1.044846
754,-0.34352,-1.244577,-1.4367860000000001,-0.107929,0.947261,-0.30172899999999997,-2.458475,0.617714,-0.037308,-0.45661599999999997,-0.371791,0.684129
755,-0.433383,-1.300244,-1.558229,-0.112228,0.963623,-0.24254,-3.451683,2.049303,-1.004275,-0.237641,-0.206421,0.864762
756,-0.603956,-1.341769,-1.794182,-0.128918,0.9738879999999999,-0.18684800000000001,-3.034185,3.1275,-1.666106,-0.214817,-0.049297,0.623296
757,-0.811455,-1.366225,-2.049352,-0.147321,0.9791479999999999,-0.139837,-2.614845,1.227032,-0.9610559999999999,-0.220873,0.122445,0.418279
758,-1.063093,-1.391853,-2.294568,-0.15550999999999998,0.984032,-0.086517,-2.604453,-1.5047620000000002,-0.06551799999999999,-0.075127,0.291267,0.407684
759,-1.352133,-1.409417,-2.5429470000000003,-0.156815,0.987007,-0.034847,-1.969257,-2.296624,0.007232,0.23619099999999998,0.31153200000000003,0.49287
760,-1.5323200000000001,-1.405678,-2.6901610000000002,-0.164208,0.986399,-0.006321,-0.657883,-1.374366,-0.528515,0.47622,0.190176,0.287525
761,-1.587821,-1.3949129999999998,-2.725143,-0.17491600000000002,0.9845719999999999,0.002978,-0.399329,-0.840408,-0.549826,0.599705,-0.100234,-0.382128
762,-1.7612150000000002,-1.3834899999999999,-2.903885,-0.182811,0.982509,0.035238,-2.2802729999999998,0.337127,-0.086978,0.419857,-0.110576,-0.31749499999999997
763,-2.015038,-1.378015,3.117725,-0.172959,0.981475,0.082324,-2.276359,0.12291099999999999,0.731582,0.228593,-0.112701,0.167874
764,-2.208025,-1.370914,2.901675,-0.159557,0.98009,0.118111,-1.926411,1.609638,0.794078,0.155055,-0.218142,-0.028710000000000003
765,-2.362324,-1.360055,2.705971,-0.146981,0.977876,0.148793,-1.8075139999999998,1.8802020000000002,0.9612040000000001,0.12055199999999999,-0.179109,0.042933
766,-2.488818,-1.346925,2.531707,-0.134823,0.975045,0.176334,-1.713228,2.4964560000000002,1.014484,-0.026827999999999998,0.033545,-0.096881
767,-2.5885290000000003,-1.325336,2.372161,-0.127631,0.970026,0.206747,-2.044191,2.692409,0.7833220000000001,-0.272867,0.042242,-0.460425
768,-2.6356889999999997,-1.2992299999999999,2.2829650000000004,-0.129974,0.9633520000000001,0.23461300000000002,-1.3821290000000002,1.36471,0.035483,-0.241608,-0.036487,-0.332392
769,-2.644195,-1.279125,2.266368,-0.13719,0.957765,0.252685,-0.8377600000000001,-0.03704,-0.473801,-0.028214999999999997,-0.015153,0.035874
770,-2.629899,-1.2609,2.282754,-0.149312,0.952365,0.265876,-0.5921649999999999,0.026955,-0.6943600000000001,0.108083,0.066861,0.16881600000000002
771,-2.607879,-1.243916,2.30056,-0.16333599999999998,0.947049,0.276411,-0.665536,0.363656,-0.64937,0.165899,0.19237100000000001,0.070634
772,-2.597092,-1.2219799999999998,2.304875,-0.177029,0.9397780000000001,0.292338,-1.034265,0.281596,-0.5877479999999999,0.27473200000000003,0.120983,-0.054164
773,-2.6042549999999998,-1.195814,2.295618,-0.18745699999999998,0.930514,0.31462199999999996,-1.3351819999999999,-0.156445,-0.54015,0.387362,0.152723,-0.424562
774,-2.640052,-1.160216,2.2769209999999998,-0.191887,0.916889,0.349965,-1.8988080000000003,-1.4104459999999999,-0.541412,0.295693,0.279125,-0.455495
775,-2.6714689999999996,-1.1356600000000001,2.267832,-0.190944,0.9068129999999999,0.375783,-0.532482,-0.621146,-0.376919,0.20330299999999998,0.367083,-0.23969000000000001
776,-2.654243,-1.130034,2.277658,-0.199774,0.9044270000000001,0.37694099999999997,-0.154083,0.8163590000000001,-0.28425100000000003,0.234625,0.48900600000000005,-0.28897399999999995
777,-2.63096,-1.1248,2.2861759999999998,-0.21080700000000002,0.9021809999999999,0.376313,-0.024525,0.66577,-0.300244,0.240958,0.513789,-0.36540300000000003
778,-2.603556,-1.1281290000000002,2.306906,-0.219498,0.9036120000000001,0.367815,0.631764,0.285066,-0.23642,0.27797,0.680998,-0.245363
779,-2.578041,-1.1467129999999999,2.3346459999999998,-0.21980100000000002,0.911416,0.34783800000000004,1.37724,-0.128053,0.130375,0.317168,0.754965,-0.14690999999999999
780,-2.550532,-1.1824059999999998,2.371033,-0.211015,0.9255200000000001,0.31443499999999996,2.194887,-0.391207,0.494278,0.2007,0.8616510000000001,-0.255521
781,-2.5165610000000003,-1.23072,2.425141,-0.195159,0.942729,0.27047899999999997,2.713781,-1.134931,0.617428,-0.023469,0.388371,-0.700136
782,-2.432204,-1.291101,2.538008,-0.179801,0.96114,0.209445,3.99145,-0.9819100000000001,0.403967,-0.255364,0.22465100000000002,-0.712023
783,-2.204504,-1.355883,2.783008,-0.171829,0.9769950000000001,0.12626199999999999,4.262411,-0.334931,0.34627800000000003,-0.214554,0.27975,0.379537
784,-1.885188,-1.3994389999999999,3.110092,-0.162125,0.9853540000000001,0.05271900000000001,3.502075,0.203726,0.5656720000000001,0.01648,0.25338499999999997,0.934067
785,-1.472168,-1.4188209999999999,-2.774262,-0.150615,0.988474,-0.014903,3.161246,1.485509,0.53067,-0.170476,0.26322,0.771098
786,-1.057863,-1.404094,-2.4004779999999997,-0.144547,0.986137,-0.081411,2.957634,2.627239,-0.029827,-0.340332,0.06321,0.42796899999999993
787,-0.7827930000000001,-1.37199,-2.168843,-0.139269,0.980303,-0.139997,2.242061,1.745668,0.204518,-0.40756,0.051328,0.059324
788,-0.661896,-1.3693600000000001,-2.04205,-0.12295299999999999,0.9797799999999999,-0.157805,0.26713000000000003,-1.080838,1.198473,-0.14236600000000002,0.175188,0.002425
789,-0.539493,-1.3668879999999999,-1.893503,-0.10400999999999999,0.979283,-0.173715,1.940066,-0.688941,1.11138,0.001486,0.297939,0.190606
790,-0.345902,-1.325264,-1.695428,-0.08240499999999999,0.970008,-0.22865500000000002,3.0141560000000003,0.207446,1.123075,0.175255,-0.067771,0.644076
791,-0.207262,-1.277882,-1.547067,-0.059414999999999996,0.957407,-0.282548,2.6197049999999997,-0.45679200000000003,1.341225,0.036527,-0.22066599999999997,0.5566409999999999
792,-0.11628499999999999,-1.232472,-1.43917,-0.038507,0.943312,-0.32965300000000003,2.473214,-0.624214,1.2453450000000001,-0.008962999999999999,-0.24093499999999998,0.535921
793,-0.057163,-1.186809,-1.356554,-0.021402,0.9271780000000001,-0.373998,2.354577,-1.107591,1.283591,-0.027333999999999997,-0.248193,0.57694
