,attitude.roll,attitude.pitch,attitude.yaw,gravity.x,gravity.y,gravity.z,rotationRate.x,rotationRate.y,rotationRate.z,userAcceleration.x,userAcceleration.y,userAcceleration.z
0,1.081684,-1.474042,1.355426,0.085263,0.995323,-0.045381,-1.049021,2.041105,-1.089656,0.259006,0.033943,-0.025328
1,1.2792780000000001,-1.502834,1.5293649999999999,0.065022,0.997691,-0.019511,-1.2908110000000002,0.613887,-0.943169,-0.091145,-0.13496,-0.090429
2,1.741469,-1.5154590000000001,1.992086,0.054472,0.998469,0.009387999999999999,-1.5508600000000001,-0.095186,-0.286052,-0.28587199999999996,-0.177043,0.181072
3,2.2648650000000004,-1.505247,2.506421,0.050327,0.9978520000000001,0.041882,-1.554033,0.9367700000000001,-0.20941700000000002,-0.22056900000000002,-0.128269,0.2401
4,2.5924009999999997,-1.489082,2.810957,0.042595,0.996663,0.0696,-1.249007,1.207017,-0.390298,-0.011955,-0.005727,0.10647100000000001
5,2.8119419999999997,-1.470076,3.008277,0.032543,0.9949319999999999,0.095118,-1.224723,1.149412,-0.391123,0.036503,-0.004103,0.0005549999999999999
6,2.95455,-1.450476,3.123964,0.022317,0.99277,0.117922,-1.0340280000000002,1.566318,-0.386052,0.059409000000000003,-0.026445999999999997,-0.039126
7,3.072238,-1.433064,-3.070753,0.009514,0.9905299999999999,0.136953,-0.891383,1.324552,-0.5139600000000001,0.022515,-0.014639,-0.13793
8,-3.107544,-1.4160190000000001,-2.986656,-0.005248,0.9880459999999999,0.154059,-0.8724069999999999,0.913784,-0.6372140000000001,0.027953,-0.005365,-0.056311
9,-3.015694,-1.39784,-2.9140189999999997,-0.021608000000000002,0.98508,0.17072,-0.8264100000000001,1.118396,-0.696976,0.080613,-0.008716,0.018123
10,-2.9222919999999997,-1.3801219999999998,-2.846916,-0.041227,0.981877,0.18497,-0.739139,1.485853,-0.756657,0.237592,-0.014195,-0.030780000000000002
11,-2.839819,-1.362444,-2.791331,-0.061475,0.9783729999999999,0.19749,-0.698379,1.291851,-0.761465,0.213986,0.039754000000000005,-0.145656
12,-2.7716,-1.3437459999999999,-2.7466169999999996,-0.08139600000000001,0.9743350000000001,0.20986100000000002,-0.7350270000000001,1.1823620000000001,-0.788287,0.124898,0.076553,-0.157646
13,-2.709739,-1.324351,-2.7043470000000003,-0.10210599999999999,0.969786,0.221552,-0.658884,0.9597469999999999,-0.8611770000000001,0.163904,0.082415,-0.146845
14,-2.6498,-1.306308,-2.66256,-0.123438,0.965226,0.230427,-0.513474,1.021059,-0.868785,0.21911,0.12567,-0.132328
15,-2.5915790000000003,-1.2915510000000001,-2.62532,-0.144067,0.9612639999999999,0.234972,-0.318104,1.17222,-0.744769,0.205102,0.191111,-0.22886900000000002
16,-2.54097,-1.2815889999999999,-2.595148,-0.161173,0.95847,0.23527199999999998,-0.109543,0.985439,-0.570021,0.20835399999999998,0.229594,-0.203549
17,-2.4964720000000002,-1.2757049999999999,-2.5665169999999997,-0.174867,0.9567760000000001,0.232371,0.064191,0.804423,-0.47457200000000005,0.35182399999999997,0.189754,-0.261867
18,-2.452101,-1.272497,-2.53635,-0.186954,0.955838,0.226753,0.20128900000000002,0.739813,-0.42012,0.363163,0.20473,-0.36190100000000003
19,-2.403746,-1.2722950000000002,-2.500739,-0.197826,0.955778,0.217594,0.430487,0.720817,-0.39713000000000004,0.338481,0.22278,-0.44800200000000007
20,-2.33886,-1.2774290000000001,-2.446741,-0.207986,0.957276,0.200897,0.972935,0.5985060000000001,-0.383571,0.411263,0.200622,-0.26109299999999996
21,-2.248736,-1.291421,-2.360204,-0.21477,0.9612280000000001,0.17294600000000002,1.567779,0.227001,-0.169568,0.505343,0.148483,-0.33920500000000003
22,-2.138518,-1.315764,-2.25157,-0.212694,0.9676549999999999,0.135648,2.092868,0.316802,0.360618,0.48892399999999997,0.087048,-0.24642600000000003
23,-2.001147,-1.351372,-2.1108569999999998,-0.19781300000000002,0.976023,0.090805,2.355027,-0.29496500000000003,1.0063030000000002,0.43938999999999995,0.160314,-0.191116
24,-1.836489,-1.394228,-1.922202,-0.169478,0.984452,0.046119,2.527446,-1.471826,1.587991,0.347456,0.263289,-0.16317
25,-1.600063,-1.43715,-1.639587,-0.133177,0.991083,0.003899,2.40035,-2.4141939999999997,1.8639119999999998,0.155272,0.41796000000000005,0.033576999999999996
26,-1.191225,-1.466066,-1.1863059999999999,-0.097079,0.9945209999999999,-0.038726,2.3960310000000002,-1.755669,1.821378,-0.17490899999999998,0.750749,0.32658400000000004
27,-0.653885,-1.4671100000000001,-0.617872,-0.062944,0.9946290000000001,-0.082135,2.1656459999999997,-1.2934940000000001,1.793539,-0.23321399999999998,0.6289520000000001,0.25510900000000003
28,-0.26426700000000003,-1.449658,-0.197844,-0.031559,0.9926719999999999,-0.11663,1.6256700000000002,-1.430727,1.6820529999999998,-0.280254,0.454838,0.173087
29,-0.008795,-1.4242860000000002,0.08290399999999999,-0.001284,0.989287,-0.145966,1.4252280000000002,-0.8932610000000001,1.714147,-0.051908,0.08983,0.275727
30,0.187319,-1.394483,0.29438400000000003,0.032662000000000004,0.984497,-0.172322,1.32385,-0.528055,1.8475669999999997,0.021018000000000002,0.03273,0.28044600000000003
31,0.32504299999999997,-1.3572959999999998,0.45103699999999997,0.067662,0.977295,-0.20077899999999999,1.493911,-1.018122,1.9765009999999998,0.038066,0.006622,0.298496
32,0.395796,-1.313944,0.549184,0.09794,0.967194,-0.23439200000000002,1.6801419999999998,-1.393726,1.705887,0.137046,-0.332108,0.278185
33,0.420304,-1.273325,0.61159,0.119595,0.956081,-0.26758899999999997,1.384473,-2.052551,1.550842,0.123798,-0.321346,0.324763
34,0.426859,-1.238777,0.666732,0.134947,0.9453860000000001,-0.296702,1.16164,-2.352862,1.45353,0.067476,-0.340589,0.398417
35,0.42499499999999996,-1.208919,0.717409,0.14597100000000002,0.935234,-0.32253200000000004,0.897373,-2.6061900000000002,1.364414,-0.217504,-0.25455500000000003,0.41182700000000005
36,0.41925100000000004,-1.186326,0.768339,0.15267999999999998,0.926997,-0.342582,0.502749,-2.666246,1.274141,-0.302659,-0.22335300000000002,0.495857
37,0.413976,-1.170819,0.818655,0.156635,0.92107,-0.356502,0.224233,-2.556157,1.1577549999999999,-0.42599799999999993,-0.296817,0.524455
38,0.41127700000000006,-1.16126,0.8676309999999999,0.159185,0.917306,-0.364977,-0.069222,-2.226498,1.0238909999999999,-0.434392,-0.380425,0.434908
39,0.416541,-1.159,0.915858,0.161942,0.9164030000000001,-0.366029,-0.39837,-1.786914,0.870409,-0.421174,-0.403464,0.3714
40,0.430098,-1.1635440000000001,0.961443,0.165151,0.918213,-0.360011,-0.680612,-1.179997,0.655084,-0.284887,-0.448746,0.168193
41,0.45313400000000004,-1.1744809999999999,1.00239,0.168993,0.9224899999999999,-0.347061,-0.948506,-0.5398109999999999,0.366109,-0.22723600000000002,-0.375691,0.015198
42,0.47619399999999995,-1.1944540000000001,1.034948,0.16847,0.9300149999999999,-0.32663000000000003,-1.277439,-0.28677199999999997,-0.023209,-0.114378,-0.290138,-0.11555399999999999
43,0.492647,-1.2187700000000001,1.059325,0.163075,0.9386760000000001,-0.303795,-1.2039950000000001,-0.335034,-0.27153,0.08190499999999999,0.196685,-0.595695
44,0.48476,-1.238194,1.063415,0.152147,0.9451959999999999,-0.288882,-0.6854640000000001,-0.813096,-0.516191,0.368544,0.859614,-0.735013
45,0.44837200000000005,-1.246881,1.0469620000000002,0.137972,0.947997,-0.286815,0.053977,-0.968152,-0.210657,0.542509,1.1994799999999999,-0.707829
46,0.456265,-1.234105,1.062163,0.145556,0.943853,-0.296567,0.609429,-0.060095,0.7940510000000001,0.145886,0.286219,-0.41600299999999996
47,0.46980900000000003,-1.2143059999999999,1.0845690000000001,0.15799000000000002,0.937127,-0.311173,0.745907,-0.6121479999999999,0.735891,-0.093079,-0.41808500000000004,-0.296036
48,0.475509,-1.201079,1.102076,0.165422,0.93243,-0.321259,0.164845,-0.288513,0.493205,-0.215455,-0.5872609999999999,-0.20916700000000002
49,0.503797,-1.208264,1.123483,0.171204,0.935002,-0.310577,-0.880339,0.8351,-0.135105,-0.396622,0.186245,0.120834
50,0.529787,-1.237889,1.118523,0.165142,0.9450959999999999,-0.28199,-1.337316,1.868813,-1.168319,-0.584713,0.968325,0.73365
51,0.49985100000000005,-1.268646,1.05487,0.142623,0.954699,-0.261162,-0.337891,1.209419,-1.770448,-0.627029,1.158018,0.313973
52,0.43721400000000005,-1.263843,0.963334,0.127936,0.953259,-0.273729,1.346439,1.1370149999999999,-0.577136,-0.287146,-0.181347,0.487291
53,0.41402,-1.262991,0.922392,0.12188,0.953001,-0.27736500000000003,-0.655179,0.816105,-0.6409130000000001,-0.565758,-1.2152379999999998,0.720496
54,0.45201099999999994,-1.300984,0.935191,0.11642000000000001,0.9638209999999999,-0.239775,-2.262872,1.4920120000000001,-0.709625,-0.43995200000000007,-0.607101,0.793532
55,0.505229,-1.358403,0.9545870000000001,0.102025,0.9775290000000001,-0.18445699999999998,-2.830019,1.76354,-1.2533860000000001,-0.052160000000000005,0.37890100000000004,0.865075
56,0.598479,-1.4193959999999999,1.014721,0.084964,0.988561,-0.124598,-2.739401,1.8205689999999999,-0.941974,0.43778599999999995,0.772349,0.633937
57,0.765908,-1.456213,1.1412639999999998,0.07924099999999999,0.9934430000000001,-0.08239099999999999,-1.5218969999999998,2.1635619999999998,-0.393389,0.5600569999999999,0.21744899999999998,0.22441999999999998
58,0.890706,-1.481005,1.220269,0.069699,0.9959709999999999,-0.056373,-0.985325,2.4052119999999997,-0.8065220000000001,0.337604,-0.024399,-0.06816900000000001
59,1.000632,-1.51014,1.283692,0.050994,0.9981610000000001,-0.032697000000000004,-1.137681,2.109909,-1.151175,0.033845,-0.11775899999999999,-0.28152699999999997
60,1.404726,-1.537908,1.6710720000000001,0.032351,0.999459,-0.005423,-1.406146,0.000991,-0.7348100000000001,-0.334552,-0.20556,-0.123682
61,2.340736,-1.53703,2.6167979999999997,0.02418,0.9994299999999999,0.023443000000000002,-1.5435709999999998,-0.252664,-0.31990599999999997,-0.322794,-0.16073099999999998,0.064478
62,2.8671860000000002,-1.5129620000000001,3.1297669999999997,0.01565,0.9983280000000001,0.055595000000000006,-1.5431700000000002,1.1178549999999998,-0.463733,0.031056999999999998,-0.06452100000000001,0.163232
63,3.1177189999999997,-1.486866,-2.926507,0.002,0.9964799999999999,0.08377799999999999,-1.2926950000000001,1.123025,-0.641452,0.079558,-0.013921000000000001,0.029382
64,-3.031906,-1.4618209999999998,-2.8146560000000003,-0.011903,0.9940680000000001,0.108082,-1.224617,1.169291,-0.549168,0.128022,-0.012958,-0.082356
65,-2.947692,-1.436509,-2.757128,-0.025794,0.9909969999999999,0.131357,-1.1645020000000001,1.498215,-0.539556,0.095466,-0.035492,-0.127176
66,-2.876948,-1.411918,-2.713605,-0.041379,0.987405,0.15268900000000002,-1.13432,1.23006,-0.639414,0.048839999999999995,-0.035394,-0.151819
67,-2.816045,-1.3858549999999998,-2.668981,-0.058809,0.9829469999999999,0.17422,-1.1211149999999999,0.690541,-0.7945909999999999,0.035631,-0.0297,-0.09360700000000001
68,-2.7558599999999998,-1.359391,-2.624915,-0.078944,0.9777370000000001,0.194406,-1.06064,0.9773440000000001,-0.907768,0.299952,0.089478,-0.142206
69,-2.6933119999999997,-1.333699,-2.5828439999999997,-0.101797,0.972024,0.21166500000000002,-0.948866,1.1113709999999999,-0.9552290000000001,0.322806,0.095191,-0.15946400000000002
70,-2.6381360000000003,-1.3089600000000001,-2.54923,-0.12488099999999999,0.965916,0.226728,-0.88397,1.092945,-0.932319,0.09805599999999999,0.14469500000000002,-0.258466
71,-2.589652,-1.286119,-2.5169759999999997,-0.147256,0.959752,0.23913800000000002,-0.674284,0.7322069999999999,-0.9453469999999999,0.262734,0.220942,-0.189547
72,-2.540808,-1.268174,-2.482714,-0.168465,0.954558,0.245831,-0.364237,0.9640690000000001,-0.855885,0.31661300000000003,0.232514,-0.217144
73,-2.488672,-1.2567409999999999,-2.454323,-0.187666,0.951089,0.245371,-0.129221,1.309409,-0.574811,0.342344,0.258994,-0.270594
74,-2.4459020000000002,-1.251064,-2.430841,-0.201443,0.94932,0.24126399999999998,0.088744,0.822263,-0.41884099999999996,0.44823900000000005,0.231146,-0.28986300000000004
75,-2.407127,-1.248976,-2.4030709999999997,-0.211972,0.9486610000000001,0.23474499999999998,0.284756,0.556177,-0.380811,0.47305,0.2212,-0.318378
76,-2.364554,-1.249981,-2.367687,-0.22110300000000002,0.9489780000000001,0.224831,0.504667,0.357232,-0.37047399999999997,0.418033,0.225582,-0.47777600000000003
77,-2.313192,-1.255547,-2.317948,-0.228458,0.9507190000000001,0.20960900000000002,0.950709,0.173374,-0.33294,0.347019,0.116618,-0.35378899999999996
78,-2.220688,-1.270302,-2.2254549999999997,-0.23564899999999997,0.95519,0.179101,1.9472450000000001,0.207103,-0.30786199999999997,0.430946,0.06951399999999999,-0.248299
79,-2.089756,-1.2939049999999999,-2.0897189999999997,-0.237368,0.96191,0.13558,2.343126,-0.052771000000000005,0.134275,0.557573,0.054783000000000005,-0.20555700000000002
80,-1.9509439999999998,-1.328794,-1.94377,-0.222531,0.9708600000000001,0.08892,2.468379,-0.148832,1.136197,0.59744,0.021541,-0.054725
81,-1.801677,-1.376295,-1.773393,-0.188142,0.981144,0.044226999999999995,2.4487349999999997,-1.524297,1.9998770000000001,0.318604,0.335537,-0.146705
82,-1.601452,-1.427296,-1.5181790000000002,-0.142931,0.9897219999999999,0.004383,2.431123,-3.0136060000000002,2.294356,-0.021818,0.783045,0.301815
83,-1.230748,-1.4641959999999998,-1.090803,-0.10029500000000001,0.994324,-0.035483,2.3353099999999998,-2.189124,2.121714,-0.236467,0.930817,0.55355
84,-0.6400319999999999,-1.469598,-0.475117,-0.060328,0.994884,-0.08102100000000001,2.3294490000000003,-0.715542,2.050351,-0.347921,0.71111,0.231015
85,-0.20127899999999999,-1.4500899999999999,-0.006252000000000001,-0.024072,0.9927239999999999,-0.117974,1.664824,-1.850152,1.850609,-0.320121,0.40067800000000003,0.134972
86,0.035269,-1.424067,0.261842,0.005155,0.9892549999999999,-0.14610599999999999,1.3645040000000002,-0.958879,1.6689759999999998,-0.18023499999999998,0.10510599999999999,0.294101
87,0.238035,-1.392785,0.46743,0.041752,0.9841979999999999,-0.172075,1.320997,0.347142,1.974647,-0.012378,-0.049597,0.273561
88,0.39291,-1.352328,0.624821,0.082982,0.976231,-0.200215,1.511647,-0.292206,2.1210080000000002,0.066173,-0.255024,0.32448299999999997
89,0.46588599999999997,-1.307161,0.716426,0.11706,0.965449,-0.232816,1.6205969999999998,-1.048748,1.809749,0.06839500000000001,-0.367228,0.351484
90,0.493404,-1.265034,0.774058,0.14257,0.9536180000000001,-0.26511399999999996,1.3882370000000002,-1.6469919999999998,1.634773,0.043008,-0.327839,0.368324
91,0.494542,-1.22774,0.820509,0.159648,0.941731,-0.296063,1.246501,-2.467247,1.4895559999999999,-0.12516300000000002,-0.274037,0.416546
92,0.47703999999999996,-1.1949299999999998,0.8595290000000001,0.168544,0.93019,-0.32609499999999997,1.0334860000000001,-2.797107,1.31437,-0.300548,-0.299498,0.443985
93,0.453784,-1.169949,0.898752,0.171051,0.920731,-0.350707,0.636259,-3.0315790000000002,1.153799,-0.386947,-0.306839,0.560409
94,0.432637,-1.1528610000000001,0.937889,0.17016900000000001,0.9139290000000001,-0.368477,0.29923,-2.668727,1.0153159999999999,-0.531833,-0.46803599999999995,0.605675
95,0.42286999999999997,-1.145446,0.9758020000000001,0.16933800000000002,0.9108940000000001,-0.376291,-0.155134,-1.94917,0.75271,-0.5868800000000001,-0.5560510000000001,0.45993999999999996
96,0.420962,-1.1485319999999999,1.008722,0.167471,0.912163,-0.374046,-0.5629930000000001,-1.3988639999999999,0.41800699999999996,-0.540716,-0.566125,0.375679
97,0.419167,-1.161866,1.030977,0.161834,0.9175469999999999,-0.36320399999999997,-0.964441,-0.9642209999999999,-0.035075,-0.265029,-0.420919,0.22077800000000003
98,0.42155699999999996,-1.187236,1.048074,0.153125,0.9273379999999999,-0.341461,-1.456048,-0.46078100000000005,-0.298732,-0.057680999999999996,-0.16276600000000002,-0.068146
99,0.431928,-1.2185190000000001,1.061941,0.144439,0.9385889999999999,-0.313346,-1.4826219999999999,0.062147,-0.511096,0.013138999999999998,0.24219699999999997,-0.6423270000000001
100,0.42922,-1.241415,1.050927,0.13460999999999998,0.9462430000000001,-0.294115,-0.548633,0.431508,-0.715485,0.172626,0.8241729999999999,-1.022566
101,0.394897,-1.244921,1.015299,0.12315999999999999,0.947371,-0.29549699999999995,0.46340299999999995,-0.24676199999999998,-0.33901,0.524209,1.2644360000000001,-0.8347370000000001
102,0.393467,-1.229854,1.016147,0.128197,0.9424399999999999,-0.308823,0.6845100000000001,-0.07827,0.489122,0.17936,0.21281799999999998,-0.340561
103,0.399781,-1.2123950000000001,1.028093,0.136528,0.936459,-0.32311599999999996,0.7601640000000001,-0.31193000000000004,0.514519,-0.067879,-0.427868,-0.086658
104,0.405862,-1.1995360000000002,1.035807,0.143233,0.9318709999999999,-0.33331700000000003,0.260874,0.203016,0.310614,-0.301467,-0.737062,-0.250713
105,0.43443000000000004,-1.206278,1.047376,0.15004800000000001,0.9342959999999999,-0.323384,-0.806786,1.438049,-0.189808,-0.382867,-0.094849,0.026646
106,0.465971,-1.2382520000000001,1.034756,0.14667,0.9452149999999999,-0.291645,-1.501009,2.226079,-1.382462,-0.43558,0.306128,0.16756
107,0.410243,-1.274715,0.950882,0.116369,0.9564870000000001,-0.26756399999999997,-0.718051,0.919481,-2.1839619999999997,-0.9042110000000001,1.929316,0.406907
108,0.338258,-1.272441,0.8453370000000001,0.097545,0.9558209999999999,-0.277292,1.2648780000000002,1.408147,-0.634634,-0.39941,1.764852,-0.272498
109,0.30828099999999997,-1.2738690000000001,0.8040430000000001,0.088776,0.95624,-0.278789,-0.806946,0.43110699999999996,-0.649953,-0.113251,-1.208925,0.957851
110,0.34447,-1.307596,0.8146760000000001,0.08786000000000001,0.965562,-0.24488800000000002,-2.0114389999999998,1.652907,-0.387536,-0.326751,-0.7535569999999999,0.838882
111,0.401376,-1.3610879999999999,0.8333229999999999,0.08133,0.978092,-0.191629,-2.807248,1.9863490000000001,-1.03125,-0.155091,-0.042636,0.7213069999999999
112,0.44168199999999996,-1.421298,0.836558,0.063667,0.9888459999999999,-0.134648,-2.61725,1.89028,-1.147304,0.00454,0.430954,0.579503
113,0.543531,-1.4633530000000001,0.8916649999999999,0.05545800000000001,0.9942340000000001,-0.091782,-1.648842,2.513679,-0.442722,0.363197,0.281584,0.026673000000000002
114,0.622429,-1.4903170000000001,0.9232959999999999,0.04687,0.996763,-0.065317,-1.018846,2.276422,-0.79694,0.371785,0.279055,0.000207
115,0.609453,-1.520727,0.8732129999999999,0.028649,0.9987469999999999,-0.041038,-1.3011780000000002,1.397448,-1.054159,0.046623000000000005,-0.16053599999999998,-0.251702
116,0.858116,-1.553751,1.115367,0.012901,0.9998549999999999,-0.011149,-1.529233,-0.207968,-0.579404,-0.270378,-0.161903,0.025919
117,2.897123,-1.5502719999999999,-3.128883,0.004968,0.9997889999999999,0.019913999999999998,-1.560143,0.47735600000000006,-0.37433099999999997,-0.186624,-0.14313,0.28587199999999996
118,-3.020371,-1.520952,-2.783052,-0.006025,0.998758,0.049458999999999996,-1.441389,1.051974,-0.585746,0.032255,-0.138254,0.14982
119,-2.888146,-1.4914180000000001,-2.666994,-0.019883,0.996851,0.076762,-1.3359159999999999,0.706758,-0.660411,0.16056900000000002,-0.047236,0.033406
120,-2.8225849999999997,-1.461537,-2.6186130000000003,-0.034198,0.9940370000000001,0.10354000000000001,-1.364498,1.0347979999999999,-0.61937,0.218875,-0.07793,-0.08703
121,-2.7671959999999998,-1.434334,-2.588363,-0.049751,0.9907040000000001,0.126615,-1.143392,1.307892,-0.640608,0.155372,-0.149746,-0.188123
122,-2.72173,-1.408341,-2.562753,-0.06593099999999999,0.986833,0.14769200000000002,-1.117648,0.764911,-0.7401449999999999,0.027586000000000003,-0.105119,-0.051195
123,-2.674896,-1.380439,-2.52888,-0.085132,0.9819370000000001,0.168975,-1.130846,0.730543,-0.9249959999999999,0.057422,-0.017124,-0.01335
124,-2.620781,-1.351612,-2.494607,-0.10819100000000001,0.976075,0.188605,-1.093051,1.212294,-1.0193530000000002,0.180701,0.041030000000000004,-0.14777200000000001
125,-2.565383,-1.322167,-2.4634240000000003,-0.134074,0.969251,0.206342,-1.0180209999999998,1.225076,-1.084007,0.156916,0.08961799999999999,-0.254591
126,-2.514163,-1.295023,-2.433343,-0.159853,0.9622149999999999,0.22043000000000001,-0.830073,1.017794,-1.092042,0.17366199999999998,0.078938,-0.296831
127,-2.468086,-1.270573,-2.402716,-0.18445799999999998,0.9552700000000001,0.23115700000000003,-0.628783,0.7219300000000001,-1.071029,0.502741,0.180975,-0.19481099999999998
128,-2.42584,-1.250917,-2.373696,-0.20633800000000002,0.9492729999999999,0.237285,-0.37846399999999997,0.834232,-0.8675299999999999,0.528039,0.211981,-0.25304699999999997
129,-2.38714,-1.239154,-2.354539,-0.22299699999999997,0.945509,0.237244,-0.13703800000000002,1.035368,-0.494361,0.25824400000000003,0.19735899999999998,-0.257263
130,-2.352277,-1.233974,-2.333498,-0.234605,0.94381,0.23277399999999998,0.173002,0.5460699999999999,-0.41252,0.41323999999999994,0.230766,-0.268922
131,-2.316611,-1.232033,-2.30318,-0.244101,0.943166,0.225503,0.353319,0.304716,-0.41842799999999997,0.481436,0.28022199999999997,-0.363763
132,-2.2715240000000003,-1.2323549999999999,-2.262722,-0.253785,0.9432729999999999,0.21407600000000002,0.662982,0.352684,-0.42807700000000004,0.352464,0.264521,-0.52563
133,-2.1989549999999998,-1.240679,-2.1907970000000003,-0.262277,0.9460040000000001,0.19049100000000002,1.5742770000000001,0.184265,-0.392654,0.373635,0.16498800000000002,-0.240632
134,-2.077141,-1.259235,-2.066114,-0.268081,0.9518559999999999,0.14867,2.375378,0.172986,-0.13173900000000002,0.41656400000000005,0.186831,-0.176456
135,-1.9323709999999998,-1.286224,-1.917991,-0.26259299999999997,0.959782,0.099313,2.663238,0.179561,0.637247,0.44005299999999997,0.044506,-0.008554
136,-1.769593,-1.326953,-1.748588,-0.23667800000000003,0.970417,0.047681,2.608736,-0.399936,1.745355,0.360885,0.402752,-0.019116
137,-1.612619,-1.3744239999999999,-1.557453,-0.194942,0.9807809999999999,0.008158,2.209883,-2.001662,2.244549,-0.020314,0.8302700000000001,0.218344
138,-1.398827,-1.417347,-1.299215,-0.150592,0.98825,-0.026155,2.066331,-1.9073689999999999,2.231675,-0.17632799999999998,1.012879,0.260027
139,-1.055079,-1.443682,-0.920783,-0.110284,0.9919319999999999,-0.06251799999999999,1.9887540000000001,-1.3384559999999999,2.018897,-0.36034299999999997,0.56271,0.439762
140,-0.6413439999999999,-1.4473209999999999,-0.485971,-0.073684,0.9923870000000001,-0.098688,1.8813950000000002,-0.697209,1.8581599999999998,-0.40362600000000004,0.32046399999999997,0.014962999999999999
141,-0.307802,-1.433626,-0.12410299999999999,-0.041427,0.990607,-0.130313,1.332732,-1.7815880000000002,1.783078,-0.38754299999999997,0.26714499999999997,-0.051419000000000006
142,-0.067674,-1.420649,0.152625,-0.010115,0.988749,-0.14924,0.9879959999999999,-1.260834,1.856914,-0.029908999999999998,-0.05575,0.42666000000000004
143,0.148904,-1.395049,0.38048200000000004,0.025939,0.9845959999999999,-0.172908,1.305615,-0.139159,1.8630369999999998,0.005998,-0.20702399999999999,0.33916799999999997
144,0.28585900000000003,-1.358753,0.5297890000000001,0.059345,0.9776030000000001,-0.201917,1.515744,-0.7232649999999999,1.7648400000000002,-0.04047,-0.230777,0.305203
145,0.349081,-1.3187440000000001,0.62066,0.0853,0.968403,-0.23435,1.615086,-1.610174,1.56264,-0.009007,-0.290149,0.285986
146,0.362762,-1.279799,0.6818770000000001,0.101811,0.957958,-0.268235,1.432917,-2.659259,1.40141,-0.027913,-0.275997,0.353806
147,0.354375,-1.246376,0.7354930000000001,0.11061099999999999,0.947836,-0.298952,1.200267,-3.012778,1.298757,-0.13281199999999999,-0.253347,0.45941400000000004
148,0.337579,-1.2179010000000001,0.779725,0.114469,0.938376,-0.32611,0.992825,-2.828076,1.110133,-0.318861,-0.28760399999999997,0.54486
149,0.32526,-1.196744,0.822019,0.11676199999999999,0.9308540000000001,-0.34623200000000004,0.6073609999999999,-2.491961,1.039712,-0.457216,-0.407051,0.46149700000000005
150,0.321381,-1.184042,0.8671120000000001,0.119144,0.9261379999999999,-0.35787199999999997,0.173558,-2.2058400000000002,0.992518,-0.48984099999999997,-0.421835,0.46492799999999995
151,0.32303200000000004,-1.178994,0.9116299999999999,0.121217,0.924222,-0.362104,-0.134229,-1.801322,0.798638,-0.49385200000000007,-0.427228,0.466261
152,0.329396,-1.180915,0.9490959999999999,0.122945,0.924954,-0.359645,-0.435291,-1.129276,0.562801,-0.070882,-0.44375299999999995,0.17957599999999999
153,0.350337,-1.190978,0.9839979999999999,0.127248,0.928732,-0.34823200000000004,-0.875446,-0.245009,0.389815,-0.088506,-0.454168,0.018764
154,0.376567,-1.2130020000000001,1.017766,0.12878199999999998,0.936672,-0.325671,-1.4373879999999999,-0.280026,0.044102999999999996,-0.039915,-0.380657,-0.05134400000000001
155,0.397321,-1.2429350000000001,1.046757,0.124605,0.946733,-0.29693400000000003,-1.578677,-0.385094,-0.198167,0.067869,0.370344,-0.8466969999999999
156,0.388946,-1.26872,1.049656,0.112817,0.9547209999999999,-0.275283,-0.8749,-0.617153,-0.583923,0.079657,0.36235700000000004,-0.868348
157,0.35377800000000004,-1.273254,1.0287309999999998,0.10156799999999999,0.95606,-0.275015,0.335189,-0.770419,-0.068937,0.576976,1.373667,-0.7046600000000001
158,0.36285700000000004,-1.258558,1.045439,0.109036,0.9516479999999999,-0.28718699999999997,0.722565,-0.012,0.674143,-0.0027890000000000002,-0.12459200000000001,-0.270109
159,0.382824,-1.2383,1.0657889999999999,0.121925,0.9452299999999999,-0.302777,0.809542,0.023209,0.584975,-0.149971,-0.42666000000000004,-0.22769499999999998
160,0.399059,-1.227125,1.081445,0.130921,0.941524,-0.310471,0.097204,0.11806900000000001,0.398316,-0.31753600000000004,-0.678294,-0.231017
161,0.42666899999999996,-1.236127,1.097732,0.135928,0.944519,-0.29901,-0.900541,1.0903459999999998,-0.254037,-0.343997,0.203567,0.402938
162,0.44854399999999994,-1.270785,1.0818940000000001,0.128158,0.955333,-0.266297,-1.748661,1.899894,-1.366609,-0.48600699999999997,0.553059,0.868714
163,0.392206,-1.31559,0.9987090000000001,0.096492,0.9676110000000001,-0.23327699999999998,-1.166703,1.237317,-2.1425650000000003,-0.702754,0.9538969999999999,1.1317139999999999
164,0.32059,-1.3128549999999999,0.8853979999999999,0.080386,0.966917,-0.242094,1.401276,1.474017,-0.693513,-0.08887,-0.365248,0.9691290000000001
165,0.263474,-1.3130549999999999,0.8267110000000001,0.066385,0.966968,-0.24610100000000001,-0.7665109999999999,-0.152583,-0.698025,-0.106958,-0.998859,1.0839
166,0.287988,-1.350657,0.8303799999999999,0.06202100000000001,0.975867,-0.20937199999999997,-2.2917520000000002,1.634911,-0.43216400000000005,-0.263635,-0.745841,0.773672
167,0.341936,-1.406939,0.844194,0.054698000000000004,0.986605,-0.15368099999999998,-2.8965400000000003,2.071711,-0.981741,-0.11126199999999999,0.03993,0.667902
168,0.379204,-1.466005,0.8436,0.038721,0.9945139999999999,-0.09716799999999999,-2.547376,1.920205,-0.9588120000000001,0.09636499999999999,0.553566,0.628739
169,0.473641,-1.507615,0.8925049999999999,0.0288,0.9980049999999999,-0.056188999999999996,-1.640212,2.4160009999999996,-0.5247539999999999,0.233896,0.340939,0.361105
170,0.599474,-1.535976,0.968823,0.019642,0.999394,-0.028743,-1.181325,2.566134,-0.638177,0.23691900000000002,-0.037541000000000005,-0.29077600000000003
171,1.237135,-1.563347,1.563732,0.00703,0.999972,-0.002437,-1.394744,1.618737,-0.627771,0.096959,-0.116122,-0.37247199999999997
172,-3.048047,-1.5425200000000001,-2.7302400000000002,-0.002641,0.9996,0.028145999999999997,-1.5711389999999998,-0.106351,-0.37362399999999996,-0.302505,-0.167233,-0.048806999999999996
173,-3.011367,-1.511886,-2.695394,-0.007645999999999999,0.998265,0.058378,-1.4772459999999998,0.50531,-0.23701999999999998,-0.280654,-0.185002,0.404955
174,-2.955661,-1.482156,-2.660558,-0.016365,0.996074,0.086999,-1.42634,1.1972610000000001,-0.427695,-0.110497,-0.179591,0.239463
175,-2.8846380000000003,-1.454045,-2.6121990000000004,-0.029602999999999997,0.993192,0.11266199999999998,-1.254999,1.150551,-0.616581,0.057115,0.004992,-0.086738
176,-2.815803,-1.426642,-2.572379,-0.045978,0.9896280000000001,0.1361,-1.214258,1.640554,-0.645767,0.149036,-0.002827,-0.152701
177,-2.759096,-1.40076,-2.545778,-0.063159,0.9855790000000001,0.15699000000000002,-1.09923,1.357861,-0.646737,0.171008,-0.080397,-0.045768
178,-2.714024,-1.375893,-2.523523,-0.080308,0.981066,0.17623699999999998,-1.0447549999999999,1.083037,-0.698348,0.23896900000000001,-0.06575299999999999,-0.042143
179,-2.6707009999999998,-1.350993,-2.501112,-0.098919,0.9759399999999999,0.194307,-1.025101,1.1024690000000001,-0.77942,0.284054,-0.018039,-0.08156000000000001
180,-2.626442,-1.325416,-2.4800400000000002,-0.119681,0.970045,0.211398,-0.977416,1.198456,-0.8486440000000001,0.274573,0.040255,-0.21959099999999998
181,-2.580581,-1.300491,-2.457035,-0.142069,0.9636889999999999,0.226095,-0.9047209999999999,1.15165,-0.928193,0.05413300000000001,0.11721300000000001,-0.232397
182,-2.534052,-1.275065,-2.429521,-0.16636800000000002,0.9565889999999999,0.239288,-0.788927,0.900408,-1.069136,0.169527,0.143295,-0.21638400000000002
183,-2.48767,-1.251311,-2.397831,-0.191055,0.9493969999999999,0.24928499999999998,-0.619809,0.750819,-1.103014,0.44691400000000003,0.199879,-0.208986
184,-2.44266,-1.2312670000000001,-2.367895,-0.214281,0.942911,0.25495500000000004,-0.366818,0.9972770000000001,-0.8847139999999999,0.424058,0.154791,-0.31040500000000004
185,-2.404073,-1.220852,-2.349353,-0.23054699999999997,0.939392,0.253752,-0.104322,0.981766,-0.43100299999999997,0.32104699999999997,0.197876,-0.301604
186,-2.3744169999999998,-1.216457,-2.3336330000000003,-0.240833,0.937876,0.24977399999999997,0.11444800000000001,0.621596,-0.327532,0.330371,0.204534,-0.290927
187,-2.340859,-1.215791,-2.3096400000000004,-0.24952600000000003,0.9376450000000001,0.241988,0.35627600000000004,0.5599609999999999,-0.308672,0.307052,0.29346500000000003,-0.512191
188,-2.2938680000000002,-1.21869,-2.273241,-0.258579,0.9386479999999999,0.2282,0.740089,0.687724,-0.35743,0.225635,0.217952,-0.48413599999999996
189,-2.208455,-1.229559,-2.196226,-0.26889,0.942341,0.199224,1.793866,0.567079,-0.40439400000000003,0.261734,0.179622,-0.283406
190,-2.090268,-1.2502879999999998,-2.075862,-0.273487,0.949076,0.156397,2.309593,0.10244,-0.008159,0.448521,0.24854099999999998,-0.094705
191,-1.9603810000000002,-1.283312,-1.943416,-0.262293,0.95896,0.10769000000000001,2.610416,0.166516,1.02149,0.45547,0.235254,-0.156274
192,-1.81991,-1.328455,-1.7914130000000001,-0.232568,0.9707790000000001,0.059164999999999995,2.547619,-0.7565029999999999,1.7304650000000001,0.306177,0.315125,-0.16034600000000002
193,-1.6526299999999998,-1.374234,-1.590251,-0.194646,0.9807440000000001,0.015964,2.514756,-1.7243529999999998,1.90346,-0.154658,0.6790619999999999,0.24146700000000001
194,-1.40038,-1.408045,-1.304898,-0.159686,0.986785,-0.02748,2.470882,-1.210058,1.7337150000000001,-0.260831,0.724396,0.267775
195,-1.048273,-1.425119,-0.929226,-0.12579200000000001,0.989408,-0.07244600000000001,2.365047,-0.744318,1.7719029999999998,-0.33705300000000005,0.580386,0.245435
196,-0.665044,-1.420821,-0.5350189999999999,-0.092201,0.988775,-0.11757100000000001,2.311039,-0.260171,1.6907889999999999,-0.387993,0.351222,0.010256
197,-0.374739,-1.402431,-0.227679,-0.061336,0.9858600000000001,-0.155942,1.692995,-0.825725,1.6669009999999997,-0.207921,0.249919,0.182782
198,-0.164941,-1.385017,-0.002065,-0.030329000000000002,0.982792,-0.182206,1.264704,-0.367582,1.753052,0.065134,0.017543,0.379502
199,0.026148,-1.359497,0.19461900000000001,0.005484,0.977759,-0.209659,1.526274,0.0039759999999999995,1.848407,0.074,-0.1184,0.37997800000000004
200,0.161247,-1.324185,0.336052,0.039193,0.9697450000000001,-0.240952,1.578845,-0.321563,1.6942990000000002,0.031608,-0.205494,0.333313
201,0.24590599999999999,-1.290088,0.44131499999999996,0.06744,0.96086,-0.268702,1.263815,-1.3027879999999998,1.727539,-0.009212999999999999,-0.23335100000000003,0.280756
202,0.281762,-1.256459,0.526512,0.085969,0.951002,-0.296994,1.309644,-2.8514009999999996,1.613407,-0.058411000000000005,-0.249723,0.442975
203,0.290736,-1.224237,0.6016630000000001,0.097367,0.9405469999999999,-0.325409,1.1645729999999999,-3.114955,1.5806850000000001,-0.191895,-0.366008,0.47471599999999997
204,0.286862,-1.19595,0.660628,0.103594,0.930564,-0.351168,0.9428129999999999,-2.867053,1.317104,-0.269961,-0.368415,0.512423
205,0.27669699999999997,-1.175671,0.709241,0.105153,0.922948,-0.370283,0.583184,-2.661326,1.064365,-0.321752,-0.37454699999999996,0.574445
206,0.269343,-1.164666,0.752954,0.105124,0.918657,-0.380814,0.118593,-2.216982,0.9035209999999999,-0.464636,-0.50937,0.592987
207,0.266045,-1.163783,0.7916489999999999,0.10408099999999999,0.918307,-0.381941,-0.323178,-1.772345,0.6499020000000001,-0.485917,-0.526462,0.5682510000000001
208,0.263372,-1.173192,0.8219920000000001,0.10080599999999999,0.921991,-0.373859,-0.783008,-1.371078,0.335323,-0.301367,-0.523355,0.331485
209,0.26556799999999997,-1.193884,0.846726,0.096598,0.9298059999999999,-0.355149,-1.356662,-0.809968,0.106271,-0.094736,-0.387768,0.184861
210,0.280939,-1.2272049999999999,0.872697,0.0934,0.941551,-0.32366300000000003,-1.893393,-0.315141,-0.095734,-0.12193399999999999,-0.147026,-0.221396
211,0.29223000000000005,-1.2627620000000002,0.886868,0.087344,0.952931,-0.29033200000000003,-1.515488,0.10559,-0.402316,-0.067233,0.22876999999999997,-0.858975
212,0.27511599999999997,-1.279447,0.859025,0.078033,0.957857,-0.276443,-0.251192,0.5093880000000001,-0.7134010000000001,0.01056,1.134901,-1.144822
213,0.25515,-1.270599,0.836533,0.074634,0.9552780000000001,-0.286134,0.856333,-0.322146,0.344394,0.731351,1.571394,-0.803297
214,0.27016399999999996,-1.246268,0.8672270000000001,0.085101,0.947801,-0.307295,1.174015,-0.87582,0.800249,0.21578699999999998,0.146025,-0.259417
215,0.270886,-1.22038,0.886235,0.09185900000000001,0.9392299999999999,-0.33077,1.051879,-0.785884,0.526884,-0.21138099999999999,-0.569281,-0.033884
216,0.275352,-1.209634,0.899574,0.096074,0.9354870000000001,-0.34005,0.023653,-0.032393,0.267704,-0.316884,-0.898942,-0.204826
217,0.299475,-1.2258930000000001,0.90345,0.099747,0.941108,-0.323056,-1.336082,1.71708,-0.489654,-0.412293,-0.231895,0.08926100000000001
218,0.304662,-1.269572,0.8703290000000001,0.08899800000000001,0.954974,-0.283025,-2.043103,1.411808,-1.589129,-0.433648,0.5241210000000001,0.8654069999999999
219,0.217849,-1.3073059999999999,0.7592770000000001,0.056290999999999994,0.9654870000000001,-0.254294,-0.671258,1.4268299999999998,-2.005786,-0.6492020000000001,1.018598,1.120398
220,0.164678,-1.292222,0.664204,0.045079,0.961449,-0.27126300000000003,1.3317700000000001,1.198252,-0.661566,-0.080663,0.9738690000000001,-0.261619
221,0.114121,-1.296524,0.612113,0.030842,0.962623,-0.269083,-1.0678159999999999,0.022914,-0.627683,-0.058963999999999996,-1.003638,1.079691
222,0.111394,-1.336278,0.592795,0.025832,0.972626,-0.23093200000000003,-2.357668,1.097525,-0.51202,-0.213652,-0.727616,0.788061
223,0.0933,-1.393297,0.5452130000000001,0.01645,0.9842879999999999,-0.175798,-2.949132,1.532729,-0.940793,-0.022508,-0.007558,0.788652
224,0.019628,-1.4481709999999999,0.43839700000000004,0.0024010000000000004,0.992491,-0.12229000000000001,-2.4190099999999997,1.8245689999999999,-0.8562790000000001,0.24216700000000002,0.436449,0.5048729999999999
225,-0.08874800000000001,-1.484802,0.28215999999999997,-0.007612000000000001,0.9963049999999999,-0.08554199999999999,-1.532714,2.5805849999999997,-0.743167,0.21905300000000003,0.239825,0.100526
226,-0.341499,-1.50481,-0.020309999999999998,-0.022080000000000002,0.9978239999999999,-0.062122000000000004,-1.1189200000000001,2.263888,-1.024017,0.151535,-0.0072840000000000005,-0.24592199999999997
227,-0.8284370000000001,-1.514486,-0.536759,-0.041463,0.9984149999999999,-0.038038999999999996,-1.3536059999999999,0.680353,-0.953125,-0.206675,-0.181612,-0.154542
228,-1.46566,-1.516369,-1.16545,-0.054089,0.998519,-0.0057079999999999995,-1.7124439999999999,-0.813868,-0.466607,-0.362369,-0.217666,0.218736
229,-1.98983,-1.501417,-1.689307,-0.063317,0.9975940000000001,0.028201999999999998,-1.666359,0.641201,-0.482037,-0.193168,-0.23250300000000002,0.317272
230,-2.218778,-1.475983,-1.9446279999999998,-0.075477,0.995509,0.057138,-1.429011,1.326964,-0.619058,0.057411000000000004,-0.138453,0.182471
231,-2.311938,-1.448512,-2.057423,-0.08998099999999999,0.992533,0.082349,-1.338418,0.772941,-0.6775359999999999,0.248459,-0.055917999999999995,-0.052473
232,-2.365211,-1.421665,-2.128146,-0.10410799999999999,0.9889,0.106002,-1.224813,0.966108,-0.597942,0.336636,-0.055001999999999995,-0.18923900000000002
233,-2.390757,-1.397977,-2.177884,-0.117318,0.9851040000000001,0.125721,-1.074853,1.2048450000000002,-0.490378,0.17093699999999998,-0.045193000000000004,-0.185719
234,-2.40677,-1.374975,-2.211214,-0.130451,0.9808879999999999,0.144361,-1.0652840000000001,0.588557,-0.625186,0.098926,-0.027244,-0.128935
235,-2.4150009999999997,-1.3487120000000001,-2.226445,-0.146325,0.975441,0.164633,-1.100735,0.34231,-0.818466,0.200997,0.013985,0.015406
236,-2.408893,-1.320392,-2.23535,-0.165744,0.9688120000000001,0.184203,-1.129515,0.9946229999999999,-0.8846639999999999,0.24577600000000002,0.029952,-0.117522
237,-2.389027,-1.291959,-2.2389799999999997,-0.188128,0.961376,0.200906,-1.038815,1.1650340000000001,-0.954752,0.2,0.081745,-0.22416
238,-2.365175,-1.263868,-2.234569,-0.211711,0.953266,0.215548,-0.9223809999999999,0.8561139999999999,-1.0582280000000002,0.151255,0.181255,-0.24173200000000003
239,-2.339428,-1.237617,-2.222099,-0.235102,0.9450069999999999,0.227348,-0.683339,0.6326350000000001,-1.0562719999999999,0.174647,0.18951400000000002,-0.25353200000000004
240,-2.3078819999999998,-1.2165489999999999,-2.204111,-0.256843,0.937908,0.233152,-0.39623800000000003,0.815288,-0.895336,0.375678,0.301167,-0.228147
241,-2.2735990000000004,-1.203026,-2.187284,-0.274335,0.9331309999999999,0.23238699999999998,-0.104584,0.95691,-0.600787,0.39095799999999997,0.246403,-0.20959
242,-2.239291,-1.195889,-2.1659439999999996,-0.287364,0.930542,0.226962,0.159735,0.527324,-0.493705,0.561351,0.268372,-0.22290300000000002
243,-2.210432,-1.191555,-2.142159,-0.297026,0.9289459999999999,0.22098099999999998,0.242497,0.29438000000000003,-0.387074,0.533278,0.334253,-0.361942
244,-2.1808520000000002,-1.190713,-2.115586,-0.304073,0.928634,0.21254800000000001,0.5028100000000001,0.15246400000000002,-0.287866,0.374386,0.321351,-0.32462399999999997
245,-2.1380630000000003,-1.195807,-2.066225,-0.308894,0.9305110000000001,0.196802,1.170503,-0.393031,-0.315618,0.460032,0.428803,-0.294626
246,-2.072966,-1.2090100000000001,-1.9822790000000001,-0.310245,0.9352659999999999,0.17036300000000001,1.9215220000000002,-0.635271,-0.062234000000000005,0.48939799999999994,0.394309,-0.190047
247,-1.9733040000000002,-1.235797,-1.869314,-0.302491,0.9444110000000001,0.12878599999999998,2.4707,-0.258531,0.618372,0.33105500000000004,0.100984,-0.137499
248,-1.8546150000000001,-1.272601,-1.733352,-0.282038,0.955868,0.08226900000000001,2.719623,-0.750855,1.2424469999999999,0.089991,0.230319,-0.080483
249,-1.721108,-1.314274,-1.5627360000000001,-0.250853,0.9672780000000001,0.037993,2.662561,-2.1126840000000002,1.659332,-0.0022140000000000003,0.360908,0.182375
250,-1.560499,-1.3518379999999999,-1.348552,-0.217196,0.976124,-0.0022370000000000003,2.651509,-2.1808919999999996,1.6764330000000003,-0.087232,0.549007,0.398751
251,-1.320706,-1.378517,-1.075016,-0.185146,0.9815709999999999,-0.047293,2.547216,-0.9331,1.678379,-0.240787,0.6768460000000001,0.193106
252,-1.020642,-1.393117,-0.759948,-0.150661,0.9842569999999999,-0.092403,2.2159560000000003,-0.426537,1.8260349999999999,-0.28923499999999996,0.35284099999999996,0.11716800000000001
253,-0.7474149999999999,-1.396596,-0.460363,-0.11780999999999998,0.984865,-0.127117,1.687391,-1.528116,1.7724799999999998,-0.27061799999999997,0.262388,0.202252
254,-0.521412,-1.3914090000000001,-0.203624,-0.088872,0.9839530000000001,-0.154711,1.503743,-0.9602950000000001,1.658306,-0.109248,0.11089500000000001,0.392702
255,-0.287425,-1.376328,0.040851,-0.054779999999999995,0.981151,-0.18531199999999998,1.641025,-0.150802,1.834484,0.046830000000000004,-0.073817,0.340936
256,-0.091141,-1.349567,0.248388,-0.019971,0.975628,-0.218513,1.736925,-0.45564,1.793884,0.075681,-0.158383,0.33461799999999997
257,0.04154,-1.315925,0.398891,0.01047,0.9676959999999999,-0.251898,1.701998,-0.9707,1.6906830000000002,0.10938800000000001,-0.24883899999999998,0.29544699999999996
258,0.11561300000000001,-1.281623,0.5141640000000001,0.032894,0.9584799999999999,-0.283252,1.518973,-2.3111509999999997,1.666553,0.044697,-0.257689,0.397495
259,0.151375,-1.248307,0.6053229999999999,0.047791,0.948449,-0.3133,1.4370290000000001,-2.652216,1.515798,-0.086198,-0.331018,0.47133500000000006
260,0.162965,-1.217978,0.676942,0.056062,0.9384030000000001,-0.340962,1.199807,-2.875597,1.373422,-0.275392,-0.32879899999999995,0.45970600000000006
261,0.162627,-1.1941469999999998,0.740019,0.059552,0.929902,-0.362951,0.878633,-2.998655,1.2570370000000002,-0.355252,-0.312425,0.578023
262,0.15722,-1.1777030000000002,0.7952670000000001,0.059975,0.9237290000000001,-0.378321,0.48094899999999996,-2.669511,1.082953,-0.391243,-0.36597399999999997,0.583399
263,0.154442,-1.1715229999999999,0.844376,0.059801,0.921344,-0.38411999999999996,-0.021963999999999997,-2.188882,0.938887,-0.419404,-0.5125609999999999,0.46654799999999996
264,0.158123,-1.174822,0.88676,0.060735000000000004,0.9226209999999999,-0.380892,-0.45539399999999997,-1.544027,0.6914779999999999,-0.359273,-0.531157,0.385302
265,0.170577,-1.187359,0.922111,0.06350499999999999,0.927384,-0.368679,-0.897467,-0.6510729999999999,0.478943,-0.27970700000000004,-0.516251,0.312771
266,0.1882,-1.211162,0.948626,0.065843,0.936026,-0.345715,-1.464753,-0.20142000000000002,0.145392,-0.053285,-0.22742300000000001,-0.188159
267,0.200769,-1.2426620000000002,0.964511,0.064269,0.9466450000000001,-0.315801,-1.57809,-0.06565700000000001,-0.140789,-0.075393,-0.09698999999999999,-0.468333
268,0.18520599999999998,-1.266786,0.952665,0.055124,0.9541440000000001,-0.29422600000000004,-0.7815810000000001,-0.158172,-0.605124,-0.129511,0.145862,-0.788369
269,0.148552,-1.272581,0.916983,0.043486000000000004,0.9558620000000001,-0.290576,0.186792,-0.256178,-0.379249,0.639299,1.538889,-0.8710450000000001
270,0.15448900000000002,-1.259962,0.932091,0.047063,0.9520790000000001,-0.302207,0.700254,-0.397212,0.610487,0.260799,0.17835299999999998,-0.32459299999999996
271,0.172491,-1.24136,0.959879,0.055526,0.946225,-0.318706,0.8964610000000001,-0.480741,0.5500079999999999,-0.09863200000000001,-0.571835,-0.15643800000000002
272,0.182395,-1.228373,0.975776,0.060903,0.941944,-0.330198,0.295795,-0.033368,0.282456,-0.36278299999999997,-0.589237,-0.226962
273,0.201238,-1.238353,0.98093,0.065232,0.945248,-0.319764,-1.098769,1.279757,-0.28230700000000003,-0.29740900000000003,0.071979,0.357377
274,0.200179,-1.278857,0.939551,0.057228999999999995,0.9576870000000001,-0.282059,-2.018341,1.748044,-1.506035,-0.7231529999999999,0.939392,1.46489
275,0.092936,-1.31206,0.803692,0.023744,0.966714,-0.254751,-0.664035,1.480482,-2.101914,-0.789552,1.609,-0.32165
276,0.059244000000000005,-1.295097,0.727565,0.016118,0.9622350000000001,-0.271739,1.251778,1.1582370000000002,-0.43558,-0.019688,-0.323777,0.707515
277,0.015327,-1.298619,0.68325,0.00412,0.9631879999999999,-0.26879400000000003,-1.079718,0.044982,-0.534828,-0.27563499999999996,-1.18766,0.754207
278,-0.0009019999999999999,-1.337494,0.6425390000000001,-0.00020800000000000001,0.972908,-0.231188,-2.320802,1.703325,-0.7176060000000001,-0.29775,-0.545891,0.831484
279,-0.084297,-1.389463,0.519358,-0.015184,0.983604,-0.179697,-2.723549,1.709228,-1.311153,-0.180922,-0.083259,0.70965
280,-0.24205500000000002,-1.434074,0.331187,-0.032669,0.990668,-0.132319,-2.245438,1.4947620000000001,-0.840726,0.415497,0.753518,0.542582
281,-0.38650300000000004,-1.467328,0.147794,-0.038932,0.9946520000000001,-0.095661,-1.677182,1.96023,-0.520091,0.489203,0.251259,0.172031
282,-0.619991,-1.485419,-0.12501099999999998,-0.049544,0.996358,-0.0694,-1.342592,1.870526,-0.754784,0.415465,0.038692000000000004,0.017947
283,-0.977775,-1.494852,-0.51064,-0.062912,0.9971180000000001,-0.042399,-1.486404,0.782115,-0.705256,-0.027908,-0.16292,-0.17206300000000002
284,-1.42035,-1.4968299999999999,-0.949907,-0.07305700000000001,0.997266,-0.011075,-1.6016780000000002,-0.588645,-0.401998,-0.33124000000000003,-0.185056,0.140073
285,-1.831044,-1.487374,-1.361952,-0.080515,0.9965219999999999,0.02144,-1.661762,0.5555399999999999,-0.369701,-0.29621,-0.22627399999999998,0.26545599999999997
286,-2.097116,-1.464556,-1.650425,-0.091684,0.9943620000000001,0.053266999999999995,-1.6537650000000002,1.122234,-0.6342220000000001,-0.166098,-0.203896,0.14186300000000002
287,-2.2246259999999998,-1.433567,-1.799292,-0.108581,0.990599,0.083202,-1.578066,0.926701,-0.819313,0.019974000000000002,-0.133925,0.026768
288,-2.2837330000000002,-1.401832,-1.879857,-0.127201,0.9857600000000001,0.109984,-1.403983,1.154264,-0.8685950000000001,0.124668,-0.091533,-0.062025
289,-2.2940099999999997,-1.372154,-1.9171189999999998,-0.14793800000000001,0.9803350000000001,0.13059500000000002,-1.136361,1.311166,-0.910724,0.178517,-0.049977,-0.084773
290,-2.293654,-1.3430540000000002,-1.937754,-0.16931300000000002,0.9741790000000001,0.149357,-1.174389,0.8747219999999999,-0.957432,0.22426,-0.022595,-0.039693
291,-2.3034220000000003,-1.311964,-1.964521,-0.190277,0.9666889999999999,0.171184,-1.33029,0.8677159999999999,-0.935011,0.307465,0.045548000000000005,-0.057918
292,-2.305186,-1.28108,-1.9920189999999998,-0.21204099999999998,0.958325,0.191442,-1.26071,1.4488940000000001,-0.8797219999999999,0.322347,0.08995399999999999,-0.122899
293,-2.289698,-1.253266,-2.008883,-0.23495300000000002,0.950009,0.205614,-1.011508,1.575899,-0.888827,0.089323,0.161777,-0.312502
294,-2.261293,-1.228209,-2.0066900000000003,-0.258972,0.941889,0.213955,-0.64483,1.126695,-1.025627,0.11334200000000001,0.169897,-0.320843
295,-2.23015,-1.205737,-1.992734,-0.28217,0.9341020000000001,0.218702,-0.46693999999999997,0.873417,-0.978126,0.539098,0.360529,-0.28223899999999996
296,-2.199753,-1.189735,-1.982325,-0.300736,0.92827,0.21879099999999999,-0.193216,1.12563,-0.618683,0.6520239999999999,0.243986,-0.222804
297,-2.167235,-1.1825,-1.965193,-0.313239,0.9255549999999999,0.21266500000000002,0.171337,0.520692,-0.436968,0.671058,0.254895,-0.24110700000000002
298,-2.142315,-1.179055,-1.94097,-0.321121,0.9242459999999999,0.206517,0.348135,0.036206,-0.377429,0.587112,0.41839,-0.412786
299,-2.1120959999999998,-1.179375,-1.9096330000000001,-0.326961,0.9243680000000001,0.196568,0.654946,0.036858,-0.273805,0.39860100000000004,0.38595,-0.461629
300,-2.063024,-1.185724,-1.8513580000000003,-0.331031,0.9267709999999999,0.177516,1.466872,-0.433625,-0.27073600000000003,0.345023,0.329347,-0.272762
301,-1.9830139999999998,-1.1998090000000001,-1.752918,-0.33216599999999996,0.9319700000000001,0.14524700000000001,2.181241,-0.55735,-0.053011,0.394056,0.312918,-0.30404499999999995
302,-1.868291,-1.2237930000000001,-1.621845,-0.32514099999999996,0.9403959999999999,0.099686,2.752041,-0.362815,0.619434,0.355781,0.054385,-0.082474
303,-1.729901,-1.259815,-1.465481,-0.302127,0.952034,0.04848,2.887685,-0.641652,1.4998850000000001,0.28125300000000003,0.141671,-0.064715
304,-1.59297,-1.302095,-1.290037,-0.265412,0.964117,0.005886,2.560686,-2.1318900000000003,2.02828,0.15267999999999998,0.293421,0.08104299999999999
305,-1.4226020000000001,-1.340507,-1.074164,-0.225755,0.9736,-0.033703,2.500305,-1.543716,2.045265,-0.23457199999999997,0.967623,0.218029
306,-1.181348,-1.366252,-0.803315,-0.187908,0.9791540000000001,-0.07711900000000001,2.490813,-1.071657,2.017888,-0.27211399999999997,0.7750729999999999,0.288606
307,-0.902802,-1.378958,-0.49563199999999996,-0.14968099999999998,0.9816549999999999,-0.11809700000000001,2.111797,-1.29965,2.086035,-0.284432,0.584659,0.319895
308,-0.652949,-1.379386,-0.217104,-0.115577,0.9817370000000001,-0.151107,1.488624,-1.177908,1.752514,-0.242608,0.343168,0.19206199999999998
309,-0.45068400000000003,-1.381586,0.012853,-0.081924,0.982153,-0.169301,1.050019,-0.8709180000000001,2.084479,-0.138397,0.164423,0.361775
310,-0.203654,-1.370544,0.273908,-0.04023,0.980016,-0.194802,1.4531969999999998,-0.341068,2.165664,-0.031776,0.016199,0.45423199999999997
311,-0.015428,-1.3428799999999999,0.475076,-0.003486,0.974139,-0.225919,1.735208,-0.59213,1.835739,0.052787,-0.280993,0.30882
312,0.087826,-1.303975,0.6087020000000001,0.023127,0.964614,-0.262648,1.879389,-1.7230889999999999,1.620278,0.055807,-0.328994,0.348219
313,0.133768,-1.2667190000000002,0.704838,0.039932,0.954124,-0.296736,1.6215540000000002,-2.725258,1.51938,-0.012085,-0.32724699999999995,0.465437
314,0.142602,-1.231924,0.7809159999999999,0.047243,0.9431299999999999,-0.329048,1.494737,-3.312268,1.373968,-0.193652,-0.330368,0.518791
315,0.133462,-1.202197,0.8439059999999999,0.047945,0.932833,-0.357104,1.197072,-3.454472,1.229998,-0.306627,-0.355013,0.594226
316,0.11794500000000001,-1.180541,0.8980309999999999,0.044765,0.9248120000000001,-0.377781,0.7959890000000001,-3.120082,1.071875,-0.407711,-0.42371400000000004,0.622745
317,0.105002,-1.1685299999999998,0.944759,0.041033,0.920176,-0.389348,0.317849,-2.608561,0.9065790000000001,-0.5010399999999999,-0.4788,0.585835
318,0.095368,-1.165736,0.986189,0.037525,0.9190780000000001,-0.392283,-0.086511,-2.274228,0.765525,-0.505817,-0.49221400000000004,0.552287
319,0.09371900000000001,-1.1705219999999998,1.022886,0.036466000000000005,0.920954,-0.38795999999999997,-0.435021,-1.328837,0.678558,-0.37485999999999997,-0.554255,0.228384
320,0.114567,-1.1830559999999999,1.059784,0.043223000000000004,0.925766,-0.375619,-0.8844040000000001,-0.277627,0.589683,0.036581,-0.379425,0.154656
321,0.153417,-1.205802,1.098193,0.054547000000000005,0.934126,-0.35275100000000004,-1.401483,0.195359,0.5042800000000001,-0.049481,-0.33563000000000004,-0.102952
322,0.18023,-1.2355,1.12742,0.058984,0.944313,-0.323719,-1.522089,-0.014452000000000001,0.064667,0.197883,0.253807,-0.663388
323,0.178146,-1.258769,1.126709,0.0544,0.9517129999999999,-0.30213,-0.864399,-0.352639,-0.38109499999999996,0.174543,1.068535,-1.00805
324,0.14461300000000002,-1.261626,1.109248,0.043848000000000005,0.952586,-0.301092,0.418259,-0.887991,-0.015732,0.476843,1.513127,-0.9820040000000001
325,0.151179,-1.244666,1.130199,0.04825,0.9472889999999999,-0.316725,0.917898,-0.45430699999999996,0.586475,0.057553999999999994,0.074134,-0.29097199999999995
326,0.16836700000000002,-1.226166,1.152995,0.056614,0.9412,-0.333071,0.7186819999999999,-0.08116,0.417962,-0.15321700000000002,-0.5464399999999999,-0.21993800000000002
327,0.18200999999999998,-1.220178,1.165408,0.062172000000000005,0.939161,-0.337804,-0.063046,0.220809,0.172833,-0.322212,-0.578321,-0.2924
328,0.192187,-1.2323870000000001,1.162839,0.063411,0.943284,-0.325874,-0.957548,0.9666239999999999,-0.413347,-0.445049,0.033645,0.073799
329,0.185031,-1.2655379999999998,1.126439,0.055291999999999994,0.9537690000000001,-0.29540900000000003,-1.749221,1.445182,-1.120243,-0.440485,0.587796,1.120116
330,0.122849,-1.3019319999999999,1.0440399999999999,0.032551,0.964073,-0.26363400000000003,-1.367668,0.9225540000000001,-1.5559479999999999,-0.6605270000000001,0.9035569999999999,1.345573
331,0.099388,-1.30115,0.9732719999999999,0.026432,0.963865,-0.265075,1.055684,2.544021,-0.491036,-0.305241,0.5382100000000001,-0.120851
332,0.071768,-1.2943440000000002,0.9235459999999999,0.019572,0.9620299999999999,-0.272241,-0.534958,0.43061099999999997,-0.734448,-0.381083,-0.887048,0.706445
333,0.048293,-1.332099,0.8807459999999999,0.011414,0.9716469999999999,-0.236161,-2.430286,1.277656,-0.727407,-0.298691,-0.637479,0.728928
334,-0.001633,-1.393246,0.802862,-0.000288,0.9842790000000001,-0.176618,-3.308017,1.189743,-0.891523,0.020995,0.009709,0.844831
335,-0.077323,-1.458852,0.692752,-0.008629000000000001,0.993741,-0.111373,-3.10925,2.173736,-0.451288,0.44664799999999993,0.6652710000000001,0.7842399999999999
336,-0.11288499999999999,-1.5064899999999999,0.59888,-0.007238,0.997933,-0.063847,-2.027584,3.106377,-0.188554,0.534261,0.539512,0.516178
337,-0.44891400000000004,-1.535625,0.201935,-0.015257,0.999382,-0.031672000000000006,-1.507172,2.938631,-0.780772,0.243635,0.049964999999999996,-0.047048
338,-1.454045,-1.535174,-0.850543,-0.03537,0.999366,-0.004148,-1.380883,1.7676330000000002,-1.091378,0.012299,-0.096839,-0.220491
339,-1.988847,-1.5136,-1.396097,-0.052238,0.998365,0.023206,-1.410767,-0.222687,-0.703408,-0.067131,-0.11475899999999999,-0.260648
340,-2.284007,-1.487632,-1.6773529999999999,-0.06282,0.9965440000000001,0.054347,-1.593876,-0.657443,-0.513987,-0.24051,-0.180779,0.12138800000000001
341,-2.448454,-1.45687,-1.849848,-0.072635,0.993517,0.08744600000000001,-1.730836,1.000263,-0.42947399999999997,-0.158902,-0.17447100000000001,0.224764
342,-2.520502,-1.425094,-1.951832,-0.084487,0.9894040000000001,0.11807100000000001,-1.612902,1.566725,-0.46569499999999997,-0.042802,-0.107477,0.1037
343,-2.54122,-1.394069,-2.003971,-0.09932200000000001,0.984424,0.145062,-1.453211,1.5944040000000002,-0.5992109999999999,0.102801,-0.092075,-0.13555599999999998
344,-2.533826,-1.363164,-2.03289,-0.11771500000000001,0.9785219999999999,0.169228,-1.411491,1.779925,-0.6760689999999999,0.14415899999999998,-0.08592799999999999,-0.238046
345,-2.51805,-1.332173,-2.044318,-0.138017,0.971664,0.191885,-1.32605,1.146507,-0.85519,0.054124,-0.059753,-0.104314
346,-2.4985779999999997,-1.298908,-2.047561,-0.161026,0.963266,0.214919,-1.3860700000000001,1.1760700000000002,-1.0030620000000001,0.20175099999999999,-0.022882,-0.032514999999999995
347,-2.4733650000000003,-1.264471,-2.047365,-0.186843,0.953448,0.236698,-1.33297,1.299696,-1.06267,0.36412,0.12222000000000001,-0.194859
348,-2.444013,-1.232198,-2.04561,-0.213371,0.9432209999999999,0.25457199999999996,-1.16308,1.410739,-1.0071459999999999,0.218025,0.148515,-0.364816
349,-2.412621,-1.204386,-2.039091,-0.23864200000000002,0.9336200000000001,0.267216,-0.8444209999999999,1.101746,-1.00132,0.20598899999999998,0.23184699999999997,-0.228825
350,-2.381339,-1.180436,-2.024053,-0.262219,0.9247719999999999,0.27574899999999997,-0.617397,0.819701,-0.9951,0.343091,0.400927,-0.264259
351,-2.346557,-1.16254,-2.0104290000000002,-0.283421,0.9178139999999999,0.27801,-0.339183,1.307531,-0.6872020000000001,0.405994,0.345461,-0.239771
352,-2.3111330000000003,-1.153283,-1.997929,-0.299348,0.9141,0.273516,-0.016368999999999998,0.988983,-0.427097,0.475999,0.300148,-0.2522
353,-2.283028,-1.1492950000000002,-1.980409,-0.309673,0.9124760000000001,0.267377,0.203074,0.489468,-0.375786,0.395412,0.41716000000000003,-0.421674
354,-2.251042,-1.149137,-1.9563990000000002,-0.318178,0.9124110000000001,0.257427,0.500508,0.533855,-0.278694,0.319216,0.403827,-0.488262
355,-2.2017,-1.1556819999999999,-1.9130029999999998,-0.325658,0.91507,0.237893,1.248086,0.42488100000000006,-0.31499299999999997,0.269796,0.36441,-0.48697799999999997
356,-2.115949,-1.171912,-1.824799,-0.332092,0.9214950000000001,0.201399,2.1913419999999997,0.085597,-0.202216,0.43855299999999997,0.35136300000000004,-0.280699
357,-2.006709,-1.199458,-1.7119330000000001,-0.32892899999999997,0.931843,0.15321400000000002,2.7111009999999998,0.393988,0.546639,0.481716,0.15748199999999998,-0.13877899999999999
358,-1.88503,-1.242251,-1.5842200000000002,-0.30686599999999997,0.9465129999999999,0.099732,2.8510459999999997,-0.253846,1.5258690000000001,0.170559,0.274953,-0.200043
359,-1.7550169999999998,-1.292502,-1.42759,-0.270067,0.961525,0.050323,2.888467,-1.454197,1.9720490000000002,-0.210173,0.558052,0.145341
360,-1.591027,-1.335335,-1.221277,-0.23324099999999998,0.972407,0.004719,2.742667,-1.630554,1.712747,-0.338505,0.71877,0.358196
361,-1.34781,-1.362287,-0.953493,-0.201873,0.978341,-0.045776,2.865352,-0.5185390000000001,1.6395400000000002,-0.33670100000000003,0.568046,0.116577
362,-1.038229,-1.372554,-0.634548,-0.16966900000000001,0.9804139999999999,-0.099998,2.645262,-0.09386900000000001,1.6577549999999999,-0.30094299999999996,0.395837,0.002128
363,-0.771179,-1.370028,-0.35074099999999997,-0.138991,0.979914,-0.143002,2.086986,-0.731758,1.556396,-0.325196,0.360769,0.10641099999999999
364,-0.5601430000000001,-1.362249,-0.126471,-0.11,0.978333,-0.175396,1.522932,-0.13883399999999999,1.628633,0.014068,-0.015381,0.38850100000000004
365,-0.35213099999999997,-1.347791,0.083588,-0.076277,0.9752370000000001,-0.20758800000000002,1.773623,0.199682,1.737841,0.119566,-0.180224,0.390892
366,-0.162984,-1.321426,0.274009,-0.040045,0.969068,-0.24352100000000002,1.8000880000000001,0.22911399999999998,1.8138310000000002,0.109106,-0.19259400000000002,0.31003400000000003
367,-0.022456999999999998,-1.292411,0.424545,-0.006171,0.9615,-0.274733,1.49624,-0.642409,1.8427360000000002,0.096228,-0.20625100000000002,0.27574
368,0.068643,-1.263093,0.549718,0.020773,0.953032,-0.302155,1.398174,-1.825525,1.8264759999999998,-0.018042,-0.280775,0.411897
369,0.12130099999999999,-1.232953,0.652828,0.040107,0.943472,-0.329015,1.315757,-2.480959,1.7038939999999998,-0.081183,-0.305807,0.48155699999999996
370,0.14391600000000002,-1.204229,0.7327239999999999,0.051403,0.9335629999999999,-0.354706,1.18238,-2.722419,1.46399,-0.338802,-0.418716,0.549164
371,0.144057,-1.179916,0.7950729999999999,0.054696,0.924574,-0.377054,0.9210950000000001,-2.927254,1.2338280000000001,-0.351113,-0.477171,0.642191
372,0.136882,-1.164143,0.847161,0.053973,0.91845,-0.391836,0.443313,-2.593555,1.048466,-0.34024299999999996,-0.5146109999999999,0.655524
373,0.133677,-1.160736,0.8928959999999999,0.05313300000000001,0.9170969999999999,-0.395106,-0.195775,-2.073912,0.856397,-0.351611,-0.635954,0.503352
374,0.13414500000000001,-1.1699540000000002,0.93099,0.052186,0.920733,-0.386687,-0.75543,-1.536076,0.575129,-0.268235,-0.5976130000000001,0.34374899999999997
375,0.137773,-1.191164,0.960225,0.050894,0.928801,-0.367066,-1.392779,-0.936265,0.313535,-0.11971099999999998,-0.44996499999999995,0.15324400000000002
376,0.148346,-1.226184,0.982007,0.049932,0.941206,-0.334119,-1.9578529999999998,-0.20337,0.008479,-0.0893,-0.13714500000000002,-0.300036
377,0.15407300000000002,-1.261871,0.9833770000000001,0.046658,0.9526610000000001,-0.300431,-1.429345,0.349618,-0.476716,-0.251202,0.361807,-1.144149
378,0.11817000000000001,-1.2765,0.9301370000000001,0.034197000000000005,0.9570069999999999,-0.288041,-0.23378400000000002,0.925975,-0.9903959999999999,-0.129442,0.86503,-1.165527
379,0.101487,-1.266615,0.905958,0.030344,0.9540930000000001,-0.297969,0.8505799999999999,-0.282591,0.334777,0.674139,1.421289,-0.733617
380,0.124428,-1.243473,0.94801,0.039901,0.9469059999999999,-0.319022,1.2197040000000001,-0.984669,0.828569,0.010804000000000001,-0.123618,-0.14516600000000002
381,0.13163,-1.2184549999999998,0.9730340000000001,0.045294,0.938567,-0.342109,1.014729,-0.724456,0.402719,-0.213705,-0.49522299999999997,-0.01661
382,0.133165,-1.212832,0.9803719999999999,0.046519,0.9366120000000001,-0.347265,-0.229954,0.104057,-0.048212,-0.323374,-0.44868199999999997,-0.320673
383,0.12481500000000001,-1.235595,0.955182,0.040951999999999995,0.9443440000000001,-0.326398,-1.5937219999999999,1.06151,-0.9381120000000001,-0.144544,0.853508,1.542844
384,0.065787,-1.276638,0.872624,0.01906,0.957046,-0.28930500000000003,-1.73826,1.0145469999999999,-1.58854,-0.122652,0.8408049999999999,1.505751
385,0.066548,-1.278159,0.8192530000000001,0.019183000000000002,0.9574860000000001,-0.28783800000000004,1.1454030000000002,3.6139339999999995,-0.12321900000000001,-0.503574,0.8635889999999999,-0.062428
386,0.091786,-1.257983,0.809819,0.028206000000000002,0.951472,-0.30643899999999996,0.075946,0.205538,-0.11670799999999999,-0.673134,-0.888209,0.126446
387,0.073181,-1.296196,0.796067,0.019826,0.962534,-0.270433,-2.762225,0.107794,-0.6512899999999999,-0.528127,-0.9943790000000001,0.841097
388,0.007383,-1.362838,0.703073,0.001524,0.978455,-0.20645100000000002,-3.373583,1.718343,-1.414994,-0.20887600000000003,-0.33264099999999996,1.125458
389,-0.12106600000000001,-1.428294,0.533349,-0.017151,0.989864,-0.140975,-3.272011,1.9675200000000002,-1.21271,0.206742,0.948384,0.762282
390,-0.312525,-1.473973,0.29587399999999997,-0.02972,0.995316,-0.09197899999999999,-1.9816580000000001,2.34448,-0.696774,0.6267199999999999,0.566131,0.370605
391,-0.556215,-1.492112,0.003682,-0.041493,0.996906,-0.066742,-1.116067,2.445651,-0.906639,0.423253,0.10921900000000001,-0.023269
392,-0.935744,-1.494974,-0.423721,-0.060969,0.9971270000000001,-0.044926999999999995,-1.314352,2.011577,-1.14034,0.111201,-0.134578,-0.23243200000000003
393,-1.353372,-1.490292,-0.853073,-0.078512,0.996761,-0.017345,-1.48929,-0.44164200000000003,-0.750654,-0.20128800000000002,-0.22314099999999998,-0.137517
394,-1.7621200000000001,-1.4782,-1.247226,-0.090767,0.9957159999999999,0.017581,-1.794774,-0.564925,-0.558213,-0.263786,-0.22240100000000002,0.171048
395,-2.0448,-1.457444,-1.5417379999999998,-0.100633,0.993582,0.051626,-1.687658,1.028057,-0.483662,-0.04283,-0.14194400000000001,0.187876
396,-2.194662,-1.430479,-1.7160330000000001,-0.113507,0.9901719999999999,0.081698,-1.5995709999999999,1.03041,-0.61551,0.093762,-0.058058000000000005,0.039212000000000004
397,-2.279097,-1.4009989999999999,-1.8201310000000002,-0.128334,0.985619,0.109928,-1.506774,0.936701,-0.704472,0.189858,-0.048699,-0.047138
398,-2.31589,-1.369694,-1.882005,-0.146818,0.9798469999999999,0.135436,-1.454412,1.3045440000000001,-0.830628,0.126386,-0.108021,-0.154479
399,-2.332195,-1.336667,-1.9184029999999999,-0.167934,0.972717,0.16006099999999998,-1.3550200000000001,0.6987359999999999,-1.000073,-0.0040479999999999995,-0.07347000000000001,-0.066463
400,-2.3349029999999997,-1.302802,-1.937202,-0.191182,0.964304,0.18320999999999998,-1.355553,0.9696620000000001,-1.0858809999999999,0.186605,0.065176,-0.045743
401,-2.324786,-1.267959,-1.954107,-0.21739699999999998,0.9544940000000001,0.204152,-1.357812,1.395864,-1.10674,0.220784,0.095478,-0.297582
402,-2.310833,-1.235627,-1.964225,-0.24289499999999997,0.9443540000000001,0.22180100000000003,-1.1173790000000001,1.065616,-1.045885,0.093588,0.119,-0.38954099999999997
403,-2.289505,-1.2078659999999999,-1.965875,-0.267203,0.934861,0.233746,-0.843735,1.211549,-1.01425,0.22446300000000002,0.254821,-0.24755500000000003
404,-2.260422,-1.183689,-1.9563689999999998,-0.291244,0.926005,0.240191,-0.541127,0.8569459999999999,-1.0437290000000001,0.44865299999999997,0.388662,-0.281328
405,-2.228254,-1.16486,-1.943179,-0.312565,0.918733,0.241313,-0.286084,1.160619,-0.7496430000000001,0.58643,0.327559,-0.27758299999999997
406,-2.194075,-1.155262,-1.930137,-0.327775,0.9149010000000001,0.23562800000000003,0.06255,0.924932,-0.45421300000000003,0.66359,0.339647,-0.309083
407,-2.164643,-1.152377,-1.906306,-0.336752,0.913732,0.227356,0.431088,0.162699,-0.367341,0.575171,0.442866,-0.44564799999999993
408,-2.133683,-1.154144,-1.876307,-0.342263,0.914449,0.21596100000000001,0.649388,0.245392,-0.190734,0.489389,0.41814700000000005,-0.49342700000000006
409,-2.0836349999999997,-1.1620030000000001,-1.8258240000000001,-0.346366,0.917601,0.195035,1.453274,0.090388,-0.220171,0.381903,0.244493,-0.238538
410,-1.995485,-1.177665,-1.726763,-0.349052,0.9237139999999999,0.157844,2.307228,-0.338379,-0.029923,0.5342180000000001,0.20938800000000002,-0.19564
411,-1.8950930000000001,-1.205114,-1.610117,-0.338947,0.9338799999999999,0.113942,2.653132,-0.348486,0.8644719999999999,0.530216,0.10541099999999999,-0.100972
412,-1.7773,-1.249231,-1.478934,-0.309336,0.948742,0.064803,2.693926,-0.460325,1.889325,-0.032156,0.324894,-0.107955
413,-1.652793,-1.298231,-1.3221040000000002,-0.268298,0.963083,0.022049000000000003,2.5744,-1.6560979999999998,2.126099,-0.377209,0.707052,0.391052
414,-1.4833399999999999,-1.33892,-1.120616,-0.228925,0.9732370000000001,-0.020072,2.4783,-0.890227,1.9588720000000002,-0.445162,0.9382159999999999,0.41172
415,-1.234232,-1.3670280000000001,-0.855617,-0.19100599999999998,0.979311,-0.066828,2.488428,-0.31928,1.966782,-0.416141,0.622404,0.173335
416,-0.953376,-1.3811639999999998,-0.566296,-0.153694,0.982074,-0.109126,1.9149490000000002,-0.23619899999999996,1.9338279999999999,-0.340889,0.43803100000000006,0.074016
417,-0.69379,-1.3849870000000002,-0.300727,-0.11813299999999999,0.9827870000000001,-0.142034,1.467085,-0.11783800000000001,1.7607009999999998,-0.29235900000000004,0.28126599999999996,0.068868
418,-0.46428500000000006,-1.389465,-0.054861,-0.08075299999999999,0.983604,-0.161248,1.013197,-0.567272,2.125575,0.016284,0.001182,0.427911
419,-0.201573,-1.379264,0.211654,-0.038113,0.981714,-0.18650899999999998,1.393217,0.21746999999999997,2.153929,0.08127999999999999,-0.208887,0.396821
420,0.002355,-1.351979,0.416846,0.0005110000000000001,0.9761549999999999,-0.217074,1.6490939999999998,0.058226,1.79593,-0.029274,-0.309742,0.28081
421,0.116453,-1.315633,0.547048,0.029325999999999998,0.967622,-0.250693,1.72689,-1.155474,1.550201,-0.028288999999999998,-0.35575999999999997,0.21315599999999998
422,0.15901700000000002,-1.279088,0.635845,0.045538999999999996,0.9577540000000001,-0.28396,1.600697,-2.6040900000000002,1.3535540000000001,-0.038062,-0.38019400000000003,0.41607
423,0.158248,-1.244847,0.699824,0.050461,0.9473469999999999,-0.316207,1.474558,-3.3049760000000004,1.18052,-0.16833499999999998,-0.410864,0.542601
424,0.14002699999999998,-1.2146629999999998,0.751159,0.048662000000000004,0.9372520000000001,-0.34524,1.281142,-3.3068120000000003,1.008255,-0.23982399999999998,-0.43713,0.5567270000000001
425,0.119207,-1.192058,0.795774,0.043972000000000004,0.929132,-0.367124,0.8296,-2.975711,0.917083,-0.372463,-0.483224,0.586286
426,0.10754200000000001,-1.180425,0.8403889999999999,0.040844,0.924768,-0.378333,0.296595,-2.443184,0.8742219999999999,-0.369336,-0.47886000000000006,0.597495
427,0.104325,-1.1783489999999999,0.8842700000000001,0.039827,0.923976,-0.380371,-0.15478,-2.04403,0.813941,-0.415117,-0.5300239999999999,0.45541400000000004
428,0.111106,-1.186067,0.9257299999999999,0.041613,0.9269,-0.372994,-0.6701520000000001,-1.220457,0.699259,-0.11358900000000001,-0.446141,0.20008199999999998
429,0.137518,-1.206277,0.9671,0.048871,0.9342950000000001,-0.353135,-1.368219,-0.22576500000000002,0.5745359999999999,-0.120847,-0.453536,0.180222
430,0.171507,-1.237501,0.998549,0.055835,0.9449690000000001,-0.322359,-1.679977,0.41647799999999996,0.07587999999999999,-0.203128,-0.110161,-0.356779
431,0.177455,-1.263662,0.9923870000000001,0.05336799999999999,0.953204,-0.297581,-0.835032,0.7090989999999999,-0.5734130000000001,-0.237344,0.9749270000000001,-1.263867
432,0.141355,-1.26826,0.9474379999999999,0.041976,0.954584,-0.294971,0.28487399999999996,-0.092629,-0.584859,-0.225951,0.9735469999999999,-1.266477
433,0.117435,-1.251218,0.9455309999999999,0.036808999999999995,0.949368,-0.312002,0.943591,-1.427109,0.363624,0.6436109999999999,1.0635709999999998,-0.5079899999999999
434,0.118977,-1.230241,0.965779,0.039646,0.9425690000000001,-0.33164899999999997,1.046318,-0.543704,0.467895,-0.27565300000000004,-0.501468,-0.036515
435,0.12975699999999998,-1.213349,0.978693,0.045273,0.936793,-0.346943,0.5107619999999999,0.20256400000000002,0.255963,-0.46737700000000004,-0.604151,-0.14211600000000002
436,0.148791,-1.2197879999999999,0.983333,0.050973000000000004,0.939026,-0.340046,-0.814839,1.0410540000000001,-0.222252,-0.5365840000000001,-0.150361,-0.16502
437,0.137351,-1.248684,0.9437559999999999,0.043345,0.948569,-0.313589,-1.496071,1.567356,-1.2424959999999998,-0.34202,0.30451300000000003,0.690298
438,0.058312,-1.268486,0.830443,0.017351,0.954651,-0.29722,-0.289173,1.313833,-2.024225,-0.751757,0.78955,1.00213
439,-0.007594,-1.263499,0.733232,-0.002297,0.953155,-0.30247399999999997,0.38488,0.931048,-0.924098,-0.587593,0.59253,0.040083999999999995
440,-0.057989,-1.277253,0.677313,-0.016769,0.957225,-0.28885900000000003,-1.5339559999999999,0.055945,-0.731282,0.036148,-0.646571,0.9092049999999999
441,-0.083607,-1.328876,0.634587,-0.020006,0.97088,-0.23873000000000003,-3.086114,1.290858,-0.250187,0.116121,-0.470117,0.967475
442,-0.090802,-1.394088,0.5858479999999999,-0.01594,0.9844280000000001,-0.175065,-3.24511,2.454761,-0.26774499999999996,0.221888,0.245873,0.880815
443,-0.155107,-1.4479790000000001,0.460929,-0.018925,0.992467,-0.12103599999999999,-2.502352,3.172239,-0.781563,0.20131400000000002,0.517634,0.568164
444,-0.400844,-1.4842600000000001,0.151265,-0.033722,0.996258,-0.079573,-1.9816200000000002,3.028228,-1.182598,0.088349,0.101368,0.21702399999999997
445,-0.8929959999999999,-1.4949540000000001,-0.399712,-0.05901699999999999,0.997125,-0.047510000000000004,-1.635746,2.644185,-1.612319,-0.013753,-0.08469600000000001,-0.26734
446,-1.358826,-1.482565,-0.891566,-0.08614,0.99611,-0.018538,-1.530526,0.186423,-1.128803,-0.177501,-0.2193,-0.16046300000000002
447,-1.7289729999999999,-1.468365,-1.2472290000000001,-0.100972,0.994758,0.016106,-1.75785,-0.967526,-0.602279,-0.18774000000000002,-0.28182199999999996,0.191276
448,-2.0249349999999997,-1.447072,-1.544027,-0.11089500000000001,0.9923559999999999,0.054136000000000004,-1.962804,0.586803,-0.44760600000000006,-0.020987000000000002,-0.238389,0.31462399999999996
449,-2.19044,-1.419915,-1.730778,-0.122359,0.9886389999999999,0.087288,-1.604367,0.930132,-0.5694560000000001,0.181747,-0.047523,0.12853299999999998
450,-2.265992,-1.3932229999999999,-1.820641,-0.135643,0.984275,0.113141,-1.350538,0.632199,-0.608962,0.264229,0.048317,-0.075253
451,-2.3119650000000003,-1.366533,-1.888371,-0.149631,0.979211,0.136947,-1.339448,1.254066,-0.5552020000000001,0.262653,-0.011056,-0.36232
452,-2.3375369999999998,-1.341523,-1.9349290000000001,-0.16367,0.9738319999999999,0.157674,-1.145604,0.650666,-0.60969,0.111729,-0.061799,-0.105733
453,-2.353379,-1.316323,-1.957022,-0.178502,0.9677959999999999,0.177499,-1.0495940000000001,0.230276,-0.791147,0.12221199999999999,-0.027519,0.00315
454,-2.353198,-1.288257,-1.968911,-0.197726,0.9603510000000001,0.196545,-1.1541489999999999,0.8159850000000001,-0.9186780000000001,0.168261,0.004539,-0.040844
455,-2.345728,-1.2584739999999999,-1.9817939999999998,-0.219533,0.951622,0.21498499999999998,-1.179872,1.010025,-0.936198,0.061574000000000004,0.142601,-0.192906
456,-2.335932,-1.227929,-1.990109,-0.24248899999999998,0.941794,0.232856,-1.1312950000000002,0.791905,-1.043469,0.013881000000000001,0.159692,-0.262961
457,-2.321967,-1.198396,-1.9905959999999998,-0.265935,0.931457,0.248327,-0.929883,0.714607,-1.068669,0.17091900000000002,0.24643,-0.153066
458,-2.298769,-1.172993,-1.982845,-0.289198,0.9219139999999999,0.257754,-0.640313,0.8816360000000001,-0.9984940000000001,0.28224,0.344886,-0.194675
459,-2.267493,-1.154426,-1.972951,-0.310193,0.9145629999999999,0.259525,-0.34987199999999996,1.223552,-0.708484,0.355664,0.360446,-0.28128400000000003
460,-2.235674,-1.144305,-1.9615639999999999,-0.325561,0.910423,0.25522399999999995,-0.008878,0.882698,-0.48027,0.477233,0.35137199999999996,-0.28621399999999997
461,-2.207497,-1.1387040000000002,-1.9411759999999998,-0.336717,0.908092,0.24897800000000003,0.24687699999999999,0.338528,-0.482059,0.468553,0.42520600000000003,-0.401231
462,-2.176314,-1.1366,-1.9157060000000001,-0.345887,0.907208,0.239446,0.463311,0.441626,-0.345015,0.425263,0.40884699999999996,-0.451147
463,-2.129116,-1.140647,-1.873877,-0.35368299999999997,0.908903,0.220914,1.165239,0.43380799999999997,-0.330488,0.286193,0.320894,-0.33468400000000004
464,-2.0501099999999997,-1.151094,-1.792861,-0.36156900000000003,0.9132100000000001,0.187921,1.9661389999999999,0.150733,-0.29782600000000004,0.373898,0.349775,-0.285242
465,-1.9476950000000002,-1.1731209999999999,-1.688239,-0.360093,0.9219639999999999,0.142532,2.5467049999999998,0.46315100000000003,0.45678900000000006,0.44593900000000003,0.208102,-0.083359
466,-1.8327209999999998,-1.210218,-1.569246,-0.34078200000000003,0.935693,0.09135800000000001,2.715335,-0.035482,1.4018700000000002,0.279426,0.20781599999999997,-0.095203
467,-1.7156470000000001,-1.255826,-1.4305700000000001,-0.30654499999999996,0.9508049999999999,0.044716000000000006,2.689864,-1.154931,1.916941,-0.214955,0.6239779999999999,0.25150300000000003
468,-1.57794,-1.297293,-1.2577909999999999,-0.270099,0.962831,0.00193,2.594158,-1.2201,1.7806919999999997,-0.2514,0.611953,0.29428899999999997
469,-1.382677,-1.32683,-1.042329,-0.23729099999999997,0.9703879999999999,-0.045173000000000005,2.657598,-0.461589,1.717138,-0.363523,0.594905,0.135505
470,-1.143002,-1.34499,-0.7870510000000001,-0.203716,0.974614,-0.092885,2.422673,-0.445046,1.779569,-0.343983,0.317287,0.08380599999999999
471,-0.907719,-1.352414,-0.5331,-0.170744,0.976249,-0.133359,2.017785,-0.681783,1.6595400000000002,-0.390856,0.28730100000000003,0.12395999999999999
472,-0.721648,-1.354459,-0.325586,-0.141805,0.97669,-0.161144,1.369205,-0.652927,1.6656549999999999,-0.29452,0.264383,0.241436
473,-0.508012,-1.3516290000000002,-0.105866,-0.10575999999999999,0.9760790000000001,-0.189959,1.626663,0.174906,1.9462669999999997,0.068864,-0.120183,0.388232
474,-0.294522,-1.3332629999999999,0.109176,-0.06830499999999999,0.9719209999999999,-0.22517399999999999,1.833406,0.206762,1.792778,0.031409,-0.116025,0.423447
475,-0.139258,-1.305066,0.274516,-0.036453,0.964901,-0.260071,1.803073,-0.6749109999999999,1.72533,0.027939,-0.24877600000000002,0.289765
476,-0.039548,-1.273519,0.40797,-0.011581000000000001,0.9561379999999999,-0.292688,1.678541,-1.857751,1.66295,0.000488,-0.250587,0.385202
477,0.011253,-1.24139,0.5112949999999999,0.00364,0.946235,-0.323461,1.581925,-2.601492,1.525428,-0.117578,-0.321784,0.493749
478,0.032826999999999995,-1.211227,0.592808,0.011549,0.936049,-0.351681,1.399462,-2.806715,1.323591,-0.22926100000000002,-0.387297,0.498486
479,0.037444,-1.186167,0.656682,0.014046000000000001,0.9269379999999999,-0.374952,1.061696,-2.648232,1.144772,-0.264901,-0.441845,0.513166
480,0.039923,-1.1715950000000002,0.7104199999999999,0.015512999999999999,0.921372,-0.388373,0.46268400000000004,-2.185377,1.000057,-0.260386,-0.52536,0.522375
481,0.041849000000000004,-1.168264,0.7561439999999999,0.016390000000000002,0.9200719999999999,-0.391406,-0.056156,-1.9336939999999998,0.847628,-0.26172,-0.58331,0.477542
482,0.040012,-1.174625,0.793304,0.015436000000000002,0.9225450000000001,-0.385579,-0.523802,-1.751167,0.629415,-0.219354,-0.58618,0.387243
483,0.033277999999999995,-1.191302,0.820731,0.012326,0.928852,-0.370245,-1.082738,-1.463932,0.412566,-0.095074,-0.563908,0.29173899999999997
484,0.031056999999999998,-1.2217790000000002,0.840198,0.010619,0.939709,-0.34180900000000003,-1.7804380000000002,-0.693739,0.21869899999999998,-0.040236,-0.382352,0.060086
485,0.03522,-1.2596829999999999,0.844717,0.010779,0.951993,-0.30592800000000003,-1.8209950000000001,0.34764,-0.163206,-0.23162,-0.131879,-0.620219
486,0.015805,-1.279443,0.806702,0.00454,0.9578559999999999,-0.28721199999999997,-0.353186,1.059984,-0.820436,-0.24735300000000002,0.690688,-1.2260790000000001
487,-0.013122,-1.271142,0.7668699999999999,-0.0038729999999999997,0.9554389999999999,-0.295164,0.7906850000000001,-0.154635,-0.163548,0.379896,2.246511,-1.206835
488,0.011493000000000001,-1.249857,0.819832,0.003625,0.948939,-0.31543699999999997,1.228667,-1.683257,1.0410840000000001,0.515234,0.777043,-0.356973
489,0.036529,-1.222849,0.872297,0.012452,0.940075,-0.34074,1.2969190000000002,-0.773724,0.7690670000000001,-0.349519,-0.854137,-0.095066
490,0.059517999999999995,-1.206968,0.903652,0.021167,0.934541,-0.355224,0.360174,-0.12264800000000001,0.46792799999999996,-0.265308,-0.813753,-0.317399
491,0.079239,-1.2193889999999998,0.910157,0.027247000000000004,0.938889,-0.343138,-1.3571440000000001,1.425367,-0.21582600000000002,-0.267985,-0.231873,0.580275
492,0.063209,-1.271619,0.864391,0.018616999999999998,0.9555790000000001,-0.294144,-3.077209,0.618179,-1.459535,-0.260469,0.11284100000000001,1.4165809999999999
493,-0.034759,-1.320168,0.737992,-0.008619,0.968757,-0.24786100000000003,-1.417751,2.488858,-1.579595,-0.817263,1.9702540000000002,-0.258914
494,-0.019355,-1.296973,0.6741189999999999,-0.005233,0.962744,-0.270363,1.657446,2.608435,-0.58405,-0.614075,1.8480009999999998,-0.945717
495,-0.077467,-1.304429,0.622908,-0.020371,0.964734,-0.262438,-1.623658,-1.009666,-0.563876,-0.282852,-0.8678100000000001,0.894701
496,-0.134389,-1.35572,0.561131,-0.028595,0.97696,-0.211495,-2.987885,1.027372,-0.504445,-0.23849499999999998,-0.8310709999999999,0.9542930000000001
497,-0.258019,-1.414593,0.395766,-0.039695,0.987825,-0.15041500000000002,-3.2917050000000003,2.111166,-1.141411,-0.037835,0.24449,0.752405
498,-0.599953,-1.46269,0.012565999999999999,-0.060915,0.9941620000000001,-0.089049,-2.916141,2.006961,-1.248681,0.13411199999999998,0.621286,0.725554
499,-0.980735,-1.480699,-0.422808,-0.074755,0.995944,-0.050059,-1.7346759999999999,2.826462,-0.751165,0.28915599999999997,0.396955,0.12292
500,-1.304612,-1.4753040000000002,-0.802349,-0.091981,0.995444,-0.025079,-1.4292799999999999,2.515825,-1.121443,0.26316999999999996,0.08199400000000001,-0.347296
501,-1.591974,-1.459106,-1.117481,-0.111426,0.993769,0.00236,-1.575931,0.345115,-0.808833,0.035254,-0.18838,-0.23580399999999999
502,-1.850586,-1.4439600000000001,-1.365896,-0.12157000000000001,0.991967,0.03493,-1.52199,-0.780562,-0.40322600000000003,-0.14602300000000001,-0.198983,0.22800900000000002
503,-2.048661,-1.425653,-1.564044,-0.12842699999999999,0.9894850000000001,0.066512,-1.6596229999999998,0.479839,-0.328891,-0.150061,-0.236235,0.295457
504,-2.174434,-1.4033120000000001,-1.711743,-0.137237,0.986007,0.094624,-1.412316,1.0344309999999999,-0.43896899999999994,-0.090714,-0.203567,0.133602
505,-2.2305580000000003,-1.37935,-1.783365,-0.150343,0.9817299999999999,0.116624,-1.181626,0.639261,-0.650496,0.13886800000000002,-0.046305,-0.11358800000000001
506,-2.273552,-1.352686,-1.848397,-0.165113,0.976308,0.139852,-1.464015,1.265255,-0.57529,0.155103,-0.06754,-0.152196
507,-2.3105900000000004,-1.324532,-1.9083599999999998,-0.180057,0.96983,0.16434,-1.395241,0.828541,-0.646889,0.121555,-0.08572,-0.10625
508,-2.33134,-1.295421,-1.9445430000000001,-0.196983,0.9623229999999999,0.187427,-1.331807,0.777827,-0.806614,0.107918,-0.022397,-0.049381
509,-2.336776,-1.262723,-1.97367,-0.218531,0.9529200000000001,0.210204,-1.493295,1.2785090000000001,-0.933366,0.145045,0.027502999999999996,-0.136398
510,-2.335295,-1.228318,-1.998341,-0.24236999999999997,0.941925,0.23244499999999998,-1.44964,1.213558,-0.9789110000000001,0.147201,0.121277,-0.21746100000000002
511,-2.327491,-1.195591,-2.015575,-0.26645599999999997,0.9304319999999999,0.251583,-1.261944,1.182069,-0.9925149999999999,0.015663,0.204165,-0.313747
512,-2.308487,-1.165786,-2.018891,-0.291588,0.919098,0.265013,-0.9335709999999999,1.042794,-1.079774,0.325142,0.294311,-0.172408
513,-2.280035,-1.1398139999999999,-2.010822,-0.317021,0.9085559999999999,0.272069,-0.637897,1.11829,-1.035076,0.487232,0.415037,-0.22452199999999997
514,-2.2519430000000003,-1.1222239999999999,-2.007285,-0.336902,0.9010670000000001,0.273079,-0.41462,1.234708,-0.5059640000000001,0.433933,0.41532399999999997,-0.323952
515,-2.229719,-1.114242,-2.0049669999999997,-0.348562,0.8975770000000001,0.26992,-0.073674,0.852432,-0.308676,0.399084,0.368292,-0.33327399999999996
516,-2.202917,-1.110584,-1.9899490000000002,-0.358317,0.895958,0.26242,0.298774,0.580785,-0.364479,0.382563,0.43914,-0.453338
517,-2.164376,-1.111859,-1.959552,-0.367216,0.896524,0.247779,0.795694,0.561774,-0.299001,0.38989,0.451667,-0.357475
518,-2.110862,-1.121677,-1.9069720000000001,-0.37237600000000004,0.9008299999999999,0.223246,1.534133,0.054635,-0.12334500000000001,0.396698,0.506107,-0.433421
519,-2.035094,-1.144607,-1.8246349999999998,-0.369637,0.9105479999999999,0.185119,2.399757,0.183748,0.403828,0.44362700000000005,0.264776,-0.147536
520,-1.941813,-1.183237,-1.7215209999999999,-0.35221199999999997,0.925834,0.137022,2.7307639999999997,-0.374593,1.2155,0.302026,0.194863,-0.205931
521,-1.835995,-1.230332,-1.594897,-0.322247,0.9426,0.087521,2.973446,-0.760761,1.671684,-0.046405,0.311871,-0.145901
522,-1.701153,-1.275061,-1.427443,-0.28896700000000003,0.9565879999999999,0.037883999999999994,2.945617,-1.344078,1.582506,-0.23205900000000002,0.45225600000000005,0.06300800000000001
523,-1.529021,-1.3063930000000001,-1.229464,-0.26110300000000003,0.965249,-0.010914,2.762876,-0.610997,1.431808,-0.364706,0.64254,0.32103400000000004
524,-1.311389,-1.3306930000000001,-1.001101,-0.229844,0.9713129999999999,-0.060998000000000004,2.458367,-0.128751,1.7762349999999998,-0.316237,0.360825,0.121255
525,-1.0960299999999998,-1.3495409999999999,-0.766259,-0.19518,0.9756229999999999,-0.10031799999999999,2.025687,-0.981556,1.764691,-0.304377,0.33373400000000003,0.106879
526,-0.8930889999999999,-1.356169,-0.540564,-0.165914,0.9770559999999999,-0.13354100000000002,1.794498,-0.6220600000000001,1.574609,-0.24572199999999997,0.214747,0.34843
527,-0.668244,-1.353523,-0.309229,-0.13356600000000002,0.9764889999999999,-0.169199,1.903095,0.164298,1.7004099999999998,-0.127924,-0.012072,0.413889
528,-0.44500500000000004,-1.3369010000000001,-0.084009,-0.099766,0.9727709999999999,-0.209193,2.075984,0.145708,1.670663,-0.1385,-0.086022,0.422191
529,-0.26917399999999997,-1.310454,0.097427,-0.068454,0.966302,-0.24814,1.959468,-0.19880499999999998,1.612606,0.052082,-0.319909,0.326052
530,-0.148359,-1.279959,0.24084099999999997,-0.042386,0.9580040000000001,-0.283602,1.847027,-1.2752700000000001,1.577949,0.153455,-0.324475,0.368685
531,-0.073225,-1.247248,0.35244200000000003,-0.02326,0.9481129999999999,-0.317079,1.763421,-1.7197770000000001,1.456157,0.051687000000000004,-0.390542,0.40773200000000004
532,-0.029562,-1.2170370000000001,0.439979,-0.010239,0.938077,-0.34627399999999997,1.457235,-2.09313,1.315628,-0.161117,-0.43253800000000003,0.417822
533,-0.010586,-1.192697,0.510286,-0.003908,0.9293680000000001,-0.369133,1.109224,-2.4782,1.211142,-0.317824,-0.448075,0.5454479999999999
534,-0.005085,-1.175232,0.571141,-0.001959,0.9227790000000001,-0.385323,0.751315,-2.48388,1.077258,-0.307825,-0.462742,0.5948260000000001
535,-0.004838,-1.165358,0.619635,-0.0019079999999999998,0.9189299999999999,-0.394415,0.32215,-2.0543169999999997,0.8525870000000001,-0.305068,-0.5064850000000001,0.574286
536,-0.009285999999999999,-1.166072,0.652949,-0.003657,0.9192110000000001,-0.39374699999999996,-0.240802,-1.573851,0.53505,-0.174475,-0.605582,0.28374699999999997
537,-0.021652,-1.177427,0.6692229999999999,-0.008298,0.923623,-0.383212,-0.780026,-1.262889,0.228579,-0.098162,-0.564446,0.195376
538,-0.037627,-1.2019870000000001,0.676204,-0.013561000000000002,0.932757,-0.360249,-1.457079,-1.00563,0.150881,-0.007953,-0.467333,0.109928
539,-0.05017,-1.231617,0.6735180000000001,-0.016685,0.9430280000000001,-0.332293,-1.3581370000000001,-0.12931800000000002,-0.098447,-0.107216,0.17594500000000002,-0.79904
540,-0.063113,-1.245882,0.6507609999999999,-0.020134,0.947678,-0.31859,-0.330882,0.6558149999999999,-0.46188199999999996,-0.133187,0.50949,-1.002409
541,-0.083268,-1.239276,0.627957,-0.027070999999999998,0.9455479999999999,-0.324352,0.716435,-0.346009,-0.188364,0.061037,1.6413810000000002,-1.109639
542,-0.07102699999999999,-1.218647,0.658406,-0.024478,0.938634,-0.344044,1.170374,-1.074215,0.638271,0.172076,0.255824,-0.318981
543,-0.057815,-1.196128,0.697285,-0.021146,0.930629,-0.36535100000000004,1.086653,-1.0065790000000001,0.579915,-0.160967,-0.483592,-0.054403
544,-0.038745,-1.183821,0.7283390000000001,-0.014618,0.926055,-0.377105,0.290024,-0.26219699999999996,0.532805,-0.288894,-0.8036939999999999,-0.229737
545,-0.031019,-1.19038,0.743635,-0.011516,0.9285100000000001,-0.371127,-0.602453,-0.366975,0.070574,-0.305257,-0.34863,-0.003339
546,-0.04249,-1.213797,0.7160380000000001,-0.014844,0.93695,-0.349147,-1.561613,1.595758,-0.818856,-0.31199899999999997,-0.038665,0.440395
547,-0.11543699999999998,-1.251958,0.609162,-0.036105,0.9496,-0.311375,-2.135396,0.833901,-1.871949,-0.964567,0.983398,1.159229
548,-0.147858,-1.26241,0.522365,-0.044714,0.952825,-0.300208,0.8554620000000001,3.891394,-0.775004,-0.562891,1.748591,-1.016778
549,-0.166001,-1.23706,0.48106000000000004,-0.054127999999999996,0.944825,-0.323071,0.192155,-0.7373689999999999,-0.963849,-0.218119,0.233215,0.399976
550,-0.23532899999999998,-1.2650549999999998,0.41940500000000003,-0.07018200000000001,0.953624,-0.292702,-2.3215049999999997,-0.00839,-0.46638999999999997,-0.142495,-1.047908,0.8384940000000001
551,-0.306765,-1.321624,0.31796199999999997,-0.07446699999999999,0.969117,-0.235087,-3.4715629999999997,1.947973,-0.6638689999999999,0.011189,-0.460618,1.045817
552,-0.43654,-1.388441,0.135898,-0.076673,0.983419,-0.16433699999999998,-3.8514510000000004,2.697967,-0.6108680000000001,0.093824,0.117014,0.8485870000000001
553,-0.6566609999999999,-1.4337229999999999,-0.150897,-0.083414,0.9906200000000001,-0.108222,-2.487659,3.3287199999999997,-0.7549060000000001,0.377894,0.311778,0.06262899999999999
554,-0.885482,-1.4480620000000002,-0.44341400000000003,-0.09477999999999999,0.9924780000000001,-0.077481,-1.5700969999999999,2.836554,-1.014921,0.330543,0.202362,-0.167041
555,-1.1394,-1.441991,-0.7389399999999999,-0.116676,0.9917159999999999,-0.053707000000000005,-1.327602,1.228162,-1.268608,0.23070500000000002,0.105574,-0.27814099999999997
556,-1.375204,-1.430583,-0.972981,-0.13708499999999998,0.990186,-0.027160000000000004,-1.389153,-0.897444,-0.85398,-0.101349,-0.10668699999999999,-0.065598
557,-1.626496,-1.421318,-1.207658,-0.14868699999999999,0.988849,0.00829,-1.823152,-0.635682,-0.40442100000000003,-0.23972600000000002,-0.20514200000000002,0.15986199999999998
558,-1.8592380000000002,-1.408984,-1.451287,-0.154445,0.9869370000000001,0.045826,-1.922775,0.846934,-0.256398,-0.092213,-0.237715,0.157421
559,-1.996843,-1.388911,-1.6044200000000002,-0.164708,0.983504,0.074752,-1.390363,0.49710699999999997,-0.6132890000000001,0.049779000000000004,-0.200149,0.1662
560,-2.078273,-1.364515,-1.698395,-0.179004,0.978799,0.099535,-1.3829360000000002,0.631683,-0.707414,0.175449,-0.043298,-0.018389
561,-2.136343,-1.337099,-1.775987,-0.19551500000000002,0.972817,0.12409400000000001,-1.44404,0.981548,-0.768109,0.178471,-0.054451,-0.11420599999999999
562,-2.18337,-1.307704,-1.839898,-0.212777,0.96559,0.14953,-1.4884879999999998,0.548293,-0.807389,0.051766,-0.052184,-0.051325
563,-2.221593,-1.276504,-1.8906450000000001,-0.23077199999999998,0.957008,0.175724,-1.482502,0.634795,-0.86621,0.092695,-0.010490000000000001,-0.010409999999999999
564,-2.243016,-1.243192,-1.934479,-0.251768,0.946816,0.200376,-1.5822260000000001,1.192452,-0.9092819999999999,0.180815,-0.014275,-0.129117
565,-2.25406,-1.210533,-1.969984,-0.273384,0.9358040000000001,0.222554,-1.404866,1.030902,-0.889676,0.151374,0.11731199999999999,-0.306172
566,-2.2544,-1.180982,-1.99015,-0.294625,0.9249799999999999,0.240013,-1.10881,0.870242,-0.929063,0.110009,0.194634,-0.297996
567,-2.243359,-1.153846,-1.9957150000000001,-0.31678,0.914328,0.252294,-0.814442,0.780012,-0.997394,0.217704,0.247125,-0.22049499999999997
568,-2.224133,-1.13129,-1.9934,-0.337864,0.904962,0.258629,-0.5817180000000001,0.958565,-0.8239920000000001,0.390171,0.403861,-0.298333
569,-2.201772,-1.116195,-1.993829,-0.354553,0.898436,0.25904,-0.37524,1.181275,-0.487413,0.318146,0.370363,-0.298118
570,-2.178699,-1.1077290000000002,-1.9884060000000001,-0.366666,0.8946860000000001,0.255127,-0.00435,0.701346,-0.404091,0.342161,0.363523,-0.277878
571,-2.154736,-1.103425,-1.971593,-0.37588299999999997,0.892756,0.248388,0.280015,0.373238,-0.383524,0.44579799999999997,0.40817800000000004,-0.40425700000000003
572,-2.123544,-1.102206,-1.944897,-0.384372,0.8922059999999999,0.237116,0.633042,0.36130100000000004,-0.368225,0.346744,0.379538,-0.48208100000000004
573,-2.071017,-1.1071879999999998,-1.892408,-0.392386,0.894445,0.21447399999999997,1.500758,0.201667,-0.36089099999999996,0.346534,0.345927,-0.349453
574,-1.9989310000000002,-1.121997,-1.8137009999999998,-0.39471999999999996,0.900969,0.180137,2.095713,0.108244,0.10806099999999999,0.417562,0.344011,-0.324653
575,-1.8984919999999998,-1.150722,-1.709927,-0.386123,0.9130590000000001,0.13126400000000002,2.769803,0.26829000000000003,0.790886,0.343826,0.174008,-0.161018
576,-1.788615,-1.189632,-1.584797,-0.363208,0.928232,0.080389,2.929431,-0.600934,1.4404569999999999,0.159671,0.305212,-0.099035
577,-1.6677990000000003,-1.231054,-1.432022,-0.33167399999999997,0.94284,0.032275,3.004098,-1.3360459999999998,1.6598380000000001,-0.224692,0.496277,0.193342
578,-1.51591,-1.263658,-1.250772,-0.301873,0.953203,-0.016585,2.850821,-0.6914939999999999,1.511595,-0.365241,0.752883,0.38569499999999995
579,-1.325993,-1.287057,-1.040025,-0.271597,0.960015,-0.067849,2.830004,-0.621883,1.70364,-0.395517,0.74607,0.43695900000000004
580,-1.1196270000000001,-1.305244,-0.811808,-0.23617800000000003,0.9649479999999999,-0.114428,2.474478,-0.670632,1.9479790000000001,-0.227338,0.470233,0.21756199999999998
581,-0.9360069999999999,-1.317132,-0.6088720000000001,-0.20206400000000002,0.9679989999999999,-0.148815,1.566794,-0.756391,1.8039479999999999,-0.338616,0.43362700000000004,0.154949
582,-0.767343,-1.3247209999999998,-0.425489,-0.16910999999999998,0.9698760000000001,-0.17532999999999999,1.522757,-0.11916500000000001,1.7942779999999998,-0.20549299999999998,0.154361,0.428717
583,-0.558805,-1.322071,-0.213731,-0.13051,0.9692270000000001,-0.20872,1.774992,0.199722,2.015685,-0.102644,-0.11195799999999999,0.440959
584,-0.36712100000000003,-1.302757,-0.014062,-0.095058,0.964292,-0.24719000000000002,2.145239,-0.276752,1.768918,0.07983,-0.374448,0.35070500000000004
585,-0.23199899999999998,-1.27112,0.144505,-0.067875,0.955432,-0.287298,2.0768869999999997,-1.196142,1.57627,0.202915,-0.413074,0.380346
586,-0.15698800000000002,-1.238033,0.262468,-0.05107,0.9451430000000001,-0.322637,1.918764,-2.122782,1.40971,0.184585,-0.416289,0.47455299999999995
587,-0.121056,-1.205345,0.35426799999999997,-0.043156,0.9339629999999999,-0.35475300000000004,1.7703939999999998,-2.7459830000000003,1.275945,-0.05479,-0.45765900000000004,0.479524
588,-0.11221199999999999,-1.1764700000000001,0.427501,-0.043019999999999996,0.923256,-0.381768,1.455917,-3.0501240000000003,1.150224,-0.134516,-0.448646,0.500207
589,-0.11396099999999999,-1.1562350000000001,0.490201,-0.045802999999999996,0.915293,-0.400174,0.949039,-2.891538,1.092001,-0.269108,-0.456416,0.5857060000000001
590,-0.11791300000000002,-1.146224,0.5422170000000001,-0.048458999999999995,0.911215,-0.409069,0.425073,-2.356472,0.9391729999999999,-0.372744,-0.5210319999999999,0.574871
591,-0.12129000000000001,-1.145536,0.583728,-0.049916,0.9109309999999999,-0.409525,-0.033075,-1.903623,0.777295,-0.386821,-0.545987,0.540461
592,-0.128237,-1.153714,0.611977,-0.051806,0.914275,-0.401767,-0.514247,-1.438626,0.527647,-0.223386,-0.5695640000000001,0.261096
593,-0.137141,-1.171475,0.625164,-0.053152,0.921325,-0.385142,-1.090881,-0.8285020000000001,0.298511,-0.049249,-0.402694,0.084788
594,-0.148946,-1.201234,0.6232270000000001,-0.053600999999999996,0.932485,-0.35720599999999997,-1.648839,-0.30909899999999996,0.096327,-0.014544999999999999,-0.27736500000000003,-0.05810800000000001
595,-0.165865,-1.2309809999999999,0.604598,-0.055031,0.942816,-0.32873600000000003,-1.3186069999999999,0.22891999999999998,-0.203294,-0.09542,0.315042,-0.795776
596,-0.19,-1.244107,0.572127,-0.06060599999999999,0.94711,-0.315132,-0.392443,0.208711,-0.480946,-0.163027,1.414951,-1.090294
597,-0.198772,-1.233052,0.570515,-0.065432,0.9435040000000001,-0.324833,1.08085,-0.66998,0.331637,0.246935,1.8906479999999999,-1.042125
598,-0.167098,-1.211419,0.626192,-0.058494000000000004,0.936116,-0.34679099999999996,1.218764,-1.145098,0.7455430000000001,0.077323,-0.078542,-0.21877600000000003
599,-0.142652,-1.194373,0.669613,-0.052261,0.9299850000000001,-0.363861,0.758533,-0.490717,0.536391,-0.171403,-0.6873859999999999,-0.113953
600,-0.127262,-1.1923860000000002,0.6912590000000001,-0.046889,0.9292530000000001,-0.366454,-0.293809,-0.14078800000000002,0.25405900000000003,-0.262941,-0.678337,-0.27566599999999997
601,-0.140494,-1.2118149999999999,0.672004,-0.049196,0.936255,-0.347857,-1.425291,0.6215390000000001,-0.526077,-0.42056099999999996,-0.027639999999999998,0.1673
602,-0.205102,-1.24613,0.5848869999999999,-0.064968,0.947757,-0.31230399999999997,-2.093026,0.7857689999999999,-1.588492,-0.239537,0.617566,1.3032860000000002
603,-0.304994,-1.266617,0.454589,-0.089938,0.9540930000000001,-0.28568499999999997,-0.840454,1.9513099999999999,-1.375069,-0.469113,0.9721920000000001,1.2372530000000002
604,-0.25522399999999995,-1.245458,0.44138299999999997,-0.080694,0.947543,-0.309274,1.5231860000000002,2.43192,-0.271725,-0.28509,0.387785,-0.17644400000000002
605,-0.28891,-1.249918,0.40936300000000003,-0.08985900000000001,0.948959,-0.302327,-1.7059919999999997,-0.926947,-0.38932100000000003,-0.252761,-1.227981,0.9452709999999999
606,-0.368113,-1.303056,0.327642,-0.0952,0.9643709999999999,-0.246827,-3.28136,0.6941579999999999,-0.294512,-0.21389699999999998,-1.3373270000000002,0.814637
607,-0.492842,-1.358908,0.159172,-0.09950099999999999,0.9776360000000001,-0.185275,-3.423965,2.4064520000000003,-0.8019029999999999,0.051115,0.678477,0.828082
608,-0.746053,-1.404691,-0.146333,-0.112222,0.9862360000000001,-0.121419,-3.2932980000000005,2.428623,-1.131099,0.155541,0.947708,0.786931
609,-0.9874430000000001,-1.418778,-0.44683100000000003,-0.126385,0.988467,-0.083411,-1.6794779999999998,2.778004,-0.92479,0.23194499999999998,0.705914,0.508734
610,-1.163268,-1.411111,-0.669377,-0.145981,0.9872770000000001,-0.063019,-1.311187,1.698203,-1.340645,0.279358,0.11053099999999999,-0.360748
611,-1.358208,-1.394937,-0.8763139999999999,-0.171011,0.984577,-0.036913,-1.396102,-0.352004,-1.113216,-0.076029,-0.24039000000000002,0.080675
612,-1.540812,-1.383872,-1.0441610000000001,-0.185749,0.9825799999999999,-0.005571,-1.48922,-0.8247190000000001,-0.567399,-0.061291,-0.238394,0.049333
613,-1.713646,-1.372917,-1.219294,-0.194582,0.9804860000000001,0.027987,-1.8203919999999998,0.43278599999999995,-0.400409,-0.037565,-0.187029,0.199262
614,-1.8545740000000002,-1.357114,-1.376765,-0.203574,0.9772569999999999,0.059372,-1.6228479999999998,0.661319,-0.44632299999999997,0.186362,-0.011284,0.047836000000000004
615,-1.947012,-1.338126,-1.482552,-0.214446,0.9730540000000001,0.084713,-1.333016,0.464765,-0.561551,0.24131599999999997,-0.003312,-0.073742
616,-2.0188450000000002,-1.317609,-1.569977,-0.225762,0.9681190000000001,0.10851300000000001,-1.456477,0.8632270000000001,-0.46678400000000003,0.232492,-0.035822,-0.123329
617,-2.08589,-1.295267,-1.654998,-0.236752,0.9622809999999999,0.134017,-1.4771290000000001,0.48004600000000003,-0.5283939999999999,-0.037601,-0.14393699999999998,-0.015639
618,-2.141844,-1.269455,-1.7157950000000002,-0.249705,0.954939,0.160423,-1.388089,0.124775,-0.7323970000000001,-0.0018510000000000002,-0.10839700000000001,0.025735
619,-2.1754599999999997,-1.2399639999999998,-1.763882,-0.267231,0.945772,0.184658,-1.477071,0.8627229999999999,-0.849332,0.157154,0.06201,-0.07478
620,-2.194588,-1.20792,-1.8045189999999998,-0.28811,0.9348799999999999,0.20733800000000002,-1.4678309999999999,0.925919,-0.9433520000000001,0.163461,0.17164200000000002,-0.215883
621,-2.206635,-1.176266,-1.83345,-0.309254,0.923177,0.22825900000000002,-1.289758,0.639912,-0.969515,0.079213,0.202403,-0.337146
622,-2.2069240000000003,-1.147094,-1.850159,-0.330717,0.911573,0.244248,-1.030571,0.866959,-0.963723,0.147215,0.192477,-0.23510799999999998
623,-2.194086,-1.121894,-1.8546919999999998,-0.35236999999999996,0.900924,0.253314,-0.681908,0.837975,-0.944159,0.420195,0.38664299999999996,-0.228946
624,-2.1750220000000002,-1.103577,-1.855103,-0.370655,0.892824,0.255885,-0.468087,1.063731,-0.576554,0.460346,0.391737,-0.315348
625,-2.156397,-1.094018,-1.856143,-0.38245100000000004,0.8884780000000001,0.253643,-0.149316,0.791022,-0.32081,0.39708499999999997,0.335826,-0.25500100000000003
626,-2.138378,-1.08809,-1.844634,-0.391394,0.885742,0.249538,0.170926,0.227952,-0.44710600000000006,0.510108,0.39421100000000003,-0.366481
627,-2.114684,-1.084637,-1.8245959999999999,-0.39981,0.884134,0.24177600000000002,0.378089,0.396098,-0.318756,0.41217,0.43704799999999994,-0.491913
628,-2.078951,-1.087417,-1.793177,-0.406044,0.8854290000000001,0.22614099999999998,1.003843,0.33723800000000004,-0.260899,0.340049,0.339027,-0.411444
629,-2.0150639999999997,-1.097177,-1.723273,-0.41183000000000003,0.8899229999999999,0.19603299999999999,1.935598,-0.049541,-0.248554,0.345501,0.452408,-0.363086
630,-1.9297009999999999,-1.117186,-1.630308,-0.410289,0.8988709999999999,0.153921,2.5885540000000002,0.29844899999999996,0.33881100000000003,0.4239,0.24736999999999998,-0.220754
631,-1.8205630000000002,-1.1501540000000001,-1.514076,-0.395673,0.912827,0.10093300000000001,2.915387,-0.0020800000000000003,1.150123,0.302243,0.051666,-0.10978299999999999
632,-1.7105849999999998,-1.1910379999999998,-1.375031,-0.367076,0.9287540000000001,0.05165,3.062439,-1.492588,1.601713,0.009914,0.285876,0.165483
633,-1.5954760000000001,-1.228422,-1.218831,-0.335619,0.94196,0.008284999999999999,2.8116950000000003,-1.251001,1.610334,-0.283491,0.662868,0.393052
634,-1.441759,-1.257503,-1.044386,-0.305629,0.951324,-0.039658,2.707997,-0.32606799999999997,1.631925,-0.456883,0.877976,0.064682
635,-1.259369,-1.280705,-0.847535,-0.272277,0.958218,-0.087646,2.515158,-0.10340999999999999,1.7947990000000003,-0.45188999999999996,0.41643100000000005,0.26387
636,-1.053311,-1.293568,-0.634955,-0.237852,0.9618180000000001,-0.135392,2.400795,0.015527000000000001,1.721209,-0.40793,0.37898699999999996,0.193131
637,-0.8979030000000001,-1.300349,-0.45914799999999995,-0.20892399999999997,0.963651,-0.166507,1.389459,-1.001144,1.632126,-0.39460700000000004,0.328234,0.179859
638,-0.731114,-1.307342,-0.285197,-0.173878,0.9654959999999999,-0.19386,1.548931,0.638519,1.975106,-0.020718,-0.099941,0.46424499999999996
639,-0.514254,-1.304282,-0.079309,-0.129546,0.9646950000000001,-0.229302,1.788502,0.821766,2.0288880000000002,0.035536,-0.208851,0.365777
640,-0.336618,-1.2815,0.10373900000000001,-0.094225,0.9584450000000001,-0.269264,2.192724,-0.454643,1.7310400000000001,0.10978900000000001,-0.32145100000000004,0.320305
641,-0.222426,-1.248805,0.25027,-0.06980800000000001,0.948607,-0.308657,2.145829,-1.7377060000000002,1.623398,0.16134600000000002,-0.336516,0.439379
642,-0.165451,-1.212384,0.360254,-0.057773000000000005,0.9364549999999999,-0.345995,2.094992,-2.639783,1.348598,0.037082,-0.39666,0.557635
643,-0.14624700000000002,-1.178562,0.44041099999999994,-0.055704,0.924057,-0.378171,1.786846,-2.825285,1.1191520000000001,-0.191152,-0.461441,0.559446
644,-0.145481,-1.1507399999999999,0.505359,-0.059119000000000005,0.9130659999999999,-0.40350199999999997,1.387658,-2.941823,1.038533,-0.25042,-0.422465,0.639555
645,-0.152251,-1.13244,0.560075,-0.064374,0.905451,-0.41953999999999997,0.8777520000000001,-2.73745,0.987707,-0.244968,-0.437158,0.654784
646,-0.159271,-1.125392,0.607783,-0.068328,0.902436,-0.425368,0.281227,-2.36967,0.907225,-0.305375,-0.564195,0.520171
647,-0.16861900000000002,-1.1301299999999999,0.642857,-0.07158300000000001,0.904468,-0.420491,-0.345981,-1.821293,0.7119979999999999,-0.19952,-0.668231,0.316792
648,-0.177215,-1.147074,0.6657029999999999,-0.072482,0.911565,-0.404715,-1.0489600000000001,-1.224927,0.569591,-0.069623,-0.62151,0.094169
649,-0.179783,-1.18175,0.6762520000000001,-0.067826,0.925271,-0.37319,-1.9433200000000002,-0.204077,0.46696400000000005,-0.10235599999999999,-0.292459,-0.273508
650,-0.180201,-1.2158,0.66813,-0.062297000000000005,0.9376479999999999,-0.341956,-1.349516,0.5970439999999999,-0.055479999999999995,-0.21053000000000002,0.254186,-0.853585
651,-0.200899,-1.2303549999999999,0.6354069999999999,-0.06663,0.942607,-0.327185,-0.592286,0.248185,-0.5827859999999999,-0.27757800000000005,0.544682,-0.9424530000000001
652,-0.22311999999999999,-1.224365,0.614193,-0.07513099999999999,0.940591,-0.331124,0.797506,-0.271117,-0.061803,0.20702800000000002,1.6507479999999999,-0.9253610000000001
653,-0.20764699999999997,-1.205602,0.648339,-0.073625,0.934054,-0.349457,1.061053,-1.013105,0.381096,0.1075,0.21387899999999999,-0.19638
654,-0.200014,-1.1863290000000002,0.676755,-0.074519,0.926998,-0.367586,0.989978,-0.8035869999999999,0.261759,-0.057805999999999996,-0.541546,-0.031905
655,-0.199156,-1.177037,0.6888569999999999,-0.075904,0.923473,-0.376077,0.093657,-0.31816500000000003,0.059391,-0.218148,-0.744061,-0.305213
656,-0.2134,-1.193719,0.669324,-0.07797899999999999,0.929745,-0.35985,-1.555121,0.614897,-0.345359,-0.317925,-0.16526400000000002,0.25143699999999997
657,-0.27458699999999997,-1.2367190000000001,0.588639,-0.088909,0.9447129999999999,-0.31561100000000003,-2.730905,0.60893,-1.295736,-0.35835700000000004,0.537571,1.461363
658,-0.351385,-1.266426,0.460158,-0.103153,0.9540360000000001,-0.281378,-1.111006,3.882833,-1.179657,-0.769986,1.134282,0.8791260000000001
659,-0.29064,-1.2470370000000002,0.44341400000000003,-0.091165,0.9480459999999999,-0.304788,1.327024,2.119774,-0.357065,-0.43231800000000004,0.682523,-0.9289459999999999
660,-0.343902,-1.2533530000000002,0.3994,-0.10524100000000002,0.9500360000000001,-0.29386,-1.874209,-1.2411290000000001,-0.522534,-0.056242999999999994,-1.035608,1.052786
661,-0.44876099999999997,-1.3076290000000002,0.297222,-0.11285999999999999,0.965571,-0.234379,-3.388921,0.506948,-0.265094,0.013419,-1.036921,0.788701
662,-0.573867,-1.359008,0.12281900000000001,-0.11411600000000001,0.977657,-0.17653,-3.244478,2.854678,-0.621744,0.108699,-0.022487,0.768098
663,-0.810656,-1.403263,-0.175026,-0.12084500000000001,0.985999,-0.11489,-3.392043,2.792184,-0.8491569999999999,0.159527,0.576242,0.657508
664,-1.072711,-1.418144,-0.498278,-0.133576,0.9883709999999999,-0.072641,-1.9703970000000002,2.794103,-0.9631430000000001,0.261445,0.43473999999999996,0.263193
665,-1.26911,-1.4087020000000001,-0.742043,-0.154088,0.986891,-0.04795,-1.451937,1.73901,-1.2946600000000001,0.259832,0.094163,-0.24154
666,-1.4484219999999999,-1.389946,-0.9331959999999999,-0.17851199999999998,0.983691,-0.021955000000000002,-1.363925,-0.378558,-1.154599,0.178558,-0.021914,-0.29730500000000004
667,-1.618966,-1.3732790000000001,-1.0849870000000001,-0.196,0.980557,0.009448,-1.44507,-1.1618680000000001,-0.7354189999999999,-0.196426,-0.19508,0.107098
668,-1.778482,-1.358982,-1.242508,-0.20571,0.977651,0.043348000000000005,-1.799152,0.41982299999999995,-0.368178,-0.24095999999999998,-0.248556,0.18857000000000002
669,-1.9071630000000002,-1.3417139999999999,-1.395437,-0.21435300000000002,0.973875,0.074949,-1.791447,1.094479,-0.45871899999999993,-0.14474700000000001,-0.22770500000000002,0.131166
670,-1.99688,-1.318777,-1.504548,-0.227061,0.968411,0.10305999999999998,-1.567256,0.700234,-0.625406,0.058130999999999995,-0.10433599999999998,0.040464
671,-2.0609439999999997,-1.29345,-1.588267,-0.241564,0.961785,0.128893,-1.530592,1.0048540000000001,-0.644768,0.177248,-0.039682,-0.11052200000000001
672,-2.1047860000000003,-1.267647,-1.6548610000000001,-0.25696399999999997,0.954401,0.15194000000000002,-1.433953,0.8672489999999999,-0.682372,0.160253,-0.048197000000000004,-0.07170900000000001
673,-2.143454,-1.240035,-1.709968,-0.272948,0.945795,0.175976,-1.459143,0.668347,-0.736773,0.141768,-0.062022,-0.038525
674,-2.172498,-1.210696,-1.7603490000000002,-0.290479,0.9358620000000001,0.199454,-1.573418,1.093884,-0.760549,0.209195,0.014349,-0.08960599999999999
675,-2.190957,-1.1792989999999999,-1.806155,-0.310515,0.9243389999999999,0.221755,-1.570344,1.231581,-0.832275,0.162948,0.146126,-0.205092
676,-2.2006240000000004,-1.1475440000000001,-1.840368,-0.331919,0.911758,0.241919,-1.405671,0.9778709999999999,-0.931212,0.07279400000000001,0.211243,-0.299323
677,-2.2005369999999997,-1.116911,-1.85896,-0.354354,0.89875,0.25822399999999995,-1.099831,0.785509,-1.0431290000000002,0.26815700000000003,0.333473,-0.217986
678,-2.188001,-1.0889879999999998,-1.864693,-0.377886,0.886159,0.268185,-0.8248040000000001,0.991135,-1.0222440000000002,0.400392,0.45119799999999993,-0.29886999999999997
679,-2.1680650000000004,-1.06846,-1.867302,-0.398117,0.87646,0.270773,-0.501552,1.1227340000000001,-0.646277,0.47842399999999996,0.501149,-0.358709
680,-2.149594,-1.058281,-1.865278,-0.410498,0.8715139999999999,0.268241,-0.093333,0.57593,-0.388488,0.47037299999999993,0.454658,-0.34159
681,-2.132609,-1.052455,-1.851967,-0.419284,0.868642,0.26393,0.227421,0.197931,-0.44344700000000004,0.402301,0.490595,-0.46633800000000003
682,-2.105816,-1.050542,-1.82909,-0.42763199999999996,0.867693,0.253449,0.608808,0.43260299999999996,-0.319306,0.369084,0.45883,-0.417908
683,-2.06294,-1.057559,-1.7840599999999998,-0.432725,0.87116,0.23200300000000001,1.476473,-0.09608799999999999,-0.193996,0.317949,0.5489149999999999,-0.440439
684,-1.999827,-1.075244,-1.7109,-0.432418,0.879706,0.19780899999999998,2.335048,0.241271,0.21001599999999998,0.339812,0.45330200000000004,-0.356394
685,-1.9072189999999998,-1.108649,-1.612692,-0.420872,0.8950969999999999,0.14718599999999998,2.8533619999999997,0.014801,0.9830459999999999,0.28233800000000003,0.148146,-0.154754
686,-1.8076740000000002,-1.1506379999999998,-1.493945,-0.39651,0.913025,0.095721,3.132483,-0.559034,1.452544,-0.008031,0.183594,-0.021457
687,-1.6936060000000002,-1.191949,-1.344352,-0.36706,0.929091,0.045307,3.24415,-1.571502,1.4695770000000001,-0.158788,0.320848,0.0948
688,-1.562129,-1.220043,-1.179259,-0.343587,0.9391139999999999,-0.002978,2.9249,-0.7732859999999999,1.133039,-0.380702,0.7039979999999999,0.17341900000000002
689,-1.398482,-1.241873,-0.996923,-0.318237,0.946391,-0.055386000000000005,2.884203,-0.184535,1.520833,-0.347321,0.430745,0.258816
690,-1.216942,-1.260071,-0.8082739999999999,-0.28680300000000003,0.9521120000000001,-0.105946,2.480524,0.12303499999999999,1.6778520000000001,-0.33452,0.343298,0.258686
691,-1.060651,-1.269988,-0.641113,-0.258563,0.955097,-0.144679,1.728895,-0.48586599999999996,1.421282,-0.262708,0.323437,0.24181599999999998
692,-0.932942,-1.281333,-0.49996999999999997,-0.22930999999999999,0.9583969999999999,-0.169968,1.401025,-0.022537,1.721773,-0.065566,0.07186100000000001,0.464707
693,-0.7534,-1.287871,-0.322558,-0.19097999999999998,0.9602430000000001,-0.203611,1.775047,0.594104,1.968218,-0.008147,-0.045936000000000005,0.460508
694,-0.566245,-1.280659,-0.13044,-0.153472,0.958205,-0.24142800000000003,2.075939,-0.22355999999999998,1.857068,0.13114800000000001,-0.34594600000000003,0.31212199999999996
695,-0.41936899999999994,-1.259421,0.038512,-0.12474600000000001,0.9519129999999999,-0.279816,2.071934,-1.087703,1.645571,0.15138800000000002,-0.38347800000000004,0.32760700000000004
696,-0.32692,-1.23176,0.177591,-0.106799,0.943076,-0.314961,2.138112,-2.4051270000000002,1.507785,0.134555,-0.371436,0.423771
697,-0.273366,-1.2010610000000002,0.289116,-0.097559,0.932423,-0.347947,1.937316,-2.626376,1.3336139999999999,-0.196096,-0.448079,0.501634
698,-0.24850999999999998,-1.172046,0.377454,-0.095498,0.9215469999999999,-0.376337,1.745427,-2.979841,1.182107,-0.24423899999999998,-0.43798100000000006,0.553308
699,-0.242542,-1.147614,0.45083599999999996,-0.098629,0.9117870000000001,-0.398642,1.383958,-3.0314520000000003,1.08244,-0.2421,-0.41746300000000003,0.6146
700,-0.24519200000000002,-1.132403,0.5080600000000001,-0.10304,0.905435,-0.411787,0.797147,-2.498199,0.9046059999999999,-0.235583,-0.504983,0.595014
701,-0.250808,-1.127494,0.5506300000000001,-0.10645299999999999,0.9033399999999999,-0.41550200000000004,0.281221,-2.052725,0.772245,-0.274529,-0.559438,0.524953
702,-0.259369,-1.1324459999999998,0.579613,-0.108857,0.9054530000000001,-0.41024799999999995,-0.334434,-1.516222,0.605955,-0.23057399999999997,-0.5751310000000001,0.42176800000000003
703,-0.26961799999999997,-1.150375,0.594637,-0.108714,0.912917,-0.393397,-1.083858,-1.011449,0.498593,-0.081746,-0.30944699999999997,-0.09618099999999999
704,-0.281039,-1.180863,0.592932,-0.105429,0.924934,-0.365211,-1.609008,-0.087311,0.285437,-0.083307,-0.10950499999999999,-0.367501
705,-0.287756,-1.205099,0.57327,-0.101487,0.933875,-0.34289400000000003,-0.943191,0.84878,-0.219585,-0.22093200000000002,0.03988,-0.805986
706,-0.311131,-1.212265,0.535396,-0.107422,0.9364129999999999,-0.334049,-0.218137,0.353573,-0.617674,-0.285675,1.490116,-1.177532
707,-0.30847199999999997,-1.2010809999999998,0.541493,-0.109706,0.93243,-0.34429099999999996,0.9289459999999999,-0.7081529999999999,0.428942,0.338618,1.569935,-0.7401810000000001
708,-0.286018,-1.181568,0.588821,-0.10706199999999999,0.9252020000000001,-0.364056,1.271409,-1.095336,0.520493,0.24278899999999998,0.665984,-0.358768
709,-0.27057,-1.164276,0.621728,-0.10568599999999999,0.918502,-0.381027,0.707544,-0.476799,0.307458,-0.22185900000000003,-0.679916,-0.101898
710,-0.26266,-1.167347,0.629216,-0.101936,0.9197120000000001,-0.379126,-0.624872,0.18851099999999998,-0.013553999999999998,-0.42115,-0.387791,-0.17013
711,-0.308859,-1.19115,0.573222,-0.112649,0.928796,-0.353054,-1.920759,0.350898,-1.135901,-0.5874699999999999,0.339591,0.543652
712,-0.395531,-1.215067,0.45410100000000003,-0.134188,0.937393,-0.321382,-1.352457,1.913673,-1.631725,-0.29823,0.718857,1.568773
713,-0.373591,-1.208885,0.418641,-0.129218,0.9352219999999999,-0.329638,0.539443,2.6535889999999998,-0.23076999999999998,-0.404138,-0.309764,0.187228
714,-0.37399,-1.21825,0.39517399999999997,-0.126145,0.9384959999999999,-0.32142,-1.634673,0.057754999999999994,-0.271472,-0.290329,-0.845555,0.22814299999999998
715,-0.465693,-1.274609,0.301609,-0.131063,0.956456,-0.260792,-3.84392,0.20466800000000002,-0.19736099999999998,-0.214625,-0.9723709999999999,0.390339
716,-0.594454,-1.340532,0.13819,-0.127823,0.973606,-0.18908,-3.71936,2.366403,-0.111667,0.313598,0.334515,0.9927450000000001
717,-0.751844,-1.391376,-0.089796,-0.12188199999999999,0.9839469999999999,-0.130348,-3.215525,3.506936,-0.45357700000000006,0.286616,0.669556,0.631111
718,-0.9877459999999999,-1.41188,-0.39405300000000004,-0.132097,0.987399,-0.087123,-2.189666,3.0084009999999997,-1.079228,0.234881,0.41181599999999996,0.101298
719,-1.2160520000000001,-1.402622,-0.6793899999999999,-0.156954,0.985892,-0.058138,-1.8015580000000002,2.379786,-1.6557560000000002,0.13453900000000002,0.021112,-0.187345
720,-1.4221270000000001,-1.377718,-0.913277,-0.18975699999999998,0.981418,-0.028421,-1.563123,0.20121,-1.574387,0.038451,-0.056491,-0.109107
721,-1.586107,-1.358193,-1.060143,-0.210973,0.977485,0.00323,-1.404762,-1.3692469999999999,-0.848065,-0.107829,-0.180808,0.106999
722,-1.744327,-1.341423,-1.2044290000000002,-0.223946,0.973809,0.039256,-1.840991,-0.375907,-0.596012,0.008506999999999999,-0.177316,0.123402
723,-1.879991,-1.322965,-1.349458,-0.233663,0.969447,0.074641,-1.8059509999999999,0.446834,-0.44727,0.07094299999999999,-0.11545799999999999,0.072469
724,-1.96354,-1.301816,-1.443147,-0.245509,0.964042,0.10170599999999999,-1.3851229999999999,0.349244,-0.649304,0.123378,-0.022865,0.034845
725,-2.0290619999999997,-1.278453,-1.52884,-0.25845500000000005,0.957571,0.127493,-1.704257,1.174305,-0.507312,0.134966,-0.077566,-0.16701400000000002
726,-2.090557,-1.252205,-1.6181159999999999,-0.271858,0.949678,0.155569,-1.810395,0.998088,-0.569785,-0.018364,-0.073854,-0.020025
727,-2.143774,-1.2226709999999998,-1.6886860000000001,-0.286649,0.9400139999999999,0.18494000000000002,-1.720723,0.620216,-0.722498,-0.06833099999999999,-0.019176,0.022152
728,-2.1759150000000003,-1.189594,-1.74289,-0.30597199999999997,0.928218,0.21163400000000002,-1.7346810000000001,1.142932,-0.8931129999999999,0.087283,0.056599000000000003,-0.09965
729,-2.191664,-1.154791,-1.7866549999999999,-0.328689,0.914711,0.235085,-1.6433509999999998,1.197302,-0.982275,0.153427,0.10851300000000001,-0.130577
730,-2.197779,-1.119892,-1.814666,-0.352891,0.9000530000000001,0.255671,-1.3993149999999999,0.788887,-1.090074,0.125276,0.261125,-0.35447199999999995
731,-2.201014,-1.08907,-1.8334529999999998,-0.374305,0.8861959999999999,0.273036,-1.161354,0.708634,-0.940894,0.267417,0.40771799999999997,-0.19004300000000002
732,-2.19592,-1.06326,-1.844861,-0.394111,0.8739450000000001,0.28441900000000003,-0.873411,0.777556,-0.8439,0.341636,0.47612299999999996,-0.255748
733,-2.184687,-1.043882,-1.851289,-0.411049,0.8643629999999999,0.289677,-0.576308,0.8842479999999999,-0.610157,0.29251900000000003,0.509203,-0.33276700000000003
734,-2.1695439999999997,-1.032,-1.8501759999999998,-0.423842,0.8583270000000001,0.289188,-0.14949500000000002,0.535025,-0.494565,0.319777,0.533183,-0.385044
735,-2.148977,-1.0251700000000001,-1.834988,-0.43459899999999996,0.8548030000000001,0.283607,0.305163,0.344843,-0.48153100000000004,0.3459,0.535197,-0.400505
736,-2.1173610000000003,-1.023808,-1.810042,-0.444341,0.854095,0.270332,0.658191,0.6808069999999999,-0.355582,0.347418,0.35772800000000005,-0.466713
737,-2.063209,-1.030802,-1.7645849999999998,-0.45304799999999995,0.8577110000000001,0.243056,1.553852,0.699509,-0.214754,0.470321,0.34578000000000003,-0.32464499999999996
738,-1.9961689999999999,-1.0511,-1.696207,-0.452358,0.86797,0.204933,2.236655,0.366535,0.41001099999999996,0.5323289999999999,0.330623,-0.403908
739,-1.913904,-1.087534,-1.612262,-0.43758400000000003,0.885484,0.15632100000000002,2.6980009999999996,0.318025,1.217667,0.186669,0.276519,-0.058558000000000006
740,-1.826609,-1.132615,-1.507757,-0.410484,0.905525,0.107359,3.0195060000000002,-0.692181,1.5523559999999998,-0.073525,0.307992,0.018663
741,-1.720998,-1.175746,-1.369306,-0.38051999999999997,0.922977,0.057588,3.1544830000000004,-1.118465,1.479069,-0.327183,0.394543,0.17086600000000002
742,-1.593926,-1.205555,-1.216987,-0.357078,0.9340379999999999,0.008261,2.894192,-0.506833,1.131432,-0.456689,0.5902850000000001,0.221613
743,-1.434732,-1.227691,-1.0382770000000001,-0.333302,0.941715,-0.045632,3.089689,-0.435026,1.385874,-0.301708,0.411221,0.069497
744,-1.259619,-1.2435200000000002,-0.8433149999999999,-0.30602399999999996,0.9469219999999999,-0.098425,2.750604,-0.273471,1.505076,-0.279654,0.429803,0.174582
745,-1.111197,-1.253665,-0.683886,-0.279481,0.950134,-0.138329,1.7450029999999999,-0.28547,1.381631,-0.349608,0.44188,0.198677
746,-0.982982,-1.264389,-0.546619,-0.25100500000000003,0.9534239999999999,-0.167269,1.5926069999999999,0.2212,1.613858,-0.17688199999999998,0.057746000000000006,0.47644200000000003
747,-0.8073779999999999,-1.269339,-0.376764,-0.214511,0.9549049999999999,-0.20528200000000002,1.96627,0.775984,1.878539,-0.144208,-0.103022,0.48212299999999997
748,-0.621482,-1.2606620000000002,-0.18975699999999998,-0.17769100000000002,0.9522930000000001,-0.24811999999999998,2.298293,-0.02252,1.7440810000000002,0.059069,-0.28380500000000003,0.377148
749,-0.48061000000000004,-1.236702,-0.024094,-0.1516,0.944708,-0.29076399999999997,2.382427,-1.187492,1.561359,0.161564,-0.331671,0.41593199999999997
750,-0.386562,-1.206085,0.109338,-0.13447,0.934227,-0.33036,2.32733,-1.809552,1.327831,0.162775,-0.353523,0.46073100000000006
751,-0.33781500000000003,-1.172958,0.214108,-0.128403,0.921901,-0.365528,2.150095,-2.676628,1.200585,-0.042282,-0.430766,0.514133
752,-0.317652,-1.1432930000000001,0.29828000000000005,-0.129494,0.910004,-0.393857,1.8220020000000001,-2.927444,1.071497,-0.18196800000000002,-0.48906000000000005,0.583356
753,-0.316836,-1.119261,0.365058,-0.13594900000000001,0.8997780000000001,-0.414628,1.414844,-2.969179,0.939451,-0.191413,-0.525877,0.648301
754,-0.324121,-1.104419,0.418396,-0.143203,0.8932030000000001,-0.42623999999999995,0.8685809999999999,-2.5781259999999997,0.856086,-0.188202,-0.576766,0.65503
755,-0.333408,-1.100732,0.45768000000000003,-0.148233,0.891539,-0.428,0.212285,-2.0182290000000003,0.735416,-0.11414200000000001,-0.644774,0.40528000000000003
756,-0.344921,-1.109637,0.482209,-0.15045999999999998,0.895537,-0.41877700000000007,-0.509046,-1.427296,0.635617,-0.11191500000000001,-0.648772,0.396057
757,-0.356819,-1.1326829999999999,0.49221499999999996,-0.148181,0.9055540000000001,-0.397509,-1.3139809999999998,-0.871431,0.586553,-0.012707,-0.474371,0.077593
758,-0.372685,-1.166715,0.48822299999999996,-0.14316099999999998,0.919464,-0.366183,-1.693339,-0.42218199999999995,0.45727799999999996,-0.194882,0.002258,-0.47506499999999996
759,-0.38613400000000003,-1.194917,0.471689,-0.138249,0.930185,-0.340061,-1.0995780000000002,0.461658,0.027663,-0.199794,-0.008463,-0.501186
760,-0.405588,-1.201389,0.445585,-0.14246,0.932542,-0.331768,-0.085987,-0.009722,-0.451762,-0.464779,1.327468,-1.144886
761,-0.390759,-1.1854639999999999,0.46688199999999996,-0.143163,0.926674,-0.347533,1.281095,-0.658443,0.484766,0.252859,0.5788810000000001,-0.45173800000000003
762,-0.367767,-1.163291,0.516595,-0.142489,0.918112,-0.369818,1.337539,-1.1953790000000002,0.44525600000000004,0.252185,0.587442,-0.429453
763,-0.354162,-1.148093,0.545599,-0.142268,0.911983,-0.384766,0.604399,-0.31503400000000004,0.175156,-0.253835,-1.001873,-0.129943
764,-0.35642199999999996,-1.1520350000000001,0.545562,-0.14188199999999998,0.913593,-0.381071,-0.715224,-0.021971,-0.040604,-0.43505299999999997,-0.585697,0.038557
765,-0.390822,-1.183143,0.493004,-0.144004,0.9257989999999999,-0.349512,-2.501424,0.9806090000000001,-0.661115,-0.54374,-0.204165,0.32644
766,-0.530513,-1.230985,0.33943,-0.16864500000000002,0.942818,-0.287493,-3.4121839999999994,-0.066298,-1.7995189999999999,-0.297145,0.46375299999999997,1.660891
767,-0.57827,-1.243442,0.230025,-0.175744,0.946896,-0.269257,0.479975,5.050649,-0.48740900000000004,-0.609138,2.178775,-1.407318
768,-0.522458,-1.212987,0.24557199999999998,-0.174764,0.936666,-0.30349899999999996,0.6508970000000001,-0.701064,-0.8292209999999999,-0.215113,0.627329,0.12416300000000001
769,-0.604662,-1.2332,0.178644,-0.18829100000000001,0.9435540000000001,-0.27249,-2.279464,-0.540618,-0.051934,1.3000000000000001e-05,-1.38232,0.8704360000000001
770,-0.6913229999999999,-1.273287,0.071124,-0.186891,0.9560700000000001,-0.225833,-2.837822,1.715481,-0.327917,0.010468,-0.991134,0.573886
771,-0.8347959999999999,-1.318293,-0.12378199999999999,-0.185159,0.96829,-0.167714,-3.783057,2.203449,-0.32553000000000004,0.169504,0.036775999999999996,0.822591
772,-1.05017,-1.3513760000000001,-0.401971,-0.18882000000000002,0.976024,-0.108268,-3.189625,3.2618869999999998,-0.7243729999999999,0.393547,0.8327680000000001,0.53141
773,-1.218898,-1.3560889999999999,-0.638679,-0.199999,0.977039,-0.073436,-2.053941,2.682495,-0.9389559999999999,0.334933,0.23545500000000003,0.028758
774,-1.368074,-1.3450540000000002,-0.824412,-0.21924000000000002,0.974628,-0.045064,-1.709387,1.0256809999999998,-1.159821,0.266298,0.056896,-0.058787
775,-1.509649,-1.3265879999999999,-0.971742,-0.24133000000000002,0.9703290000000001,-0.014775,-1.460372,-0.471113,-1.088865,-0.06654600000000001,-0.183632,0.026508999999999998
776,-1.62981,-1.310616,-1.0768659999999999,-0.256802,0.9663430000000001,0.015172,-1.305968,-0.993491,-0.592531,-0.322544,-0.320042,0.10315999999999999
777,-1.749159,-1.3009389999999998,-1.196251,-0.262359,0.963809,0.047298,-1.7964959999999999,0.381992,-0.220637,-0.351166,-0.315341,0.066884
778,-1.856222,-1.284581,-1.322945,-0.270895,0.959319,0.07949099999999999,-1.8650520000000002,0.742399,-0.513203,-0.130701,-0.219466,0.066307
779,-1.9449150000000002,-1.260984,-1.426831,-0.283787,0.952391,0.111417,-1.803739,0.461575,-0.668375,0.109089,-0.12823299999999999,-0.056714
780,-2.0090689999999998,-1.235143,-1.509774,-0.29825100000000004,0.9441950000000001,0.139782,-1.65645,0.977606,-0.639165,0.212497,-0.10659500000000001,-0.094677
781,-2.0500599999999998,-1.209159,-1.573774,-0.31394099999999997,0.935319,0.16314800000000002,-1.5076120000000002,0.766541,-0.732927,0.205085,-0.0775,-0.000458
782,-2.0907139999999997,-1.1799870000000001,-1.623158,-0.330596,0.924601,0.189251,-1.51,0.064157,-0.9050959999999999,0.255691,-0.009363,-0.056865
783,-2.127046,-1.146973,-1.6704279999999998,-0.349246,0.911523,0.217139,-1.7525970000000002,0.6372439999999999,-0.953458,0.274661,0.088202,-0.057044000000000004
784,-2.152507,-1.110789,-1.7174639999999999,-0.370933,0.896049,0.24393099999999998,-1.8163630000000002,0.880548,-1.0033530000000002,0.10034900000000001,0.201317,-0.318898
785,-2.167677,-1.075752,-1.7524259999999998,-0.392925,0.879948,0.267019,-1.511734,0.76021,-1.010685,-0.033787,0.20277,-0.429922
786,-2.170426,-1.044146,-1.772476,-0.414951,0.8644950000000001,0.283657,-1.1723709999999998,0.730467,-1.0595510000000001,0.035953,0.281623,-0.402889
787,-2.15944,-1.0163229999999999,-1.77794,-0.437881,0.8501780000000001,0.292327,-0.712021,0.881057,-1.022346,0.47975100000000004,0.571438,-0.374266
788,-2.139916,-0.999282,-1.778602,-0.45564399999999994,0.841083,0.291488,-0.36088899999999996,0.9671700000000001,-0.484824,0.585237,0.459851,-0.413512
