,attitude.roll,attitude.pitch,attitude.yaw,gravity.x,gravity.y,gravity.z,rotationRate.x,rotationRate.y,rotationRate.z,userAcceleration.x,userAcceleration.y,userAcceleration.z
0,-1.543091,-1.328754,1.029667,-0.23959,0.970851,-0.006640000000000001,-2.548994,-1.4378469999999999,-1.793923,0.391979,0.9135340000000001,-0.509779
1,-1.7629240000000002,-1.2977969999999999,0.83231,-0.26465700000000003,0.962967,0.051483,-2.665768,-1.147049,-1.155247,0.611504,0.886597,-0.076187
2,-1.923982,-1.259888,0.664604,-0.287038,0.9520559999999999,0.105814,-2.854574,0.53987,-1.138431,0.636739,0.767762,0.07216399999999999
3,-2.030307,-1.221465,0.536028,-0.306764,0.939602,0.151799,-2.516332,0.662975,-0.782645,0.58191,0.588902,0.044307
4,-2.1146220000000002,-1.186779,0.43941899999999995,-0.320598,0.927167,0.193847,-2.2621,0.070659,-0.7309720000000001,0.16404200000000002,0.029238999999999998,-0.153686
5,-2.180038,-1.1503290000000002,0.376048,-0.33474499999999996,0.912898,0.233582,-1.8758549999999998,-0.619254,-0.9068309999999999,0.162839,-0.17776,-0.135331
6,-2.23064,-1.118262,0.339663,-0.345461,0.899342,0.26802800000000004,-1.371367,-0.953016,-0.7287600000000001,0.182329,-0.342595,-0.088279
7,-2.271772,-1.09851,0.314596,-0.347657,0.8905299999999999,0.293408,-0.85911,-0.8897219999999999,-0.218925,0.201234,-0.8666659999999999,-0.159329
8,-2.308716,-1.090904,0.294829,-0.34158499999999997,0.887044,0.310596,-0.424872,-1.017259,0.129307,0.110078,-1.0059870000000002,-0.34683600000000003
9,-2.345049,-1.089698,0.281715,-0.330841,0.886487,0.323547,-0.154596,-1.375222,0.169041,0.10700899999999999,-1.056196,-0.370727
10,-2.38426,-1.092997,0.274519,-0.315893,0.888009,0.33414099999999997,0.081927,-1.8100669999999999,0.283414,0.281881,-1.034158,-0.346027
11,-2.428867,-1.099868,0.268434,-0.296681,0.8911469999999999,0.34326999999999996,0.192706,-2.023763,0.347487,0.301793,-0.876591,-0.275307
12,-2.472596,-1.104892,0.261423,-0.278611,0.893416,0.35239499999999996,-0.003636,-1.6933580000000001,0.208959,0.33635,-0.373259,0.14347000000000001
13,-2.501353,-1.1069209999999998,0.25968,-0.26728,0.894325,0.35880500000000004,0.125173,-1.204202,0.048999,0.130088,0.221687,0.30087800000000003
14,-2.524377,-1.1126040000000001,0.259374,-0.25600300000000004,0.896854,0.360713,0.284225,-1.149397,0.324573,0.030813999999999998,0.4586,0.345921
15,-2.568103,-1.1218860000000002,0.242946,-0.23546399999999998,0.9009209999999999,0.36455,-0.019106,-1.6501700000000001,0.6104470000000001,-0.066721,0.6366310000000001,0.214612
16,-2.626249,-1.109728,0.212407,-0.219264,0.8955770000000001,0.38712199999999997,-1.289568,-1.264052,-0.007808,0.019175,0.839576,0.685998
17,-2.6495610000000003,-1.0893030000000001,0.198573,-0.218777,0.8863040000000001,0.408167,-0.651497,-0.289564,-0.23426799999999998,-0.133182,0.285708,0.774008
18,-2.651464,-1.090914,0.20957699999999999,-0.21732800000000002,0.887049,0.40732199999999996,0.538705,-0.845599,-0.210286,0.389676,0.147146,-0.18905999999999998
19,-2.688139,-1.07465,0.196792,-0.20853899999999997,0.879423,0.42793000000000003,-1.796562,-1.1553280000000001,0.14874400000000002,0.417447,0.8295299999999999,-0.26994
20,-2.743818,-1.04105,0.160343,-0.195741,0.862935,0.46586000000000005,-1.600941,-0.8841600000000001,0.098489,0.313692,1.008616,-0.780496
21,-2.752147,-1.028646,0.146089,-0.195904,0.8566010000000001,0.47734,-0.204316,0.461163,0.249662,0.44729300000000005,0.49158900000000005,-0.12202400000000001
22,-2.751728,-1.026076,0.134443,-0.19694,0.8552719999999999,0.479293,-0.330737,0.901121,0.093323,0.272364,-0.060182000000000006,-0.37399299999999996
23,-2.724175,-1.022202,0.13112000000000001,-0.21141100000000002,0.853258,0.47671099999999994,0.094782,1.7998470000000002,0.082325,0.045899,0.145811,-0.562541
24,-2.689508,-1.04221,0.13229000000000002,-0.220304,0.8635209999999999,0.453647,1.345438,1.376017,0.558417,-0.169436,0.232594,-0.459399
25,-2.6602330000000003,-1.080883,0.141767,-0.217856,0.882374,0.417076,2.126845,0.894453,0.694815,-0.156839,0.175137,-0.294258
26,-2.6219930000000002,-1.130288,0.16957,-0.21171900000000002,0.9045350000000001,0.37011900000000003,2.621948,0.54171,0.5662659999999999,0.037814999999999994,-0.03718,-0.188372
27,-2.559604,-1.18194,0.227692,-0.20840100000000003,0.925343,0.316711,2.879318,0.47514799999999996,0.20602199999999998,0.060634,-0.309285,-0.150863
28,-2.460791,-1.228168,0.31801399999999996,-0.21145799999999998,0.941875,0.261063,2.756204,0.9088229999999999,0.019804,0.112002,-0.496913,-0.17724700000000002
29,-2.3371169999999997,-1.267469,0.42512700000000003,-0.215198,0.954348,0.20714000000000002,2.494255,1.126628,0.124517,0.295795,-0.7181109999999999,-0.364123
30,-2.20629,-1.301601,0.539583,-0.21403200000000003,0.9639850000000001,0.157862,2.252585,0.9923360000000001,0.350532,0.444166,-0.660045,-0.40331500000000003
31,-2.062222,-1.3326149999999999,0.66752,-0.208012,0.9717690000000001,0.111332,2.1563470000000002,1.0794780000000002,0.48648100000000005,0.469441,-0.37951399999999996,-0.232808
32,-1.8862029999999999,-1.358251,0.82329,-0.20053800000000002,0.977497,0.06543500000000001,2.0492939999999997,1.257664,0.507937,0.403296,-0.24602100000000002,-0.094167
33,-1.6877229999999999,-1.3785969999999999,0.9998440000000001,-0.189708,0.9815860000000001,0.022284,1.883202,1.266082,0.677682,0.30047199999999996,-0.22651999999999997,-0.105932
34,-1.4717790000000002,-1.395299,1.192928,-0.173735,0.98464,-0.017259,1.7032450000000001,1.319115,0.89107,0.168486,-0.285406,-0.11291300000000001
35,-1.242919,-1.4071120000000001,1.399165,-0.154264,0.986634,-0.052474,1.523658,1.327914,0.977398,-0.030443,0.153488,0.136138
36,-1.021326,-1.414385,1.599792,-0.13283599999999998,0.987793,-0.081346,1.127797,1.127767,1.022959,-0.034858,0.348175,0.167192
37,-0.829039,-1.4208690000000002,1.771437,-0.11011800000000001,0.9887819999999999,-0.10090299999999999,0.6749149999999999,1.019592,1.028481,-0.057728999999999996,0.346469,0.10146799999999999
38,-0.6511520000000001,-1.4256879999999998,1.9288470000000002,-0.087635,0.98949,-0.115003,0.512658,1.1950319999999999,0.9854620000000001,-0.32564899999999997,0.457333,0.305525
39,-0.5075970000000001,-1.428373,2.0474740000000002,-0.068989,0.989875,-0.12403499999999999,0.305792,1.348415,0.636648,-0.37144099999999997,0.5464100000000001,0.230266
40,-0.42726499999999995,-1.427167,2.103242,-0.05930800000000001,0.9897030000000001,-0.13025699999999998,0.189645,1.143003,0.158605,-0.5680569999999999,0.5677770000000001,0.11902599999999999
41,-0.414796,-1.42583,2.0977200000000003,-0.058212,0.989511,-0.132196,-0.062192,0.79264,-0.18346800000000002,-0.623276,0.41246700000000003,0.016336
42,-0.46551000000000003,-1.4275639999999998,2.036953,-0.064067,0.9897600000000001,-0.12754000000000001,-0.329986,0.203756,-0.537097,-0.42598400000000003,0.483705,-0.107079
43,-0.634861,-1.426153,1.868843,-0.085475,0.989557,-0.116042,-0.882336,-0.21750799999999998,-1.268943,-0.011266,0.302587,-0.010728
44,-0.925602,-1.427357,1.581568,-0.114199,0.9897299999999999,-0.085952,-1.737094,-0.511782,-1.528773,0.406161,0.205048,-0.070008
45,-1.2664600000000001,-1.414001,1.260513,-0.148964,0.987733,-0.046789,-1.8611529999999998,-1.441792,-1.6812040000000001,0.249825,0.43926899999999997,-0.101969
46,-1.5659969999999999,-1.386814,0.9863139999999999,-0.18293099999999998,0.983123,-0.000878,-2.20851,-1.3860729999999999,-1.7274990000000001,0.208688,0.727113,-0.328117
47,-1.794763,-1.347253,0.779984,-0.216139,0.975118,0.049234,-2.325917,-1.387832,-1.718702,0.353926,0.717051,-0.091562
48,-1.960914,-1.298938,0.630951,-0.24833899999999998,0.9632729999999999,0.102115,-2.5366009999999997,-0.800083,-1.731609,0.514346,0.677702,-0.017154
49,-2.068737,-1.2487409999999999,0.524662,-0.27807600000000005,0.9485870000000001,0.151171,-2.413912,-0.075004,-1.478513,0.673431,0.6164609999999999,0.016386
50,-2.141145,-1.205497,0.448212,-0.300679,0.934017,0.192874,-2.0744380000000002,-0.07153999999999999,-1.04138,0.276646,0.052784000000000005,-0.072436
51,-2.1979130000000002,-1.167993,0.39323,-0.317406,0.919966,0.230026,-1.808707,-0.479603,-0.9898629999999999,0.149864,-0.09625,-0.130341
52,-2.248363,-1.131883,0.359269,-0.33107800000000004,0.905214,0.2664,-1.559499,-1.315547,-1.0137559999999999,-0.038566,-0.521501,-0.176526
53,-2.302132,-1.10063,0.33868200000000004,-0.337181,0.891493,0.302561,-1.1789479999999999,-1.877044,-0.7871199999999999,-0.032661,-0.743757,-0.189646
54,-2.354248,-1.080239,0.324571,-0.333773,0.88207,0.33247600000000005,-0.824118,-2.040788,-0.373166,0.11609100000000001,-0.8445790000000001,-0.253253
55,-2.412961,-1.0666,0.309694,-0.32166999999999996,0.8755629999999999,0.36043200000000003,-0.674423,-2.4470509999999996,-0.138728,0.31094299999999997,-0.777159,-0.438877
56,-2.475206,-1.058276,0.298265,-0.30312100000000003,0.8715120000000001,0.38545799999999997,-0.39978400000000003,-2.721125,-0.036045,0.34308299999999997,-0.755636,-0.45069
57,-2.5319279999999997,-1.054284,0.29456,-0.282771,0.869547,0.40487199999999995,-0.109623,-2.5633310000000002,-0.06411499999999999,0.430339,-0.678217,-0.353862
58,-2.5668729999999997,-1.0550629999999999,0.301781,-0.268084,0.8699309999999999,0.41393599999999997,0.32040799999999997,-1.713208,-0.178637,0.470599,-0.577588,-0.135265
59,-2.570507,-1.063342,0.32407800000000003,-0.262677,0.873984,0.40883400000000003,0.786568,-0.8495459999999999,-0.24699000000000002,0.395733,-0.34281100000000003,0.111018
60,-2.558503,-1.073892,0.348936,-0.262473,0.8790620000000001,0.397932,0.711762,-0.330784,-0.175538,0.17594100000000001,-0.049717000000000004,0.200213
61,-2.546427,-1.084344,0.36838699999999996,-0.262094,0.8839969999999999,0.387104,0.711422,-0.258938,-0.02715,0.047861,0.355017,0.383389
62,-2.551541,-1.094398,0.375346,-0.255152,0.888652,0.38103400000000004,0.193494,-0.821701,0.229532,-0.117574,1.030033,0.190361
63,-2.59178,-1.087405,0.358954,-0.24285900000000002,0.885424,0.39628,-0.8233389999999999,-1.342275,-0.040755,-0.234039,0.717527,0.569296
64,-2.613064,-1.073367,0.354,-0.240615,0.878812,0.41205299999999995,-0.389338,-0.709936,-0.307725,-0.19239900000000001,-0.07484199999999999,0.816204
65,-2.6148759999999998,-1.076316,0.370701,-0.238564,0.880215,0.410246,0.6961,-0.8352450000000001,-0.281823,0.16787,-0.055722,0.08078099999999999
66,-2.641839,-1.067706,0.368987,-0.23104,0.8760969999999999,0.42316400000000004,-1.418525,-1.483212,0.022566,0.506767,0.6732199999999999,-0.321556
67,-2.694155,-1.037348,0.337698,-0.220005,0.861059,0.458441,-1.487503,-1.024506,-0.07678,0.336171,0.9632209999999999,-1.0026
68,-2.715175,-1.023531,0.319818,-0.215221,0.853951,0.47375100000000003,-0.497386,0.100675,0.33355100000000004,0.705242,1.28498,-0.392971
69,-2.736875,-1.020712,0.298914,-0.205839,0.8524799999999999,0.480521,-0.370017,0.087866,0.229771,0.238263,-0.242098,-0.12285499999999999
70,-2.70015,-1.016961,0.307161,-0.22470700000000002,0.850514,0.47552700000000003,0.011852,1.972798,-0.48141300000000004,0.289145,-0.148106,-0.322146
71,-2.6399340000000002,-1.017679,0.325166,-0.252623,0.850891,0.460607,0.594392,2.219067,-0.235173,0.084899,0.152817,-0.650502
72,-2.592228,-1.043237,0.342183,-0.262857,0.864038,0.42934300000000003,1.603816,1.382506,0.566639,-0.21700100000000003,0.46054700000000004,-0.3366
73,-2.557935,-1.077784,0.349527,-0.260811,0.8809110000000001,0.394924,1.508564,1.5088290000000002,0.760228,0.089775,0.24347800000000003,-0.525341
74,-2.499789,-1.117732,0.386467,-0.262034,0.8991100000000001,0.350617,2.46699,1.034737,0.20778200000000002,0.152033,-0.16258399999999998,-0.31007399999999996
75,-2.3964540000000003,-1.1563350000000001,0.47182700000000005,-0.27305300000000005,0.915333,0.29597399999999996,2.592372,1.6423169999999998,-0.260002,0.313855,-0.300404,-0.059569000000000004
76,-2.264757,-1.1874049999999998,0.569329,-0.287547,0.927401,0.239244,2.359609,2.2475169999999998,-0.089352,0.467555,-0.480181,-0.335573
77,-2.127577,-1.214488,0.664569,-0.296125,0.937191,0.18433,2.103638,2.542378,0.187289,0.459012,-0.491924,-0.34279299999999996
78,-1.98141,-1.2404030000000001,0.763425,-0.297441,0.945915,0.129494,2.062307,2.6595880000000003,0.481679,0.443651,-0.453437,-0.331337
79,-1.82856,-1.265391,0.869654,-0.29073899999999997,0.953725,0.076647,1.921961,2.5238549999999997,0.713745,0.26222,-0.193639,-0.192415
80,-1.6743689999999998,-1.2885,0.982634,-0.277061,0.960418,0.028799,1.7531860000000001,2.20193,0.9127360000000001,0.13655899999999999,-0.160522,-0.035025
81,-1.511562,-1.310599,1.1093979999999999,-0.256812,0.966339,-0.01523,1.680395,1.923141,1.163617,0.09983,-0.202545,-0.049513
82,-1.3358459999999999,-1.3320379999999998,1.255362,-0.22999,0.9716319999999999,-0.055053,1.599142,1.641262,1.3952149999999999,0.047999,-0.334135,0.021118
83,-1.14575,-1.349137,1.4204729999999999,-0.20027899999999998,0.975534,-0.090654,1.414424,1.382998,1.4060059999999999,-0.188866,0.302023,0.233659
84,-0.9642200000000001,-1.3597920000000001,1.579042,-0.172071,0.9778209999999999,-0.11938900000000001,1.0552700000000002,1.250904,1.1846809999999999,-0.277926,0.388329,0.36121
85,-0.8285540000000001,-1.365341,1.6923830000000002,-0.150342,0.9789680000000001,-0.13789500000000002,0.576922,1.300813,0.840513,-0.553897,0.37396799999999997,0.251619
86,-0.7333149999999999,-1.367909,1.7679209999999999,-0.134864,0.9794889999999999,-0.149698,0.44134399999999996,0.9287979999999999,0.484325,-0.197717,0.47088900000000006,0.252298
87,-0.681265,-1.364565,1.804773,-0.128955,0.9788100000000001,-0.159055,0.245231,0.726891,-0.001759,-0.137295,0.446575,0.153745
88,-0.672126,-1.362121,1.7993150000000002,-0.128985,0.9783059999999999,-0.162099,0.013666,0.792263,-0.164762,-0.278043,0.387706,0.246373
89,-0.683243,-1.359356,1.7701580000000001,-0.132487,0.9777299999999999,-0.162753,-0.156378,0.8654799999999999,-0.47796400000000006,-0.04717,0.512688,0.198062
90,-0.761146,-1.351101,1.6745759999999998,-0.150314,0.9759639999999999,-0.157788,-0.537188,0.708448,-1.369184,-0.029343,0.514454,0.193097
91,-0.9133879999999999,-1.344048,1.501399,-0.177949,0.974403,-0.13736900000000002,-1.567401,0.816253,-1.594435,0.45695600000000003,0.192849,-0.063253
92,-1.119361,-1.334716,1.2844950000000002,-0.210454,0.9722620000000001,-0.102034,-2.051955,-0.079512,-1.739814,0.524526,0.323773,-0.051744000000000005
93,-1.3320379999999998,-1.3186579999999999,1.069424,-0.24239000000000002,0.9683809999999999,-0.058998,-2.053947,-0.118527,-1.572067,0.556462,0.32765500000000003,-0.09477999999999999
94,-1.507859,-1.289934,0.894144,-0.276627,0.960817,-0.017433,-2.292737,-0.42097299999999993,-1.9205189999999999,0.424516,0.905516,-0.295616
95,-1.676323,-1.2505,0.724897,-0.313089,0.949142,0.033163,-2.606184,-0.287064,-1.836354,0.603876,0.927475,0.028269
96,-1.8081470000000002,-1.210279,0.586418,-0.34286300000000003,0.9357139999999999,0.082942,-2.642783,0.132931,-1.341493,0.63365,0.940903,-0.021509999999999998
97,-1.9086599999999998,-1.177685,0.468066,-0.361402,0.9237219999999999,0.126973,-2.442874,0.559226,-0.762735,0.290479,0.263275,-0.049291
98,-1.989823,-1.148231,0.36942800000000003,-0.374616,0.91204,0.166856,-2.31427,0.33776300000000004,-0.636571,0.22210500000000002,0.107446,-0.149248
99,-2.067675,-1.117458,0.28632199999999997,-0.385002,0.89899,0.20876999999999998,-2.209429,-0.42795500000000003,-0.515217,0.21570599999999998,-0.10081799999999999,-0.148086
100,-2.146154,-1.091259,0.215238,-0.387083,0.887208,0.251044,-1.9022700000000001,-0.8234809999999999,-0.171801,0.220823,-0.426942,-0.079978
101,-2.212572,-1.074589,0.156135,-0.381363,0.879394,0.284995,-1.43502,-0.610715,0.29373,0.280548,-0.7498020000000001,-0.145622
102,-2.267677,-1.066838,0.10509,-0.370303,0.8756780000000001,0.309933,-1.065159,-0.48499,0.500183,0.349719,-0.876532,-0.186504
103,-2.313947,-1.062813,0.06386499999999999,-0.358163,0.873727,0.32911,-0.775424,-0.589322,0.49913500000000005,0.295007,-0.886575,-0.280618
104,-2.355812,-1.063067,0.034684,-0.34391900000000003,0.873851,0.34365500000000004,-0.31614000000000003,-0.959464,0.48999899999999996,0.209031,-0.851817,-0.21828899999999998
105,-2.390333,-1.070608,0.021712000000000002,-0.327345,0.877492,0.350495,0.286649,-1.203359,0.487045,0.18598800000000001,-0.7827350000000001,-0.126908
106,-2.415436,-1.085944,0.02298,-0.309471,0.8847440000000001,0.34849600000000003,0.696289,-1.443439,0.496623,0.069741,-0.5006189999999999,0.041045
107,-2.4483580000000003,-1.102531,0.025168,-0.288414,0.892352,0.347157,0.550557,-1.8743599999999998,0.48442299999999994,-0.27060700000000004,-0.101367,0.38059499999999996
108,-2.493731,-1.109739,0.018362,-0.26848299999999997,0.895582,0.354744,-0.0024690000000000003,-1.9673150000000001,0.23392,-0.321208,0.090975,0.564797
109,-2.537179,-1.105219,0.009196,-0.255119,0.8935629999999999,0.369397,-0.5331199999999999,-1.634068,-0.058633000000000005,-0.041832999999999995,0.49007399999999995,0.767444
110,-2.5870889999999997,-1.0904909999999999,-0.008179,-0.24327600000000002,0.8868540000000001,0.392812,-0.884815,-2.053509,-0.089395,0.31857800000000003,0.561144,0.127406
111,-2.645475,-1.0796780000000001,-0.014205,-0.224491,0.881806,0.41474700000000003,-0.249712,-2.753257,-0.141746,0.459934,0.15975899999999998,0.23892399999999997
112,-2.692925,-1.084006,-0.016658000000000003,-0.20290899999999998,0.8838389999999999,0.42148599999999997,0.364,-1.9510330000000002,0.373191,0.58508,-0.16544,0.497795
113,-2.74781,-1.082925,-0.04427,-0.179848,0.883333,0.432864,-1.181606,-1.124385,0.648688,0.594169,1.098906,0.078825
114,-2.790372,-1.057033,-0.093624,-0.16908099999999998,0.870901,0.461449,-1.526078,0.41992799999999997,0.49902399999999997,0.34205399999999997,1.3955629999999999,-0.054116
115,-2.784287,-1.0466469999999999,-0.11710899999999999,-0.17504,0.86575,0.46886099999999997,-0.176012,1.573713,0.371312,0.524939,0.008868000000000001,-0.5646399999999999
116,-2.781392,-1.0473649999999999,-0.13961099999999999,-0.176177,0.866109,0.46776999999999996,-0.483574,0.7749550000000001,0.588105,0.328963,-0.112783,-0.468717
117,-2.772196,-1.040138,-0.156051,-0.182726,0.862474,0.471955,-0.25247800000000004,1.50946,-0.010495,-0.10906800000000001,0.09841799999999999,-0.547898
118,-2.7206040000000002,-1.045509,-0.13903,-0.20492600000000002,0.86518,0.45766899999999994,0.771644,1.895945,-0.312553,0.029160000000000002,0.666345,-0.28075900000000004
119,-2.6719720000000002,-1.067626,-0.124838,-0.218217,0.876058,0.429994,1.2778120000000002,1.777265,0.421799,-0.096388,0.753321,-0.21823299999999998
120,-2.637106,-1.097766,-0.12073099999999999,-0.220207,0.890192,0.398823,1.479625,1.401448,0.722792,-0.188942,-0.037926999999999995,-0.35071199999999997
121,-2.603951,-1.136124,-0.105173,-0.215652,0.907008,0.361694,2.0297240000000003,0.6662319999999999,0.556661,-0.087326,-0.330455,-0.275924
122,-2.557049,-1.180611,-0.061077,-0.20988400000000001,0.924839,0.317198,2.4995849999999997,0.15804200000000002,0.429203,0.19081099999999998,-0.380558,-0.134322
123,-2.50528,-1.2278149999999999,-0.007879,-0.19983299999999998,0.9417559999999999,0.270472,2.4059,0.202157,0.666706,0.30191399999999996,-0.370315,-0.019129
124,-2.443739,-1.2721120000000001,0.043679,-0.189078,0.955724,0.225462,2.168819,0.9111969999999999,0.7143470000000001,0.271583,-0.315069,-0.15489
125,-2.354386,-1.3111110000000001,0.11377999999999999,-0.181887,0.9664709999999999,0.18123,2.0529830000000002,1.0943889999999998,0.557343,0.23172199999999998,-0.3995,-0.197267
126,-2.2442740000000003,-1.346603,0.207261,-0.173766,0.974974,0.138653,1.989945,0.8866780000000001,0.607375,0.253539,-0.48797399999999996,-0.10276500000000001
127,-2.1141810000000003,-1.3796629999999999,0.322848,-0.16259500000000002,0.9817899999999999,0.098214,1.8742590000000001,0.893034,0.716586,0.22410300000000002,-0.464837,0.0055
128,-1.9441110000000001,-1.409186,0.472691,-0.149805,0.9869690000000001,0.058676,1.813045,1.300095,0.73807,0.141947,-0.311646,0.001245
129,-1.711127,-1.433193,0.678656,-0.135798,0.990548,0.019183000000000002,1.783609,1.459738,0.8006840000000001,0.019906999999999998,-0.10463800000000001,-0.084887
130,-1.406327,-1.449605,0.961364,-0.119237,0.9926649999999999,-0.019790000000000002,1.803,1.090826,0.8653860000000001,-0.12762,-0.189901,-0.023927
131,-1.070533,-1.456749,1.282846,-0.09983099999999999,0.993504,-0.054572,1.600115,0.718118,1.00652,-0.167778,-0.13486099999999998,0.126548
132,-0.763359,-1.457442,1.5830030000000002,-0.078182,0.993582,-0.081706,1.093307,0.28080900000000003,1.049474,-0.14291800000000002,0.363336,0.159999
133,-0.549974,-1.4555420000000001,1.7913419999999998,-0.060092999999999994,0.993366,-0.09802000000000001,0.618074,0.35185,0.745893,-0.014019,0.49577,0.236692
134,-0.404719,-1.453303,1.926075,-0.046148,0.9931059999999999,-0.10772999999999999,0.41855600000000004,0.689715,0.60947,-0.101649,0.542981,0.261218
135,-0.283785,-1.451242,2.0320099999999996,-0.033388,0.9928620000000001,-0.114476,0.202735,0.791937,0.541602,-0.174178,0.5470550000000001,0.22704000000000002
136,-0.179298,-1.4531040000000002,2.12299,-0.020937,0.993082,-0.11551600000000001,-0.06230700000000001,0.656644,0.505741,-0.48347299999999993,0.542654,0.333488
137,-0.122669,-1.4605489999999999,2.166607,-0.01346,0.9939290000000001,-0.109175,-0.51937,0.712797,0.179873,-0.488829,0.488874,-0.14283900000000002
138,-0.17449,-1.475335,2.105168,-0.016543000000000002,0.995447,-0.093843,-0.8510709999999999,0.27573600000000004,-0.522637,-0.334882,0.374197,-0.18437
139,-0.43881099999999995,-1.492705,1.843031,-0.033129,0.9969520000000001,-0.070589,-1.405521,-0.303363,-0.943443,0.054492,-0.05304400000000001,-0.118834
140,-1.012856,-1.5007270000000001,1.2769979999999999,-0.059359,0.9975459999999999,-0.037045,-1.729912,-0.696028,-1.565842,0.016038999999999998,0.226483,-0.191669
141,-1.605313,-1.475492,0.712483,-0.095069,0.9954620000000001,0.003283,-2.067677,-2.014868,-1.798316,-0.12879200000000002,0.572897,-0.222994
142,-1.961459,-1.426785,0.400764,-0.13268,0.989648,0.054641999999999996,-2.4142490000000003,-2.2479970000000002,-2.0717659999999998,0.20873000000000003,0.746069,-0.312073
143,-2.1417349999999997,-1.369312,0.26171500000000003,-0.16836800000000002,0.979771,0.108142,-2.300929,-2.204576,-1.8402939999999999,0.293765,0.656933,-0.048496
144,-2.245298,-1.319143,0.192228,-0.194466,0.9685020000000001,0.155497,-1.994955,-1.432584,-1.489838,0.319344,0.656513,-0.052591
145,-2.3057950000000003,-1.273274,0.15270699999999998,-0.21746,0.956066,0.196575,-1.8637099999999998,-1.028891,-1.326,0.21070100000000003,0.38104699999999997,-0.067745
146,-2.3580080000000003,-1.229031,0.124133,-0.23654899999999998,0.9421639999999999,0.237409,-1.8188919999999997,-1.5158209999999999,-1.340018,0.107277,0.035908999999999996,-0.15429400000000001
147,-2.401295,-1.184601,0.12198699999999998,-0.25405700000000003,0.926349,0.278073,-1.484438,-2.383034,-1.610036,0.124785,0.051724,-0.194959
148,-2.440132,-1.14543,0.140138,-0.26629400000000003,0.9108879999999999,0.31522,-1.0969959999999999,-2.918654,-1.4667059999999998,0.223402,-0.413009,-0.295109
149,-2.484273,-1.116352,0.157417,-0.26819899999999997,0.8985049999999999,0.34749,-0.7823479999999999,-3.0002400000000002,-1.051002,0.303691,-0.8561770000000001,-0.380815
150,-2.5305310000000003,-1.096597,0.172627,-0.26197800000000004,0.889659,0.373987,-0.46128199999999997,-2.992818,-0.7881229999999999,0.344086,-0.8608959999999999,-0.37841199999999997
151,-2.56898,-1.083793,0.193928,-0.25356100000000004,0.8837389999999999,0.39332399999999995,-0.190551,-2.77447,-0.748055,0.428625,-0.758877,-0.34078800000000004
152,-2.601938,-1.074078,0.21463200000000002,-0.244862,0.879151,0.408812,-0.151171,-2.407693,-0.5965630000000001,0.56992,-0.734757,-0.183119
153,-2.630131,-1.067616,0.22868899999999998,-0.236017,0.8760530000000001,0.420498,-0.058488,-1.753716,-0.385245,0.56907,-0.7237100000000001,-0.141552
154,-2.6443790000000003,-1.066573,0.24137199999999998,-0.230437,0.87555,0.42462,0.226987,-0.984088,-0.225073,0.404448,-0.7100989999999999,-0.061934
155,-2.6480080000000004,-1.0745,0.252058,-0.22559899999999997,0.879352,0.41932700000000006,0.588166,-0.550882,0.084543,-0.024127000000000003,-0.42013900000000004,0.070037
156,-2.6591419999999997,-1.0861100000000001,0.256523,-0.216165,0.8848209999999999,0.41274099999999997,0.5393020000000001,-0.8781549999999999,0.185034,-0.17813800000000002,-0.242273,0.197321
157,-2.673429,-1.096867,0.26656799999999997,-0.205938,0.889782,0.40726799999999996,0.602115,-1.408884,-0.079834,-0.5032439999999999,0.333469,0.358784
158,-2.695745,-1.098678,0.281686,-0.196104,0.8906069999999999,0.410308,-0.150654,-1.9332650000000002,-0.434783,-0.291475,0.844088,0.101319
159,-2.718734,-1.081509,0.29934499999999997,-0.192868,0.882668,0.42858900000000005,-0.725233,-1.717803,-0.804404,0.077191,0.7472449999999999,0.166671
160,-2.7244450000000002,-1.071735,0.320513,-0.193903,0.8780319999999999,0.437551,0.19028699999999998,-0.948673,-0.533008,0.002771,-0.089061,0.43275
161,-2.715443,-1.078167,0.34424,-0.195495,0.881092,0.43063500000000005,0.419483,-0.51155,-0.289481,0.567261,0.355892,-0.151583
162,-2.752104,-1.059079,0.327596,-0.185933,0.8719049999999999,0.45298999999999995,-1.716425,-1.204907,0.195348,0.748128,0.739988,-0.485338
163,-2.782435,-1.045596,0.30157,-0.176226,0.865224,0.469383,-0.124578,-0.214437,0.472253,0.721453,0.752864,-0.841683
164,-2.803586,-1.04841,0.270173,-0.165451,0.8666309999999999,0.470706,-0.419548,0.7873939999999999,0.8759020000000001,0.890747,0.641945,-0.215381
165,-2.7797709999999998,-1.043655,0.252985,-0.17807,0.8642479999999999,0.470483,-0.21345999999999998,2.675177,-0.129206,0.157409,0.345514,-0.348946
166,-2.703389,-1.042041,0.272287,-0.214044,0.8634350000000001,0.45678500000000005,0.153686,3.064146,-0.482858,-0.147529,0.344481,-0.544096
167,-2.630155,-1.056184,0.286384,-0.240891,0.870483,0.429205,1.328583,2.775427,0.369614,-0.42601000000000006,0.312027,-0.460455
168,-2.570362,-1.091488,0.302379,-0.24933000000000002,0.8873139999999999,0.387937,1.8291389999999998,2.0878200000000002,0.5940449999999999,-0.41783000000000003,0.097564,-0.401121
169,-2.507464,-1.1329120000000001,0.33665,-0.251215,0.905651,0.341577,2.3132479999999997,1.249104,0.526931,-0.153326,-0.211101,-0.46042799999999995
170,-2.4363479999999997,-1.176415,0.398131,-0.24906,0.923234,0.292567,2.546854,0.5121359999999999,0.274202,0.111594,-0.379961,-0.303187
171,-2.344471,-1.216075,0.48333000000000004,-0.24845,0.937743,0.242691,2.471693,0.8183819999999999,0.211327,0.363302,-0.46778800000000004,-0.162827
172,-2.2270529999999997,-1.250746,0.579695,-0.24924899999999997,0.9492200000000001,0.19195299999999998,2.250912,1.6231200000000001,0.288871,0.529874,-0.5200199999999999,-0.229642
173,-2.088228,-1.2801,0.68383,-0.24908200000000003,0.958045,0.141767,2.036175,2.150706,0.406335,0.49345200000000006,-0.5539310000000001,-0.24983000000000002
174,-1.9335349999999998,-1.3066010000000001,0.794003,-0.244123,0.965303,0.092653,1.86313,2.571168,0.636392,0.385587,-0.301607,-0.223298
175,-1.764607,-1.3310959999999998,0.914889,-0.23294600000000001,0.971409,0.045722000000000006,1.744888,2.573973,0.8363879999999999,0.20169600000000001,-0.124806,-0.144873
176,-1.573439,-1.354378,1.060397,-0.21470999999999998,0.9766729999999999,0.0005679999999999999,1.769594,2.394945,1.096368,0.076924,-0.19347,-0.117297
177,-1.347906,-1.375793,1.247484,-0.18895399999999998,0.9810469999999999,-0.042828,1.7373560000000001,1.9049939999999999,1.371304,0.083959,-0.377745,-0.054661
178,-1.108662,-1.392634,1.455983,-0.158611,0.9841709999999999,-0.07900599999999999,1.399617,1.61184,1.448369,0.079402,-0.19661900000000002,0.058482000000000006
179,-0.8820040000000001,-1.403092,1.653978,-0.12884600000000002,0.9859700000000001,-0.10608,0.9427770000000001,1.612068,1.255034,-0.06288099999999999,0.309089,0.161134
180,-0.696441,-1.4084379999999999,1.806804,-0.10368,0.986849,-0.12398599999999999,0.613015,1.816625,1.002504,-0.331546,0.254362,0.153344
181,-0.535939,-1.4097899999999999,1.93629,-0.081852,0.987066,-0.13781500000000002,0.56102,1.4553639999999999,0.814597,-0.441586,0.286035,0.331755
182,-0.41615,-1.406093,2.0356970000000003,-0.06627100000000001,0.986467,-0.149946,0.427775,0.956307,0.524818,-0.253676,0.668166,0.517882
183,-0.33933800000000003,-1.4063139999999998,2.094545,-0.054496,0.986503,-0.154383,0.034232,0.900503,0.43561400000000006,-0.37706799999999996,0.666954,0.231456
184,-0.29201900000000003,-1.408673,2.125346,-0.046463,0.9868870000000001,-0.15456,-0.106894,0.787093,0.148491,-0.630219,0.517599,0.21356599999999998
185,-0.317799,-1.4149260000000001,2.0925130000000003,-0.048501999999999997,0.987877,-0.147445,-0.527537,-0.11557100000000001,-0.457905,-0.147925,0.346977,0.0032189999999999996
186,-0.5021899999999999,-1.4243379999999999,1.91957,-0.070234,0.989294,-0.127895,-1.297639,-0.858611,-1.2517479999999999,-0.006259000000000001,0.215448,0.213421
187,-0.842433,-1.435081,1.59922,-0.100949,0.9908049999999999,-0.090044,-1.971919,-1.5743559999999999,-1.49589,0.170132,0.273706,-0.33524899999999996
188,-1.228983,-1.428232,1.253147,-0.13383699999999998,0.9898549999999999,-0.047616000000000006,-1.9720790000000001,-2.368863,-1.542943,0.03615,0.844404,-0.192725
189,-1.606498,-1.403808,0.9196719999999999,-0.16608399999999998,0.9860899999999999,0.005932,-2.504865,-2.481966,-1.567884,0.155952,1.0971469999999999,-0.404949
190,-1.90136,-1.3645040000000002,0.667782,-0.193722,0.9787969999999999,0.066477,-2.709102,-1.995946,-1.454566,0.358777,0.958535,-0.040323000000000005
191,-2.078504,-1.317012,0.506495,-0.21938200000000002,0.9679690000000001,0.122054,-2.573756,-0.48739499999999997,-1.335913,0.796333,0.520617,0.090119
192,-2.178069,-1.271727,0.40103,-0.24193800000000001,0.9556110000000001,0.16811500000000001,-2.288707,0.313685,-1.048665,0.74647,0.387727,0.040503
193,-2.238673,-1.231783,0.330515,-0.26109099999999996,0.943083,0.20594899999999997,-1.9493220000000002,0.203434,-0.944672,0.421766,-0.0009140000000000001,-0.166734
194,-2.278336,-1.192663,0.293558,-0.280557,0.9293549999999999,0.23994899999999997,-1.608175,-0.5850270000000001,-1.200856,0.001702,-0.469028,-0.206273
195,-2.312335,-1.157933,0.279955,-0.295871,0.915976,0.270993,-1.152159,-1.249957,-1.014153,-0.050427,-0.695258,-0.19663699999999998
196,-2.349799,-1.135122,0.271554,-0.300308,0.906586,0.296491,-0.8285290000000001,-1.6768459999999998,-0.568033,0.029923,-0.868851,-0.35191100000000003
197,-2.401418,-1.1176620000000002,0.25952,-0.295242,0.8990790000000001,0.323231,-0.804137,-2.196625,-0.341802,0.230911,-0.8962870000000001,-0.30257
198,-2.459727,-1.101588,0.24465,-0.284976,0.891927,0.351063,-0.8175100000000001,-2.2267959999999998,-0.244648,0.29259,-0.882619,-0.295827
199,-2.513875,-1.088576,0.23180100000000003,-0.272351,0.8859670000000001,0.375334,-0.5784560000000001,-2.067351,-0.098973,0.408414,-1.026302,-0.30378499999999997
200,-2.559859,-1.0835350000000001,0.22371300000000002,-0.257261,0.883618,0.39118200000000003,-0.11943699999999999,-1.857576,0.056720000000000007,0.338071,-0.973722,-0.241982
201,-2.5919630000000002,-1.088781,0.226111,-0.242146,0.8860629999999999,0.395279,0.426655,-1.619933,0.094413,0.240804,-0.822845,-0.187744
202,-2.610632,-1.097561,0.23784,-0.230776,0.890099,0.393006,0.547076,-1.3681729999999999,-0.098416,-0.133451,0.23992199999999997,0.6027520000000001
203,-2.623137,-1.102422,0.256552,-0.22369699999999998,0.8923030000000001,0.392098,0.275954,-1.583795,-0.286973,-0.272595,0.591583,0.48958500000000005
204,-2.651798,-1.0956350000000001,0.258789,-0.21521300000000002,0.8892190000000001,0.40368200000000004,-0.700021,-1.621472,-0.14205399999999999,-0.27197,1.250659,0.320546
205,-2.705947,-1.076185,0.240208,-0.200311,0.8801530000000001,0.43033999999999994,-1.0388469999999999,-1.84143,0.01289,0.137552,0.757512,0.538624
206,-2.73521,-1.069796,0.23561100000000001,-0.189853,0.8771030000000001,0.441172,0.21834699999999999,-0.9047649999999999,-0.083147,-0.039365,0.12443900000000001,0.578344
207,-2.734636,-1.078673,0.25182,-0.18701600000000002,0.881332,0.433895,0.10336300000000001,-0.805588,-0.276357,0.597478,0.4787,-0.168682
208,-2.769889,-1.045541,0.22716999999999998,-0.182117,0.865196,0.46717700000000006,-2.383608,-0.567822,-0.03766,0.414264,1.021462,-0.28865
209,-2.800011,-1.01492,0.203368,-0.176759,0.8494379999999999,0.49718900000000005,-1.0022209999999998,-0.236789,0.15318199999999998,0.689806,1.323093,-0.7381409999999999
210,-2.823444,-1.0073729999999999,0.176482,-0.167062,0.845432,0.507268,-0.439697,-0.137485,0.671867,0.24907800000000002,0.188092,-0.23555500000000001
211,-2.815155,-0.9993,0.164388,-0.17344400000000001,0.841093,0.512314,-0.337417,1.605124,-0.169274,0.095929,0.134798,-0.388871
212,-2.755984,-1.009522,0.182453,-0.200192,0.846578,0.49316800000000005,1.26756,2.158818,-0.16625,-0.130053,0.250239,-0.690236
213,-2.714007,-1.043202,0.198201,-0.208765,0.8640209999999999,0.45811899999999994,1.915915,1.126815,0.540354,-0.249471,0.147591,-0.47040200000000004
214,-2.681437,-1.089505,0.214133,-0.20557399999999998,0.8863979999999999,0.414761,2.3833349999999998,0.816768,0.6807489999999999,-0.066536,0.100983,-0.335477
215,-2.6419759999999997,-1.140909,0.244275,-0.199663,0.909013,0.365814,2.731791,0.5128,0.46992799999999996,0.196184,-0.09643600000000001,-0.24001999999999998
216,-2.568126,-1.192097,0.311042,-0.200578,0.9291459999999999,0.310555,2.887325,0.743025,0.03809,0.268572,-0.382119,-0.11661600000000001
217,-2.459285,-1.236674,0.401609,-0.206785,0.944699,0.25450900000000004,2.589725,1.490733,0.058553999999999995,0.32445999999999997,-0.544842,-0.22542600000000002
218,-2.336737,-1.27373,0.49465,-0.21095799999999998,0.956199,0.202904,2.194106,1.7617770000000001,0.285111,0.378988,-0.631019,-0.301079
219,-2.21591,-1.3065790000000002,0.583448,-0.208656,0.965297,0.157019,1.9114229999999999,1.787309,0.538408,0.370842,-0.588375,-0.310339
220,-2.082893,-1.3374979999999999,0.68295,-0.201515,0.972909,0.113274,1.872671,1.8306380000000002,0.658791,0.370307,-0.354898,-0.230996
221,-1.924593,-1.366716,0.809699,-0.19009600000000001,0.979248,0.07020900000000001,1.8425,1.6788619999999999,0.811531,0.34321799999999997,-0.14369200000000001,-0.147953
222,-1.733059,-1.393982,0.969248,-0.17356300000000002,0.984409,0.028413,1.762264,1.808388,0.990266,0.328379,-0.14969200000000002,-0.170228
223,-1.504987,-1.417538,1.1624809999999999,-0.152306,0.9882790000000001,-0.010038,1.565775,1.9351669999999999,1.15751,0.07294500000000001,-0.08784199999999999,0.12869
224,-1.252377,-1.436721,1.377636,-0.126929,0.991025,-0.041839999999999995,1.179542,2.0394080000000003,1.264705,-0.088266,0.092532,0.167222
225,-0.9784440000000001,-1.4506430000000001,1.6125610000000001,-0.09941900000000001,0.99279,-0.066906,0.940268,1.9741970000000002,1.263117,-0.221214,0.213783,0.148373
226,-0.709096,-1.4591459999999998,1.851047,-0.07253,0.9937739999999999,-0.084537,0.677724,1.433075,1.214975,-0.49007700000000004,0.021363,0.317371
227,-0.490259,-1.4601389999999999,2.046868,-0.051983,0.993884,-0.097397,0.49277600000000005,1.053433,0.677922,-0.309116,0.49522200000000005,0.452942
228,-0.38372399999999995,-1.457953,2.137701,-0.042145,0.99364,-0.104387,0.233442,0.71368,0.352875,-0.270737,0.6294529999999999,0.316042
229,-0.318851,-1.456698,2.190884,-0.03568,0.993498,-0.10808399999999999,0.108231,0.433666,0.156875,-0.712565,0.455599,0.380942
230,-0.338206,-1.45919,2.16698,-0.036943000000000004,0.9937790000000001,-0.10503499999999999,-0.37588499999999997,0.128942,-0.208244,-0.5251600000000001,0.44331000000000004,-0.227347
231,-0.463999,-1.465805,2.042708,-0.046886000000000004,0.9944930000000001,-0.093689,-0.64858,-0.317472,-0.75437,-0.34566199999999997,0.44996400000000003,-0.339035
232,-0.770154,-1.467409,1.7534040000000002,-0.07183200000000001,0.99466,-0.074056,-1.103962,-1.362723,-1.370439,0.213968,0.210662,-0.015498
233,-1.168531,-1.45356,1.385829,-0.10760499999999999,0.993136,-0.045781999999999996,-1.525687,-1.720258,-1.902764,0.294815,0.6889930000000001,-0.110422
234,-1.569137,-1.423889,1.020386,-0.14635499999999999,0.9892280000000001,-0.00024300000000000002,-2.2909740000000003,-2.002133,-1.8778380000000001,0.275658,0.8751209999999999,-0.4451
235,-1.8695380000000001,-1.3807399999999999,0.755748,-0.180528,0.981994,0.055595000000000006,-2.569555,-1.84743,-1.696248,0.41287299999999993,0.920243,-0.28270700000000004
236,-2.058592,-1.333383,0.5888800000000001,-0.207744,0.971949,0.110221,-2.5441689999999997,-0.897381,-1.4078,0.446895,0.760915,-0.061622
237,-2.169355,-1.285823,0.47971499999999995,-0.232244,0.9596690000000001,0.158396,-2.330565,0.037557,-1.233386,0.471395,0.773195,-0.109797
238,-2.2291689999999997,-1.241111,0.41129899999999997,-0.25606799999999996,0.9461440000000001,0.198069,-2.047648,0.342206,-1.207231,0.318416,0.258522,-0.03744
239,-2.2636060000000002,-1.1980030000000002,0.37359000000000003,-0.28024,0.931313,0.232619,-1.740391,-0.249629,-1.321831,0.106275,-0.109429,-0.214385
240,-2.300521,-1.157556,0.356773,-0.299311,0.915824,0.26771100000000003,-1.444475,-1.575911,-1.308451,0.125346,-0.09394,-0.249477
241,-2.346197,-1.124698,0.35364,-0.308108,0.9021370000000001,0.302008,-0.971449,-2.380897,-1.0103540000000002,0.055163,-0.535041,-0.174048
242,-2.3976830000000002,-1.1057569999999999,0.35268499999999997,-0.303675,0.893804,0.329979,-0.569651,-2.640164,-0.459217,0.12182,-0.672246,-0.237984
243,-2.4567740000000002,-1.094314,0.348482,-0.290108,0.8886139999999999,0.355236,-0.432546,-2.774684,-0.23803400000000002,0.13126400000000002,-0.665393,-0.26667399999999997
244,-2.5148490000000003,-1.087008,0.344929,-0.2728,0.8852389999999999,0.376723,-0.267642,-2.756573,-0.115128,0.235065,-0.718125,-0.41316099999999994
245,-2.572186,-1.084877,0.34274899999999997,-0.25178,0.8842459999999999,0.393325,-0.034622,-2.7547610000000002,0.028571,0.41691000000000006,-0.865447,-0.42187399999999997
246,-2.622923,-1.0867040000000001,0.341964,-0.23070700000000002,0.8850979999999999,0.404184,0.115622,-2.292008,0.058938,0.393915,-0.800564,-0.390329
247,-2.65295,-1.088044,0.348806,-0.217912,0.8857200000000001,0.40988100000000005,0.13022899999999998,-1.482291,-0.246441,0.374177,-0.6026090000000001,-0.175995
248,-2.654127,-1.085857,0.36850700000000003,-0.218336,0.884703,0.41184799999999994,0.13308499999999998,-0.6640590000000001,-0.540162,0.420042,-0.354231,0.139253
249,-2.646977,-1.085903,0.389373,-0.221255,0.884725,0.410239,0.25261,-0.634627,-0.278719,0.350161,-0.22069299999999997,0.15026199999999998
250,-2.67029,-1.0862399999999999,0.38698899999999997,-0.211497,0.884882,0.41502100000000003,-0.22324000000000002,-1.327403,0.21984099999999998,-0.5755060000000001,1.056571,0.209521
251,-2.7184630000000003,-1.077501,0.36909200000000003,-0.194434,0.880777,0.431758,-0.759975,-1.714898,0.086265,-0.39412800000000003,1.239004,0.350331
252,-2.7538240000000003,-1.0608309999999999,0.359794,-0.184575,0.872762,0.45189300000000004,-0.7480289999999999,-1.025536,-0.22218200000000002,-0.153606,1.0670879999999998,0.49027600000000005
253,-2.757536,-1.058932,0.37044299999999997,-0.183517,0.871833,0.454112,0.511256,-0.5332600000000001,-0.27810999999999997,-0.069534,-0.381842,0.780813
254,-2.75638,-1.0751950000000001,0.38995,-0.17869000000000002,0.879683,0.44069899999999995,0.5503399999999999,-1.1371280000000001,-0.081579,0.097513,-0.196135,0.039266
255,-2.802247,-1.048894,0.367208,-0.165942,0.866872,0.47008999999999995,-2.267459,-0.934371,0.140965,0.39783,0.47857200000000005,-0.37498200000000004
256,-2.8236939999999997,-1.017031,0.352168,-0.164375,0.8505510000000001,0.499533,-0.6870539999999999,-0.302325,-0.247252,0.9092180000000001,1.230504,-0.575064
257,-2.823913,-1.017566,0.34605,-0.164124,0.850831,0.499137,0.22216799999999998,0.035524,0.5224439999999999,0.693101,0.712294,0.08318400000000001
258,-2.828426,-1.0170379999999999,0.330382,-0.16200799999999999,0.850554,0.5003,-0.246932,1.100982,0.085173,0.30780599999999997,0.044923000000000005,-0.048792
259,-2.782273,-1.019517,0.340404,-0.184176,0.8518549999999999,0.490317,0.574555,2.172256,-0.261907,0.06149500000000001,-0.07509099999999999,-0.603675
260,-2.726941,-1.035051,0.358118,-0.205654,0.8598889999999999,0.467212,1.196452,1.726836,0.031428,-0.008198,-0.020716,-0.52695
261,-2.6792689999999997,-1.071608,0.380397,-0.213515,0.877971,0.428447,2.132392,1.153284,0.38695,-0.270464,0.33461399999999997,-0.422587
262,-2.649247,-1.1164100000000001,0.39753499999999997,-0.207465,0.8985299999999999,0.38677,2.235634,0.5366989999999999,0.7772939999999999,0.007148000000000001,0.287535,-0.43613199999999996
263,-2.610429,-1.161999,0.433366,-0.201346,0.9175989999999999,0.342727,2.366989,0.259327,0.23163699999999998,0.113073,0.057315,-0.334014
264,-2.538811,-1.201156,0.49453500000000006,-0.204815,0.932457,0.29759800000000003,2.2021759999999997,1.158628,0.056282000000000006,0.516308,-0.504784,-0.089041
265,-2.44207,-1.234818,0.557646,-0.212265,0.9440879999999999,0.252254,1.888479,2.263757,0.21824899999999997,0.581558,-0.564663,-0.229915
266,-2.331378,-1.265702,0.61845,-0.217598,0.9538190000000001,0.20705700000000002,1.7385950000000001,2.831234,0.426914,0.393165,-0.45960200000000007,-0.344219
267,-2.2018470000000003,-1.294933,0.691863,-0.219908,0.962191,0.160692,1.7551729999999999,2.972802,0.44073500000000004,0.11781099999999999,-0.289522,-0.351519
268,-2.051041,-1.321544,0.790722,-0.218761,0.969097,0.11395699999999999,1.8128520000000001,2.5665150000000003,0.49506999999999995,0.008038,-0.24313,-0.278661
269,-1.884983,-1.348034,0.9176690000000001,-0.210094,0.975291,0.06827000000000001,1.9163240000000001,1.8811689999999999,0.764795,0.048824,-0.396418,-0.205294
270,-1.6853049999999998,-1.376806,1.092319,-0.191495,0.981243,0.022024000000000002,2.165295,1.189419,1.177617,0.060346000000000004,-0.532528,-0.068563
271,-1.435451,-1.40475,1.325633,-0.163753,0.986246,-0.022299,1.9271650000000002,0.969584,1.480679,-0.046742,-0.267496,0.08643200000000001
272,-1.162328,-1.423818,1.581721,-0.13438,0.989218,-0.058161000000000004,1.469989,1.004526,1.397324,-0.14566500000000002,0.405237,0.193049
273,-0.939363,-1.434886,1.788045,-0.109345,0.990778,-0.079966,0.727268,0.8731620000000001,1.060088,-0.116195,0.5132800000000001,0.20961999999999997
274,-0.7651720000000001,-1.43995,1.944632,-0.09035499999999999,0.991452,-0.094086,0.60232,1.049395,0.786592,-0.178841,0.338886,0.297317
275,-0.6342840000000001,-1.43921,2.0575919999999996,-0.077738,0.9913549999999999,-0.10566500000000001,0.384181,0.9614309999999999,0.330119,-0.335257,0.606286,0.436308
276,-0.583257,-1.4386370000000002,2.09176,-0.07256,0.9912799999999999,-0.10996700000000001,0.122646,0.748947,0.148035,-0.483943,0.658806,0.23687399999999997
277,-0.562125,-1.4371120000000002,2.100222,-0.071026,0.991078,-0.112754,0.010789,0.510757,-0.129111,-0.590123,0.75143,0.04879
278,-0.6562100000000001,-1.437036,2.003375,-0.08135099999999999,0.991067,-0.105644,-0.614455,-0.130081,-0.766112,-0.025353,0.45014,-0.223518
279,-0.8877940000000001,-1.43549,1.778529,-0.10461400000000001,0.9908600000000001,-0.085118,-1.1784370000000002,-0.6264350000000001,-1.358006,0.258529,0.284698,-0.164226
280,-1.193733,-1.421451,1.483541,-0.13831400000000002,0.988869,-0.054774,-1.605429,-0.804582,-1.7250240000000001,0.388253,0.055901,-0.020803
281,-1.5057719999999999,-1.398828,1.18634,-0.170737,0.98525,-0.011118000000000001,-2.338768,-0.982642,-1.5825040000000001,0.123175,0.654841,-0.391287
282,-1.7764799999999998,-1.363433,0.9363100000000001,-0.20152,0.978577,0.042044,-2.5221150000000003,-1.41878,-1.580021,0.152692,0.780975,-0.48703599999999997
283,-1.983457,-1.319966,0.758328,-0.22735500000000003,0.968707,0.099535,-2.5388509999999997,-1.7905080000000002,-1.312606,0.23110799999999998,0.674909,-0.345065
284,-2.136348,-1.2745,0.629369,-0.246502,0.9564239999999999,0.15645699999999998,-2.670763,-1.0716290000000002,-1.153147,0.5708880000000001,0.5234340000000001,-0.047204
285,-2.237001,-1.226792,0.535832,-0.26513200000000003,0.941412,0.208419,-2.452673,-0.393165,-1.0467389999999999,0.639521,0.42965200000000003,-0.04193
286,-2.299322,-1.1847,0.473321,-0.280974,0.926386,0.250703,-2.0514080000000003,-0.136632,-0.812461,0.551512,0.0622,-0.134935
287,-2.341196,-1.148307,0.434537,-0.294242,0.912071,0.285545,-1.654945,-0.49052700000000005,-0.833807,0.204261,-0.371544,-0.228767
288,-2.377628,-1.116938,0.41343199999999997,-0.303296,0.8987620000000001,0.31658400000000003,-1.267398,-1.036664,-0.724646,0.13581500000000002,-0.494435,-0.21734099999999998
289,-2.413609,-1.095404,0.399939,-0.30451999999999996,0.8891129999999999,0.341661,-0.8444520000000001,-1.295221,-0.368847,0.036591000000000005,-0.716124,-0.26938
290,-2.452204,-1.083811,0.388952,-0.297647,0.883748,0.361087,-0.456162,-1.530884,-0.11373299999999999,0.10279200000000001,-0.799733,-0.295794
291,-2.490234,-1.077717,0.38272,-0.286963,0.8808799999999999,0.376419,-0.277672,-1.6510029999999998,-0.066399,0.14313399999999998,-0.7724810000000001,-0.283889
292,-2.524078,-1.0735569999999999,0.380736,-0.276181,0.8789030000000001,0.388898,-0.151542,-1.6045459999999998,-0.071986,0.217099,-0.8621479999999999,-0.265226
293,-2.5568560000000002,-1.07253,0.379004,-0.263786,0.8784120000000001,0.398494,-0.006492,-1.513845,0.030392000000000002,0.29380100000000003,-0.848719,-0.22539800000000002
294,-2.581802,-1.074033,0.382735,-0.25306300000000004,0.87913,0.40383,0.182752,-1.31266,-0.095663,0.269619,-0.743784,-0.162436
295,-2.591785,-1.075644,0.395663,-0.248279,0.8798959999999999,0.40512800000000004,0.236636,-0.9210729999999999,-0.299819,-0.029385,-0.185133,0.23775500000000002
296,-2.589209,-1.076973,0.415009,-0.248709,0.8805270000000001,0.403492,0.358678,-0.637946,-0.346331,-0.088145,0.121976,0.267208
297,-2.597473,-1.077512,0.428334,-0.245119,0.880782,0.405127,-0.064376,-1.302966,-0.17431300000000002,-0.12081700000000001,0.60402,0.358865
298,-2.639702,-1.064891,0.419142,-0.23312800000000003,0.8747360000000001,0.42482600000000004,-0.944051,-1.8710099999999998,-0.14768299999999998,-0.07893,1.170399,0.53367
299,-2.679379,-1.0480180000000001,0.408913,-0.222644,0.8664350000000001,0.446888,-0.586971,-1.219292,-0.133206,0.03815,0.8620040000000001,0.6417649999999999
300,-2.692846,-1.05301,0.41450699999999996,-0.214727,0.868917,0.44594399999999995,0.829599,-0.8945790000000001,0.019415,-0.087519,-0.014256999999999999,0.735819
301,-2.711767,-1.0658729999999998,0.42416800000000005,-0.201577,0.8752120000000001,0.43973,-0.252625,-1.823363,0.124141,0.454079,0.44322399999999995,-0.050203
302,-2.770766,-1.033811,0.388425,-0.185374,0.8592549999999999,0.47676899999999994,-2.062281,-1.2287379999999999,0.044508,0.16021300000000002,0.871641,-0.31031
303,-2.795532,-1.014548,0.37861,-0.179093,0.849242,0.49669300000000005,-0.352817,-0.098609,-0.073186,0.132157,0.826356,-0.998158
304,-2.806694,-1.020329,0.369175,-0.171921,0.8522799999999999,0.494017,0.290109,-0.486975,0.585555,0.704117,0.186218,-0.02516
305,-2.810787,-1.025552,0.356335,-0.16845,0.855,0.49049899999999996,0.161961,1.169668,0.12961099999999998,0.349373,-0.11320999999999999,-0.253255
306,-2.7591919999999996,-1.030913,0.36927600000000005,-0.191808,0.857769,0.47689899999999996,0.489393,2.316743,-0.363091,0.150625,0.013035,-0.63469
307,-2.695304,-1.053665,0.394106,-0.21338400000000002,0.8692409999999999,0.445957,1.786044,1.9363599999999999,0.130358,-0.091623,0.348075,-0.6364479999999999
308,-2.642774,-1.0943100000000001,0.41677,-0.219412,0.8886120000000001,0.402762,2.114065,1.559434,0.598877,-0.119592,0.53665,-0.354926
309,-2.583809,-1.140074,0.44898999999999994,-0.220994,0.9086639999999999,0.354234,2.458825,1.4002860000000001,0.406005,-0.019927,0.010173999999999999,-0.39816399999999996
310,-2.4958970000000003,-1.181614,0.518999,-0.228318,0.92522,0.303035,2.507277,1.163799,-0.169125,0.20044,-0.5358,-0.31304499999999996
311,-2.380487,-1.216721,0.614295,-0.239134,0.937968,0.251044,2.386883,1.46011,-0.11371700000000001,0.456541,-0.670862,-0.224906
312,-2.258687,-1.248255,0.705658,-0.244883,0.948433,0.201244,2.058907,1.990188,0.277487,0.5653630000000001,-0.705071,-0.254741
313,-2.1349009999999997,-1.278515,0.787683,-0.24348499999999998,0.9575889999999999,0.154048,1.808746,2.420199,0.583904,0.324509,-0.384301,-0.21331399999999998
314,-1.994101,-1.305762,0.8805930000000001,-0.23881,0.965084,0.10759400000000001,1.761773,2.644098,0.5768800000000001,0.232523,-0.24233600000000002,-0.118199
315,-1.8322619999999998,-1.3271389999999998,0.99156,-0.233041,0.970462,0.062360000000000006,1.591736,2.741834,0.525361,0.191171,-0.11883900000000001,-0.044324
316,-1.6628599999999998,-1.344726,1.11436,-0.22318600000000002,0.974555,0.020606,1.596827,2.371526,0.685036,0.134029,-0.084128,-0.11257
317,-1.47492,-1.3616110000000001,1.260633,-0.206695,0.9782,-0.019878,1.5326620000000002,2.142656,0.965823,0.051757000000000004,-0.325429,-0.113301
318,-1.283859,-1.378938,1.419093,-0.182873,0.9816520000000001,-0.053962,1.272991,1.589668,1.2178870000000002,-0.029376999999999997,-0.244454,-0.004265
319,-1.106517,-1.393275,1.5704850000000001,-0.157882,0.984284,-0.079066,0.905334,1.345275,1.115219,-0.229859,0.311706,0.242808
320,-0.9457840000000001,-1.403422,1.711623,-0.13508599999999998,0.9860260000000001,-0.097465,0.666616,0.8712290000000001,1.055407,-0.456192,0.292981,0.164054
321,-0.794655,-1.410759,1.85043,-0.11370599999999999,0.9872209999999999,-0.11162000000000001,0.6360819999999999,0.599129,0.929492,-0.307329,0.166938,0.412463
322,-0.675006,-1.4108690000000002,1.958279,-0.09950099999999999,0.987239,-0.12430899999999999,0.471446,0.766714,0.45597299999999996,0.120497,0.5305380000000001,0.393016
323,-0.611613,-1.409665,2.001738,-0.092109,0.9870459999999999,-0.13133699999999998,0.107552,1.135743,0.128219,-0.688393,0.485152,0.114568
324,-0.598753,-1.41157,1.99663,-0.089352,0.98735,-0.130956,-0.215959,0.667794,-0.050766000000000006,-0.7440829999999999,0.45018,0.280843
325,-0.656459,-1.417355,1.9337259999999998,-0.09326799999999999,0.988251,-0.121057,-0.726789,-0.090766,-0.385579,-0.287576,0.49044799999999994,-0.277441
326,-0.835858,-1.416603,1.7639,-0.11392200000000001,0.988136,-0.102969,-0.938675,-0.69135,-1.324188,0.368469,0.20472,-0.059187000000000003
327,-1.109642,-1.409857,1.497745,-0.14348699999999998,0.9870770000000001,-0.071297,-1.89368,-0.37856300000000004,-1.460515,0.572153,0.193617,0.030189999999999998
328,-1.4149209999999999,-1.393368,1.198037,-0.17433900000000002,0.984301,-0.027397,-2.212377,-0.634901,-1.5489389999999998,0.5389470000000001,0.378858,-0.255562
329,-1.6610200000000002,-1.362989,0.961026,-0.205456,0.9784860000000001,0.018587,-2.298179,-0.5863079999999999,-1.638263,0.414914,0.702041,-0.38472199999999995
330,-1.862357,-1.320481,0.768848,-0.23724,0.968834,0.071199,-2.6699189999999997,-0.898317,-1.611617,0.446698,0.711692,-0.43733299999999997
331,-2.018555,-1.274263,0.621553,-0.263387,0.956355,0.126503,-2.6156599999999997,-0.428726,-1.343716,0.42658,0.749257,-0.017281
332,-2.112038,-1.228151,0.524205,-0.28794699999999995,0.9418690000000001,0.17309000000000002,-2.2797099999999997,0.082248,-1.278999,0.428663,0.533168,0.14360599999999998
333,-2.162118,-1.186914,0.46345,-0.31092,0.927218,0.208774,-1.8884470000000002,0.45399799999999996,-1.078054,0.365104,0.342771,0.048031
334,-2.194394,-1.1495739999999999,0.42307100000000003,-0.331909,0.91259,0.23876,-1.595992,-0.024137,-1.1085129999999999,0.203781,-0.064262,-0.12862200000000001
335,-2.2270659999999998,-1.116595,0.40081999999999995,-0.347597,0.8986120000000001,0.2677,-1.232675,-0.945292,-0.9680620000000001,0.127092,-0.495642,-0.148758
336,-2.264837,-1.092527,0.386309,-0.353767,0.887793,0.294387,-0.8639549999999999,-1.382695,-0.595321,0.17563499999999999,-0.64031,-0.17658900000000002
337,-2.304287,-1.078926,0.375094,-0.350817,0.881451,0.31616500000000003,-0.524831,-1.5068629999999998,-0.208234,0.212146,-0.854565,-0.200641
338,-2.3448919999999998,-1.073703,0.365363,-0.340981,0.878972,0.333359,-0.287011,-1.753709,0.043708,0.207054,-0.9010370000000001,-0.290054
339,-2.393771,-1.0724790000000002,0.355234,-0.325017,0.878388,0.350409,-0.164547,-2.140325,0.183927,0.199575,-0.917283,-0.303336
340,-2.445734,-1.075965,0.34739000000000003,-0.30441399999999996,0.880049,0.364465,0.137407,-2.271747,0.286618,0.244294,-0.9130379999999999,-0.271783
341,-2.488465,-1.085589,0.348267,-0.283406,0.8845780000000001,0.370392,0.5352,-2.089823,0.26779899999999995,0.311971,-0.66505,-0.199952
342,-2.5203290000000003,-1.09886,0.356002,-0.26460500000000003,0.89069,0.369654,0.636659,-1.8578310000000002,0.239368,0.272341,-0.48990200000000006,-0.072245
343,-2.546997,-1.1081940000000001,0.362965,-0.249986,0.8948940000000001,0.369674,0.381115,-1.454587,0.052264,-0.064055,0.127521,0.450608
344,-2.55978,-1.1108200000000001,0.376287,-0.243948,0.8960629999999999,0.370875,0.13883399999999999,-1.130554,-0.317312,-0.28052699999999997,0.43346599999999996,0.6485489999999999
345,-2.568769,-1.10049,0.385631,-0.245608,0.89143,0.380813,-0.640556,-0.894084,-0.435222,-0.11948900000000001,0.816655,0.352876
346,-2.616453,-1.085821,0.369325,-0.23370900000000003,0.8846860000000001,0.403359,-0.780752,-2.000909,0.218969,0.565832,0.771686,0.560829
347,-2.674707,-1.084335,0.340172,-0.210419,0.883993,0.417454,-0.019516,-1.233948,0.6335,0.31199699999999997,0.658335,0.682339
348,-2.692993,-1.096983,0.33092,-0.19788599999999998,0.889835,0.411125,0.473505,-0.274831,0.38040999999999997,0.20630900000000002,0.32298000000000004,0.522744
349,-2.737668,-1.080816,0.291377,-0.18495799999999998,0.882342,0.432725,-1.8276330000000003,-0.210371,0.6409239999999999,0.45851800000000004,0.972852,-0.493623
350,-2.776272,-1.055655,0.247205,-0.17599700000000001,0.870223,0.460136,-1.186687,0.278094,0.47599600000000003,0.15141500000000002,0.574693,-0.782279
351,-2.769418,-1.051825,0.22406900000000002,-0.180357,0.8683299999999999,0.46201800000000004,-0.094198,1.66674,0.446596,0.344999,-0.020216,-0.58003
352,-2.748694,-1.05035,0.210819,-0.190383,0.867597,0.45936499999999997,-0.373555,1.6751770000000001,0.17757799999999999,0.339766,-0.007306999999999999,-0.205382
353,-2.711084,-1.0470030000000001,0.20330299999999998,-0.20873200000000003,0.865928,0.45451800000000003,0.066981,2.4954099999999997,0.069577,0.230048,0.27642100000000003,-0.417836
354,-2.664621,-1.0608309999999999,0.204396,-0.224098,0.872761,0.43365200000000004,0.9707870000000001,1.981438,0.47820100000000004,-0.17011300000000001,0.554454,-0.368971
355,-2.6179099999999997,-1.09907,0.21652800000000003,-0.22723800000000002,0.890785,0.393512,2.179591,1.668723,0.643005,-0.380474,0.43586,-0.278567
356,-2.556509,-1.142304,0.256158,-0.22945900000000002,0.909593,0.346376,2.32373,1.082755,0.26874899999999996,-0.099856,-0.165773,-0.16226300000000002
357,-2.477798,-1.181233,0.32176,-0.233979,0.925075,0.299129,2.3366860000000003,0.838816,-0.010722,0.007814,-0.682674,-0.23189899999999997
358,-2.38394,-1.2161549999999999,0.404102,-0.238628,0.9377709999999999,0.252251,2.282396,0.925054,0.048609,0.24608899999999997,-0.671673,-0.14138
359,-2.274054,-1.248098,0.495309,-0.24187199999999998,0.948383,0.205076,2.122948,1.384375,0.13984100000000002,0.390523,-0.626224,-0.180357
360,-2.145322,-1.27437,0.595724,-0.245191,0.9563870000000001,0.15872999999999998,1.943475,1.8026060000000002,0.134847,0.456205,-0.609478,-0.213402
361,-1.997297,-1.29561,0.7067479999999999,-0.247367,0.962374,0.112402,1.8415759999999999,2.2330229999999998,0.21156399999999997,0.417808,-0.354373,-0.20574
362,-1.838452,-1.312893,0.8231120000000001,-0.245952,0.9669270000000001,0.067449,1.6641700000000001,2.312944,0.358705,0.281459,-0.142006,-0.279851
363,-1.6770349999999998,-1.32956,0.9460790000000001,-0.237535,0.971043,0.025331,1.6860549999999999,1.9941689999999999,0.66372,0.175691,-0.161107,-0.192888
364,-1.491966,-1.3482450000000001,1.100381,-0.22001199999999999,0.9753379999999999,-0.01738,1.792255,1.570351,1.063452,0.17042100000000002,-0.343868,-0.00502
365,-1.287871,-1.367728,1.2808389999999998,-0.193635,0.979452,-0.056294000000000004,1.60608,1.3383770000000001,1.426712,0.074235,-0.167654,0.10948699999999999
366,-1.0776290000000002,-1.385205,1.4691809999999998,-0.16251600000000002,0.982827,-0.08734700000000001,1.18717,1.225689,1.465591,0.025386000000000002,0.27020900000000003,0.155538
367,-0.886026,-1.39695,1.638738,-0.133956,0.984927,-0.10938599999999998,0.8392219999999999,1.233027,1.264462,-0.179124,0.233015,0.131206
368,-0.70314,-1.401566,1.800116,-0.10888699999999998,0.985715,-0.12845499999999999,0.80794,1.1128280000000002,0.981319,-0.28222600000000003,0.6005739999999999,0.461417
369,-0.592116,-1.397058,1.892795,-0.096465,0.9849450000000001,-0.14341500000000001,0.49510600000000005,1.020009,0.222952,-0.141283,0.605143,0.46916
370,-0.546172,-1.39457,1.917617,-0.091049,0.984512,-0.149788,0.134279,1.10796,0.119906,-0.370881,0.597763,0.315971
371,-0.509734,-1.39436,1.932749,-0.085633,0.984475,-0.153186,0.012249,0.975397,0.076494,-0.617492,0.539664,0.205204
372,-0.5330560000000001,-1.395704,1.900455,-0.088509,0.984711,-0.150008,-0.32871500000000003,0.021228,-0.505778,-0.464851,0.625626,0.039229
373,-0.6691239999999999,-1.397427,1.7681830000000003,-0.10698699999999998,0.985009,-0.135284,-0.956723,-0.49295200000000006,-1.113051,0.027565,0.320411,-0.214966
374,-0.894927,-1.393793,1.552632,-0.137351,0.984376,-0.110135,-1.373428,-0.691743,-1.654091,0.388282,0.303634,0.08584299999999999
375,-1.1934930000000001,-1.383424,1.267413,-0.17315,0.982497,-0.068618,-2.201454,-0.997618,-1.700075,0.41413199999999994,0.390687,0.03926
376,-1.460688,-1.363326,1.014985,-0.204714,0.978555,-0.022632,-2.201967,-0.895157,-1.482292,0.266466,0.627966,-0.26443099999999997
377,-1.68265,-1.334186,0.802902,-0.232922,0.972138,0.026162,-2.300624,-0.7585029999999999,-1.471406,0.360562,0.9496450000000001,-0.165185
378,-1.8517720000000002,-1.29544,0.6402899999999999,-0.261209,0.9623280000000001,0.075388,-2.46011,-0.391523,-1.464445,0.49578199999999994,0.886732,-0.112223
379,-1.9709189999999999,-1.254902,0.520368,-0.286111,0.950519,0.12100699999999999,-2.202394,-0.23581100000000002,-1.20113,0.625344,0.558774,-0.059087
380,-2.060667,-1.219619,0.43505600000000005,-0.303531,0.938968,0.16185,-1.91494,-0.551188,-0.9038879999999999,0.41263199999999994,-0.032581,-0.11508199999999999
381,-2.127305,-1.185091,0.376634,-0.31943,0.9265329999999999,0.198716,-1.686665,-0.675093,-1.018571,0.364214,-0.145467,-0.12138499999999999
382,-2.182459,-1.151573,0.33716599999999997,-0.333237,0.9134049999999999,0.23373200000000002,-1.5134319999999999,-1.180051,-0.898142,0.204453,-0.303618,-0.174527
383,-2.2413,-1.1244379999999998,0.304289,-0.338215,0.902025,0.268229,-1.2489139999999999,-1.5181040000000001,-0.504891,0.068775,-0.7717149999999999,-0.208323
384,-2.299241,-1.107637,0.273056,-0.333378,0.894645,0.29741300000000004,-0.963827,-1.50488,-0.06387799999999999,0.103748,-0.8933479999999999,-0.28024699999999997
385,-2.3534889999999997,-1.099351,0.245583,-0.322006,0.890913,0.320268,-0.594685,-1.497566,0.184382,0.22558499999999998,-1.040586,-0.315629
386,-2.4032880000000003,-1.097451,0.22651999999999997,-0.306802,0.890048,0.33715100000000003,-0.22819899999999999,-1.7495939999999999,0.288746,0.36535,-1.055866,-0.309838
387,-2.449042,-1.102096,0.21704,-0.288418,0.892156,0.347645,0.20850500000000002,-1.891806,0.30906999999999996,0.363873,-1.005559,-0.26414899999999997
388,-2.482247,-1.112738,0.22041100000000002,-0.270885,0.896913,0.349503,0.579742,-1.7330290000000002,0.240957,0.23742199999999997,-0.79474,-0.098695
389,-2.501923,-1.122774,0.230271,-0.25856999999999997,0.9013059999999999,0.347525,0.409227,-1.1628370000000001,0.055302,-0.094824,-0.33616599999999996,0.421426
390,-2.511215,-1.1251799999999998,0.23638800000000001,-0.25405,0.9023450000000001,0.34815999999999997,0.055804999999999993,-0.62426,-0.057884000000000005,-0.147851,-0.144868,0.427704
391,-2.5348599999999997,-1.120169,0.233475,-0.248323,0.900174,0.357779,-0.455329,-1.407385,-0.11065699999999999,0.069062,0.5374939999999999,0.45496499999999995
392,-2.5848880000000003,-1.103173,0.213126,-0.238171,0.892642,0.382684,-1.2234479999999999,-1.610406,-0.08905700000000001,0.08988600000000001,1.342114,0.430853
393,-2.636192,-1.0838940000000001,0.19100999999999999,-0.22652399999999998,0.8837870000000001,0.409379,-0.819743,-1.443794,-0.013811000000000002,0.078239,1.35097,0.404159
394,-2.6638,-1.084071,0.186614,-0.215065,0.883869,0.415337,0.273146,-1.177742,0.17080599999999999,0.257362,0.275325,0.42121099999999995
395,-2.715036,-1.060913,0.156386,-0.201928,0.872801,0.444325,-2.1345709999999998,-0.634629,0.171452,0.41652799999999995,1.488374,-0.07668
396,-2.7464419999999996,-1.0287540000000002,0.12168499999999999,-0.19858299999999998,0.856657,0.476116,-1.526389,0.46207200000000004,0.30995900000000004,0.23772100000000002,1.482424,-0.064098
397,-2.7307,-1.025388,0.10631099999999999,-0.20720300000000003,0.854915,0.47557200000000005,0.446142,1.743557,0.208864,0.9063459999999999,-0.7889970000000001,-0.541795
398,-2.721141,-1.034157,0.089134,-0.20867199999999997,0.859431,0.466707,-0.194364,1.0383040000000001,0.773587,0.624672,-0.45151800000000003,-0.268511
399,-2.70966,-1.030645,0.058949,-0.21527800000000002,0.8576309999999999,0.46701800000000004,-0.279099,2.453764,0.38769000000000003,0.30295500000000003,-0.018900999999999998,-0.472282
400,-2.655358,-1.045752,0.059494000000000005,-0.23422600000000002,0.865302,0.443139,1.3388200000000001,2.731894,0.559936,-0.269527,1.0702909999999999,-0.44362799999999997
401,-2.595545,-1.089364,0.071541,-0.240458,0.886333,0.395698,2.227932,2.296595,0.7547119999999999,-0.47726999999999997,1.06313,-0.26798099999999997
402,-2.517648,-1.135342,0.116317,-0.24643400000000001,0.9066780000000001,0.342326,2.596561,1.524676,0.334192,-0.233348,-0.364946,-0.278727
403,-2.436424,-1.178812,0.185047,-0.247598,0.9241530000000001,0.290894,2.498173,0.6445029999999999,0.21712800000000002,-0.055808,-0.9057959999999999,-0.251709
404,-2.348651,-1.218976,0.26723600000000003,-0.24548699999999998,0.9387469999999999,0.24181100000000003,2.480986,0.540589,0.377374,0.240986,-0.8228409999999999,-0.247182
405,-2.25568,-1.259267,0.352242,-0.237373,0.951866,0.193879,2.314412,0.768097,0.6365649999999999,0.39755999999999997,-0.5738300000000001,-0.172837
406,-2.137105,-1.294462,0.45517299999999994,-0.230215,0.9620620000000001,0.14636400000000002,2.1748060000000002,1.097415,0.454639,0.442846,-0.386806,-0.122576
407,-1.9850900000000002,-1.318808,0.5835779999999999,-0.22821,0.968419,0.100354,1.9905560000000002,1.628517,0.19950299999999999,0.40637199999999996,-0.286351,-0.029523
408,-1.806627,-1.33431,0.729,-0.22777600000000003,0.972167,0.054735,1.857579,1.9369040000000002,0.184292,0.375206,-0.231841,-0.029421
409,-1.622629,-1.345796,0.878958,-0.222779,0.974794,0.011558,1.738762,1.86811,0.44099099999999997,0.21778899999999998,-0.23423899999999998,-0.066688
410,-1.429065,-1.3591520000000001,1.041882,-0.207931,0.9776870000000001,-0.029669,1.703224,1.57755,0.9389069999999999,0.09916699999999999,-0.149669,-0.075052
411,-1.232493,-1.374201,1.216804,-0.184231,0.9807370000000001,-0.064818,1.445207,0.984872,1.2583309999999999,0.094204,-0.053583000000000006,0.033781
412,-1.032183,-1.387731,1.4036549999999999,-0.156244,0.98329,-0.093363,1.1949239999999999,0.949103,1.362382,-0.075491,0.295244,0.29235300000000003
413,-0.842253,-1.3987040000000002,1.573814,-0.127748,0.9852290000000001,-0.11398900000000001,0.725962,1.211902,1.31071,-0.19581500000000002,0.244035,0.274954
414,-0.661687,-1.4055010000000001,1.7328919999999999,-0.101083,0.9863700000000001,-0.12979100000000002,0.6813359999999999,1.0679239999999999,1.1247129999999999,-0.294547,0.12970399999999999,0.284469
415,-0.508497,-1.403506,1.8730189999999998,-0.081052,0.9860399999999999,-0.14541500000000002,0.7236130000000001,0.586787,0.730382,-0.335467,0.364226,0.383818
416,-0.438184,-1.397553,1.935804,-0.073126,0.985031,-0.156064,0.286302,0.248777,0.124215,-0.474558,0.504273,0.095914
417,-0.439662,-1.395364,1.933183,-0.074274,0.984651,-0.157906,0.0195,-0.033655000000000004,-0.143273,-0.526694,0.556029,0.20410999999999999
418,-0.49056099999999997,-1.39713,1.8844580000000002,-0.08139099999999999,0.984958,-0.15238800000000002,-0.440507,-0.256198,-0.568149,-0.44157299999999994,0.767621,-0.086489
419,-0.6537189999999999,-1.3972200000000001,1.727075,-0.10500899999999999,0.984973,-0.137072,-0.949358,-0.536826,-1.3426,0.10348299999999999,0.319867,-0.24423000000000003
420,-0.8980899999999999,-1.396315,1.492604,-0.13575,0.984817,-0.10814700000000001,-1.555688,-0.633804,-1.6062889999999999,0.344673,0.18155,-0.116096
421,-1.199725,-1.385469,1.20214,-0.17169500000000001,0.982876,-0.06680599999999999,-2.276602,-0.9354290000000001,-1.742329,0.378513,0.6092569999999999,-0.166043
422,-1.49429,-1.365026,0.926845,-0.203691,0.9789040000000001,-0.015614,-2.367812,-1.31308,-1.52777,0.360734,0.6411680000000001,-0.270931
423,-1.72584,-1.333705,0.7135199999999999,-0.23202899999999999,0.972025,0.036266,-2.437573,-1.0236610000000002,-1.38335,0.389073,0.648046,-0.322811
424,-1.9105349999999999,-1.297613,0.537346,-0.25435,0.962917,0.089898,-2.6349259999999997,-0.514845,-1.1161889999999999,0.418779,0.738621,0.027701
425,-2.040701,-1.258394,0.404904,-0.27401,0.9515979999999999,0.139155,-2.4257779999999998,0.064613,-1.018262,0.359428,0.469361,0.102148
426,-2.119888,-1.2201799999999998,0.316858,-0.292964,0.939161,0.179252,-2.044755,0.163153,-0.9494969999999999,0.283061,0.289583,0.021279
427,-2.1738180000000003,-1.1834200000000001,0.262696,-0.311116,0.925903,0.214229,-1.67662,-0.395943,-1.045554,0.102848,-0.148285,-0.099254
428,-2.215176,-1.1508040000000002,0.234159,-0.325971,0.913092,0.24492600000000003,-1.2550860000000001,-0.963556,-0.923309,0.081342,-0.664175,-0.189064
429,-2.254595,-1.127069,0.216348,-0.332776,0.903158,0.2712,-0.886733,-1.28044,-0.5859770000000001,0.175519,-0.726522,-0.244604
430,-2.297469,-1.1118139999999999,0.202878,-0.33110500000000004,0.8965040000000001,0.294333,-0.598739,-1.706635,-0.28218000000000004,0.335377,-0.745259,-0.24300300000000002
431,-2.342682,-1.1015139999999999,0.193678,-0.32406399999999996,0.891893,0.315422,-0.47285600000000005,-1.8809759999999998,-0.215916,0.344831,-0.829118,-0.274712
432,-2.387022,-1.093269,0.186052,-0.31479,0.888134,0.33482199999999995,-0.371902,-1.892294,-0.137216,0.31682,-0.8486899999999999,-0.31452800000000003
433,-2.431677,-1.0890879999999998,0.17895999999999998,-0.30194699999999997,0.8862049999999999,0.351354,-0.18934600000000001,-1.912873,0.055297000000000006,0.338904,-0.913076,-0.332433
434,-2.469547,-1.090701,0.17619400000000002,-0.287538,0.886951,0.36141599999999996,0.168959,-1.65231,0.118354,0.348787,-0.686008,-0.10609
435,-2.493105,-1.098587,0.18123499999999998,-0.27471100000000004,0.8905649999999999,0.362502,0.488509,-1.248795,0.163866,0.29537199999999997,-0.566118,0.003252
436,-2.510335,-1.109145,0.18748599999999999,-0.26286,0.8953180000000001,0.359569,0.463909,-1.194654,0.23199099999999998,0.098676,-0.306299,0.196797
437,-2.538648,-1.1164399999999999,0.18821,-0.248865,0.898544,0.361477,0.183173,-1.5671709999999999,0.12689,-0.50736,0.619965,0.5180859999999999
438,-2.569584,-1.110882,0.186889,-0.24026599999999998,0.896091,0.373196,-0.607528,-1.328271,-0.322251,-0.46035600000000004,1.003522,0.48050299999999996
439,-2.6051349999999998,-1.08647,0.18121700000000002,-0.237961,0.8849889999999999,0.400187,-1.20569,-1.706661,-0.548134,0.21222,0.975775,0.30391399999999996
440,-2.640779,-1.074782,0.17671199999999998,-0.2285,0.8794870000000001,0.417458,-0.014213,-1.395784,0.062266999999999996,0.13714500000000002,-0.095841,0.658821
441,-2.659052,-1.089863,0.17923499999999998,-0.21465399999999998,0.8865639999999999,0.409767,0.786209,-0.8392959999999999,0.329927,-0.044088999999999996,-0.224439,0.549813
442,-2.7059860000000002,-1.0755709999999998,0.147238,-0.200519,0.879862,0.430831,-1.8312119999999998,-0.721229,0.512319,0.40065300000000004,1.271506,-0.245894
443,-2.76065,-1.049698,0.09537899999999999,-0.185084,0.867273,0.462125,-1.298935,-0.134527,0.649881,0.448481,1.1839959999999998,-0.691404
444,-2.777254,-1.0489950000000001,0.064554,-0.177603,0.866923,0.465704,0.12156700000000001,0.520687,0.732671,0.650137,0.529745,-0.43903100000000006
445,-2.779687,-1.052762,0.050515,-0.175312,0.8687940000000001,0.463078,-0.00028700000000000004,0.760258,0.069215,0.188663,-0.59464,-0.299747
446,-2.737108,-1.049844,0.062917,-0.19586099999999998,0.867346,0.457525,0.041285,2.040901,-0.544227,0.169036,0.11457300000000001,-0.41872200000000004
447,-2.677196,-1.055313,0.083954,-0.220777,0.8700549999999999,0.44072799999999995,0.997001,1.867955,0.051261,-0.19708499999999998,0.963152,-0.586328
448,-2.654644,-1.0918649999999999,0.085836,-0.21562699999999999,0.8874879999999999,0.407246,1.8210110000000002,0.7703899999999999,1.016618,-0.45042,0.7342770000000001,-0.24130700000000002
449,-2.624084,-1.133197,0.102583,-0.209632,0.9057709999999999,0.368255,2.150973,0.734275,0.438925,-0.109948,-0.23227899999999999,-0.337921
450,-2.566864,-1.173781,0.153426,-0.210181,0.922219,0.324524,2.3014919999999996,0.389004,0.07295,0.22782,-0.6413810000000001,-0.306061
451,-2.494386,-1.213973,0.223262,-0.210596,0.937011,0.278638,2.404155,0.526794,0.15788,0.430475,-0.531906,-0.066968
452,-2.400833,-1.252278,0.298051,-0.211315,0.949701,0.23107600000000003,2.163784,1.571995,0.324709,0.43752700000000005,-0.433435,-0.086789
453,-2.2792939999999997,-1.28562,0.38312199999999996,-0.213598,0.9596120000000001,0.18303599999999998,2.018132,2.1234,0.286666,0.41884399999999994,-0.359194,-0.222877
454,-2.130374,-1.3135,0.49306300000000003,-0.215626,0.967082,0.13505999999999999,2.023845,2.159792,0.238589,0.272358,-0.335841,-0.3055
455,-1.9590900000000002,-1.336804,0.6261869999999999,-0.21456999999999998,0.972748,0.087772,1.919199,2.02968,0.366212,0.346421,-0.42831499999999995,-0.211811
456,-1.7792290000000002,-1.3585479999999999,0.770233,-0.206064,0.97756,0.043583,1.8108540000000002,2.0009919999999997,0.7073229999999999,0.366266,-0.467825,-0.144963
457,-1.570764,-1.381948,0.9405370000000001,-0.18768800000000002,0.9822209999999999,-6e-06,1.8377709999999998,2.0405919999999997,1.17,0.381139,-0.406354,-0.177255
458,-1.298771,-1.405719,1.1788100000000001,-0.158244,0.9864059999999999,-0.044141,1.92009,1.767045,1.5736450000000002,0.17614200000000002,-0.201326,0.022549
459,-0.972576,-1.4203139999999999,1.4715639999999999,-0.12384200000000001,0.988699,-0.084402,1.6499560000000002,1.985191,1.6003209999999999,0.085115,-0.041372000000000006,0.173772
460,-0.66379,-1.425107,1.7436470000000002,-0.089414,0.9894059999999999,-0.11431199999999998,1.051585,1.914196,1.4915459999999998,-0.16997,0.375706,0.23116399999999998
461,-0.412154,-1.426246,1.958494,-0.057685,0.9895709999999999,-0.131944,0.614332,1.935918,1.234227,-0.5648890000000001,0.282631,0.314988
462,-0.250129,-1.42099,2.089525,-0.036932,0.9888,-0.14456,0.5064850000000001,1.45759,0.534402,-0.6593720000000001,0.298401,0.47025900000000004
463,-0.181944,-1.416826,2.133305,-0.027742000000000003,0.9881700000000001,-0.15079,0.104755,1.0223950000000002,0.224505,-0.58058,0.5658,0.194872
464,-0.140224,-1.416508,2.163519,-0.021473,0.9881209999999999,-0.152126,0.044009,0.30787600000000004,0.206837,-0.981716,0.546516,0.380733
465,-0.175598,-1.4211719999999999,2.133465,-0.026033999999999998,0.988827,-0.146731,-0.49936099999999994,-0.598885,-0.6065659999999999,-0.97569,0.622242,0.12733699999999998
466,-0.402582,-1.434644,1.9125580000000002,-0.05316,0.9907459999999999,-0.12483499999999999,-1.497849,-0.095172,-1.563835,0.144178,0.448082,-0.282224
467,-0.741346,-1.441449,1.580331,-0.08706599999999999,0.9916459999999999,-0.095096,-1.3121260000000001,-0.925118,-1.700343,0.27918899999999996,0.345604,-0.421307
468,-1.100088,-1.432027,1.2603360000000001,-0.12323599999999998,0.9903870000000001,-0.06271,-1.587564,-2.565994,-1.6403439999999998,0.263129,0.307892,-0.133152
469,-1.473698,-1.41055,0.934386,-0.15876400000000002,0.987188,-0.015463999999999999,-2.174216,-2.398427,-1.744001,0.324398,0.838541,-0.29406
470,-1.7812290000000002,-1.372131,0.664682,-0.192969,0.980331,0.041217000000000004,-2.68522,-1.83769,-1.668173,0.575217,0.961182,-0.333621
471,-1.9965669999999998,-1.3276459999999999,0.46067299999999994,-0.21923499999999999,0.970584,0.099426,-2.872186,-0.07135599999999999,-1.266886,0.678708,1.008389,-0.14338599999999999
472,-2.12475,-1.282147,0.311456,-0.242063,0.9586290000000001,0.14973,-2.689463,1.008038,-0.960413,0.4409,0.325932,-0.046062
473,-2.204631,-1.241403,0.213608,-0.260617,0.9462389999999999,0.191555,-2.1691380000000002,0.345271,-0.837357,0.237729,0.123235,-0.070461
474,-2.258916,-1.201284,0.160983,-0.278956,0.9325040000000001,0.229352,-1.8198830000000001,-0.599567,-1.155241,-0.046514,-0.198312,-0.166654
475,-2.3032529999999998,-1.163441,0.13889200000000002,-0.294559,0.918172,0.264912,-1.367589,-1.498371,-1.086837,-0.130902,-0.659428,-0.149937
476,-2.352232,-1.137045,0.12720499999999998,-0.29834099999999997,0.9073950000000001,0.295986,-0.926689,-2.1632990000000003,-0.621433,0.07724099999999999,-0.747346,-0.24724899999999997
477,-2.408352,-1.12036,0.121175,-0.29136300000000004,0.900257,0.32345999999999997,-0.567277,-2.705449,-0.41953900000000005,0.13757,-0.771351,-0.26300500000000004
478,-2.4623779999999997,-1.110201,0.122082,-0.279202,0.8957879999999999,0.345819,-0.329966,-2.751375,-0.32916,0.303814,-0.834356,-0.363077
479,-2.514981,-1.1025399999999999,0.12497799999999999,-0.26465,0.892357,0.36557,-0.20762199999999997,-2.751049,-0.250325,0.37811500000000003,-0.8968729999999999,-0.402634
480,-2.564955,-1.099301,0.129307,-0.247633,0.89089,0.380755,0.0036119999999999998,-2.626593,-0.12189100000000001,0.441175,-0.9706020000000001,-0.350543
481,-2.6041090000000002,-1.100247,0.13651300000000002,-0.232107,0.8913190000000001,0.389433,0.184692,-2.010304,-0.152394,0.331778,-0.7704850000000001,-0.128172
482,-2.619457,-1.0995,0.152417,-0.226435,0.8909809999999999,0.39352600000000004,0.086297,-1.1725299999999999,-0.450053,0.21168,-0.372105,0.134001
483,-2.620829,-1.0959940000000001,0.173337,-0.227448,0.889383,0.396544,0.122261,-1.017073,-0.462819,0.198701,-0.25831,0.18629600000000002
484,-2.640813,-1.093952,0.181398,-0.22035100000000002,0.8884479999999999,0.40260300000000004,-0.135962,-1.54203,-0.029183999999999998,-0.05996900000000001,0.296001,0.185441
485,-2.691442,-1.087493,0.163692,-0.20218599999999998,0.885465,0.41839499999999996,-0.703294,-1.877968,0.289887,-0.154015,1.6424889999999999,0.620057
486,-2.737189,-1.070906,0.14710299999999998,-0.188594,0.877635,0.440647,-0.845938,-1.2824010000000001,-0.138093,-0.171147,1.167836,0.664242
487,-2.749373,-1.069893,0.154256,-0.183551,0.877149,0.443733,0.595742,-0.7419899999999999,-0.135125,-0.13078,-0.580122,0.26821100000000003
488,-2.75597,-1.074811,0.16664,-0.17899500000000002,0.8795,0.440931,-0.547191,-1.1657600000000001,-0.262206,0.313456,0.13437000000000002,-0.036818000000000004
489,-2.787572,-1.041647,0.153686,-0.174993,0.863237,0.473476,-1.79092,-1.0308110000000001,-0.43023199999999995,-0.07056699999999999,1.254027,-0.11588699999999999
490,-2.786057,-1.01696,0.161138,-0.18307400000000001,0.850513,0.493043,-0.429994,0.44755600000000006,-0.751632,0.128905,0.721539,-0.804185
491,-2.761125,-1.02495,0.18656099999999998,-0.192779,0.8546879999999999,0.482001,0.7225689999999999,-0.41597799999999996,-0.254298,0.5485369999999999,0.358721,-0.553977
492,-2.764307,-1.027714,0.187143,-0.19037300000000001,0.8561200000000001,0.48041300000000003,-0.121298,0.17361600000000002,0.086224,0.420368,-0.071162,-0.375768
493,-2.7433520000000002,-1.0297370000000001,0.189937,-0.199725,0.8571639999999999,0.474721,0.6124,1.4136229999999999,-0.023471000000000002,0.149569,0.228698,-0.670171
494,-2.698858,-1.061848,0.20571799999999998,-0.20873899999999998,0.873258,0.44026000000000004,2.032207,1.401286,0.49813999999999997,-0.011705,0.319369,-0.681425
495,-2.661849,-1.106638,0.220919,-0.20661300000000002,0.894199,0.397115,2.205689,1.0673709999999998,0.734789,-0.080527,0.11790199999999999,-0.229726
496,-2.617109,-1.153512,0.247903,-0.202938,0.914193,0.35078200000000004,2.376804,0.9323969999999999,0.507558,-0.038639,-0.148263,-0.309278
497,-2.554765,-1.197054,0.299948,-0.202151,0.930967,0.304,2.379019,0.651297,0.206695,-0.010556,-0.269011,-0.238906
498,-2.473441,-1.237717,0.370623,-0.202543,0.94504,0.256627,2.321094,0.8452729999999999,0.23274699999999998,0.22076199999999999,-0.5009020000000001,-0.14844200000000002
499,-2.378343,-1.275726,0.44722399999999995,-0.201006,0.956782,0.21011300000000002,2.141825,1.277587,0.434971,0.272096,-0.541254,-0.19917200000000002
500,-2.274515,-1.3119020000000001,0.5235770000000001,-0.195168,0.966674,0.165632,1.9108049999999999,1.6544259999999997,0.702067,0.33374899999999996,-0.519393,-0.20892199999999997
501,-2.154677,-1.345326,0.613146,-0.186494,0.9746889999999999,0.123222,1.843473,1.562247,0.6354850000000001,0.40492399999999995,-0.46754799999999996,-0.140221
502,-2.0074080000000003,-1.373945,0.734867,-0.177195,0.9806870000000001,0.082688,1.789061,1.3471600000000001,0.657813,0.260798,-0.291112,-0.133713
503,-1.8205759999999998,-1.4000629999999998,0.898647,-0.16458699999999998,0.98546,0.041987000000000003,1.906648,1.261125,0.759157,0.222906,-0.239168,-0.145152
504,-1.5595780000000001,-1.422579,1.137756,-0.147615,0.989036,-0.001656,2.0546860000000002,1.1872790000000002,0.982476,0.18278599999999998,-0.222221,-0.14241700000000002
505,-1.241111,-1.437748,1.439276,-0.125459,0.9911620000000001,-0.042929,1.81692,0.899863,1.136076,-0.090041,-0.06445,-0.017038
506,-0.952859,-1.444243,1.71275,-0.10282899999999999,0.9920030000000001,-0.073091,1.149477,0.879222,1.0160719999999999,-0.07104500000000001,0.447374,0.14988800000000002
507,-0.7507119999999999,-1.446951,1.8963139999999998,-0.084228,0.992341,-0.090283,0.647041,1.145,0.787896,9.1e-05,0.44676099999999996,0.265592
508,-0.573338,-1.444126,2.04897,-0.068498,0.9919879999999999,-0.10608499999999998,0.7498600000000001,1.213854,0.5300159999999999,-0.500472,0.169923,0.36539299999999997
509,-0.467131,-1.4318959999999998,2.140155,-0.062327999999999995,0.990369,-0.123578,0.787309,0.529582,0.056864,-0.44077,0.739078,0.250287
510,-0.43778900000000004,-1.4206459999999999,2.1660369999999998,-0.06339700000000001,0.988749,-0.13544,0.45211999999999997,0.076579,-0.12008599999999998,-0.24307600000000001,0.736013,0.30595700000000003
511,-0.458304,-1.4174930000000001,2.142557,-0.06754199999999999,0.9882719999999999,-0.136908,-0.20156300000000002,0.18512699999999999,-0.324548,-0.362664,1.003214,-0.140451
512,-0.5885279999999999,-1.41911,2.008115,-0.083861,0.988518,-0.125648,-0.8352290000000001,0.057615999999999994,-1.186593,0.049833999999999996,0.385338,-0.23316199999999998
513,-0.855872,-1.424169,1.738959,-0.110294,0.9892690000000001,-0.095749,-1.861532,-0.114907,-1.375139,0.12746,0.20575300000000002,-0.179672
514,-1.216725,-1.420723,1.383721,-0.140192,0.9887600000000001,-0.051822,-2.320967,-0.824567,-1.462896,0.154031,0.278223,-0.315488
515,-1.562335,-1.404187,1.062001,-0.165787,0.9861530000000001,-0.001403,-2.304609,-1.668454,-1.170065,0.158646,0.779442,-0.245668
516,-1.8585919999999998,-1.371178,0.78995,-0.1901,0.980142,0.056272,-2.9771360000000002,-1.028176,-1.397774,0.18295899999999998,0.785452,-0.303343
517,-2.067899,-1.320777,0.581288,-0.217446,0.968908,0.117974,-3.085909,-0.018113999999999998,-1.3485530000000001,0.57116,0.954859,-0.31893299999999997
518,-2.1920830000000002,-1.271755,0.44449099999999997,-0.239527,0.955619,0.171466,-2.69943,0.6968489999999999,-0.92589,0.554362,0.4096,-0.044437
519,-2.259159,-1.230189,0.356304,-0.257969,0.9425520000000001,0.212202,-2.16245,0.67205,-0.784307,0.3792,0.286437,-0.11205799999999999
520,-2.297576,-1.189765,0.309895,-0.27789200000000003,0.9282819999999999,0.24708400000000003,-1.808345,-0.00396,-1.2007780000000001,0.142745,-0.018095,-0.107649
521,-2.319037,-1.1490879999999999,0.296506,-0.29996799999999996,0.912391,0.278465,-1.410042,-0.736794,-1.298538,-0.004659,-0.390022,-0.125846
522,-2.347696,-1.119124,0.289933,-0.311228,0.899718,0.30598200000000003,-0.964922,-1.356157,-0.7765479999999999,0.011056999999999999,-0.7978350000000001,-0.23544099999999998
523,-2.3895560000000002,-1.0992620000000002,0.281853,-0.310299,0.8908719999999999,0.331725,-0.823975,-1.9948299999999999,-0.48953,0.098537,-0.813663,-0.36389099999999996
524,-2.4382669999999997,-1.084192,0.275887,-0.302427,0.883926,0.356641,-0.6186149999999999,-2.267541,-0.40121999999999997,0.11134100000000001,-0.832626,-0.288647
525,-2.4856830000000003,-1.070039,0.274304,-0.292784,0.8772190000000001,0.38045100000000004,-0.542983,-2.32308,-0.43053100000000005,0.185637,-0.799979,-0.319873
526,-2.530462,-1.058935,0.276467,-0.281032,0.871835,0.401129,-0.328018,-2.325376,-0.30938499999999997,0.367214,-0.886025,-0.377676
527,-2.569826,-1.055806,0.281078,-0.266504,0.870297,0.41417,0.127973,-2.036922,-0.113222,0.363611,-0.794492,-0.18956099999999998
528,-2.596893,-1.062862,0.290523,-0.25200900000000004,0.873751,0.415968,0.5646100000000001,-1.594798,0.032404,0.286783,-0.650057,-0.090132
529,-2.610614,-1.0738940000000001,0.304291,-0.241382,0.8790629999999999,0.41105,0.643864,-1.12924,-0.044551,0.128161,-0.357152,0.054190999999999996
530,-2.617844,-1.083805,0.32054699999999997,-0.23403400000000002,0.8837450000000001,0.40521799999999997,0.596888,-1.137593,-0.045937,0.075632,0.36682,0.318033
531,-2.650919,-1.088663,0.318918,-0.21848,0.886008,0.40894400000000003,-0.187552,-1.825394,0.275273,-0.038463,0.782647,0.333915
532,-2.711918,-1.0750309999999998,0.297603,-0.198157,0.879605,0.432443,-1.105106,-2.091729,0.009627,-0.126168,1.217746,0.5828770000000001
533,-2.748398,-1.05831,0.285261,-0.187863,0.8715280000000001,0.45290600000000003,-0.517492,-0.8182520000000001,-0.085109,-0.028385000000000004,0.713326,0.612386
534,-2.7495439999999998,-1.065818,0.296016,-0.184838,0.875185,0.447061,0.9707520000000001,-0.408844,-0.128649,-0.174628,-0.404955,0.5676939999999999
535,-2.74817,-1.0684799999999999,0.314106,-0.184558,0.8764700000000001,0.44465299999999996,-0.711258,-1.0845879999999999,-0.44504399999999994,0.5891149999999999,0.594493,-0.07902200000000001
536,-2.7831900000000003,-1.031928,0.299471,-0.18,0.85829,0.48053599999999996,-1.886801,-0.912717,-0.31567399999999995,-0.128045,1.036775,-0.588767
537,-2.77572,-1.02149,0.312232,-0.186779,0.8528870000000001,0.487518,0.599777,0.462192,-0.515848,-0.069111,0.950824,-0.8993680000000001
538,-2.7584020000000002,-1.037771,0.328932,-0.189976,0.861274,0.471268,0.699328,-0.372215,0.004004,0.8622479999999999,-0.119056,0.012313
539,-2.749556,-1.041375,0.331262,-0.19295,0.8631,0.46669799999999995,-0.076436,0.945348,-0.07681,0.660312,-0.45442299999999997,-0.084221
540,-2.708993,-1.045499,0.335395,-0.210223,0.865175,0.455254,0.5966060000000001,2.235682,0.067243,0.19867200000000002,-0.005037,-0.717507
541,-2.663592,-1.0687799999999998,0.342563,-0.22134099999999998,0.8766139999999999,0.42723900000000004,1.461526,1.6874669999999998,0.548277,-0.196643,0.2607,-0.515526
542,-2.627812,-1.1106340000000001,0.351172,-0.21824899999999997,0.8959799999999999,0.386737,2.076409,1.160888,0.897214,-0.335829,0.375214,-0.45372299999999993
543,-2.593813,-1.1546809999999998,0.372954,-0.210497,0.914666,0.345046,2.2126580000000002,0.502423,0.5443600000000001,-0.138151,0.041923,-0.283263
544,-2.535184,-1.195565,0.42847299999999994,-0.208853,0.930423,0.30112,2.295298,0.38469200000000003,0.078275,0.14214200000000002,-0.401202,-0.15248499999999998
545,-2.454714,-1.232312,0.5026430000000001,-0.21054699999999998,0.9432590000000001,0.256733,2.205818,0.6905859999999999,0.11571400000000001,0.31108800000000003,-0.567847,-0.102665
546,-2.360826,-1.267128,0.581712,-0.210436,0.9542459999999999,0.21239499999999997,2.0766,1.087631,0.30337800000000004,0.330538,-0.521552,-0.179283
547,-2.251298,-1.2994450000000002,0.670034,-0.208304,0.963409,0.16862,1.976957,1.291204,0.36330999999999997,0.24700100000000003,-0.387177,-0.21857800000000002
548,-2.120271,-1.3268309999999999,0.775914,-0.20596399999999998,0.9703879999999999,0.126128,1.8213169999999999,1.520924,0.326677,0.237092,-0.315053,-0.10328599999999999
549,-1.979179,-1.348948,0.8896370000000001,-0.201901,0.975492,0.087365,1.594467,1.482918,0.437305,0.224667,-0.289259,-0.160897
550,-1.826128,-1.3712280000000001,1.017108,-0.191777,0.980152,0.050059,1.7058669999999998,1.409935,0.74262,0.21408600000000003,-0.283436,-0.119182
551,-1.614298,-1.395965,1.206333,-0.17373,0.984756,0.007562,2.0095490000000003,1.1912530000000001,1.0868520000000002,0.15198599999999998,-0.30458,-0.076212
552,-1.350853,-1.417257,1.451919,-0.149201,0.988236,-0.033355,1.7721330000000002,1.017676,1.276628,0.087281,0.014190000000000001,0.100174
553,-1.091905,-1.431128,1.6895639999999998,-0.12350599999999999,0.9902620000000001,-0.064124,1.135866,1.335488,1.205546,0.000154,0.45335699999999995,0.101005
554,-0.881922,-1.442331,1.872598,-0.098854,0.9917600000000001,-0.081401,0.495985,1.511832,1.084415,-0.095772,0.345978,0.185817
555,-0.685984,-1.4474,2.036557,-0.077929,0.992396,-0.095197,0.612416,1.691705,0.757053,-0.261259,0.24181100000000003,0.336957
556,-0.55267,-1.442942,2.142829,-0.06690700000000001,0.9918379999999999,-0.10847799999999999,0.432982,1.105418,0.21069000000000002,-0.608431,0.34767,0.215579
557,-0.51804,-1.439368,2.165855,-0.064867,0.991376,-0.113809,0.187283,0.32531,-0.027172,-0.637175,0.478656,0.2586
558,-0.538601,-1.437784,2.140419,-0.067999,0.991167,-0.113801,-0.199264,0.25303600000000004,-0.265856,-0.29425999999999997,0.595915,0.191498
559,-0.671357,-1.436428,2.002376,-0.0833,0.990986,-0.104851,-0.621788,0.039822,-1.19041,-0.200971,0.727062,-0.147011
560,-0.938948,-1.430599,1.733138,-0.11271800000000001,0.990188,-0.082504,-1.5342209999999998,-0.11648599999999999,-1.536278,0.038118,0.036667,-0.189468
561,-1.29577,-1.41872,1.382593,-0.145749,0.988459,-0.041127,-2.249407,-0.83878,-1.7059220000000002,0.22697199999999998,0.127874,-0.06922400000000001
562,-1.646448,-1.3909610000000001,1.059245,-0.17831,0.983873,0.013515000000000001,-2.453605,-1.9901529999999998,-1.576618,0.343562,0.563292,-0.47712299999999996
563,-1.885186,-1.3531959999999998,0.857532,-0.20526799999999998,0.976418,0.066748,-2.332203,-1.823136,-1.358067,0.440741,0.7585970000000001,-0.179281
564,-2.054289,-1.3086209999999998,0.700198,-0.229442,0.965829,0.12047000000000001,-2.77841,-0.214088,-1.357904,0.43603100000000006,0.904167,-0.138262
565,-2.164232,-1.256142,0.580611,-0.25654699999999997,0.950903,0.173052,-2.6955720000000003,0.456574,-1.314388,0.5435800000000001,0.826715,-0.042605000000000004
566,-2.219887,-1.210965,0.507432,-0.280485,0.9359559999999999,0.21282399999999999,-2.049236,0.67684,-1.019592,0.322676,0.432238,-0.018656
567,-2.24757,-1.174962,0.46807200000000004,-0.300575,0.922675,0.24146399999999998,-1.5004170000000001,0.28191,-1.0344799999999998,0.17790999999999998,0.246087,-0.057
568,-2.27028,-1.138785,0.45168100000000005,-0.320358,0.908126,0.26955100000000004,-1.376665,-0.861851,-1.227635,-0.032379000000000005,-0.09869299999999999,-0.146291
569,-2.316393,-1.1059299999999999,0.43520299999999995,-0.329343,0.893882,0.304118,-1.311772,-1.93002,-0.8273659999999999,-0.009768,-0.6017520000000001,-0.26442899999999997
570,-2.377352,-1.082263,0.41763900000000004,-0.324756,0.883022,0.33879699999999996,-0.981607,-2.361055,-0.41537799999999997,0.038058999999999996,-0.769634,-0.285605
571,-2.439748,-1.0666879999999999,0.401467,-0.311841,0.875605,0.368848,-0.7664810000000001,-2.4363080000000004,-0.164884,0.184751,-0.885173,-0.320722
572,-2.500305,-1.055774,0.386307,-0.294647,0.870282,0.394679,-0.5734560000000001,-2.3033650000000003,-0.012018000000000001,0.315215,-0.9604,-0.30509400000000003
573,-2.552559,-1.049674,0.376729,-0.276574,0.8672610000000001,0.41393599999999997,-0.26019899999999996,-2.112885,0.033723,0.361825,-1.030484,-0.300914
574,-2.595638,-1.048414,0.373151,-0.25905900000000004,0.866633,0.426397,-0.009714,-1.9315799999999999,0.030967,0.44144700000000003,-1.0143229999999999,-0.391836
575,-2.6266689999999997,-1.051087,0.378232,-0.244563,0.867964,0.43221099999999996,0.294101,-1.6466029999999998,-0.10294,0.294612,-0.598921,-0.09636499999999999
576,-2.63917,-1.056066,0.392754,-0.23705700000000002,0.870425,0.431442,0.426595,-1.009549,-0.222471,0.161175,-0.201938,0.126816
577,-2.642846,-1.063261,0.406611,-0.23246799999999998,0.8739450000000001,0.4268,0.50163,-0.734694,-0.024678,0.11386099999999999,0.455187,0.345097
578,-2.668591,-1.069049,0.402995,-0.219096,0.876743,0.42813199999999996,-0.075002,-1.43828,0.334323,0.012415,0.924068,0.429259
579,-2.710456,-1.061873,0.387751,-0.20360899999999998,0.8732700000000001,0.44263100000000005,-0.67725,-1.414592,-0.005336,-0.035801,0.723562,0.24523499999999998
580,-2.7385,-1.049535,0.382054,-0.19533,0.867192,0.45804300000000003,-0.43902299999999994,-0.966556,-0.100386,0.136232,0.184703,0.430263
581,-2.755092,-1.050821,0.38158400000000003,-0.187283,0.8678309999999999,0.460187,0.20019,-0.760688,0.07686699999999999,0.090786,0.105878,0.49695100000000003
582,-2.7839970000000003,-1.038837,0.368663,-0.177532,0.861815,0.475116,-1.169174,-0.8285680000000001,0.124004,0.310085,1.263109,-0.153049
583,-2.8151770000000003,-1.015093,0.351401,-0.169149,0.8495290000000001,0.499666,-1.2923870000000002,-0.558266,0.034135000000000006,0.034063,0.995441,-0.238283
584,-2.8063740000000004,-1.003948,0.34429,-0.176645,0.843598,0.5070680000000001,-0.045018,1.4302030000000001,-0.147707,0.019449,0.007339,-0.720096
585,-2.7740009999999997,-1.013993,0.35999200000000003,-0.18991,0.848949,0.49315200000000003,0.661126,0.48907700000000004,-0.105249,0.344009,-0.286082,-0.691058
586,-2.7692360000000003,-1.0207950000000001,0.353503,-0.190153,0.852524,0.48685100000000003,0.250454,0.814289,0.440532,0.211454,-0.042908,-0.419484
587,-2.7469959999999998,-1.0375590000000001,0.34826799999999997,-0.19541,0.861166,0.46924099999999996,1.0121229999999999,1.481792,0.41935900000000004,-0.0009400000000000001,0.311289,-0.527728
588,-2.7123,-1.069366,0.354904,-0.20006400000000002,0.8768959999999999,0.43704399999999993,1.871405,1.445355,0.527957,-0.07627300000000001,0.42005600000000004,-0.46545600000000004
589,-2.6653830000000003,-1.111394,0.379006,-0.203256,0.8963180000000001,0.394057,2.1258150000000002,1.117168,0.328261,-0.08747,0.12170299999999999,-0.213469
590,-2.608563,-1.150352,0.41953900000000005,-0.20739499999999997,0.9129079999999999,0.35152100000000003,2.153047,1.0072290000000002,0.092515,-0.048402999999999995,-0.365041,-0.19931400000000002
591,-2.535676,-1.1867020000000001,0.476409,-0.21339299999999997,0.9271379999999999,0.30799,2.101006,1.046877,0.079282,0.098617,-0.526122,-0.193854
592,-2.462616,-1.223005,0.5320199999999999,-0.21401799999999999,0.9401280000000001,0.26521100000000003,2.007707,1.046883,0.424734,0.240995,-0.395328,-0.267546
593,-2.391938,-1.260114,0.584924,-0.20828400000000002,0.952125,0.22373200000000001,1.938532,1.046324,0.624009,0.275316,-0.31137800000000004,-0.223519
594,-2.3045009999999997,-1.294843,0.652957,-0.20233299999999999,0.962166,0.182426,1.907734,1.16422,0.47195600000000004,0.295045,-0.268852,-0.185844
595,-2.1882099999999998,-1.324009,0.7448819999999999,-0.199159,0.9697020000000001,0.141405,1.780561,1.5027139999999999,0.381971,0.27168400000000004,-0.38996,-0.119554
596,-2.056775,-1.350435,0.847253,-0.19323800000000002,0.9758190000000001,0.102075,1.689346,1.60017,0.598058,0.20921399999999998,-0.379108,-0.1876
597,-1.8951310000000001,-1.378679,0.9815299999999999,-0.18094100000000002,0.9816020000000001,0.060834000000000006,1.931701,1.414024,0.851022,0.154223,-0.314625,-0.190091
598,-1.6738099999999998,-1.407499,1.182501,-0.161661,0.9866969999999999,0.016712,2.043878,1.0162229999999999,1.133257,0.104654,-0.15776300000000001,-0.081105
599,-1.4040489999999999,-1.431489,1.4393639999999999,-0.136876,0.9903120000000001,-0.023038,1.707014,0.753664,1.2839969999999998,0.165883,0.213835,0.13429000000000002
600,-1.139316,-1.4473049999999998,1.6857689999999999,-0.11183399999999999,0.9923850000000001,-0.05149,1.04389,1.236812,1.181537,0.149111,0.40931799999999996,0.17532999999999999
601,-0.895107,-1.4592370000000001,1.897848,-0.08681599999999999,0.993784,-0.069588,0.6417229999999999,1.916969,1.136196,-0.338752,0.24345999999999998,0.179024
602,-0.650317,-1.463964,2.10542,-0.06451699999999999,0.9942989999999999,-0.084812,0.64693,1.8233599999999999,0.831909,-0.48106099999999996,0.320322,0.410542
603,-0.466451,-1.459285,2.260287,-0.050017,0.9937889999999999,-0.09933600000000001,0.569627,1.360596,0.47517600000000004,-0.509126,0.40579299999999996,0.334367
604,-0.36642399999999997,-1.455858,2.342988,-0.041068,0.993402,-0.10701600000000001,0.29595,0.55703,0.267059,-0.855966,0.43823900000000005,0.06719
605,-0.368559,-1.449553,2.340596,-0.043552999999999994,0.9926590000000001,-0.11277100000000001,0.219412,-0.352689,-0.47152,-0.438488,0.684663,0.10675899999999999
606,-0.536082,-1.443637,2.184226,-0.064747,0.991926,-0.10898,-0.42406499999999997,-0.6510630000000001,-1.220183,-0.139751,0.611452,-0.081068
607,-0.812493,-1.437414,1.9247869999999998,-0.096512,0.991118,-0.091419,-1.041004,-1.1414739999999999,-1.654357,0.15956199999999998,0.28257899999999997,-0.169537
608,-1.178717,-1.424956,1.5810879999999998,-0.134251,0.989384,-0.055511000000000005,-2.111254,-1.358589,-1.842084,0.351506,0.27476100000000003,-0.153839
609,-1.549166,-1.4021290000000002,1.2419,-0.167786,0.985809,-0.0036299999999999995,-2.310866,-1.989911,-1.49977,0.446946,0.372665,-0.321214
610,-1.817025,-1.369621,1.008183,-0.19375799999999999,0.9798319999999999,0.048697000000000004,-2.374629,-1.7464959999999998,-1.311452,0.527803,0.655986,-0.380743
611,-2.0252209999999997,-1.326898,0.818455,-0.21695100000000003,0.970404,0.105986,-2.901607,-0.7423960000000001,-1.273691,0.656069,0.7116939999999999,-0.052565
612,-2.169988,-1.276386,0.67019,-0.239602,0.956973,0.163636,-2.8886060000000002,0.212312,-1.073998,0.653405,0.6207090000000001,-0.14294600000000002
613,-2.255871,-1.231882,0.569576,-0.257432,0.943116,0.21034499999999998,-2.3838939999999997,0.587281,-0.710962,0.528275,0.389876,-0.080844
614,-2.309564,-1.194232,0.502354,-0.271845,0.929933,0.24760500000000002,-1.9793349999999998,0.386702,-0.718561,0.11808199999999999,-0.054796000000000004,-0.11633299999999999
615,-2.33394,-1.156642,0.47093100000000004,-0.290798,0.915457,0.27813499999999997,-1.5703719999999999,0.094875,-1.087072,0.032436,-0.200155,-0.139417
616,-2.352427,-1.122692,0.459229,-0.307498,0.9012700000000001,0.305189,-1.227817,-0.701557,-0.950131,-0.028516000000000003,-0.494883,-0.195891
617,-2.3804540000000003,-1.098817,0.453308,-0.31358,0.8906700000000001,0.329176,-0.776645,-1.36816,-0.611766,0.060315,-0.8997639999999999,-0.240416
618,-2.411135,-1.087026,0.45449399999999995,-0.310321,0.8852469999999999,0.34644,-0.219246,-1.706737,-0.341451,0.090838,-0.9071899999999999,-0.329152
619,-2.443709,-1.083156,0.462319,-0.301072,0.883441,0.358984,0.056727,-2.155535,-0.23533099999999998,0.13389600000000002,-0.851001,-0.34830300000000003
620,-2.483348,-1.083591,0.4721,-0.28637399999999996,0.8836450000000001,0.370329,0.21658400000000003,-2.534807,-0.09913200000000001,0.225568,-0.8269280000000001,-0.307783
621,-2.527156,-1.089016,0.48039799999999994,-0.26711399999999996,0.8861709999999999,0.37859299999999996,0.42208599999999996,-2.4732849999999997,0.054979999999999994,0.30169,-0.764467,-0.22685999999999998
622,-2.560755,-1.098761,0.49016899999999997,-0.249494,0.890645,0.380114,0.531299,-1.8814950000000001,0.085963,0.318448,-0.5181319999999999,-0.02547
623,-2.585596,-1.105675,0.49782299999999996,-0.23671999999999999,0.893767,0.380954,0.29804400000000003,-1.408405,-0.004935,0.305888,-0.342132,0.17294
624,-2.59559,-1.10896,0.508103,-0.231375,0.895236,0.38079,0.24855500000000003,-0.703469,-0.15894,0.051917,0.052869000000000006,0.157113
625,-2.603541,-1.107405,0.516483,-0.229053,0.8945420000000001,0.383813,-0.2098,-0.911484,-0.222764,-0.055737,0.9399770000000001,-0.111871
626,-2.6377900000000003,-1.088874,0.507318,-0.223742,0.8861049999999999,0.40588,-1.292411,-1.447306,-0.352484,-0.004957,1.504108,0.5721470000000001
627,-2.661051,-1.06636,0.500216,-0.22340700000000002,0.875447,0.428559,-0.625513,-0.413375,-0.285058,0.141285,1.175395,0.697921
628,-2.667564,-1.067109,0.50176,-0.220313,0.8758090000000001,0.429422,0.11167,-0.5377649999999999,0.07917300000000001,0.572592,0.40419,0.155921
629,-2.6993840000000002,-1.053772,0.477685,-0.211519,0.869294,0.44673100000000004,-1.206561,-0.466901,0.283519,0.230837,0.949752,0.09716799999999999
630,-2.735054,-1.0302559999999998,0.443558,-0.203482,0.8574309999999999,0.47263999999999995,-1.546052,0.209614,0.295236,0.073416,1.029334,0.12552
631,-2.725734,-1.01315,0.42734300000000003,-0.213773,0.8485030000000001,0.48407100000000003,-0.350073,1.6464900000000002,-0.162928,0.299009,0.039955000000000004,-0.722444
632,-2.6935279999999997,-1.018969,0.43600200000000006,-0.227106,0.851568,0.472479,0.523466,0.706918,0.144548,0.659189,-0.299871,-0.519872
633,-2.6970560000000003,-1.028821,0.419936,-0.22181900000000002,0.856692,0.46568000000000004,0.203521,0.6055470000000001,0.729965,0.523455,-0.106722,-0.402447
634,-2.6795240000000002,-1.049304,0.409202,-0.222079,0.8670770000000001,0.445916,1.262199,1.7591700000000001,0.6290600000000001,-0.200468,0.48160200000000003,-0.562738
635,-2.630865,-1.085826,0.427933,-0.22786599999999999,0.884689,0.40667600000000004,2.102479,1.436508,0.404607,-0.069024,0.362076,-0.465636
636,-2.5750450000000003,-1.131622,0.468096,-0.22819899999999999,0.9051030000000001,0.358742,2.5079759999999998,0.756455,0.421129,0.0055119999999999995,0.032641,-0.34478000000000003
637,-2.5176790000000002,-1.176173,0.5182939999999999,-0.224595,0.923141,0.31201,2.334651,0.59747,0.36991599999999997,0.187791,-0.40382399999999996,-0.173093
638,-2.4422580000000003,-1.21526,0.578947,-0.224056,0.9374600000000001,0.266368,2.1604080000000003,1.175692,0.310274,0.269313,-0.435888,-0.10566199999999999
639,-2.343794,-1.250225,0.650004,-0.225543,0.949055,0.220018,2.026559,1.793959,0.32456999999999997,0.294498,-0.445317,-0.08189600000000001
640,-2.224652,-1.279116,0.731965,-0.228229,0.9577620000000001,0.174893,1.788456,2.16257,0.258341,0.29231599999999996,-0.393385,-0.202649
641,-2.093489,-1.30155,0.8218030000000001,-0.230463,0.9639719999999999,0.13278,1.591676,2.281555,0.243995,0.237177,-0.3616,-0.17466500000000001
642,-1.945729,-1.3207879999999999,0.927917,-0.230199,0.96891,0.09059400000000001,1.740519,2.214791,0.294259,0.22847399999999998,-0.33355,-0.067721
643,-1.767883,-1.3387120000000001,1.067811,-0.22552600000000003,0.973189,0.045033,1.8016470000000002,1.981657,0.46696800000000005,0.09918300000000001,-0.284041,-0.199818
644,-1.586814,-1.355688,1.219968,-0.21339699999999998,0.9769530000000001,0.003418,1.8501889999999999,1.4763,0.7948310000000001,0.046436,-0.250589,-0.042388999999999996
645,-1.380232,-1.371572,1.406142,-0.194296,0.9802200000000001,-0.037481,1.7470139999999998,1.065595,1.027509,0.027335,-0.25385599999999997,-0.00149
646,-1.185327,-1.383932,1.586263,-0.17211700000000002,0.982592,-0.06984,1.291083,0.8186829999999999,1.0983479999999999,0.067304,0.061078999999999994,0.15724200000000002
647,-1.020675,-1.393985,1.7354,-0.149912,0.98441,-0.091937,0.795754,0.919767,1.024256,0.055995,0.143322,0.183383
648,-0.870985,-1.401887,1.866267,-0.12857000000000002,0.985769,-0.108252,0.686051,1.132407,0.956987,-0.0654,0.039027,0.151815
649,-0.704752,-1.4035309999999999,2.0124419999999996,-0.10783599999999999,0.986044,-0.1268,0.8749819999999999,1.10849,0.913472,-0.190076,0.180887,0.344939
650,-0.557122,-1.400108,2.13875,-0.089797,0.985468,-0.144148,0.7006319999999999,1.175322,0.602384,-0.251222,0.60726,0.436079
651,-0.47623999999999994,-1.395101,2.197515,-0.08011900000000001,0.984605,-0.155317,0.335156,1.09414,0.175851,-0.533193,0.585356,0.13288699999999998
652,-0.45352,-1.3897680000000001,2.204885,-0.07887000000000001,0.9836590000000001,-0.16181600000000002,0.222608,0.5731109999999999,-0.23126,-0.74454,0.6822189999999999,0.14991400000000002
653,-0.527351,-1.384686,2.132055,-0.093106,0.9827309999999999,-0.159877,-0.31299699999999997,-0.45942299999999997,-1.027367,-0.23701799999999998,0.752437,-0.133367
654,-0.715584,-1.3831280000000001,1.95675,-0.12238299999999999,0.982442,-0.140786,-1.150796,-1.006373,-1.516422,-0.131737,0.45038900000000004,-0.280464
655,-0.990144,-1.380654,1.70271,-0.158,0.981977,-0.103664,-2.0959849999999998,-1.4411100000000001,-1.7361119999999999,0.16326400000000002,0.23134000000000002,-0.169987
656,-1.314209,-1.369109,1.412212,-0.19373800000000002,0.9797299999999999,-0.050831,-2.371441,-2.2176099999999996,-1.519123,0.5279510000000001,0.44829399999999997,-0.31542600000000004
657,-1.5913190000000002,-1.350411,1.175641,-0.218533,0.9758129999999999,0.0044859999999999995,-2.450014,-2.154184,-1.062555,0.5923579999999999,0.688753,-0.349014
658,-1.835123,-1.320616,0.951197,-0.238956,0.9688680000000001,0.064676,-2.9783939999999998,-0.655216,-1.168579,0.704975,0.913151,-0.152872
659,-2.005248,-1.27675,0.7709229999999999,-0.262882,0.9570790000000001,0.121983,-2.933584,0.520737,-1.1793870000000002,0.841374,0.576338,-0.138188
660,-2.107206,-1.235052,0.647858,-0.28318000000000004,0.9441649999999999,0.16836800000000002,-2.4857419999999997,0.8415030000000001,-0.798519,0.71685,0.392779,-0.158953
661,-2.171004,-1.198277,0.560968,-0.300334,0.9314129999999999,0.20556100000000002,-2.135643,0.8521,-0.821725,0.30944299999999997,0.11024300000000001,-0.178538
662,-2.2021610000000003,-1.157901,0.514328,-0.323896,0.915963,0.236835,-1.738866,0.380603,-1.2702069999999999,-0.046877999999999996,-0.34430700000000003,-0.18451199999999998
663,-2.225666,-1.121785,0.490701,-0.344265,0.900877,0.264367,-1.275096,-0.34128400000000003,-0.965872,-0.047077,-0.55145,-0.14466199999999999
664,-2.252385,-1.101425,0.47561400000000004,-0.351252,0.8918530000000001,0.284968,-0.697455,-0.8420719999999999,-0.374742,0.056817999999999994,-0.809257,-0.199275
665,-2.284417,-1.093267,0.464805,-0.347434,0.888133,0.300824,-0.380973,-1.345041,-0.077057,0.244376,-0.791377,-0.178998
666,-2.3256639999999997,-1.088035,0.454103,-0.33811399999999997,0.885716,0.31807399999999997,-0.361558,-1.694834,0.001507,0.262354,-0.80988,-0.181126
667,-2.372603,-1.0841459999999998,0.44106300000000004,-0.32521,0.8839049999999999,0.33606199999999997,-0.329281,-1.7508290000000002,0.123581,0.340026,-0.907281,-0.17440999999999998
668,-2.4161770000000002,-1.084473,0.42907399999999996,-0.310071,0.884057,0.349693,-0.066354,-1.5371110000000001,0.25761100000000003,0.347302,-0.881387,-0.125114
669,-2.446523,-1.089564,0.42386899999999994,-0.296431,0.886425,0.355478,0.1863,-1.1330799999999999,0.23215300000000003,0.32469000000000003,-0.760845,-0.012796
670,-2.4697259999999996,-1.092471,0.421608,-0.286499,0.887767,0.360241,-0.0035759999999999998,-1.05611,0.06301699999999999,0.074112,-0.255809,0.46796000000000004
671,-2.489277,-1.092382,0.419609,-0.27945,0.887726,0.365836,-0.012161,-0.8461549999999999,0.046665,-0.27175900000000003,-0.001557,0.282723
672,-2.5236419999999997,-1.0915860000000002,0.410275,-0.267124,0.887359,0.375797,-0.323087,-1.725684,0.21867199999999998,-0.34946900000000003,0.34758,0.256283
673,-2.587911,-1.083588,0.387141,-0.24616100000000002,0.8836430000000001,0.398202,-0.849764,-2.425586,0.146455,-0.031137,1.27691,0.20951
674,-2.643138,-1.0678020000000001,0.375504,-0.230446,0.876143,0.423382,-0.561923,-1.968863,-0.298636,0.084663,1.088014,0.5378
675,-2.662504,-1.067754,0.38801399999999997,-0.222223,0.8761200000000001,0.427803,0.504452,-1.270967,-0.192737,0.209864,0.124338,0.7546930000000001
676,-2.688555,-1.0666879999999999,0.388108,-0.21141300000000002,0.875605,0.43428599999999995,-0.842764,-1.367692,0.121648,0.632007,0.9209639999999999,-0.279317
677,-2.730986,-1.04407,0.351869,-0.200657,0.8644569999999999,0.46090699999999996,-1.459747,-0.22144899999999998,0.388266,0.41515,1.031981,-0.280258
678,-2.74555,-1.030526,0.32289,-0.19842200000000002,0.85757,0.47453900000000004,-0.646323,1.150648,0.476579,0.22275999999999999,0.928746,-0.543295
679,-2.739834,-1.023699,0.297591,-0.203416,0.854038,0.478774,-0.43306300000000003,1.21017,0.325237,0.20193599999999998,0.350109,-0.303802
680,-2.7020779999999998,-1.028807,0.303791,-0.219484,0.856684,0.466801,0.6241939999999999,1.90619,-0.156448,0.20749099999999998,-0.35422800000000004,-0.383504
681,-2.6495349999999998,-1.039448,0.318436,-0.239377,0.862125,0.44656999999999997,0.6634899999999999,1.9992619999999999,-0.022765,0.200009,-0.2374,-0.423178
682,-2.600676,-1.0654700000000001,0.337237,-0.24926199999999998,0.875016,0.41497,1.779859,1.3512,0.434517,-0.145116,0.232817,-0.611167
683,-2.5680970000000003,-1.107579,0.356662,-0.24242800000000003,0.8946200000000001,0.375327,2.110364,0.546151,0.871555,-0.090031,0.329196,-0.27666399999999997
684,-2.527325,-1.153727,0.389807,-0.23346399999999998,0.91428,0.331019,2.393814,0.571168,0.497489,0.013097,0.113079,-0.226007
685,-2.452892,-1.193899,0.454029,-0.23388899999999999,0.929811,0.284137,2.2893630000000003,0.9617459999999999,0.15015499999999998,0.258822,-0.514467,-0.054386000000000004
686,-2.357832,-1.229283,0.525295,-0.236418,0.942249,0.237193,2.048334,1.6574,0.35161,0.336928,-0.561176,-0.118495
687,-2.2570099999999997,-1.2613459999999999,0.592757,-0.23558800000000002,0.952501,0.192944,1.7800880000000001,1.9241279999999998,0.481854,0.334007,-0.41855,-0.24496199999999999
688,-2.141528,-1.287218,0.671229,-0.23543000000000003,0.96006,0.151146,1.666147,2.0190360000000003,0.289725,0.312716,-0.318352,-0.362709
689,-2.008107,-1.308162,0.768632,-0.23517399999999997,0.965709,0.109944,1.6157700000000002,2.006271,0.328914,0.3626,-0.391445,-0.157459
690,-1.875112,-1.328294,0.8629319999999999,-0.22907800000000003,0.9707399999999999,0.071947,1.378135,2.1284110000000003,0.626199,0.294066,-0.344306,-0.118547
691,-1.731293,-1.350314,0.967398,-0.215869,0.975792,0.034947000000000006,1.50251,2.0608419999999996,0.898483,0.12463699999999998,-0.201027,-0.06479299999999999
692,-1.543349,-1.373883,1.12096,-0.195546,0.980675,-0.005368,1.7078689999999999,1.725639,1.16313,0.02155,-0.16909100000000002,-0.081942
693,-1.318709,-1.3955,1.319591,-0.16886199999999998,0.984675,-0.043493000000000004,1.620758,1.338275,1.405504,-0.0018989999999999999,-0.056223,0.066977
694,-1.072863,-1.412038,1.543675,-0.138871,0.987424,-0.07549299999999999,1.295833,1.238081,1.435409,-0.010787999999999999,0.165881,0.225517
695,-0.8479270000000001,-1.422926,1.746977,-0.110463,0.989087,-0.097445,0.738521,1.222577,1.2670299999999999,-0.185543,0.400561,0.219623
696,-0.657212,-1.4290479999999999,1.912259,-0.086288,0.9899700000000001,-0.111823,0.575554,1.424755,0.932348,-0.282059,0.326939,0.28681100000000004
697,-0.514278,-1.427897,2.029275,-0.07003999999999999,0.989807,-0.12396700000000001,0.437223,1.293887,0.479691,-0.355375,0.380752,0.384907
698,-0.450597,-1.427338,2.074018,-0.06225,0.989727,-0.128671,0.055227,0.749922,0.180754,-0.695883,0.570056,0.183634
699,-0.44092600000000004,-1.428216,2.074414,-0.060632000000000005,0.9898530000000001,-0.12848099999999998,-0.158831,0.301254,-0.11926800000000001,-0.649604,0.5490109999999999,0.42293000000000003
700,-0.511523,-1.433976,2.001102,-0.066751,0.990655,-0.11890999999999999,-0.670093,-0.11414300000000001,-0.489775,-0.54566,0.45128599999999996,-0.091143
701,-0.7183430000000001,-1.436524,1.803279,-0.08808300000000001,0.990999,-0.100766,-1.01919,-0.7095239999999999,-1.27873,0.20774299999999998,0.080046,-0.209552
702,-1.027586,-1.434122,1.5044799999999998,-0.11660899999999999,0.990675,-0.070408,-1.647315,-0.573522,-1.4445940000000002,0.332246,0.10155,0.1106
703,-1.389378,-1.420191,1.1571690000000001,-0.147543,0.9886799999999999,-0.027065,-2.252859,-1.196683,-1.458707,0.38214699999999996,0.36717,-0.18573499999999998
704,-1.688436,-1.393229,0.8844690000000001,-0.175387,0.984276,0.020728,-2.186916,-1.470725,-1.44935,0.303897,0.6799229999999999,-0.24249899999999996
705,-1.906349,-1.351801,0.683949,-0.205112,0.976116,0.071531,-2.5014380000000003,-0.852268,-1.592276,0.377399,0.702259,-0.283964
706,-2.054586,-1.30306,0.5431520000000001,-0.234173,0.9643719999999999,0.123043,-2.461272,-0.405217,-1.5359530000000001,0.457974,0.8227979999999999,-0.1096
707,-2.137332,-1.254559,0.45698,-0.262392,0.950412,0.166905,-2.150643,0.21431999999999998,-1.425618,0.503999,0.5374869999999999,0.10616600000000001
708,-2.175262,-1.212205,0.40933,-0.28875700000000004,0.936392,0.19944800000000001,-1.642883,0.347233,-1.271622,0.42202700000000004,0.342294,0.114532
709,-2.198423,-1.173483,0.383684,-0.313191,0.922104,0.227215,-1.450159,-0.285918,-1.3442399999999999,0.16664500000000002,-0.051086,-0.045224
710,-2.23385,-1.136784,0.369675,-0.331405,0.907286,0.258831,-1.255085,-1.6261370000000002,-1.2215200000000002,-0.007706,-0.464674,-0.149807
711,-2.286433,-1.107792,0.35893600000000003,-0.33705799999999997,0.8947149999999999,0.293031,-0.991456,-2.386091,-0.814916,0.03057,-0.768967,-0.24783400000000003
712,-2.345703,-1.087858,0.349904,-0.331787,0.885634,0.324897,-0.746494,-2.64068,-0.497754,0.176773,-0.867583,-0.315727
713,-2.40473,-1.0733840000000001,0.34383400000000003,-0.32062399999999996,0.87882,0.35336100000000004,-0.536104,-2.684613,-0.349881,0.20691500000000002,-0.8890129999999999,-0.338652
714,-2.459691,-1.063253,0.34208,-0.306324,0.873941,0.377334,-0.33686900000000003,-2.666451,-0.269465,0.334919,-0.938623,-0.378387
715,-2.5105880000000003,-1.0584049999999998,0.344488,-0.289227,0.871575,0.395847,-0.015931,-2.5998349999999997,-0.157281,0.446896,-0.88961,-0.320102
716,-2.548909,-1.061801,0.354746,-0.272194,0.8732340000000001,0.404179,0.455104,-2.176699,-0.088304,0.41509300000000005,-0.6806840000000001,-0.247548
717,-2.568622,-1.071264,0.372479,-0.259682,0.877807,0.402503,0.704809,-1.487133,-0.121626,0.23362,-0.394805,-0.06909900000000001
718,-2.569616,-1.081201,0.39485,-0.25454699999999997,0.882523,0.395407,0.676226,-0.810241,-0.207083,0.06308,-0.01265,0.168008
719,-2.565073,-1.090068,0.41505600000000004,-0.252066,0.886658,0.387671,0.5769310000000001,-0.689008,-0.069063,0.07182899999999999,0.23439000000000002,0.265329
720,-2.587488,-1.093905,0.41195299999999996,-0.241521,0.888426,0.390326,-0.272803,-1.235875,0.22481199999999998,0.12943,1.022249,0.187921
721,-2.63283,-1.07897,0.393636,-0.230019,0.8814719999999999,0.412416,-1.087413,-1.209374,-0.101379,0.154549,0.891279,0.584609
722,-2.649595,-1.065899,0.381923,-0.228496,0.875224,0.426333,-0.25303000000000003,0.091225,-9e-06,0.045223,-0.054149,0.560743
723,-2.6391080000000002,-1.0754,0.38823,-0.22893899999999998,0.8797809999999999,0.41660699999999995,0.563999,0.129582,0.08897000000000001,-0.054217999999999995,-0.316258,0.512104
724,-2.659462,-1.060707,0.367705,-0.226383,0.8727010000000001,0.43258800000000003,-1.719337,-0.03868,0.19074100000000002,0.08795499999999999,1.009547,-0.15240599999999999
725,-2.694633,-1.027382,0.33341,-0.22348200000000001,0.855949,0.466257,-1.545611,-0.288777,-0.020301,0.24386799999999997,1.021966,-0.6309
726,-2.699711,-1.018669,0.319009,-0.22429200000000002,0.851411,0.47411000000000003,0.135183,0.324239,0.266255,0.441654,0.822234,-0.778492
727,-2.706944,-1.028884,0.313073,-0.21718400000000002,0.8567239999999999,0.467807,0.408617,-0.023163999999999997,0.32629400000000003,0.37087,-0.29639,-0.067722
728,-2.691319,-1.0358209999999999,0.309816,-0.221875,0.860281,0.45899399999999996,0.369383,1.502148,0.13499,0.164273,-0.09465599999999999,-0.499583
729,-2.641879,-1.051385,0.324833,-0.237842,0.8681120000000001,0.435663,1.189469,1.831923,0.07193,0.134326,0.033042,-0.472025
730,-2.5908729999999998,-1.0849540000000002,0.34807,-0.244351,0.884282,0.397903,1.9892330000000003,1.241427,0.526926,-0.109134,0.422649,-0.466995
731,-2.548384,-1.128601,0.374166,-0.239213,0.9038139999999999,0.354804,2.2334110000000003,0.9022120000000001,0.695709,0.008683,0.31669,-0.26163400000000003
732,-2.483891,-1.170402,0.42489899999999997,-0.23826599999999998,0.9209069999999999,0.308463,2.296753,0.9466899999999999,0.17480199999999999,0.087585,0.06299500000000001,-0.225333
733,-2.386053,-1.204818,0.502307,-0.245371,0.933774,0.26048000000000004,2.208478,1.5432,-0.003904,0.336329,-0.548185,-0.16221300000000002
734,-2.271877,-1.234594,0.581634,-0.252085,0.9440139999999999,0.212794,1.902914,2.186625,0.261261,0.433924,-0.5116109999999999,-0.346767
735,-2.157368,-1.263401,0.652829,-0.251988,0.953125,0.167472,1.6934069999999999,2.39071,0.554365,0.433827,-0.520721,-0.301444
736,-2.036107,-1.289667,0.729808,-0.247932,0.960743,0.124482,1.593045,2.400541,0.580357,0.253944,-0.215916,-0.189408
737,-1.902306,-1.312178,0.816817,-0.24180700000000002,0.966744,0.083233,1.42828,2.5438259999999997,0.588637,0.230409,-0.170663,-0.123119
738,-1.765491,-1.3312709999999999,0.905302,-0.232746,0.9714510000000001,0.045896,1.2316129999999998,2.552676,0.676982,0.123142,-0.17155399999999998,-0.06502999999999999
739,-1.620727,-1.350032,1.0039790000000002,-0.21868800000000002,0.9757299999999999,0.010928,1.291521,2.306678,0.871064,-0.037385,-0.26873,0.017254
740,-1.443318,-1.369781,1.146452,-0.198028,0.979864,-0.025382,1.541072,1.615444,1.154635,-0.219025,-0.26160300000000003,0.145087
741,-1.23252,-1.388395,1.33808,-0.171097,0.983411,-0.060191999999999996,1.507034,0.9296200000000001,1.396695,-0.215606,-0.154798,0.24390799999999999
742,-1.020167,-1.4023809999999999,1.542565,-0.14283099999999999,0.9858520000000001,-0.08769400000000001,1.180393,0.37273,1.35133,-0.096961,0.073795,0.135073
743,-0.831217,-1.40967,1.729108,-0.118505,0.9870469999999999,-0.108115,0.898302,0.29364,1.128339,-0.049402,0.264234,0.411185
744,-0.671639,-1.4096739999999999,1.879003,-0.09981799999999999,0.9870479999999999,-0.12556900000000001,0.838082,0.657975,0.645683,-0.27261799999999997,0.499906,0.41167200000000004
745,-0.590526,-1.403562,1.9504009999999998,-0.092674,0.986049,-0.138253,0.378204,0.42493800000000004,0.18129800000000001,-0.472634,0.517308,0.298593
746,-0.554026,-1.4028200000000002,1.9840419999999999,-0.087952,0.985925,-0.14216600000000001,0.07574299999999999,0.096712,0.207379,-0.374267,0.6398229999999999,0.172531
747,-0.571466,-1.405355,1.965075,-0.08906499999999999,0.986346,-0.138506,-0.356547,0.016119,-0.308284,-0.332215,0.7382029999999999,-0.049192
748,-0.6993659999999999,-1.407026,1.834428,-0.10494300000000001,0.98662,-0.124753,-0.921551,0.077569,-1.065405,0.053673,0.451628,-0.08822999999999999
749,-0.931477,-1.406255,1.6015469999999998,-0.131435,0.9864940000000001,-0.09772,-1.6049879999999999,-0.23478400000000002,-1.481044,0.481975,0.143175,-0.015775
750,-1.228425,-1.3954309999999999,1.310334,-0.164326,0.984663,-0.058566999999999994,-2.185236,-0.794758,-1.600816,0.437733,0.16495,-0.016079
751,-1.516891,-1.377565,1.042658,-0.191736,0.981389,-0.010346,-2.172591,-1.431109,-1.250604,0.295572,0.397258,-0.377762
752,-1.7620060000000002,-1.3493680000000001,0.8147949999999999,-0.21560700000000002,0.975585,0.041736,-2.575791,-0.711662,-1.2639559999999999,0.312241,0.682557,-0.183826
753,-1.9426189999999999,-1.308862,0.635192,-0.24124299999999999,0.9658909999999999,0.094075,-2.6452080000000002,-0.116586,-1.366685,0.41166800000000003,0.92301,-0.119664
754,-2.057544,-1.2642579999999999,0.508417,-0.266703,0.953384,0.141144,-2.417684,0.587159,-1.1972180000000001,0.574702,0.800126,0.102997
755,-2.127823,-1.225636,0.424508,-0.287191,0.9410209999999999,0.178867,-1.949978,0.256255,-0.902971,0.28780100000000003,0.212421,-0.013172
756,-2.1793669999999996,-1.190074,0.37099699999999997,-0.30487,0.9283959999999999,0.212432,-1.6721759999999999,-0.28735900000000003,-1.0627030000000002,0.19181800000000002,-0.013097999999999999,-0.062315999999999996
757,-2.220284,-1.153706,0.344914,-0.32261300000000004,0.914271,0.244991,-1.346116,-1.181893,-1.153283,0.028591000000000002,-0.399104,-0.15031
758,-2.262239,-1.127333,0.330336,-0.330517,0.9032709999999999,0.27359,-0.889234,-1.569023,-0.6421899999999999,0.11877,-0.875973,-0.271896
759,-2.309468,-1.112471,0.317031,-0.32712199999999997,0.8967950000000001,0.297896,-0.617166,-1.853981,-0.213704,0.175678,-0.940069,-0.257552
760,-2.363175,-1.104091,0.300626,-0.315925,0.893056,0.320367,-0.5323760000000001,-1.993657,0.010326,0.234977,-0.892811,-0.26560300000000003
761,-2.416909,-1.097858,0.28526999999999997,-0.30194699999999997,0.890234,0.341033,-0.40674,-2.015543,0.046482,0.29282199999999997,-0.8419399999999999,-0.264449
762,-2.4670240000000003,-1.095099,0.275135,-0.286016,0.8889739999999999,0.357647,-0.147029,-2.072162,0.127418,0.35436,-0.838284,-0.283184
763,-2.509097,-1.099163,0.270735,-0.268583,0.890827,0.36644299999999996,0.273235,-1.738533,0.246362,0.4512,-0.748661,-0.246509
764,-2.5350599999999996,-1.111461,0.272962,-0.252714,0.8963469999999999,0.364262,0.6613760000000001,-1.2108430000000001,0.34774099999999997,0.321608,-0.412278,-0.021306
765,-2.545159,-1.127356,0.28208,-0.24098899999999998,0.903281,0.35496300000000003,0.785956,-0.705723,0.195209,0.071006,-0.071616,0.298297
766,-2.5415200000000002,-1.135217,0.29891999999999996,-0.238262,0.906626,0.34821199999999997,0.30691999999999997,-0.64062,-0.21841799999999997,-0.21660300000000002,0.395834,0.740991
767,-2.552718,-1.129246,0.300114,-0.23735,0.90409,0.35535300000000003,-0.670671,-0.631146,-0.141938,-0.305039,0.596322,0.584604
768,-2.595004,-1.10883,0.277863,-0.231663,0.895178,0.380761,-1.236709,-1.432557,-0.10320399999999999,0.293415,0.985499,0.22016100000000002
769,-2.637419,-1.093199,0.261556,-0.22204200000000002,0.8881020000000001,0.402444,-0.481249,-1.212386,-0.13987,0.23638499999999998,0.687948,0.590064
770,-2.6437060000000003,-1.0919889999999999,0.27271999999999996,-0.220021,0.887545,0.404777,0.13985699999999998,-0.634447,-0.290088,0.39597,0.46844300000000005,0.34774099999999997
771,-2.666341,-1.075299,0.25700100000000003,-0.217552,0.879733,0.422767,-1.440099,-0.158841,0.15653399999999998,0.48294799999999993,0.8908969999999999,-0.159797
772,-2.695152,-1.051397,0.220871,-0.214302,0.868117,0.447701,-1.268946,0.521913,0.263679,0.340798,0.788377,-0.43261000000000005
773,-2.6810259999999997,-1.044171,0.20441099999999998,-0.223387,0.8645079999999999,0.45023599999999997,0.025166,1.8143509999999998,0.142876,0.360319,-0.10585699999999999,-0.5124
774,-2.651789,-1.049933,0.203692,-0.23410599999999998,0.86739,0.439111,0.109729,1.215166,0.194441,0.384024,-0.407154,-0.38952
775,-2.632961,-1.0502340000000001,0.192762,-0.242204,0.86754,0.43439700000000003,0.016816,1.686273,0.211348,0.06776599999999999,0.364867,-0.527812
776,-2.591744,-1.061907,0.199195,-0.254589,0.873286,0.415386,0.982856,1.599659,0.25452600000000003,-0.07281900000000001,0.610646,-0.454296
777,-2.5487509999999998,-1.0963370000000001,0.21775500000000003,-0.255249,0.88954,0.378889,2.0218439999999998,1.212151,0.622271,-0.31254499999999996,0.550188,-0.305952
778,-2.495631,-1.137541,0.258946,-0.252715,0.9076040000000001,0.33523200000000003,2.2673240000000003,0.538925,0.402658,0.092895,-0.444759,-0.23057199999999997
779,-2.4328220000000003,-1.177022,0.319533,-0.24972800000000003,0.923467,0.29126399999999997,2.2972580000000002,0.370176,0.219349,0.182589,-0.58103,-0.19931400000000002
780,-2.3537220000000003,-1.2132370000000001,0.394771,-0.24808200000000002,0.9367540000000001,0.246858,2.2371369999999997,0.572593,0.267808,0.328312,-0.538393,-0.126283
781,-2.26031,-1.247568,0.47643599999999997,-0.245058,0.9482149999999999,0.20205499999999998,2.1042080000000003,1.007282,0.368872,0.31782699999999997,-0.33519299999999996,-0.032194
782,-2.143406,-1.2759260000000001,0.569292,-0.244247,0.9568399999999999,0.15745499999999998,1.8921580000000002,1.66999,0.25971900000000003,0.237884,-0.350806,-0.150756
783,-2.009229,-1.296371,0.669029,-0.24534899999999998,0.9625809999999999,0.11503599999999999,1.618658,2.0077849999999997,0.205033,0.22436799999999998,-0.34536300000000003,-0.155869
784,-1.874797,-1.311733,0.767461,-0.24441500000000002,0.9666299999999999,0.076679,1.415225,1.925087,0.282767,0.206634,-0.332689,-0.094364
785,-1.742719,-1.326259,0.8662190000000001,-0.238523,0.97025,0.041416,1.3707,1.7485259999999998,0.518759,0.178007,-0.327839,-0.105778
786,-1.5896430000000001,-1.344351,0.9903049999999999,-0.22446,0.9744709999999999,0.004231,1.6355110000000002,1.487124,0.9236629999999999,0.145603,-0.323882,-0.11089
787,-1.394034,-1.3658540000000001,1.1674,-0.200323,0.979073,-0.035782999999999995,1.863389,0.921926,1.408816,0.106726,-0.280663,-0.031508
788,-1.1644889999999999,-1.386351,1.387073,-0.168455,0.983038,-0.072478,1.581776,0.678071,1.629351,0.10818299999999999,0.154581,0.074644
789,-0.9473719999999999,-1.401465,1.5926209999999998,-0.13680799999999999,0.985698,-0.09837699999999999,0.952521,0.7981050000000001,1.4613639999999999,0.024519,0.411641,0.097737
