,attitude.roll,attitude.pitch,attitude.yaw,gravity.x,gravity.y,gravity.z,rotationRate.x,rotationRate.y,rotationRate.z,userAcceleration.x,userAcceleration.y,userAcceleration.z
0,1.538363,-1.450201,-2.601036,0.120209,0.9927370000000001,-0.0039,-0.523279,0.5775859999999999,0.302536,-0.2379,0.226059,0.07142000000000001
1,1.692384,-1.4469969999999999,-2.450528,0.122544,0.992347,0.014974000000000001,-1.149721,0.01738,0.014731000000000001,-0.347077,0.288598,0.06888899999999999
2,1.9162990000000002,-1.443794,-2.223477,0.119148,0.9919459999999999,0.042886,-1.530515,-0.038620999999999996,-0.30191599999999996,-0.36711900000000003,0.260892,0.06387899999999999
3,2.186196,-1.439085,-1.9536779999999998,0.10721199999999999,0.991339,0.075798,-1.712755,0.247272,-0.77571,-0.038639,0.162912,0.29139
4,2.497521,-1.430819,-1.651011,0.083757,0.9902190000000001,0.111544,-1.724056,0.736386,-1.336164,0.014372,0.20118699999999998,0.35275
5,2.819913,-1.417489,-1.348231,0.048271,0.9882709999999999,0.144847,-1.567,1.517454,-1.7932669999999997,0.058846,0.30733699999999997,0.348882
6,3.1236610000000002,-1.392107,-1.083574,0.003186,0.9840770000000001,0.17768499999999998,-1.609494,2.3024709999999997,-1.999668,0.115878,0.122902,-0.301114
7,-2.9512959999999997,-1.3569639999999998,-0.904782,-0.040135000000000004,0.977225,0.20835399999999998,-1.606584,1.063603,-1.7480959999999999,0.309849,0.00451,-0.226924
8,-2.840977,-1.31803,-0.796585,-0.074046,0.968224,0.23884899999999998,-1.577655,-0.082788,-1.734675,0.059199,0.161597,0.045788999999999996
9,-2.7845150000000003,-1.269487,-0.7292609999999999,-0.103727,0.9549489999999999,0.278036,-2.3235740000000003,-0.45571999999999996,-1.5994700000000002,0.075147,0.223518,0.348734
10,-2.769781,-1.210184,-0.7087829999999999,-0.128186,0.935681,0.328725,-2.74653,-0.212761,-1.252359,0.199719,0.203678,0.20931599999999997
11,-2.770237,-1.148736,-0.702462,-0.148645,0.9122469999999999,0.381706,-2.849606,-0.373199,-1.267828,0.261438,0.273147,-0.25151799999999996
12,-2.774428,-1.0834190000000001,-0.6899689999999999,-0.168105,0.8835639999999999,0.437087,-2.9821869999999997,-0.9384,-1.534017,0.193694,0.202572,-0.115401
13,-2.7738549999999997,-1.015729,-0.66989,-0.18945599999999999,0.849865,0.49175699999999994,-3.005562,-0.69442,-1.7876619999999999,0.12228599999999999,0.254352,0.017169
14,-2.7767939999999998,-0.9458139999999999,-0.654165,-0.208731,0.810974,0.546573,-3.110378,-0.9529549999999999,-1.512461,0.182059,-0.164627,-0.13068
15,-2.8007310000000003,-0.88256,-0.653084,-0.21233600000000002,0.772368,0.5986239999999999,-2.856967,-1.410085,-0.9022870000000001,0.214457,-0.5791149999999999,-0.28125700000000003
16,-2.838438,-0.8283590000000001,-0.663058,-0.20183099999999998,0.736823,0.6452479999999999,-2.528039,-1.483819,-0.33160100000000003,0.199573,-0.620169,-0.305023
17,-2.875813,-0.787054,-0.6786,-0.18542,0.708276,0.681141,-1.864671,-1.147874,0.062503,0.12942,-0.345895,-0.197956
18,-2.905119,-0.76069,-0.6934939999999999,-0.16969800000000002,0.689421,0.704194,-1.106576,-0.8146899999999999,0.266061,0.12276199999999998,-0.183028,-0.143403
19,-2.9274009999999997,-0.752024,-0.7063050000000001,-0.15523,0.6831189999999999,0.7136100000000001,-0.162024,-0.588476,0.41871499999999995,0.098208,-0.351057,-0.140033
20,-2.948387,-0.761336,-0.7184020000000001,-0.138994,0.6898890000000001,0.710437,0.636862,-0.695311,0.601757,-0.013548,-0.40014,-0.133975
21,-2.9765200000000003,-0.783166,-0.73444,-0.116452,0.705527,0.699041,1.173542,-0.948383,0.8194739999999999,-0.28789000000000003,-0.386801,-0.032979
22,-3.002741,-0.816813,-0.7501909999999999,-0.09474400000000001,0.7289680000000001,0.67795,1.815023,-0.494346,0.738984,-0.51547,-0.34055599999999997,-0.00725
23,-3.003858,-0.8591840000000001,-0.758062,-0.08966299999999999,0.75731,0.6468619999999999,2.199967,0.603743,0.458255,-0.24866999999999997,-0.5151680000000001,-0.384304
24,-2.993627,-0.913675,-0.759717,-0.090052,0.791754,0.604156,3.010293,0.501801,0.47366,0.17985,-0.684882,-0.46023500000000006
25,-2.983443,-0.975102,-0.7625649999999999,-0.088364,0.827759,0.554072,2.8018400000000003,0.735471,0.560566,0.465012,-0.294159,0.268453
26,-2.964248,-1.0106760000000001,-0.766387,-0.093726,0.847191,0.522946,1.1894719999999999,1.499937,0.194743,-0.133126,1.509758,0.762882
27,-2.914941,-1.045833,-0.723687,-0.112621,0.8653420000000001,0.488353,2.708848,-0.363887,-1.222605,-0.329273,1.459853,-0.7350720000000001
28,-2.867769,-1.087492,-0.645367,-0.125661,0.8854639999999999,0.447384,1.96035,-1.131902,-1.384946,0.29543,0.26863400000000004,0.077762
29,-2.820721,-1.110874,-0.570009,-0.139993,0.8960870000000001,0.421212,1.7760220000000002,-0.859427,-1.1665290000000001,0.43152700000000005,-0.829543,0.256888
30,-2.757689,-1.145738,-0.49988,-0.154447,0.9110149999999999,0.382346,2.202066,0.528998,-0.563923,0.563001,-0.761524,-0.175269
31,-2.685379,-1.180382,-0.44523100000000004,-0.167655,0.924752,0.341636,1.9322240000000002,1.213185,-0.134055,0.669944,-0.02134,0.039238
32,-2.617355,-1.214269,-0.401052,-0.174697,0.9371139999999999,0.302138,1.842516,1.483973,0.157664,0.492339,0.632069,0.081071
33,-2.543126,-1.245235,-0.358187,-0.18018199999999998,0.947471,0.264239,1.570639,1.719559,0.353084,0.355704,0.296379,0.05930800000000001
34,-2.483766,-1.2770219999999999,-0.337873,-0.177031,0.957158,0.22912800000000003,1.469985,2.1673240000000003,0.88485,0.349242,0.026317,0.138624
35,-2.4328060000000002,-1.31542,-0.333892,-0.164415,0.967568,0.191755,1.531072,2.426351,1.322916,0.316683,-0.142556,-0.004729
36,-2.391445,-1.359705,-0.340258,-0.14283099999999999,0.9778030000000001,0.153273,1.655255,2.320416,1.599521,0.203484,0.060634,-0.122984
37,-2.327887,-1.40551,-0.32366100000000003,-0.119571,0.9863709999999999,0.11298599999999999,1.784544,2.407034,1.404828,0.012287000000000001,0.123675,-0.14071199999999998
38,-2.197023,-1.447281,-0.2377,-0.09979600000000001,0.992382,0.072188,1.809092,2.0971439999999997,1.0913389999999998,-0.220883,0.011723,-0.21555900000000003
39,-1.969566,-1.480936,-0.045523,-0.08265800000000001,0.995965,0.034828,1.632616,1.604108,0.931573,-0.23753200000000002,-0.157495,-0.126808
40,-1.607401,-1.50621,0.291935,-0.064438,0.997915,0.00236,1.500412,1.166671,0.9483020000000001,-0.18060299999999999,-0.231436,0.064397
41,-1.0062200000000001,-1.515929,0.870131,-0.046272,0.998495,-0.029306,1.517244,1.244805,0.8414969999999999,-0.070763,-0.270025,0.086618
42,-0.466355,-1.504109,1.383277,-0.029937000000000002,0.997777,-0.05947,1.4162489999999999,1.436348,0.714496,0.032882,-0.313695,0.114646
43,-0.163995,-1.483429,1.659516,-0.014238999999999998,0.996186,-0.086043,1.2556969999999998,1.277293,0.6697810000000001,0.105288,-0.25142,0.09240599999999999
44,0.01952,-1.4612040000000002,1.8153810000000001,0.002134,0.994001,-0.109319,1.119853,1.483179,0.7155699999999999,0.016451,-0.134,0.075307
45,0.153291,-1.4420549999999999,1.925361,0.019599000000000002,0.9917239999999999,-0.126853,0.761165,1.19575,0.7112970000000001,-0.045921,0.122228,0.16580799999999998
46,0.24993400000000002,-1.426144,1.99452,0.035647000000000005,0.989556,-0.139645,0.6683520000000001,1.532198,0.57028,-0.128497,0.138984,0.196697
47,0.325067,-1.410405,2.038432,0.050997,0.987165,-0.151318,0.636763,1.560266,0.504862,-0.172534,0.04938,0.178753
48,0.378725,-1.396204,2.062697,0.064218,0.9847969999999999,-0.161378,0.580014,1.3979469999999998,0.387169,-0.22393200000000002,-0.098964,0.08810499999999999
49,0.41593,-1.382617,2.074779,0.07557699999999999,0.9823459999999999,-0.171104,0.573682,1.141378,0.35220300000000004,-0.238846,-0.110276,0.055549
50,0.44161300000000003,-1.369269,2.082558,0.085543,0.9797620000000001,-0.180947,0.598839,0.807844,0.35601,-0.237414,-0.084147,0.078179
51,0.460413,-1.3542969999999999,2.08779,0.095437,0.9766549999999999,-0.192428,0.6513329999999999,0.646692,0.384357,-0.13215,0.014693000000000001,0.24961799999999998
52,0.484533,-1.3408149999999999,2.09728,0.106175,0.973671,-0.201705,0.494015,0.795239,0.402296,-0.1507,0.03701,0.167999
53,0.510973,-1.329693,2.107373,0.11675999999999999,0.971075,-0.208263,0.410308,0.871376,0.349271,-0.11482200000000001,0.0599,0.132945
54,0.533736,-1.320542,2.112371,0.12598499999999999,0.96885,-0.21319200000000002,0.34605,0.934931,0.22909899999999997,-0.10688099999999999,0.046348,0.115658
55,0.55184,-1.313513,2.110919,0.133391,0.9670850000000001,-0.216671,0.301817,0.983344,0.148612,-0.16487000000000002,0.060946,0.13686800000000002
56,0.568955,-1.3069030000000001,2.1092009999999997,0.140521,0.965382,-0.21973800000000002,0.272963,0.982341,0.158026,-0.254886,0.188412,0.223125
57,0.593537,-1.305425,2.112389,0.146678,0.964995,-0.2174,0.055514999999999995,1.050115,0.180989,-0.43137600000000004,0.29670799999999997,0.120827
58,0.6243029999999999,-1.304141,2.126268,0.15402000000000002,0.964658,-0.21379099999999998,-0.096221,0.7545189999999999,0.174967,-0.39355300000000004,0.326175,0.060974
59,0.644389,-1.305835,2.134805,0.157301,0.965103,-0.20934699999999998,-0.150473,0.54371,-0.07297000000000001,-0.179564,0.399506,0.200131
60,0.649447,-1.312949,2.127847,0.154202,0.9669409999999999,-0.203075,-0.305542,0.59675,-0.414883,-0.088116,0.476418,0.260006
61,0.651976,-1.3302399999999999,2.117757,0.144546,0.9712059999999999,-0.189364,-0.81603,0.640285,-0.7357670000000001,-0.065491,0.43509,0.280672
62,0.672338,-1.360052,2.118872,0.130274,0.977875,-0.16364700000000001,-1.431841,1.280519,-1.001535,0.10756500000000001,0.34039200000000003,0.465283
63,0.7469210000000001,-1.403203,2.155015,0.11331199999999998,0.9859889999999999,-0.122385,-2.108962,2.3510720000000003,-1.200985,0.222152,0.181614,0.48128699999999996
64,0.959183,-1.452697,2.310532,0.096439,0.993034,-0.067635,-2.630733,3.208731,-1.043359,0.317471,0.093925,0.411797
65,1.476446,-1.488436,2.756743,0.081852,0.99661,-0.007745999999999999,-2.640695,3.872415,-0.77295,0.604686,-0.156843,0.132303
66,2.147893,-1.486409,-2.9262029999999997,0.070595,0.996441,0.045959,-2.222718,3.374631,-0.26198699999999997,0.551842,0.076709,-0.075515
67,2.505636,-1.4586299999999999,-2.622025,0.066457,0.9937159999999999,0.090017,-2.0219240000000003,2.468578,-0.02762,0.39695199999999997,0.34802,0.028849
68,2.772982,-1.427316,-2.395857,0.051509000000000006,0.9897239999999999,0.133352,-2.027853,1.962812,-0.8805219999999999,-0.029262,0.49030200000000007,0.3193
69,2.976563,-1.395993,-2.2212490000000003,0.028566,0.9847610000000001,0.171523,-1.750068,1.3673030000000002,-0.850045,-0.159899,0.283351,-0.056945
70,3.1014470000000003,-1.3637350000000001,-2.122621,0.00825,0.9786389999999999,0.205394,-1.660943,1.5988040000000001,-0.745033,-0.090526,-0.023149,-0.172405
71,-3.087609,-1.333472,-2.0555380000000003,-0.012684,0.9719709999999999,0.234738,-1.426209,1.1091010000000001,-0.763063,-0.02882,-0.14746199999999998,-0.170087
72,-3.024848,-1.30483,-2.0026490000000003,-0.030612999999999998,0.9648389999999999,0.261033,-1.3530959999999999,0.271594,-0.7764340000000001,-0.005016,-0.183375,-0.115998
73,-2.987108,-1.275307,-1.9588009999999998,-0.044806,0.9566600000000001,0.287722,-1.399097,-0.505746,-0.8142149999999999,0.13584000000000002,-0.24343299999999998,-0.076709
74,-2.975735,-1.24505,-1.929817,-0.052830999999999996,0.947412,0.315607,-1.429937,-0.963577,-0.580971,0.20644099999999999,-0.2922,-0.124552
75,-2.9895150000000004,-1.216089,-1.9171060000000002,-0.052613,0.9377479999999999,0.343291,-1.321042,-1.415551,-0.335009,0.277161,-0.502781,-0.038375
76,-3.021738,-1.194242,-1.920873,-0.043966000000000005,0.9299370000000001,0.36506500000000003,-0.931541,-1.460109,0.080103,0.268514,-0.49496999999999997,-0.060149
77,-3.06723,-1.18423,-1.943757,-0.028009,0.9262090000000001,0.375954,-0.28930900000000004,-1.014627,0.539081,0.032402999999999994,-0.641526,0.09304
78,-3.117469,-1.187448,-1.984566,-0.009022,0.9274180000000001,0.37390500000000004,0.342448,-0.403528,0.8824049999999999,-0.181347,-0.446354,0.011136
79,3.117265,-1.1978010000000001,-2.0314259999999997,0.008864,0.93124,0.36428499999999997,0.566525,-0.225079,0.817512,-0.24655,-0.396129,-0.033763999999999995
80,3.070808,-1.208474,-2.071271,0.025067,0.935076,0.353544,0.583866,-0.624787,0.5938180000000001,-0.271237,-0.324465,-0.018872999999999997
81,3.025763,-1.221011,-2.100568,0.039604,0.9394459999999999,0.340384,0.71527,-1.0101209999999998,0.40615500000000004,-0.280418,-0.19642,0.206796
82,2.977504,-1.233307,-2.130809,0.054087,0.9435889999999999,0.32665500000000003,0.620703,-0.9022870000000001,0.42778900000000003,-0.313837,-0.122331,0.324788
83,2.940413,-1.239929,-2.155598,0.064913,0.9457610000000001,0.318296,0.249204,-0.6425270000000001,0.259286,-0.220766,0.141764,0.323229
84,2.913736,-1.241012,-2.1641529999999998,0.073148,0.9461120000000001,0.31545300000000004,0.006943,-1.109549,0.044548000000000004,-0.058865999999999995,0.102655,0.466591
85,2.898399,-1.239484,-2.158142,0.07832599999999999,0.945616,0.315696,-0.14917,-0.897333,-0.14268499999999998,-0.034579,0.011659000000000001,0.565346
86,2.906606,-1.2364680000000001,-2.1430689999999997,0.076396,0.944631,0.3191,-0.24259,0.056813,-0.24283600000000002,0.316716,0.138896,0.46317200000000003
87,2.9371810000000003,-1.232551,-2.115724,0.067356,0.9433379999999999,0.324908,-0.30511,0.160219,-0.47307299999999997,0.449658,0.192557,0.395521
88,2.96705,-1.230059,-2.083445,0.05803099999999999,0.942508,0.329088,-0.133305,-0.08320599999999999,-0.486516,0.26657,0.031399,0.367796
89,2.98164,-1.231217,-2.065007,0.053049,0.942895,0.328823,0.05400599999999999,-0.142515,-0.203121,0.076086,0.126914,0.46184200000000003
90,2.979206,-1.231216,-2.066544,0.05385,0.942894,0.328694,-0.034369,0.009781999999999999,0.148579,-0.043459,0.188591,0.37659699999999996
91,2.974929,-1.230801,-2.077627,0.05532,0.9427559999999999,0.328847,0.066347,0.56238,0.131483,-0.185279,0.395012,-0.23911
92,2.999378,-1.2405540000000002,-2.068543,0.045959,0.9459639999999999,0.320983,0.73828,0.643354,-0.453586,0.071198,0.216588,-0.651596
93,3.021432,-1.2630350000000001,-2.050825,0.03631,0.9530139999999999,0.300727,1.15319,0.36405,-0.230276,0.200399,-0.405132,-0.308127
94,3.0122619999999998,-1.281319,-2.082243,0.036813,0.958393,0.283051,0.773833,1.406618,0.7143189999999999,0.55535,-0.611866,-0.016373
95,2.96162,-1.288764,-2.163418,0.049815,0.960492,0.27379699999999996,0.5552010000000001,1.1467690000000001,1.150028,0.45338900000000004,-0.24319200000000002,0.149253
96,2.9014759999999997,-1.3077290000000001,-2.248232,0.061838,0.9655969999999999,0.252566,1.6187040000000001,1.1458760000000001,0.7184189999999999,-0.117014,0.375879,-0.253756
97,2.845482,-1.341226,-2.329859,0.066397,0.973764,0.217638,1.7454470000000002,1.129218,0.5120899999999999,-0.23337399999999997,0.42848800000000004,-0.576647
98,2.78614,-1.362188,-2.412676,0.07206699999999999,0.9783200000000001,0.194135,1.05466,1.026122,0.5191479999999999,-0.059951,-0.088504,-0.079618
99,2.708395,-1.3737979999999999,-2.504049,0.082153,0.980658,0.17762999999999998,0.8380639999999999,0.281409,0.72796,-0.003662,-0.24234699999999998,0.06616
100,2.5694630000000003,-1.3818219999999999,-2.644473,0.10169700000000001,0.982197,0.15792,1.139481,-0.170694,1.105591,0.014377000000000001,-0.093724,-0.06262899999999999
101,2.384766,-1.388004,-2.82852,0.124798,0.98334,0.132141,1.33679,-0.15976400000000002,1.131524,0.045307,0.036877999999999994,-0.13551300000000002
102,2.194703,-1.390167,-3.016746,0.145787,0.9837309999999999,0.104941,1.3040530000000001,-0.258024,0.9573010000000001,0.004756,-0.025586,-0.076529
103,2.032241,-1.386831,3.104507,0.16378,0.983126,0.08144,1.111987,-0.098339,0.884184,-0.041176,-0.09515599999999999,0.007320999999999999
104,1.893046,-1.378832,2.963679,0.180951,0.9816309999999999,0.060417,1.0367620000000002,-0.007423999999999999,0.8579049999999999,-0.039425999999999996,-0.106341,0.054909000000000006
105,1.772419,-1.367481,2.8420240000000003,0.197811,0.979403,0.040432,1.0142280000000001,-0.05945,0.834313,-0.082454,-0.095873,0.12665099999999999
106,1.6648759999999998,-1.354927,2.729721,0.213234,0.976791,0.02012,1.07344,0.23566900000000002,0.77346,-0.14482899999999999,-0.061827999999999994,0.026434
107,1.578583,-1.34186,2.635272,0.226921,0.973908,0.0017670000000000001,0.9441700000000001,0.302695,0.64108,-0.114678,0.005263,0.0023829999999999997
108,1.5094809999999999,-1.3294270000000001,2.555919,0.23856999999999998,0.9710120000000001,-0.014646000000000001,0.9674649999999999,0.458316,0.598314,-0.100219,0.0052759999999999994,0.060545
109,1.446616,-1.315955,2.480901,0.250138,0.9677030000000001,-0.031223,0.9869950000000001,0.52432,0.591957,-0.09840499999999999,-0.155371,-0.07410800000000001
110,1.394152,-1.301296,2.4188549999999998,0.262096,0.9639040000000001,-0.046785,0.887453,0.25075,0.6268630000000001,-0.065593,-0.13756400000000002,0.17563
111,1.342306,-1.284985,2.361766,0.274598,0.959433,-0.063858,0.9891479999999999,0.10332999999999999,0.641649,-0.09352200000000001,0.030983999999999998,0.060028
112,1.288435,-1.267876,2.3028880000000003,0.286487,0.954469,-0.083113,1.022916,0.215238,0.599013,-0.116748,0.138579,0.195082
113,1.2543819999999999,-1.251295,2.257574,0.298493,0.949392,-0.097731,0.843117,0.541932,0.574906,-0.070786,0.060434,0.171797
114,1.237076,-1.235594,2.227687,0.31080399999999997,0.9443440000000001,-0.107752,0.580472,0.533125,0.607266,-0.173993,0.147346,0.048043999999999996
115,1.235658,-1.220907,2.217689,0.32371500000000003,0.9394110000000001,-0.11274200000000001,0.323294,0.311265,0.634595,-0.31796199999999997,0.203198,0.100611
116,1.241629,-1.208825,2.218197,0.3351,0.9352,-0.114468,0.087805,0.281575,0.537917,-0.493791,0.204601,0.124707
117,1.258222,-1.201158,2.232168,0.343765,0.932458,-0.11109400000000001,-0.232402,0.060812,0.34581999999999996,-0.599853,0.5801,0.029657999999999997
118,1.278757,-1.201444,2.255265,0.345719,0.9325610000000001,-0.10393499999999999,-0.532145,-0.085688,-0.053465,-0.5524600000000001,0.6244149999999999,0.015999
119,1.313483,-1.2133610000000001,2.29352,0.33834699999999995,0.9367969999999999,-0.089035,-1.003951,0.040607,-0.591033,-0.458342,0.5345770000000001,0.080902
120,1.3810200000000001,-1.235947,2.362764,0.322719,0.9444600000000001,-0.061991,-1.6433849999999999,0.069867,-0.959801,-0.030254000000000003,0.49250600000000005,0.37153
121,1.498752,-1.2609860000000002,2.4871,0.304078,0.952392,-0.021945,-2.398949,0.045781,-0.9415469999999999,0.075195,0.33960100000000004,0.28824099999999997
122,1.6800240000000002,-1.278708,2.667136,0.28622600000000004,0.9576450000000001,0.031389,-2.702114,0.6999350000000001,-0.963731,0.14690999999999999,0.222455,0.123198
123,1.8809099999999999,-1.287325,2.860473,0.266338,0.96009,0.085349,-2.488521,0.72591,-0.9847049999999999,0.20593699999999998,0.146919,-0.158545
124,2.064724,-1.288446,3.037224,0.245302,0.9604030000000001,0.132081,-2.088882,0.777068,-1.070641,0.226973,0.146607,-0.20527800000000002
125,2.241014,-1.2865280000000001,-3.080133,0.219779,0.959867,0.174198,-1.983011,0.8468389999999999,-1.294318,-0.136237,0.461916,0.041698
126,2.4207970000000003,-1.279569,-2.906671,0.18949100000000002,0.957892,0.21570300000000003,-1.9845810000000002,0.477166,-1.553433,-0.024329,0.402017,-0.06804400000000001
127,2.581021,-1.270385,-2.744466,0.15732000000000002,0.9552149999999999,0.25061100000000003,-1.658018,0.23431799999999997,-1.578614,0.007840999999999999,0.404694,-0.102952
128,2.716998,-1.257875,-2.607037,0.126809,0.9514379999999999,0.280492,-1.463945,0.249469,-1.539891,0.063178,0.049355,-0.24464899999999998
129,2.8356529999999998,-1.243514,-2.480486,0.09682,0.9469190000000001,0.30653,-1.338198,-0.37050700000000003,-1.652518,0.08930700000000001,-0.113667,-0.334088
130,2.9323669999999997,-1.2279959999999999,-2.358189,0.069811,0.941817,0.328782,-1.199465,-1.217308,-1.7957419999999997,0.10549700000000001,-0.13833499999999999,-0.36743200000000004
131,3.007921,-1.212525,-2.244855,0.046731,0.9365040000000001,0.347514,-1.0228059999999999,-1.743297,-1.746832,0.114417,-0.176373,-0.365992
132,3.0597220000000003,-1.198174,-2.1452299999999997,0.029771,0.931376,0.362825,-0.7959229999999999,-2.197241,-1.643184,0.142928,-0.294215,-0.27705599999999997
133,3.0919689999999997,-1.188699,-2.05788,0.018494999999999998,0.9278850000000001,0.372395,-0.464292,-2.6015080000000004,-1.532459,0.177947,-0.29389699999999996,-0.270359
134,3.104917,-1.183229,-1.983681,0.013858,0.925831,0.37767,-0.260698,-2.85574,-1.268997,0.168225,-0.371449,-0.252304
135,3.094916,-1.17934,-1.930496,0.017802000000000002,0.9243540000000001,0.381105,-0.24625,-2.986511,-0.813666,0.21286599999999997,-0.525001,-0.29596100000000003
136,3.062018,-1.174223,-1.9050150000000001,0.030702999999999998,0.9223899999999999,0.385024,-0.284573,-2.663648,-0.269554,0.126127,-0.5438649999999999,-0.25443899999999997
137,3.015636,-1.170856,-1.905252,0.048911,0.921084,0.386264,-0.06642,-2.097377,0.187375,0.08884500000000001,-0.434146,-0.18799100000000002
138,2.9575970000000003,-1.171964,-1.9256849999999999,0.071048,0.921515,0.381774,0.202844,-1.958848,0.475362,0.121045,-0.138678,-0.131072
139,2.886127,-1.173804,-1.9574759999999998,0.0977,0.922228,0.374083,0.21388200000000002,-2.198125,0.6295689999999999,0.094362,0.05293,0.095186
140,2.810866,-1.174526,-1.992256,0.125335,0.922507,0.36504899999999996,0.243081,-2.1193619999999997,0.6211260000000001,-0.061339,0.014764,0.42712700000000003
141,2.73561,-1.174151,-2.025861,0.15256199999999998,0.9223620000000001,0.35490900000000003,0.174111,-2.289498,0.6037710000000001,-0.12436400000000002,0.104951,0.47433000000000003
142,2.673247,-1.169466,-2.048827,0.176333,0.920542,0.348563,-0.192113,-1.837878,0.403013,-0.172336,0.241659,0.41092799999999996
143,2.651418,-1.161993,-2.040623,0.187133,0.9175969999999999,0.350691,-0.450379,-1.33362,-0.26707600000000004,-0.23390100000000003,0.618154,0.046495
144,2.663585,-1.1631209999999998,-1.9944509999999998,0.182376,0.9180450000000001,0.352022,-0.323131,-1.656567,-1.133169,-0.23755199999999999,0.181427,0.116468
145,2.695682,-1.170441,-1.924323,0.16808299999999998,0.9209229999999999,0.351621,-0.30380799999999997,-1.490168,-1.469737,-0.24376599999999998,-0.256021,0.34370700000000004
146,2.737277,-1.175738,-1.8572810000000002,0.151394,0.922974,0.35381599999999996,-0.218881,-0.767455,-1.125034,-0.080685,-0.131043,0.029286000000000003
147,2.757003,-1.182542,-1.8159470000000002,0.14202599999999999,0.925572,0.350904,0.160795,-1.1271870000000002,-0.73843,-0.020048,0.023739,-0.47085299999999997
148,2.742507,-1.19659,-1.794966,0.142031,0.9307979999999999,0.336794,0.68028,-2.159822,-0.560426,0.039258999999999995,-0.034237000000000004,-0.46686000000000005
149,2.699913,-1.209668,-1.7883380000000002,0.151027,0.935499,0.319407,0.34276799999999996,-2.414469,-0.256946,-0.008128,0.366991,-0.320536
150,2.673054,-1.210917,-1.774607,0.159023,0.935939,0.314195,-0.24011100000000002,-1.763757,-0.24155500000000002,0.12833,0.19951300000000002,-0.434465
151,2.64089,-1.2070459999999998,-1.768605,0.170783,0.9345690000000001,0.31209499999999996,-0.066262,-2.05798,0.191598,0.337121,-0.237044,-0.376197
152,2.575135,-1.20544,-1.790355,0.191726,0.933997,0.301465,0.14318499999999998,-2.322367,0.32799,0.24409499999999998,-0.014547999999999998,-0.23872100000000002
153,2.521891,-1.2067620000000001,-1.800042,0.206781,0.9344680000000001,0.289829,0.202044,-2.086025,0.048224,-0.059168,-0.007084,-0.27113699999999996
154,2.467858,-1.210392,-1.817555,0.220014,0.9357540000000001,0.275586,0.427001,-1.740107,0.19356199999999998,-0.095899,0.044104000000000004,-0.17091099999999998
155,2.407925,-1.2178930000000001,-1.8522060000000002,0.231419,0.9383729999999999,0.25669200000000003,0.787499,-1.267407,0.21790700000000002,-0.03159,0.239529,-0.153482
156,2.340564,-1.22689,-1.8963139999999998,0.242101,0.9414450000000001,0.234648,0.874291,-1.3765479999999999,0.263519,-0.028310000000000002,0.245842,-0.23242
157,2.2558279999999997,-1.234134,-1.9499380000000002,0.255803,0.9438629999999999,0.208995,0.9768690000000001,-1.747898,0.333077,0.081874,0.027252999999999996,-0.144374
158,2.159398,-1.241719,-2.021141,0.268775,0.946341,0.17941600000000002,1.220317,-1.344434,0.457106,0.180032,-0.094717,-0.15044000000000002
159,2.056429,-1.244686,-2.0998,0.28330900000000003,0.9472950000000001,0.149528,1.126359,-1.513824,0.5410560000000001,0.21347199999999997,-0.11392200000000001,0.000375
160,1.9540380000000002,-1.243899,-2.177167,0.29780100000000004,0.9470430000000001,0.120066,1.1012959999999998,-1.3562239999999999,0.578067,0.039663,-0.178427,0.082937
161,1.858455,-1.238969,-2.2544,0.312374,0.945449,0.09242,1.099687,-0.9601049999999999,0.6202770000000001,-0.083752,-0.085006,0.037249000000000004
162,1.7715830000000001,-1.23494,-2.33029,0.322945,0.9441280000000001,0.065729,1.1957659999999999,-0.673072,0.418687,-0.157113,-0.088568,0.00762
163,1.68793,-1.232315,-2.407079,0.329768,0.94326,0.038805,1.2463469999999999,-0.478803,0.27778600000000003,-0.169093,-0.067604,0.013578999999999999
164,1.611141,-1.229106,-2.480587,0.33479699999999996,0.94219,0.013515000000000001,1.17031,-0.325059,0.257829,-0.121387,-0.025213,-0.047755
165,1.543165,-1.224687,-2.545775,0.33910100000000004,0.9407,-0.009372,1.0819370000000001,-0.309738,0.232623,-0.052067999999999996,-0.0008039999999999999,0.074222
166,1.477455,-1.217667,-2.610944,0.344321,0.9382950000000001,-0.032233,1.159092,-0.14737,0.320549,-0.015875999999999998,0.004164,0.21181399999999997
167,1.421263,-1.207641,-2.672189,0.35125300000000004,0.934781,-0.05291900000000001,1.105866,0.17535599999999998,0.37958400000000003,-0.07837999999999999,-0.009656,0.169206
168,1.374911,-1.1962700000000002,-2.728534,0.35882800000000004,0.930681,-0.071202,1.109968,0.386225,0.390024,-0.104022,0.06918200000000001,0.05449400000000001
169,1.331444,-1.183691,-2.7854669999999997,0.36674,0.926006,-0.089495,1.19792,0.476522,0.376636,-0.157969,0.114659,0.050723000000000004
170,1.29131,-1.1714879999999999,-2.838869,0.373688,0.92133,-0.107248,1.080843,0.44641000000000003,0.282922,-0.22799699999999998,0.158275,0.064859
171,1.253757,-1.16226,-2.8858189999999997,0.377461,0.917703,-0.123847,1.01728,0.126718,0.09915299999999999,-0.380131,0.37316,0.099006
172,1.20831,-1.154808,-2.932415,0.37782899999999997,0.914717,-0.14329,0.9402290000000001,-0.237039,0.024305,-0.410116,0.363847,0.15648800000000002
173,1.1750559999999999,-1.149993,-2.963259,0.376916,0.912761,-0.157468,0.507212,-0.269362,-0.041703,-0.430749,0.354405,0.186597
174,1.1567399999999999,-1.148873,-2.9762150000000003,0.374904,0.9123030000000001,-0.16475599999999999,0.10023,-0.350091,-0.013463999999999999,-0.293056,0.513509,0.28668899999999997
175,1.1582219999999999,-1.153053,-2.9671529999999997,0.371652,0.914007,-0.16267,-0.416067,-0.280434,-0.201962,-0.285821,0.5899449999999999,0.325207
176,1.179748,-1.1651799999999999,-2.94233,0.364791,0.91886,-0.150397,-0.936026,0.095237,-0.457107,-0.315368,0.511347,0.354925
177,1.240534,-1.187742,-2.885278,0.35355,0.927527,-0.12120299999999999,-1.693113,0.5594359999999999,-0.800549,-0.141132,0.282632,0.348498
178,1.347379,-1.2182629999999999,-2.7873330000000003,0.336688,0.938501,-0.076499,-2.374187,0.9101889999999999,-1.078152,-0.12865,0.216773,0.305213
179,1.5124,-1.249141,-2.633807,0.31559,0.9487129999999999,-0.01845,-2.8694290000000002,0.9667879999999999,-1.21628,-0.10393499999999999,0.155306,0.179247
180,1.708005,-1.273428,-2.441179,0.29024099999999997,0.956111,0.040075,-2.826418,0.40376300000000004,-1.379764,0.013316999999999999,0.180898,-0.45709799999999995
181,1.8972189999999998,-1.290227,-2.2538259999999997,0.262271,0.9608979999999999,0.088788,-2.0776830000000004,0.722232,-1.483901,0.031856999999999996,0.225976,-0.427472
182,2.094435,-1.3022770000000001,-2.071285,0.229746,0.9641649999999999,0.132656,-2.072927,1.170177,-1.620106,0.014822,0.338402,-0.205379
183,2.299732,-1.305608,-1.874308,0.195482,0.965043,0.174566,-1.898412,0.522171,-1.691764,0.12654,0.613769,-0.044652
184,2.489569,-1.3036590000000001,-1.6832580000000001,0.16017,0.9645309999999999,0.20981100000000003,-1.7425080000000002,0.162181,-1.8451060000000001,0.210878,0.325814,-0.056521
185,2.666873,-1.29488,-1.504895,0.124519,0.962176,0.242294,-1.548085,0.31557399999999997,-1.745668,0.273018,0.038465,-0.11303699999999998
186,2.816305,-1.282683,-1.352749,0.090804,0.958782,0.269233,-1.304303,-0.009247,-1.7125700000000001,0.27269099999999996,-0.069759,-0.21155500000000002
187,2.943325,-1.268729,-1.2102700000000002,0.058596,0.954723,0.29165599999999997,-1.18461,-0.8218850000000001,-1.858107,0.187391,-0.09721,-0.338669
188,3.041602,-1.247615,-1.076335,0.031702,0.9482299999999999,0.31598899999999996,-1.48222,-1.794371,-1.894191,0.104315,-0.280978,-0.319758
189,3.106916,-1.218124,-0.964922,0.011975,0.9384530000000001,0.34519,-1.596983,-2.12851,-1.617895,0.180972,-0.447715,-0.242804
190,3.135284,-1.189203,-0.8869459999999999,0.002349,0.9280719999999999,0.37238499999999997,-1.389414,-2.3267830000000003,-1.2327,0.143464,-0.46080200000000004,-0.30440700000000004
191,3.139307,-1.16457,-0.8306389999999999,0.0009029999999999999,0.9186190000000001,0.395136,-1.1217629999999998,-2.364862,-1.000045,0.120724,-0.46083999999999997,-0.28776
192,3.130032,-1.146496,-0.789618,0.004759,0.911327,0.41164799999999996,-0.766323,-2.2554950000000002,-0.68685,0.144304,-0.530895,-0.243923
193,3.109336,-1.137092,-0.768771,0.013553,0.907415,0.420009,-0.27971799999999997,-1.8082880000000001,-0.257804,0.145307,-0.584555,-0.20106
194,3.078374,-1.1391639999999998,-0.768428,0.026430000000000002,0.908284,0.41751000000000005,0.328436,-1.4369020000000001,0.11236800000000001,0.009245,-0.541616,-0.07548400000000001
195,3.03475,-1.152074,-0.7854909999999999,0.043358,0.913609,0.40426599999999996,0.879714,-1.447466,0.411062,-0.11328900000000001,-0.38199299999999997,-0.029923
196,2.9703,-1.1720760000000001,-0.8222729999999999,0.066176,0.921559,0.382549,1.1361219999999999,-1.599546,0.657671,-0.218871,-0.089375,0.007801000000000001
197,2.894556,-1.188346,-0.863561,0.09125599999999999,0.927753,0.36185700000000004,0.790077,-2.0696529999999997,0.5052369999999999,-0.196221,0.119305,0.25797
198,2.8331720000000002,-1.1953049999999998,-0.883726,0.111319,0.930328,0.349416,0.23229699999999998,-2.135549,0.152116,-0.060309,0.181321,0.450358
199,2.791698,-1.191838,-0.883627,0.126816,0.9290510000000001,0.347528,-0.412476,-1.9205990000000002,-0.028919,0.212509,0.385998,0.439093
200,2.794924,-1.181155,-0.8496520000000001,0.12905899999999998,0.9250450000000001,0.35725,-0.8923549999999999,-1.119392,-0.707346,0.294494,0.595646,0.326694
201,2.838741,-1.168782,-0.782995,0.116692,0.920275,0.37345700000000004,-0.959456,-0.801083,-1.129102,0.298637,0.204283,0.340654
202,2.8783119999999998,-1.15919,-0.723251,0.104119,0.916479,0.386287,-0.7361850000000001,-0.6784060000000001,-0.8318059999999999,0.385948,0.043207,0.382328
203,2.9040529999999998,-1.143843,-0.687647,0.097441,0.9102319999999999,0.402463,-1.1246639999999999,-0.041743,-0.402706,0.6077140000000001,0.20958000000000002,0.280474
204,2.933471,-1.120959,-0.663084,0.08984199999999999,0.900518,0.425429,-1.08969,0.38964699999999997,-0.155187,0.326861,0.345652,0.163133
205,2.943514,-1.1107360000000002,-0.653341,0.087372,0.896026,0.43531400000000003,-0.058135,-0.148575,-0.185747,-0.343094,0.336793,-0.355694
206,2.945764,-1.130401,-0.653885,0.082947,0.904583,0.418142,1.450065,0.562759,-0.09387100000000001,-0.079331,-0.461239,-1.1669209999999999
207,2.94785,-1.1637170000000001,-0.668204,0.076228,0.9182809999999999,0.388515,1.571023,0.749432,0.005011,0.406026,-0.52964,-0.5970260000000001
208,2.93988,-1.180708,-0.6950890000000001,0.076185,0.924875,0.372554,0.788407,0.9055799999999999,0.5281140000000001,0.44865600000000005,-0.22500100000000003,-0.079326
209,2.90778,-1.207254,-0.749671,0.082384,0.934643,0.345904,1.953327,0.9163889999999999,0.81077,0.0036,0.507404,-0.412189
210,2.8482849999999997,-1.242393,-0.82624,0.093248,0.946559,0.308749,1.886422,0.42481,0.724407,-0.09257699999999999,0.320684,-0.170322
211,2.785186,-1.2697129999999999,-0.8968219999999999,0.103468,0.955016,0.277911,1.5712709999999999,0.183621,0.574032,-0.029294999999999998,0.07220599999999999,-0.16778800000000002
212,2.708225,-1.2926360000000001,-0.983474,0.11530399999999999,0.961562,0.249196,1.494045,0.33843,0.8211219999999999,0.077003,-0.276336,-0.21550500000000003
213,2.602127,-1.307294,-1.095348,0.13379000000000002,0.965484,0.223466,1.246575,-0.135671,1.0486,0.016082,-0.10838199999999999,-0.210419
214,2.478319,-1.316164,-1.213876,0.155083,0.967756,0.198478,1.269852,-0.553852,0.91043,0.017387,-0.029417000000000002,-0.052328999999999994
215,2.3476209999999997,-1.326876,-1.339687,0.17222300000000001,0.970399,0.169295,1.531777,-0.309299,0.798714,0.011981,-0.045883999999999994,0.034135000000000006
216,2.203187,-1.336635,-1.488081,0.187149,0.972709,0.13714,1.710841,0.05363099999999999,0.725793,0.009552,-0.002327,-0.076349
217,2.053963,-1.3439450000000002,-1.641417,0.199156,0.9743790000000001,0.104486,1.636506,0.003271,0.597151,-0.019392,-0.106475,-0.09159199999999999
218,1.913875,-1.3453030000000001,-1.7869689999999998,0.210549,0.974684,0.075209,1.46856,0.143401,0.597935,-0.029137,-0.16628800000000002,-0.031264
219,1.7839330000000002,-1.34038,-1.9215740000000001,0.223206,0.973571,0.048307,1.371665,0.032612999999999996,0.68179,-0.06776499999999999,-0.07090700000000001,0.053835
220,1.666288,-1.330599,-2.0438509999999996,0.236803,0.971291,0.022682,1.291814,0.074416,0.68652,-0.091036,-0.031685000000000005,0.069268
221,1.56608,-1.3186120000000001,-2.151843,0.24950999999999998,0.9683700000000001,-0.0011769999999999999,1.276014,0.294172,0.623102,-0.114577,0.007125,0.077486
222,1.481846,-1.306278,-2.247609,0.26040399999999997,0.965219,-0.023224,1.236605,0.458714,0.535022,-0.177137,-0.062036,0.007416
223,1.406944,-1.292885,-2.334177,0.27066799999999996,0.9616309999999999,-0.044751,1.2428620000000001,0.405513,0.51377,-0.177009,-0.08948400000000001,0.020474000000000003
224,1.3333540000000002,-1.277172,-2.415811,0.281298,0.957201,-0.068076,1.315941,0.103565,0.569146,-0.163851,-0.09305,0.046531
225,1.258415,-1.258263,-2.491661,0.292585,0.951558,-0.09449199999999999,1.342978,-0.240812,0.618915,-0.19428800000000002,-0.009511,0.180628
226,1.197324,-1.23924,-2.55105,0.303071,0.9455370000000001,-0.11876300000000001,1.101524,-0.15232,0.543407,-0.238496,0.046346,0.220798
227,1.160433,-1.22275,-2.591845,0.312741,0.940041,-0.136062,0.861196,0.191814,0.472921,-0.256589,0.022911,0.21980300000000003
228,1.141238,-1.209755,-2.618823,0.321152,0.935529,-0.147115,0.5828,0.377342,0.405578,-0.024429,0.283083,0.083334
229,1.140133,-1.198903,-2.6292470000000003,0.33019499999999996,0.9316409999999999,-0.1517,0.294925,0.40715300000000004,0.39284600000000003,-0.12278199999999999,0.33376999999999996,0.132687
230,1.1444940000000001,-1.1916579999999999,-2.629979,0.336991,0.928984,-0.15304500000000001,0.093722,0.1622,0.286001,-0.253678,0.323534,0.180023
231,1.155124,-1.18832,-2.622779,0.341434,0.927743,-0.150706,-0.169633,0.289414,0.13658399999999998,-0.345981,0.500189,0.21808899999999998
232,1.17802,-1.192934,-2.606211,0.34083600000000003,0.9294549999999999,-0.14121,-0.515378,0.365662,-0.249421,-0.36332800000000004,0.555286,0.229406
233,1.2226780000000002,-1.2096,-2.56775,0.332192,0.935475,-0.12055199999999999,-1.236084,0.499968,-0.7096899999999999,-0.370369,0.45089300000000004,0.20386500000000002
234,1.3027739999999999,-1.238834,-2.491844,0.314258,0.9454049999999999,-0.08630499999999999,-1.955787,0.405144,-1.147225,-0.13364,0.48208500000000004,0.355455
235,1.452086,-1.273311,-2.3479759999999996,0.29104800000000003,0.9560770000000001,-0.034714,-2.790916,0.809105,-1.27749,-0.027375999999999998,0.47957700000000003,0.32818600000000003
236,1.667145,-1.298352,-2.141266,0.267831,0.963116,0.025885000000000002,-2.928035,0.78468,-1.178004,0.337515,0.325351,-0.289725
237,1.9058979999999999,-1.310937,-1.907498,0.242646,0.966426,0.084498,-2.7539130000000003,0.554142,-1.2192209999999999,0.406386,0.399403,-0.29828899999999997
238,2.119123,-1.311101,-1.7051740000000002,0.219135,0.966468,0.133849,-2.159345,1.246033,-1.0674709999999998,0.311718,0.52987,0.161454
239,2.333901,-1.3069819999999999,-1.520593,0.188449,0.9654020000000001,0.180228,-1.9346009999999998,1.972227,-1.447119,0.179136,0.434424,0.068383
240,2.541786,-1.3005309999999999,-1.335475,0.150706,0.9637,0.22037800000000002,-1.7686830000000002,1.115178,-1.715122,0.133748,0.233352,-0.093669
241,2.721514,-1.2865,-1.1662139999999999,0.11438800000000002,0.959859,0.256091,-1.724562,0.811072,-1.627898,0.178673,0.131663,-0.145313
242,2.867302,-1.2662280000000001,-1.027835,0.08122599999999999,0.953976,0.288667,-1.597576,0.444826,-1.523993,0.093335,-0.11526199999999999,-0.317384
243,2.97611,-1.241474,-0.9089520000000001,0.053273,0.946262,0.318981,-1.619118,-0.5681039999999999,-1.542073,0.10888199999999999,-0.15776400000000002,-0.39963899999999997
244,3.051034,-1.21186,-0.802844,0.031768,0.936271,0.349835,-1.762393,-1.6517939999999998,-1.607915,0.097932,-0.21231799999999998,-0.44796400000000003
245,3.094034,-1.178679,-0.714434,0.018167,0.9241020000000001,0.38171,-1.704041,-2.0361540000000002,-1.443577,0.204153,-0.448974,-0.331783
246,3.110277,-1.14775,-0.6479199999999999,0.012853999999999999,0.9118430000000001,0.41033500000000006,-1.509184,-2.314937,-1.159848,0.24193699999999999,-0.520775,-0.294338
247,3.111555,-1.1229770000000001,-0.5988979999999999,0.013004,0.901394,0.43280100000000005,-1.118798,-2.0691650000000004,-0.8893120000000001,0.238339,-0.506588,-0.298951
248,3.1024950000000002,-1.1064260000000001,-0.5647340000000001,0.017506,0.8941040000000001,0.447514,-0.68207,-1.9567139999999998,-0.618282,0.227215,-0.507675,-0.29745900000000003
249,3.08301,-1.099479,-0.545325,0.026585,0.890971,0.45328,-0.16935,-1.7413939999999999,-0.297715,0.16186099999999998,-0.5750529999999999,-0.23101999999999998
250,3.0554330000000003,-1.1031739999999999,-0.542117,0.03879,0.8926430000000001,0.44909,0.405808,-1.387861,0.036998,0.017454,-0.591953,-0.15871500000000002
251,3.0192240000000004,-1.119418,-0.555755,0.05324500000000001,0.899847,0.432943,1.113409,-1.060117,0.312848,-0.06237,-0.441442,-0.120367
252,2.976937,-1.1469639999999999,-0.583992,0.06741,0.9115200000000001,0.405692,1.575343,-0.7371880000000001,0.407528,-0.101284,-0.19106099999999998,-0.084266
253,2.930963,-1.174779,-0.614668,0.08065,0.9226049999999999,0.377218,1.326877,-1.086241,0.267371,-0.092155,0.11233800000000001,0.12172899999999999
254,2.893102,-1.191295,-0.6260899999999999,0.09111,0.9288489999999999,0.359075,0.5501149999999999,-1.494212,-0.131706,-0.108215,0.309874,0.438197
255,2.876287,-1.197712,-0.6102449999999999,0.09557,0.931207,0.351733,0.141902,-1.50209,-0.471037,-0.055027,0.35881599999999997,0.603833
256,2.883966,-1.201709,-0.580812,0.091917,0.932657,0.348854,-0.052329999999999995,-0.704029,-0.611217,0.136629,0.318808,0.44666300000000003
257,2.914997,-1.198956,-0.536808,0.081625,0.93166,0.354039,-0.47933000000000003,-0.47698900000000005,-0.8078390000000001,0.188653,0.376125,0.33927399999999996
258,2.9522880000000002,-1.190099,-0.48391000000000006,0.06992000000000001,0.928406,0.364927,-0.684834,-0.684822,-0.8698969999999999,0.116253,0.053116,0.321337
259,2.978123,-1.181365,-0.43783999999999995,0.061787,0.925125,0.374598,-0.437014,-0.8910299999999999,-0.666007,0.11053099999999999,-0.083801,0.39209499999999997
260,2.975064,-1.178906,-0.421767,0.063309,0.9241889999999999,0.37665,-0.100628,-0.917054,-0.045124,0.4169,0.15212,0.520094
261,2.962424,-1.172778,-0.433777,0.069073,0.921831,0.381385,-0.362119,0.743688,0.45298599999999994,0.677906,1.041167,-0.544654
262,2.978296,-1.162659,-0.449205,0.064524,0.9178620000000001,0.391617,-0.427494,1.555836,0.141704,0.6246689999999999,1.026673,-1.011185
263,3.014336,-1.168118,-0.42679300000000003,0.049735,0.9200149999999999,0.38871100000000003,0.653212,0.5028130000000001,-0.661247,0.44457399999999997,0.264373,-0.955514
264,3.041851,-1.190692,-0.41445600000000005,0.036944,0.9286260000000001,0.369169,1.142026,1.1187799999999999,-0.07964500000000001,0.46384899999999996,-1.188803,-0.057142
265,3.047802,-1.206399,-0.44229799999999997,0.033375999999999996,0.9343389999999999,0.354815,0.778447,1.918122,0.670956,0.24914,-0.777814,0.24456599999999998
266,3.056912,-1.246062,-0.496259,0.026985000000000002,0.947735,0.317909,3.012541,3.4248489999999996,0.758337,-0.015068000000000002,-0.065426,0.026925
267,3.034598,-1.3061260000000001,-0.5835060000000001,0.027935,0.9651790000000001,0.260089,2.5611450000000002,2.77106,1.076489,0.06424400000000001,0.8420719999999999,-0.496997
268,2.979837,-1.331793,-0.6679510000000001,0.038125,0.9715739999999999,0.23363899999999999,1.039101,0.343748,0.685476,-0.031839,0.555983,-0.20187
269,2.916678,-1.352851,-0.731842,0.048222,0.9763440000000001,0.210772,1.279915,0.057231,0.46640299999999996,-0.101109,0.241689,-0.046099
270,2.814727,-1.372693,-0.841391,0.063189,0.980442,0.186383,1.263287,0.227661,1.016203,0.267378,-0.374759,-0.15826099999999999
271,2.655363,-1.388485,-0.998597,0.084719,0.983427,0.16028299999999998,1.338263,-0.431954,1.003685,0.252577,-0.261397,-0.07916799999999999
272,2.4703720000000002,-1.402425,-1.1824709999999998,0.104218,0.985859,0.131217,1.548463,0.015923,0.972533,0.16229200000000002,-0.189274,0.013559
273,2.26303,-1.412038,-1.3962700000000001,0.12169400000000001,0.987424,0.100897,1.507356,0.196775,0.803235,-0.103948,0.178515,-0.103796
274,2.069076,-1.418453,-1.597259,0.133292,0.988418,0.07252,1.421,0.184289,0.537729,-0.127051,0.11282400000000001,-0.034983999999999994
275,1.8858840000000001,-1.419558,-1.7899990000000001,0.143235,0.988585,0.046687,1.355043,0.461501,0.534776,-0.113435,0.02025,0.14391099999999998
276,1.702841,-1.414763,-1.985177,0.154038,0.987851,0.020459,1.4456639999999998,0.523728,0.612241,-0.088517,-0.194364,0.035953
277,1.542409,-1.402915,-2.1595169999999997,0.167016,0.985941,-0.0047420000000000006,1.3211,0.659142,0.689178,-0.11670799999999999,-0.150202,0.02345
278,1.418965,-1.386787,-2.296415,0.180858,0.983118,-0.027673000000000003,1.244202,0.404804,0.6900350000000001,-0.147533,-0.029505,0.014015999999999999
279,1.3135370000000002,-1.36896,-2.407984,0.193864,0.9797,-0.051004,1.201641,0.11550899999999999,0.612128,-0.168535,0.068746,0.045404
280,1.222941,-1.351532,-2.500508,0.204479,0.976058,-0.074144,1.18956,-0.07998200000000001,0.49265299999999995,-0.077312,0.056596,-0.043242
281,1.140885,-1.3340100000000001,-2.578909,0.21322800000000003,0.972097,-0.097768,1.11827,-0.308631,0.458265,0.08526399999999999,-0.041891000000000005,0.155279
282,1.078983,-1.31787,-2.639411,0.220575,0.968184,-0.11816600000000001,0.9664780000000001,0.048974000000000004,0.405472,0.124732,0.019822,0.207842
283,1.04541,-1.301009,-2.683743,0.23057600000000003,0.963827,-0.13367300000000001,0.869575,0.639175,0.479883,0.156418,0.237405,0.025152
284,1.0303790000000002,-1.283483,-2.713637,0.24298899999999998,0.959009,-0.145793,0.775552,0.7041,0.575283,0.089042,0.23844,0.099772
285,1.027512,-1.264794,-2.733119,0.257869,0.9535459999999999,-0.155728,0.656389,0.835311,0.633035,-0.018229,0.329459,0.13833199999999998
286,1.032007,-1.24925,-2.747384,0.271257,0.9487479999999999,-0.162154,0.530449,0.914111,0.48357100000000003,-0.078722,0.384596,0.18470599999999998
287,1.040959,-1.238972,-2.756976,0.281098,0.94545,-0.164639,0.29654899999999995,0.884883,0.270467,-0.17686500000000002,0.468125,0.26076900000000003
288,1.06247,-1.235285,-2.753634,0.287618,0.944242,-0.16025,-0.160166,0.957369,0.121905,-0.27362600000000004,0.581591,0.09060900000000001
289,1.105325,-1.241603,-2.7276700000000003,0.288883,0.9463030000000001,-0.145101,-0.72142,0.837131,-0.22476,-0.310337,0.600251,0.024021999999999998
290,1.160865,-1.258212,-2.680784,0.282036,0.951542,-0.12255899999999999,-1.191074,0.437504,-0.578974,-0.07245700000000001,0.5355489999999999,0.253098
291,1.243192,-1.284432,-2.6079630000000003,0.267438,0.959277,-0.090889,-1.6421880000000002,0.794341,-0.978892,0.342578,0.291638,0.383201
292,1.37269,-1.317658,-2.4981150000000003,0.245538,0.968131,-0.049289,-1.9451060000000002,1.447544,-1.295902,0.44959099999999996,0.11168800000000001,0.369296
293,1.580515,-1.347429,-2.322171,0.22149499999999997,0.9751569999999999,0.002153,-2.389863,2.001774,-1.248445,0.29080300000000003,0.130357,-0.014497
294,1.865839,-1.362531,-2.071638,0.197819,0.978391,0.06012000000000001,-2.595257,2.015788,-1.112097,0.122799,0.21528899999999998,-0.191971
295,2.188012,-1.360924,-1.7812270000000001,0.169888,0.978057,0.120572,-2.821134,1.8555700000000002,-1.342069,0.09608799999999999,0.41711499999999996,-0.168195
296,2.4972380000000003,-1.3404790000000002,-1.495903,0.137122,0.9735940000000001,0.182505,-2.942698,1.1995040000000001,-1.53863,0.249383,0.605172,-0.202372
297,2.74422,-1.3075430000000001,-1.255965,0.100703,0.965549,0.23994000000000001,-2.833341,0.58762,-1.7955919999999999,0.223043,0.5563170000000001,-0.12473599999999999
298,2.935604,-1.263488,-1.070936,0.06186900000000001,0.953151,0.296092,-2.896303,0.7521720000000001,-1.865677,0.32085199999999997,0.426411,-0.211513
299,3.0914330000000003,-1.210727,-0.922517,0.017665,0.9358719999999999,0.351889,-2.948127,0.745221,-2.213202,0.363942,0.26819899999999997,-0.129675
300,-3.0613740000000003,-1.147749,-0.792787,-0.032897,0.911842,0.40921399999999997,-3.182146,0.502624,-2.614041,0.426345,0.07094600000000001,0.079876
301,-2.963082,-1.080635,-0.697434,-0.08359,0.882257,0.46328199999999997,-2.9028869999999998,0.6244930000000001,-2.430648,0.310748,-0.089334,0.00411
302,-2.8967330000000002,-1.0184600000000001,-0.629689,-0.127191,0.851301,0.509022,-2.565388,0.23883000000000001,-2.182107,0.30044,-0.09725700000000001,-0.102711
303,-2.8641490000000003,-0.9566319999999999,-0.584994,-0.157839,0.8172550000000001,0.554233,-2.781128,-0.437109,-1.85694,0.052172,-0.11966900000000001,-0.434742
304,-2.861455,-0.892252,-0.5580350000000001,-0.173539,0.778488,0.6031880000000001,-2.86155,-1.1285290000000001,-1.507307,0.067872,-0.080901,-0.48369700000000004
305,-2.881224,-0.832794,-0.541972,-0.173205,0.7398140000000001,0.650131,-2.704348,-1.9610889999999999,-1.232746,0.08951100000000001,-0.380195,-0.509475
306,-2.9169490000000002,-0.7770199999999999,-0.52918,-0.158828,0.701158,0.695087,-2.493574,-2.325946,-1.0160930000000001,0.23197800000000002,-0.49539300000000003,-0.372272
307,-2.954876,-0.730905,-0.518304,-0.138216,0.6675439999999999,0.731625,-1.945532,-2.143538,-0.753989,0.211367,-0.461779,-0.40881
308,-2.986294,-0.7028840000000001,-0.509318,-0.11801400000000001,0.646421,0.753795,-0.9344950000000001,-1.700808,-0.459075,0.20707899999999999,-0.526655,-0.181895
309,-3.0093650000000003,-0.695168,-0.5022939999999999,-0.101248,0.640515,0.761239,-0.047623,-1.191276,-0.24523000000000003,0.166494,-0.429547,-0.194786
310,-3.028202,-0.6986760000000001,-0.497396,-0.086637,0.643205,0.7607729999999999,0.295729,-1.113059,-0.12329100000000001,0.090634,-0.417893,-0.253525
311,-3.04893,-0.708585,-0.492634,-0.070256,0.65076,0.756022,0.6900649999999999,-1.232568,-0.149225,0.025197,-0.42313,-0.28777600000000003
312,-3.065268,-0.729223,-0.48502700000000004,-0.056859,0.666291,0.743518,1.2350299999999999,-0.882617,-0.223847,-0.124873,-0.291626,-0.22940300000000002
313,-3.071136,-0.757944,-0.47734099999999996,-0.051127,0.68743,0.724445,1.623701,-0.458325,-0.10630799999999999,-0.043524,-0.363043,-0.29385700000000003
314,-3.080762,-0.801654,-0.48026499999999994,-0.042282,0.718508,0.694228,2.559997,-0.217823,0.475696,0.015763,-0.5178699999999999,-0.350157
315,-3.089191,-0.850226,-0.492804,-0.034559,0.751429,0.658904,1.892824,0.15954300000000002,0.456665,0.747847,1.120427,1.32364
316,-3.080917,-0.875806,-0.49245200000000006,-0.038831,0.7680600000000001,0.6391939999999999,1.4607459999999999,0.175582,-0.24819499999999997,0.41224399999999994,2.1218169999999996,0.783733
317,-3.066406,-0.932551,-0.44961999999999996,-0.044752999999999994,0.803142,0.5940989999999999,3.456021,-1.724738,-1.476302,0.054488,1.486805,-1.1110209999999998
318,-3.061253,-0.9790459999999999,-0.393075,-0.044766,0.829966,0.55601,1.6636330000000001,-1.7162970000000002,-1.2345959999999998,0.329525,-0.076899,0.31860900000000003
319,-3.043485,-1.0090940000000002,-0.362526,-0.05217,0.84635,0.530061,1.7685080000000002,0.35734099999999996,-0.41398999999999997,0.306016,-0.751196,0.177749
320,-3.0285040000000003,-1.0522690000000001,-0.355819,-0.055927,0.86855,0.49243000000000003,2.359939,0.23828600000000003,0.340186,0.48126599999999997,-0.596486,-0.32516300000000004
321,-3.050841,-1.098663,-0.384349,-0.041216,0.8906,0.452909,2.0422119999999997,0.232582,1.24169,0.709276,-0.046133,-0.030302
322,-3.087413,-1.137438,-0.439513,-0.02274,0.9075610000000001,0.41929700000000003,1.803579,0.834033,1.289459,0.637486,0.453371,-0.10869000000000001
323,-3.123054,-1.17375,-0.49415299999999995,-0.007168000000000001,0.922207,0.386623,1.739543,0.62734,1.086314,0.088406,0.331058,-0.25190300000000004
324,3.121696,-1.205924,-0.545229,0.007098999999999999,0.934169,0.35675100000000004,1.5408,0.352961,0.876974,-0.040057999999999996,0.183567,-0.10402
325,3.08339,-1.2361440000000001,-0.5923619999999999,0.019105,0.944525,0.327877,1.571468,0.339771,0.6859930000000001,-0.042863,0.068354,0.002705
326,3.047184,-1.269348,-0.64132,0.027988,0.954907,0.295574,1.8081669999999999,0.683423,0.5889300000000001,0.021939,-0.133802,-0.033839999999999995
327,3.002397,-1.304147,-0.702091,0.036558,0.964659,0.260943,1.7816560000000001,0.570241,0.677552,0.010835,-0.217085,-0.125888
328,2.9339419999999996,-1.333125,-0.781616,0.048537000000000004,0.9718889999999999,0.230373,1.4954479999999999,0.38011100000000003,0.786892,-0.055769000000000006,-0.174861,-0.122616
329,2.834406,-1.353353,-0.889484,0.06523,0.9764520000000001,0.205625,1.1738600000000001,0.22708499999999998,0.97178,-0.066237,-0.073193,0.018893
330,2.713835,-1.368155,-1.017036,0.083484,0.9795379999999999,0.183114,1.181438,0.216547,0.9365959999999999,0.01875,-0.023926,0.139899
331,2.587509,-1.380468,-1.1534959999999999,0.099535,0.981942,0.160868,1.153138,0.46420200000000006,0.8335309999999999,0.027569999999999997,-0.043771,0.119237
332,2.461264,-1.3904040000000002,-1.294433,0.112855,0.983773,0.139463,1.1513229999999999,0.668096,0.728572,-0.027207,-0.051721,0.009356
333,2.325328,-1.39767,-1.445815,0.125501,0.985051,0.11798299999999999,1.175539,0.596638,0.7288319999999999,-0.11733699999999998,-0.019459999999999998,-0.043032
334,2.176209,-1.401383,-1.606433,0.138628,0.985684,0.095946,1.1896129999999998,0.38361799999999996,0.707839,-0.130464,-0.020092,-0.020995
335,2.0248880000000002,-1.401976,-1.767327,0.150981,0.985784,0.073696,1.181538,0.399972,0.621236,-0.269435,0.12975599999999998,0.00121
336,1.88307,-1.400731,-1.9172810000000002,0.16105,0.985574,0.051993,1.09249,0.143076,0.47352799999999995,-0.229165,0.183112,0.15041500000000002
337,1.7575610000000002,-1.397032,-2.045291,0.169872,0.984941,0.0321,0.9569409999999999,0.11591199999999999,0.457661,-0.288067,0.097579,0.197438
338,1.658245,-1.389602,-2.1508529999999997,0.179505,0.9836290000000001,0.015738,0.84615,0.21193499999999998,0.5165850000000001,-0.194642,-0.025713,0.188349
339,1.569482,-1.3798030000000001,-2.242207,0.189824,0.981816,-0.00024900000000000004,0.788523,-0.026494999999999998,0.518624,-0.05898,-0.068471,0.27303099999999997
340,1.499933,-1.3684889999999998,-2.312431,0.200416,0.979606,-0.014225999999999999,0.674268,-0.013453999999999999,0.5530609999999999,0.096077,-0.041755,0.312093
341,1.458796,-1.3560290000000002,-2.355451,0.21177600000000002,0.9770260000000001,-0.023819,0.32667199999999996,0.074943,0.593248,0.124726,0.10726400000000001,0.296112
342,1.4660360000000001,-1.34491,-2.35184,0.222733,0.9745959999999999,-0.023419,-0.161723,0.2847,0.509451,0.064178,0.250746,0.204068
343,1.5193299999999998,-1.338083,-2.306794,0.230303,0.973044,-0.011863,-0.6961930000000001,0.5516260000000001,0.288527,-0.065569,0.389291,-0.004906000000000001
344,1.628326,-1.33581,-2.205327,0.232433,0.972518,0.013387,-1.465494,0.48197399999999996,-0.007314,-0.18204800000000002,0.456941,-0.17018599999999998
345,1.778573,-1.338278,-2.059832,0.22546300000000002,0.973089,0.047532,-1.622127,0.430489,-0.5819770000000001,0.066621,0.33198,0.175994
346,1.921283,-1.3489309999999999,-1.9222560000000002,0.206663,0.9754889999999999,0.075552,-1.190487,0.506776,-1.1185120000000002,0.271273,0.29570599999999997,0.388941
347,2.0937189999999997,-1.36142,-1.7692689999999998,0.180065,0.9781610000000001,0.103798,-1.3180209999999999,1.589338,-1.3344340000000001,0.25337600000000005,0.3037,0.439262
348,2.341988,-1.3650010000000001,-1.5565440000000001,0.146525,0.978899,0.14241900000000002,-1.8017299999999998,2.024276,-1.524241,-0.173594,0.3683,-0.14344200000000001
349,2.60481,-1.352471,-1.316583,0.110756,0.9762620000000001,0.186124,-2.2192119999999997,0.9181809999999999,-1.6101290000000001,-0.34185,0.333293,-0.252225
350,2.820242,-1.322425,-1.101321,0.077641,0.9693139999999999,0.23323200000000002,-2.428539,0.114801,-1.654359,-0.024494,0.31152399999999997,-0.205019
351,2.978084,-1.282946,-0.9389219999999999,0.046211,0.9588559999999999,0.280098,-2.440855,0.042178,-1.597736,0.553887,0.278906,0.124001
352,3.087583,-1.23322,-0.820924,0.017879,0.9435600000000001,0.33071100000000003,-2.792316,-0.10438199999999999,-1.406652,0.643803,0.187406,0.237312
353,-3.122413,-1.18111,-0.743111,-0.007286,0.9250280000000001,0.379822,-2.4637700000000002,-0.07268200000000001,-1.360601,0.586738,0.105779,0.159576
354,-3.061632,-1.131536,-0.67435,-0.033968,0.905067,0.423904,-2.498392,-0.1792,-1.598919,0.17926199999999998,0.10404300000000001,-0.16078199999999998
355,-3.016858,-1.072963,-0.6120439999999999,-0.059409000000000003,0.878619,0.473808,-2.846915,-0.68462,-1.7096650000000002,0.139441,0.091519,-0.19065
356,-2.996172,-1.011973,-0.562616,-0.076828,0.84788,0.524588,-2.8010080000000004,-1.247817,-1.566549,0.087265,0.025243,-0.240637
357,-2.994015,-0.9547549999999999,-0.525664,-0.084962,0.816172,0.571524,-2.632759,-1.5413059999999998,-1.3118290000000001,0.0046240000000000005,-0.39617399999999997,-0.260137
358,-3.010165,-0.9030940000000001,-0.506132,-0.08114299999999999,0.785246,0.6138399999999999,-2.3436220000000003,-1.6777830000000002,-0.733863,0.087552,-0.44801199999999997,-0.316293
359,-3.040709,-0.8601129999999999,-0.49974399999999997,-0.0657,0.757917,0.649031,-1.945941,-1.760882,-0.278053,0.16137200000000002,-0.481778,-0.353163
360,-3.075345,-0.8280799999999999,-0.5002270000000001,-0.04477,0.736634,0.674804,-1.354144,-1.618932,-0.059387999999999996,0.12045299999999999,-0.299958,-0.262558
361,-3.10711,-0.810296,-0.500687,-0.023763999999999997,0.724491,0.688871,-0.544208,-1.5282280000000001,-0.001504,0.108145,-0.300663,-0.21243099999999998
362,-3.134258,-0.813679,-0.500434,-0.005037,0.726819,0.686808,0.583755,-1.245549,-0.008943000000000001,0.101259,-0.37145700000000004,-0.187327
363,3.133332,-0.8368200000000001,-0.499312,0.005533,0.742517,0.669802,1.462474,-0.46530900000000003,-0.08605800000000001,-0.04548,-0.456201,-0.077288
364,-3.1404360000000002,-0.8733069999999999,-0.49289700000000003,-0.000743,0.7664569999999999,0.642292,2.037725,0.554071,-0.29592199999999996,-0.101003,-0.466409,-0.15190499999999998
365,-3.1331130000000003,-0.9219,-0.489217,-0.005124,0.796751,0.604282,2.641254,-0.028252,0.15021600000000002,-0.07573200000000001,-0.868758,-0.43521499999999996
366,3.139165,-0.9772569999999999,-0.510971,0.001358,0.828966,0.559294,2.710025,0.603352,0.914734,0.307831,-0.5979180000000001,0.23149299999999998
367,3.124397,-1.0112079999999999,-0.5521729999999999,0.009128,0.847474,0.530756,1.190013,1.6715919999999997,0.9582950000000001,0.399426,0.34936500000000004,1.279867
368,-3.1338169999999996,-1.062039,-0.557797,-0.003788,0.87335,0.487076,3.582813,0.370774,-0.285963,0.289829,1.6516279999999999,-1.034088
369,-3.137778,-1.101,-0.544798,-0.001727,0.891661,0.45269899999999996,0.579573,-0.926314,-0.184569,0.018161,-0.03372,0.267455
370,3.13862,-1.1192879999999998,-0.547633,0.001297,0.89979,0.43631800000000004,1.427152,0.22308499999999998,0.15423199999999998,-0.163437,-0.537546,0.199515
371,3.136786,-1.153956,-0.552921,0.001946,0.914373,0.40486500000000003,1.7776759999999998,0.07820099999999999,0.11840999999999999,0.27674,-0.349965,-0.209644
372,3.1133029999999997,-1.180821,-0.5836020000000001,0.010753,0.924918,0.38000900000000004,1.107111,0.289267,0.9295770000000001,0.49771499999999996,0.364602,-0.033589
373,3.0634189999999997,-1.2035639999999999,-0.6441479999999999,0.028038,0.933325,0.357933,1.279284,0.401495,0.953068,0.358254,0.555689,-0.076744
374,3.0247290000000002,-1.229803,-0.695328,0.038993,0.942423,0.332138,1.475126,0.479757,0.659507,0.083413,0.267858,-0.09375
375,2.9983150000000003,-1.260225,-0.7365470000000001,0.043636,0.952159,0.302466,1.6044209999999999,0.723301,0.38236,-0.005901,0.017461,-0.10108099999999999
376,2.971061,-1.290176,-0.778883,0.047,0.960884,0.272929,1.585805,0.627448,0.39303499999999997,0.010816,-0.054465999999999994,-0.027201
377,2.921855,-1.319787,-0.840986,0.054139,0.9686620000000001,0.242404,1.6129950000000002,0.48267600000000005,0.609192,0.003646,-0.08041799999999999,-0.059451
378,2.831305,-1.34416,-0.938317,0.068607,0.9744280000000001,0.21396500000000002,1.369529,0.007265000000000001,0.8943840000000001,-0.055698000000000004,-0.066301,-0.07924500000000001
379,2.706858,-1.358652,-1.062051,0.08867699999999999,0.977582,0.190965,1.0262149999999999,-0.27016799999999996,1.040824,-0.072076,-0.061489999999999996,-0.06862
380,2.574911,-1.363108,-1.189473,0.11069100000000001,0.97851,0.17396199999999998,0.7408020000000001,-0.37471,1.058192,-0.043186,-0.051493,-0.059428999999999996
381,2.445004,-1.364213,-1.316254,0.131601,0.9787370000000001,0.157328,0.9379719999999999,-0.240939,1.000646,0.08482999999999999,-0.159325,0.152822
382,2.2939979999999998,-1.368282,-1.468423,0.150783,0.979564,0.133104,1.346918,0.023075,0.9561620000000001,0.11293399999999999,-0.164439,0.12242
383,2.129485,-1.370121,-1.6406599999999998,0.169018,0.979932,0.10565699999999999,1.423802,0.275278,0.956376,0.109455,-0.041456,-0.039816000000000004
384,1.9765560000000002,-1.365575,-1.8009509999999997,0.18723099999999998,0.979016,0.080434,1.2917530000000002,0.086146,0.9492870000000001,-0.041906,0.049167,-0.020437
385,1.830854,-1.356883,-1.9480400000000002,0.205141,0.977208,0.054585,1.310238,-0.161775,0.8610709999999999,-0.18118499999999998,0.168071,0.006862999999999999
386,1.698057,-1.347546,-2.082058,0.21960300000000002,0.975183,0.028099000000000002,1.349045,-0.030098000000000003,0.6656890000000001,-0.279021,0.170874,0.051583000000000004
387,1.5839379999999998,-1.337745,-2.203188,0.230922,0.972966,0.003035,1.304289,0.329567,0.5377970000000001,-0.26443,0.062602,0.10809500000000001
388,1.490464,-1.327412,-2.307541,0.240206,0.9705280000000001,-0.019338,1.197077,0.365439,0.45154399999999995,-0.165804,0.015434,0.16969800000000002
389,1.416943,-1.315299,-2.38485,0.249736,0.9675379999999999,-0.038729,0.8914799999999999,-0.130248,0.533366,-0.125057,0.06604700000000001,0.312716
390,1.372307,-1.300732,-2.426483,0.26155100000000003,0.9637540000000001,-0.052608,0.5269659999999999,-0.15932000000000002,0.660112,-0.071335,0.14823,0.372554
391,1.359799,-1.2871110000000001,-2.439874,0.27368400000000004,0.9600299999999999,-0.058619000000000004,0.177392,0.093569,0.5921850000000001,-0.01842,0.157905,0.32161999999999996
392,1.3798030000000001,-1.277656,-2.425679,0.28370100000000004,0.957341,-0.05485399999999999,-0.321809,0.430454,0.428033,-0.006372999999999999,0.400737,0.163176
393,1.4460469999999999,-1.2751139999999999,-2.3655180000000002,0.289124,0.9566030000000001,-0.036256000000000004,-1.178507,0.405746,0.157162,-0.199326,0.638306,-0.002577
394,1.5619530000000001,-1.279752,-2.2563560000000003,0.286937,0.957945,-0.002538,-1.7534049999999999,0.652646,-0.348167,-0.164272,0.600191,0.024097999999999998
395,1.6948889999999999,-1.292233,-2.128102,0.272856,0.9614510000000001,0.034033999999999995,-1.722912,0.45882,-0.920272,0.242006,0.28523699999999996,0.390847
396,1.8481130000000001,-1.307748,-1.9830729999999999,0.25008600000000003,0.9656020000000001,0.071187,-1.816814,0.84395,-1.246161,0.154745,0.154225,0.46413699999999997
397,2.063717,-1.320191,-1.789811,0.218464,0.9687620000000001,0.117347,-2.166794,1.8513669999999998,-1.657957,0.021190999999999998,0.21576199999999998,0.38501799999999997
398,2.326867,-1.326682,-1.560878,0.17583900000000002,0.970352,0.16581600000000002,-1.911829,1.9743830000000002,-2.005643,-0.44010600000000005,0.308594,-0.19506700000000002
399,2.5644009999999997,-1.325375,-1.3431680000000001,0.132576,0.9700350000000001,0.203599,-1.720377,0.9741629999999999,-1.923975,-0.18546300000000002,0.139431,-0.258668
400,2.766962,-1.309333,-1.1473719999999998,0.09458899999999999,0.9660129999999999,0.24056100000000002,-1.948966,0.255679,-1.8701720000000002,0.23550500000000002,0.348059,-0.292685
401,2.938479,-1.277305,-0.9577379999999999,0.05835599999999999,0.95724,0.28334299999999996,-2.399557,-0.681742,-2.0173959999999997,0.423914,0.368719,0.08624
402,3.065617,-1.234361,-0.819372,0.025057,0.943937,0.329167,-2.3762209999999997,0.053103,-1.7254759999999998,0.453108,-0.063292,0.19988499999999998
403,-3.122672,-1.191547,-0.7202029999999999,-0.007004000000000001,0.9289430000000001,0.370152,-2.12728,-0.065106,-1.684061,0.41830500000000004,0.022855,-0.051564
404,-3.0498119999999997,-1.143071,-0.632228,-0.038017,0.909912,0.41305200000000003,-2.485493,-0.568558,-2.011726,0.388374,0.119828,-0.25843499999999997
405,-2.9878270000000002,-1.087378,-0.548081,-0.07119,0.8854110000000001,0.45932,-2.5504,-0.697619,-2.180793,0.010887,0.13918599999999998,0.063721
406,-2.95109,-1.0310489999999999,-0.486811,-0.097311,0.8578389999999999,0.504618,-2.457239,-0.96044,-1.804859,0.12471600000000001,-0.009267000000000001,-0.052653
407,-2.946532,-0.98055,-0.451362,-0.107876,0.8308040000000001,0.5460079999999999,-2.225731,-1.5166709999999999,-1.1680059999999999,0.185574,-0.221886,-0.19304100000000002
408,-2.971046,-0.9379370000000001,-0.44089799999999996,-0.100382,0.806339,0.58287,-1.9119240000000002,-1.726216,-0.45410900000000004,0.18812,-0.377812,-0.138595
409,-3.006898,-0.9056040000000001,-0.44478599999999996,-0.082883,0.786798,0.611617,-1.416434,-1.615909,0.035251,0.15917699999999999,-0.260263,-0.16650299999999998
410,-3.044292,-0.886317,-0.452743,-0.061423,0.774748,0.6292760000000001,-0.7114779999999999,-1.546438,0.16613699999999998,0.141791,-0.143782,-0.152881
411,-3.0809509999999998,-0.8813840000000001,-0.45921300000000004,-0.03855,0.77162,0.634911,0.011548000000000001,-1.6022889999999999,0.18621400000000002,0.083578,-0.342238,-0.23893000000000003
412,-3.117213,-0.892091,-0.46614799999999995,-0.015304,0.778386,0.627596,0.833382,-1.448882,0.270806,-0.002198,-0.57517,-0.244234
413,3.1354990000000003,-0.9176129999999999,-0.47779099999999997,0.003703,0.794153,0.607703,1.507792,-0.782888,0.43596499999999994,-0.097224,-0.724314,-0.276511
414,3.117684,-0.955052,-0.49578199999999994,0.013807,0.816344,0.577398,2.123982,0.154165,0.532003,-0.155928,-0.810606,-0.495504
415,3.1034889999999997,-1.003375,-0.521506,0.020474000000000003,0.84329,0.5370659999999999,2.552043,0.414959,0.742963,-0.088284,-0.840879,-0.518755
416,3.077216,-1.049368,-0.561493,0.032045,0.867109,0.497084,2.091825,0.3325,0.983408,0.481414,-0.539213,0.261202
417,3.063661,-1.080674,-0.602808,0.036648,0.882275,0.46930200000000005,1.42489,1.922151,0.6979069999999999,0.159565,0.9338569999999999,0.851316
418,3.094974,-1.141916,-0.6062069999999999,0.019379,0.909432,0.415397,4.323366,0.39791,-0.523304,0.210387,1.51789,-1.2692940000000001
419,3.096244,-1.192146,-0.588976,0.016758000000000002,0.929165,0.36928099999999997,0.7331,-0.70648,-0.41664399999999996,0.290325,0.622776,0.065731
420,3.115933,-1.2080110000000002,-0.564966,0.009105,0.9349120000000001,0.354757,1.130456,0.291592,-0.471764,-0.12900799999999998,-0.392996,0.230692
421,3.138029,-1.234582,-0.5494,0.001176,0.944011,0.329907,1.4382139999999999,0.116226,-0.041032,0.046188,-0.574778,-0.0397
422,3.090986,-1.259241,-0.59355,0.015506,0.951858,0.306141,1.029874,-0.32908899999999996,1.117844,0.540479,-0.181777,-0.031391
423,3.003792,-1.273709,-0.686369,0.040211000000000004,0.9561930000000001,0.289955,0.828586,0.363483,1.2565549999999999,0.41309700000000005,0.228911,0.093544
424,2.932466,-1.290902,-0.7739229999999999,0.057351,0.9610850000000001,0.270229,1.251466,0.6889350000000001,1.020879,0.23030799999999998,0.308309,-0.039501
425,2.853418,-1.315912,-0.8714069999999999,0.071655,0.967692,0.241729,1.646365,0.8223360000000001,0.884597,0.10630799999999999,0.23901799999999998,-0.143539
426,2.770828,-1.3422459999999998,-0.9737049999999999,0.082088,0.9739959999999999,0.211164,1.585206,0.745738,0.646055,-0.052395000000000004,0.06363200000000001,-0.198438
427,2.6768520000000002,-1.3647719999999999,-1.0790680000000001,0.091683,0.978852,0.182865,1.4488590000000001,0.227791,0.553899,-0.162224,0.010681,-0.112598
428,2.558456,-1.382541,-1.198166,0.103045,0.982332,0.15621,1.251347,-0.24251399999999998,0.5883729999999999,-0.13464600000000002,-0.049089,-0.10082
429,2.432975,-1.39079,-1.3204930000000001,0.11650799999999999,0.983843,0.135928,0.874361,-0.233051,0.6797310000000001,-0.047080000000000004,-0.082353,-0.047
430,2.315728,-1.391416,-1.43618,0.131157,0.9839540000000001,0.120949,0.705849,-0.148596,0.751085,0.090294,-0.096992,0.031486
431,2.1976400000000003,-1.389132,-1.550591,0.146313,0.9835440000000001,0.105973,0.772271,-0.337331,0.7389720000000001,0.157383,-0.109536,0.196304
432,2.063516,-1.387429,-1.6877400000000002,0.160644,0.9832350000000001,0.086247,1.140181,0.28796900000000003,0.690535,0.169984,-0.076879,0.155498
433,1.927531,-1.384647,-1.836668,0.173415,0.9827239999999999,0.06462799999999999,1.176654,0.56271,0.684028,0.058549000000000004,-0.015073,0.004448
434,1.8096139999999998,-1.377389,-1.965944,0.18674000000000002,0.981355,0.045464,0.9707520000000001,0.367255,0.723433,-0.032519,-0.011964,-0.023355
435,1.7153,-1.36697,-2.067724,0.200299,0.979299,0.029147000000000003,0.851793,0.20591900000000002,0.680079,-0.186155,0.22754899999999997,-0.007236
436,1.638368,-1.35686,-2.147927,0.21181599999999998,0.977203,0.014334999999999999,0.739681,0.044957,0.537429,-0.179345,0.258881,0.022027
437,1.579028,-1.3483129999999999,-2.210471,0.220638,0.975352,0.001816,0.627366,0.09590599999999999,0.41480200000000006,-0.059673000000000004,0.13614400000000002,0.172729
438,1.5272940000000002,-1.339157,-2.264541,0.22934899999999997,0.973291,-0.009983,0.5893550000000001,0.024353,0.492608,0.022024000000000002,0.032080000000000004,0.318013
439,1.484707,-1.326597,-2.308185,0.240877,0.9703309999999999,-0.020788,0.557471,-0.028368,0.65055,-0.007936,0.019461000000000003,0.290655
440,1.442113,-1.311813,-2.3517930000000002,0.253973,0.966651,-0.032864,0.651288,-0.023451,0.671495,-0.089026,0.060525,0.131481
441,1.401985,-1.297274,-2.3921759999999996,0.266278,0.962825,-0.045383,0.5884199999999999,-0.056054,0.620892,0.033831,0.137349,0.158939
442,1.3871280000000001,-1.284356,-2.409402,0.27778200000000003,0.959256,-0.051601,0.14172300000000002,0.190775,0.55443,0.019246,0.280429,0.125881
443,1.416996,-1.277894,-2.383738,0.285319,0.95741,-0.044231,-0.577918,0.245608,0.25343499999999997,-0.141078,0.547061,-0.017078
444,1.4780950000000002,-1.2801129999999998,-2.324489,0.285371,0.958048,-0.02653,-0.956957,0.229469,-0.17648,-0.101839,0.436529,0.14239000000000002
445,1.549939,-1.289866,-2.2538080000000003,0.277183,0.9607979999999999,-0.005782,-1.062869,0.23678600000000002,-0.5820850000000001,0.09667200000000001,0.29114,0.37683
446,1.655566,-1.3052059999999999,-2.158245,0.261529,0.964938,0.022223,-1.436615,1.002224,-0.9328489999999999,-0.004815,0.155805,0.390771
447,1.830325,-1.323425,-2.0049770000000002,0.23664899999999997,0.9695600000000001,0.062834,-1.9433040000000001,1.46622,-1.442252,-0.21777399999999997,0.18341,0.1494
448,2.085136,-1.3391,-1.776325,0.199913,0.9732780000000001,0.11296500000000001,-2.31715,1.672638,-1.855325,-0.310112,0.285984,0.107296
449,2.3613,-1.341401,-1.51948,0.15996,0.9738040000000001,0.161602,-2.212666,0.9606049999999999,-1.838728,-0.274737,0.28526,-0.085338
450,2.600731,-1.326041,-1.289434,0.124761,0.970197,0.20772600000000002,-2.310505,0.856404,-1.5369709999999999,0.080211,0.11625999999999999,-0.033547
451,2.7924700000000002,-1.296814,-1.11074,0.092552,0.962701,0.254239,-2.260847,0.8356389999999999,-1.449003,0.45856499999999994,0.183783,-0.12785
452,2.928764,-1.255916,-0.9726950000000001,0.065416,0.950833,0.30271,-2.6638990000000002,-0.146841,-1.2967229999999998,0.440382,0.030093,-0.038870999999999996
453,3.018176,-1.208862,-0.872394,0.043588,0.935214,0.351385,-2.514105,-0.26357800000000003,-1.270958,0.23938600000000002,0.22343200000000002,-0.012717000000000001
454,3.096731,-1.160669,-0.779619,0.017881,0.91707,0.398321,-2.6330299999999998,-0.381601,-1.755542,0.218691,0.324736,0.014459999999999999
455,-3.109814,-1.107453,-0.687186,-0.014200999999999998,0.8945629999999999,0.446712,-2.625459,-0.36254699999999995,-1.998,0.173289,0.049315,-0.094554
456,-3.054014,-1.052775,-0.610607,-0.04331,0.8688,0.49326099999999995,-2.6403369999999997,-0.7325149999999999,-1.905763,0.17580199999999999,-0.210552,-0.224798
457,-3.0283849999999997,-0.9978520000000001,-0.5594899999999999,-0.061239999999999996,0.8403079999999999,0.5386350000000001,-2.545455,-1.012686,-1.45502,0.109946,-0.316123,-0.264572
458,-3.026307,-0.946514,-0.527233,-0.067237,0.811383,0.5806319999999999,-2.4168119999999997,-1.412146,-1.039139,0.08807999999999999,-0.325863,-0.272862
459,-3.044665,-0.8983690000000001,-0.510731,-0.06027999999999999,0.782312,0.6199600000000001,-2.258808,-1.663732,-0.5986739999999999,0.12038499999999999,-0.46334200000000003,-0.27502
460,-3.070811,-0.858541,-0.503777,-0.04622,0.75689,0.651903,-1.7347119999999998,-1.474236,-0.22351500000000002,0.123429,-0.417839,-0.22226100000000001
461,-3.098791,-0.832289,-0.503583,-0.028804000000000003,0.739474,0.672565,-1.0480459999999998,-1.358154,-0.011632,0.131023,-0.290286,-0.161456
462,-3.125485,-0.8214940000000001,-0.506332,-0.010971,0.732164,0.681036,-0.19622,-1.133657,0.11794400000000001,0.187027,-0.33076700000000003,-0.170522
463,3.13389,-0.8283709999999999,-0.51157,0.005208,0.736831,0.676053,0.6130939999999999,-0.894012,0.22584,0.198284,-0.38771,-0.168958
464,3.1148860000000003,-0.846306,-0.521461,0.017698,0.748838,0.662514,1.072724,-0.353831,0.338385,-0.0017829999999999999,-0.337308,-0.17055499999999998
465,3.1086400000000003,-0.872876,-0.5308649999999999,0.021172,0.766181,0.642273,1.471598,0.198174,0.211209,-0.152367,-0.294821,-0.198578
466,3.100948,-0.9067959999999999,-0.5402779999999999,0.025041,0.787533,0.6157600000000001,1.8351400000000002,-0.22538899999999998,0.324318,-0.173463,-0.41116,-0.212333
467,3.085089,-0.946709,-0.558489,0.033001,0.811497,0.583421,2.211231,0.054959,0.48575100000000004,0.05870499999999999,-0.33969499999999997,0.00479
468,3.068808,-0.9945,-0.589453,0.039626,0.8384860000000001,0.5434760000000001,2.431509,0.613787,0.937363,0.439057,0.268325,0.506848
469,3.060516,-1.050203,-0.6208670000000001,0.040282,0.867524,0.49575699999999995,3.331083,0.904293,0.237179,0.138932,0.8383780000000001,0.180589
470,3.056741,-1.108924,-0.6268060000000001,0.037766,0.8952200000000001,0.444017,2.200589,-0.422541,-0.239035,0.314712,1.326231,-0.093828
471,3.050105,-1.1345690000000002,-0.615479,0.038600999999999996,0.906352,0.42075,1.103804,-0.7931779999999999,-0.373339,0.005664,-0.087016,0.009761
472,3.0485330000000004,-1.161524,-0.613305,0.036978,0.9174100000000001,0.396215,1.49242,0.093553,-0.017111,0.13038,-0.701926,0.045298000000000005
473,3.0258540000000003,-1.1949100000000001,-0.6420020000000001,0.042392,0.930182,0.364636,1.771742,0.21251399999999998,0.626689,0.355664,-0.6713020000000001,-0.073239
474,2.965513,-1.2239209999999998,-0.714709,0.05955,0.9404399999999999,0.334698,1.506237,0.42811099999999996,1.285787,0.40257800000000005,-0.07374,-0.11169000000000001
475,2.889452,-1.246199,-0.806241,0.079564,0.947779,0.308838,1.3478379999999999,0.622161,1.114585,0.36758,0.26,-0.029952999999999997
476,2.819525,-1.264304,-0.8880809999999999,0.0955,0.953398,0.286197,1.18486,0.205029,0.875768,0.047979,0.41130200000000006,-0.059833000000000004
477,2.7579540000000002,-1.282817,-0.957936,0.106304,0.9588200000000001,0.263364,1.2834370000000002,0.3884,0.488457,-0.049755,-0.10695199999999999,0.067034
478,2.705446,-1.304925,-1.025354,0.110997,0.9648639999999999,0.23814899999999997,1.41113,0.7163510000000001,0.416289,-0.040608,-0.188924,0.022928999999999998
479,2.6315,-1.32416,-1.113703,0.119202,0.9697389999999999,0.213058,1.290225,0.419599,0.672198,-0.030716000000000004,-0.238416,-0.025894
480,2.527324,-1.335644,-1.224488,0.134284,0.9724790000000001,0.190395,1.145729,0.042186,0.873566,-0.165885,-0.033544,-0.09077
481,2.409607,-1.340183,-1.3438350000000001,0.152763,0.973526,0.17002,0.958925,-0.146003,0.944074,-0.184364,-0.034592000000000005,-0.070396
482,2.299586,-1.3392600000000001,-1.453355,0.171179,0.9733149999999999,0.152819,0.8340879999999999,-0.193324,0.8983969999999999,-0.12022999999999999,0.091718,0.057524
483,2.194484,-1.337525,-1.558742,0.187636,0.972915,0.135002,0.9270129999999999,-0.057853999999999996,0.772822,-0.009108,0.092285,0.10131
484,2.096161,-1.3364260000000001,-1.6623689999999998,0.200907,0.9726610000000001,0.116467,0.977675,0.175745,0.6532359999999999,-0.022379,0.09254,0.11984600000000001
485,2.0064349999999997,-1.3338649999999999,-1.759337,0.21279099999999998,0.9720629999999999,0.099047,0.931212,0.276069,0.646373,0.10413399999999999,0.093611,0.131742
486,1.9194349999999998,-1.328011,-1.8568369999999998,0.225937,0.970672,0.082125,0.971974,0.42678599999999994,0.7490140000000001,-0.067383,0.205643,0.08494299999999999
487,1.8423200000000002,-1.3185719999999999,-1.945888,0.24040999999999998,0.96836,0.06692999999999999,0.822709,0.489993,0.789551,-0.166664,0.266366,0.059077
488,1.7891970000000001,-1.307213,-2.010995,0.254347,0.965463,0.05645,0.5594,0.46138900000000005,0.711905,-0.226302,0.337607,0.048088
489,1.7557009999999997,-1.297245,-2.049684,0.265543,0.9628180000000001,0.049667,0.314713,-0.033471,0.534573,-0.14310599999999998,0.255581,0.25535599999999997
490,1.7317220000000002,-1.288875,-2.071344,0.274604,0.9605229999999999,0.044576,0.189636,-0.181801,0.44095500000000004,-0.161521,0.163089,0.309519
491,1.712234,-1.280653,-2.08885,0.28323000000000004,0.958203,0.040329000000000004,0.17641800000000002,-0.033694,0.443877,-0.201443,0.139987,0.348664
492,1.7064139999999999,-1.273104,-2.100044,0.290618,0.956016,0.039656,0.044429,0.414562,0.348377,-0.149322,0.07195399999999999,0.21086300000000002
493,1.726046,-1.266941,-2.09004,0.295599,0.95419,0.046264,-0.362365,0.461213,0.22369899999999998,0.066965,0.036777,0.17843699999999998
494,1.7744220000000002,-1.2615399999999999,-2.046036,0.29806,0.9525600000000001,0.061546000000000003,-0.9260280000000001,0.277186,0.113175,0.011571,0.189636,0.19635899999999998
495,1.86027,-1.254761,-1.963222,0.29786799999999997,0.950475,0.08871699999999999,-1.514305,0.47067600000000004,-0.07812100000000001,-0.161012,0.28779099999999996,0.131177
496,1.979986,-1.25004,-1.853693,0.289254,0.948997,0.12544,-1.766129,0.933679,-0.560105,-0.035668,0.212471,0.104754
497,2.1235779999999997,-1.25072,-1.724745,0.267777,0.949211,0.165202,-1.773795,1.167575,-1.235574,0.090042,0.171654,0.22267699999999999
498,2.29763,-1.256084,-1.575627,0.231314,0.950886,0.20569099999999998,-1.629226,1.933054,-1.7792700000000001,0.25055900000000003,0.19652999999999998,0.417096
499,2.487181,-1.258285,-1.422903,0.18714,0.951564,0.24393,-1.513907,2.223344,-1.74679,0.201318,0.18741300000000002,0.13783
500,2.664489,-1.249551,-1.2743959999999999,0.144993,0.948843,0.280486,-1.6803,1.53145,-1.736384,0.24573899999999999,0.187479,-0.158538
501,2.829128,-1.226928,-1.1329040000000001,0.10363499999999999,0.941458,0.320804,-2.068667,1.6314549999999999,-1.633471,0.251864,-0.090002,-0.10535
502,2.955143,-1.186128,-1.023305,0.069561,0.9269229999999999,0.368745,-2.729823,0.651101,-1.259729,0.290654,-0.093183,-0.08539
503,3.015968,-1.131504,-0.952551,0.053287,0.9050530000000001,0.421944,-2.918217,-0.464322,-0.810962,0.308331,0.032249,-0.205422
504,3.049394,-1.07431,-0.903725,0.043855,0.8792610000000001,0.474313,-3.004436,-0.475516,-0.8670979999999999,0.050214999999999996,0.322628,0.136267
505,3.089064,-1.015415,-0.8502350000000001,0.027683999999999997,0.8497,0.526537,-3.0364310000000003,-0.18076199999999998,-1.289647,0.13386099999999998,0.31767399999999996,0.089018
506,3.130632,-0.956573,-0.794485,0.0063159999999999996,0.817221,0.576287,-2.947165,-0.410563,-1.441484,0.155366,-0.042242,-0.252693
507,-3.128914,-0.901077,-0.748999,-0.00787,0.783996,0.620713,-2.630407,-0.791381,-1.321279,0.181424,-0.465225,-0.42418
508,-3.123817,-0.853282,-0.717463,-0.011687000000000001,0.7534420000000001,0.657407,-2.241946,-1.014051,-0.8525360000000001,0.110503,-0.6401,-0.42503100000000005
509,-3.130785,-0.815153,-0.703806,-0.007411,0.727831,0.685714,-1.662565,-0.689112,-0.297703,-0.009281999999999999,-0.723024,-0.211562
510,-3.141573,-0.7911729999999999,-0.704557,-1.4000000000000001e-05,0.711178,0.703009,-0.927278,-0.45371300000000003,0.13655699999999998,0.008086,-0.435391,-0.191229
511,3.1281529999999997,-0.779418,-0.710592,0.009559,0.702866,0.711256,-0.39260500000000004,-0.537013,0.257903,-0.002144,-0.289444,-0.21867199999999998
512,3.11007,-0.780233,-0.7176170000000001,0.022401,0.703445,0.710394,0.31507199999999996,-0.7289869999999999,0.23318200000000003,0.02185,-0.394561,-0.196448
513,3.090385,-0.794608,-0.725355,0.035858999999999995,0.713589,0.6996439999999999,0.940527,-0.661963,0.246011,-0.004944,-0.352749,-0.19337200000000002
514,3.0725729999999998,-0.8175399999999999,-0.733717,0.047173,0.729466,0.6823859999999999,1.300889,-0.523491,0.203485,-0.188363,-0.292317,-0.100339
515,3.064857,-0.847808,-0.740047,0.05072,0.7498319999999999,0.659679,1.607583,0.115346,0.020006,-0.383042,-0.143127,0.071538
516,3.0687349999999998,-0.882791,-0.741891,0.046223,0.772514,0.633309,1.9143430000000001,0.14873499999999998,-0.070829,-0.29539899999999997,-0.404014,-0.076211
517,3.062221,-0.929466,-0.752319,0.047435000000000005,0.8013,0.596375,2.637096,0.308025,0.226708,-0.09450800000000001,-0.511536,-0.081376
518,3.062707,-0.984081,-0.766095,0.043628,0.832764,0.551904,2.470785,0.683029,0.097947,0.307553,0.42691,1.022468
519,3.098432,-1.016665,-0.744013,0.022704,0.850358,0.5257109999999999,1.8737580000000003,0.422983,-1.217666,0.22901999999999997,2.256408,-0.495438
520,3.100648,-1.057289,-0.714804,0.020108,0.871027,0.49082,1.460919,-1.821439,-0.622674,0.9458040000000001,0.760961,0.050348000000000004
521,3.095508,-1.075467,-0.6904170000000001,0.021897,0.879812,0.474814,1.145572,-0.720116,-0.5728770000000001,0.441512,-0.948095,0.147561
522,3.108315,-1.119442,-0.6834479999999999,0.014513,0.899857,0.43594099999999997,2.630423,0.746734,0.012454999999999999,0.64688,-0.7218180000000001,-0.10626
523,3.09688,-1.167876,-0.717913,0.017526,0.9199200000000001,0.391712,2.28154,1.192715,0.9387989999999999,0.708823,-0.22445500000000002,-0.024723
524,3.060019,-1.214653,-0.7898270000000001,0.02841,0.937248,0.347501,2.54232,1.594339,1.2413450000000001,0.647402,0.22985100000000003,-0.06767000000000001
525,3.01693,-1.263686,-0.8695510000000001,0.037587999999999996,0.953211,0.299958,2.517312,1.595911,0.870495,0.380853,0.264288,-0.149628
526,2.993815,-1.310552,-0.933251,0.037887,0.966327,0.25451,2.3953860000000002,2.06035,0.449237,0.198075,-0.017825,-0.13303399999999999
527,2.97317,-1.355069,-1.000066,0.035881,0.9768209999999999,0.211025,2.325153,2.312105,0.42278699999999997,0.029457,-0.20191900000000002,-0.058926
528,2.934377,-1.4006459999999998,-1.087766,0.034836,0.985559,0.165704,2.4472110000000002,2.393765,0.40857899999999997,-0.020966,-0.10965899999999999,-0.05544400000000001
529,2.841661,-1.448541,-1.232895,0.03603,0.9925360000000001,0.116502,2.6360240000000004,2.639129,0.423471,-0.032642000000000004,-0.046201,-0.041719
530,2.584029,-1.491825,-1.543923,0.041737,0.996883,0.066933,2.504611,2.5684419999999997,0.632015,-0.074986,-0.17693699999999998,-0.07949099999999999
531,2.007621,-1.509628,-2.166808,0.055379,0.99813,0.025856999999999998,1.9334689999999999,1.9826380000000001,0.8360110000000001,-0.128469,-0.16326,-0.16803800000000002
532,1.526283,-1.498264,-2.681047,0.072388,0.9973709999999999,-0.0032240000000000003,1.364218,1.403929,0.8626870000000001,-0.130494,-0.084102,0.012883000000000002
533,1.2771059999999999,-1.479157,-2.959564,0.087587,0.9958040000000001,-0.026489,1.2929950000000001,1.499788,0.662309,-0.014665000000000001,-0.077774,0.12228399999999999
534,1.1006120000000001,-1.45967,3.112078,0.098859,0.9938319999999999,-0.05024,1.392548,1.801907,0.41478999999999994,0.023913,-0.206494,0.072381
535,0.9822620000000001,-1.441303,2.95724,0.107404,0.991627,-0.071685,1.166809,1.777621,0.29039899999999996,0.030215,-0.15190599999999999,0.014236000000000002
536,0.91632,-1.42509,2.8510720000000003,0.11518800000000001,0.9894040000000001,-0.088383,1.052352,2.0873459999999997,0.190926,-5.9999999999999995e-05,-0.0056689999999999996,0.066197
537,0.864398,-1.409151,2.7548169999999996,0.122427,0.986964,-0.104465,1.045158,2.087615,0.129986,-0.100408,0.061269000000000004,-0.014828000000000001
538,0.828141,-1.396058,2.680739,0.12807000000000002,0.984772,-0.11756400000000002,0.755887,1.732103,0.041895999999999996,-0.227649,0.06980900000000001,0.001369
539,0.8184239999999999,-1.387816,2.63604,0.13284300000000002,0.9833059999999999,-0.124346,0.496597,1.714934,0.031561,-0.157211,0.030976999999999998,0.063204
540,0.8162229999999999,-1.379181,2.6000259999999997,0.138749,0.981698,-0.130448,0.543766,1.613225,0.117478,-0.053483,0.020606,0.040788
541,0.815642,-1.369108,2.567941,0.145867,0.9797299999999999,-0.1373,0.605007,1.522257,0.169297,-0.057427,0.066245,0.056795000000000005
542,0.818466,-1.3578729999999999,2.539082,0.154282,0.977417,-0.144401,0.599658,1.573191,0.22367399999999998,-0.078537,0.009659000000000001,0.00811
543,0.828075,-1.345615,2.5173810000000003,0.164475,0.9747540000000001,-0.151004,0.5764060000000001,1.507794,0.347509,-0.095109,-0.022102,0.078372
544,0.844609,-1.331336,2.504142,0.17734,0.9714659999999999,-0.15749100000000002,0.613969,1.442189,0.47070100000000004,-0.135424,-0.037704,0.080938
545,0.8575309999999999,-1.3149520000000001,2.490211,0.19137200000000001,0.96745,-0.165579,0.691786,1.225523,0.5067729999999999,-0.176555,-0.022046,0.056951999999999996
546,0.8636280000000001,-1.298459,2.4742330000000003,0.204481,0.963145,-0.174753,0.696228,0.97962,0.45905,-0.199949,0.055439999999999996,0.24122
547,0.8586440000000001,-1.283874,2.45198,0.214218,0.959119,-0.18492999999999998,0.7024229999999999,0.768275,0.292721,-0.21176199999999998,0.0036950000000000004,0.458291
548,0.8515440000000001,-1.2717120000000002,2.426541,0.22165900000000002,0.955607,-0.194117,0.63317,0.9159709999999999,0.180953,-0.22802199999999997,0.021871,0.419459
549,0.8540629999999999,-1.263103,2.40719,0.22834200000000002,0.9530350000000001,-0.198955,0.44660600000000006,1.109738,0.104626,-0.183481,0.12951500000000002,0.288189
550,0.860849,-1.256173,2.390559,0.23469,0.9509129999999999,-0.201701,0.389048,1.132267,0.11487699999999999,-0.154307,0.222625,0.310054
551,0.8780180000000001,-1.250607,2.385548,0.242186,0.949176,-0.201019,0.130079,1.033771,0.190122,-0.279159,0.251141,0.265823
552,0.904065,-1.247811,2.394063,0.249425,0.948292,-0.196284,-0.093609,0.846117,0.15889,-0.22234,0.344814,0.376567
553,0.932318,-1.250705,2.402788,0.252666,0.949207,-0.187524,-0.250954,1.12068,-0.1673,-0.065272,0.445737,0.47022299999999995
554,0.962816,-1.262176,2.408411,0.24931199999999998,0.9527530000000001,-0.173501,-0.52674,1.320308,-0.565793,-0.014312,0.328863,0.47109300000000004
555,1.002881,-1.2842209999999998,2.4181060000000003,0.238294,0.959217,-0.152039,-0.850499,1.742837,-0.987339,0.079699,0.260845,0.43751599999999996
556,1.0705930000000001,-1.314331,2.443507,0.22258200000000003,0.9672930000000001,-0.121656,-1.228744,2.359652,-1.1969379999999998,0.166349,0.22330500000000003,0.516325
557,1.198833,-1.34971,2.5247029999999997,0.204289,0.9756600000000001,-0.079698,-1.846887,2.550178,-1.154498,0.32419899999999996,0.087328,0.46928500000000006
558,1.420716,-1.380131,2.692534,0.187376,0.981878,-0.028333999999999998,-2.11203,3.094681,-0.961563,0.470034,-0.022619,0.316085
559,1.7057900000000001,-1.397585,2.9096889999999997,0.17077,0.985036,0.023194,-1.8277990000000002,3.8015559999999997,-0.8248200000000001,0.657171,0.09997,0.010253
560,1.987845,-1.4057549999999999,3.1231299999999997,0.150204,0.9864120000000001,0.06654600000000001,-1.528948,3.2883809999999998,-0.8893719999999999,0.64452,0.300194,-0.13411199999999998
561,2.255841,-1.406572,-2.945439,0.126595,0.9865459999999999,0.103433,-1.406666,2.636352,-0.9752770000000001,0.391364,0.316067,-0.10914000000000001
562,2.487956,-1.399867,-2.751389,0.103427,0.985427,0.135029,-1.365546,1.645232,-0.90749,0.130902,0.218018,-0.02744
563,2.674012,-1.3868,-2.591468,0.082461,0.9831200000000001,0.163313,-1.205926,1.432217,-0.789666,0.10981500000000001,0.040912000000000004,0.087389
564,2.806936,-1.371535,-2.487475,0.065011,0.9802129999999999,0.18695499999999998,-1.0860319999999999,1.5723209999999999,-0.49951999999999996,0.181083,-0.17371,-0.066456
565,2.900127,-1.351335,-2.421196,0.052057000000000006,0.976015,0.21138,-1.1893639999999999,1.304604,-0.326847,0.16539600000000002,-0.268007,-0.135544
566,2.964163,-1.328527,-2.3765669999999997,0.042342000000000005,0.9707959999999999,0.23613299999999998,-1.26548,0.844283,-0.230648,0.14718699999999998,-0.193422,-0.201221
567,3.001818,-1.30059,-2.34667,0.037188,0.963716,0.26432,-1.535517,0.201416,-0.136639,0.161695,-0.15471,-0.130439
568,3.021184,-1.2699790000000002,-2.3248849999999996,0.03559,0.955095,0.294148,-1.519476,-0.194142,-0.06551699999999999,0.18898900000000002,-0.236238,-0.042866
569,3.0234360000000002,-1.242343,-2.319802,0.038025,0.946543,0.320323,-1.300133,-0.026594,0.201787,0.270217,-0.308542,0.017064
570,3.011066,-1.219084,-2.3382709999999998,0.044839,0.9387840000000001,0.341568,-0.9833139999999999,0.366958,0.60942,0.384376,-0.324008,-0.016693
571,2.9806049999999997,-1.201031,-2.383418,0.057928,0.9324120000000001,0.356716,-0.684326,0.654853,1.081157,0.29142199999999996,-0.30080500000000004,-0.088162
572,2.9368090000000002,-1.185505,-2.444947,0.076425,0.926689,0.367969,-0.461143,0.69893,1.319805,0.108618,-0.259712,-0.10348800000000001
573,2.890315,-1.1738819999999999,-2.511511,0.096117,0.922258,0.37442600000000004,-0.165421,0.788262,1.36769,-0.032533,-0.23729099999999997,-0.097205
574,2.8420509999999997,-1.1661059999999999,-2.579355,0.116182,0.9192239999999999,0.376195,0.075144,0.671284,1.374861,-0.11393900000000001,-0.250737,-0.108616
575,2.792065,-1.162562,-2.647516,0.135948,0.9178229999999999,0.372979,0.404991,0.621492,1.28643,-0.24059299999999997,-0.26645599999999997,-0.056251999999999996
576,2.740863,-1.166136,-2.716801,0.153579,0.919236,0.36251,0.8206620000000001,0.643972,1.165391,-0.26240399999999997,-0.199296,-0.028938
577,2.69314,-1.176433,-2.785493,0.16658399999999998,0.923241,0.346223,1.109585,0.81339,0.9054780000000001,-0.227345,-0.14987999999999999,0.031677
578,2.646045,-1.189858,-2.853683,0.176789,0.928316,0.327063,1.2272889999999999,0.792071,0.806983,-0.37651100000000004,-0.076418,0.120859
579,2.598449,-1.204943,-2.920014,0.184891,0.9338190000000001,0.306257,1.26165,0.627692,0.592721,-0.379242,-0.020809,0.194537
580,2.5473939999999997,-1.2202030000000001,-2.983117,0.192279,0.939169,0.284582,1.223178,0.25864899999999996,0.47435200000000005,-0.325763,0.16126400000000002,0.26462800000000003
581,2.4972060000000003,-1.236009,-3.038411,0.197371,0.9444799999999999,0.262676,1.138352,0.073736,0.170622,-0.223784,0.362694,0.318181
582,2.474598,-1.2504680000000001,-3.070894,0.19478900000000002,0.949132,0.24739099999999997,0.674776,0.5879489999999999,-0.147333,-0.058679999999999996,0.560954,0.45259099999999997
583,2.4972849999999998,-1.2569629999999998,-3.063535,0.185419,0.9511569999999999,0.246811,-0.09830599999999999,0.962134,-0.34442399999999995,-0.092295,0.491821,0.682541
584,2.5511009999999996,-1.254506,-3.03178,0.173176,0.9503959999999999,0.258368,-0.46119099999999996,1.211433,-0.302413,-0.016362,-0.008348999999999999,0.5385979999999999
585,2.585472,-1.251693,-3.013314,0.165606,0.949517,0.266436,-0.08021,0.557059,-0.026517000000000002,0.286817,-0.258859,0.12144200000000001
586,2.57101,-1.254884,-3.039037,0.167804,0.9505129999999999,0.261463,0.5552159999999999,0.586399,0.34321599999999997,0.289273,-0.323331,0.06242
587,2.538791,-1.264648,-3.09024,0.17087,0.953501,0.24826399999999998,1.066663,0.985936,0.41784799999999994,0.19381500000000002,-0.542445,0.0017510000000000002
588,2.478814,-1.2824010000000001,3.1076099999999998,0.174999,0.958702,0.22419499999999998,1.584827,1.023087,0.534651,0.44339399999999995,0.466149,-0.143033
589,2.421552,-1.294274,3.026438,0.180024,0.9620110000000001,0.20524,0.7762140000000001,1.154247,0.403853,0.612304,0.8631690000000001,-0.033333999999999996
590,2.432594,-1.294838,3.0113369999999997,0.177394,0.9621649999999999,0.206804,-0.019566999999999998,1.333976,-0.161684,0.763997,1.14245,0.140685
591,2.48033,-1.303858,3.027144,0.161987,0.964583,0.208175,0.430856,1.83942,-0.411286,0.284775,-1.039138,-0.23856999999999998
592,2.4792680000000002,-1.316388,2.98665,0.154763,0.9678120000000001,0.198455,1.004292,1.9453770000000001,0.298678,0.458045,-1.16906,-0.29728699999999997
593,2.413373,-1.327015,2.882448,0.16064,0.970432,0.180147,1.373614,1.50013,0.767573,0.476842,-0.981876,-0.203401
594,2.3013209999999997,-1.344044,2.72954,0.167441,0.974402,0.150004,2.1128259999999996,2.419964,0.534413,-0.137045,0.8525940000000001,-0.256312
595,2.209708,-1.364666,2.566057,0.164293,0.97883,0.122046,1.851191,3.6739949999999997,0.178465,0.048354,0.603537,-0.434515
596,2.153838,-1.383432,2.443416,0.15548800000000002,0.982499,0.102549,1.307325,2.65999,-0.18295699999999998,0.046538,-0.127869,0.015005000000000001
597,2.073154,-1.395778,2.329429,0.152604,0.9847229999999999,0.08383600000000001,1.262548,1.115164,0.165882,0.12165799999999999,-0.332944,0.196667
598,1.927831,-1.405406,2.15386,0.154244,0.9863540000000001,0.057536000000000004,1.690939,1.6932740000000002,0.14463199999999998,0.043539999999999995,-0.175731,-0.098476
599,1.7667080000000002,-1.410571,1.948105,0.156477,0.987191,0.031054000000000002,1.5917299999999999,2.2812069999999998,0.255349,-0.032011000000000005,-0.084909,-0.239275
600,1.6488049999999999,-1.405995,1.779332,0.163547,0.986451,0.012784,1.1593200000000001,2.447939,0.492465,-0.115131,-0.003266,-0.25445300000000004
601,1.5722639999999999,-1.396575,1.6553080000000002,0.17333199999999999,0.9848620000000001,0.000254,0.9930979999999999,2.253591,0.48728,-0.172691,0.178682,-0.036784
602,1.506334,-1.387808,1.54291,0.181582,0.9833040000000001,-0.011720999999999999,1.021053,2.199561,0.385004,-0.217165,0.154498,0.10538
603,1.442187,-1.379501,1.433885,0.188551,0.981759,-0.024384,1.046926,2.123318,0.24855,-0.203505,0.134132,0.057343
604,1.389292,-1.372934,1.337248,0.19333599999999998,0.9804889999999999,-0.035482,0.8974790000000001,2.026151,0.16858299999999998,-0.205909,0.11349000000000001,-0.0020239999999999998
605,1.355798,-1.365992,1.2658639999999999,0.198685,0.979101,-0.043388,0.72097,1.744225,0.2286,-0.163178,0.006113,0.020255000000000002
606,1.332911,-1.357172,1.206659,0.206025,0.977269,-0.049956,0.689581,1.749237,0.33412800000000004,-0.131165,0.0068920000000000006,0.056867999999999995
607,1.316793,-1.34693,1.157351,0.21486999999999998,0.9750469999999999,-0.055783000000000006,0.624279,1.515955,0.387382,-0.130901,-0.001322,0.059384000000000006
608,1.303266,-1.33631,1.111793,0.224072,0.972634,-0.06141799999999999,0.643727,1.550057,0.367178,-0.011334,0.05966900000000001,0.102495
609,1.288527,-1.3261459999999998,1.063872,0.232625,0.9702219999999999,-0.067464,0.707022,1.58304,0.322712,0.031320999999999995,0.021233000000000002,0.063558
610,1.270455,-1.314945,1.012724,0.241734,0.967448,-0.07486799999999999,0.7865770000000001,1.543094,0.386344,-0.04514,0.031774000000000004,0.07018300000000001
611,1.258033,-1.302753,0.9686670000000001,0.25199099999999997,0.964291,-0.081488,0.682736,1.5017610000000001,0.42306000000000005,-0.20723699999999998,0.162693,0.07369099999999999
612,1.253555,-1.292082,0.9355370000000001,0.261385,0.96141,-0.08582100000000001,0.54777,1.2693889999999999,0.309183,-0.257967,0.216218,0.13455699999999998
613,1.2483389999999999,-1.284095,0.9064610000000001,0.26821,0.959182,-0.089614,0.484303,1.071798,0.22674,-0.151312,0.17418,0.26977399999999996
614,1.24928,-1.277091,0.883494,0.274661,0.9571780000000001,-0.09148200000000001,0.38258400000000004,1.2552709999999998,0.25356799999999996,-0.07616,0.18221099999999998,0.319159
615,1.265196,-1.270168,0.8718299999999999,0.282396,0.955151,-0.089091,0.19758699999999998,1.417759,0.272364,-0.135179,0.278355,0.287165
616,1.292802,-1.265427,0.86841,0.289098,0.953736,-0.082504,0.088947,1.605987,0.181633,-0.119054,0.313827,0.24218699999999999
617,1.327758,-1.262766,0.869942,0.294267,0.952933,-0.07296,-0.06919600000000001,1.718677,0.10988099999999999,-0.079286,0.310404,0.224908
618,1.386722,-1.263671,0.893601,0.29720799999999997,0.9532069999999999,-0.055335,-0.565016,1.87651,-0.035858,-0.12328800000000001,0.392085,0.064536
619,1.482236,-1.269911,0.9539049999999999,0.295199,0.955075,-0.026211,-1.148765,1.8400880000000002,-0.278102,-0.184817,0.412418,-0.02814
620,1.612459,-1.279621,1.056937,0.28682399999999997,0.957907,0.011956999999999999,-1.715739,1.457567,-0.563583,-0.137517,0.379312,0.172125
621,1.777982,-1.290195,1.196376,0.27100599999999997,0.960889,0.056965999999999996,-1.9326599999999998,1.8046360000000001,-0.855031,0.188192,0.336154,0.5323439999999999
622,1.966343,-1.2947170000000001,1.343077,0.25153400000000004,0.962131,0.105029,-1.776441,2.715573,-0.7557619999999999,0.276527,0.284649,0.5337350000000001
623,2.155042,-1.2913540000000001,1.473711,0.23006500000000002,0.961209,0.152132,-1.618417,3.2984690000000003,-0.674221,0.179786,0.116092,-0.11056700000000001
624,2.337151,-1.283558,1.603516,0.204101,0.9590299999999999,0.196472,-1.683066,2.365723,-0.992875,-0.14968800000000002,0.109345,-0.380081
625,2.503539,-1.2732139999999998,1.7493759999999998,0.17464200000000002,0.956048,0.23551799999999998,-1.881834,0.798503,-1.303108,-0.39829000000000003,0.16146,-0.272337
626,2.6533740000000003,-1.249672,1.8989939999999998,0.148046,0.948881,0.27875300000000003,-2.379116,0.292128,-1.312342,-0.08458500000000001,0.171602,-0.18343199999999998
627,2.7930580000000003,-1.2144549999999998,2.038011,0.11913800000000001,0.9371790000000001,0.327869,-2.597336,0.50966,-1.4434,0.215152,0.182068,0.035473000000000005
628,2.919498,-1.172504,2.1595459999999997,0.08543099999999999,0.921724,0.378316,-2.716845,0.71886,-1.707285,0.283572,0.35893,0.19936600000000002
629,3.039384,-1.12532,2.266727,0.043963999999999996,0.9024059999999999,0.42863599999999996,-2.580932,1.168408,-1.8254849999999998,0.344052,0.19558599999999998,0.037841
630,3.139886,-1.080174,2.358316,0.0008039999999999999,0.8820399999999999,0.47117200000000004,-2.2689310000000003,0.835759,-2.024773,0.348317,0.179789,-0.274623
631,-3.061121,-1.0291709999999998,2.44121,-0.041441000000000006,0.856872,0.5138590000000001,-2.6795,0.240221,-2.189247,0.28057600000000005,0.116532,-0.309284
632,-3.009907,-0.96557,2.502128,-0.074706,0.8223729999999999,0.56402,-3.064734,-0.126361,-1.824,0.166197,0.138259,-0.061288999999999996
633,-2.991403,-0.902012,2.538775,-0.09277200000000001,0.784576,0.613051,-2.961672,-0.9191229999999999,-1.331951,-0.037507,0.15503,-0.12936199999999998
634,-3.003501,-0.842304,2.5613099999999998,-0.091642,0.746179,0.659406,-2.811044,-1.731655,-0.998708,-0.041354,0.010381999999999999,-0.253873
635,-3.02639,-0.78645,2.572527,-0.081194,0.70785,0.701678,-2.586516,-1.491048,-0.624639,0.041354,-0.182719,-0.255237
636,-3.054119,-0.7428,2.578573,-0.064349,0.676353,0.7337600000000001,-1.8269810000000002,-1.6855900000000001,-0.318914,0.07403799999999999,-0.18651500000000001,-0.06765299999999999
637,-3.087875,-0.717218,2.581049,-0.040464,0.6572899999999999,0.752549,-0.953525,-1.8097590000000001,-0.127851,0.06953200000000001,-0.16247799999999998,-0.054795
638,-3.124165,-0.708213,2.5802810000000003,-0.013236000000000001,0.6504770000000001,0.759409,-0.12845399999999998,-1.7602,0.082947,0.126639,-0.317241,-0.28251
639,3.120261,-0.716138,2.575413,0.01609,0.6564770000000001,0.754173,0.692191,-1.7903419999999999,0.24895100000000003,0.028710000000000003,-0.6101810000000001,-0.312888
640,3.0811319999999998,-0.738025,2.5642240000000003,0.044701,0.672828,0.738445,1.367531,-1.359907,0.44646499999999995,-0.078789,-0.705757,-0.25397800000000004
641,3.051895,-0.7726029999999999,2.545787,0.06414600000000001,0.698001,0.713216,1.998384,-0.445431,0.581091,-0.16139,-0.786273,-0.30403600000000003
642,3.036028,-0.816609,2.5221970000000002,0.072145,0.7288279999999999,0.680882,2.386172,0.193243,0.634256,-0.080873,-0.8248969999999999,-0.49593100000000007
643,3.022098,-0.8595780000000001,2.492983,0.077815,0.757567,0.648099,2.098179,0.580399,0.7684810000000001,0.171605,-0.5912470000000001,-0.348645
644,3.0118400000000003,-0.9015989999999999,2.461035,0.08026699999999999,0.78432,0.615139,2.217269,0.926357,0.729345,0.291147,0.072766,0.291691
645,3.020044,-0.954174,2.4398,0.070116,0.815836,0.574014,3.383653,1.324127,-0.11973199999999999,-0.203371,1.031759,-0.8479389999999999
646,3.030224,-1.020961,2.435651,0.058075,0.852611,0.519307,2.3973,0.41811099999999995,-0.19703099999999998,0.539643,1.388692,-0.141407
647,3.028854,-1.040972,2.4346360000000002,0.056854999999999996,0.8628959999999999,0.502171,0.9185,-0.023301,-0.150179,0.085876,0.412495,0.023296
648,3.031727,-1.065728,2.432212,0.053052999999999996,0.875141,0.48094799999999993,1.3718299999999999,0.16814,0.066386,0.037157,-0.413868,-0.261633
649,3.0119860000000003,-1.094311,2.40882,0.059279,0.8886120000000001,0.45481000000000005,1.4299469999999999,0.076409,0.57752,0.114748,-0.508501,-0.25153200000000003
650,2.9744,-1.113224,2.360802,0.073517,0.897128,0.435609,0.961832,0.373325,1.056706,0.293015,0.201505,-0.015397
651,2.940307,-1.130522,2.3077389999999998,0.085207,0.9046350000000001,0.41758100000000004,1.1638469999999999,0.785464,0.9112459999999999,0.155211,0.430662,-0.08199400000000001
652,2.9064330000000003,-1.1525370000000001,2.253361,0.094636,0.913797,0.39499,1.3649149999999999,0.803243,0.819692,0.099425,0.467703,-0.117447
653,2.875588,-1.173773,2.204936,0.101648,0.922216,0.37307399999999996,1.233658,0.5798,0.601144,-0.11988299999999999,0.23476599999999997,-0.11816099999999999
654,2.843465,-1.194834,2.1583240000000004,0.107848,0.930155,0.350971,1.2573159999999999,0.557603,0.537245,-0.239425,0.00585,-0.07439
655,2.797434,-1.213054,2.104444,0.118145,0.9366899999999999,0.329625,1.079884,-0.047580000000000004,0.71731,-0.31048200000000004,-0.059294000000000006,-0.136311
656,2.730364,-1.2241229999999999,2.039316,0.135818,0.940508,0.311442,0.8470979999999999,-0.39050100000000004,0.894517,-0.234237,-0.013155000000000002,-0.081493
657,2.653368,-1.229567,1.969413,0.156968,0.9423440000000001,0.295547,0.729554,-0.605534,0.9580649999999999,-0.112382,0.04786,-0.070647
658,2.57528,-1.233109,1.897716,0.177753,0.943523,0.27958299999999997,0.805145,-0.41824799999999995,0.943398,-0.036899,0.044163,0.11977
659,2.49697,-1.2389139999999998,1.816585,0.195786,0.9454309999999999,0.260438,1.125783,0.129469,0.8904559999999999,0.032928,0.067478,0.129424
660,2.419763,-1.247455,1.7306740000000003,0.209946,0.9481790000000001,0.23849099999999998,1.216325,0.215919,0.7713369999999999,0.0008849999999999999,0.100145,0.019871
661,2.338946,-1.253565,1.6408189999999998,0.224343,0.950103,0.216734,1.203163,0.21246199999999998,0.848161,-0.161232,0.120744,-0.081755
662,2.250795,-1.256435,1.54514,0.240431,0.950994,0.194426,1.1702649999999999,0.046264,0.880191,-0.238661,0.175623,-0.083495
663,2.165568,-1.2563440000000001,1.458509,0.25618,0.950966,0.17330299999999998,1.0189270000000001,-0.29248,0.741768,-0.368683,0.344612,0.171301
664,2.085868,-1.2557559999999999,1.385319,0.26965300000000003,0.950784,0.152633,0.8979739999999999,-0.569334,0.551134,-0.382156,0.344794,0.191971
665,2.0188479999999998,-1.252343,1.32651,0.282192,0.9497209999999999,0.13563699999999998,0.594788,-0.542986,0.618417,-0.23794099999999999,0.061403,0.247344
666,1.973396,-1.243689,1.288273,0.295614,0.946976,0.125891,0.273291,-0.366176,0.637309,-0.126608,-0.012343999999999999,0.26606199999999997
667,1.954661,-1.234206,1.271743,0.306233,0.943886,0.123688,-0.09133200000000001,-0.005222,0.46445200000000003,-0.137227,-0.009255,0.26826500000000003
668,1.975444,-1.225115,1.2881209999999998,0.311471,0.940845,0.133398,-0.619681,0.41941300000000004,0.226277,-0.017846,0.001217,0.254954
669,2.03091,-1.215541,1.333439,0.311654,0.937558,0.154452,-1.0920239999999999,0.7691020000000001,0.033454000000000005,-0.184319,0.143039,0.041486
670,2.120591,-1.2037870000000002,1.410248,0.305944,0.9334049999999999,0.18748900000000002,-1.6744880000000002,0.959817,-0.26782399999999995,-0.257741,0.230093,-0.021381999999999998
671,2.231749,-1.192687,1.5071139999999998,0.291418,0.929364,0.22661599999999998,-1.7347290000000002,1.081272,-0.751237,-0.234854,0.320819,-0.010520999999999999
672,2.3615,-1.188725,1.616061,0.262234,0.927894,0.265032,-1.6037700000000001,1.7441119999999999,-1.4561979999999999,0.06578400000000001,0.300087,0.19859100000000002
673,2.515206,-1.190334,1.738893,0.217691,0.928493,0.300846,-1.264253,2.023993,-1.9444990000000002,0.171347,0.358982,0.132138
674,2.668812,-1.190782,1.864584,0.168908,0.928659,0.330241,-1.249851,1.6469189999999998,-1.96528,0.157081,0.279196,-0.201792
675,2.801806,-1.1749969999999998,1.985987,0.128496,0.922689,0.36349899999999996,-1.841229,0.632788,-1.72242,0.201903,0.052195000000000005,-0.541401
676,2.9072310000000003,-1.14496,2.102991,0.095926,0.910694,0.40178600000000003,-2.285659,-0.399298,-1.911141,0.118307,0.313992,-0.22667600000000002
677,3.004354,-1.100554,2.2089,0.061988,0.891458,0.44883900000000004,-2.695452,0.537507,-1.6631029999999998,0.182504,0.167349,0.367476
678,3.0802669999999996,-1.054353,2.279274,0.030262999999999998,0.8695809999999999,0.492859,-2.31492,0.521131,-1.361322,0.363063,0.107119,0.054046000000000004
679,3.129921,-1.0089139999999999,2.339286,0.006218,0.8462540000000001,0.532741,-2.387679,-0.4111,-1.535824,0.356956,0.284636,-0.39074200000000003
680,-3.1123380000000003,-0.959356,2.402327,-0.016791,0.818822,0.573799,-2.488509,-0.658556,-1.902611,0.086524,0.42946899999999993,-0.212273
681,-3.0773040000000003,-0.908488,2.462411,-0.039506,0.788575,0.6136659999999999,-2.3932439999999997,-0.731709,-1.8067799999999998,-0.164855,0.314315,-0.033313
682,-3.061079,-0.8613299999999999,2.5086209999999998,-0.052391999999999994,0.758709,0.649317,-2.1364669999999997,-1.211093,-1.494588,-0.01818,-0.12005299999999999,-0.17985
683,-3.0674189999999997,-0.8225600000000001,2.535354,-0.050417000000000003,0.7328899999999999,0.678475,-1.678389,-1.367874,-0.78082,0.030474,-0.537104,-0.295403
684,-3.088491,-0.795121,2.544739,-0.037163999999999996,0.7139479999999999,0.69921,-1.107881,-1.331688,-0.202178,0.049859,-0.468999,-0.24805300000000002
685,-3.114906,-0.781305,2.5445330000000004,-0.018945,0.704206,0.709741,-0.430353,-1.305238,0.054621,0.031030000000000002,-0.254255,-0.198114
686,3.140167,-0.782932,2.540484,0.001011,0.705361,0.708846,0.396029,-1.255465,0.21094899999999997,-0.006823999999999999,-0.36882800000000004,-0.275146
687,3.1068,-0.7999609999999999,2.5311369999999997,0.024236,0.717329,0.696312,1.107451,-1.368342,0.382705,-0.092138,-0.639967,-0.275276
688,3.072664,-0.82831,2.515025,0.046567000000000004,0.73679,0.674515,1.625365,-0.908291,0.503238,-0.268872,-0.707692,-0.158447
689,3.053925,-0.8643129999999999,2.496022,0.056838,0.760649,0.6466689999999999,1.966537,0.183666,0.46149300000000004,-0.364913,-0.730528,-0.248979
690,3.042941,-0.9057360000000001,2.471336,0.060779999999999994,0.78688,0.614105,2.126231,0.380156,0.7358210000000001,-0.059681,-0.771407,-0.448029
691,3.018466,-0.941558,2.433919,0.07228,0.808476,0.584072,1.688007,0.422343,0.9548969999999999,0.494492,-0.106267,0.041583999999999996
692,3.004779,-0.9752280000000001,2.3989380000000002,0.07651000000000001,0.82783,0.555736,2.23634,0.9366690000000001,0.530779,0.11576600000000001,0.697545,-0.20360899999999998
693,3.000892,-1.033742,2.376417,0.071746,0.8592200000000001,0.50655,2.7363720000000002,0.496436,0.166299,0.265946,0.9951049999999999,-0.285511
694,2.9930470000000002,-1.067898,2.363059,0.07133099999999999,0.876189,0.47665799999999997,1.409337,0.141629,0.002592,-0.04385,0.692185,-0.132786
695,2.9897970000000003,-1.092682,2.3549990000000003,0.069574,0.887864,0.45481400000000005,1.1371200000000001,0.171078,0.066883,0.07292799999999999,-0.212434,-0.138743
696,2.9725639999999998,-1.114906,2.33518,0.074063,0.897869,0.433985,1.202199,0.012979,0.38587,0.221821,-0.251751,-0.068186
697,2.942073,-1.133291,2.298444,0.083973,0.905811,0.415274,0.93995,0.18076,0.745951,0.256802,0.022945,-0.027502
698,2.901335,-1.145957,2.2476380000000002,0.098078,0.9111049999999999,0.400332,0.864289,0.37950900000000004,0.9256969999999999,0.139319,0.204663,-0.052080999999999995
699,2.859742,-1.161007,2.189732,0.110812,0.9172049999999999,0.382693,1.116931,0.599024,0.9560219999999999,-0.024753,0.23829699999999998,-0.173724
700,2.812347,-1.177463,2.127591,0.123921,0.923637,0.36268,1.133268,0.356403,0.876331,-0.178365,0.195183,-0.164148
701,2.759312,-1.19089,2.067679,0.13833399999999998,0.9286989999999999,0.344063,0.957099,0.01218,0.797561,-0.26418800000000003,0.156384,-0.10595
702,2.703511,-1.201317,2.0124299999999997,0.15319100000000002,0.932516,0.327025,0.84085,-0.336335,0.675416,-0.23831999999999998,0.09676599999999999,-0.06079
703,2.6458009999999996,-1.2090299999999998,1.9606569999999999,0.168372,0.9352729999999999,0.311309,0.722661,-0.542501,0.65349,-0.19248099999999999,0.0021969999999999997,-0.085327
704,2.583945,-1.2155719999999999,1.905719,0.184052,0.9375680000000001,0.295107,0.813421,-0.50031,0.679707,-0.211747,-0.024544,-0.053027
705,2.514593,-1.2213479999999999,1.8422439999999998,0.200879,0.9395620000000001,0.277254,0.906859,-0.49042399999999997,0.790374,-0.11741300000000002,0.038099,0.10043099999999999
706,2.435206,-1.2266709999999998,1.765779,0.21898499999999999,0.941371,0.256643,1.0888440000000001,-0.23586700000000002,0.909892,-0.02355,0.203969,0.092325
707,2.34782,-1.232736,1.6738549999999999,0.236473,0.9434,0.23254499999999997,1.384554,0.040081,0.909467,0.016381,0.350653,-0.008531
708,2.2511740000000002,-1.237735,1.572092,0.254139,0.9450459999999999,0.205671,1.4093440000000002,-0.090175,0.961082,-0.037235000000000004,0.430442,-0.10366600000000001
709,2.1461799999999998,-1.238704,1.466178,0.27352600000000005,0.945362,0.177406,1.406868,-0.40442,0.960399,-0.163983,0.454204,-0.075767
710,2.0424279999999997,-1.236716,1.370472,0.292103,0.9447120000000001,0.148978,1.248143,-0.7526149999999999,0.794162,-0.256474,0.3113,0.090173
711,1.952459,-1.23407,1.290491,0.306625,0.9438409999999999,0.12306199999999999,1.057157,-0.711753,0.598359,-0.27064499999999997,0.097586,0.22521999999999998
712,1.886377,-1.23025,1.2337989999999999,0.317506,0.942572,0.103663,0.661387,-0.578883,0.481125,-0.300111,-0.057562999999999996,0.273854
713,1.846543,-1.223234,1.2041629999999999,0.32773800000000003,0.940206,0.092735,0.18536,-0.611355,0.489592,-0.313258,-0.088475,0.295448
714,1.839768,-1.212548,1.206382,0.33802600000000005,0.9365120000000001,0.093177,-0.40637199999999996,-0.272723,0.5010479999999999,-0.365659,-0.179722,0.383569
715,1.870701,-1.201059,1.235213,0.34523899999999996,0.932422,0.10675899999999999,-0.7551800000000001,0.513253,0.32028,-0.336084,-0.193409,0.368171
716,1.935195,-1.193008,1.281066,0.344644,0.929483,0.131459,-1.045197,1.400872,-0.021509999999999998,-0.17794200000000002,-0.094644,0.073696
717,2.0341549999999997,-1.1867940000000001,1.350162,0.33513000000000004,0.9271729999999999,0.167444,-1.48126,1.857493,-0.34667600000000004,-0.161821,0.09107699999999999,-0.23111900000000002
718,2.1520650000000003,-1.178549,1.4451969999999998,0.319484,0.9240520000000001,0.209896,-1.834513,1.245468,-0.699804,-0.102306,0.193272,-0.201519
719,2.272338,-1.174075,1.550033,0.295148,0.922333,0.24937800000000002,-1.650553,1.298067,-1.22522,0.286792,0.603699,0.35538800000000004
720,2.405839,-1.1771340000000001,1.654526,0.25743299999999997,0.92351,0.284352,-1.157465,2.088545,-1.662896,0.31887600000000005,0.661863,0.041698
721,2.537897,-1.1850379999999998,1.7608169999999999,0.21359899999999998,0.9265129999999999,0.309754,-0.8568389999999999,1.3405610000000001,-1.8830959999999999,0.205026,0.454163,-0.286454
722,2.660908,-1.185308,1.873536,0.173862,0.926615,0.333401,-1.342235,0.763301,-1.7586279999999999,0.0993,0.14951099999999998,-0.361141
723,2.791691,-1.167561,1.998679,0.134515,0.919796,0.36861900000000003,-1.98158,0.71954,-1.9820240000000002,0.031042,0.343296,-0.17063699999999998
724,2.920775,-1.138262,2.1309080000000002,0.09181,0.907906,0.408995,-2.243887,0.31114400000000003,-2.188431,0.024736,0.077323,0.367525
725,3.021458,-1.099237,2.234718,0.054443,0.890861,0.45100100000000004,-2.2488080000000004,0.386018,-1.728158,0.306763,0.004158,0.080996
726,3.089667,-1.059879,2.309648,0.025379,0.872296,0.48831800000000003,-2.112491,-0.183045,-1.5288549999999999,0.249615,0.15578,-0.41207
727,3.133188,-1.015585,2.3747849999999997,0.00443,0.8497889999999999,0.527104,-2.326848,-0.787837,-1.6801970000000002,0.070613,0.216602,-0.171514
728,-3.1142819999999998,-0.9695739999999999,2.437652,-0.015446000000000001,0.8246450000000001,0.5654399999999999,-2.2462169999999997,-0.9211469999999999,-1.712578,-0.045192,0.08494700000000001,-0.08549
729,-3.09717,-0.924739,2.486364,-0.026736000000000003,0.7984640000000001,0.601449,-2.145474,-1.25604,-1.434776,-0.036069,-0.09300399999999999,-0.180764
730,-3.093675,-0.8831549999999999,2.5246880000000003,-0.030402999999999996,0.772745,0.633987,-1.9326020000000002,-1.355795,-1.182129,-0.027657,-0.391032,-0.25679
731,-3.101223,-0.8478620000000001,2.551125,-0.026701,0.749868,0.661048,-1.587741,-1.401108,-0.8057840000000001,0.050001,-0.502691,-0.300788
732,-3.117572,-0.820873,2.568143,-0.01637,0.731741,0.6813859999999999,-1.16897,-1.453842,-0.502621,0.10711400000000001,-0.382346,-0.23941500000000002
733,-3.139305,-0.803323,2.578539,-0.001588,0.7196670000000001,0.694317,-0.680167,-1.428756,-0.27384400000000003,0.094163,-0.330721,-0.23695
734,3.120949,-0.7964600000000001,2.583555,0.014434,0.714885,0.6990930000000001,-0.13702899999999998,-1.25125,-0.113249,0.05934299999999999,-0.352138,-0.268398
735,3.098055,-0.800771,2.5833310000000003,0.030299,0.717893,0.695493,0.41225200000000006,-1.104766,0.074134,-0.07598400000000001,-0.546934,-0.298658
736,3.072568,-0.814391,2.5767919999999997,0.047335,0.727308,0.6846770000000001,0.866553,-0.974952,0.250193,-0.252566,-0.51753,-0.16335999999999998
737,3.051512,-0.837643,2.565306,0.060202,0.7430680000000001,0.666503,1.3631469999999999,-0.340916,0.303056,-0.347647,-0.411204,-0.127349
738,3.042854,-0.867223,2.5522400000000003,0.063775,0.762536,0.643795,1.586135,0.126002,0.294401,-0.185448,-0.452507,-0.11901500000000001
739,3.030768,-0.8950299999999999,2.5352759999999996,0.069178,0.7802279999999999,0.621658,1.237298,0.032925,0.429884,0.0109,-0.24145500000000003,0.098298
740,3.020351,-0.917585,2.5216819999999998,0.073503,0.794136,0.603278,1.161318,0.054092999999999995,0.263752,0.13719,0.897926,0.263863
741,3.014008,-0.953199,2.513852,0.073681,0.815272,0.574372,2.390724,-0.131404,-0.23376,0.393375,1.0285090000000001,-0.30851799999999996
742,3.007148,-0.9933559999999999,2.5096700000000003,0.07317,0.8378629999999999,0.540955,1.327012,-0.182794,-0.046708,0.087261,0.13809000000000002,0.032820999999999996
743,3.001081,-1.017325,2.504986,0.073616,0.8507049999999999,0.520463,1.497535,0.05613099999999999,-0.004162,-0.015785,-0.439191,-0.333543
744,2.993001,-1.053801,2.491629,0.073175,0.869308,0.488824,1.9320119999999998,0.252195,0.138558,0.12726500000000002,-0.254654,-0.099221
745,2.973954,-1.085473,2.461468,0.077837,0.884524,0.459955,1.48738,0.394242,0.698224,0.261137,0.336606,-0.023934999999999998
746,2.939922,-1.111521,2.413442,0.088796,0.896374,0.43431499999999995,1.538345,0.46599399999999996,0.825606,0.175548,0.454975,-0.18579500000000002
747,2.9024959999999997,-1.1348850000000001,2.363038,0.099996,0.906485,0.410225,1.206071,0.340468,0.80315,0.070414,0.28347100000000003,-0.15218399999999999
748,2.865406,-1.150383,2.3162409999999998,0.111295,0.9129200000000001,0.392671,0.9491350000000001,0.283169,0.703152,-0.035367,0.057859,0.025419999999999998
749,2.8295209999999997,-1.166776,2.268333,0.120699,0.919488,0.37413,1.159223,0.48702399999999996,0.6904710000000001,-0.05166900000000001,-0.015144999999999999,-0.036819
750,2.787254,-1.186491,2.2102880000000003,0.130084,0.927059,0.351624,1.345,0.587299,0.761075,-0.064441,0.039524000000000004,-0.125
751,2.733932,-1.205303,2.142341,0.1417,0.933948,0.328121,1.29155,0.39864,0.8335819999999999,-0.11137999999999999,0.075696,-0.193401
752,2.667082,-1.21805,2.068931,0.157849,0.938427,0.307307,1.020033,-0.096152,0.929525,-0.186048,0.099643,-0.180674
753,2.5893610000000002,-1.2247379999999999,1.9948849999999998,0.17793599999999998,0.940717,0.288772,0.8845129999999999,-0.569754,0.935594,-0.211856,0.074054,-0.076248
754,2.50038,-1.231715,1.913344,0.198962,0.943061,0.26655100000000004,1.1991370000000001,-0.6102,0.920752,-0.13611099999999998,0.046441,-0.073268
755,2.397396,-1.241263,1.8150979999999999,0.2192,0.9461930000000001,0.23805,1.512667,-0.36748800000000004,0.957882,0.000297,0.043414999999999995,-0.08404400000000001
756,2.280943,-1.248291,1.700593,0.24032699999999999,0.9484440000000001,0.20663,1.623446,-0.551475,1.051827,0.134947,0.187298,-0.019556999999999998
757,2.141286,-1.2529059999999999,1.565962,0.26306399999999996,0.9498969999999999,0.168798,1.933124,-0.482275,1.060311,0.118619,0.342461,-0.10642
758,2.000433,-1.251955,1.4255280000000001,0.284978,0.949599,0.130572,1.825164,-0.47253199999999995,1.115092,-0.05631,0.384294,-0.047594
759,1.866027,-1.244404,1.298351,0.306755,0.947205,0.09329,1.756545,-0.6635770000000001,0.9984209999999999,-0.23133099999999998,0.294631,0.132891
760,1.7464979999999999,-1.2350379999999999,1.181347,0.324412,0.944161,0.057593,1.677654,-0.326069,0.8468190000000001,-0.257792,0.23368000000000003,0.184777
761,1.6524560000000001,-1.223918,1.08938,0.33883,0.9404379999999999,0.02773,1.279667,-0.45734600000000003,0.7213609999999999,-0.275338,0.13150699999999999,0.341792
762,1.591429,-1.209041,1.034823,0.35384,0.935277,0.0073019999999999995,0.6948489999999999,-0.394984,0.817609,-0.419117,0.053477,0.532569
763,1.5695270000000001,-1.193932,1.011889,0.368005,0.929823,-0.00046699999999999997,0.25632699999999997,0.186554,0.690955,-0.46988800000000003,0.012361,0.49660699999999997
764,1.580165,-1.184134,1.01253,0.37708200000000003,0.9261729999999999,0.0035329999999999997,-0.184912,0.669859,0.357173,-0.403403,-0.056010000000000004,0.302421
765,1.6213629999999999,-1.180922,1.03859,0.37958600000000003,0.9249569999999999,0.019211000000000002,-0.709286,0.945679,0.034827,-0.370873,0.012391,0.13942000000000002
766,1.699488,-1.180906,1.101769,0.376943,0.924951,0.048779,-1.524448,0.9472870000000001,-0.19305899999999998,-0.403127,0.116599,-0.06869199999999999
767,1.81713,-1.181337,1.2086700000000001,0.368226,0.9251149999999999,0.092587,-2.180972,0.984016,-0.550205,-0.248612,0.12614,-0.036419
768,1.956668,-1.1847969999999999,1.335655,0.348802,0.926423,0.14169600000000002,-2.176262,1.195208,-1.1529200000000002,0.09136799999999999,0.305191,0.310452
769,2.109248,-1.1954930000000001,1.464863,0.314688,0.9303959999999999,0.187972,-1.7211830000000001,1.910842,-1.7552720000000002,0.15061300000000002,0.458825,0.314973
770,2.2716119999999997,-1.2118229999999999,1.594801,0.268513,0.936258,0.22654000000000002,-1.2519129999999998,1.967207,-2.1376939999999998,0.14541199999999999,0.614355,0.17943499999999998
771,2.4220580000000003,-1.2270889999999999,1.7260400000000002,0.22208000000000003,0.9415120000000001,0.253446,-1.061547,0.97334,-2.045361,0.148128,-0.022185,-0.5183840000000001
772,2.57288,-1.222617,1.870439,0.183745,0.939995,0.287481,-2.090184,0.79662,-1.715829,0.21252600000000002,-0.051049000000000004,-0.42760299999999996
773,2.730402,-1.195306,2.0286880000000003,0.146581,0.930328,0.33616,-2.6518900000000003,-0.048358,-1.973975,0.199106,0.183029,-0.265038
774,2.861231,-1.159022,2.178774,0.110746,0.9164120000000001,0.38460900000000003,-2.66375,-0.099356,-1.9974939999999999,0.273958,0.130417,0.289952
775,2.96558,-1.116367,2.280563,0.076862,0.8985120000000001,0.43216800000000005,-2.4986479999999998,0.620146,-1.452469,0.365719,0.134936,-0.005151
776,3.03582,-1.070349,2.3569169999999997,0.050657,0.877368,0.477137,-2.555356,-0.120057,-1.444439,0.391771,0.205258,-0.159281
777,3.095967,-1.022602,2.431129,0.02377,0.853467,0.520605,-2.496543,-0.281522,-1.8753830000000002,0.016253999999999998,0.273273,-0.129583
778,-3.1284669999999997,-0.973201,2.508921,-0.007384999999999999,0.826691,0.562608,-2.516396,-0.426438,-2.114618,-0.03714,0.197784,-0.135957
779,-3.096886,-0.9202469999999999,2.567346,-0.027067,0.795751,0.6050180000000001,-2.625169,-1.010084,-1.51963,-0.051378999999999994,-0.255056,-0.12280899999999999
780,-3.09293,-0.870182,2.601573,-0.03136,0.764447,0.6439239999999999,-2.294266,-1.185822,-1.016097,0.02309,-0.514889,-0.257052
781,-3.106801,-0.828715,2.617481,-0.023508,0.737064,0.6754140000000001,-1.893089,-1.2940260000000001,-0.41281599999999996,0.076334,-0.45238,-0.28623899999999997
782,-3.129162,-0.797135,2.6218150000000002,-0.008686,0.715357,0.698705,-1.351326,-1.237637,-0.066204,0.081653,-0.290567,-0.274831
783,3.1282400000000004,-0.7778149999999999,2.620759,0.009512999999999999,0.701724,0.712385,-0.731112,-1.258466,0.075955,0.080362,-0.342792,-0.275541
784,3.102722,-0.772519,2.6175200000000003,0.02783,0.697941,0.7156140000000001,0.017131999999999998,-1.1079629999999998,0.15149100000000001,0.029939,-0.41861400000000004,-0.288963
785,3.0775740000000003,-0.781125,2.610998,0.04543,0.704079,0.708667,0.680095,-0.927393,0.24134899999999998,-0.14243,-0.52369,-0.21245100000000003
786,3.059114,-0.801373,2.601018,0.05731699999999999,0.718312,0.6933560000000001,1.231218,-0.284953,0.276422,-0.227635,-0.589314,-0.254132
787,3.050073,-0.833399,2.587412,0.061449000000000004,0.740221,0.66955,1.9399380000000002,0.143518,0.40366799999999997,-0.181291,-0.751985,-0.313776
788,3.030677,-0.878467,2.5571759999999997,0.070656,0.7697609999999999,0.634409,2.439899,0.167098,0.998926,0.01429,-0.496659,-0.106485
789,3.005923,-0.9208059999999999,2.516118,0.081853,0.79609,0.599617,2.137106,0.617978,0.927866,0.10918699999999999,0.49675699999999995,0.030021
790,2.98896,-0.970115,2.479127,0.085934,0.82495,0.558635,3.135984,0.445942,0.46077399999999996,0.095432,1.141648,-0.5705520000000001
791,2.972385,-1.033185,2.456418,0.08623600000000001,0.858934,0.5047729999999999,2.6903330000000003,0.0414,-0.01718,0.267356,1.35533,0.146808
792,2.966173,-1.061199,2.452594,0.085136,0.872941,0.480338,1.037593,-0.444111,-0.24601900000000002,-0.067772,0.229064,-0.054862
793,2.958916,-1.087313,2.457766,0.084448,0.885381,0.45713100000000007,1.416459,-0.503675,-0.330891,-0.004264,-0.221227,-0.07051900000000001
794,2.946819,-1.120032,2.4480169999999997,0.08431799999999999,0.900115,0.427415,1.750125,0.062453999999999996,0.061684,0.200899,-0.553557,-0.044786
795,2.924713,-1.151628,2.412557,0.08757999999999999,0.913428,0.397466,1.643736,0.689083,0.624159,0.23073400000000002,-0.119681,-0.101995
796,2.884345,-1.179518,2.351716,0.097028,0.924422,0.368821,1.642204,0.8372139999999999,0.877127,0.23901599999999998,0.129365,-0.076112
797,2.839073,-1.204921,2.284863,0.10658800000000002,0.9338110000000001,0.341519,1.48462,0.845469,0.814059,0.128901,0.47004300000000004,-0.086621
798,2.796911,-1.224631,2.220847,0.114646,0.940681,0.319336,1.163324,0.922723,0.687802,-0.028845999999999997,0.276803,-0.091843
799,2.759302,-1.24004,2.1641060000000003,0.12115,0.9457969999999999,0.30131399999999997,1.023139,0.700022,0.5578529999999999,-0.091883,-0.000225,-0.096419
800,2.712165,-1.2531290000000002,2.1038259999999998,0.130047,0.949967,0.28399,0.946205,0.346027,0.705184,-0.122814,-0.154694,-0.122582
