,attitude.roll,attitude.pitch,attitude.yaw,gravity.x,gravity.y,gravity.z,rotationRate.x,rotationRate.y,rotationRate.z,userAcceleration.x,userAcceleration.y,userAcceleration.z
0,1.5739290000000001,-1.0513629999999998,1.611548,0.496386,0.8681,0.0015550000000000002,-0.027764999999999998,-0.014516999999999999,0.096305,0.019346000000000002,0.030886,0.008607
1,1.573086,-1.051097,1.611145,0.496618,0.8679680000000001,0.001137,-0.031915,-0.0069819999999999995,0.07915900000000001,-0.069464,0.063764,-0.02108
2,1.574466,-1.050255,1.612825,0.497346,0.86755,0.001825,-0.041191000000000005,0.00183,0.01499,-0.073061,0.046252999999999996,-0.026514
3,1.574735,-1.05322,1.614236,0.494771,0.8690209999999999,0.0019489999999999998,-0.07320700000000001,-0.057490999999999993,-0.0418,-0.037023,-0.020236,0.048161
4,1.577461,-1.054274,1.618206,0.49384799999999995,0.869542,0.0032909999999999997,-0.10394,-0.024308,-0.054876,-0.022626,-0.037312,0.048344
5,1.582992,-1.054344,1.624517,0.493762,0.869576,0.006022,-0.14661,-0.008187,-0.047686,0.02345,-0.003472,0.015142
6,1.588385,-1.055112,1.631102,0.493054,0.8699549999999999,0.008673,-0.164824,-0.017740000000000002,-0.040323000000000005,0.044558999999999994,0.063455,-0.041068
7,1.594661,-1.055771,1.63789,0.492417,0.8702799999999999,0.011753,-0.175301,0.035518,-0.029782,0.048583,0.065068,-0.057133
8,1.6087879999999999,-1.056432,1.651168,0.491626,0.870606,0.018687,-0.20629499999999998,0.065316,0.007345,-0.012607,0.011581000000000001,0.062459
9,1.615324,-1.055952,1.657187,0.491911,0.8703690000000001,0.021918,-0.111402,0.06705499999999999,0.022959999999999998,-0.036482,0.023597,0.01365
10,1.620136,-1.05554,1.661548,0.492158,0.870166,0.024303,-0.118932,0.038379,0.007989,-0.040864,0.024075,-0.015559
11,1.626467,-1.056315,1.668141,0.491321,0.870548,0.02738,-0.14027799999999999,0.005561,-0.02417,-0.015094,0.002774,0.010431000000000001
12,1.6312790000000001,-1.056713,1.6735529999999998,0.490838,0.8707440000000001,0.029723000000000003,-0.12958499999999998,0.008728,-0.026236000000000002,0.024543000000000002,0.001632,0.018327
13,1.6359860000000002,-1.056915,1.678808,0.490517,0.870843,0.032022,-0.127504,0.010796,-0.012337,0.024528,0.009604000000000001,0.00878
14,1.640638,-1.056442,1.683719,0.49077299999999996,0.870611,0.034332,-0.12538,0.020329,-0.0005809999999999999,0.011256,0.009745,-0.001068
15,1.645301,-1.056245,1.688824,0.490779,0.8705139999999999,0.036633,-0.12439000000000001,0.005403,0.001582,-0.00323,0.00647,0.008701
16,1.6493380000000002,-1.056051,1.693527,0.490796,0.870418,0.038627,-0.10951099999999998,-0.008493,0.0006349999999999999,-0.011578,0.013203,-0.000556
17,1.6515950000000001,-1.056821,1.69655,0.49003900000000006,0.8707969999999999,0.039681,-0.089189,-0.0021579999999999998,-0.003511,-0.009798999999999999,0.025581,-0.015221
18,1.654355,-1.05683,1.699745,0.48991999999999997,0.870801,0.041032,-0.071033,-0.002204,-0.007657,-0.008215,0.022387,0.0050799999999999994
19,1.657818,-1.057416,1.703343,0.489267,0.8710889999999999,0.042684,-0.057149,0.003072,-0.006503,-0.005029,0.017644,0.013253999999999998
20,1.661689,-1.057583,1.707168,0.48895200000000005,0.871172,0.044565,-0.053979,0.004104,-7.6e-05,0.0010689999999999999,0.015349000000000002,0.01911
21,1.665053,-1.057394,1.7106970000000001,0.488964,0.871078,0.046225,-0.048785,-0.01725,0.008533,0.00919,0.017639,0.011101999999999999
22,1.6677680000000001,-1.056948,1.714003,0.48922299999999996,0.8708600000000001,0.04759,-0.030751999999999998,-0.039675999999999996,0.00762,0.010915000000000001,0.015493,0.014818000000000001
23,1.669082,-1.05677,1.716088,0.489314,0.8707719999999999,0.048248,-0.026451,-0.036470999999999996,0.002305,0.005696,0.010637,0.015763
24,1.6731220000000002,-1.0567549999999999,1.720334,0.489129,0.870764,0.050226,-0.014657,-0.024769,-0.001902,-0.001153,0.006967,0.027884
25,1.6777689999999998,-1.0586280000000001,1.724739,0.487267,0.871684,0.052324,-0.017842,-0.0066549999999999995,-0.000868,-0.017159,0.019231,0.018614
26,1.6806580000000002,-1.059359,1.727654,0.48648,0.872042,0.053661,-0.047671,-0.004383,-0.009631,-0.015258,0.020429,0.021702000000000003
27,1.685957,-1.0609600000000001,1.732934,0.48480200000000007,0.8728239999999999,0.056077999999999996,-0.056143,-0.0032229999999999997,-0.024658000000000003,-0.017333,0.018762,0.020017
28,1.690995,-1.06289,1.737707,0.48283999999999994,0.873765,0.058317999999999995,-0.040048,0.013791999999999999,-0.029921,-0.018393,0.022811,0.021196
29,1.6939259999999998,-1.064354,1.7401490000000002,0.481397,0.874476,0.059576,-0.003746,0.023247999999999998,-0.027551,-0.022626,0.027882999999999998,0.025644999999999998
30,1.6975509999999998,-1.0670469999999999,1.742706,0.47884,0.8757790000000001,0.061022,0.029322000000000004,0.028448,-0.023072,-0.02924,0.02951,0.024137
31,1.6994470000000002,-1.069672,1.743377,0.476441,0.877043,0.061635,0.052905999999999995,0.041208999999999996,-0.036826,-0.023545,0.024339,0.017619
32,1.6993669999999998,-1.0715860000000001,1.741682,0.47478100000000006,0.8779610000000001,0.061382000000000006,0.069114,0.071046,-0.052780999999999995,-0.005787,0.008865000000000001,0.002614
33,1.6991990000000001,-1.072893,1.739566,0.473653,0.8785860000000001,0.061154999999999994,0.054201,0.091325,-0.068871,0.008296,0.006363000000000001,0.001727
34,1.699978,-1.073993,1.7380490000000002,0.472646,0.8791110000000001,0.061399,0.027722000000000004,0.119174,-0.08404299999999999,0.018687,0.006662,-0.00131
35,1.7029020000000001,-1.074799,1.738547,0.471762,0.879495,0.062688,0.0032619999999999997,0.117211,-0.104499,0.022424,-0.0104,0.008357
36,1.705686,-1.0758459999999999,1.7392330000000003,0.470674,0.879992,0.063877,-0.020228,0.107726,-0.109984,0.018127,-0.012988,-0.009174
37,1.708477,-1.077523,1.740388,0.46903100000000003,0.8807879999999999,0.064988,-0.049044,0.099324,-0.11551199999999999,0.022638,-0.004811,-0.035339999999999996
38,1.713214,-1.079742,1.743579,0.466782,0.8818360000000001,0.06693099999999999,-0.063942,0.09941,-0.124162,0.030075,0.002548,-0.039984
39,1.716345,-1.081568,1.745241,0.464976,0.8826959999999999,0.068159,-0.059592,0.111131,-0.12948199999999999,0.035864,0.01182,-0.031201999999999997
40,1.721052,-1.0839450000000002,1.7480490000000002,0.462574,0.883811,0.07003200000000001,-0.040437,0.105717,-0.124001,0.032695999999999996,0.010354,-0.031702
41,1.720909,-1.08536,1.7466709999999999,0.461347,0.8844719999999999,0.069779,-0.012846000000000002,0.08849800000000001,-0.105619,0.026064999999999998,0.008,-0.030364999999999996
42,1.7192479999999999,-1.086545,1.7438509999999998,0.460425,0.885024,0.068857,0.004053,0.07766,-0.075571,0.018655,-0.000106,-0.036204
43,1.7158849999999999,-1.0871879999999998,1.739856,0.46009099999999997,0.885323,0.067226,-0.001526,0.051976999999999995,-0.043525,0.017875,-0.000496,-0.045513
44,1.712952,-1.086941,1.736357,0.460503,0.885208,0.06590800000000001,0.012288,0.052924,-0.027398000000000002,0.027502999999999996,-0.001663,-0.031056999999999998
45,1.711789,-1.0864559999999999,1.734107,0.46100399999999997,0.8849819999999999,0.065433,0.010361,0.074327,-0.050929,0.050379,0.025662,-0.009326000000000001
46,1.713542,-1.086208,1.734014,0.461106,0.884867,0.066272,0.004175,0.10318800000000002,-0.070225,0.032133999999999996,0.023001,0.003095
47,1.716219,-1.087172,1.734225,0.460083,0.885315,0.06738200000000001,0.019209999999999998,0.13505699999999998,-0.06054400000000001,0.029892000000000002,0.023468,0.01291
48,1.7189860000000001,-1.0878700000000001,1.733882,0.459283,0.88564,0.068564,0.030795,0.141251,-0.020945,-0.009332,0.0061909999999999995,0.014719
49,1.718331,-1.088576,1.73118,0.45870900000000003,0.8859670000000001,0.06817100000000001,0.032416,0.072877,0.026149000000000002,-0.045196,-0.013744999999999999,-0.029764999999999996
50,1.718579,-1.087931,1.730474,0.459258,0.885668,0.068369,0.010843,0.031363999999999996,0.036733999999999996,-0.041686,-0.014696,-0.024423
51,1.7182970000000002,-1.0872620000000002,1.729148,0.459863,0.885357,0.068326,0.035549000000000004,0.064318,0.032591,-0.014398,0.009998,0.024096
52,1.721181,-1.0875059999999999,1.729442,0.459451,0.8854709999999999,0.06962,0.036021,0.12416500000000001,-0.014487,0.00041900000000000005,0.037228,0.06250599999999999
53,1.723169,-1.088182,1.7287169999999998,0.45871999999999996,0.885784,0.07044199999999999,0.012718,0.137128,-0.039235,-0.005473,0.01511,0.046303
54,1.727872,-1.089183,1.730633,0.457507,0.886249,0.07246,-0.0032719999999999997,0.123412,-0.057489,0.009656,-0.008745999999999999,0.012211
55,1.7304990000000002,-1.089431,1.7311299999999998,0.45709799999999995,0.8863629999999999,0.073627,-0.004449,0.10422000000000001,-0.052125,0.039560000000000005,0.002156,0.004239
56,1.732996,-1.090091,1.7314,0.45633500000000005,0.886669,0.074673,0.000644,0.116743,-0.023163999999999997,0.020304,0.000675,-0.006543000000000001
57,1.7354,-1.090406,1.7315099999999999,0.455879,0.8868149999999999,0.075725,0.002725,0.114567,-0.013531999999999999,-0.00962,0.023631,-0.016841
58,1.7361259999999998,-1.091696,1.730327,0.45469499999999996,0.88741,0.07586699999999999,-0.00048600000000000005,0.095465,-0.029559,-0.012358,0.035975,-0.026825
59,1.738347,-1.092492,1.7307310000000002,0.453829,0.887777,0.07675900000000001,0.00172,0.096583,-0.0445,-0.022631000000000002,0.04098,-0.027214
60,1.7398240000000003,-1.09344,1.729766,0.45288500000000004,0.8882129999999999,0.077288,0.048806,0.13155999999999998,-0.041011,-0.010472,0.023592,0.007031999999999999
61,1.741257,-1.094911,1.727528,0.45148599999999994,0.8888879999999999,0.07771499999999999,0.091655,0.17719300000000002,-0.034365,-0.010506999999999999,0.01779,0.012251
62,1.7414319999999999,-1.095811,1.7233630000000002,0.450683,0.8893,0.077658,0.10452,0.20160699999999998,-0.023624000000000003,-0.010422,0.016355,0.010523000000000001
63,1.7417790000000002,-1.09655,1.7191900000000002,0.450009,0.8896370000000001,0.077702,0.09809,0.201604,-0.01726,-0.0045590000000000006,0.010081999999999999,0.002483
64,1.742839,-1.0968,1.7158849999999999,0.449708,0.8897510000000001,0.078141,0.094815,0.189881,-0.012991999999999998,0.008834,-0.003978,0.011656999999999999
65,1.7430310000000002,-1.097267,1.711809,0.449283,0.889965,0.07815599999999999,0.09372,0.194103,-0.002323,0.0108,-0.003932,0.017532
66,1.7459310000000001,-1.09711,1.709759,0.449191,0.889893,0.079483,0.085323,0.22821599999999997,-0.00028700000000000004,0.014889,0.02742,0.014022
67,1.7477470000000002,-1.0977270000000001,1.7064759999999999,0.448506,0.890174,0.080202,0.078927,0.233548,0.003932,0.0020859999999999997,0.022469,-0.0007650000000000001
68,1.748464,-1.098027,1.7024650000000001,0.448186,0.8903110000000001,0.08047699999999999,0.084162,0.211159,0.003997,0.005672,0.017526,-0.006884
69,1.748256,-1.098731,1.697868,0.447586,0.890631,0.080273,0.079907,0.20693699999999998,-0.002439,-0.0010220000000000001,0.010919,-0.008495
70,1.7484330000000001,-1.099453,1.6936240000000002,0.44693900000000003,0.8909590000000001,0.080238,0.080996,0.20694899999999997,-0.006706,-0.001397,0.005327,-0.009209
71,1.7491259999999997,-1.099962,1.6899509999999998,0.44643599999999994,0.8911899999999999,0.080468,0.07246699999999999,0.19955499999999998,-0.015302000000000001,0.003439,0.0035549999999999996,-0.007531
72,1.7488540000000001,-1.099441,1.686021,0.44691499999999995,0.8909540000000001,0.080429,0.057371000000000005,0.159143,-0.019621,0.021408,-0.013146000000000001,-0.011871
73,1.746576,-1.097423,1.681434,0.448866,0.890035,0.079725,0.021851,0.101681,-0.0058920000000000005,0.044481,-0.032644,-0.024122
74,1.747595,-1.097333,1.6812919999999998,0.448863,0.8899950000000001,0.080196,-0.005204,0.033529,0.011098,0.056401,-0.041545,-0.026912000000000002
75,1.7482799999999998,-1.096883,1.681936,0.44920299999999996,0.8897889999999999,0.080574,-0.025710000000000004,-0.004804999999999999,0.024891,0.064316,-0.00864,0.002297
76,1.750175,-1.095539,1.683821,0.450225,0.889175,0.081638,-0.02245,0.010095999999999999,0.025967,0.039001999999999995,0.026978,0.024791999999999998
77,1.751343,-1.095198,1.684379,0.450428,0.889019,0.082219,-0.01047,0.046346,0.007845,0.0019039999999999999,0.037006,0.029522000000000003
78,1.754364,-1.09629,1.686086,0.449223,0.889518,0.083402,0.012054,0.055930999999999995,-0.010177,-0.028630000000000003,0.029151999999999997,0.026476999999999997
79,1.754774,-1.096676,1.685445,0.448851,0.8896940000000001,0.083523,0.018441,0.043164,-0.01973,-0.038588,0.021515,0.016651
80,1.754703,-1.0973,1.6845919999999999,0.44831099999999996,0.8899790000000001,0.08338999999999999,0.028027999999999997,0.029325,-0.030327999999999997,-0.02578,0.0054210000000000005,0.012039
81,1.754996,-1.098284,1.6841599999999999,0.44742600000000005,0.8904270000000001,0.083361,0.035437,0.023944,-0.022794,-0.004173,-0.003999,0.009565
82,1.754368,-1.098292,1.682763,0.44747,0.890432,0.083078,0.041798,0.032376,-0.005666,0.016824000000000002,0.007045,0.007909999999999999
83,1.753418,-1.098402,1.6808330000000002,0.447453,0.890481,0.082635,0.042851,0.04297,0.008214,0.019359,0.014868000000000001,0.009772
84,1.752729,-1.0983530000000001,1.678969,0.447553,0.890459,0.082335,0.039679,0.051495000000000006,0.010318,0.012118,0.018827,0.01465
85,1.7533560000000001,-1.098483,1.678191,0.447387,0.890518,0.082594,0.031208999999999997,0.057952,0.001703,-0.003921,0.020736,0.014177
86,1.753698,-1.099221,1.6774040000000001,0.446713,0.890854,0.082628,0.025845,0.039909,-0.010065000000000001,-0.011075,0.015212999999999999,0.004529999999999999
87,1.754289,-1.1004180000000001,1.677196,0.445615,0.8913969999999999,0.082697,0.014103999999999998,0.030397000000000004,-0.018687,-0.011395,0.006232,0.0012720000000000001
88,1.7545680000000001,-1.101193,1.6768720000000001,0.444913,0.891748,0.082695,0.006631999999999999,0.030418999999999998,-0.017672999999999998,-0.00025699999999999996,0.006842,-0.002587
89,1.755067,-1.1014540000000002,1.676797,0.444643,0.8918659999999999,0.082875,0.0033880000000000004,0.025087,-0.013415999999999999,0.00511,0.009455,0.0028640000000000002
90,1.7562419999999999,-1.101568,1.677514,0.444445,0.891918,0.083378,0.0022559999999999998,0.012305,-0.012338,0.0064069999999999995,0.010197,0.006831
91,1.7566119999999998,-1.10189,1.677825,0.44413199999999997,0.8920629999999999,0.08349,0.001141,-0.000466,-0.014466999999999999,0.005285,0.011837,-0.0025570000000000002
92,1.7562380000000002,-1.102156,1.6774790000000002,0.443929,0.892183,0.08327999999999999,0.008595,0.000556,-0.010143000000000001,0.0049689999999999995,0.008589,-0.003018
93,1.756403,-1.10239,1.6773650000000002,0.44371099999999997,0.8922889999999999,0.083315,0.015028999999999999,0.014358000000000001,-0.0037070000000000002,0.000442,0.007522,0.004484
94,1.7573619999999999,-1.103228,1.677745,0.442896,0.892667,0.083601,0.013983,0.020751,-0.00266,-0.010584,0.008777,0.005601
95,1.7579490000000002,-1.1036,1.6776950000000002,0.44251999999999997,0.892834,0.083799,0.007634,0.029308999999999998,-0.005922,-0.008118,0.00867,0.006609
96,1.7586220000000001,-1.104165,1.6776939999999998,0.441968,0.8930889999999999,0.084003,0.007672,0.031466,-0.012336,-0.000638,0.009758,0.0011560000000000001
97,1.758404,-1.103988,1.676975,0.44214200000000003,0.893009,0.083936,0.009754,0.023984000000000002,-0.008036,0.018201,0.010981999999999999,-0.00662
98,1.758139,-1.103787,1.6764150000000002,0.44233999999999996,0.892919,0.083853,5.6999999999999996e-05,0.01226,0.001527,0.019177,0.010447,-0.006520999999999999
99,1.7571599999999998,-1.103149,1.675545,0.442982,0.892631,0.083525,-5.6000000000000006e-05,-0.00588,0.009032,0.017588999999999997,0.006997,-0.006376
100,1.7559779999999998,-1.1027870000000002,1.6745740000000002,0.44339799999999996,0.892468,0.083061,0.009505,-0.011258,0.013378999999999999,0.0029980000000000002,0.015918,-0.003639
101,1.755077,-1.1028040000000001,1.673935,0.443458,0.892476,0.082659,0.009505,-0.017624,0.006977,0.002892,0.021877,-0.0014210000000000002
102,1.755296,-1.103461,1.6743419999999998,0.442862,0.8927719999999999,0.082648,0.011689,-0.013338999999999998,-0.000496,-0.003638,0.01035,0.009942
103,1.7549860000000002,-1.103808,1.674016,0.44258400000000003,0.892928,0.082454,0.017113999999999997,0.000517,-0.006887000000000001,-0.007037000000000001,0.008331999999999999,0.004994
104,1.7546810000000002,-1.104103,1.673586,0.442351,0.8930610000000001,0.082271,0.011770000000000001,0.003711,-0.001588,-0.005582999999999999,0.008459,0.0035600000000000002
105,1.7548810000000001,-1.103998,1.673634,0.44242600000000004,0.893014,0.082376,-0.004243,0.009063,0.005771,0.0059229999999999994,0.008079000000000001,0.004416
106,1.755507,-1.103742,1.6740720000000002,0.44259899999999996,0.892899,0.082695,-0.009573,0.014391999999999999,0.01,0.005842,0.008575,0.002907
107,1.756472,-1.103756,1.674653,0.44250600000000007,0.892905,0.08312,-0.006481999999999999,0.018547,0.007961,-0.007722,0.008020000000000001,0.004801
108,1.757341,-1.1045479999999999,1.675153,0.44173900000000005,0.8932610000000001,0.083374,-0.0075060000000000005,0.01859,-0.0016649999999999998,-0.013577,0.014499000000000001,-0.00238
109,1.7579650000000002,-1.104886,1.675397,0.44138999999999995,0.8934129999999999,0.083593,-0.004233,0.025009,-0.011266,-0.003097,0.012425,-0.002263
110,1.7585790000000001,-1.104833,1.675384,0.44138599999999995,0.893389,0.083873,7.8e-05,0.03352,-0.012313,0.017873,0.007490000000000001,0.000508
111,1.7589,-1.103522,1.675042,0.442508,0.8928,0.084233,0.004301,0.033467000000000004,-0.0026609999999999997,0.026501,0.003929,0.0014449999999999999
112,1.758989,-1.1030440000000001,1.674675,0.44292,0.892584,0.084353,-0.002224,0.017463,0.009067,0.020794,0.005457,-0.002672
113,1.7586849999999998,-1.102474,1.674306,0.443446,0.8923270000000001,0.084313,-0.004453,0.00040899999999999997,0.013349000000000001,0.01766,0.007011,-0.0048909999999999995
114,1.758213,-1.101715,1.674048,0.444151,0.891984,0.08423,-0.001324,-0.014521000000000001,0.014461000000000002,0.011523,0.002593,0.002349
115,1.7576450000000001,-1.101479,1.6738970000000002,0.444406,0.891877,0.084017,-0.002405,-0.024079,0.008056,0.002219,0.001846,-0.001772
116,1.756694,-1.1014,1.6735119999999999,0.44455500000000003,0.891841,0.083607,-0.0056,-0.027247000000000004,0.0037649999999999997,0.002803,0.006474,-0.006504
117,1.755891,-1.101393,1.673384,0.44462700000000005,0.8918379999999999,0.083251,-0.016242,-0.026128,-0.000584,0.008223000000000001,0.013816,-0.006987
118,1.7563810000000002,-1.1010520000000001,1.674425,0.44488599999999995,0.891684,0.083525,-0.026897000000000004,-0.019712,0.0025399999999999997,0.01445,0.007959,0.0035259999999999996
119,1.757595,-1.100352,1.676074,0.44539700000000004,0.891367,0.08418099999999999,-0.022640999999999998,-0.019734,0.0047090000000000005,0.010261,0.0053159999999999995,0.009676
120,1.758117,-1.1004180000000001,1.677026,0.445295,0.8913969999999999,0.08440299999999999,-0.015163999999999999,-0.018690000000000002,0.0036899999999999997,-0.001707,0.016486,0.0009699999999999999
121,1.7582939999999998,-1.100732,1.677587,0.44500500000000004,0.891539,0.08442899999999999,-0.014034,-0.014394999999999998,-0.0059229999999999994,-0.005247,0.017656,-0.002307
122,1.7582389999999999,-1.10097,1.6779,0.44480200000000003,0.891647,0.084365,-0.0172,-0.007988,-0.007023000000000001,0.006096,0.006821,-0.0030510000000000003
123,1.758629,-1.100507,1.6784759999999999,0.44517399999999996,0.891437,0.084616,-0.015090000000000001,-0.003773,0.0026030000000000003,0.013687999999999999,0.0030789999999999997,0.00358
124,1.759448,-1.100166,1.67936,0.445403,0.891283,0.085037,-0.015125,-0.002741,0.011148,0.008256,0.00865,0.009781
125,1.760202,-1.10008,1.680321,0.44541400000000003,0.891244,0.085388,-0.013055,-0.016596,0.011179000000000001,-0.004069,0.009818,0.001954
126,1.759628,-1.1002459999999998,1.680333,0.445317,0.8913190000000001,0.085104,-0.010953000000000001,-0.026182999999999998,0.009067,-0.003667,0.009101999999999999,-0.007940000000000001
127,1.7590150000000002,-1.100109,1.6802549999999998,0.44548999999999994,0.891257,0.084854,-0.002393,-0.021948,0.008053,0.010854,0.015802,0.004944
128,1.758882,-1.099821,1.6802849999999998,0.445754,0.891126,0.084843,0.008327,-0.006022,0.012381,0.012086,0.016055,0.011547
129,1.759196,-1.0995620000000002,1.6804580000000002,0.445953,0.891009,0.085026,0.008362999999999999,0.002501,0.01237,0.005478,0.011946,0.008053
130,1.7594459999999998,-1.0998629999999998,1.680562,0.445668,0.8911450000000001,0.085087,0.0071920000000000005,-0.001834,0.0038929999999999998,-0.002141,0.010893,0.0011710000000000002
131,1.759479,-1.100033,1.680721,0.445517,0.891222,0.085073,-0.004549,-0.008163,-0.001523,-0.001547,0.013394999999999999,0.003367
132,1.7604400000000002,-1.099875,1.6816520000000001,0.44557299999999994,0.891151,0.08552799999999999,0.001864,-0.0007440000000000001,0.002786,0.009703,0.006814,0.012327
133,1.7614759999999998,-1.0991819999999999,1.682393,0.44609099999999996,0.8908360000000001,0.086107,0.010366,0.00663,0.016725,0.0034939999999999997,0.003512,0.008803
134,1.7612970000000001,-1.09893,1.6820560000000002,0.446326,0.8907219999999999,0.086069,0.007137,0.002372,0.018844,-0.001075,0.009944,0.00498
135,1.761134,-1.099094,1.6819560000000002,0.446197,0.8907959999999999,0.085969,-0.001407,-0.008217,0.010249,-0.003478,0.017819,-0.001526
136,1.761266,-1.0991469999999999,1.6822119999999998,0.446139,0.8908200000000001,0.08601900000000001,-0.000303,-0.003942,0.0059770000000000005,0.0057350000000000005,0.005802000000000001,0.006389
137,1.761425,-1.0989209999999998,1.682316,0.44632299999999997,0.890718,0.086128,0.002921,0.003496,0.008126999999999999,0.006848000000000001,0.004622,0.008126000000000001
138,1.7621069999999999,-1.098652,1.6827400000000001,0.4465,0.890595,0.086478,0.008172,0.009696999999999999,0.011418000000000001,0.003039,0.008895,0.011117
139,1.762978,-1.0991790000000001,1.6832060000000002,0.445963,0.890835,0.08677699999999999,0.015657,0.00969,0.0071920000000000005,-0.00535,0.023365,0.009658
140,1.762952,-1.099382,1.682857,0.445788,0.890927,0.08673099999999999,0.025238,0.005396,0.0072629999999999995,-0.00281,0.026447000000000002,0.015839
141,1.763697,-1.0994760000000001,1.683073,0.445641,0.89097,0.087047,0.043293,0.0042060000000000005,0.023411,-0.005151,0.011695,0.027302999999999997
142,1.764204,-1.098615,1.6832580000000001,0.44635,0.8905780000000001,0.08742,0.048428,-0.025687,0.036305000000000004,0.000321,-0.023574,0.015591999999999998
143,1.761238,-1.097893,1.6812639999999999,0.447238,0.89025,0.08621799999999999,0.030133,-0.078815,0.018088,0.01225,-0.014502000000000001,0.001627
144,1.757636,-1.097015,1.679887,0.44831400000000005,0.889849,0.08475099999999999,-0.015711000000000003,-0.11258299999999999,-0.022774000000000003,0.046574000000000004,0.014371,-0.013522999999999999
145,1.7567700000000002,-1.0979510000000001,1.681554,0.44756899999999994,0.8902760000000001,0.084209,-0.03689,-0.119795,-0.06564199999999999,0.076159,0.002424,0.016804
146,1.757291,-1.097776,1.6845139999999998,0.44767799999999996,0.8901959999999999,0.084471,-0.050762,-0.10397,-0.075296,0.06080599999999999,-0.025602999999999997,0.021486
147,1.758029,-1.098803,1.6875580000000001,0.44671700000000003,0.8906639999999999,0.084631,-0.062545,-0.096545,-0.057227999999999994,0.030349,-0.024361,0.007684000000000001
148,1.759135,-1.09954,1.690825,0.445978,0.890999,0.085003,-0.06790299999999999,-0.090181,-0.045523,0.009726,-0.020027,-0.00262
149,1.760114,-1.100058,1.693972,0.445441,0.8912329999999999,0.085352,-0.06260700000000001,-0.089173,-0.035873,-0.027412,0.002794,-0.011393
150,1.760361,-1.101488,1.696091,0.444168,0.8918809999999999,0.085222,-0.045444,-0.061565999999999996,-0.028317000000000002,-0.037887,0.036402,-0.023073
151,1.760906,-1.1017489999999999,1.697064,0.44389300000000004,0.891999,0.08542000000000001,0.000675,0.012762,-0.007794,-0.028914999999999996,0.048552,-0.027360000000000002
152,1.7600419999999999,-1.102969,1.694826,0.44289799999999996,0.89255,0.08483099999999999,0.043627,0.09879600000000001,0.018027,-0.029278,0.049634,-0.02459
153,1.7599619999999998,-1.10266,1.691672,0.443175,0.8924110000000001,0.084848,0.077929,0.150811,0.034223,-0.040557,0.031112,-0.024454
154,1.757691,-1.103589,1.6858810000000002,0.44255200000000006,0.8928290000000001,0.083687,0.09498,0.16861099999999998,0.035443999999999996,-0.033204000000000004,0.030327,-0.036843
155,1.757155,-1.103317,1.6816209999999998,0.44283500000000003,0.8927069999999999,0.083495,0.08642999999999999,0.158019,0.02792,-0.023218,0.032113,-0.041976
156,1.756663,-1.1030719999999998,1.678018,0.443091,0.892596,0.083317,0.071322,0.120782,0.02893,0.019128,0.0057799999999999995,-0.044758
157,1.753611,-1.101793,1.673283,0.44446499999999994,0.892019,0.08217200000000001,0.037889,0.061154999999999994,0.050142,0.040673,-0.011877,-0.027088
158,1.752721,-1.100608,1.6719,0.445578,0.891483,0.081968,0.008690999999999999,-0.006997,0.069253,0.044718,-0.010395,-0.022871000000000002
159,1.751427,-1.099235,1.671345,0.44688599999999995,0.89086,0.081611,-0.0043219999999999995,-0.057007,0.066022,0.010313,0.011529000000000001,0.000512
160,1.750616,-1.098419,1.671975,0.447668,0.890489,0.08137899999999999,-0.023502000000000002,-0.078138,0.039208,-0.000692,0.020293000000000002,0.006817
161,1.75023,-1.097836,1.6732169999999997,0.44821000000000005,0.890224,0.081298,-0.038304000000000005,-0.071601,0.015596,-0.014281,0.027455,0.012421
162,1.750919,-1.097574,1.675644,0.448383,0.8901040000000001,0.081649,-0.062834,-0.066365,-0.0016170000000000002,-0.008076,0.010057,0.018997999999999998
163,1.7522349999999998,-1.097335,1.6775930000000001,0.448485,0.8899950000000001,0.082277,-0.039064999999999996,0.005965,0.004866,-0.006178,0.002949,0.028379
164,1.7563689999999998,-1.0970659999999999,1.6809900000000002,0.448376,0.8898729999999999,0.084175,-0.033543,0.047498,0.003783,0.00043,0.006764,0.026268
165,1.7583389999999999,-1.096883,1.681825,0.44837,0.8897889999999999,0.085088,-0.013187,0.069786,0.0071010000000000005,0.015588999999999999,0.0099,0.010920000000000001
166,1.759875,-1.096639,1.6818229999999998,0.44845100000000004,0.8896780000000001,0.08581799999999999,0.001745,0.07609500000000001,0.014675,0.018147,0.007539,0.005643
167,1.7605819999999999,-1.095638,1.681068,0.44926499999999997,0.8892200000000001,0.08630299999999999,0.015531999999999999,0.068547,0.025466,0.021743000000000002,0.0071730000000000006,0.002
168,1.7595939999999999,-1.0935110000000001,1.6788049999999999,0.45120699999999997,0.8882450000000001,0.086214,0.03575,0.059940999999999994,0.028831,0.02766,0.002731,0.000792
169,1.758759,-1.092344,1.676668,0.452297,0.887709,0.086031,0.048523000000000004,0.049260000000000005,0.024665,0.01064,0.005144,0.005705
170,1.7585439999999999,-1.092131,1.6753619999999998,0.45250100000000004,0.88761,0.08596799999999999,0.035604000000000004,0.029942,0.011826999999999999,-0.003252,0.010506999999999999,0.011245
171,1.7592740000000002,-1.09264,1.675434,0.45199399999999995,0.8878450000000001,0.086214,0.02279,0.016187,2e-06,-0.004652,0.009586,0.005903
172,1.7589810000000001,-1.09261,1.67487,0.452045,0.8878309999999999,0.086087,0.00783,0.009852,-0.0011619999999999998,0.004711,0.002107,0.000522
173,1.759595,-1.0921889999999999,1.675299,0.45236000000000004,0.8876370000000001,0.086434,-0.007155,0.003496,0.003016,0.0066549999999999995,0.0021030000000000003,0.005591
174,1.760066,-1.092172,1.675973,0.452334,0.8876290000000001,0.08665,-0.016834000000000002,-0.012454,0.004037,0.00047000000000000004,0.017141,0.000325
175,1.760615,-1.092516,1.676795,0.45198599999999994,0.8877879999999999,0.086841,-0.005113,-0.009323999999999999,0.010520999999999999,-0.00762,0.026244,0.006085
176,1.762048,-1.093556,1.678092,0.450954,0.888266,0.087313,0.016203,-0.006229999999999999,0.018137,-0.014461000000000002,0.035226,0.015165000000000001
177,1.7628689999999998,-1.094933,1.678539,0.44968199999999997,0.8888969999999999,0.08745,0.037571,0.002216,0.019336000000000002,-0.020696,0.029925999999999998,0.013028999999999999
178,1.7615319999999999,-1.095594,1.676694,0.449222,0.8892,0.086737,0.041954000000000005,0.021402,0.012929,-0.025317,0.013647,-0.0030269999999999997
179,1.759866,-1.0964209999999999,1.674309,0.448642,0.8895780000000001,0.08585,0.036643,0.034026,0.001165,-0.007084,0.001489,-0.009937999999999999
180,1.7578330000000002,-1.095818,1.671557,0.44934300000000005,0.8893030000000001,0.085038,0.015385,0.044778,-0.0054020000000000006,0.027815,-0.00588,-0.013306
181,1.757944,-1.0948639999999998,1.6709169999999998,0.450167,0.8888659999999999,0.085245,-0.013453,0.039543,-0.0034560000000000003,0.058011,-0.024166,-0.010034999999999999
182,1.7596169999999998,-1.094829,1.6722139999999999,0.45005500000000004,0.88885,0.086004,-0.035967,0.015119999999999998,-0.003582,0.0591,-0.022775999999999998,-0.015219
183,1.7595319999999999,-1.093297,1.67271,0.451399,0.8881469999999999,0.086221,-0.043616,-0.027457,-0.00571,0.043871,-0.023431,-0.017816
184,1.759995,-1.093244,1.674306,0.451405,0.888123,0.086439,-0.032029,-0.056277,-0.0013189999999999999,0.027263,-0.012222,-0.010267
185,1.759597,-1.093114,1.675402,0.451553,0.8880629999999999,0.086281,-0.022522999999999998,-0.073372,0.003042,0.01738,0.015562999999999999,-0.010201
186,1.758001,-1.093058,1.6754209999999998,0.45173900000000006,0.8880370000000001,0.08557000000000001,-0.005492,-0.069315,0.002127,0.00778,0.029337000000000002,-0.006209
187,1.756716,-1.093069,1.675098,0.45183900000000005,0.888042,0.08498700000000001,0.014922,-0.03955,9.499999999999999e-05,-0.010372,0.020512,-4.1e-05
188,1.75547,-1.093656,1.6740400000000002,0.45143199999999994,0.8883120000000001,0.084328,0.028931000000000002,-0.000217,0.008685,-0.013962,0.016733,-0.000634
189,1.754602,-1.093525,1.67281,0.45161899999999994,0.888252,0.083958,0.028974,0.014675,0.014008000000000001,-0.011143,0.017861000000000002,-0.01099
190,1.7522950000000002,-1.093176,1.6699580000000003,0.45211599999999996,0.888092,0.082971,0.025848000000000003,0.034908,0.018234,0.013841,0.010666,-0.022318
191,1.752158,-1.0929010000000001,1.6690349999999998,0.45236800000000005,0.887965,0.082954,0.01517,0.030693,0.016028,0.020074,0.014669,-0.026161
192,1.7521639999999998,-1.0925559999999999,1.6685,0.45266899999999993,0.887806,0.083012,0.004419,0.018987,0.022377,0.01695,0.007961,-0.015049000000000002
193,1.752288,-1.092098,1.6684009999999998,0.453059,0.887595,0.08314099999999999,0.001132,0.003007,0.025578999999999998,-0.003915999999999999,0.008095999999999999,0.011082
194,1.753161,-1.091984,1.6692580000000001,0.453086,0.8875430000000001,0.08355499999999999,-0.002109,-0.013991,0.017031,-0.010733,0.008286,0.017138
195,1.7560669999999998,-1.0925639999999999,1.672405,0.45233500000000004,0.88781,0.08477699999999999,-0.030974,-0.031005,-0.004489,-0.019001,-0.004143,0.016267
196,1.756852,-1.09229,1.6747009999999998,0.452507,0.887684,0.085177,-0.072697,-0.078707,-0.02715,0.017891,-0.018848,-0.014634999999999999
197,1.758443,-1.092626,1.679026,0.452078,0.8878379999999999,0.085841,-0.105956,-0.130747,-0.037998000000000004,0.038064999999999995,-0.025091,-0.024272
198,1.7602650000000002,-1.092963,1.6846990000000002,0.451626,0.8879940000000001,0.086608,-0.134958,-0.177505,-0.041346,0.071536,-0.019738,-0.024291
199,1.760822,-1.091217,1.6897810000000002,0.4531,0.8871889999999999,0.087152,-0.137149,-0.17861,-0.0296,0.059595,0.022966999999999998,0.021703999999999998
200,1.762677,-1.0916139999999999,1.6950630000000002,0.452592,0.8873719999999999,0.087925,-0.098349,-0.112613,-0.050778,0.014205,0.039583999999999994,0.036876
201,1.7665959999999998,-1.093018,1.700449,0.451021,0.888019,0.089456,-0.044703,-0.04462,-0.050494,-0.058915999999999996,0.033276,0.029532
202,1.767471,-1.093864,1.7014779999999998,0.45020600000000005,0.888407,0.08970399999999999,0.0024289999999999997,0.021085,-0.039561,-0.058101,0.032888,0.029283999999999998
203,1.7679169999999997,-1.09454,1.700925,0.44957700000000006,0.888717,0.089787,0.027096,0.06249400000000001,-0.026623,-0.078667,0.023697,0.008083
204,1.768664,-1.096757,1.699548,0.44757700000000006,0.8897309999999999,0.08973500000000001,0.046541,0.116751,-0.025495,-0.040595,0.023675,-0.006529000000000001
205,1.769477,-1.097344,1.697618,0.44699099999999997,0.89,0.089996,0.047636000000000005,0.132688,-0.015894,-0.021851,0.021988,-0.009734999999999999
206,1.77047,-1.097653,1.6953580000000001,0.446633,0.8901399999999999,0.09038500000000001,0.057276,0.15921400000000002,0.002299,0.016609,0.021572,-0.017647
207,1.769752,-1.097609,1.69134,0.44673599999999997,0.89012,0.090072,0.056155,0.158105,0.014044,0.015102,0.016649,-0.024978
208,1.77024,-1.097533,1.6886880000000002,0.446759,0.890085,0.090304,0.059221,0.130388,0.016237,0.014788999999999998,0.008276,-0.024569
209,1.770055,-1.097451,1.68615,0.446846,0.890048,0.090236,0.052638,0.08887,0.015175999999999999,0.015022,-0.004108,-0.027324
210,1.767019,-1.097076,1.681887,0.447446,0.889877,0.088943,0.039597,0.051477999999999996,0.017262,0.010898,0.001389,-0.024184999999999998
211,1.7661959999999999,-1.096831,1.68035,0.447733,0.8897649999999999,0.08861799999999999,0.026612,0.014225999999999999,0.020424,0.014119999999999999,0.012745999999999999,-0.015086000000000002
212,1.764218,-1.0961290000000001,1.6782540000000001,0.44851899999999995,0.889445,0.087852,0.025422,-0.000735,0.033254,0.012128,0.0040030000000000005,-0.009269
213,1.7626979999999999,-1.095413,1.6765439999999998,0.44927799999999996,0.889117,0.087291,0.033895,0.002363,0.050401,0.013506,-0.008731000000000001,0.010075
214,1.7610689999999998,-1.0940020000000001,1.6748349999999999,0.450651,0.8884709999999999,0.086797,0.019958,-0.011442,0.05139199999999999,0.010683,-0.006116,0.0007740000000000001
215,1.758356,-1.09269,1.672767,0.45203000000000004,0.887868,0.08579099999999999,-0.0056630000000000005,-0.032591,0.034151,0.013271999999999999,0.01057,-0.012503
216,1.7553729999999999,-1.092113,1.671189,0.452787,0.887602,0.084536,-0.029173,-0.06544,0.010529,0.01932,0.023042,-0.013049000000000002
217,1.7562779999999998,-1.091495,1.6736919999999997,0.45324899999999996,0.887317,0.085047,-0.044121,-0.07600499999999999,0.001894,0.019239,0.01585,0.017217
218,1.760906,-1.090963,1.679284,0.45331400000000005,0.887072,0.087233,-0.038791,-0.051664999999999996,0.010423,-0.005057,0.007368,0.035661
219,1.7661040000000001,-1.091676,1.684718,0.452234,0.887401,0.089465,-0.025875,-0.019769,0.015808000000000003,-0.024301,0.014362999999999999,0.029675
220,1.766544,-1.091383,1.6855229999999999,0.45245,0.887266,0.089715,-0.019388,-0.008043000000000002,0.00836,-0.021480000000000003,0.018389,0.020728
221,1.76715,-1.091184,1.685829,0.45256899999999994,0.887174,0.090023,-0.002179,0.024912,0.010575,-0.004037,0.01517,0.014408
222,1.768709,-1.090855,1.68648,0.45271300000000003,0.887022,0.090786,0.013880000000000002,0.045067,0.018139,0.009581999999999999,0.015444,0.010851999999999999
223,1.769206,-1.090201,1.68572,0.453237,0.8867200000000001,0.091126,0.032034,0.05563200000000001,0.024662,0.012186,0.014861000000000001,0.006652
224,1.7689099999999998,-1.0897940000000002,1.684159,0.453618,0.886531,0.091063,0.039463,0.046023,0.023658000000000002,0.002665,0.005787,0.002092
225,1.767579,-1.089594,1.682161,0.453913,0.886439,0.09049299999999999,0.030848,0.016272,0.011886,0.002707,0.001363,-0.00509
226,1.7648099999999998,-1.088587,1.6793650000000002,0.45503699999999997,0.885973,0.089408,0.025384,-0.0008869999999999999,0.008634999999999999,0.023173,0.002257,-0.009009
227,1.763332,-1.087917,1.6779389999999998,0.455751,0.8856620000000001,0.088849,0.011501,-0.005096,0.007478,0.027266000000000002,1.9e-05,-0.008069
228,1.762621,-1.0871389999999999,1.67744,0.456491,0.8853,0.088656,-0.007736,-0.010364,0.009489000000000001,0.024008,-0.004273,-0.002719
229,1.7624669999999998,-1.086264,1.677825,0.457265,0.884893,0.08873400000000001,-0.023796,-0.030519,0.001928,0.006725,0.010569,-0.001072
230,1.763047,-1.086362,1.679316,0.457129,0.8849379999999999,0.088982,-0.03766,-0.034710000000000005,-0.003505,0.0037020000000000004,0.022944,0.001686
231,1.763784,-1.0865,1.6807349999999999,0.456942,0.8850030000000001,0.089295,-0.0227,-0.026253,-0.00020800000000000001,0.001523,0.022102,0.009902
232,1.7650240000000001,-1.086529,1.682268,0.45680600000000005,0.885016,0.089857,0.005045,-0.01679,0.007451,0.0011560000000000001,0.011026000000000001,0.015566
233,1.7641959999999999,-1.0866559999999998,1.6813,0.45677,0.885076,0.08945700000000001,0.027531,0.001241,0.0075840000000000005,-0.002973,0.016658000000000003,0.001836
234,1.7629669999999997,-1.087033,1.6800959999999998,0.45655200000000007,0.885251,0.08883200000000001,0.01901,-0.003022,-0.0074540000000000006,6e-06,0.013751,-0.008983
235,1.7609700000000001,-1.087446,1.6784869999999998,0.45636899999999997,0.885443,0.087851,0.010381,-0.02642,-0.009621,0.002234,0.001032,-0.011847
236,1.759475,-1.087109,1.6777060000000001,0.456793,0.885286,0.087225,-0.002478,-0.030670999999999997,-0.001158,0.015527000000000001,-0.009676,-0.011511
237,1.7582740000000001,-1.086568,1.677429,0.45736800000000005,0.885034,0.086765,-0.017480000000000002,-0.044472000000000005,-0.000174,0.028487000000000002,0.002752,-0.010806999999999999
238,1.756834,-1.085137,1.67733,0.458737,0.884367,0.086341,-0.026085,-0.055117,0.005125,0.023502000000000002,0.019029,0.00303
239,1.7564669999999998,-1.084734,1.678019,0.45911899999999994,0.884179,0.086238,-0.006887000000000001,-0.0467,0.014863,0.013171,0.015128,0.005864
240,1.7550430000000001,-1.084837,1.6775529999999998,0.45915200000000006,0.8842270000000001,0.08556799999999999,-0.001556,-0.048846,0.013834,-0.007339,0.010014,-0.010022
241,1.752563,-1.086278,1.676137,0.458109,0.8849,0.084198,-0.0025670000000000003,-0.04243,0.008471,-0.01806,0.014225,-0.016556
242,1.750806,-1.086733,1.6756220000000002,0.45786000000000004,0.8851110000000001,0.083321,-0.00047599999999999997,-0.059534000000000004,-0.005404,-0.012227,0.007543000000000001,-0.016152
243,1.749109,-1.086659,1.6749610000000001,0.45806499999999994,0.885077,0.08255499999999999,0.010169,-0.0458,0.013881000000000001,0.0042,-0.000357,0.003367
244,1.7487080000000002,-1.086234,1.6752509999999998,0.45846800000000004,0.8848790000000001,0.082439,0.014362,-0.045877,0.029932999999999998,0.002805,0.023583,0.009999
245,1.7475330000000002,-1.085993,1.6747330000000002,0.458775,0.884767,0.081937,0.017586,-0.040562,0.029947,-0.00301,0.030715,0.011279
246,1.746745,-1.086116,1.6745709999999998,0.458732,0.8848239999999999,0.081557,0.019762000000000002,-0.043713,0.017146,-0.014137,0.023761,0.013841
247,1.74555,-1.086748,1.67405,0.458279,0.8851180000000001,0.080911,0.029421,-0.041573,0.006525,-0.008572,0.01245,0.004279
248,1.7440950000000002,-1.086957,1.673143,0.458214,0.885215,0.08021299999999999,0.023091,-0.030876,0.001126,-0.003517,0.00982,0.004764
249,1.742796,-1.08661,1.6723860000000002,0.45861999999999997,0.8850540000000001,0.07967,0.011341,-0.03403,0.001049,0.012891999999999999,-0.009687999999999999,0.0017670000000000001
250,1.741643,-1.0852680000000001,1.6721540000000001,0.45988100000000004,0.8844290000000001,0.079343,-0.007994,-0.052189,0.006257,0.029345999999999997,-0.0014789999999999998,0.002933
251,1.7409459999999999,-1.08439,1.6728669999999999,0.46070200000000006,0.884019,0.079153,-0.030494,-0.07129500000000001,0.008263,0.028709,-0.0034490000000000002,0.001093
252,1.740592,-1.083213,1.6744569999999999,0.461755,0.883467,0.079166,-0.04236,-0.10001499999999999,0.00822,0.018317,0.006288,0.004849
253,1.7404650000000002,-1.083075,1.6766880000000002,0.46188500000000005,0.883403,0.079128,-0.05089,-0.10528599999999999,0.001757,0.0060409999999999995,0.021153,0.0064730000000000005
254,1.740643,-1.083213,1.679285,0.461751,0.883468,0.07919,-0.057282000000000007,-0.116926,-0.012159999999999999,-0.009404000000000001,0.009751000000000001,0.002353
255,1.7406700000000002,-1.084131,1.6818540000000002,0.460949,0.883898,0.079065,-0.051865999999999995,-0.11156700000000001,-0.02495,-0.012081,0.009290999999999999,-0.002801
256,1.740362,-1.0849,1.684016,0.460304,0.884257,0.078808,-0.056046000000000006,-0.09980399999999999,-0.032473,-0.002555,0.023001,-0.007764
257,1.741094,-1.0855700000000001,1.6864240000000001,0.459662,0.884569,0.079045,-0.036752,-0.061594,-0.014228999999999999,-0.000601,0.014753,0.0059770000000000005
258,1.742757,-1.085912,1.688979,0.45923100000000006,0.8847290000000001,0.07975700000000001,-0.017544999999999998,-0.037333,0.003994,-0.009631,0.006293,0.014266999999999998
259,1.7435599999999998,-1.086185,1.690209,0.458929,0.884856,0.080085,-0.013191,-0.010745000000000001,0.011466,-0.014334,0.020311000000000003,0.011483
260,1.744557,-1.086951,1.690891,0.458182,0.8852120000000001,0.080425,0.009303,0.015783000000000002,0.017994,-0.010169,0.031536,0.0045969999999999995
261,1.74351,-1.0875629999999998,1.689323,0.45773199999999997,0.885497,0.07985199999999999,0.041352999999999994,0.018893,0.011802,-0.000868,0.010545,-0.007556
262,1.7413919999999998,-1.087656,1.686693,0.457819,0.88554,0.078868,0.063738,0.009248000000000001,0.00663,0.001623,0.007312999999999999,-0.002956
263,1.739016,-1.087584,1.683878,0.45806800000000003,0.8855069999999999,0.077791,0.061533000000000004,0.0017649999999999999,0.01517,0.006989,0.007148000000000001,0.002302
264,1.7361229999999999,-1.0870600000000001,1.681041,0.45874799999999993,0.8852639999999999,0.076542,0.041167,-0.019469999999999998,0.015056,0.015602000000000001,0.01145,-0.0038950000000000005
265,1.7333619999999998,-1.0864690000000001,1.678768,0.459474,0.8849879999999999,0.07536,0.027264999999999998,-0.029001,0.012837000000000001,0.016111,0.010794,-0.007245000000000001
266,1.731628,-1.086073,1.677509,0.45995,0.884804,0.074619,0.016575,-0.030117,0.011652,0.015040999999999999,0.007056999999999999,-0.003177
267,1.732017,-1.085521,1.678373,0.46040299999999995,0.8845459999999999,0.074876,0.013323,-0.04394,0.008443,0.007019,0.005102000000000001,0.025542
268,1.7352580000000002,-1.086224,1.6818950000000001,0.45954399999999995,0.8848739999999999,0.076266,0.021856,-0.046083,0.005297,-0.019403999999999998,0.021055,0.03259
269,1.7346110000000001,-1.0869959999999999,1.681759,0.45891899999999997,0.885234,0.07585700000000001,0.044302,-0.039756,0.002238,-0.030605,0.021627,0.029062
270,1.7335049999999999,-1.0881399999999999,1.6808009999999998,0.458003,0.8857649999999999,0.075186,0.059379999999999995,-0.01952,-0.009436,-0.038707,0.027946,0.029322000000000004
271,1.732244,-1.0897299999999999,1.678914,0.456707,0.886502,0.074382,0.076722,0.02841,-0.022199,-0.037136,0.030398,0.016973
272,1.730415,-1.090551,1.675399,0.456124,0.886882,0.07343,0.090898,0.09123400000000001,-0.027522,-0.034874,0.02242,0.016078
273,1.729954,-1.0913469999999998,1.671382,0.45546000000000003,0.887249,0.073108,0.098803,0.192391,-0.023323,-0.026154000000000004,0.029545,0.014034999999999999
274,1.730178,-1.093046,1.666714,0.453955,0.8880309999999999,0.07297100000000001,0.077725,0.243573,-0.034269,-0.021200999999999998,0.029174000000000002,-0.026614999999999996
275,1.7331509999999999,-1.094188,1.664593,0.45273500000000005,0.8885559999999999,0.074157,0.047934,0.240567,-0.055837,0.005044,0.011987000000000001,-0.052871
276,1.736793,-1.0953680000000001,1.6633360000000001,0.451428,0.8890969999999999,0.07563099999999999,0.033993,0.232064,-0.048445999999999996,0.041324,-0.006254,-0.060953
277,1.7362369999999998,-1.094856,1.658966,0.45191800000000004,0.888862,0.075455,0.021951,0.190446,-0.020697999999999998,0.064912,-0.02256,-0.062729
278,1.7387689999999998,-1.095015,1.6584169999999998,0.451586,0.888935,0.076576,0.009817,0.125412,0.002802,0.07063,-0.019581,-0.06174400000000001
279,1.73692,-1.0935190000000001,1.6552360000000002,0.453038,0.888249,0.075961,-0.002273,0.057227,0.01456,0.058864,-0.006215,-0.04941
280,1.737267,-1.093066,1.6553810000000002,0.453409,0.888041,0.076184,-0.007991,-0.016304,0.026364999999999996,0.042136,-0.021235,-0.040737999999999996
281,1.733502,-1.0912950000000001,1.6530369999999999,0.455244,0.887225,0.07473099999999999,-0.010452,-0.07600900000000001,0.040316000000000005,0.039445999999999995,-0.017276,-0.039072
282,1.732068,-1.090393,1.653686,0.45614,0.8868090000000001,0.07420700000000001,-0.033043,-0.11005999999999999,0.042282,0.045889,-0.006056000000000001,-0.024692
283,1.7308990000000002,-1.0882889999999998,1.655025,0.458067,0.885834,0.07397100000000001,-0.053255,-0.10993800000000001,0.029327,0.050584,-0.000977,-0.000942
284,1.730551,-1.087612,1.657066,0.458685,0.8855200000000001,0.073907,-0.050016000000000005,-0.105671,0.025071,0.043375,-0.006614,0.006965000000000001
285,1.730779,-1.086043,1.659311,0.46003999999999995,0.88479,0.07423300000000001,-0.044607,-0.086523,0.027224,0.034391000000000005,0.003073,0.015703
286,1.7307689999999998,-1.085407,1.6612259999999999,0.460595,0.884494,0.074318,-0.054199000000000004,-0.090724,0.020753,0.016959000000000002,0.000165,0.015084
287,1.7317669999999998,-1.0849520000000001,1.66458,0.46091800000000005,0.884281,0.07484199999999999,-0.064903,-0.11617999999999999,0.0025510000000000003,-0.0019030000000000002,-0.004734,0.014269
288,1.7318759999999997,-1.084846,1.667661,0.461003,0.884232,0.074907,-0.077738,-0.13738499999999998,-0.011398,-0.011723,-0.000717,0.012495000000000001
289,1.733114,-1.085191,1.6720709999999999,0.460609,0.884392,0.075429,-0.086274,-0.144781,-0.018927,-0.012657,-0.0017170000000000002,0.011089
290,1.733573,-1.085345,1.67593,0.46043999999999996,0.8844639999999999,0.07561799999999999,-0.088409,-0.147924,-0.024338,-0.001959,-0.000202,0.004338
291,1.734305,-1.085494,1.680063,0.460254,0.884534,0.075934,-0.10118300000000001,-0.13936600000000002,-0.022300999999999998,0.004162,0.007556,-0.0021420000000000002
292,1.735148,-1.085072,1.6840389999999998,0.46055799999999997,0.884337,0.076382,-0.09794800000000001,-0.123432,-0.013752,0.020689,0.021226,-0.00028700000000000004
293,1.736315,-1.084747,1.6880959999999998,0.46075200000000005,0.884185,0.076967,-0.095819,-0.11813900000000001,-0.007333,0.018801,0.020279,0.000837
294,1.7383259999999998,-1.084666,1.692498,0.460667,0.8841469999999999,0.07790599999999999,-0.078703,-0.094813,0.005574,-0.001622,0.018547,0.009039
295,1.740894,-1.086792,1.696912,0.458611,0.8851389999999999,0.07877,-0.065868,-0.08527699999999999,0.007778,-0.032128,0.031899000000000004,0.005901
296,1.742402,-1.087707,1.7004119999999998,0.45769399999999993,0.8855639999999999,0.079323,-0.061582000000000005,-0.09057899999999999,-0.0018039999999999998,-0.036689,0.030741,0.010978
297,1.7440790000000002,-1.089791,1.703929,0.455742,0.8865299999999999,0.07977200000000001,-0.04977,-0.081002,-0.00922,-0.027382,0.028219,0.002595
298,1.744674,-1.090806,1.706232,0.45480699999999996,0.887,0.079888,-0.039061,-0.0682,-0.007084,-0.0009960000000000001,0.003152,0.004493
299,1.744904,-1.090662,1.707597,0.45491499999999996,0.886933,0.080014,-0.019809999999999998,-0.044883,0.00584,0.00352,0.004913,0.006579000000000001
300,1.745783,-1.090442,1.7091610000000002,0.45503699999999997,0.8868309999999999,0.080448,-0.017664,-0.031083,0.016519,-0.000737,0.017922999999999998,0.009151000000000001
301,1.746234,-1.0903209999999999,1.7101819999999999,0.45510600000000007,0.886775,0.08067200000000001,-0.013402,-0.030041,0.018682,-0.004026,0.021077000000000002,0.011567000000000001
302,1.7469430000000001,-1.090533,1.7114029999999998,0.45486400000000005,0.8868729999999999,0.080962,-0.002725,-0.029008,0.017685,-0.00563,0.017775,0.010805
303,1.747184,-1.090671,1.7120090000000001,0.45472299999999993,0.8869370000000001,0.08105,0.007970999999999999,-0.023712999999999998,0.016683,-0.002514,0.017665,0.008778
304,1.7468,-1.090557,1.7119119999999999,0.454854,0.886884,0.08089299999999999,0.014415,-0.018392,0.012447,0.000758,0.016161000000000002,0.011406999999999999
305,1.746257,-1.090344,1.7114900000000002,0.455084,0.8867860000000001,0.080679,0.014481,-0.008783,0.007094,0.009729,0.009866,0.0027719999999999997
306,1.745814,-1.0898729999999999,1.711121,0.455531,0.886568,0.08055,0.008081,-0.005471,0.003788,0.016363,0.009031,0.006212
307,1.7458790000000002,-1.089504,1.7111470000000002,0.455848,0.8863969999999999,0.080637,0.005961,-0.000145,0.0059039999999999995,0.011056,0.001206,0.017537999999999998
308,1.74673,-1.088993,1.7116669999999998,0.456225,0.8861610000000001,0.081104,0.019766,0.002935,0.023088,0.001035,0.001825,0.014613999999999999
309,1.746821,-1.088817,1.7116099999999999,0.456371,0.8860790000000001,0.081173,0.009072,-0.004475,0.020886000000000002,0.001759,0.016112,0.004383
310,1.7464369999999998,-1.088676,1.711385,0.456525,0.886014,0.08101900000000001,0.003752,-0.013993,0.008042,0.003832,0.01163,-0.000575
311,1.745643,-1.088374,1.7110009999999998,0.45685299999999995,0.8858739999999999,0.080703,-0.003696,-0.022438,-0.004817,0.011226,-0.00062,-0.001342
312,1.7442229999999999,-1.087531,1.710582,0.45770200000000005,0.885483,0.080183,-0.027232999999999997,-0.04788,-0.015627000000000002,0.024781,-0.012893,-0.014601
313,1.743423,-1.086833,1.711389,0.458376,0.885158,0.07992300000000001,-0.050823,-0.070187,-0.011487,0.045163999999999996,-0.014597999999999998,-0.017454
314,1.742259,-1.084861,1.7122810000000002,0.460187,0.884239,0.079687,-0.066965,-0.07758999999999999,0.001185,0.044420999999999995,-0.000785,-0.009451000000000001
315,1.741766,-1.083545,1.7137380000000002,0.461373,0.8836229999999999,0.079658,-0.073379,-0.069093,0.012883000000000002,0.022315,0.010359,-0.012916
316,1.742243,-1.083153,1.716163,0.46167600000000003,0.88344,0.079938,-0.06914400000000001,-0.083992,0.005454,-0.002752,0.017103999999999998,-0.010281
317,1.7426599999999999,-1.0829739999999999,1.718862,0.46179799999999993,0.8833559999999999,0.080157,-0.05959,-0.105288,-0.0051340000000000005,-0.005927,0.025687,-0.007266
318,1.742248,-1.083157,1.7207189999999999,0.461672,0.8834420000000001,0.079939,-0.032928,-0.099024,0.003589,-0.0034049999999999996,0.023648,0.0039689999999999994
319,1.741266,-1.083177,1.7215220000000002,0.461733,0.883451,0.079483,-0.000918,-0.081094,0.020880000000000003,-0.006106,0.022265,0.0065769999999999995
320,1.7390560000000002,-1.082659,1.7205759999999999,0.462359,0.883208,0.078539,0.028979,-0.06314,0.033884,-0.011767,0.022446999999999998,0.012403
321,1.736099,-1.0819969999999999,1.718382,0.46316599999999997,0.8828969999999999,0.07726799999999999,0.054622000000000004,-0.043036000000000005,0.045788,-0.012589,0.013053,0.01636
322,1.7335740000000002,-1.081558,1.7160529999999998,0.46374099999999996,0.882691,0.076161,0.059958000000000004,-0.023852,0.055363,-0.015652000000000003,0.006804999999999999,0.006069
323,1.730798,-1.0809950000000002,1.7131869999999998,0.464441,0.8824270000000001,0.074952,0.057877,-0.007883,0.0596,-0.014231,0.00536,-0.001176
324,1.728723,-1.080342,1.710905,0.46516499999999994,0.8821190000000001,0.07407899999999999,0.039817,-0.0024460000000000003,0.047715,0.0035090000000000004,0.013587,0.004123
325,1.727493,-1.079696,1.709546,0.465818,0.881815,0.07359600000000001,0.010031,0.000918,0.031479,0.009249,0.018866,-0.004306
326,1.7269290000000002,-1.078949,1.70935,0.46651000000000004,0.8814620000000001,0.073435,-0.023098,-0.024482,0.018463,0.010205,0.002647,-0.0070290000000000005
327,1.726347,-1.0781690000000002,1.7098400000000002,0.467232,0.881093,0.07327,-0.032785,-0.047867,0.014154,0.014823,0.012461,-0.005659
328,1.726464,-1.077869,1.7110400000000001,0.46748500000000004,0.880951,0.073366,-0.02636,-0.044685,0.012058,0.009382999999999999,0.026,0.005476
329,1.7273599999999998,-1.0782,1.7125,0.46713000000000005,0.881108,0.073739,-0.0060090000000000005,-0.025584,0.013241,-0.008192,0.026698000000000003,0.010581
330,1.728084,-1.078882,1.713587,0.466484,0.8814299999999999,0.07398300000000001,0.008915000000000001,-0.030826999999999997,0.00903,-0.016441,0.01217,0.013968000000000001
331,1.728054,-1.0794700000000002,1.71395,0.465974,0.881708,0.073888,0.017473,-0.027652,0.006945999999999999,-0.01436,0.006873000000000001,0.008981999999999999
332,1.727253,-1.079718,1.713412,0.465817,0.881825,0.07348099999999999,0.011153,-0.00952,0.006878,-0.000531,0.008631999999999999,-0.0015970000000000001
333,1.7264950000000001,-1.079164,1.712722,0.466355,0.8815629999999999,0.07320399999999999,0.018636,-0.005289,0.007994,0.018553999999999998,-0.001253,0.002663
334,1.726352,-1.076894,1.7124720000000002,0.468341,0.88049,0.073447,0.011122,-0.0053,0.017563,0.032498,-0.014003999999999999,0.002359
335,1.724916,-1.075823,1.711444,0.46937799999999996,0.8799819999999999,0.072918,0.001387,-0.025546,0.027137,0.032255,-0.006904,-0.013211
336,1.7232419999999997,-1.074733,1.710606,0.470447,0.8794629999999999,0.072279,-0.010409999999999999,-0.037232,0.029209,0.027554000000000002,0.012688,-0.019804
337,1.722329,-1.074257,1.7106119999999998,0.47092700000000004,0.879236,0.071912,-0.008275,-0.043606,0.022822,0.004262,0.013159,-0.0065439999999999995
338,1.721493,-1.073876,1.7106830000000002,0.471318,0.8790549999999999,0.07156799999999999,-0.003989,-0.046786,0.015378999999999999,-0.001149,0.014652000000000002,-0.00324
339,1.720494,-1.073766,1.7106720000000002,0.47148500000000004,0.8790020000000001,0.071112,-0.000769,-0.050957,0.012154,-0.0009339999999999999,0.012126000000000001,0.000573
340,1.721159,-1.073921,1.712189,0.47130200000000005,0.879076,0.071405,-0.005063000000000001,-0.053084000000000006,0.015328999999999999,-0.0075120000000000004,0.008237000000000001,0.013174000000000002
341,1.7205990000000002,-1.073819,1.712531,0.47143100000000004,0.879028,0.071155,0.000295,-0.044592,0.01856,-0.0077469999999999995,0.012162000000000001,0.009931
342,1.720932,-1.074247,1.713398,0.47103599999999995,0.879232,0.071255,0.008924,-0.02756,0.014322,0.00047599999999999997,0.029169999999999998,0.008273
343,1.720421,-1.0743530000000001,1.7129720000000002,0.47098,0.879282,0.071001,0.022913,-0.003098,0.012251,5.9e-05,0.034338,0.00984
344,1.7197619999999998,-1.07455,1.7119529999999998,0.470855,0.879376,0.07066499999999999,0.030456999999999998,0.011798999999999999,0.010147,-0.004012,0.028736,0.0068650000000000004
345,1.719237,-1.074972,1.710979,0.470525,0.879577,0.070362,0.037925,0.00859,0.006997,-0.006809999999999999,-0.001846,0.0031550000000000003
346,1.717536,-1.074885,1.7089880000000002,0.47071999999999997,0.8795350000000001,0.069573,0.048588,0.00021,0.009174,-0.00107,-0.0064269999999999996,-0.002297
347,1.7152319999999999,-1.074826,1.7065709999999998,0.47093,0.8795069999999999,0.068496,0.049645999999999996,-0.009351,0.0017170000000000002,0.008089,-0.0027370000000000003,-0.0052640000000000004
348,1.713342,-1.074605,1.7048419999999997,0.47125100000000003,0.879402,0.067634,0.044282,-0.025273,-0.007913,0.006365,0.024544,0.016137000000000002
349,1.712061,-1.075342,1.703713,0.470695,0.8797530000000001,0.066938,0.048645,-0.017775,-0.02178,0.0015949999999999998,0.034813,0.017962
350,1.7113759999999998,-1.07665,1.7027259999999997,0.469602,0.880374,0.066455,0.038191,0.010041,-0.042187,-0.009762999999999999,0.033261,0.015256
351,1.712003,-1.078914,1.702769,0.46758500000000003,0.881446,0.066468,0.03508,0.012256,-0.060375,-0.015391,0.011529000000000001,0.001327
352,1.7111,-1.080667,1.7015619999999998,0.46611400000000003,0.882272,0.06583,0.035095,0.012269,-0.063581,-0.00011,0.007712,-0.004261
353,1.709945,-1.081909,1.699846,0.465104,0.882856,0.065139,0.040454000000000004,0.029248000000000003,-0.051815,0.00566,0.006624,-0.015472
354,1.7073349999999998,-1.082861,1.696511,0.46443999999999996,0.8833030000000001,0.063811,0.05223099999999999,0.038965,-0.036838,0.006919,0.005705,-0.018965
355,1.705355,-1.083669,1.6935669999999998,0.463858,0.8836809999999999,0.062796,0.049032,0.04322,-0.032593000000000004,0.007593000000000001,0.003907,-0.024817
356,1.7017060000000002,-1.084335,1.6893900000000002,0.463501,0.883993,0.061026,0.035128,0.0305,-0.036946,0.013443,0.004343,-0.031180000000000003
357,1.6995099999999999,-1.08492,1.6869560000000001,0.463121,0.884266,0.059940999999999994,0.014797999999999999,0.009294,-0.044537,0.026839,-0.005741,-0.041203
358,1.699629,-1.0857379999999999,1.687157,0.46239600000000003,0.884648,0.059904,-0.005587,-0.009835,-0.038245,0.040106,-0.011814,-0.038267
359,1.6980389999999999,-1.085444,1.686205,0.46274799999999994,0.884511,0.059201,-0.023827,-0.017294,-0.022337,0.042745,-0.00179,-0.03613
360,1.6989439999999998,-1.0856780000000001,1.687577,0.46248900000000004,0.8846200000000001,0.05959299999999999,-0.033451999999999996,-0.011977,-0.011728,0.032307999999999996,0.003503,-0.027565
361,1.698779,-1.085213,1.6880169999999999,0.462908,0.884403,0.059570000000000005,-0.037785,-0.017327000000000002,-0.002136,0.016111,-0.0030399999999999997,-0.016586
362,1.697452,-1.0844610000000001,1.687789,0.463645,0.8840520000000001,0.059039,-0.032510000000000004,-0.047947000000000004,-0.0021260000000000003,0.010643999999999999,-0.012866999999999998,-0.016193
363,1.6955310000000001,-1.0839530000000002,1.687772,0.464204,0.883814,0.05820499999999999,-0.044400999999999996,-0.088366,-0.007495999999999999,0.015105,0.002523,-0.01757
364,1.694807,-1.0836709999999998,1.6893490000000002,0.46449300000000004,0.883682,0.057899,-0.043414999999999995,-0.103296,-0.004264,0.02446,0.016983,-0.005850999999999999
365,1.695698,-1.082905,1.6919939999999998,0.465113,0.883323,0.058397000000000004,-0.021004,-0.077901,0.019362,0.016363,0.018029,0.026532999999999998
366,1.694607,-1.08223,1.691947,0.465767,0.883007,0.057963,0.007906999999999999,-0.033345,0.040871,-0.002373,0.028843,0.041509
367,1.6933060000000002,-1.081359,1.6907,0.466606,0.882598,0.057451,0.030417000000000003,-0.0015,0.049533999999999995,-0.025764,0.028734,0.025831
368,1.693066,-1.081421,1.690277,0.466566,0.882626,0.057333,0.030454000000000002,-0.011014,0.031383999999999995,-0.022137999999999998,0.017108,0.022288
369,1.6913580000000001,-1.0810629999999999,1.688753,0.466976,0.882458,0.056574,0.033669,-0.020561000000000003,0.0186,0.001347,0.0044280000000000005,0.026266
370,1.6914040000000001,-1.080494,1.688695,0.467472,0.8821899999999999,0.056655,0.041277,-0.00854,0.01642,0.012203,0.005108,0.033829000000000005
371,1.689482,-1.0803180000000001,1.686518,0.46773400000000004,0.882107,0.055776,0.053089,0.004219,0.012213,0.01365,0.012972999999999998,0.041377
372,1.6898900000000001,-1.080493,1.6861110000000001,0.467558,0.8821899999999999,0.055948000000000005,0.048968,0.020283000000000002,-0.004928,0.005175,0.023892,0.03588
373,1.6918330000000001,-1.081173,1.6869439999999998,0.46685299999999996,0.88251,0.056784,0.05016,0.028885,-0.025228,-0.002436,0.005124,0.024408000000000003
374,1.6920240000000002,-1.081935,1.686034,0.466174,0.882868,0.056791999999999995,0.049192,0.042772000000000004,-0.033799,-0.001178,0.004919,0.021532
375,1.6930290000000001,-1.082961,1.685532,0.465218,0.8833489999999999,0.05715,0.061002,0.058716,-0.034806000000000004,-0.0054859999999999996,0.001035,0.012934000000000001
376,1.69278,-1.084686,1.683432,0.46371899999999994,0.884157,0.056848,0.07602300000000001,0.081022,-0.031528,-0.010701,0.019301,0.00022
377,1.6915650000000002,-1.085864,1.679936,0.46275299999999997,0.884707,0.056159,0.08355900000000001,0.102276,-0.025095,-0.010559,0.012586,-0.006522
378,1.68871,-1.087141,1.6747919999999998,0.461789,0.885301,0.054705,0.086779,0.097255,-0.025155,0.000384,0.021407,-0.022784
379,1.6865430000000001,-1.08792,1.670638,0.461222,0.8856629999999999,0.053624,0.08137899999999999,0.08766399999999999,-0.019839,0.017523,0.012042,-0.029653
380,1.685023,-1.088423,1.66698,0.46086000000000005,0.8858969999999999,0.052873,0.089861,0.081221,-0.014431,0.018785,0.004896,-0.027741000000000002
381,1.681888,-1.088447,1.661992,0.461003,0.885907,0.051426,0.090862,0.075852,-0.004802000000000001,0.023937,-0.000394,-0.022037
382,1.6786459999999999,-1.088394,1.657042,0.461213,0.885883,0.049936,0.078038,0.071631,-0.0038159999999999995,0.016768,-0.001026,-0.028038999999999998
383,1.6775830000000003,-1.088686,1.6543849999999998,0.461009,0.8860180000000001,0.049418000000000004,0.051338,0.058966,-0.010395999999999999,0.013585,-0.00139,-0.029764
384,1.674971,-1.088334,1.650956,0.46144700000000005,0.885855,0.048246,0.023545,0.038851,-0.018039,0.019388,-0.0026149999999999997,-0.01605
385,1.6740099999999998,-1.087596,1.649375,0.462143,0.8855120000000001,0.047869999999999996,0.003281,0.037864999999999996,-0.020311000000000003,0.019424,0.007431999999999999,-0.008243
386,1.674219,-1.087784,1.648742,0.461967,0.8856,0.047949,0.008704,0.048813,-0.017168,0.013297999999999999,0.014852,-0.009618999999999999
387,1.67395,-1.088319,1.647457,0.461509,0.885848,0.047776,0.018307,0.051962,-0.013900999999999998,0.0014119999999999998,0.010804000000000001,-0.006211
388,1.674275,-1.0887280000000001,1.646695,0.461133,0.8860379999999999,0.047888,0.020403,0.048737,-0.008542000000000001,-0.0016300000000000002,0.009668000000000001,-0.001288
389,1.673987,-1.089078,1.645417,0.460838,0.8862,0.047724,0.029957,0.042295,-0.004194,-0.003471,0.007522,-0.01066
390,1.672693,-1.089502,1.643291,0.46052600000000005,0.8863969999999999,0.047089,0.029952999999999997,0.038045999999999996,-0.0073939999999999995,0.006683,0.007006,-0.007508
391,1.6710310000000002,-1.08931,1.640945,0.46077299999999993,0.886307,0.046341,0.026755,0.03063,-0.014883,0.018658,0.0032340000000000003,-0.013519
392,1.6702009999999998,-1.0893629999999999,1.639672,0.460764,0.886332,0.045954,0.013934,0.015803,-0.025633999999999997,0.022878,0.001302,-0.011590999999999999
393,1.669675,-1.088701,1.6389349999999998,0.461372,0.886025,0.045769,0.010676,0.008336,-0.020302,0.023918000000000002,0.006492,0.005531
394,1.6698419999999998,-1.088699,1.6389619999999998,0.461366,0.8860239999999999,0.045846,-0.0010789999999999999,0.003055,-0.021444,0.010405,0.012825,-0.000162
395,1.6699869999999999,-1.089137,1.639152,0.46097299999999997,0.8862270000000001,0.045875,-0.018143,0.0031190000000000002,-0.022632,0.004236,0.006731999999999999,-0.009391
396,1.669145,-1.089342,1.638682,0.46083100000000005,0.8863219999999999,0.045469,-0.020337,-0.009662,-0.021562,0.007354,-0.006698999999999999,-0.015882
397,1.667468,-1.089261,1.637615,0.460978,0.886285,0.044703,-0.014,-0.018234,-0.015096,0.010671,-0.002175,-0.021006
398,1.6668040000000002,-1.089233,1.637494,0.46103299999999997,0.886272,0.044399,-0.016156,-0.017187,-0.008702,0.014477,0.003285,-0.017467
399,1.6655380000000002,-1.088935,1.636802,0.461351,0.886134,0.04384,-0.012943999999999999,-0.015068999999999999,-0.00868,0.014066999999999998,0.006765,-0.013841
400,1.6638490000000001,-1.088655,1.63563,0.461671,0.8860040000000001,0.043084,-0.011875,-0.007647,-0.0012029999999999999,0.017043,0.011075,-0.020043000000000002
401,1.663057,-1.088418,1.6349989999999999,0.46191400000000005,0.8858940000000001,0.042738,-0.0033,0.002967,0.00098,0.019180000000000003,0.0112,-0.019987
402,1.6615659999999999,-1.087468,1.633341,0.462816,0.885453,0.042125,0.016977000000000003,0.017753,0.014993000000000001,0.027083,0.006957,-0.0045119999999999995
403,1.66095,-1.086227,1.63204,0.46393500000000004,0.884876,0.041939,0.037204,0.028255000000000002,0.035419,0.021783,0.009396,0.004692
404,1.6599959999999998,-1.085204,1.6301649999999999,0.46487700000000004,0.8843989999999999,0.041576999999999996,0.053134,0.031318,0.054755,0.0006230000000000001,0.012315000000000001,0.0059689999999999995
405,1.658736,-1.085072,1.6279370000000002,0.465045,0.884337,0.041002,0.062716,0.027024,0.054825,-0.017352,0.015413,0.005721
406,1.6571630000000002,-1.08477,1.625483,0.465375,0.8841959999999999,0.040293,0.063802,0.023855,0.047356999999999996,-0.019101,0.024556,0.008627
407,1.656575,-1.0851110000000002,1.62381,0.46509799999999996,0.8843549999999999,0.039994,0.069201,0.032385000000000004,0.04097,-0.013713,0.027037000000000002,0.016449000000000002
408,1.6565,-1.085216,1.622316,0.465009,0.8844040000000001,0.039951,0.077819,0.043044,0.032468000000000004,-0.010342,0.013942,0.019696
409,1.6556520000000001,-1.085091,1.619949,0.46515200000000007,0.884346,0.039566000000000004,0.06840700000000001,0.05429199999999999,0.018369,-0.0066560000000000005,0.011864,0.018402
410,1.6557130000000002,-1.085105,1.618474,0.465138,0.8843530000000001,0.039593,0.054613,0.057593,0.004382,-0.002522,0.009477,0.025287
411,1.658623,-1.085467,1.6194709999999999,0.46470200000000006,0.8845209999999999,0.040919,0.036555000000000004,0.0716,0.002078,-0.000453,0.027191000000000003,0.039938
412,1.6653950000000002,-1.087077,1.624009,0.462995,0.8852709999999999,0.043930000000000004,0.0035039999999999997,0.071746,-0.004568,-0.027555,0.009336,0.038742
413,1.668909,-1.087859,1.626116,0.462149,0.8856350000000001,0.045489,-0.018941,0.056938,-0.011117,-0.030951,0.007035,0.032865
414,1.6732619999999998,-1.089307,1.629497,0.460671,0.8863059999999999,0.047369,-0.022193,0.028261,-0.029267,-0.020087999999999998,0.013290999999999999,0.02392
415,1.676033,-1.090846,1.631821,0.45918100000000006,0.8870180000000001,0.048501999999999997,-0.016850999999999998,0.015521,-0.044170999999999995,-0.009581000000000001,0.020773,0.010809000000000001
416,1.677512,-1.09238,1.632947,0.457755,0.887725,0.049036,-0.001859,0.016581,-0.05582,-0.000892,0.018983,0.006292
417,1.6786900000000002,-1.093705,1.633646,0.456527,0.8883340000000001,0.049448,-0.002796,0.030494,-0.0708,0.008057,0.007677,0.003515
418,1.679905,-1.094803,1.6341430000000001,0.45549700000000004,0.8888379999999999,0.049897000000000004,-0.02187,0.050835000000000005,-0.07950299999999999,0.015496000000000001,-0.002379,-0.006287
419,1.68225,-1.0952870000000001,1.635642,0.454951,0.889059,0.050917000000000004,-0.050663,0.061801,-0.072296,0.016133,-0.020926,-0.006346
420,1.6859970000000002,-1.0952680000000001,1.638332,0.45477399999999996,0.889051,0.052623,-0.057146,0.070239,-0.045643,0.015624,-0.018415,0.002644
421,1.6900439999999999,-1.095682,1.641215,0.454192,0.8892399999999999,0.054419,-0.06363400000000001,0.073367,-0.023259000000000002,0.0009019999999999999,0.014019,0.0009550000000000001
422,1.6930580000000002,-1.096876,1.643187,0.452971,0.8897860000000001,0.055659,-0.062599,0.07015,-0.018978000000000002,-0.013441999999999999,0.0336,-0.019084
423,1.695486,-1.097849,1.644928,0.451975,0.89023,0.05665,-0.045599,0.04244,-0.030576,-0.013758000000000001,0.032225,-0.028756999999999998
424,1.697487,-1.09846,1.6463849999999998,0.451321,0.890508,0.057486,-0.020013999999999997,0.033846,-0.03466,-0.003995,0.023295,-0.029273
425,1.697257,-1.09915,1.645343,0.450725,0.8908219999999999,0.057304999999999995,0.012075,0.060330999999999996,-0.025924000000000003,0.011113,0.014162000000000001,-0.00895
426,1.697644,-1.099337,1.6441130000000002,0.450538,0.890906,0.057458,0.046224,0.07825700000000001,-0.009684,0.007058,0.003243,0.0076359999999999996
427,1.6974040000000001,-1.099361,1.641666,0.45053000000000004,0.890918,0.057347,0.059021000000000004,0.110275,0.014891,0.003694,-0.00133,0.008128
428,1.697346,-1.099049,1.6387919999999998,0.450809,0.890776,0.057356,0.062265,0.134705,0.029838,0.0062829999999999995,0.016131,0.000139
429,1.697471,-1.098472,1.635658,0.451312,0.8905129999999999,0.057477,0.050564,0.146447,0.034013999999999996,0.009488,0.018316,-0.011762
430,1.696641,-1.0982399999999999,1.632298,0.451564,0.890408,0.057129,0.033401,0.11352899999999999,0.022185,0.002614,0.014469,0.001221
431,1.6977209999999998,-1.098207,1.631127,0.451532,0.890393,0.057620000000000005,0.024850999999999998,0.099753,0.01146,-0.001641,0.015888,0.0048189999999999995
432,1.698841,-1.098783,1.630217,0.45095799999999997,0.890655,0.05806,0.022746000000000002,0.090238,-0.004568,-0.00386,-0.001998,-0.0054329999999999995
433,1.6995360000000002,-1.0990469999999999,1.62927,0.45068400000000003,0.890775,0.05834400000000001,0.017388,0.066893,-0.022734,0.003432,-0.006055,-0.0024809999999999997
434,1.7004849999999998,-1.099257,1.629051,0.45044300000000004,0.89087,0.058747,0.0066760000000000005,0.049916,-0.030264,0.015788999999999997,-0.010881,0.004333
435,1.701012,-1.0986639999999999,1.628776,0.45093599999999995,0.890601,0.059052999999999994,-0.006228,0.041627,-0.031438,0.036108999999999995,-0.006964,-0.00757
436,1.701847,-1.098478,1.6291069999999999,0.45105100000000004,0.890516,0.059451,-0.025474,0.034227999999999995,-0.029424000000000002,0.036894,-0.009458,-0.01105
437,1.7030319999999999,-1.098127,1.630026,0.45128999999999997,0.8903559999999999,0.060027,-0.042575999999999996,0.024708,-0.031664,0.044483,-0.017644999999999997,-0.018187000000000002
438,1.704633,-1.09754,1.6316030000000001,0.451711,0.8900889999999999,0.060819000000000005,-0.057545000000000006,0.014119999999999999,-0.034956,0.047923,-0.020094,-0.008481
439,1.70786,-1.098136,1.6349690000000001,0.45098699999999997,0.89036,0.062203999999999995,-0.081006,0.006784,-0.044724,0.04326,-0.001292,-0.007379000000000001
440,1.7108400000000001,-1.0983180000000001,1.6384020000000001,0.450639,0.890443,0.063525,-0.09805599999999999,0.002616,-0.053382000000000006,0.035765,0.009856,-0.015307
441,1.714402,-1.099237,1.6427040000000002,0.4496,0.890861,0.065013,-0.108786,-0.013318,-0.055573000000000004,0.005966,0.015847,-0.013056
442,1.718041,-1.1002530000000001,1.6472669999999998,0.44846499999999995,0.891322,0.06651499999999999,-0.110971,-0.013356999999999999,-0.043838999999999996,-0.006220000000000001,0.013158000000000001,-0.005984000000000001
443,1.7222970000000002,-1.100698,1.652239,0.44778599999999996,0.891524,0.068364,-0.10251500000000001,-0.0048259999999999996,-0.037408,-0.0132,0.017275,-0.0015300000000000001
444,1.726114,-1.10112,1.656223,0.44714899999999996,0.8917149999999999,0.07001399999999999,-0.070413,0.026978,-0.026543,-0.035696,0.041145999999999995,0.0073019999999999995
445,1.729645,-1.102463,1.6589049999999999,0.44571700000000003,0.892322,0.071403,-0.036154,0.068344,-0.011406,-0.034874,0.043759,0.00605
446,1.7322549999999999,-1.102496,1.659662,0.4455,0.892337,0.072561,-0.004004,0.11186199999999999,0.0005139999999999999,-0.031452,0.036634,0.011667
447,1.735079,-1.102962,1.6596540000000002,0.444883,0.892547,0.073751,0.029144999999999997,0.146828,0.018858,-0.012616,0.034852,0.006342
448,1.736432,-1.1025790000000002,1.6574810000000002,0.44511999999999996,0.892374,0.074409,0.052683,0.17333099999999999,0.030739,-0.009039,0.031514999999999994,0.0018390000000000001
449,1.737193,-1.102096,1.6543849999999998,0.445488,0.892156,0.07481900000000001,0.071867,0.175369,0.03728,-0.008125,0.030924,-0.0034850000000000003
450,1.7359,-1.101927,1.6493369999999998,0.445733,0.8920799999999999,0.074268,0.082514,0.17531,0.042694,0.006461,0.003367,-0.002704
451,1.7357069999999999,-1.10102,1.645228,0.44654499999999997,0.891669,0.07431499999999999,0.090865,0.171061,0.053423000000000005,0.005603,-0.005118999999999999,0.002208
452,1.735271,-1.100021,1.6410310000000001,0.447456,0.891217,0.074266,0.085463,0.158289,0.055539,0.006096,-0.007458,-0.000505
453,1.735164,-1.099284,1.6376959999999998,0.448112,0.890882,0.074326,0.06086799999999999,0.132859,0.042581,0.016975999999999998,-0.00456,-0.009826999999999999
454,1.735365,-1.098839,1.635463,0.448488,0.8906799999999999,0.07448099999999999,0.037315,0.096795,0.024303,0.026793,-0.006372,-0.01372
455,1.7354049999999999,-1.096989,1.633869,0.45011,0.8898370000000001,0.074769,0.011595999999999999,0.067074,0.019893,0.046701,-0.016821,-3.1e-05
456,1.7365979999999999,-1.096542,1.634191,0.450413,0.889633,0.07537100000000001,-0.024841,0.032043,0.020752,0.043331,-0.013077000000000002,0.008217
457,1.738376,-1.095942,1.636061,0.450804,0.889359,0.076261,-0.060234,-0.008318,0.021624,0.03415,-0.00705,0.011508
458,1.740705,-1.095323,1.639315,0.451167,0.889076,0.077404,-0.08379600000000001,-0.039086,0.010817,0.006520000000000001,0.009406999999999999,0.001255
459,1.742588,-1.095176,1.64268,0.45115,0.889009,0.078275,-0.079677,-0.059271000000000004,-0.000877,-0.001702,0.007765,-0.0034920000000000003
460,1.743987,-1.0952,1.6456220000000001,0.45101899999999995,0.88902,0.078903,-0.06365900000000001,-0.058253,-0.002904,-0.003387,0.006046,-0.0026089999999999998
461,1.746773,-1.095294,1.6493650000000002,0.450715,0.8890629999999999,0.080144,-0.042247,-0.037038,0.001491,-0.0031899999999999997,0.007361,0.013499
462,1.749557,-1.0951440000000001,1.6526169999999998,0.450622,0.8889940000000001,0.081423,-0.029394999999999998,-0.020058000000000003,0.006899,0.0036630000000000005,0.012419,0.017958000000000002
463,1.7525369999999998,-1.094637,1.65566,0.45082,0.888762,0.082846,-0.025101,-0.008375,0.012255,0.009705,0.014909,0.017662999999999998
464,1.753801,-1.0941610000000002,1.6572080000000002,0.45113100000000006,0.8885430000000001,0.083493,-0.028336,-0.013697999999999998,0.014376,0.011851,0.006018,0.011706
465,1.755538,-1.0928149999999999,1.659297,0.45216000000000006,0.887926,0.084496,-0.029467,-0.021176,0.02079,0.016697,0.000731,0.012015999999999999
466,1.756209,-1.0917709999999998,1.6605869999999998,0.45301499999999995,0.887445,0.084971,-0.030616,-0.030793,0.029341000000000002,0.018436,0.006309,0.007803
467,1.7567689999999998,-1.090552,1.661989,0.45403000000000004,0.886882,0.085424,-0.033894,-0.041460000000000004,0.035742,0.012111,0.010884,0.004282
468,1.757196,-1.08986,1.6635209999999998,0.454596,0.8865620000000001,0.08573099999999999,-0.030775,-0.057458,0.037920999999999996,-0.00054,0.022129,0.003563
469,1.757023,-1.0894,1.6647610000000002,0.45501199999999997,0.8863489999999999,0.085729,-0.022317,-0.075593,0.036933999999999995,-0.0026190000000000002,0.027973,0.00883
470,1.756559,-1.0889790000000001,1.665761,0.45541800000000005,0.8861540000000001,0.085587,-0.000991,-0.077797,0.037084,-0.0034990000000000004,0.028671,0.017777
471,1.7575900000000002,-1.089146,1.66767,0.45518400000000003,0.886232,0.086028,0.026825,-0.059782,0.037252,-0.014159,0.019941999999999998,0.028245
472,1.75866,-1.0901379999999998,1.668826,0.45422799999999997,0.886691,0.086351,0.051561,-0.023612,0.028827999999999996,-0.028004,0.025006999999999998,0.028593
473,1.7576169999999998,-1.090951,1.667316,0.45360900000000004,0.887066,0.085743,0.077342,0.007227,0.020419,-0.035976,0.028475999999999998,0.026180000000000002
474,1.756241,-1.0923450000000001,1.664773,0.45251099999999994,0.887709,0.084891,0.103146,0.035965,0.004535,-0.036511,0.032747000000000005,0.025856999999999998
475,1.754586,-1.0929280000000001,1.6613069999999999,0.452142,0.887977,0.084048,0.10653199999999999,0.07219500000000001,-0.0008300000000000001,-0.013619999999999998,-0.0032270000000000003,0.019483
476,1.753061,-1.09303,1.657373,0.45218100000000006,0.8880239999999999,0.083342,0.095978,0.09992100000000001,0.001198,0.0043619999999999996,-0.005898,0.011187
477,1.7524540000000002,-1.093063,1.654597,0.45220299999999997,0.8880389999999999,0.083062,0.040525,0.088465,-0.016265,0.024787,-0.003686,-0.010674
478,1.75101,-1.092311,1.6520990000000002,0.452978,0.8876940000000001,0.082528,-0.010758,0.049317,-0.039001,0.060677999999999996,-0.011824,-0.036981
479,1.7530759999999999,-1.093192,1.654049,0.45203699999999997,0.888099,0.08332200000000001,-0.049333,-0.0037479999999999996,-0.055226,0.070134,-0.017509,-0.037698
480,1.755181,-1.094011,1.656995,0.451146,0.888475,0.08413999999999999,-0.061256,-0.037825,-0.047788,0.075252,-0.012849000000000001,-0.03168
481,1.7544380000000002,-1.093084,1.6580869999999999,0.45201800000000003,0.888049,0.083955,-0.06999,-0.075111,-0.040318,0.053627999999999995,-0.010684,-0.029298
482,1.7554439999999998,-1.093551,1.661511,0.45152600000000004,0.8882639999999999,0.084334,-0.077669,-0.119835,-0.038178,0.029355000000000003,-0.010409999999999999,-0.025771
483,1.754618,-1.093402,1.6642439999999998,0.451726,0.8881950000000001,0.083985,-0.087494,-0.161381,-0.029646,0.015819,-0.007351000000000001,-0.024293000000000002
484,1.755048,-1.093667,1.668654,0.45145799999999997,0.888317,0.084136,-0.100373,-0.17944100000000002,-0.030781,0.018208000000000002,-0.006725,-0.021483000000000002
485,1.7537900000000002,-1.0933709999999999,1.671502,0.451822,0.888181,0.083616,-0.085393,-0.165663,-0.026418999999999998,0.025122,-0.006894,-0.018003
486,1.75256,-1.092949,1.673704,0.452292,0.8879870000000001,0.083128,-0.07034,-0.131662,-0.017809000000000002,0.030587,0.0071849999999999995,-0.016905
487,1.751045,-1.092076,1.6749080000000003,0.45318100000000006,0.8875850000000001,0.08258099999999999,-0.057459,-0.100871,-0.003868,0.02036,0.007633,-0.0085
488,1.75073,-1.091523,1.6766919999999998,0.453689,0.88733,0.082526,-0.057444,-0.087065,0.006797,0.008865999999999999,0.007445,-0.013343
489,1.7499349999999998,-1.0912709999999999,1.678174,0.453975,0.887214,0.082206,-0.06390599999999999,-0.09983099999999999,0.007837,0.001286,0.00602,-0.02024
490,1.745537,-1.091358,1.6771009999999997,0.45425600000000005,0.8872540000000001,0.080195,-0.072588,-0.142381,-0.000715,0.002653,0.001372,-0.025874
491,1.7444110000000002,-1.090851,1.679348,0.45478999999999997,0.88702,0.079761,-0.05025,-0.145702,0.011196,0.0033399999999999997,-0.010952,-0.0066560000000000005
492,1.7431130000000001,-1.090042,1.681075,0.455599,0.8866459999999999,0.07929299999999999,-0.052345,-0.130807,0.017573,0.011472,0.010296,0.001166
493,1.74436,-1.089325,1.684694,0.45612600000000003,0.8863139999999999,0.079972,-0.046937,-0.106352,0.025057,0.004979,0.019554,0.017273
494,1.744519,-1.088999,1.6868299999999998,0.456399,0.8861629999999999,0.080094,-0.04045,-0.092504,0.019742,-0.002694,0.020697,0.012176000000000001
495,1.7448549999999998,-1.089877,1.6891909999999999,0.45560500000000004,0.8865700000000001,0.080112,-0.032997000000000005,-0.102091,0.013392,-0.014504,0.020992,0.012051000000000001
496,1.7450430000000001,-1.090062,1.691318,0.455428,0.886656,0.08017,-0.028654000000000002,-0.091427,0.006998000000000001,-0.013595,0.024187,0.018997
497,1.7457479999999999,-1.0902690000000002,1.693611,0.455191,0.8867510000000001,0.080459,-0.034899,-0.070043,-0.006961,-0.004919,0.025923,0.020966
498,1.747224,-1.090596,1.696378,0.45478599999999997,0.8869030000000001,0.08108,-0.044377,-0.053983,-0.0188,-0.003415,0.013992,0.017126
499,1.7484330000000001,-1.090854,1.6986689999999998,0.454462,0.887022,0.081589,-0.029432,-0.045538,-0.012297,-0.000666,0.007265000000000001,0.012953999999999999
500,1.7493049999999999,-1.0904690000000001,1.700243,0.45472700000000005,0.8868440000000001,0.08204600000000001,-0.014483000000000001,-0.026477999999999998,0.003807,0.008453,-0.009234000000000001,0.015778
501,1.751539,-1.0894059999999999,1.702584,0.45547,0.886352,0.083231,-0.015544,-0.011609999999999999,0.016602000000000002,0.0036969999999999998,0.014130000000000002,0.004141
502,1.751844,-1.0892700000000002,1.703279,0.455563,0.886289,0.083392,-0.014530000000000001,-0.023332,0.016623,-0.004422,0.015536000000000001,0.002058
503,1.751527,-1.0895270000000001,1.703709,0.455366,0.886408,0.08320599999999999,-0.010262,-0.040323000000000005,-0.00041900000000000005,-0.014905000000000002,0.012152,-0.007736
504,1.7501529999999998,-1.090855,1.7033740000000002,0.45432100000000003,0.887022,0.082371,-0.009111,-0.042376,-0.020707,-0.013922,0.009234000000000001,-0.011249
505,1.749267,-1.091647,1.7033610000000001,0.453701,0.887388,0.081843,-0.005828,-0.031705000000000004,-0.028176999999999997,-0.008038,0.005419,-0.012782
506,1.7474299999999998,-1.0925770000000001,1.702093,0.453039,0.8878159999999999,0.08086499999999999,-0.0035960000000000002,-0.005104,-0.022855,0.0014140000000000001,0.009783,-0.021523
507,1.744936,-1.0930799999999998,1.699803,0.45279899999999995,0.8880469999999999,0.079657,-0.014159,0.017302,-0.022956999999999998,0.013799,0.016906,-0.030142000000000002
508,1.744789,-1.093124,1.699511,0.452772,0.888067,0.079584,-0.022668,0.022657,-0.023022,0.027819,0.014962999999999999,-0.023569
509,1.743884,-1.09225,1.698532,0.45360900000000004,0.8876649999999999,0.079308,-0.020609,0.020458,-0.008045,0.033086000000000004,0.00798,-0.011803
510,1.744003,-1.091091,1.6983830000000002,0.454612,0.887131,0.079539,-0.012173999999999999,0.022461000000000002,0.016584,0.021172,0.004974,-0.003382
511,1.7440939999999998,-1.0907950000000002,1.6981709999999999,0.45486400000000005,0.8869940000000001,0.079626,-0.006945000000000001,0.011738,0.029452,-0.003188,0.012038,-0.008657
512,1.742177,-1.091437,1.6965439999999998,0.45445399999999997,0.8872899999999999,0.07865599999999999,-0.00193,-0.01811,0.031668,-0.017305,0.027565,-0.024640000000000002
513,1.739181,-1.092231,1.6943409999999999,0.45399300000000004,0.8876569999999999,0.077176,0.006561,-0.030916000000000003,0.029602999999999997,-0.013182,0.029107,-0.022794
514,1.7374080000000003,-1.091869,1.6930290000000001,0.454446,0.88749,0.076425,0.020464,-0.021386000000000002,0.031824,0.000586,0.012443000000000001,-0.009027
515,1.735078,-1.090718,1.6908009999999998,0.45563000000000003,0.886959,0.075533,0.038592,-0.0066040000000000005,0.049025,0.014263999999999999,-0.001567,-0.0028399999999999996
516,1.7330299999999998,-1.0884209999999999,1.688561,0.457794,0.8858950000000001,0.074928,0.034296,0.005057,0.06714400000000001,0.034957999999999996,-0.00673,0.007622
517,1.731673,-1.0869229999999999,1.686657,0.459204,0.8852,0.074519,0.030014,0.023096000000000002,0.08845499999999999,0.058008000000000004,-0.014990999999999999,0.027623
518,1.7303400000000002,-1.085113,1.68475,0.46088500000000004,0.8843559999999999,0.074161,0.026713,0.011347,0.099129,0.056464999999999994,-0.010348,0.037823
519,1.730711,-1.082525,1.6848,0.463114,0.8831450000000001,0.074697,0.02648,-0.02274,0.10131799999999999,0.025625,0.007495,0.043177
520,1.7277169999999997,-1.080719,1.6824970000000001,0.46491000000000005,0.8822969999999999,0.073559,0.047679,-0.061134,0.094037,-0.034811,0.03085,0.036869
521,1.7256340000000001,-1.08057,1.681241,0.465193,0.8822260000000001,0.072611,0.0722,-0.080329,0.078205,-0.045377999999999995,0.035207999999999996,0.035925
522,1.720675,-1.079576,1.6774939999999998,0.46641400000000005,0.881758,0.070434,0.086184,-0.07921399999999999,0.053732,-0.049056,0.035646,0.037492000000000004
523,1.718021,-1.0802200000000002,1.675359,0.466038,0.8820610000000001,0.069112,0.094927,-0.050407,0.035592,-0.036304,0.027698,0.036784
524,1.714015,-1.080033,1.6713240000000003,0.466474,0.881973,0.067268,0.092,-0.008773999999999999,0.016291,-0.039106,0.025802,0.037728
525,1.7129919999999998,-1.081426,1.6693779999999998,0.465326,0.8826290000000001,0.066617,0.084783,0.020127000000000003,-0.011575,-0.038187,0.024825999999999997,0.03023
526,1.7112080000000003,-1.082184,1.666482,0.46478100000000006,0.882985,0.065693,0.066886,0.04905,-0.036306,-0.038664,0.020288999999999998,0.029827
527,1.712473,-1.0841690000000002,1.666188,0.462962,0.883915,0.06603300000000001,0.038212,0.064223,-0.060017999999999995,-0.027170999999999997,0.016216,0.023429
528,1.713672,-1.085658,1.66598,0.461579,0.88461,0.066401,-0.003266,0.069788,-0.083816,-0.001756,0.027285000000000004,0.001348
529,1.715223,-1.087174,1.66651,0.46014799999999995,0.885317,0.066923,-0.029955000000000002,0.060315,-0.089331,0.026164999999999997,0.0017530000000000002,-0.020888
530,1.7180240000000002,-1.0887209999999998,1.668504,0.458604,0.886034,0.068011,-0.033280000000000004,0.045361,-0.076516,0.034377,-0.004824,-0.017444
531,1.719495,-1.088835,1.669414,0.45840299999999995,0.8860879999999999,0.06867100000000001,-0.015291999999999998,0.034556,-0.053939999999999995,0.038408,-0.009699,-0.003607
532,1.7205669999999997,-1.089712,1.6700669999999997,0.45756099999999994,0.886494,0.06904600000000001,-0.005834000000000001,0.016357,-0.039964,0.020772,-0.026768,-0.011566
533,1.7191900000000002,-1.089346,1.668957,0.457976,0.886324,0.068464,0.002515,-0.018853,-0.033447000000000005,0.028016000000000003,-0.027636,-0.019041
534,1.718722,-1.090016,1.66937,0.457421,0.886634,0.068162,-0.008287000000000001,-0.050765,-0.035618000000000004,0.039665,-0.011238,-0.02588
535,1.7166740000000003,-1.089748,1.6687419999999997,0.457794,0.88651,0.06726,-0.005109000000000001,-0.060272000000000006,-0.039843,0.046463,0.006525,-0.00299
536,1.715718,-1.090547,1.6688310000000002,0.457158,0.8868799999999999,0.06672,0.010957,-0.045418,-0.038682,0.046001,0.008140000000000001,0.010215
537,1.7159200000000001,-1.090471,1.669432,0.45721000000000006,0.8868450000000001,0.066822,0.007912,-0.014496,-0.043013,0.042012,0.01878,0.023068
538,1.716229,-1.09144,1.6699970000000002,0.45633999999999997,0.887292,0.066839,-0.010162000000000001,-0.009072,-0.051691999999999995,0.00588,0.014731999999999999,0.019984000000000002
539,1.7176790000000002,-1.0926280000000002,1.671618,0.45519899999999996,0.8878389999999999,0.067346,-0.013349000000000001,-0.005864,-0.05171900000000001,-0.000685,0.014321,0.012457
540,1.7182979999999999,-1.093551,1.67222,0.454346,0.8882639999999999,0.06750700000000001,0.00162,0.010029000000000001,-0.043088999999999995,-0.0033420000000000004,0.00433,-0.015399000000000001
541,1.7168869999999998,-1.094459,1.6705130000000001,0.453643,0.8886799999999999,0.066749,0.025089,0.026917,-0.024787,-0.00418,0.000572,-0.020301
542,1.7163950000000001,-1.094854,1.669098,0.45332799999999995,0.888861,0.066474,0.036829,0.041735,-0.010838,-0.006642,-0.002951,-0.028938
543,1.7153080000000003,-1.095133,1.66714,0.45315500000000003,0.8889889999999999,0.065946,0.053852,0.026882999999999997,-0.007487000000000001,0.005051,-0.001263,-0.036741
544,1.7136069999999999,-1.095417,1.6646290000000001,0.453017,0.8891190000000001,0.065139,0.064511,0.030019999999999998,-0.002075,0.011491,0.008952,-0.028854
545,1.710066,-1.094962,1.660151,0.45364499999999996,0.888911,0.063591,0.082601,0.038401,0.017269999999999997,0.020444999999999998,0.0058189999999999995,-0.013405000000000002
546,1.706918,-1.0946069999999999,1.655807,0.45415600000000006,0.888748,0.062204999999999996,0.10381800000000001,0.030794,0.036656,0.026755,0.012222,-0.018092
547,1.702912,-1.093955,1.6508880000000001,0.454975,0.8884489999999999,0.060461,0.10793699999999999,0.013671,0.05272999999999999,0.028484,0.017175,-0.015844999999999998
548,1.6978330000000001,-1.0923040000000002,1.644968,0.45673100000000005,0.88769,0.058336,0.110053,0.024256,0.067689,0.031199,0.017263,-0.007295
549,1.6923720000000002,-1.0883909999999999,1.638376,0.460487,0.885882,0.056262,0.135605,0.032607,0.088161,0.018928999999999998,0.0012640000000000001,0.011120999999999999
550,1.6876659999999999,-1.086637,1.632188,0.462289,0.885067,0.054275,0.149401,0.029312,0.10108099999999999,0.007437999999999999,0.008334999999999999,0.010712000000000001
551,1.6829479999999999,-1.0853700000000002,1.626191,0.463654,0.884476,0.05221900000000001,0.131325,0.020012000000000002,0.087075,-0.0031739999999999997,0.016174,0.008634000000000001
552,1.679502,-1.085322,1.621898,0.463873,0.8844540000000001,0.050625,0.11640199999999999,-0.008569,0.054957000000000006,-0.013387999999999999,0.008536,0.009555
553,1.678311,-1.085309,1.619983,0.463945,0.8844479999999999,0.050074,0.107925,-0.012725,0.036741,-0.011507,0.0009279999999999999,0.030782
554,1.676759,-1.085094,1.617753,0.464211,0.8843469999999999,0.049374,0.11117,-0.008448,0.030348000000000003,-0.009804,0.008536,0.052387
555,1.6728889999999998,-1.084881,1.613397,0.46458599999999994,0.8842479999999999,0.047596,0.095282,0.00126,0.014200999999999998,-0.023379,0.022796,0.059383000000000005
556,1.669499,-1.085132,1.609286,0.464524,0.884365,0.045999,0.096555,0.020538,-0.01252,-0.040313999999999996,0.03223,0.046377999999999996
557,1.669316,-1.087495,1.607604,0.462451,0.885466,0.045709,0.104217,0.040848,-0.035999,-0.042957,0.034746,0.034033999999999995
558,1.666955,-1.088885,1.603699,0.46133199999999996,0.8861110000000001,0.044498,0.089573,0.064502,-0.077792,-0.033995,0.040006,0.018414
559,1.6669349999999998,-1.091926,1.601633,0.458649,0.887516,0.04423,0.07589,0.086999,-0.097148,-0.024231,0.023250999999999997,0.014394
560,1.6668180000000001,-1.094156,1.599022,0.456683,0.888542,0.043987,0.071857,0.123483,-0.105799,-0.006945000000000001,0.013833000000000002,0.011219
561,1.66753,-1.096347,1.596444,0.45471300000000003,0.889544,0.044124000000000003,0.090046,0.155298,-0.08541699999999999,-0.001283,0.009351,0.008733
562,1.6674069999999999,-1.098098,1.592495,0.453167,0.890343,0.043918,0.102915,0.17971600000000001,-0.075745,0.005115,0.011284,-0.001147
563,1.666853,-1.099608,1.587857,0.45185299999999995,0.8910290000000001,0.043538,0.11241199999999998,0.1711,-0.060712,0.00295,0.011040000000000001,-0.015934
564,1.6647560000000001,-1.10107,1.58216,0.450646,0.891692,0.042467000000000005,0.117647,0.150833,-0.058513,0.007118000000000001,0.003343,-0.019472999999999997
565,1.6615259999999998,-1.102021,1.5756860000000001,0.44993599999999995,0.892122,0.040935,0.116529,0.145483,-0.052104,0.012161,-0.004991,-0.023754
566,1.6599700000000002,-1.103097,1.57061,0.449043,0.892608,0.040149000000000004,0.11756300000000001,0.151816,-0.038218,0.019066,-0.008787999999999999,-0.02544
567,1.658667,-1.103872,1.565715,0.448405,0.892957,0.039502999999999996,0.105779,0.156059,-0.02335,0.036062000000000004,-0.005994,-0.030699
568,1.655445,-1.103201,1.5591760000000001,0.44912700000000005,0.892655,0.038109,0.09929,0.151754,-0.007363,0.040161,0.002151,-0.033913
569,1.654675,-1.10342,1.554914,0.44896099999999994,0.892754,0.037747,0.089635,0.144314,-0.003148,0.036344,0.00489,-0.054592999999999996
570,1.649862,-1.102771,1.547718,0.449715,0.8924610000000001,0.035631,0.069221,0.106054,-0.008579999999999999,0.033927,0.000727,-0.05797000000000001
571,1.64556,-1.1020969999999999,1.541992,0.45046499999999995,0.892156,0.033741,0.045602,0.06674,-0.014032,0.036596,-0.000463,-0.047993
572,1.6450939999999998,-1.102385,1.540374,0.45022399999999996,0.892287,0.033512,0.035866,0.042251,-0.008728,0.034502,-0.004729,-0.044025999999999996
573,1.6397979999999999,-1.100817,1.534512,0.45178999999999997,0.8915780000000001,0.031224000000000002,0.040139,0.050720999999999995,-0.000157,0.02578,-0.006919,-0.027669
574,1.634617,-1.100135,1.528493,0.45255200000000007,0.8912690000000001,0.028921,0.049675,0.050621,0.015934,0.00454,0.008618,-0.018835
575,1.632462,-1.1001290000000001,1.5253700000000001,0.45261899999999994,0.891266,0.027946,0.040027,0.041062,0.016947,-0.000638,0.014755,-0.01873
576,1.6295979999999999,-1.100489,1.521859,0.45237700000000003,0.8914290000000001,0.026631000000000002,0.032518,0.030438,0.015837,-0.003326,0.013890000000000001,-0.015599000000000002
577,1.628671,-1.100428,1.520067,0.452456,0.891401,0.026215,0.048545,0.038892,0.019142,0.004895,0.008135,0.007553
578,1.62739,-1.099991,1.5173459999999999,0.45287799999999995,0.8912030000000001,0.025657,0.063577,0.069694,0.028822000000000004,0.007951999999999999,0.011720999999999999,0.009606
579,1.626658,-1.099423,1.514679,0.453402,0.8909459999999999,0.025353999999999998,0.056176,0.086756,0.030885000000000003,0.00923,0.01564,0.006490999999999999
580,1.627492,-1.098881,1.5134,0.453863,0.890699,0.02576,0.052983,0.084655,0.026592,0.005305,0.015627000000000002,0.012799
581,1.627691,-1.0985,1.511516,0.454196,0.890526,0.025869,0.06259400000000001,0.086752,0.026657,0.00285,0.015205000000000002,0.014506
582,1.628849,-1.098263,1.510283,0.45437700000000003,0.890418,0.026407,0.057334,0.100634,0.023397,0.00183,0.009423,0.016897
583,1.629105,-1.097861,1.508033,0.45472799999999997,0.890235,0.026545,0.071221,0.10590799999999999,0.024555,-0.0018620000000000002,-0.002555,0.013479
584,1.62879,-1.097306,1.505224,0.455229,0.8899819999999999,0.026430000000000002,0.062667,0.10486,0.027701999999999997,0.005495,0.0056170000000000005,-0.003175
585,1.628607,-1.096741,1.50268,0.455736,0.889724,0.026376,0.040282,0.109199,0.02754,0.009505,0.013322,-0.005013
586,1.629322,-1.096203,1.5011079999999999,0.45619499999999996,0.8894790000000001,0.02673,0.032819,0.103925,0.021086,0.009946,0.016329,0.001224
587,1.6304450000000001,-1.095808,1.499951,0.45651499999999995,0.8892979999999999,0.027263,0.028575,0.107144,0.018916,0.007383,0.010971,0.004475
588,1.6313879999999998,-1.0956620000000001,1.498742,0.45661899999999994,0.889231,0.027701,0.023203,0.09439700000000001,0.014621,-1.4999999999999999e-05,0.013082,-0.002433
589,1.632317,-1.096506,1.498224,0.45584399999999997,0.889617,0.028079000000000003,0.011352,0.048713,-0.0057020000000000005,-0.008105,0.029588,0.002515
590,1.632787,-1.097413,1.498103,0.455025,0.8900309999999999,0.028243,0.019757,0.013555000000000001,-0.01201,-0.01226,0.031127,0.009323999999999999
591,1.632996,-1.098084,1.497738,0.45442200000000005,0.890337,0.028301,0.044288,0.017711,-0.006504,-0.011704,0.014112999999999999,0.020099000000000002
592,1.634378,-1.098589,1.497727,0.453934,0.890566,0.028901,0.066808,0.054876,0.004287,-0.007065000000000001,0.006498,0.025024
593,1.634207,-1.09859,1.495573,0.453938,0.890567,0.028823,0.073246,0.085658,0.026724,-0.00655,0.012525,0.021363
594,1.634752,-1.098557,1.493636,0.45395100000000005,0.890552,0.029073,0.071173,0.102698,0.029891,-6.3e-05,0.01585,0.007548999999999999
595,1.6344299999999998,-1.097975,1.49071,0.454478,0.890287,0.028959,0.07335900000000001,0.113348,0.028824000000000002,0.005925,0.003069,0.001116
596,1.633729,-1.097345,1.4874370000000001,0.455058,0.89,0.028676,0.072278,0.106973,0.025620999999999998,0.009114,0.0031579999999999998,0.001582
597,1.632539,-1.096532,1.484017,0.45581400000000005,0.8896290000000001,0.028179000000000003,0.054132000000000007,0.095356,0.015897,0.012036,0.000294,-0.005901
598,1.631408,-1.0957629999999998,1.481211,0.456528,0.8892770000000001,0.027705,0.038054000000000004,0.065635,0.003006,0.01683,0.0015609999999999999,-0.009303
599,1.630601,-1.095436,1.4793690000000002,0.456841,0.889128,0.027354000000000003,0.025147,0.036939,-0.0023870000000000002,0.018287,0.0018629999999999999,-0.008845
600,1.629802,-1.094402,1.478092,0.45778,0.888654,0.027043,0.009039,0.019925,0.003935,0.022338,-0.004423,-0.004079
601,1.629329,-1.093272,1.477383,0.458795,0.888136,0.026885000000000003,0.008934000000000001,0.008159999999999999,0.015702,0.017432,-0.00015,-0.001967
602,1.629255,-1.092668,1.477174,0.45933199999999996,0.887858,0.026882999999999997,0.001428,0.0028469999999999997,0.018862,0.012270999999999999,0.004736,0.000889
603,1.629357,-1.092854,1.477295,0.459164,0.887943,0.02692,-0.001778,-0.004573,0.012438,-0.003751,0.023083000000000003,-0.000965
604,1.628906,-1.093653,1.4771459999999998,0.45846899999999996,0.88831,0.026670999999999997,-0.008169,-0.017274,-0.002548,-0.0051,0.026758999999999998,-0.001906
605,1.628983,-1.0940860000000001,1.47765,0.458082,0.888509,0.026685000000000004,-0.003882,-0.019393999999999998,-0.008926,-0.0019199999999999998,0.015359999999999999,0.007509999999999999
606,1.6292790000000001,-1.094629,1.478032,0.457593,0.888758,0.026792000000000003,0.012163,-0.003496,-0.002426,-0.005673,0.008703,0.0034659999999999995
607,1.628789,-1.094849,1.477326,0.45741099999999996,0.8888590000000001,0.026556,0.018612,0.014562,0.005072999999999999,-0.001936,0.005718,0.001352
608,1.628779,-1.094615,1.4767540000000001,0.457618,0.8887520000000001,0.026563999999999997,0.017578,0.024145,0.00719,0.007714,0.004925,0.001986
609,1.628719,-1.094106,1.476058,0.458071,0.888518,0.026562,0.010134,0.031619,0.009266,0.01344,0.00499,-0.002316
610,1.627951,-1.093132,1.474827,0.45895600000000003,0.8880709999999999,0.026260000000000002,-0.004814,0.028475,0.009169,0.014631,0.005621,-0.011093
611,1.628117,-1.092762,1.4746350000000001,0.459279,0.887901,0.026355,-0.011248000000000001,0.019979,0.008067,0.015498,0.009514,-0.013293000000000001
612,1.627783,-1.092263,1.474278,0.45973,0.8876709999999999,0.026226999999999997,-0.009184999999999999,0.0008089999999999999,0.004903,0.01317,0.005975,-0.006741
613,1.626524,-1.091749,1.473308,0.46021899999999993,0.8874340000000001,0.025674000000000002,-0.007053,-0.007425,0.005954999999999999,0.006441,0.00345,-0.010186
614,1.626016,-1.091567,1.47317,0.46039300000000005,0.887351,0.025449,-0.011343,-0.016981,0.0016649999999999998,0.008083,0.0073939999999999995,-0.013364
615,1.624382,-1.0913979999999999,1.472257,0.460584,0.887272,0.024704,-0.015628,-0.026532999999999998,-0.003693,0.010684,0.006069,-0.016831
616,1.623319,-1.090822,1.47204,0.46112,0.887007,0.024242,-0.028443,-0.029685000000000003,-0.003776,0.021958000000000002,0.002794,-0.012965
617,1.6228040000000001,-1.089976,1.472418,0.46188100000000004,0.886616,0.024043000000000002,-0.038057,-0.028604,0.00043099999999999996,0.025744,0.0028190000000000003,-0.012903999999999999
618,1.622801,-1.089256,1.47333,0.46251800000000004,0.886283,0.024075,-0.04129,-0.030744999999999998,0.005754,0.016089,0.005517,-0.008709
619,1.623318,-1.089283,1.474721,0.46248199999999995,0.886295,0.024312,-0.047671,-0.028584,0.0035700000000000003,-0.002811,0.01025,-0.007665000000000001
620,1.623875,-1.0896569999999999,1.47619,0.46213699999999996,0.886468,0.024553,-0.052966,-0.027471,-0.003947,-0.007181,0.007162999999999999,-0.009401000000000001
621,1.6251440000000001,-1.089927,1.478215,0.461867,0.8865930000000001,0.025126,-0.044402,-0.023231,-0.00603,-0.0014789999999999998,0.006977,3.5e-05
622,1.626632,-1.0904,1.480253,0.46141000000000004,0.886812,0.025789999999999997,-0.042245,-0.015790000000000002,-0.00389,0.0028539999999999998,0.024382,0.0040869999999999995
623,1.6280379999999999,-1.090533,1.4820659999999999,0.46125600000000005,0.8868729999999999,0.026432,-0.042206,-0.006207,-0.002834,0.002809,0.016493,-0.001057
624,1.629075,-1.090523,1.48335,0.461237,0.886869,0.026911,-0.034723000000000004,-0.000915,-0.0006519999999999999,0.0048579999999999995,0.001208,-0.007792
625,1.628317,-1.0897620000000001,1.4830450000000002,0.46193100000000004,0.886517,0.0266,-0.030476999999999997,-0.005197,0.000454,0.022978,0.007220999999999999,-0.018101
626,1.628492,-1.089386,1.48366,0.46225900000000003,0.886343,0.0267,-0.025194,-0.015872999999999998,0.001575,0.022894,0.005595,-0.013088999999999998
627,1.628526,-1.088598,1.4842950000000001,0.462955,0.885978,0.026756,-0.02738,-0.02334,0.005843999999999999,0.018765,-0.000678,-0.003425
628,1.628533,-1.087799,1.485095,0.46366199999999996,0.8856069999999999,0.0268,-0.038081,-0.030758999999999998,0.005782,0.007437999999999999,-0.005877,-0.004614
629,1.629362,-1.08743,1.4868540000000001,0.46396499999999996,0.8854360000000001,0.027202999999999998,-0.043443999999999997,-0.038193,0.004686,0.009225,-0.0037979999999999997,-0.000607
630,1.6299059999999999,-1.087098,1.48845,0.46424499999999996,0.885281,0.027474000000000002,-0.046639,-0.039238999999999996,0.00253,0.0076489999999999995,0.016926,-0.007393
631,1.630923,-1.087067,1.490443,0.46424399999999993,0.885266,0.027947000000000003,-0.046587,-0.033887,-0.003886,0.0034840000000000006,0.019977,-0.003564
632,1.632763,-1.0873270000000002,1.492945,0.463962,0.885387,0.028787,-0.041191000000000005,-0.020056,-0.003867,0.000638,0.012928,0.009558
633,1.63438,-1.087217,1.494916,0.464012,0.885336,0.029544,-0.033708999999999996,-0.009459,0.0036490000000000003,0.003899,0.005808,0.010343000000000001
634,1.636325,-1.08693,1.4970620000000001,0.464207,0.8852030000000001,0.030462,-0.039049,-0.004139,0.010015000000000001,0.004772,0.005026,0.006159
635,1.6376600000000001,-1.086652,1.498769,0.46441099999999996,0.885074,0.031098,-0.043341000000000005,-0.013694,0.005724,0.008001000000000001,0.004804,-0.004487
636,1.637947,-1.08627,1.499917,0.46474,0.8848959999999999,0.031254000000000004,-0.043412,-0.036039999999999996,-0.000656,0.012098000000000001,0.005729,-0.005208
637,1.638939,-1.086043,1.502092,0.464908,0.88479,0.031729,-0.048818,-0.053061000000000004,-0.001739,0.015133,0.010336,0.003091
638,1.6402430000000001,-1.085711,1.5046680000000001,0.46516,0.8846350000000001,0.032356,-0.054172000000000005,-0.051998,0.003564,0.009648,0.011696999999999999,0.003975
639,1.6415110000000002,-1.0857,1.507141,0.465128,0.8846299999999999,0.032945999999999996,-0.058411000000000005,-0.047713,0.001392,-0.0037630000000000003,0.010222,-0.00484
640,1.6422299999999999,-1.085876,1.509254,0.464949,0.884712,0.03327,-0.059487,-0.058328,-0.007148000000000001,-0.004835,0.009148,-0.01
641,1.642842,-1.0862100000000001,1.511486,0.464634,0.884868,0.033533,-0.056286,-0.066827,-0.015661,-0.002079,0.009297,-0.006693000000000001
642,1.643846,-1.086393,1.51397,0.46443900000000005,0.8849530000000001,0.033988,-0.062615,-0.049765,-0.014659,0.008187,0.011242,-0.001517
643,1.645937,-1.086178,1.51705,0.464556,0.8848530000000001,0.034973000000000004,-0.070011,-0.027393,-0.008329000000000001,0.01515,0.011693,0.005463
644,1.648325,-1.0859889999999999,1.520235,0.464638,0.8847649999999999,0.036095,-0.067861,-0.021831,0.000183,0.011986,0.010926,0.005272
645,1.651357,-1.085573,1.523896,0.46489300000000006,0.8845709999999999,0.037534,-0.066833,-0.019746,0.01087,0.006495999999999999,2.7000000000000002e-05,0.015216
646,1.654728,-1.084915,1.5277969999999998,0.465344,0.8842639999999999,0.039149,-0.058352999999999995,-0.019822,0.022680000000000002,0.005649,0.008467,0.015767
647,1.657375,-1.0843180000000001,1.5310190000000001,0.465765,0.883985,0.040426,-0.059459000000000005,-0.021973,0.029084,0.0037479999999999996,0.016803,0.015909
648,1.6597060000000001,-1.084148,1.533974,0.465819,0.8839049999999999,0.041525,-0.044544,-0.029469,0.025992,-1.4000000000000001e-05,0.022421,0.010812
649,1.662093,-1.083833,1.537117,0.465995,0.883758,0.042663,-0.036074,-0.045467,0.023934,0.0011070000000000001,0.015595,0.020753
650,1.663714,-1.083433,1.539882,0.46627799999999997,0.8835709999999999,0.04345,-0.050002,-0.057139999999999996,0.024919,-0.001068,0.016713,0.021415
651,1.665775,-1.083434,1.543284,0.466186,0.8835709999999999,0.044411,-0.059591,-0.063459,0.015244,-0.007918999999999999,0.010792,0.007972
652,1.6668720000000001,-1.083617,1.545966,0.465976,0.883657,0.044907,-0.057444,-0.06651900000000001,0.006686,-0.0020629999999999997,0.014262,0.002105
653,1.668094,-1.083504,1.548574,0.46602,0.8836040000000001,0.045486,-0.050991,-0.052701,0.008849,-0.000169,0.014269,0.007294
654,1.671314,-1.083593,1.552597,0.465793,0.8836459999999999,0.046979,-0.051979,-0.032464,0.010952,-0.007984,0.011831999999999999,0.021808
655,1.674718,-1.0841370000000001,1.556355,0.465153,0.8839,0.048514,-0.049761,-0.011173,0.013073,-0.016728,0.016308,0.012887000000000001
656,1.676736,-1.084335,1.5587360000000001,0.46488,0.883993,0.049434,-0.047604,-0.010098000000000001,0.008812,-0.012167,0.016641999999999997,0.001057
657,1.6782860000000002,-1.0844799999999999,1.560734,0.464675,0.8840600000000001,0.050141000000000005,-0.033745,-0.018642,0.002509,0.000962,0.011463,0.002807
658,1.6793189999999998,-1.0843120000000002,1.562115,0.46476999999999996,0.8839819999999999,0.050637,-0.025153000000000002,-0.00695,0.001486,0.008985,0.011526,0.005683
659,1.681012,-1.084168,1.563941,0.46481000000000006,0.883915,0.051438,-0.021977,-0.010164,0.0036490000000000003,0.0038020000000000003,0.011212,0.011443
660,1.6823139999999999,-1.084407,1.5656729999999999,0.464533,0.884027,0.052019,-0.017809000000000002,-0.033516000000000004,-0.001667,-0.002634,0.01258,0.008817
661,1.6822419999999998,-1.084654,1.566609,0.46431999999999995,0.884142,0.051962,-0.019991,-0.051588,-0.009137000000000001,0.0013779999999999999,0.016890000000000002,0.0032600000000000003
662,1.682768,-1.084953,1.568174,0.464031,0.884281,0.052176,-0.018938999999999998,-0.050543,-0.0048590000000000005,0.0045060000000000005,0.017712000000000002,0.011651
663,1.6846259999999997,-1.085238,1.570704,0.463682,0.884415,0.05301,-0.018884,-0.036697,-0.0038090000000000003,-0.003476,0.011215000000000001,0.021712000000000002
664,1.687307,-1.086049,1.573884,0.462826,0.884793,0.05416900000000001,-0.028422000000000003,-0.031297000000000005,-0.013499,-0.007,0.011371,0.014769999999999998
665,1.6886970000000001,-1.086581,1.575992,0.462283,0.8850399999999999,0.05475700000000001,-0.035828,-0.026971,-0.023171,-0.005372999999999999,0.013443,0.012487999999999999
666,1.690867,-1.087346,1.5786719999999999,0.46148999999999996,0.885397,0.055679,-0.037916000000000005,-0.017371,-0.024268,-0.004291,0.01385,0.009003
667,1.692805,-1.088123,1.5811030000000001,0.46069899999999997,0.885757,0.05649,-0.037912,-0.022671,-0.030672,0.0016579999999999998,0.011292,0.003203
668,1.6937650000000002,-1.0887,1.582897,0.460136,0.886025,0.056869,-0.037963,-0.036441,-0.033895,0.005593,0.014259,0.000549
669,1.694551,-1.089479,1.5846360000000002,0.45940600000000004,0.886386,0.057146,-0.036862,-0.034292,-0.039231999999999996,0.004888,0.014371,0.0015400000000000001
670,1.6953490000000002,-1.090207,1.586152,0.45871999999999996,0.8867229999999999,0.057432000000000004,-0.027198000000000003,-0.02366,-0.042381999999999996,0.004018,0.005718,-0.000151
671,1.695876,-1.09069,1.587107,0.458265,0.8869459999999999,0.057620000000000005,-0.016505000000000002,-0.009883,-0.033779,0.007906,0.0008869999999999999,1.2e-05
672,1.6966830000000002,-1.0908790000000002,1.588012,0.458053,0.887033,0.05796900000000001,-0.016486,0.002866,-0.025248,0.01146,0.004294,0.001738
673,1.6973799999999999,-1.090856,1.588702,0.458032,0.887023,0.058290999999999996,-0.020778,0.006043,-0.016735,0.013784999999999999,0.005861,-0.001955
674,1.696748,-1.09083,1.588486,0.458092,0.8870100000000001,0.05800399999999999,-0.021934,-0.016316999999999998,-0.01885,0.013144999999999999,0.0076430000000000005,-0.017263
675,1.695827,-1.090791,1.588358,0.458179,0.886993,0.057587,-0.025195,-0.026972000000000003,-0.015653,0.01637,0.008408,-0.01355
676,1.694867,-1.090286,1.588277,0.458679,0.886759,0.057201999999999996,-0.025195,-0.030118000000000002,-0.012472,0.019180000000000003,0.0049039999999999995,-0.005185
677,1.694749,-1.0902180000000001,1.588909,0.45874499999999996,0.8867280000000001,0.05715599999999999,-0.020942,-0.028024,-0.007104000000000001,0.016291999999999997,0.009039,-0.008343000000000001
678,1.693632,-1.0902,1.588591,0.458825,0.886719,0.05664500000000001,-0.012414,-0.029124,-0.005974,0.006996,0.00946,-0.016392
679,1.690568,-1.090493,1.586558,0.45873800000000003,0.886855,0.05520800000000001,-0.006014,-0.035519,-0.011262000000000001,0.005908,0.007203,-0.02231
680,1.689241,-1.090646,1.586051,0.45867600000000003,0.886926,0.054583000000000007,-0.0049310000000000005,-0.034449,-0.013392,0.010242,0.006385,-0.017459
681,1.6879509999999998,-1.090498,1.585521,0.45887700000000003,0.886857,0.054007000000000006,-0.013436000000000002,-0.022724,-0.008123,0.014482,0.001464,-0.012426999999999999
682,1.687065,-1.0898510000000001,1.585232,0.45949399999999996,0.886558,0.05366699999999999,-0.021959,-0.017381,-0.004982,0.014749000000000002,5.4000000000000005e-05,-0.006639
683,1.6874080000000002,-1.089734,1.586003,0.459578,0.8865040000000001,0.053836,-0.028341,-0.012037,-0.003965,0.011216,0.000611,-0.007175
684,1.6871470000000002,-1.089257,1.586352,0.460013,0.886283,0.053765999999999994,-0.037897,-0.016186000000000002,-0.001928,0.013590000000000001,0.0044340000000000004,-0.012384000000000001
685,1.6876419999999999,-1.08903,1.587523,0.460186,0.886178,0.054016999999999996,-0.044316,-0.020425,-0.001966,0.016224000000000002,0.009803000000000001,-0.015259
686,1.68822,-1.088914,1.588948,0.46025699999999997,0.886124,0.054295,-0.045396,-0.029983,-0.00837,0.013696999999999999,0.006012,-0.016865
687,1.6888580000000002,-1.089025,1.5906,0.460124,0.886175,0.054577,-0.046487,-0.03955,-0.012638,0.006566,0.009363,-0.008877
688,1.689296,-1.089228,1.592111,0.45992200000000005,0.8862690000000001,0.05475700000000001,-0.048591,-0.035274,-0.014794999999999999,0.007714,0.014259,-0.013268
689,1.6903759999999999,-1.089375,1.594068,0.459733,0.886337,0.055238,-0.047476,-0.025686,-0.015868,0.007064,0.007506999999999999,-0.004472
690,1.6917,-1.089328,1.596032,0.4597,0.886316,0.055852,-0.048538,-0.016128,-0.0073409999999999994,-0.000563,0.009253,0.001491
691,1.693042,-1.089561,1.5978379999999999,0.45942,0.886424,0.05644299999999999,-0.044251,-0.010820999999999999,-0.00625,-0.003991,0.014409,-0.004258
692,1.6944860000000002,-1.089897,1.599658,0.45904300000000003,0.8865790000000001,0.05707,-0.044198,-0.004409000000000001,-0.0116,-0.003095,0.019549,-0.0047020000000000005
693,1.6956369999999998,-1.090156,1.600955,0.45874899999999996,0.886699,0.05757,-0.037724,0.011548000000000001,-0.011576000000000001,0.009528,0.015248,-0.002104
694,1.697242,-1.089805,1.6022809999999998,0.45896499999999996,0.8865360000000001,0.05834500000000001,-0.020630000000000003,0.024242,-0.003993,0.015538,0.006179,0.0033759999999999997
695,1.698263,-1.0894620000000002,1.6028440000000002,0.45920600000000006,0.8863780000000001,0.058852,-0.005752,0.023078,0.007863,0.013527,0.004201,0.004654999999999999
696,1.6992200000000002,-1.08899,1.6034540000000002,0.45956499999999995,0.886159,0.059346,-0.009035,0.012407,0.015332,0.006561,0.006953,0.0044670000000000005
697,1.6996330000000002,-1.0884209999999999,1.603785,0.46003999999999995,0.8858950000000001,0.0596,-0.009106999999999999,0.004915999999999999,0.023888,0.011975,0.015991,0.002549
698,1.700046,-1.087715,1.604105,0.460636,0.885568,0.059871,-0.010217,0.004882,0.033494,0.015393,0.02259,0.0028280000000000002
699,1.7004279999999998,-1.086725,1.604382,0.46148199999999995,0.885108,0.060160000000000005,-0.005959000000000001,0.00592,0.036728,0.008168,0.006464,0.003439
700,1.7009919999999998,-1.0858379999999999,1.604956,0.462226,0.8846950000000001,0.060522,-0.008156,-0.011104000000000001,0.033530000000000004,-0.000754,-0.0035909999999999996,0.008066
701,1.701459,-1.085138,1.605781,0.462812,0.884368,0.060819000000000005,-0.026313,-0.016362,0.032342,-0.002378,0.007065999999999999,0.001208
702,1.702114,-1.084649,1.606866,0.4632,0.8841399999999999,0.061177999999999996,-0.032714,-0.013156000000000001,0.035497,0.001888,0.016007,-0.000723
703,1.702738,-1.083999,1.6078219999999999,0.463732,0.8838360000000001,0.061542999999999994,-0.020997,-0.011092,0.041985,0.002363,0.02449,0.0033369999999999997
704,1.7042279999999999,-1.083645,1.609413,0.46395,0.8836700000000001,0.062276,-0.025247,-0.003632,0.045148,-0.0043549999999999995,0.024839,0.011134
705,1.705627,-1.083465,1.610841,0.46402,0.8835860000000001,0.062946,-0.023066,-0.000413,0.037679000000000004,-0.014358000000000001,0.011602,0.008648000000000001
706,1.7069009999999998,-1.0833760000000001,1.6122100000000001,0.464017,0.883544,0.06354800000000001,-0.015613,-0.010001000000000001,0.031331,-0.006894,0.019806999999999998,0.007528
707,1.7075040000000001,-1.083053,1.612927,0.464262,0.883393,0.063867,-0.009174,-0.002561,0.030297,-0.007078,0.019622999999999998,0.008842000000000001
708,1.708519,-1.082864,1.6137629999999998,0.464362,0.8833040000000001,0.064361,-0.0016690000000000001,0.004875,0.029269999999999997,-0.0060030000000000005,0.009670999999999999,0.015122
709,1.70905,-1.082399,1.614112,0.46473400000000004,0.883086,0.064664,0.004673,0.000558,0.037864999999999996,-0.008237000000000001,0.012422,0.016986
710,1.710292,-1.082378,1.61519,0.46467200000000003,0.883076,0.065243,0.00149,-0.0036560000000000004,0.029299000000000002,-0.010387,0.01913,0.012821
711,1.7115770000000001,-1.082567,1.616387,0.464422,0.883165,0.065817,0.002564,-0.008955,0.021833,-0.00823,0.017728999999999998,0.017572
712,1.7146720000000002,-1.082937,1.619129,0.46389300000000006,0.883338,0.067207,0.00685,-0.007885,0.017586,-0.008449,0.009911,0.027
713,1.715323,-1.082911,1.619789,0.463872,0.8833260000000001,0.067512,0.006872,-0.011045000000000001,0.009043,-0.007664,0.010915000000000001,0.025231
714,1.7165150000000002,-1.083244,1.62119,0.4635,0.883482,0.068023,-0.004718,-0.025718,-0.0007030000000000001,-0.004302,0.018282,0.014939
715,1.7175330000000002,-1.083793,1.622889,0.462951,0.8837389999999999,0.068424,-0.017551,-0.044795999999999996,-0.013588999999999999,-0.00212,0.020405,0.01257
716,1.7187810000000001,-1.0844790000000002,1.625109,0.462265,0.8840600000000001,0.068912,-0.025011000000000002,-0.052187,-0.023247,-0.003815,0.014972999999999998,0.014584
717,1.720436,-1.085166,1.6277979999999999,0.46155,0.884381,0.069586,-0.031386000000000004,-0.052138,-0.029702,-0.00371,0.011401999999999999,0.015572999999999998
718,1.721904,-1.085995,1.630299,0.46072299999999994,0.884767,0.070153,-0.029195999999999996,-0.047849,-0.038238999999999995,-0.003768,0.008955,0.012259
719,1.723211,-1.087112,1.632495,0.459653,0.885288,0.07060599999999999,-0.020590999999999998,-0.040387,-0.046736,-0.007809,0.006741,0.011059999999999999
720,1.724121,-1.0884989999999999,1.6341780000000001,0.458374,0.8859319999999999,0.070836,-0.01941,-0.031799,-0.063832,-0.003708,0.009622,0.003535
721,1.725093,-1.0896219999999999,1.635785,0.457322,0.886452,0.071129,-0.015094999999999999,-0.025405,-0.068082,0.012374,0.006828,0.006737000000000001
722,1.725931,-1.090743,1.6370360000000002,0.45628,0.88697,0.071358,-0.012903999999999999,-0.010506999999999999,-0.06594900000000001,0.014927000000000001,0.010948000000000001,0.008964
723,1.726809,-1.091596,1.6379139999999999,0.45547,0.8873639999999999,0.071641,-0.0011359999999999999,0.010702,-0.052006,0.015004,0.01202,0.005431
724,1.7277529999999999,-1.092255,1.638258,0.454825,0.887667,0.07198,0.015957,0.034006,-0.033756,0.008463,0.010053,0.008343000000000001
725,1.7276099999999999,-1.092824,1.637129,0.45433599999999996,0.8879290000000001,0.071836,0.037304000000000004,0.049855000000000003,-0.01974,0.0041600000000000005,0.012903999999999999,0.011584
726,1.727365,-1.093565,1.6354469999999999,0.45370299999999997,0.8882700000000001,0.071622,0.054421000000000004,0.062571,-0.017502,-0.005354,0.024618,0.004001
727,1.726225,-1.094571,1.6328040000000001,0.452901,0.888732,0.070966,0.064187,0.06056,-0.019625999999999998,0.000575,0.015168000000000001,-0.002164
728,1.724545,-1.09499,1.6295680000000001,0.45265200000000005,0.8889239999999999,0.070148,0.06847400000000001,0.067989,-0.0164,0.012023,0.003929,-0.007098999999999999
729,1.721632,-1.094123,1.6250850000000001,0.45361599999999996,0.888526,0.068945,0.059908,0.078598,0.0016899999999999999,0.023053,0.012734,-0.013266
730,1.720163,-1.093972,1.621781,0.45385,0.8884569999999999,0.068299,0.058813,0.08388,0.013427000000000001,0.01574,0.013322,-0.013352000000000001
731,1.7187869999999998,-1.093831,1.618368,0.454068,0.888392,0.067692,0.067378,0.092364,0.015613,0.009937,0.013708000000000001,-0.012654
732,1.7169619999999999,-1.094116,1.614457,0.45393999999999995,0.888523,0.066827,0.06423200000000001,0.095604,0.00704,-0.005697,0.011547,-0.022622
733,1.71545,-1.094558,1.610835,0.45365200000000006,0.888726,0.066084,0.059004999999999995,0.102082,-0.010097,-0.0018390000000000001,0.00782,-0.02429
734,1.713898,-1.0950870000000001,1.607008,0.453288,0.888968,0.065313,0.062294,0.110635,-0.020766999999999997,0.0046429999999999996,0.0036409999999999997,-0.025639999999999996
735,1.7104720000000002,-1.095035,1.601367,0.45355500000000004,0.8889440000000001,0.063766,0.059298000000000003,0.12035499999999999,-0.026173000000000002,0.027829000000000003,0.004946,-0.01535
736,1.7100819999999999,-1.095121,1.598375,0.453504,0.888984,0.063578,0.053984000000000004,0.123574,-0.027281,0.030474,0.001657,-0.011073000000000001
737,1.71033,-1.094956,1.595911,0.45363400000000004,0.888908,0.063711,0.045416000000000005,0.129939,-0.013459,0.032374,-0.002754,-0.001943
738,1.711021,-1.093809,1.593779,0.454599,0.888382,0.064167,0.042172,0.134156,0.000404,0.031516,0.002594,0.002239
739,1.711744,-1.0935110000000001,1.591681,0.45481400000000005,0.8882450000000001,0.06453300000000001,0.048496,0.1277,0.01114,0.017339,0.007522,-1.9e-05
740,1.7113310000000002,-1.0932389999999998,1.5886200000000001,0.45508000000000004,0.88812,0.06437899999999999,0.064419,0.1159,0.017676,0.009153,0.007051999999999999,-0.007891
741,1.708386,-1.093321,1.583368,0.455196,0.888158,0.063029,0.077186,0.107332,0.017775,-0.001521,0.010905,-0.012751
742,1.7065599999999999,-1.093566,1.579091,0.45509399999999994,0.8882709999999999,0.062167999999999994,0.08787,0.10518499999999999,0.012511,-0.002564,0.018803,-0.012119
743,1.704378,-1.094018,1.5743,0.45483100000000004,0.8884780000000001,0.061121,0.100883,0.113798,0.0061329999999999996,0.002689,0.014033000000000002,-0.004129
744,1.7033060000000002,-1.094084,1.570159,0.454837,0.888508,0.060626,0.10524100000000002,0.132963,0.005071,0.005673,0.003703,0.0066040000000000005
745,1.7023490000000001,-1.093906,1.5658379999999998,0.45505200000000007,0.8884270000000001,0.060211,0.100983,0.14678,0.016774,0.00732,-0.00209,0.006821
746,1.701904,-1.0932979999999999,1.561858,0.455614,0.8881479999999999,0.060078999999999994,0.08819400000000001,0.153204,0.019883,0.013090000000000001,0.000357,0.00297
747,1.701107,-1.092498,1.557741,0.456367,0.8877790000000001,0.05980800000000001,0.075369,0.147922,0.019803,0.01986,0.0056229999999999995,-0.0038090000000000003
748,1.700875,-1.091772,1.554288,0.45702,0.887445,0.059786,0.069987,0.142593,0.025113999999999997,0.02409,0.0049960000000000004,-0.001101
749,1.7012150000000001,-1.090729,1.551455,0.457917,0.886964,0.060062,0.06250900000000001,0.140489,0.025067,0.013321000000000001,0.000487,0.0035060000000000004
750,1.701241,-1.090522,1.5486,0.45809700000000003,0.886868,0.060097000000000005,0.055022,0.124583,0.013285,-0.001768,0.000964,-0.0074849999999999995
751,1.700636,-1.0906930000000001,1.545603,0.457983,0.8869469999999999,0.059801,0.058199,0.102269,-0.0037560000000000002,0.001444,0.006638,-0.011674
752,1.699183,-1.090737,1.541993,0.458031,0.8869670000000001,0.059129999999999995,0.06691799999999999,0.097065,-0.009084,0.014488,0.004131,-0.0073420000000000004
753,1.698767,-1.090295,1.5393430000000001,0.45844399999999996,0.886763,0.05899,0.060487,0.097062,-0.0027170000000000002,0.019125,0.000886,0.006364
754,1.699016,-1.0895290000000002,1.537241,0.459103,0.886409,0.059190999999999994,0.048727,0.10557000000000001,0.01108,0.020602000000000002,9.6e-05,0.0018440000000000002
755,1.6986880000000002,-1.08849,1.534533,0.460035,0.885928,0.05915700000000001,0.048728,0.112997,0.018550999999999998,0.020967,-0.003817,-0.0058130000000000005
756,1.6978810000000002,-1.087556,1.5313430000000001,0.460904,0.885494,0.058891,0.050873,0.111936,0.015365,0.015247,-0.00468,-0.01017
757,1.697043,-1.086846,1.5281870000000002,0.46157600000000004,0.885164,0.058584000000000004,0.034934,0.114169,0.003503,0.015366999999999999,0.014188999999999998,-0.007772
758,1.69823,-1.086859,1.527033,0.461495,0.8851700000000001,0.059129999999999995,0.024275,0.107848,-0.005109000000000001,0.016425,0.018668999999999998,1.3000000000000001e-05
759,1.7004810000000001,-1.086943,1.5269409999999999,0.461287,0.885209,0.060159000000000004,0.045651,0.09612000000000001,0.00464,0.0073560000000000006,0.025756,0.023825
760,1.7032909999999999,-1.088217,1.527115,0.45999799999999996,0.8858010000000001,0.06130599999999999,0.072227,0.09701,0.026184,-0.028631999999999998,0.018206,0.021564
761,1.7033369999999999,-1.088432,1.524608,0.45980699999999997,0.885901,0.061302999999999996,0.080736,0.103326,0.037982999999999996,-0.031416,0.017572,0.024284
762,1.702135,-1.087869,1.521043,0.460374,0.88564,0.060815,0.07749299999999999,0.09375,0.037973,-0.031297000000000005,0.022838,0.019675
763,1.701456,-1.088106,1.5177100000000001,0.460208,0.885749,0.060475,0.081932,0.123597,0.029417000000000002,-0.021502,0.02459,-0.004765
764,1.7011,-1.088103,1.514119,0.46023100000000006,0.885748,0.060311000000000003,0.08112,0.146108,-0.0048,-0.012783,0.029412999999999998,-0.012246
765,1.701342,-1.088949,1.511115,0.459474,0.8861399999999999,0.060325,0.069561,0.13994,-0.050807,-0.001588,0.021056000000000002,-0.021202000000000002
766,1.7007139999999998,-1.090254,1.507747,0.45836400000000005,0.8867440000000001,0.059887,0.048144,0.11766099999999999,-0.055199,-0.0062,0.010426000000000001,-0.034878
767,1.7021169999999999,-1.0912879999999998,1.507363,0.457371,0.887222,0.060410000000000005,0.002194,0.06997300000000001,-0.055479999999999995,0.016429,-0.003585,-0.048951
768,1.7036830000000003,-1.092316,1.507976,0.456371,0.8876959999999999,0.061005,-0.010776,0.041222,-0.046988,0.036930000000000004,-0.009568,-0.039414
769,1.703457,-1.0920450000000002,1.507236,0.456624,0.8875709999999999,0.060934,-0.018313999999999997,0.041183,-0.031014,0.053111,0.006106,-0.020651
770,1.705266,-1.092355,1.508342,0.45624,0.8877139999999999,0.061723,-0.025887,0.036871,-0.011834,0.051435,0.007367,-0.013231
771,1.707041,-1.092457,1.509755,0.45603999999999995,0.887761,0.06252,-0.035604000000000004,0.014521000000000001,-0.008668,0.031372000000000004,-0.020222,-0.010029999999999999
772,1.7072759999999998,-1.091805,1.510565,0.456599,0.88746,0.062706,-0.035809,-0.034469,-0.011809,0.011754,-0.030511,-0.017952000000000003
773,1.7073900000000002,-1.092177,1.512261,0.45626400000000006,0.887632,0.062713,-0.038096,-0.087647,-0.030985000000000002,0.019734,-0.021512,-0.031616000000000005
774,1.705328,-1.091949,1.5128469999999998,0.456593,0.8875270000000001,0.0618,-0.0403,-0.12484,-0.052313,0.03947,-0.009184999999999999,-0.02141
775,1.704777,-1.093076,1.515091,0.455636,0.8880450000000001,0.061413999999999996,-0.049727999999999994,-0.123654,-0.069483,0.050819,0.037629,0.004504
776,1.7062009999999999,-1.093889,1.518759,0.45483199999999996,0.8884190000000001,0.061965,-0.061153,-0.07559,-0.090987,0.041689,0.035348000000000004,0.017075
777,1.7076900000000002,-1.0952979999999999,1.5211860000000001,0.453499,0.889065,0.062472,-0.029041,-0.01407,-0.052386,-0.003258,0.000309,0.029905
