,attitude.roll,attitude.pitch,attitude.yaw,gravity.x,gravity.y,gravity.z,rotationRate.x,rotationRate.y,rotationRate.z,userAcceleration.x,userAcceleration.y,userAcceleration.z
0,-2.006406,-1.351256,-1.5514059999999998,-0.197436,0.9759979999999999,0.091892,0.054804,0.417613,0.158349,0.044498,0.0065,0.014293
1,-2.001243,-1.354735,-1.553979,-0.194821,0.976749,0.08945399999999999,0.051436,0.36973,0.147705,0.035901,-0.009983,0.023018
2,-1.9973400000000001,-1.357573,-1.557083,-0.192645,0.9773540000000001,0.087546,0.02362,0.31883,0.11339300000000001,0.021151,-0.017271,0.030618
3,-1.9967,-1.359401,-1.560959,-0.191073,0.9777389999999999,0.086684,-0.009922,0.16256099999999998,0.061015999999999994,0.012315999999999999,-0.019747,0.035111
4,-1.9995759999999998,-1.3597569999999999,-1.56568,-0.19050699999999998,0.977814,0.087089,-0.045339,0.054274,-0.001049,0.011094,-0.030106,0.064278
5,-2.005376,-1.358479,-1.571281,-0.191131,0.9775450000000001,0.08871799999999999,-0.094597,-0.046512,-0.062153,0.008529,-0.034537,0.070675
6,-2.015548,-1.355718,-1.579624,-0.192655,0.97696,0.09181900000000001,-0.135267,-0.129243,-0.11681,-0.004046,-0.043075999999999996,0.077737
7,-2.028643,-1.351525,-1.589109,-0.195108,0.9760559999999999,0.09614299999999999,-0.178143,-0.217338,-0.16079300000000002,-0.006751000000000001,-0.051114,0.092974
8,-2.0453099999999997,-1.346177,-1.600905,-0.19811800000000002,0.974879,0.101765,-0.233735,-0.268175,-0.186753,0.001768,-0.044093,0.091823
9,-2.064693,-1.340158,-1.615069,-0.201273,0.9735209999999999,0.108366,-0.287154,-0.287154,-0.18923900000000002,0.004083,-0.020258,0.071199
10,-2.0878509999999997,-1.333588,-1.632643,-0.204266,0.9719979999999999,0.116157,-0.289389,-0.290419,-0.170022,0.0077480000000000005,0.035876,-0.016548
11,-2.106824,-1.3282209999999999,-1.6472790000000002,-0.206508,0.970722,0.122675,-0.20590999999999998,-0.17164300000000002,-0.108703,0.022777000000000002,0.083034,-0.06574400000000001
12,-2.116206,-1.325238,-1.655414,-0.207823,0.970002,0.126108,-0.062485,-0.0019690000000000003,-0.040619999999999996,0.044569,0.089263,-0.0879
13,-2.11449,-1.325126,-1.6555259999999998,-0.208132,0.969975,0.125808,0.057420000000000006,0.147585,0.01771,0.067813,0.06296900000000001,-0.05506799999999999
14,-2.1059650000000003,-1.326962,-1.650737,-0.20766500000000002,0.970419,0.12312100000000001,0.0991,0.19630999999999998,0.051052999999999994,0.074257,0.035959,-0.038526
15,-2.097009,-1.329351,-1.6446630000000002,-0.206756,0.970993,0.120092,0.120049,0.12055899999999999,0.061979,0.069762,0.020706,-0.023122999999999998
16,-2.088448,-1.3325129999999998,-1.636714,-0.205107,0.9717450000000001,0.116798,0.10455199999999999,-0.011452,0.054562,0.030867000000000002,-0.010777,0.019936000000000002
17,-2.084556,-1.334798,-1.6314899999999999,-0.203623,0.972281,0.114906,0.069034,-0.09754700000000001,0.037333,0.010905,-0.021415,0.018639
18,-2.0844970000000003,-1.336049,-1.6282530000000002,-0.20257,0.9725729999999999,0.11429600000000001,0.047476,-0.169817,0.013774000000000002,-0.002264,-0.026208,0.020912
19,-2.085512,-1.337307,-1.6253520000000001,-0.20139100000000001,0.972865,0.1139,0.032473,-0.209081,-0.01085,-0.028331,-0.012506999999999999,-0.006142
20,-2.087367,-1.337483,-1.622867,-0.201032,0.9729059999999999,0.11418900000000001,0.036846,-0.197331,-0.022585,-0.016772,-0.005117,-0.002053
21,-2.087392,-1.33754,-1.619733,-0.20098,0.9729190000000001,0.114167,0.038195,-0.123874,-0.011987000000000001,-0.009545999999999999,-0.004169,0.004790999999999999
22,-2.087151,-1.337489,-1.6178270000000001,-0.201051,0.972907,0.11414300000000001,0.039560000000000005,-0.048283,-0.00246,-0.0070019999999999995,0.005517,0.003426
23,-2.0839119999999998,-1.337687,-1.61426,-0.201252,0.9729530000000001,0.113397,0.047195,0.000647,0.009281000000000001,0.019306999999999998,0.008492,-0.004220000000000001
24,-2.080667,-1.3385340000000001,-1.610986,-0.200901,0.9731479999999999,0.11234100000000001,0.054582000000000006,-0.003696,0.023225,0.018955,0.008297,-0.003165
25,-2.078145,-1.339342,-1.607918,-0.200496,0.973334,0.111452,0.060820000000000006,-0.036754,0.026514999999999997,0.005534000000000001,0.0034579999999999997,-0.003618
26,-2.075107,-1.340288,-1.603784,-0.20002899999999998,0.97355,0.110399,0.073584,-0.052748,0.019147,0.006334,-0.001474,-0.001283
27,-2.071805,-1.341323,-1.599037,-0.199507,0.973786,0.109252,0.07244500000000001,-0.068723,0.01916,0.007078,-0.001832,-1.4999999999999999e-05
28,-2.068905,-1.342517,-1.594455,-0.1988,0.974057,0.108117,0.068096,-0.08893999999999999,0.017019,0.009347,-0.000547,0.008735
29,-2.066468,-1.34348,-1.589854,-0.198236,0.974275,0.10718499999999999,0.06802899999999999,-0.10915899999999999,0.011703,0.005518,0.001464,0.004601
30,-2.063381,-1.344341,-1.584419,-0.197825,0.974468,0.106175,0.077626,-0.110258,0.011772,0.012889,-0.001614,0.004604
31,-2.060561,-1.3453600000000001,-1.579064,-0.197247,0.9746969999999999,0.105149,0.08507,-0.110305,0.017165,0.013134,0.004017,0.010512
32,-2.057002,-1.3465479999999999,-1.573439,-0.196595,0.9749620000000001,0.103905,0.09045700000000001,-0.094362,0.021455000000000002,0.0033729999999999997,0.001982,0.007743000000000001
33,-2.0524150000000003,-1.347821,-1.5669680000000001,-0.195968,0.975244,0.102426,0.095854,-0.081593,0.020408000000000003,0.002746,0.0017,0.009222
34,-2.0483,-1.349225,-1.560972,-0.19517,0.9755530000000001,0.100989,0.10114,-0.080593,0.032194,0.007899,0.000368,0.014062
35,-2.043452,-1.350749,-1.554702,-0.194333,0.9758870000000001,0.099364,0.099069,-0.06461499999999999,0.034296,0.005520000000000001,-0.001537,0.020829
36,-2.038176,-1.35227,-1.548132,-0.193526,0.976218,0.09766799999999999,0.095902,-0.056086000000000004,0.035331,0.004714,-0.0018679999999999999,0.022525999999999997
37,-2.0344990000000003,-1.353572,-1.5429620000000002,-0.192746,0.976499,0.096386,0.088405,-0.064574,0.033152999999999995,0.001645,-0.00807,0.023777
38,-2.030576,-1.354845,-1.53752,-0.19200799999999998,0.976773,0.095077,0.084104,-0.075199,0.029932,0.002539,-0.00198,0.019318000000000002
39,-2.027282,-1.3560020000000002,-1.532477,-0.191303,0.9770200000000001,0.093945,0.083023,-0.080513,0.027795,0.009724,-0.001633,0.019153
40,-2.023654,-1.3572030000000002,-1.527177,-0.190588,0.977275,0.092737,0.087309,-0.07308400000000001,0.03102,0.0033469999999999997,-0.008173999999999999,0.023108
41,-2.020722,-1.358199,-1.522729,-0.18997999999999998,0.9774860000000001,0.091753,0.071369,-0.064484,0.025556,0.004632,-0.007897,0.023801
42,-2.018601,-1.35893,-1.519284,-0.18953,0.97764,0.091041,0.053275,-0.06438300000000001,0.015816,0.0046240000000000005,-0.009836,0.022744
43,-2.017773,-1.359315,-1.517196,-0.18926800000000002,0.977721,0.090722,0.035214999999999996,-0.061068,0.0017989999999999998,-0.0009939999999999999,-0.012984,0.027198000000000003
44,-2.017518,-1.3592440000000001,-1.515503,-0.189354,0.977706,0.09070399999999999,0.020318,-0.067348,-0.013253000000000001,0.002403,-0.013335,0.032114
45,-2.018106,-1.3588069999999999,-1.514519,-0.189687,0.977614,0.091001,0.005391,-0.08108,-0.029363,0.002675,-0.010634000000000001,0.032336000000000004
46,-2.020078,-1.357964,-1.514462,-0.190248,0.9774370000000001,0.09173200000000001,-0.011770000000000001,-0.11293099999999999,-0.041192,0.0024579999999999997,-0.006108,0.025669
47,-2.0232330000000003,-1.356873,-1.515084,-0.190916,0.9772059999999999,0.092797,-0.0193,-0.128876,-0.043361000000000004,0.0067269999999999995,-0.0010550000000000002,0.021918
48,-2.0259810000000003,-1.35585,-1.515293,-0.191557,0.976988,0.093761,-0.018213999999999998,-0.123557,-0.042292,0.008085,-0.000242,0.01859
49,-2.02953,-1.354734,-1.516528,-0.192199,0.976749,0.094922,-0.01707,-0.106517,-0.042306,0.003768,0.002438,0.012042
50,-2.031345,-1.3537629999999998,-1.516506,-0.192875,0.976541,0.095691,-0.008416,-0.079915,-0.042279000000000004,0.011585,0.002402,0.009823
51,-2.0322150000000003,-1.352943,-1.51593,-0.19351,0.9763639999999999,0.096216,-0.0030239999999999998,-0.06502899999999999,-0.040124,0.013243000000000001,0.001297,0.010763
52,-2.032598,-1.352212,-1.514907,-0.19411199999999998,0.9762049999999999,0.096609,0.000148,-0.071431,-0.040094,0.011968000000000001,-0.0006799999999999999,0.011302
53,-2.0329,-1.3514979999999999,-1.513486,-0.194707,0.97605,0.096978,0.002205,-0.089544,-0.041124,0.014348,0.001168,0.009376
54,-2.033066,-1.350855,-1.511614,-0.195251,0.97591,0.097289,0.007453,-0.105554,-0.037863,0.013350999999999998,0.0009880000000000002,0.0077670000000000005
55,-2.033521,-1.3504180000000001,-1.509751,-0.19558699999999998,0.975815,0.09756799999999999,0.014863,-0.11412,-0.033527,0.009048,0.004639,0.00575
56,-2.0332630000000003,-1.350068,-1.507128,-0.195916,0.9757379999999999,0.097669,0.023393999999999998,-0.11203199999999999,-0.030264999999999997,0.006615,0.004914,0.006091
57,-2.0322240000000003,-1.349861,-1.503888,-0.196197,0.975693,0.09755499999999999,0.030985000000000002,-0.100425,-0.024899,0.003525,0.006439,0.005915
58,-2.030735,-1.349858,-1.500513,-0.19634300000000002,0.975692,0.097263,0.038515,-0.082359,-0.020596,-0.001105,0.005021,0.005000999999999999
59,-2.028489,-1.3499729999999999,-1.496689,-0.196461,0.9757170000000001,0.096773,0.04174,-0.067495,-0.010979000000000001,0.000691,0.005194,0.006575
60,-2.02565,-1.3503120000000002,-1.492673,-0.196437,0.975792,0.096069,0.051423,-0.044114,-0.0056,-0.00301,0.002343,0.008668
61,-2.0227,-1.350708,-1.488877,-0.196373,0.975878,0.09532,0.050385,-0.032413,-0.000281,0.001564,-0.001513,0.009385
62,-2.018837,-1.35121,-1.484397,-0.196299,0.975988,0.09435,0.058963,-0.020734,0.0019,-0.000234,-0.002553,0.010509000000000001
63,-2.014885,-1.351669,-1.479917,-0.196267,0.976088,0.09338099999999999,0.053628999999999996,-0.026019999999999998,-0.003471,-0.0032259999999999997,-0.002699,0.011615
64,-2.0114389999999998,-1.351992,-1.475706,-0.196304,0.976158,0.09257,0.053704999999999996,-0.032213,-0.002582,-0.005311,-0.007316,0.015905000000000002
65,-2.008969,-1.3521889999999999,-1.4724270000000002,-0.19635899999999998,0.9762,0.092004,0.031277,-0.040644,-0.005933,-0.007193000000000001,-0.006214,0.013709
66,-2.007298,-1.352316,-1.469867,-0.1964,0.9762280000000001,0.091623,0.031287,-0.037453,-0.004869,-2.6000000000000002e-05,-0.005067,0.012015000000000001
67,-2.0055669999999997,-1.352447,-1.467553,-0.196443,0.9762559999999999,0.09122999999999999,0.031349,-0.01936,-0.0006190000000000001,-0.002074,-0.002135,0.015719
68,-2.003677,-1.35266,-1.465437,-0.196426,0.976303,0.090771,0.03355,-0.00021,0.0036450000000000002,-0.0007030000000000001,-0.000503,0.009815
69,-2.001026,-1.352998,-1.462898,-0.196366,0.976376,0.090112,0.037846,0.011472,0.009001,0.004136,-0.000851,0.00907
70,-1.998487,-1.3534030000000001,-1.460512,-0.196236,0.976463,0.08945,0.041037,0.011452,0.01116,-0.00132,0.002541,0.005902
71,-1.9964369999999998,-1.35385,-1.458368,-0.196021,0.9765590000000001,0.088867,0.032382999999999995,-0.013028,0.013267,-0.004220000000000001,0.0036200000000000004,0.002274
72,-1.994848,-1.354291,-1.4563270000000001,-0.19577,0.9766540000000001,0.088379,0.038798,-0.009854,0.013308,-0.002045,0.004211,0.0065769999999999995
73,-1.991952,-1.354886,-1.453659,-0.195494,0.9767819999999999,0.087574,0.043401,0.025138999999999998,0.017147,0.00022799999999999999,-0.0048119999999999994,0.017331
74,-1.9891330000000003,-1.355482,-1.4513260000000001,-0.195209,0.976909,0.086786,0.037,0.024100999999999997,0.016036,-0.008999,-0.005825,0.015967
75,-1.985901,-1.3560020000000002,-1.44831,-0.195024,0.9770200000000001,0.08595,0.040182,0.013463,0.009662,-0.009184000000000001,-0.005936,0.016803
76,-1.983618,-1.356387,-1.446181,-0.194875,0.977102,0.085353,0.027346,0.007111,0.010648999999999999,0.001119,-0.005789,0.014027000000000001
77,-1.982906,-1.3565989999999999,-1.445665,-0.194746,0.977147,0.085132,0.017758000000000003,0.011401999999999999,0.011645,0.0016760000000000002,0.001841,0.005094
78,-1.9830439999999998,-1.356857,-1.44567,-0.194503,0.977202,0.08505700000000001,-0.004756,-0.014081999999999999,0.010452,0.001434,0.001786,0.005168
79,-1.9835450000000001,-1.356908,-1.446256,-0.194416,0.9772129999999999,0.085136,0.030657,0.034783999999999995,0.013841,0.007405,-0.013741999999999999,0.020623
80,-1.9805119999999998,-1.357383,-1.4438,-0.194248,0.9773139999999999,0.084361,0.019844,-0.004563,0.006339,-0.003689,-0.003544,0.013219
81,-1.980386,-1.35741,-1.442447,-0.194235,0.977319,0.084326,0.020662,-0.075876,-0.009587,0.0065829999999999994,-0.001093,0.020685
82,-1.979597,-1.357378,-1.4400190000000002,-0.194332,0.9773129999999999,0.084186,0.028182,-0.06630599999999999,-0.011684,0.026623,-0.000872,0.023999
83,-1.978906,-1.357523,-1.437906,-0.19426,0.9773430000000001,0.083995,0.029153,-0.080188,-0.004182,0.005219,-0.001849,0.025075
84,-1.9795150000000001,-1.3573950000000001,-1.436488,-0.194323,0.977316,0.084163,0.001343,-0.108802,-0.017158,0.0009939999999999999,-0.001837,0.019933000000000003
85,-1.980837,-1.356994,-1.435858,-0.194571,0.977231,0.084576,0.007912,-0.073662,-0.019293,0.012076,-0.007062000000000001,0.021457
86,-1.9807970000000001,-1.356977,-1.435202,-0.19459100000000001,0.9772280000000001,0.084576,0.016672,-0.014075999999999998,-0.009695,-0.0052840000000000005,-0.001474,0.025851999999999997
87,-1.980802,-1.356831,-1.434555,-0.19472,0.977197,0.084633,-0.004794,-0.047007,-0.014075,-0.012449,-0.00155,0.022682
88,-1.982241,-1.3564319999999999,-1.43544,-0.194957,0.9771120000000001,0.08507,0.005023,0.003018,-0.011934,-0.011036,-0.007523,0.024519
89,-1.9809150000000002,-1.356299,-1.434878,-0.195189,0.9770840000000001,0.084863,-0.00011499999999999999,0.049895999999999996,-0.008826,-0.010378,-0.008105,0.0241
90,-1.980662,-1.3560379999999999,-1.436121,-0.195445,0.9770280000000001,0.084915,-0.014863999999999999,0.095737,-0.004714,-0.009587,-0.009209,0.02391
91,-1.980836,-1.355488,-1.438508,-0.195922,0.9769110000000001,0.085163,-0.025379,0.12243599999999999,-0.0123,-0.003389,-0.009885,0.02232
92,-1.9791599999999998,-1.3549799999999999,-1.440294,-0.19652,0.9768020000000001,0.08503200000000001,-0.017575,0.1991,-0.010206999999999999,0.003924,-0.005365999999999999,0.020361
93,-1.9768689999999998,-1.354574,-1.442515,-0.197079,0.976715,0.084738,-0.031301,0.23429,-0.007143000000000001,0.001279,-0.004318,0.019296
94,-1.9755,-1.353864,-1.446037,-0.19783299999999998,0.976562,0.084742,-0.039758999999999996,0.244998,-0.013625,-0.000546,-0.008011,0.017506999999999998
95,-1.973829,-1.353085,-1.449285,-0.198675,0.9763940000000001,0.08471000000000001,-0.047231999999999996,0.235471,-0.022211,0.004736,-0.009659000000000001,0.017112
96,-1.97325,-1.352142,-1.453431,-0.199571,0.97619,0.08495499999999999,-0.056813999999999996,0.235521,-0.026550999999999998,0.011476,-0.004647999999999999,0.019201
97,-1.973065,-1.351133,-1.458389,-0.200493,0.9759709999999999,0.08530399999999999,-0.06214,0.265574,-0.023369,0.015144999999999999,-0.0032840000000000005,0.010613
98,-1.9725080000000002,-1.350208,-1.463306,-0.201371,0.975769,0.08554500000000001,-0.070704,0.260273,-0.022354,0.016023,-0.003082,0.010372
99,-1.9731419999999997,-1.349228,-1.468887,-0.20219600000000001,0.975554,0.086047,-0.065499,0.236798,-0.016946,0.010698000000000001,0.008745000000000001,0.001829
100,-1.973068,-1.348795,-1.473991,-0.20259100000000002,0.975459,0.086197,-0.0484,0.26965500000000003,0.009836,0.01857,0.010534,0.01178
101,-1.9726540000000001,-1.348963,-1.479452,-0.202475,0.9754959999999999,0.086049,-0.051611000000000004,0.29406,0.036488,-0.000375,0.002364,0.00413
102,-1.9742810000000002,-1.349307,-1.487069,-0.20202699999999998,0.975571,0.086247,-0.076201,0.297282,0.051267999999999994,-0.006575,0.016357,-0.007511
103,-1.9740810000000002,-1.350177,-1.494208,-0.201262,0.9757620000000001,0.085873,-0.042778,0.397212,0.073806,0.0036299999999999995,0.0038520000000000004,0.0010869999999999999
104,-1.9720630000000001,-1.35141,-1.501002,-0.200327,0.976031,0.084996,-0.042577,0.450441,0.082285,-0.008657,-0.0022760000000000002,0.0067090000000000006
105,-1.968955,-1.352452,-1.5071649999999999,-0.199653,0.9762569999999999,0.083979,-0.038219,0.455812,0.067353,-0.009301,-0.005158,0.006399
106,-1.9652450000000001,-1.35327,-1.512375,-0.199226,0.976434,0.08293099999999999,-0.039383999999999995,0.424392,0.055810000000000005,0.0023120000000000003,-0.017297,0.00882
107,-1.9636939999999998,-1.353731,-1.5184549999999999,-0.198938,0.976534,0.082449,-0.061023,0.343562,0.041875,0.004816,-0.006075,0.012903
108,-1.96514,-1.3537709999999998,-1.525976,-0.198784,0.976542,0.082722,-0.077323,0.266962,0.031177,0.009559999999999999,-0.00265,0.009349
109,-1.9678,-1.35362,-1.5335459999999999,-0.19869900000000001,0.97651,0.08330800000000001,-0.072132,0.23392399999999997,0.030188,0.0018,-0.009606,0.019445
110,-1.969954,-1.3535139999999999,-1.540745,-0.198615,0.9764870000000001,0.083776,-0.06994600000000001,0.23820700000000003,0.022719999999999997,-0.01011,-0.012299,0.018672
111,-1.972623,-1.353236,-1.5479969999999998,-0.198641,0.976427,0.084412,-0.07962899999999999,0.21482600000000002,0.017341,-0.012694,-0.008653000000000001,0.017639
112,-1.9761240000000002,-1.3529639999999998,-1.555943,-0.19858599999999998,0.976368,0.085211,-0.079639,0.215879,0.020544,-0.00811,-0.011311,0.018335
113,-1.979957,-1.352624,-1.564541,-0.19856300000000002,0.976295,0.086103,-0.092299,0.236219,0.022601,-0.012314,-0.009574,0.017092
114,-1.984414,-1.352141,-1.57388,-0.19860999999999998,0.97619,0.08717799999999999,-0.106173,0.227775,0.015037,-0.012267,-0.009469,0.016018
115,-1.989848,-1.3512680000000001,-1.583755,-0.19891099999999998,0.976,0.088602,-0.10844100000000001,0.190528,0.007592,0.009077,-0.001604,0.008108
116,-1.9957220000000002,-1.3504770000000001,-1.593774,-0.19909000000000002,0.975828,0.090087,-0.111623,0.204349,0.017166,0.016809,0.003191,0.005235
117,-2.001085,-1.35002,-1.603669,-0.199009,0.975728,0.091339,-0.103068,0.222374,0.031089,0.015766,0.006541,0.002121
118,-2.006196,-1.3498379999999999,-1.613901,-0.198701,0.9756879999999999,0.09243,-0.098734,0.258492,0.052438,0.00496,0.014379,-0.007712999999999999
119,-2.010852,-1.3501729999999998,-1.624325,-0.197972,0.9757610000000001,0.09321499999999999,-0.09650399999999999,0.296766,0.069496,0.000782,0.013527,-0.004225
120,-2.015018,-1.350778,-1.6354520000000001,-0.197048,0.975893,0.09378500000000001,-0.097379,0.352113,0.082238,0.001232,0.010114,-0.004673
121,-2.0191060000000003,-1.3516110000000001,-1.6470939999999998,-0.19593,0.976075,0.094237,-0.095217,0.364863,0.088646,0.0053170000000000005,0.003036,-0.003218
122,-2.022487,-1.352533,-1.657907,-0.1948,0.976275,0.09450599999999999,-0.08141,0.353088,0.090894,0.006736,0.004713,-0.001442
123,-2.0252209999999997,-1.353602,-1.667611,-0.193603,0.976506,0.09458,-0.067665,0.330648,0.09636,0.010208,0.002025,0.0017640000000000002
124,-2.027437,-1.354814,-1.6766189999999999,-0.19233,0.976766,0.094486,-0.059188,0.317835,0.096435,0.007026999999999999,-0.000265,0.008388
125,-2.029892,-1.356039,-1.6852479999999999,-0.191024,0.9770280000000001,0.094428,-0.056093,0.29226599999999997,0.09435299999999999,0.006515000000000001,-0.004723,0.011163
126,-2.032119,-1.3572170000000001,-1.693128,-0.18978299999999998,0.9772780000000001,0.094341,-0.045535,0.258178,0.084857,0.01127,-0.006529999999999999,0.012593
127,-2.034421,-1.3583120000000002,-1.700264,-0.188607,0.97751,0.094298,-0.041401,0.223031,0.079589,0.0063100000000000005,-0.0036479999999999998,0.014772
128,-2.036759,-1.359323,-1.706938,-0.187504,0.977723,0.094295,-0.037225,0.197471,0.07431,0.008305,-0.00055,0.015262999999999999
129,-2.0389909999999998,-1.3602809999999999,-1.7128849999999998,-0.18645799999999998,0.977923,0.094291,-0.031982,0.171907,0.069038,0.007075,-0.001025,0.016808
130,-2.0416220000000003,-1.3611659999999999,-1.718864,-0.18543900000000002,0.978108,0.094389,-0.032068,0.15061,0.066929,0.005431,-0.0036659999999999996,0.020066999999999998
131,-2.044883,-1.361998,-1.7249709999999998,-0.184407,0.978281,0.094622,-0.03215,0.13144,0.065884,-0.000728,-0.005151,0.02609
132,-2.047679,-1.362848,-1.730603,-0.183402,0.978457,0.09475599999999999,-0.029976999999999997,0.136772,0.062688,-0.000268,-0.005419,0.02556
133,-2.050728,-1.363605,-1.736621,-0.182456,0.978612,0.094973,-0.028810000000000002,0.158077,0.061600999999999996,0.006889,-0.005651,0.021192
134,-2.053074,-1.36435,-1.7423259999999998,-0.181585,0.978766,0.095062,-0.032001,0.159158,0.060509,0.010121999999999999,-6e-06,0.020066
135,-2.055628,-1.364989,-1.748115,-0.18079,0.9788959999999999,0.095234,-0.029876999999999997,0.152776,0.056259,0.013187,-0.007369,0.023052
136,-2.057989,-1.365592,-1.7536310000000002,-0.180042,0.9790190000000001,0.095384,-0.033073000000000005,0.149609,0.05196799999999999,0.01958,0.000458,0.012862
137,-2.06127,-1.3660139999999998,-1.7596990000000001,-0.179362,0.9791049999999999,0.095779,-0.040603,0.13154200000000002,0.047665,0.027964,-0.008951,0.015885
138,-2.064761,-1.366385,-1.7661419999999999,-0.178706,0.979181,0.096231,-0.053348,0.142248,0.045426,0.026545,-0.006340999999999999,0.015265
139,-2.069788,-1.3664,-1.7740529999999999,-0.178205,0.979184,0.097121,-0.070408,0.128523,0.029301,0.02284,0.003971,0.002367
140,-2.075028,-1.366093,-1.781467,-0.177956,0.9791209999999999,0.09819800000000001,-0.070542,0.082781,0.013336,0.027397,0.003514,-0.006904
141,-2.0800549999999998,-1.365725,-1.787723,-0.177774,0.9790469999999999,0.099266,-0.060016999999999994,0.04442,0.007049,0.025552000000000002,-0.002682,-0.000725
142,-2.0846169999999997,-1.36532,-1.7930720000000002,-0.17766600000000002,0.978964,0.100272,-0.053663999999999996,0.027377999999999996,0.0007059999999999999,0.019447,0.004007,0.001123
143,-2.0883380000000002,-1.364891,-1.7972009999999998,-0.177656,0.978876,0.10114,-0.04411,0.011387000000000001,-0.004548,0.011564,-0.001307,-0.00562
144,-2.091585,-1.364395,-1.800791,-0.177748,0.978775,0.10195800000000001,-0.04622,0.013538,-0.00777,0.005263,-0.004898,-0.005217
145,-2.094679,-1.364041,-1.804346,-0.177733,0.9787020000000001,0.102681,-0.044072,0.015665000000000002,-0.008826,0.003752,0.007259999999999999,0.00265
146,-2.097526,-1.363552,-1.80781,-0.177853,0.9786020000000001,0.103427,-0.041832999999999995,0.036972000000000005,-0.010974,0.0060539999999999995,0.006581999999999999,0.002255
147,-2.099832,-1.3630440000000001,-1.8108799999999998,-0.178045,0.978497,0.10408900000000001,-0.040819,0.028433,-0.007751000000000001,0.005895,0.001895,0.001807
148,-2.102427,-1.362681,-1.8140009999999998,-0.178081,0.9784219999999999,0.10473099999999999,-0.035585000000000006,0.013471,-0.000218,0.012431000000000001,0.004137,0.005422
149,-2.1053319999999998,-1.362386,-1.817204,-0.178024,0.978361,0.105395,-0.031351,0.010243,0.0040880000000000005,0.011245,0.007143000000000001,0.001585
150,-2.107464,-1.362231,-1.819325,-0.177929,0.9783290000000001,0.105852,-0.017568,-0.00898,0.004209,0.005032,0.004871,0.0015550000000000002
151,-2.109084,-1.3622379999999998,-1.820655,-0.177752,0.9783299999999999,0.106136,-0.007986,-0.014336000000000002,0.003215,0.011262999999999999,-0.000837,0.015812
152,-2.110024,-1.362342,-1.821357,-0.177565,0.978352,0.106251,-0.0016129999999999999,-0.015444999999999999,0.008602,0.015409,-0.000264,0.014858000000000001
153,-2.11082,-1.362579,-1.821552,-0.177282,0.9784010000000001,0.10627400000000001,0.005778,-0.030393,0.010809000000000001,0.014211000000000001,-0.0018690000000000002,0.017445
154,-2.111307,-1.3629799999999999,-1.821223,-0.176894,0.978484,0.10615899999999999,0.01636,-0.046422000000000005,0.014108,0.022704,0.00229,0.022351
155,-2.11128,-1.363466,-1.820034,-0.17649,0.978584,0.10590899999999999,0.030163,-0.06244500000000001,0.013156999999999999,0.018775,-0.000404,0.029375
156,-2.110842,-1.364068,-1.818024,-0.176032,0.978708,0.10553,0.037535,-0.082716,0.014303,0.014303999999999999,-0.001748,0.028977
157,-2.110657,-1.3647340000000001,-1.815912,-0.175492,0.978844,0.10516199999999999,0.04173,-0.09977000000000001,0.013286000000000001,0.005753,-0.002709,0.029314
158,-2.1105869999999998,-1.365375,-1.8138029999999998,-0.174959,0.978975,0.104826,0.034286000000000004,-0.095479,0.012159999999999999,-0.001234,-0.004839,0.034243
159,-2.110967,-1.365813,-1.812266,-0.17455299999999999,0.9790639999999999,0.104673,0.023642,-0.096481,0.005678,-0.004234,-0.0034479999999999997,0.034335000000000004
160,-2.112663,-1.365928,-1.811663,-0.174276,0.979088,0.10490899999999999,0.012818000000000001,-0.12075899999999999,-0.0050030000000000005,-0.0020239999999999998,-0.0066760000000000005,0.020335
161,-2.114863,-1.365817,-1.811416,-0.174137,0.979065,0.105348,0.002164,-0.117526,-0.005082,0.0030859999999999998,-0.008773999999999999,0.016356
162,-2.1171740000000003,-1.3655540000000002,-1.81158,-0.174112,0.9790120000000001,0.10588299999999999,-0.004117,-0.098299,-0.012628,-0.0035310000000000003,-0.0061719999999999995,0.008497
163,-2.118941,-1.365029,-1.811409,-0.174362,0.9789040000000001,0.106458,-0.005122,-0.096118,-0.024388,0.00010700000000000001,-0.006828,0.0021079999999999996
164,-2.120066,-1.3643969999999999,-1.8105099999999998,-0.174768,0.978775,0.106976,-0.00405,-0.10354400000000001,-0.032917,0.004907,-0.0053560000000000005,0.0019260000000000002
165,-2.1208099999999996,-1.363751,-1.8090419999999998,-0.175226,0.978643,0.10743499999999999,0.001251,-0.113142,-0.035004,0.004877,-0.000661,0.003588
166,-2.120953,-1.3631229999999999,-1.8067330000000001,-0.175733,0.978513,0.10778099999999999,0.007618000000000001,-0.124865,-0.039218,0.006193,-0.00025699999999999996,0.0048590000000000005
167,-2.120767,-1.362584,-1.803779,-0.176202,0.978402,0.10802300000000001,0.013952,-0.139801,-0.039154,0.002893,-0.000909,0.005533
168,-2.1202080000000003,-1.362062,-1.800288,-0.176698,0.978294,0.10819100000000001,0.017148,-0.145122,-0.043398,-0.0054009999999999996,0.0007099999999999999,0.011682
169,-2.1192759999999997,-1.361549,-1.796229,-0.177227,0.978188,0.10828800000000001,0.02563,-0.160053,-0.046524,-0.008945999999999999,-0.0068590000000000005,0.016712
170,-2.1177610000000002,-1.361085,-1.7917720000000001,-0.177778,0.9780909999999999,0.10825599999999999,0.03428,-0.131333,-0.043296,-0.005785,-0.0072510000000000005,0.028645999999999998
171,-2.114994,-1.360867,-1.786464,-0.178259,0.9780459999999999,0.107873,0.043906,-0.11861300000000001,-0.035767,-0.0029850000000000002,-0.005496,0.03292
172,-2.1121220000000003,-1.360902,-1.780891,-0.178538,0.9780530000000001,0.10734300000000001,0.057651,-0.134687,-0.0239,0.005213000000000001,0.003621,0.03847
173,-2.109126,-1.361167,-1.7749259999999998,-0.178636,0.978108,0.106674,0.070362,-0.143301,-0.01205,0.005326,-0.002827,0.041701999999999996
174,-2.10613,-1.361739,-1.769039,-0.178473,0.9782270000000001,0.105853,0.068219,-0.135875,-0.002461,0.00022,-0.005174,0.043744
175,-2.103952,-1.362148,-1.7643950000000002,-0.178357,0.9783120000000001,0.10525999999999999,0.05346,-0.10065199999999999,-0.006881999999999999,-0.005633,-0.011195,0.046473
176,-2.103311,-1.362156,-1.7615990000000001,-0.17841700000000002,0.9783129999999999,0.10514100000000001,0.025726,-0.10903900000000001,-0.016679,-0.004277,-0.010952,0.028739999999999998
177,-2.1036330000000003,-1.36189,-1.7597580000000002,-0.17860499999999999,0.978258,0.10532899999999999,0.006561,-0.107877,-0.024291999999999998,-0.005492,-0.009370999999999999,0.020571000000000002
178,-2.105437,-1.361171,-1.759189,-0.179017,0.978109,0.10600799999999999,-0.011561,-0.11841099999999999,-0.038292,-0.002913,-0.012563,0.0052439999999999995
179,-2.1077060000000003,-1.3600219999999998,-1.759118,-0.179741,0.9778690000000001,0.10698900000000001,-0.020024,-0.11407300000000001,-0.050107,0.001153,-0.017145,0.003561
180,-2.109484,-1.358655,-1.758443,-0.180698,0.977582,0.107994,-0.030677999999999997,-0.127816,-0.067255,0.006122,-0.012449,0.00023700000000000001
181,-2.111473,-1.356978,-1.757655,-0.18189,0.9772280000000001,0.109197,-0.029626,-0.141626,-0.077912,0.010976,-0.003275,-0.00176
182,-2.1127380000000002,-1.3552819999999999,-1.755934,-0.183171,0.976867,0.11028199999999999,-0.026449,-0.15120699999999998,-0.082151,0.016423,0.006425,-0.003104
183,-2.1135770000000003,-1.35371,-1.753528,-0.184394,0.9765290000000001,0.11123,-0.011576000000000001,-0.161925,-0.078828,0.017646000000000002,0.006763,-0.004052
184,-2.113455,-1.35245,-1.7501330000000002,-0.185462,0.9762569999999999,0.11184300000000001,0.00547,-0.158823,-0.070167,0.013387999999999999,0.012451,-0.005397
185,-2.112302,-1.351699,-1.7458740000000001,-0.186218,0.976094,0.112006,0.025731,-0.145109,-0.054020000000000006,0.020431,0.00883,0.000909
186,-2.109829,-1.351351,-1.740733,-0.186784,0.976018,0.111719,0.045002,-0.11753,-0.041102,0.013612,0.009852,0.00585
187,-2.1061799999999997,-1.351415,-1.734902,-0.187136,0.976032,0.11100399999999999,0.055737,-0.097349,-0.035712,0.005266,-0.001438,0.017231
188,-2.102256,-1.351488,-1.7288310000000002,-0.18750799999999998,0.9760479999999999,0.110232,0.054626999999999995,-0.10375,-0.032507,0.008766,-0.003621,0.033247000000000006
189,-2.0993,-1.3514899999999999,-1.723487,-0.18783,0.9760489999999999,0.109676,0.047102,-0.11969,-0.035744,0.003092,-0.005056000000000001,0.027760000000000003
190,-2.09727,-1.351261,-1.718716,-0.188244,0.975999,0.10940599999999999,0.036376,-0.13668,-0.04007,0.01138,-0.005555,0.024399
191,-2.0958490000000003,-1.350925,-1.7144669999999997,-0.188682,0.9759260000000001,0.109302,0.029951,-0.136678,-0.034774,0.014213,-0.0012699999999999999,0.025281
192,-2.095734,-1.350638,-1.7115060000000002,-0.188935,0.9758629999999999,0.109419,0.023540000000000002,-0.13136,-0.027348,0.005769,0.000669,0.010957
193,-2.095662,-1.3504049999999999,-1.709138,-0.18914,0.9758120000000001,0.10952,0.027932,-0.096251,-0.019884,0.005027,0.004825,-0.0026320000000000002
194,-2.093912,-1.350473,-1.706031,-0.189275,0.975827,0.10915599999999999,0.035785000000000004,-0.046549,-0.011405,0.00916,0.005313,-0.002787
195,-2.0913009999999996,-1.350759,-1.7026849999999998,-0.189317,0.9758889999999999,0.10852200000000001,0.044387,-0.026361000000000002,-0.00603,0.012544,0.0038469999999999997,-0.0017109999999999998
196,-2.087933,-1.351159,-1.6986290000000002,-0.189342,0.9759760000000001,0.10769200000000001,0.05396,-0.031725,-0.004888,0.023861,0.002707,-0.000987
197,-2.0839939999999997,-1.351701,-1.693689,-0.189304,0.976095,0.10668499999999999,0.062394000000000005,-0.052003,-0.002667,0.022968000000000002,0.0035039999999999997,0.001576
198,-2.080069,-1.3523020000000001,-1.6882259999999998,-0.189209,0.976225,0.105655,0.069738,-0.081848,-0.004714,0.018553999999999998,0.002291,0.0027890000000000002
199,-2.076238,-1.352966,-1.682275,-0.18904400000000002,0.976369,0.10461500000000001,0.07283300000000001,-0.10741700000000001,-0.006795999999999999,0.005236,-0.000584,0.008879999999999999
200,-2.0727,-1.353617,-1.6763130000000002,-0.188854,0.976509,0.10363900000000001,0.071733,-0.11487,-0.006794,0.002499,-0.0006940000000000001,0.014968
201,-2.068864,-1.354444,-1.6702419999999998,-0.18854,0.9766870000000001,0.102527,0.079229,-0.096834,0.004986,-0.0005769999999999999,-0.003329,0.022152
202,-2.064839,-1.355516,-1.664411,-0.188027,0.976917,0.10127,0.082952,-0.073668,0.019738,-0.00428,0.002728,0.026523
203,-2.060526,-1.356771,-1.6588209999999999,-0.187378,0.977184,0.09988,0.084096,-0.047079,0.029325999999999998,-0.011245999999999999,-0.004451,0.03632
204,-2.0559380000000003,-1.358057,-1.6537680000000001,-0.186723,0.977456,0.09843400000000001,0.074705,0.003009,0.032401,-0.015119999999999998,-0.009347,0.04033
205,-2.0513470000000003,-1.359162,-1.64976,-0.18621600000000002,0.9776889999999999,0.097076,0.067457,0.049916,0.030154000000000004,-0.010851000000000001,-0.009641,0.038238999999999995
206,-2.048021,-1.360021,-1.6468180000000001,-0.185791,0.9778690000000001,0.09607,0.049182,0.01272,0.023663999999999998,-0.009109,-0.011148,0.034026
207,-2.0436259999999997,-1.360806,-1.6431799999999999,-0.185528,0.978033,0.094904,0.05583200000000001,0.059604,0.015105,-0.0024289999999999997,-0.017034999999999998,0.039374
208,-2.039994,-1.360982,-1.6405990000000001,-0.18572,0.9780700000000001,0.094152,0.027027,0.040606,-0.0043,-0.004068,-0.017437,0.027887000000000002
209,-2.038595,-1.360574,-1.639509,-0.18620699999999998,0.977985,0.094072,0.000307,0.009888,-0.024743,0.01006,-0.013248,0.021437
210,-2.038468,-1.359746,-1.6392930000000001,-0.186942,0.9778110000000001,0.094413,-0.017877,-0.015556,-0.039793,0.008887,-0.0055520000000000005,0.01574
211,-2.039702,-1.358607,-1.639878,-0.18782000000000001,0.9775719999999999,0.095148,-0.026538,-0.042571,-0.046198,0.007736,0.002195,0.006903
212,-2.041202,-1.357505,-1.6404450000000002,-0.188638,0.977339,0.09591799999999999,-0.015865,-0.038360000000000005,-0.042924000000000004,0.0086,0.00757,-0.0025039999999999997
213,-2.0405439999999997,-1.356897,-1.639502,-0.18923199999999998,0.977211,0.096063,-0.000852,-0.005453,-0.026838,0.009193000000000002,0.007698,-0.002649
214,-2.03911,-1.35665,-1.638393,-0.18958599999999998,0.977158,0.095902,0.016362,0.038116000000000004,-0.015022999999999998,0.001064,0.009078,-0.0053560000000000005
215,-2.035482,-1.356689,-1.635673,-0.189898,0.977167,0.095195,0.032417,0.0519,-0.012792,0.012117000000000001,0.0038060000000000004,0.001576
216,-2.030935,-1.356882,-1.6320700000000001,-0.19016,0.9772069999999999,0.094248,0.040904,0.047583999999999994,-0.006318,0.01238,0.0037649999999999997,0.0025239999999999998
217,-2.026912,-1.3572899999999999,-1.6285969999999999,-0.190181,0.977294,0.093306,0.039679,0.0188,0.00011999999999999999,0.01211,0.000627,0.011384
218,-2.024213,-1.357707,-1.625803,-0.190065,0.977382,0.092614,0.034177,-0.011039,0.007597,0.000139,-1.1e-05,0.01406
219,-2.022111,-1.358168,-1.623518,-0.189853,0.9774799999999999,0.092017,0.029914,-0.006775,0.010767,-0.003766,-0.000826,0.013116
220,-2.020619,-1.358709,-1.621912,-0.18951400000000002,0.9775940000000001,0.091504,0.028870999999999997,0.004921,0.017154,-0.0018920000000000002,-0.001962,0.010195000000000001
221,-2.0188509999999997,-1.3593469999999999,-1.620476,-0.189113,0.977728,0.09089900000000001,0.031063,0.024062,0.023554,0.002849,0.0038399999999999997,0.007383
222,-2.016269,-1.3602040000000002,-1.618452,-0.18859,0.977907,0.090048,0.042798,0.033569999999999996,0.033238,0.004431,0.007840999999999999,0.0073939999999999995
223,-2.012324,-1.361306,-1.615414,-0.187969,0.978137,0.08884299999999999,0.065265,0.059012,0.045112,0.006495999999999999,0.007459,0.010385
224,-2.007356,-1.362818,-1.611517,-0.187065,0.97845,0.087282,0.075919,0.065328,0.054792999999999994,0.0026620000000000003,0.001622,0.015776
225,-2.002067,-1.364539,-1.607557,-0.18599200000000002,0.9788040000000001,0.085586,0.071642,0.069578,0.061167,0.003558,-0.004515,0.020309999999999998
226,-1.997465,-1.3660649999999999,-1.60449,-0.185023,0.979116,0.084111,0.054678,0.08458500000000001,0.052483,0.003093,-0.007359999999999999,0.022487
227,-1.99425,-1.3671879999999998,-1.602839,-0.184289,0.9793430000000001,0.083063,0.033345,0.07299299999999999,0.03953,0.01426,-0.007297,0.019858
228,-1.992762,-1.367947,-1.602271,-0.18373499999999998,0.9794959999999999,0.082485,0.015045,0.020923,0.023446,0.011616,-0.004628,0.013172999999999999
229,-1.9938310000000001,-1.36816,-1.602334,-0.18345699999999998,0.9795389999999999,0.082595,0.011418000000000001,-0.077058,0.020340999999999998,-0.010452,-0.013963,0.00203
230,-1.994573,-1.368659,-1.601817,-0.18295,0.97964,0.08252999999999999,0.022264,-0.038741000000000005,0.0193,0.0045590000000000006,-0.010722,0.005314
231,-1.994536,-1.369043,-1.601194,-0.18261,0.9797170000000001,0.08236900000000001,0.013806,-0.031216000000000004,0.009617,0.007088,-0.006175,-0.006166
232,-1.995007,-1.369227,-1.60064,-0.18240599999999998,0.9797540000000001,0.08238,0.012657999999999999,-0.05781,0.001097,0.029039999999999996,0.005765999999999999,-0.018019
233,-1.994805,-1.369381,-1.5993469999999999,-0.182285,0.979784,0.08228200000000001,0.016901,-0.05890700000000001,0.0054009999999999996,0.041203,0.009885,-0.017172
234,-1.9951169999999998,-1.369716,-1.597819,-0.18195999999999998,0.979851,0.082203,0.024115,-0.107965,0.012991999999999998,0.03926,0.012779,-0.01714
235,-1.995298,-1.3705450000000001,-1.5958139999999998,-0.181204,0.980017,0.081901,0.03798,-0.086798,0.035495,0.008093000000000001,0.00799,-0.011253
236,-1.994225,-1.3719299999999999,-1.59372,-0.180056,0.980291,0.08115,0.052012,-0.025162999999999998,0.061151,-0.005643,0.011133,-0.009433
237,-1.9912849999999997,-1.373902,-1.590978,-0.178529,0.9806790000000001,0.079831,0.071397,0.036469999999999995,0.082572,-0.016677,0.010837000000000001,-0.005703
238,-1.9870860000000001,-1.3765290000000001,-1.5878860000000001,-0.176504,0.981189,0.078038,0.07677,0.067254,0.105003,-0.020838,0.008754999999999999,-0.01006
239,-1.981357,-1.379617,-1.5842399999999999,-0.17416900000000002,0.9817809999999999,0.075815,0.11111099999999999,0.141584,0.13505699999999998,-0.01916,0.012223000000000001,-0.001291
240,-1.9704549999999998,-1.383401,-1.5772899999999999,-0.17156,0.9824930000000001,0.072466,0.145548,0.23191399999999998,0.159751,-0.010995999999999999,0.012426000000000001,0.003783
241,-1.957382,-1.3877,-1.56918,-0.168578,0.9832850000000001,0.068623,0.149834,0.264807,0.188581,-0.020433,-0.0012289999999999998,0.020946
242,-1.9450900000000002,-1.392311,-1.562137,-0.165183,0.9841139999999999,0.064886,0.14870999999999998,0.26369899999999996,0.200325,-0.015511000000000002,-0.005934,0.023157
243,-1.9296400000000002,-1.397078,-1.551491,-0.161769,0.984949,0.060676999999999995,0.195604,0.241211,0.188931,0.0028640000000000002,0.006781000000000001,0.028862
244,-1.907388,-1.402194,-1.53368,-0.15831800000000001,0.98582,0.055397,0.250975,0.231375,0.203217,0.051095,-0.01617,0.064842
245,-1.884945,-1.407585,-1.514809,-0.15446400000000002,0.986711,0.050186,0.22499699999999997,0.160044,0.214878,0.037139,-0.038835,0.064911
246,-1.86747,-1.412731,-1.4993530000000002,-0.150457,0.987534,0.045994,0.184149,0.086704,0.20934499999999998,0.025274,-0.027602999999999996,0.058147000000000004
247,-1.8538569999999999,-1.417442,-1.486658,-0.146597,0.9882639999999999,0.042641000000000005,0.170131,0.039936,0.19542,0.013890999999999999,-0.004942,0.054527
248,-1.839561,-1.421791,-1.472687,-0.143046,0.9889190000000001,0.039399,0.171227,0.017677000000000002,0.166614,0.016428,-0.006925,0.067626
249,-1.8268060000000002,-1.42554,-1.459034,-0.139948,0.989469,0.036632,0.142096,-0.078002,0.143033,-0.003653,-0.009412,0.07493999999999999
250,-1.819768,-1.4282489999999999,-1.4488860000000001,-0.137603,0.989857,0.034985,0.093833,-0.1831,0.093692,-0.042176,-0.013280000000000002,0.073612
251,-1.818964,-1.4294879999999999,-1.444137,-0.136442,0.9900329999999999,0.034573,0.038653,-0.176275,0.033477,-0.080233,-0.018338,0.067813
252,-1.822127,-1.429231,-1.445643,-0.13658,0.9899959999999999,0.035068,-0.03613,-0.027675,-0.033464999999999995,-0.086885,-0.010748,0.034573
253,-1.830107,-1.4269180000000001,-1.454097,-0.138508,0.989667,0.036744,-0.084449,0.049562,-0.125769,-0.028651999999999997,-0.016874,0.018951
254,-1.8331990000000002,-1.423317,-1.45861,-0.141837,0.989145,0.038097000000000006,-0.060661,0.081591,-0.1641,0.063987,0.0026309999999999997,0.051503
255,-1.83917,-1.419617,-1.465922,-0.14513800000000002,0.9885940000000001,0.039914,-0.112249,0.025200999999999998,-0.136614,0.095791,0.002037,0.023868
256,-1.852904,-1.416699,-1.478302,-0.147348,0.98815,0.042707,-0.11961400000000001,-0.127357,-0.074513,0.085016,0.0017629999999999998,-0.009062
257,-1.865993,-1.41527,-1.488768,-0.148128,0.98793,0.045043,-0.068635,-0.12243499999999999,-0.017547,0.042598000000000004,0.006058,-0.016538999999999998
258,-1.8726049999999999,-1.415297,-1.493084,-0.147799,0.987934,0.046012,-0.014393000000000001,-0.13126300000000002,0.011685,0.026795999999999997,0.006435,-0.015266
259,-1.878205,-1.415738,-1.4955209999999999,-0.147122,0.9880030000000001,0.046707,-0.003829,-0.164285,0.002187,0.028973000000000002,-0.011637999999999999,0.001266
260,-1.8796709999999999,-1.4158030000000001,-1.493627,-0.146994,0.9880120000000001,0.046904,0.019757,-0.170631,-0.029687,0.054479999999999994,0.006983,0.028017
261,-1.877358,-1.415505,-1.487472,-0.147384,0.987967,0.046653,0.04206,-0.205812,-0.042305,0.049576,0.011148,0.051995000000000006
262,-1.8802189999999999,-1.414796,-1.485257,-0.14791700000000002,0.987857,0.047288,-0.028526999999999997,-0.27712,-0.050157,-0.026674,0.013378999999999999,0.033187
263,-1.8885189999999998,-1.41285,-1.487942,-0.149348,0.9875520000000001,0.049115,-0.062365,-0.27673200000000003,-0.117692,-0.05531799999999999,-0.009493999999999999,0.008563
264,-1.897511,-1.4103809999999999,-1.492047,-0.15120999999999998,0.9871610000000001,0.051239,-0.057814,-0.217079,-0.120941,-0.030277999999999996,0.00018899999999999999,-0.011261
265,-1.898946,-1.4076799999999998,-1.488873,-0.153661,0.986726,0.052315,-0.001261,-0.24697600000000003,-0.152554,0.037114,0.005187,0.009254
266,-1.900381,-1.404717,-1.484651,-0.156354,0.986241,0.053482,-0.014318,-0.289598,-0.138704,0.037549,-0.005207,0.031233999999999998
267,-1.906391,-1.4022860000000001,-1.484902,-0.158296,0.985836,0.055212,-0.057184000000000006,-0.286436,-0.093074,0.025346,-0.012203,0.031687
268,-1.918622,-1.400358,-1.491533,-0.159397,0.985511,0.057791999999999996,-0.102184,-0.287511,-0.051726,-0.0033689999999999996,-0.011862000000000001,0.02401
269,-1.935782,-1.399166,-1.5028709999999998,-0.15948099999999998,0.985308,0.060939,-0.11413,-0.306755,-0.024011,-0.014347,-0.007647,0.010503
270,-1.952793,-1.398188,-1.514076,-0.159315,0.98514,0.064002,-0.096993,-0.28023000000000003,-0.012175,-0.00963,-0.004595,0.007959
271,-1.9655099999999999,-1.397489,-1.522227,-0.159126,0.9850200000000001,0.066288,-0.06464199999999999,-0.206826,-0.015248,-0.010064,-0.005879,-0.002979
272,-1.972896,-1.396568,-1.526058,-0.159468,0.9848610000000001,0.067817,-0.033458999999999996,-0.171704,-0.034303,0.020888,0.004640999999999999,0.014702000000000002
273,-1.9766650000000001,-1.39571,-1.526262,-0.15998900000000002,0.984711,0.068752,-0.015388999999999998,-0.18774200000000002,-0.035225,0.032975,0.003951,0.026829000000000002
274,-1.9818049999999998,-1.3950209999999998,-1.527512,-0.16025699999999998,0.984591,0.069845,-0.026206,-0.19526400000000002,-0.009653,0.023035,0.008863,0.039209
275,-1.990784,-1.3945809999999998,-1.532916,-0.16002,0.9845139999999999,0.07145800000000001,-0.061341,-0.168552,0.000749,-0.005325,-0.0018329999999999998,0.040587
276,-1.9999360000000002,-1.394226,-1.539531,-0.159676,0.984452,0.07306499999999999,-0.062211,-0.118506,0.007089,-0.025412999999999998,-0.010407,0.030588
277,-2.0091349999999997,-1.394033,-1.5463959999999999,-0.159168,0.984418,0.074611,-0.049438,-0.120698,0.011453,-0.041348,0.002231,0.033193
278,-2.015415,-1.393735,-1.5510700000000002,-0.15896,0.9843649999999999,0.07573400000000001,-0.031956,-0.04506,-0.004545,-0.041907,0.000589,0.045543
279,-2.0183560000000003,-1.393269,-1.5542120000000001,-0.15915,0.984283,0.0764,-0.039117,0.014655000000000001,-0.013217,-0.03482,-0.017440999999999998,0.034364
280,-2.023473,-1.392151,-1.559156,-0.159747,0.984085,0.077695,-0.06263099999999999,-0.013949000000000001,-0.032573000000000005,-0.027173000000000003,-0.006943,0.041537
281,-2.026602,-1.3906889999999998,-1.562763,-0.160798,0.983824,0.078829,-0.054823000000000004,0.044683,-0.049685,-0.01599,-7.5e-05,0.032942
282,-2.029028,-1.389066,-1.5660969999999999,-0.16203900000000002,0.983532,0.079926,-0.054861,0.0351,-0.050741,-0.016474000000000003,-0.00253,0.024918
283,-2.032754,-1.387399,-1.5701690000000001,-0.163209,0.9832299999999999,0.08126,-0.066774,0.001031,-0.045439,-0.021773,-0.013961000000000001,0.023141
284,-2.036364,-1.386064,-1.5741049999999999,-0.164088,0.982985,0.082438,-0.05276599999999999,0.039302,-0.037913,-0.019154,-0.009536,0.025212000000000002
285,-2.037389,-1.384981,-1.576932,-0.164954,0.982786,0.083085,-0.04502,0.106366,-0.032604,-0.017099,-0.009718000000000001,0.026945999999999998
286,-2.039376,-1.38382,-1.581032,-0.165804,0.9825709999999999,0.083927,-0.058950999999999996,0.09893300000000001,-0.026282,-0.011762,-0.001446,0.029110000000000004
287,-2.042226,-1.38286,-1.586096,-0.166404,0.982392,0.084827,-0.064276,0.11381400000000001,-0.013519999999999999,-0.009515000000000001,0.0044399999999999995,0.02905
288,-2.044964,-1.381972,-1.59161,-0.166946,0.982226,0.08567999999999999,-0.063032,0.153225,-0.013562000000000001,-0.002396,-0.003481,0.031523
289,-2.046217,-1.381061,-1.596968,-0.167634,0.9820540000000001,0.086298,-0.062682,0.22886700000000001,-0.015793,-0.009765000000000001,-0.007369,0.050039
290,-2.047185,-1.379781,-1.603191,-0.168666,0.9818120000000001,0.087037,-0.083774,0.267355,-0.032013,-0.014103999999999998,-0.005128,0.032791
291,-2.048179,-1.378483,-1.609313,-0.169711,0.9815649999999999,0.08778899999999999,-0.073274,0.232156,-0.029758,-0.011274,-0.007809999999999999,0.022852
292,-2.048804,-1.377206,-1.613725,-0.170769,0.9813200000000001,0.08847200000000001,-0.052204999999999994,0.163938,-0.038069,0.016488,0.002964,0.014997
293,-2.047678,-1.376226,-1.616088,-0.171724,0.981131,0.08872200000000001,-0.029752999999999998,0.187245,-0.025123,0.013536000000000001,0.000589,0.028038999999999998
294,-2.045921,-1.375501,-1.6184479999999999,-0.172515,0.9809899999999999,0.088747,-0.037158,0.208546,-0.017725,0.007704000000000001,-0.001178,0.026762
295,-2.043966,-1.374652,-1.6206450000000001,-0.173431,0.980825,0.08879,-0.025433,0.20107,-0.022974,0.016342,-0.00021899999999999998,0.015000999999999999
296,-2.040247,-1.374465,-1.620383,-0.173924,0.9807889999999999,0.088227,0.008405,0.14551,-0.010916,0.028722,0.004868,-0.004838
297,-2.0373419999999998,-1.3744100000000001,-1.618955,-0.174229,0.980778,0.087747,0.015388999999999998,0.041075,-0.007529000000000001,0.035847000000000004,0.009212,-0.017587000000000002
298,-2.033953,-1.374814,-1.6163020000000001,-0.174172,0.980857,0.086979,0.060202,0.060021000000000005,0.010920000000000001,0.05674,0.014321,0.026531
299,-2.0246939999999998,-1.376079,-1.608994,-0.173853,0.981102,0.08481799999999999,0.100958,0.12479200000000001,0.028213,0.045618,0.001503,0.048987
300,-2.015904,-1.377353,-1.6025770000000001,-0.173463,0.981348,0.082748,0.065723,0.11746199999999998,0.026907999999999998,0.045228,0.001257,0.051057
301,-2.012286,-1.378484,-1.60097,-0.172756,0.9815649999999999,0.08164500000000001,0.020776,0.096275,0.036235,0.038508999999999995,-0.016477000000000002,0.036596
302,-2.012395,-1.379138,-1.6029879999999999,-0.172166,0.98169,0.081389,-0.024041999999999997,0.086874,0.028456,0.031754000000000004,-0.033783,0.030945999999999998
303,-2.018697,-1.379133,-1.61053,-0.171653,0.9816889999999999,0.082474,-0.086097,0.042371,0.022739,0.004264,-0.026260000000000002,0.033554
304,-2.031482,-1.378387,-1.624279,-0.17124,0.9815459999999999,0.08498700000000001,-0.15754300000000002,0.034162,0.006227,-0.030649000000000003,-0.015085,0.029102999999999997
305,-2.050282,-1.3765379999999998,-1.643218,-0.171221,0.981191,0.089028,-0.217542,-0.043308,-0.015456999999999999,-0.044095,-0.006032,-0.003929
306,-2.07003,-1.373889,-1.661548,-0.171713,0.980676,0.093636,-0.21669499999999997,-0.12096099999999999,-0.044194,-0.039652,-0.002069,-0.027566000000000004
307,-2.087042,-1.371045,-1.6759,-0.17252,0.980116,0.09792000000000001,-0.162357,-0.154106,-0.060863,-0.022441,0.013184999999999999,-0.050786000000000005
308,-2.094406,-1.3690579999999999,-1.680043,-0.173484,0.97972,0.100163,-0.03543,-0.164124,-0.063169,0.011344,0.025484,-0.059758000000000006
309,-2.090865,-1.368279,-1.674134,-0.174499,0.979563,0.099927,0.07164,-0.06866599999999999,-0.051861000000000004,0.054778999999999994,0.023748,-0.012037
310,-2.079811,-1.368328,-1.663385,-0.175549,0.9795729999999999,0.097968,0.09561900000000001,0.061146000000000006,-0.034768,0.081204,0.0044659999999999995,0.022744
311,-2.070137,-1.368492,-1.654304,-0.176347,0.979606,0.096188,0.061316999999999997,0.018680000000000002,-0.041363,0.080613,0.030388,0.0154
312,-2.063822,-1.368149,-1.6476540000000002,-0.177248,0.9795370000000001,0.09523200000000001,0.044074,-0.029158999999999997,-0.051036,0.08999800000000001,0.045913999999999996,-0.001894
313,-2.055924,-1.368161,-1.6380629999999998,-0.177983,0.97954,0.093823,0.10254400000000001,-0.103058,-0.053709,0.09698899999999999,0.032895999999999995,-0.014019
314,-2.046194,-1.368554,-1.625092,-0.178547,0.979619,0.091911,0.127852,-0.172377,-0.056648000000000004,0.063511,0.018123,0.015404
315,-2.0381650000000002,-1.368472,-1.613765,-0.17935,0.9796020000000001,0.09051100000000001,0.075691,-0.140262,-0.050644999999999996,0.01927,-0.008609,0.042607
316,-2.0342279999999997,-1.368587,-1.607836,-0.17960399999999999,0.979625,0.089753,0.046159,-0.043304,-0.029611000000000002,-0.053489999999999996,-0.013713,0.052030999999999994
317,-2.030566,-1.3686209999999999,-1.605365,-0.179901,0.979632,0.08907999999999999,-0.005408,0.113477,-0.031239999999999997,-0.096679,-0.012454,0.052353
318,-2.028881,-1.367623,-1.606406,-0.180928,0.9794309999999999,0.089209,-0.035949,0.15956199999999998,-0.074241,-0.077159,-0.023819,0.018975
319,-2.020094,-1.365858,-1.603216,-0.18326099999999998,0.979074,0.088367,0.021678,0.36404000000000003,-0.11042,0.034473000000000004,-0.03872,0.029965
320,-2.002363,-1.36323,-1.593299,-0.187137,0.978535,0.08617999999999999,0.050896,0.387648,-0.17861300000000002,0.074146,0.005672,0.056825
321,-1.985638,-1.3588770000000001,-1.582729,-0.19245,0.9776290000000001,0.084755,-0.009959,0.291271,-0.26650799999999997,0.08518099999999999,0.0077069999999999994,0.06386599999999999
322,-1.97242,-1.353207,-1.5756,-0.198653,0.9764209999999999,0.08437,-0.040672,0.33932399999999996,-0.268921,0.10609400000000001,-0.000194,0.081722
323,-1.962018,-1.348378,-1.571959,-0.203878,0.975367,0.084096,-0.06324400000000001,0.347742,-0.223156,0.043935,0.002065,0.08198
324,-1.9557330000000002,-1.343957,-1.57125,-0.20839899999999997,0.974382,0.08443300000000001,-0.074488,0.225252,-0.217736,0.028666000000000004,0.004515,0.069529
325,-1.9524009999999998,-1.339332,-1.570815,-0.21286100000000002,0.973332,0.08541599999999999,-0.08233,0.122028,-0.23795500000000003,-0.012329000000000001,0.0033229999999999996,0.040988
326,-1.950407,-1.333915,-1.569928,-0.217925,0.972075,0.08694400000000001,-0.08025399999999999,0.043456,-0.30407,-0.01529,-0.006742000000000001,0.016907
327,-1.943974,-1.328475,-1.56661,-0.223402,0.970784,0.08746699999999999,-0.031497000000000004,0.259336,-0.253799,0.014447999999999999,0.023174,0.012844
328,-1.9282259999999998,-1.324431,-1.5584879999999999,-0.228429,0.9698049999999999,0.085312,0.057675,0.42721899999999996,-0.22348099999999999,0.07703099999999999,0.025465,0.019393999999999998
329,-1.9091060000000002,-1.321038,-1.546819,-0.233123,0.9689719999999999,0.08202100000000001,0.08603999999999999,0.3567,-0.195419,0.083022,0.029639,0.035289
330,-1.893125,-1.3186930000000001,-1.536704,-0.23655900000000002,0.96839,0.07900499999999999,0.077939,0.289321,-0.121682,0.088702,0.019952,0.066045
331,-1.881523,-1.317641,-1.5295020000000001,-0.238431,0.9681270000000001,0.076567,0.06972300000000001,0.18152100000000002,-0.062849,0.019711000000000003,-0.007723000000000001,0.02939
332,-1.8747150000000001,-1.316271,-1.523692,-0.240211,0.967783,0.075338,0.037008,-0.019528,-0.106617,0.027412,-0.019709,0.017344
333,-1.873898,-1.314403,-1.520269,-0.241998,0.967311,0.075682,0.007737000000000001,-0.14291700000000002,-0.12696,-0.039206,-0.021907,0.008348000000000001
334,-1.8722580000000002,-1.312761,-1.517974,-0.24363800000000002,0.966893,0.07575599999999999,0.034138,0.07839,-0.08219299999999999,-0.06224,-0.003621,0.020862000000000002
335,-1.8583060000000002,-1.311817,-1.508767,-0.24554600000000001,0.9666520000000001,0.072609,0.147309,0.298649,-0.11693699999999999,0.0040149999999999995,-0.004097,0.025795
336,-1.840593,-1.309658,-1.4947840000000001,-0.24880500000000003,0.966097,0.06880399999999999,0.11707200000000001,0.16262100000000002,-0.172521,0.05395,-0.008242,0.064603
337,-1.830927,-1.3063200000000001,-1.487119,-0.252575,0.9652299999999999,0.067226,0.019667,0.085221,-0.17951199999999998,0.081615,-0.019673,0.061833000000000006
338,-1.827621,-1.303058,-1.485064,-0.25584,0.9643719999999999,0.06719,-0.025376,0.069254,-0.143486,0.06525700000000001,-0.030244,0.031687
339,-1.828022,-1.30039,-1.487334,-0.258301,0.9636629999999999,0.06794700000000001,-0.07976699999999999,0.116146,-0.10119700000000001,0.019989,-0.044534,0.022324
340,-1.830324,-1.298386,-1.493296,-0.26000999999999996,0.963125,0.069037,-0.10724700000000001,0.183316,-0.091861,-0.035064,-0.029013,-0.015509
341,-1.833606,-1.295856,-1.499263,-0.262135,0.962441,0.070523,-0.102387,0.067226,-0.10236100000000001,-0.042156,-0.012887000000000001,-0.029294
342,-1.8391400000000002,-1.292961,-1.503209,-0.264426,0.961651,0.072711,-0.086151,-0.16063,-0.14468399999999998,-0.019341,0.001911,-0.049029
343,-1.846295,-1.289836,-1.506848,-0.266791,0.9607899999999999,0.075418,-0.09264299999999999,-0.17235899999999998,-0.136169,-0.001168,0.024669,-0.015558
344,-1.8531529999999998,-1.287281,-1.510526,-0.268625,0.9600780000000001,0.07793,-0.061963,-0.161027,-0.066535,0.013575,0.009557,-0.043323
345,-1.854832,-1.2862790000000002,-1.512242,-0.269417,0.9597969999999999,0.07865,-0.026793,0.092289,-0.042044,0.011131,0.04179,-0.005027
346,-1.853011,-1.28565,-1.513196,-0.27013899999999996,0.959621,0.078328,-0.02242,0.14435699999999999,-0.013238999999999999,-0.031679,0.026601,-0.015934999999999998
347,-1.850338,-1.285194,-1.513509,-0.270769,0.959492,0.077726,-0.009545999999999999,0.140132,-0.03344,-0.037215,0.014263,-0.025938
348,-1.8473529999999998,-1.284582,-1.512459,-0.27156399999999997,0.9593200000000001,0.077078,0.012595,0.075098,-0.039611,-0.032314999999999997,0.014816999999999999,-0.034124
349,-1.844243,-1.2840049999999998,-1.5100870000000002,-0.272335,0.9591559999999999,0.076383,0.026248,0.024991,-0.041588,0.001812,-0.002339,-0.04231
350,-1.8412119999999998,-1.282985,-1.506586,-0.273509,0.958868,0.075818,0.038839,-0.052695000000000006,-0.072379,0.006739,0.003932,-0.01605
351,-1.836057,-1.281987,-1.499639,-0.274819,0.958584,0.074658,0.10604200000000001,-0.066731,-0.083642,0.00805,0.004215,-0.014889
352,-1.8279299999999998,-1.2810350000000001,-1.490257,-0.2763,0.958312,0.072654,0.127279,-0.060529,-0.054659000000000006,-0.007972,-0.004546,0.037697
353,-1.8192110000000001,-1.280828,-1.4795719999999999,-0.277115,0.958253,0.07029099999999999,0.142076,-0.08723,-0.050249,-0.0075840000000000005,0.001342,0.069098
354,-1.812443,-1.280319,-1.470438,-0.27805799999999997,0.9581069999999999,0.068531,0.101391,-0.11798499999999999,-0.049425,-0.016863999999999997,0.001228,0.082104
355,-1.810039,-1.280132,-1.464915,-0.278395,0.9580540000000001,0.06790399999999999,0.059448,-0.157395,-0.014417,-0.007951999999999999,-0.004654,0.07430700000000001
356,-1.8120509999999999,-1.280614,-1.46355,-0.27780900000000003,0.958192,0.068354,0.016543000000000002,-0.15426800000000002,0.039758999999999996,-0.013572999999999998,-0.024293000000000002,0.056524
357,-1.8148630000000001,-1.281787,-1.464384,-0.276524,0.958527,0.068863,0.010416,-0.06169500000000001,0.071644,-0.03117,-0.02858,0.037032999999999996
358,-1.816544,-1.283058,-1.465201,-0.275227,0.958888,0.069031,0.019084999999999998,-0.043568,0.05993099999999999,-0.055140999999999996,-0.024577,0.014968
359,-1.814959,-1.283534,-1.463142,-0.274894,0.959023,0.068485,0.066439,-0.00517,0.006802,-0.043602999999999996,0.002204,0.01054
360,-1.809133,-1.28379,-1.457626,-0.27505,0.959096,0.066824,0.081687,0.038556,-0.018785,-0.043447,0.002132,0.012201
361,-1.8024650000000002,-1.28326,-1.450668,-0.275984,0.958946,0.065106,0.112506,-0.022136000000000003,-0.052675,-0.011584,0.008523000000000001,0.015888
362,-1.7961310000000001,-1.282097,-1.442373,-0.277478,0.958615,0.063606,0.112252,-0.093449,-0.06754099999999999,0.038708,0.021731999999999998,0.039056
363,-1.7915889999999999,-1.281215,-1.435111,-0.278589,0.958363,0.06253,0.089502,-0.14566700000000002,-0.043064,0.029901999999999998,-0.0038799999999999998,0.039826
364,-1.787188,-1.2806309999999999,-1.427502,-0.279409,0.958197,0.061423,0.106705,-0.14269600000000002,-0.047201,0.032628,0.002436,0.051873
365,-1.782546,-1.2801790000000002,-1.41931,-0.280116,0.958067,0.06021699999999999,0.10661400000000001,-0.154448,-0.038641,-0.001241,-0.002577,0.048624
366,-1.7785529999999998,-1.280332,-1.4132049999999998,-0.280211,0.958111,0.059067999999999996,0.083445,-0.045876,0.002718,-0.020647,-0.018032,0.049422
367,-1.772868,-1.281004,-1.4077030000000001,-0.279912,0.958303,0.05734500000000001,0.094545,0.058449,0.011208,-0.057352999999999994,-0.029699,0.046018
368,-1.7652599999999998,-1.281507,-1.4014469999999999,-0.27986500000000003,0.9584469999999999,0.05512,0.093727,0.094748,-0.008072,-0.033596,-0.005337,0.057138999999999995
369,-1.7581529999999999,-1.2821200000000001,-1.3969989999999999,-0.279672,0.958622,0.053020000000000005,0.0704,0.177717,0.042933,-0.030173000000000002,4.2e-05,0.069844
370,-1.749638,-1.283333,-1.392823,-0.278969,0.958966,0.05043,0.085562,0.254257,0.069647,-0.050225,-0.006772,0.06900099999999999
371,-1.7398740000000001,-1.285268,-1.38871,-0.277619,0.959513,0.047392000000000004,0.063301,0.31494,0.098255,-0.058120000000000005,-0.005503,0.070925
372,-1.730675,-1.286824,-1.387383,-0.276569,0.95995,0.044598,0.035282,0.46640200000000004,0.074365,-0.080441,-0.010029999999999999,0.07081900000000001
373,-1.715152,-1.287525,-1.38374,-0.276562,0.9601459999999999,0.040202999999999996,0.098416,0.68693,0.015771,-0.069691,-0.038119,0.02544
374,-1.690351,-1.287285,-1.373952,-0.277702,0.9600790000000001,0.03336,0.163089,0.7827850000000001,-0.035175,-0.038017,-0.031124000000000002,0.007488
375,-1.66305,-1.286233,-1.3613309999999998,-0.279514,0.959784,0.02586,0.197224,0.752953,-0.06373999999999999,0.019108,-0.034018,0.050724
376,-1.6320780000000001,-1.284331,-1.344244,-0.282003,0.959249,0.017303,0.28475500000000004,0.717677,-0.109017,0.00707,-0.015996,0.115494
377,-1.601836,-1.282939,-1.323704,-0.28373200000000004,0.9588540000000001,0.00881,0.260635,0.37883,-0.066023,0.023204,0.006813,0.165003
378,-1.585393,-1.28151,-1.3105930000000001,-0.28520999999999996,0.958448,0.004163,0.14743,0.12140699999999999,-0.061141999999999995,0.051827,0.026004000000000003,0.192858
379,-1.578569,-1.2808620000000002,-1.304459,-0.285853,0.9582629999999999,0.002222,0.07624500000000001,0.003195,-0.008076999999999999,0.09618600000000001,0.019809999999999998,0.099585
380,-1.5758780000000001,-1.281408,-1.299923,-0.285335,0.958418,0.00145,0.082927,-0.11848399999999999,0.045537,0.051905999999999994,0.018663,0.007736
381,-1.5696809999999999,-1.282692,-1.292448,-0.28410599999999997,0.958784,-0.000317,0.13583199999999998,0.047408,0.072399,0.025271000000000002,0.016146,-0.013386000000000002
382,-1.553568,-1.284333,-1.2805520000000001,-0.282491,0.959249,-0.004867,0.22251300000000002,0.347497,0.07689299999999999,-0.043955,-0.010244,-0.02655
383,-1.5284790000000001,-1.285469,-1.264158,-0.281192,0.95957,-0.011906,0.239657,0.552168,0.027612,-0.053174,-0.004141,-0.009868
384,-1.501148,-1.285972,-1.247107,-0.280281,0.9597110000000001,-0.019553,0.236317,0.517043,0.023361,-0.07520299999999999,-0.016046,-0.021661
385,-1.473968,-1.285411,-1.2290729999999999,-0.28018200000000004,0.9595530000000001,-0.027214999999999996,0.268453,0.49688699999999997,-0.025527,-0.009262000000000001,-0.014271,0.011712
386,-1.446127,-1.284527,-1.21038,-0.280158,0.959304,-0.035108999999999994,0.261908,0.49678100000000003,0.006474,0.054801,0.001221,0.018019
387,-1.417319,-1.284482,-1.191764,-0.279074,0.959291,-0.043171,0.266151,0.552978,0.068389,0.072043,-0.0056630000000000005,0.025318
388,-1.387375,-1.284913,-1.172506,-0.27725,0.959413,-0.051432000000000005,0.278987,0.5837319999999999,0.09194,0.049527999999999996,0.015959,0.021067
389,-1.353512,-1.2856040000000002,-1.149566,-0.274702,0.959608,-0.060646000000000005,0.32369000000000003,0.594092,0.126422,0.030407999999999998,-0.005628,0.039299
390,-1.317907,-1.286627,-1.1242159999999999,-0.271419,0.959895,-0.070141,0.35547,0.549218,0.132043,0.013850999999999999,-0.003001,0.048351
391,-1.278519,-1.287431,-1.095184,-0.267708,0.9601200000000001,-0.080552,0.40374299999999996,0.612945,0.137639,-0.004082,0.012414,0.013032
392,-1.233617,-1.2878399999999999,-1.062698,-0.263452,0.960234,-0.09235800000000001,0.452212,0.736262,0.159184,-0.013097999999999999,0.018266,-0.039326
393,-1.182636,-1.28786,-1.02633,-0.258385,0.96024,-0.105655,0.484429,0.820157,0.19669,-0.018165,0.01826,-0.026027999999999996
394,-1.1306969999999998,-1.287316,-0.9900979999999999,-0.253025,0.9600879999999999,-0.11915,0.478315,0.870302,0.182696,0.01511,-0.020024,0.016428
395,-1.08233,-1.287579,-0.9570770000000001,-0.246746,0.960161,-0.131126,0.361394,0.779961,0.23220100000000002,0.038494,-0.008608,0.005012
396,-1.041827,-1.288511,-0.929926,-0.240461,0.9604209999999999,-0.140557,0.30551500000000004,0.677941,0.219123,0.044233,-0.013018,0.006234
397,-1.00718,-1.288881,-0.907324,-0.23514699999999997,0.9605239999999999,-0.14861300000000002,0.22332800000000003,0.61029,0.158815,0.005289,-0.017302,0.043373
398,-0.983225,-1.2889760000000001,-0.89299,-0.231444,0.960551,-0.154152,0.13758099999999998,0.45320600000000005,0.088983,-0.051332,-0.012903999999999999,0.010735
399,-0.9687020000000001,-1.288475,-0.885443,-0.22957800000000003,0.960411,-0.157769,0.090428,0.319496,0.001231,-0.06264299999999999,0.024376,-0.017263999999999998
400,-0.959958,-1.2869389999999998,-0.8826350000000001,-0.229398,0.959982,-0.160617,0.074617,0.29638000000000003,-0.06508,-0.042087,0.027139,-0.004102000000000001
401,-0.954206,-1.284766,-0.882474,-0.230172,0.9593709999999999,-0.16314,0.059686,0.266728,-0.096125,-0.034446,0.007776000000000001,0.00657
402,-0.951451,-1.282429,-0.8847440000000001,-0.231546,0.958709,-0.165074,0.034043000000000004,0.24025900000000003,-0.114429,-0.024221,0.008942,0.012837000000000001
403,-0.950743,-1.279899,-0.8886959999999999,-0.233402,0.957987,-0.166647,0.020135,0.22223600000000002,-0.124118,-0.008312,0.003958,-0.008265
404,-0.950333,-1.27768,-0.893141,-0.235062,0.957348,-0.167978,0.011667,0.24248499999999998,-0.118862,-0.008026,0.00217,-0.01908
405,-0.949371,-1.275703,-0.897227,-0.236438,0.956775,-0.16930499999999998,0.0095,0.24670599999999998,-0.10713199999999999,-0.007061,0.0029879999999999998,-0.019477
406,-0.94757,-1.273859,-0.900438,-0.237565,0.9562370000000001,-0.17076,0.021164,0.243418,-0.09422699999999999,-0.005675,-4.5e-05,-0.017991999999999998
407,-0.9447959999999999,-1.27213,-0.90251,-0.23843000000000003,0.95573,-0.17238699999999998,0.026407,0.23483099999999998,-0.082429,-0.005573,-0.0008810000000000001,-0.006874
408,-0.9412510000000001,-1.270484,-0.903748,-0.23909,0.9552440000000001,-0.174157,0.040267000000000004,0.240079,-0.074862,-0.0072180000000000005,0.002947,-0.008643000000000001
409,-0.936133,-1.268707,-0.903708,-0.23956100000000002,0.954717,-0.176385,0.056322000000000004,0.257046,-0.06942999999999999,-0.009004,0.011897,-0.020988
410,-0.9307350000000001,-1.2669030000000001,-0.9031610000000001,-0.23998699999999998,0.9541790000000001,-0.178704,0.058336,0.23359000000000002,-0.06618099999999999,-0.007526000000000001,0.004974,0.0006190000000000001
411,-0.9263129999999999,-1.265277,-0.9031319999999999,-0.240434,0.953691,-0.180695,0.044366,0.21445100000000003,-0.06305,-0.009474,0.004988,0.010697
412,-0.922034,-1.263811,-0.9032530000000001,-0.24077300000000001,0.953249,-0.182567,0.039008,0.214448,-0.057746000000000006,-0.00825,0.009886,-0.000599
413,-0.918767,-1.262376,-0.9037430000000001,-0.241263,0.9528139999999999,-0.18418299999999999,0.035611000000000004,0.16653900000000002,-0.061980999999999994,-0.001963,0.013097999999999999,-0.0049960000000000004
414,-0.9165459999999999,-1.2609700000000001,-0.904539,-0.241916,0.9523870000000001,-0.185533,0.032319,0.14631,-0.061978,0.008075,0.002707,9.300000000000001e-05
415,-0.91405,-1.259496,-0.904926,-0.24256399999999997,0.951936,-0.186993,0.049434,0.135411,-0.060752,-0.000676,0.011138,0.016858
416,-0.9115219999999999,-1.257876,-0.9045110000000001,-0.24330900000000003,0.9514389999999999,-0.18855,0.059905999999999994,0.094881,-0.057422,0.004921,0.014,0.030851
417,-0.9090889999999999,-1.256305,-0.903616,-0.24402800000000002,0.9509540000000001,-0.19005899999999998,0.057648000000000005,0.069313,-0.055269000000000006,-0.001181,0.011158,0.034618
418,-0.907659,-1.254734,-0.903459,-0.24493299999999998,0.9504670000000001,-0.191328,0.046988999999999996,0.060871,-0.066015,-0.015000999999999999,0.002246,0.028654000000000002
419,-0.90759,-1.253308,-0.90436,-0.24598699999999998,0.9500219999999999,-0.192179,0.026608,0.039624,-0.062925,-0.014084000000000001,-0.00355,0.01829
420,-0.9088209999999999,-1.252407,-0.9063469999999999,-0.24689899999999998,0.949741,-0.192402,-0.006551,0.033297,-0.05033,-0.01778,-0.02077,0.015080000000000001
421,-0.910133,-1.251857,-0.9086930000000001,-0.247563,0.949569,-0.192398,-0.00755,0.055640999999999996,-0.042888,-0.015346,-0.008666,0.017716
422,-0.911216,-1.251205,-0.910866,-0.24826199999999998,0.949364,-0.19251,0.0009460000000000001,0.042845,-0.047085,-0.026213,0.003776,0.019033
423,-0.9122370000000001,-1.2503879999999998,-0.9126559999999999,-0.249072,0.9491069999999999,-0.19273099999999999,0.00519,0.033260000000000005,-0.051315999999999994,-0.030271,0.010778,0.018888
424,-0.913201,-1.249307,-0.914356,-0.250069,0.948766,-0.193118,0.012676999999999999,0.027946,-0.060871,-0.032554,0.015803,0.035006999999999996
425,-0.9151959999999999,-1.248153,-0.916775,-0.251321,0.948401,-0.19328599999999999,0.000893,0.008846,-0.069475,-0.018300999999999998,-0.014227000000000002,0.037036
426,-0.918193,-1.247158,-0.920034,-0.25265,0.9480850000000001,-0.193105,-0.019372,0.011043,-0.068551,-0.010244,-0.018305000000000002,0.030035000000000003
427,-0.920544,-1.246448,-0.9234209999999999,-0.253639,0.947859,-0.192918,-0.020309999999999998,0.065273,-0.04299,-0.0053490000000000005,-0.018736000000000003,0.024904
428,-0.9224889999999999,-1.2462870000000001,-0.927041,-0.254135,0.947807,-0.192517,-0.045905,0.067493,-0.043171,0.007324,0.00164,0.005475
429,-0.9241159999999999,-1.245949,-0.930025,-0.254704,0.9477,-0.192296,-0.007517,0.080074,-0.025827999999999997,0.014012,0.046120999999999995,-0.0034130000000000002
430,-0.9224110000000001,-1.245711,-0.930335,-0.25455500000000003,0.947623,-0.192866,0.009548000000000001,0.096986,-0.007571,-0.03025,0.005013,0.0056560000000000004
431,-0.919942,-1.2455209999999999,-0.929851,-0.25422100000000003,0.9475629999999999,-0.193603,0.021287999999999998,0.10543800000000002,-2.2e-05,-0.019994,0.013237,0.008606
432,-0.915208,-1.245159,-0.927774,-0.25357399999999997,0.9474469999999999,-0.19501300000000002,0.045994,0.152185,0.009705,-0.013287,0.004427,0.023291
433,-0.909173,-1.244744,-0.9247200000000001,-0.252702,0.947314,-0.19678099999999998,0.056682,0.159592,0.012975,-0.011641,0.001355,0.021564
434,-0.902998,-1.2441870000000002,-0.9214620000000001,-0.251896,0.9471360000000001,-0.198665,0.053427999999999996,0.152129,0.017234,0.010136,0.011452,0.012140999999999999
435,-0.898241,-1.243902,-0.919381,-0.251158,0.947044,-0.20002799999999998,0.025599,0.12455899999999999,0.009598,0.010343999999999999,-0.006828,0.034241
436,-0.896193,-1.2437129999999998,-0.918817,-0.250888,0.946984,-0.200654,0.012532999999999999,0.051160000000000004,-0.005354,0.011249,-0.0071790000000000005,0.017365000000000002
437,-0.896718,-1.243283,-0.919774,-0.251311,0.946845,-0.200776,-0.0024649999999999997,0.0044729999999999995,-0.038514,0.012191,-0.000785,0.014709999999999999
438,-0.8999940000000001,-1.242628,-0.922758,-0.25245300000000004,0.946634,-0.200337,-0.02386,-0.034761,-0.065319,0.00372,0.002935,0.014134
439,-0.905158,-1.2419229999999999,-0.9273399999999999,-0.25400900000000004,0.946407,-0.199443,-0.038758,-0.043163,-0.082504,-0.00626,0.006595999999999999,0.022241999999999998
440,-0.9110879999999999,-1.241062,-0.932949,-0.255831,0.9461280000000001,-0.198432,-0.043910000000000005,-0.017518000000000002,-0.097528,-0.012312,0.0037159999999999997,0.031409
441,-0.916271,-1.240017,-0.9385459999999999,-0.257639,0.9457899999999999,-0.197705,-0.036289,0.015483000000000002,-0.098585,-0.024709000000000002,-0.000294,0.03796
442,-0.9207059999999999,-1.239004,-0.944039,-0.259276,0.9454600000000001,-0.197139,-0.041464999999999995,0.052778,-0.09653300000000001,-0.027666000000000003,0.007879,0.037929000000000004
443,-0.9242940000000001,-1.2381389999999999,-0.949767,-0.26063400000000003,0.9451780000000001,-0.1967,-0.051875,0.120949,-0.08601,-0.027879,0.0029879999999999998,0.043426
444,-0.92674,-1.2377120000000001,-0.9558540000000001,-0.261437,0.9450379999999999,-0.196304,-0.072963,0.191272,-0.071293,-0.019112,-0.007233,0.049819999999999996
445,-0.927961,-1.237787,-0.9621620000000001,-0.261619,0.9450629999999999,-0.195942,-0.086616,0.259416,-0.051179,-0.031975,-0.0036869999999999997,0.039631
446,-0.9281520000000001,-1.238083,-0.968514,-0.261432,0.94516,-0.195725,-0.090692,0.31053000000000003,-0.042727,-0.028332,-0.00119,0.02449
447,-0.927508,-1.23855,-0.9749270000000001,-0.260954,0.945312,-0.195629,-0.096911,0.354215,-0.039622000000000004,-0.035174000000000004,0.003617,0.020046
448,-0.9258,-1.238951,-0.981239,-0.260315,0.945443,-0.195846,-0.08706900000000001,0.40320100000000003,-0.043889,-0.018691,0.004524,0.024199000000000002
449,-0.9238879999999999,-1.2391530000000002,-0.9876790000000001,-0.259788,0.945509,-0.19622699999999998,-0.086031,0.390439,-0.050275,0.00193,0.013811000000000002,0.019012
450,-0.921525,-1.2395530000000001,-0.993511,-0.259023,0.9456389999999999,-0.19661199999999998,-0.090347,0.393595,-0.036422,-0.009729999999999999,0.019678,0.010364
451,-0.9182020000000001,-1.240035,-0.998866,-0.25800500000000004,0.945795,-0.197195,-0.07631900000000001,0.443554,-0.021433,0.018015,0.002889,0.011221
452,-0.9129729999999999,-1.240664,-1.003226,-0.256499,0.946,-0.198177,-0.067703,0.477549,-0.005393,0.030318,0.022994999999999998,0.015163
453,-0.907264,-1.241747,-1.006739,-0.25455700000000003,0.94635,-0.199008,-0.08186,0.435962,0.016994,0.0357,0.016541,0.014377000000000001
454,-0.902458,-1.243127,-1.0105,-0.252573,0.946795,-0.199419,-0.09045700000000001,0.42214399999999996,0.016952000000000002,0.028664999999999996,0.0069099999999999995,0.019412000000000002
455,-0.89697,-1.244292,-1.014082,-0.25061300000000003,0.947169,-0.20011400000000001,-0.069971,0.453034,-3.6e-05,0.024279,0.008611,0.037531999999999996
456,-0.890883,-1.2449780000000001,-1.0171780000000001,-0.248885,0.9473889999999999,-0.201228,-0.055063,0.440224,-0.006325,0.02075,0.012404,0.031152999999999997
457,-0.8846569999999999,-1.245753,-1.019308,-0.247059,0.9476370000000001,-0.202308,-0.040386,0.39431900000000003,0.005587,-0.00372,0.022258,0.002418
458,-0.878232,-1.2463819999999999,-1.020283,-0.24529499999999999,0.947838,-0.20351,-0.027824,0.351621,0.016411000000000002,0.0010630000000000001,0.013405000000000002,0.004673
459,-0.872534,-1.247231,-1.021169,-0.243515,0.948108,-0.20438699999999999,-0.037593,0.31437,0.016391,0.010864,-0.003986,0.016033000000000002
460,-0.8678459999999999,-1.248113,-1.022726,-0.241916,0.9483879999999999,-0.204986,-0.048305,0.308003,0.019528999999999998,0.008075,-0.011041,0.011154
461,-0.862561,-1.249407,-1.023832,-0.23989699999999997,0.9487979999999999,-0.205463,-0.05695,0.311118,0.047238,-0.005251,0.016428,-0.000775
462,-0.856716,-1.250828,-1.0239040000000001,-0.23767199999999997,0.9492450000000001,-0.205979,-0.035737,0.290773,0.054889999999999994,0.006670000000000001,0.015338999999999998,-0.018005
463,-0.8493059999999999,-1.251881,-1.022252,-0.23538800000000001,0.949576,-0.207073,-0.003703,0.299175,0.057239,0.011633,0.01072,-0.010884
464,-0.8403360000000001,-1.252731,-1.019393,-0.23292,0.949842,-0.208637,0.013425,0.318265,0.06374400000000001,0.018641,0.018847,-0.012798
465,-0.8308709999999999,-1.253341,-1.015692,-0.230506,0.950033,-0.210441,0.03246,0.27773000000000003,0.060724,0.036627999999999994,0.026483999999999997,0.00035800000000000003
466,-0.8221450000000001,-1.2536120000000002,-1.0113459999999999,-0.22847199999999998,0.950118,-0.212269,0.0429,0.199783,0.054508,0.041415,0.024904,0.025761000000000003
467,-0.8141619999999999,-1.253755,-1.0065,-0.226671,0.9501620000000001,-0.213993,0.053342999999999995,0.15074,0.055713,0.043963,0.023669,0.030688999999999998
468,-0.806416,-1.253698,-1.000936,-0.225046,0.9501440000000001,-0.215779,0.072326,0.10591400000000001,0.060175,0.046182,0.022268,0.037999
469,-0.79774,-1.253577,-0.9935430000000001,-0.223248,0.9501059999999999,-0.217804,0.098753,0.06953,0.078566,0.036266,0.010526,0.052124000000000004
470,-0.787451,-1.253363,-0.983822,-0.22113899999999997,0.95004,-0.22023299999999998,0.1316,0.037384,0.096997,0.026482,-0.0034909999999999997,0.065966
471,-0.7774449999999999,-1.25271,-0.973082,-0.219358,0.949836,-0.22287600000000002,0.147292,-0.041463,0.08759299999999999,0.026976,-0.007682,0.07094400000000001
472,-0.7693840000000001,-1.251868,-0.962766,-0.21811,0.949572,-0.22521100000000002,0.152396,-0.112774,0.067424,0.0071730000000000006,0.028791000000000004,0.061957000000000005
473,-0.76366,-1.25055,-0.953677,-0.21768400000000002,0.949158,-0.227359,0.152281,-0.164865,0.040785,0.002718,0.015381,0.057468
474,-0.760343,-1.248852,-0.9460540000000001,-0.21803899999999998,0.948622,-0.229248,0.145765,-0.21375100000000002,0.017301,0.0051329999999999995,0.004824,0.063019
475,-0.7593810000000001,-1.2471290000000002,-0.9400440000000001,-0.218944,0.948075,-0.230643,0.13397699999999998,-0.24877,-0.0062369999999999995,0.002955,-0.016313,0.06561900000000001
476,-0.7608600000000001,-1.245179,-0.935838,-0.220559,0.9474530000000001,-0.231658,0.113653,-0.28694200000000003,-0.033036,-0.005958,-0.016881,0.070525
477,-0.76474,-1.243119,-0.9337209999999999,-0.222807,0.946792,-0.232208,0.090254,-0.29104,-0.053489999999999996,-0.006822,-0.0074459999999999995,0.06854299999999999
478,-0.769582,-1.241462,-0.9331860000000001,-0.225021,0.946258,-0.232254,0.06376,-0.25153200000000003,-0.053725999999999996,-0.020493,-0.001189,0.057555999999999996
479,-0.77451,-1.240108,-0.9333319999999999,-0.227059,0.9458190000000001,-0.232058,0.046758,-0.23231500000000002,-0.049597,-0.029289,-0.002078,0.055483000000000005
480,-0.779442,-1.238818,-0.93386,-0.22905799999999998,0.945399,-0.231803,0.042591000000000004,-0.21311300000000002,-0.05285499999999999,-0.034538,-0.0005139999999999999,0.06091900000000001
481,-0.783964,-1.2374479999999999,-0.934584,-0.23101799999999997,0.944952,-0.23168200000000003,0.055599,-0.171595,-0.057089999999999995,-0.053589,0.00857,0.051048
482,-0.786572,-1.235714,-0.9346030000000001,-0.232781,0.944383,-0.232235,0.071947,-0.099196,-0.061341999999999994,-0.050056,0.0030039999999999997,0.040844
483,-0.786896,-1.233882,-0.9340069999999999,-0.23408099999999998,0.943779,-0.233381,0.06803,-0.010806999999999999,-0.0508,-0.048756,0.0036079999999999997,0.04199
484,-0.7861859999999999,-1.232502,-0.9336139999999999,-0.23483800000000002,0.9433219999999999,-0.23446799999999998,0.054309,0.037119,-0.036002,-0.058191999999999994,0.012565,0.031327
485,-0.784734,-1.231179,-0.9335700000000001,-0.235379,0.942882,-0.23569099999999998,0.052467999999999994,0.092559,-0.0457,-0.049106,0.011753,0.018299
486,-0.782812,-1.229588,-0.934205,-0.23598200000000003,0.942351,-0.237206,0.054942,0.15651400000000001,-0.057515,-0.026728,0.013322,0.012872
487,-0.7808930000000001,-1.2277930000000001,-0.935218,-0.236717,0.941749,-0.23886,0.052875,0.153398,-0.075685,-0.024453,0.017327000000000002,-0.003435
488,-0.778844,-1.225957,-0.936448,-0.23744099999999999,0.9411299999999999,-0.24057399999999998,0.052913999999999996,0.167225,-0.070362,0.0021809999999999998,0.012545,0.003453
489,-0.776101,-1.2242629999999999,-0.9371459999999999,-0.23789699999999997,0.940556,-0.242362,0.055014,0.172493,-0.057535,0.015163999999999999,0.006984000000000001,0.013281999999999999
490,-0.7731140000000001,-1.222538,-0.9375870000000001,-0.23830500000000002,0.939969,-0.244232,0.057277,0.185332,-0.073559,0.016854,0.001438,0.022262999999999998
491,-0.770183,-1.22069,-0.937995,-0.23879699999999998,0.9393360000000001,-0.24617600000000003,0.0592,0.143758,-0.068151,-0.0037259999999999997,-0.003423,0.021933
492,-0.768519,-1.218901,-0.9388540000000001,-0.239554,0.9387209999999999,-0.247781,0.049497,0.11399400000000001,-0.075659,0.005194,-0.004288,0.019784
493,-0.768177,-1.217431,-0.940709,-0.24042800000000003,0.938213,-0.24885500000000002,0.020659,0.10345499999999999,-0.079051,0.019694,-0.006862999999999999,0.018340000000000002
494,-0.7688510000000001,-1.216446,-0.9434899999999999,-0.24123699999999998,0.9378719999999999,-0.249356,-0.0028989999999999997,0.092851,-0.070656,0.017544,0.0019010000000000001,0.014569
495,-0.770201,-1.215494,-0.947026,-0.242195,0.937541,-0.249671,-0.008142,0.105682,-0.078187,0.025261000000000002,-0.000987,0.015569999999999999
496,-0.7716109999999999,-1.214798,-0.9503389999999999,-0.24300100000000002,0.937299,-0.249796,-0.015811000000000002,0.07900399999999999,-0.060047,0.034475,0.004168,0.0056549999999999994
497,-0.772622,-1.214489,-0.9525520000000001,-0.243456,0.937191,-0.24975799999999998,-0.008684,0.029869,-0.033228,0.057222,0.018924,-0.016890000000000002
498,-0.773217,-1.21413,-0.9527469999999999,-0.24384,0.937066,-0.249854,0.028176999999999997,-0.052384,-0.008296,0.057836,0.024725999999999998,-0.02752
499,-0.7723140000000001,-1.2134459999999998,-0.94999,-0.244061,0.9368270000000001,-0.250533,0.0823,-0.100575,0.008167,0.023328,0.032838,-0.030473
500,-0.768921,-1.2121959999999998,-0.944406,-0.244024,0.9363889999999999,-0.252201,0.130275,-0.082736,0.034116,0.017461,0.02847,-0.026455000000000003
501,-0.761844,-1.2110020000000001,-0.9358790000000001,-0.243004,0.935969,-0.254731,0.154899,-0.023329,0.074805,0.00628,0.024144,-0.017181000000000002
502,-0.751576,-1.210227,-0.9252239999999999,-0.240871,0.9356959999999999,-0.257742,0.15495599999999998,0.034016000000000005,0.11959700000000001,0.002285,0.016452,-0.016276
503,-0.7394069999999999,-1.210138,-0.913416,-0.237773,0.935665,-0.26071500000000003,0.135686,0.06479299999999999,0.165356,-0.005071,0.013279,-0.010631999999999999
504,-0.725883,-1.21091,-0.9005780000000001,-0.233746,0.9359370000000001,-0.263367,0.11103299999999999,0.079631,0.205758,-0.019291,0.0008609999999999999,0.004776
505,-0.711672,-1.212513,-0.8871979999999999,-0.229,0.9365,-0.26552600000000004,0.08529400000000001,0.084906,0.24082199999999998,-0.027561000000000002,-0.006141,0.018715
506,-0.696959,-1.214628,-0.873283,-0.22379699999999997,0.93724,-0.267347,0.074529,0.083797,0.26104499999999997,-0.036655,-0.005767,0.03166
507,-0.6819350000000001,-1.216802,-0.858986,-0.218471,0.937995,-0.269097,0.073434,0.07953099999999999,0.263179,-0.047017,-0.002891,0.028268
508,-0.667154,-1.218741,-0.844784,-0.213344,0.938666,-0.270867,0.081988,0.072091,0.251498,-0.048938999999999996,0.003213,0.027322000000000003
509,-0.653151,-1.220116,-0.831305,-0.20874499999999999,0.939139,-0.272803,0.09278600000000001,0.065803,0.21633000000000002,-0.059886,3.9e-05,0.019171
510,-0.641403,-1.220646,-0.81985,-0.205229,0.939321,-0.274838,0.10361300000000001,0.041503,0.156616,-0.066927,-0.0044,0.02235
511,-0.632941,-1.220248,-0.8110850000000001,-0.20311700000000002,0.939184,-0.276866,0.10689000000000001,-0.001941,0.09580599999999999,-0.058540999999999996,-0.006171,0.030376
512,-0.627591,-1.219455,-0.8047850000000001,-0.20207,0.9389120000000001,-0.27855100000000005,0.087672,-0.039022,0.061537,-0.047167,-0.019936000000000002,0.038912
513,-0.624814,-1.218882,-0.800564,-0.20160999999999998,0.9387139999999999,-0.279547,0.05241799999999999,-0.065466,0.045301,-0.040547,-0.02543,0.041861
514,-0.6244930000000001,-1.2187940000000002,-0.798504,-0.201568,0.938684,-0.279679,0.010786,-0.085501,0.030081,-0.033737,-0.019144,0.039001999999999995
515,-0.626518,-1.219118,-0.7984180000000001,-0.201956,0.938796,-0.279023,-0.022334,-0.111954,0.013859999999999999,-0.02984,-0.001509,0.028474
516,-0.630312,-1.219592,-0.799739,-0.202751,0.938959,-0.277896,-0.034083999999999996,-0.131023,-0.002221,-0.025154,0.018286,0.021472
517,-0.635009,-1.219962,-0.8016800000000001,-0.203847,0.9390860000000001,-0.27666,-0.031902,-0.150325,-0.012844,-0.020518,0.015609999999999999,0.017672
518,-0.6405930000000001,-1.220137,-0.803812,-0.20529,0.9391459999999999,-0.275385,-0.024606,-0.19825,-0.022345,-0.005739,0.019273,0.019251
519,-0.6471979999999999,-1.220115,-0.80579,-0.207118,0.939139,-0.27404,-0.014182,-0.257921,-0.027537,0.002848,0.029183999999999998,0.016854
520,-0.654586,-1.219847,-0.807661,-0.20929,0.939047,-0.272702,-0.0015,-0.289902,-0.032749,0.0061649999999999995,0.033548,0.025738999999999998
521,-0.661778,-1.219372,-0.809215,-0.21151999999999999,0.938883,-0.271542,0.004959000000000001,-0.279263,-0.034852999999999995,0.010684,0.028798,0.026379000000000003
522,-0.668037,-1.219066,-0.810371,-0.213394,0.9387780000000001,-0.270439,-0.0034850000000000003,-0.240956,-0.016802,0.016326,0.026188,0.026497000000000003
523,-0.67199,-1.2194639999999999,-0.810425,-0.21422800000000003,0.9389149999999999,-0.2693,-0.018267,-0.166498,0.023592,0.002573,0.012379000000000001,0.038282
524,-0.673215,-1.220548,-0.809003,-0.213923,0.9392870000000001,-0.268242,-0.02563,-0.10483900000000002,0.061917999999999994,-0.033926,0.000562,0.052802999999999996
525,-0.671543,-1.2219799999999998,-0.806109,-0.21263600000000002,0.9397780000000001,-0.267545,-0.020041999999999997,-0.019752000000000002,0.09068999999999999,-0.048182,-0.008046,0.051877
526,-0.666806,-1.223451,-0.801642,-0.210511,0.9402799999999999,-0.267462,0.002617,0.05254400000000001,0.106778,-0.068649,-0.018542,0.061956
527,-0.6594800000000001,-1.224574,-0.795706,-0.20789899999999997,0.9406610000000001,-0.268162,0.02949,0.10992400000000001,0.11971099999999998,-0.067187,-0.020388999999999997,0.058583
528,-0.649996,-1.2255989999999999,-0.788881,-0.204762,0.941009,-0.269354,0.029787,0.181275,0.124963,-0.07041499999999999,-0.016265,0.052221000000000004
529,-0.640217,-1.226557,-0.783065,-0.20158,0.941332,-0.270621,0.020506,0.24101,0.113071,-0.069401,0.009458,0.043372
530,-0.63041,-1.227265,-0.778328,-0.198524,0.9415709999999999,-0.272047,0.024057,0.287994,0.082057,-0.065621,0.011523,0.052351
531,-0.6214609999999999,-1.227394,-0.775071,-0.196011,0.941615,-0.273713,0.030693,0.295608,0.037229000000000005,-0.066258,0.006887000000000001,0.056015999999999996
532,-0.61527,-1.227017,-0.774479,-0.194518,0.9414879999999999,-0.275212,0.019053,0.281941,0.0019140000000000001,-0.044908,-0.005132,0.06866900000000001
533,-0.610776,-1.2268860000000001,-0.7756350000000001,-0.19335,0.9414440000000001,-0.276185,-0.021401,0.285342,-0.014397,-0.019052,-0.013129,0.071763
534,-0.607734,-1.227537,-0.7787,-0.192159,0.9416629999999999,-0.27626799999999996,-0.077816,0.30157,-0.027630000000000002,-0.020243,-0.013349000000000001,0.07184600000000001
535,-0.607719,-1.228897,-0.7849079999999999,-0.191424,0.9421200000000001,-0.27521999999999996,-0.126887,0.293258,-0.037576,-0.009565,-0.003841,0.05149600000000001
536,-0.609888,-1.23065,-0.7928189999999999,-0.191074,0.9427059999999999,-0.27345,-0.146215,0.248652,-0.054746,0.008411,0.010662999999999999,0.024686000000000003
537,-0.613606,-1.232285,-0.8011659999999999,-0.191202,0.94325,-0.271477,-0.141096,0.18372,-0.07171799999999999,0.013359999999999999,0.012438,0.026177
538,-0.619093,-1.233571,-0.810135,-0.191984,0.9436760000000001,-0.269436,-0.128452,0.132607,-0.087588,0.020674,0.016742,0.029247000000000002
539,-0.625378,-1.234505,-0.819195,-0.193157,0.9439850000000001,-0.267509,-0.115721,0.10703399999999999,-0.09708,0.024227000000000002,0.015808000000000003,0.03411
540,-0.6318819999999999,-1.235221,-0.828198,-0.194494,0.9442209999999999,-0.265702,-0.11788399999999999,0.095345,-0.102421,0.025731999999999998,0.009423,0.03386
541,-0.6391560000000001,-1.2361010000000001,-0.8376610000000001,-0.195925,0.9445100000000001,-0.263612,-0.130801,0.07194500000000001,-0.100345,0.024584,0.0049369999999999995,0.024721
542,-0.647287,-1.237259,-0.847247,-0.197402,0.94489,-0.261137,-0.13848,0.029344,-0.096071,0.028166000000000004,-0.00057,0.018583000000000002
543,-0.656278,-1.238451,-0.856769,-0.199054,0.9452799999999999,-0.258459,-0.14191099999999998,-0.01329,-0.087495,0.028949000000000003,0.000262,0.010931
544,-0.665153,-1.240004,-0.86577,-0.200433,0.945785,-0.25552600000000003,-0.147336,-0.017596,-0.071504,-0.018545,0.02449,0.004183
545,-0.672766,-1.2415,-0.8738799999999999,-0.201491,0.9462700000000001,-0.25288499999999997,-0.131252,0.018494999999999998,-0.053278,-0.029497000000000002,0.026981,0.002412
546,-0.677563,-1.2428190000000001,-0.8802969999999999,-0.20191800000000001,0.9466959999999999,-0.25094299999999997,-0.10325899999999999,0.092894,-0.035018,-0.040666,0.02242,0.0036439999999999997
547,-0.678376,-1.244039,-0.8843979999999999,-0.201397,0.9470879999999999,-0.249879,-0.0784,0.189645,-0.009331,-0.085346,0.012812,0.014116
548,-0.675133,-1.245134,-0.886584,-0.19993699999999998,0.9474389999999999,-0.249721,-0.056616999999999994,0.31304299999999996,0.015231999999999999,-0.100173,0.0124,0.017833
549,-0.667977,-1.246185,-0.887383,-0.197528,0.947775,-0.250363,-0.045406999999999996,0.44505200000000006,0.026892000000000003,-0.11468199999999999,0.008921,0.030881
550,-0.65855,-1.247132,-0.8883459999999999,-0.19460999999999998,0.948076,-0.251504,-0.05129500000000001,0.559057,0.026704000000000002,-0.073166,-0.002535,0.062997
551,-0.647729,-1.248361,-0.889817,-0.191174,0.948466,-0.252666,-0.071177,0.6401100000000001,0.021121,-0.054523,-0.006206000000000001,0.064724
552,-0.637421,-1.249681,-0.892977,-0.187814,0.9488840000000001,-0.253616,-0.09118899999999999,0.680729,0.0038369999999999997,-0.021644,-0.001954,0.066437
553,-0.628704,-1.251056,-0.8982020000000001,-0.184829,0.949317,-0.254189,-0.112354,0.692628,-0.023031,0.014327000000000001,0.003259,0.061288
554,-0.622378,-1.2524899999999999,-0.9049379999999999,-0.182423,0.949767,-0.254247,-0.12229100000000001,0.597934,-0.043276,0.026997000000000004,0.003389,0.043844
555,-0.619991,-1.2537559999999999,-0.9134760000000001,-0.181117,0.9501620000000001,-0.253703,-0.126923,0.485158,-0.07521,0.049129,0.005129,0.037806
556,-0.621057,-1.254853,-0.9233049999999999,-0.180781,0.9505040000000001,-0.252661,-0.129435,0.37979,-0.096457,0.055688999999999995,0.008251999999999999,0.031760000000000004
557,-0.624362,-1.2558559999999999,-0.933782,-0.181058,0.950815,-0.25129,-0.130761,0.310598,-0.108128,0.052839,0.010443000000000001,0.025825999999999998
558,-0.62937,-1.256824,-0.9448489999999999,-0.181772,0.9511139999999999,-0.249635,-0.137373,0.255261,-0.116649,0.045404,0.008847,0.016008
559,-0.635851,-1.2577770000000001,-0.95616,-0.182848,0.951408,-0.247723,-0.13658900000000002,0.18498,-0.12403099999999999,0.046495,0.012688,0.002621
560,-0.643922,-1.258592,-0.9674809999999999,-0.184375,0.951659,-0.24561799999999998,-0.127352,0.103986,-0.12386300000000001,0.044239,0.019029,-0.007647
561,-0.6525489999999999,-1.259119,-0.977892,-0.186183,0.9518209999999999,-0.24361999999999998,-0.104197,0.039962,-0.11721,0.043970999999999996,0.021766,-0.010683
562,-0.660501,-1.259283,-0.986569,-0.18801800000000002,0.9518709999999999,-0.242008,-0.073502,0.001441,-0.100923,0.043318999999999996,0.027132999999999997,-0.009793000000000001
563,-0.666845,-1.259153,-0.9929180000000001,-0.189625,0.951831,-0.240907,-0.040641000000000004,-0.025387,-0.080363,0.04337,0.033658,-0.005263
564,-0.670942,-1.258783,-0.9966229999999999,-0.19083,0.951717,-0.240404,-0.0077209999999999996,-0.032005,-0.05235,0.032917,0.033176,-0.002425
565,-0.672516,-1.258216,-0.9976860000000001,-0.191544,0.951543,-0.24052600000000002,0.024189,-0.027957999999999997,-0.026494999999999998,0.02089,0.03216,-0.00183
566,-0.671391,-1.257535,-0.9961120000000001,-0.191677,0.951334,-0.241248,0.05186,-0.013261000000000002,0.003589,0.012798,0.027121,0.0022960000000000003
567,-0.667658,-1.2568469999999998,-0.992091,-0.19118,0.9511219999999999,-0.24247600000000002,0.073111,-0.002802,0.033634,0.006442,0.017659,0.010894
568,-0.661737,-1.256165,-0.9859180000000001,-0.19014,0.95091,-0.24411599999999997,0.095523,0.004321,0.058372,0.007751999999999999,0.014025,0.020926
569,-0.6541899999999999,-1.255378,-0.9781700000000001,-0.188747,0.950667,-0.246137,0.111497,0.011667,0.072361,0.007305,0.020403,0.029264
570,-0.645373,-1.254404,-0.9692219999999999,-0.187126,0.950364,-0.248531,0.129614,0.016891,0.082095,0.0017010000000000003,0.018828,0.035808
571,-0.635831,-1.2532159999999999,-0.959478,-0.185417,0.949994,-0.251214,0.145574,0.011492,0.08648600000000001,-0.00251,0.023013,0.042962
572,-0.625927,-1.251855,-0.9491639999999999,-0.183677,0.9495680000000001,-0.254085,0.160462,0.002909,0.088738,-0.003106,0.015703,0.051021
573,-0.615851,-1.250267,-0.938531,-0.181978,0.949069,-0.257153,0.163639,-0.003489,0.0877,-0.006606,0.011182,0.057507
574,-0.606542,-1.248721,-0.9284690000000001,-0.180412,0.9485809999999999,-0.26004,0.156142,-0.017282,0.080188,-0.0018239999999999999,0.0030800000000000003,0.059235
575,-0.5986819999999999,-1.2473100000000001,-0.919683,-0.179116,0.948133,-0.26255500000000004,0.13588599999999998,-0.026747000000000003,0.06724,0.003945000000000001,-0.005079,0.056179999999999994
576,-0.592374,-1.245897,-0.9123110000000001,-0.178204,0.9476829999999999,-0.264791,0.120974,-0.037284,0.051126,0.005475,-0.005025,0.054434
577,-0.587497,-1.244572,-0.906243,-0.17760599999999999,0.947259,-0.266702,0.112444,-0.048921,0.038262,0.0076230000000000004,0.001227,0.05111
578,-0.583495,-1.243213,-0.900804,-0.17724600000000001,0.946823,-0.268484,0.11348699999999999,-0.061678,0.030808,0.008881,0.007905,0.041922
579,-0.579784,-1.241632,-0.895388,-0.177068,0.946313,-0.270391,0.116639,-0.074464,0.028710000000000003,0.009237,0.011512,0.043524
580,-0.5764699999999999,-1.240135,-0.890084,-0.17694400000000002,0.9458280000000001,-0.27216399999999996,0.11229000000000001,-0.092558,0.028702999999999996,0.008517,0.019886,0.044854000000000005
581,-0.5737770000000001,-1.23882,-0.884984,-0.176885,0.9454,-0.27368400000000004,0.103655,-0.114899,0.028671,0.003102,0.014301,0.043292000000000004
582,-0.572188,-1.237533,-0.880489,-0.177108,0.9449799999999999,-0.274988,0.091823,-0.14359,0.021148,-0.001267,0.011243000000000001,0.044198
583,-0.5719770000000001,-1.236424,-0.876877,-0.177617,0.944617,-0.275905,0.07894,-0.168021,0.01468,-0.012691,0.002298,0.041942
584,-0.572835,-1.235442,-0.873967,-0.178356,0.9442940000000001,-0.276532,0.070347,-0.188201,0.007168000000000001,-0.019596000000000002,0.000393,0.036709
585,-0.574601,-1.234433,-0.8716860000000001,-0.179362,0.943961,-0.277016,0.061784000000000006,-0.200929,0.000715,-0.02239,0.003518,0.035897000000000005
586,-0.577138,-1.2334530000000001,-0.870075,-0.180569,0.9436370000000001,-0.277335,0.05755,-0.204067,-0.009992000000000001,-0.030155,0.008282,0.032661
587,-0.580757,-1.232474,-0.8695729999999999,-0.182079,0.943313,-0.277453,0.049087,-0.203974,-0.026075,-0.029102,0.007234,0.029529000000000003
588,-0.585137,-1.231473,-0.869949,-0.183814,0.9429799999999999,-0.27744,0.035289,-0.19855599999999998,-0.036860000000000004,-0.027733999999999998,0.007429000000000001,0.032079
589,-0.5902569999999999,-1.230583,-0.871223,-0.185699,0.9426829999999999,-0.27719299999999997,0.025726,-0.194245,-0.041206,-0.02298,0.0031780000000000003,0.037018999999999996
590,-0.5957359999999999,-1.229716,-0.872842,-0.187674,0.9423940000000001,-0.276848,0.021459,-0.199535,-0.04657,-0.019341999999999998,0.0029649999999999998,0.038979
591,-0.601544,-1.228842,-0.8745790000000001,-0.189745,0.9421010000000001,-0.276432,0.021411000000000003,-0.211248,-0.047623,-0.016691,5.3e-05,0.038441
592,-0.607792,-1.227983,-0.876642,-0.191931,0.9418129999999999,-0.275906,0.017153,-0.21334699999999998,-0.051923000000000004,-0.019846000000000003,-0.000254,0.033261
593,-0.614004,-1.22718,-0.87882,-0.194077,0.941542,-0.275327,0.012933000000000002,-0.20161800000000002,-0.0509,-0.022354,0.002794,0.023068
594,-0.619777,-1.2265030000000001,-0.880915,-0.19603299999999999,0.941314,-0.27471999999999996,0.006594,-0.183504,-0.046694,-0.021313,0.005189,0.021043
595,-0.625402,-1.225907,-0.8831120000000001,-0.197903,0.9411129999999999,-0.274068,0.006642,-0.17391199999999998,-0.047774000000000004,-0.022403,0.014102000000000002,0.016926
596,-0.63063,-1.22517,-0.8851530000000001,-0.199742,0.9408629999999999,-0.27358899999999997,0.013115,-0.160077,-0.049883,-0.020687,0.013253000000000001,0.020186000000000003
597,-0.635613,-1.2242899999999999,-0.887165,-0.201594,0.940565,-0.273256,0.020641,-0.150503,-0.053048000000000005,-0.018667,0.010989,0.020449000000000002
598,-0.640471,-1.2233,-0.889034,-0.203475,0.9402280000000001,-0.273019,0.023808000000000003,-0.155849,-0.050882,-0.004014,0.005054,0.022424
599,-0.644999,-1.2222709999999999,-0.890452,-0.20529,0.9398780000000001,-0.272868,0.028042,-0.161199,-0.048708999999999995,-0.002702,0.0060149999999999995,0.022044
600,-0.6493680000000001,-1.221203,-0.891602,-0.207087,0.9395120000000001,-0.272768,0.033343,-0.165492,-0.045462,-0.00020299999999999997,0.0064719999999999995,0.020525
601,-0.653425,-1.220212,-0.8924040000000001,-0.208758,0.9391719999999999,-0.27266399999999996,0.033319,-0.16233,-0.036920999999999995,-0.002942,0.00936,0.019841
602,-0.656758,-1.219296,-0.892596,-0.210191,0.9388569999999999,-0.272648,0.035448,-0.152793,-0.026236000000000002,-0.005462,0.009385,0.023288999999999997
603,-0.659249,-1.218502,-0.892179,-0.211325,0.938584,-0.272712,0.037591,-0.140059,-0.015555000000000001,-0.009103,0.012695,0.025077000000000002
604,-0.660982,-1.217841,-0.8912459999999999,-0.212179,0.9383549999999999,-0.272836,0.039753,-0.124126,-0.005946,-0.013009999999999999,0.012985,0.025292
605,-0.662004,-1.2172209999999999,-0.8898790000000001,-0.212815,0.938141,-0.273077,0.03872,-0.108178,0.002572,-0.012375,0.013199,0.025533
606,-0.662458,-1.2167379999999999,-0.888289,-0.21321700000000002,0.937973,-0.273337,0.040926,-0.089023,0.005767,-0.017176,0.008423,0.0306
607,-0.662354,-1.216202,-0.8864719999999999,-0.213498,0.937787,-0.273756,0.044174,-0.075199,0.008976999999999999,-0.018482,0.008074,0.032423
608,-0.66187,-1.21554,-0.884498,-0.213747,0.937557,-0.27434899999999995,0.051709000000000005,-0.06349400000000001,0.00581,-0.021071,0.007252,0.035747
609,-0.66122,-1.2147270000000001,-0.8825790000000001,-0.21403699999999998,0.9372739999999999,-0.27509,0.054982,-0.053891999999999995,-0.000589,-0.021757,0.005612,0.040913
610,-0.660698,-1.213886,-0.8809889999999999,-0.214377,0.936981,-0.275823,0.05184400000000001,-0.043216000000000004,-0.003829,-0.022713999999999998,0.008927,0.041707999999999995
611,-0.660367,-1.213083,-0.879876,-0.214747,0.9367,-0.276489,0.041266000000000004,-0.029304000000000004,-0.010329999999999999,-0.018728,0.008384,0.04335
612,-0.660121,-1.212423,-0.879164,-0.21505900000000003,0.936469,-0.27703099999999997,0.033851,-0.015438,-0.008263,-0.013762,0.008798,0.043845999999999996
613,-0.659812,-1.211897,-0.878599,-0.21527399999999997,0.936284,-0.277485,0.027478,-0.005841,-0.005115,-0.013866999999999999,0.005549,0.045247
614,-0.659307,-1.211508,-0.8780120000000001,-0.21535700000000002,0.936147,-0.277882,0.024291999999999998,0.002671,0.000193,-0.018453,0.005854,0.039051999999999996
615,-0.658296,-1.211117,-0.8770100000000001,-0.2153,0.93601,-0.27839,0.027493,0.0047810000000000005,0.002349,-0.016587,0.005717,0.03753
616,-0.657349,-1.210656,-0.8760129999999999,-0.21530100000000002,0.935847,-0.278936,0.036018,0.000499,0.000277,-0.020096,0.004857,0.029363
617,-0.656438,-1.2100799999999998,-0.874972,-0.215375,0.935644,-0.279558,0.038152,-0.0048130000000000004,-0.0050420000000000005,-0.020297,0.011148,0.028948
618,-0.655776,-1.209431,-0.874122,-0.215561,0.935415,-0.28018200000000004,0.036032,-0.005854,-0.009328,-0.02118,0.014138999999999999,0.023681999999999998
619,-0.655459,-1.208793,-0.8737719999999999,-0.215835,0.9351889999999999,-0.280723,0.029791,0.006828,-0.014713,-0.025726,0.009818,0.020454
620,-0.655159,-1.2082700000000002,-0.873843,-0.216049,0.9350040000000001,-0.28117600000000004,0.018151,0.027112999999999998,-0.015888,-0.022675,0.004602,0.022128000000000002
621,-0.654763,-1.207963,-0.874194,-0.216113,0.934895,-0.28149,0.00433,0.042058,-0.011731,-0.021603999999999998,0.003399,0.021816
622,-0.6543770000000001,-1.207808,-0.874873,-0.21609299999999998,0.93484,-0.281688,-0.0009279999999999999,0.05806,-0.012856999999999999,-0.022479,0.002187,0.021587000000000002
623,-0.653977,-1.207683,-0.8758879999999999,-0.21605100000000002,0.934796,-0.28186700000000003,-0.0051140000000000005,0.075124,-0.013975999999999999,-0.024641,0.007723999999999999,0.023948
624,-0.6532220000000001,-1.207552,-0.8768940000000001,-0.21591300000000002,0.9347489999999999,-0.28212800000000005,-0.005018,0.091124,-0.019337,-0.022308,0.007298000000000001,0.025185
625,-0.652375,-1.207417,-0.878102,-0.21575,0.934701,-0.282411,-0.007233,0.104101,-0.019323,-0.021112,0.00344,0.023712999999999998
626,-0.6514479999999999,-1.2073610000000001,-0.8794860000000001,-0.21551900000000002,0.934681,-0.28265100000000004,-0.013590999999999999,0.11689300000000001,-0.016179,-0.020595,0.0017809999999999998,0.026243
627,-0.650207,-1.207423,-0.8808010000000001,-0.215133,0.9347030000000001,-0.28287199999999996,-0.016748,0.127553,-0.015146000000000001,-0.01619,0.006749,0.026219
628,-0.6489590000000001,-1.207575,-0.8822959999999999,-0.214694,0.934757,-0.283027,-0.022049000000000003,0.13715,-0.013059000000000001,-0.017484,0.008694,0.025474
629,-0.647692,-1.2077360000000001,-0.883922,-0.21424400000000002,0.9348139999999999,-0.283179,-0.020949000000000002,0.143543,-0.014128,-0.016666999999999998,0.007798,0.02735
630,-0.646111,-1.207897,-0.885317,-0.213705,0.9348719999999999,-0.283396,-0.019882,0.1446,-0.013054,-0.017755,0.010227,0.027613
631,-0.644595,-1.208037,-0.8866719999999999,-0.213196,0.9349209999999999,-0.283615,-0.017782,0.136075,-0.014096000000000001,-0.013687000000000001,0.00911,0.027632999999999998
632,-0.643338,-1.208145,-0.888023,-0.212779,0.934959,-0.283802,-0.015715,0.121153,-0.014062999999999999,-0.007741,0.009422,0.026538
633,-0.642034,-1.208204,-0.889076,-0.212375,0.9349799999999999,-0.284034,-0.010434,0.11153900000000001,-0.011877,-0.008618,0.010042,0.027808
634,-0.640692,-1.208277,-0.889992,-0.211952,0.935006,-0.284263,-0.009381,0.11258299999999999,-0.007598000000000001,-0.011085,0.006613,0.027412
635,-0.638931,-1.2084110000000001,-0.890583,-0.211376,0.935054,-0.284535,-0.011515000000000001,0.118957,-0.001212,-0.013156999999999999,0.007298000000000001,0.027531
636,-0.6370640000000001,-1.208689,-0.891281,-0.21069000000000002,0.9351520000000001,-0.28472,-0.018930000000000002,0.130701,-0.001279,-0.018862999999999998,0.012998,0.023261
637,-0.6350859999999999,-1.209142,-0.892159,-0.209875,0.935313,-0.28479499999999996,-0.027412,0.14669300000000002,0.002914,-0.020594,0.008001000000000001,0.024617
638,-0.632868,-1.209675,-0.892971,-0.208948,0.935501,-0.284857,-0.029550999999999997,0.147757,0.005035,-0.018759,0.005493,0.024419999999999997
639,-0.631075,-1.21023,-0.893904,-0.20813,0.9356969999999999,-0.284812,-0.029656000000000002,0.12326,0.003997,-0.015793,-0.000562,0.031577
640,-0.629979,-1.210697,-0.8949590000000001,-0.20756,0.9358620000000001,-0.284686,-0.024442,0.094488,0.001934,-0.013708000000000001,0.001989,0.037997
641,-0.629252,-1.211001,-0.895747,-0.207186,0.935969,-0.28460799999999997,-0.018165,0.061463,-0.003321,-0.015882,0.010793,0.036545999999999995
642,-0.6292409999999999,-1.211163,-0.896681,-0.207094,0.936026,-0.284488,-0.015050999999999998,0.035911,-0.009676,-0.015517,0.014704,0.036212
643,-0.629991,-1.211255,-0.897932,-0.207256,0.936058,-0.284263,-0.014056,0.015685,-0.013916,-0.01598,0.013388999999999998,0.037238
644,-0.631238,-1.211423,-0.899418,-0.20751799999999998,0.936117,-0.283877,-0.023706,0.004005,-0.015037,-0.015000999999999999,0.009394,0.037325
645,-0.632989,-1.21174,-0.901165,-0.207839,0.9362290000000001,-0.28327399999999997,-0.030169,-0.009821,-0.015064,-0.015137999999999999,0.008931,0.041346
646,-0.635282,-1.212099,-0.903208,-0.208288,0.9363549999999999,-0.282526,-0.034145999999999996,-0.02447,-0.020109000000000002,-0.011956999999999999,0.011369,0.042597
647,-0.638019,-1.212366,-0.9053629999999999,-0.208912,0.936449,-0.281754,-0.028883999999999996,-0.042589,-0.022186,-0.010388,0.013594,0.042817
648,-0.641155,-1.2124840000000001,-0.9074969999999999,-0.20972800000000003,0.9364899999999999,-0.281009,-0.021497,-0.064969,-0.026378,-0.004627,0.012119,0.044574
649,-0.644524,-1.212474,-0.909381,-0.21068,0.936486,-0.28030900000000003,-0.012010999999999999,-0.088447,-0.024146,0.000261,0.010459,0.045247
650,-0.647714,-1.212386,-0.910711,-0.21162199999999998,0.936456,-0.2797,-0.005686,-0.099147,-0.017678,0.001173,0.010993000000000001,0.045554000000000004
651,-0.6503720000000001,-1.212322,-0.911415,-0.21240100000000003,0.936433,-0.279184,0.000682,-0.097078,-0.008023,-0.000826,0.014906,0.042856
652,-0.652123,-1.2122870000000001,-0.9113479999999999,-0.21290900000000001,0.936421,-0.27883800000000003,0.010293,-0.084371,0.00271,-0.004497999999999999,0.01794,0.039733
653,-0.652642,-1.2121540000000002,-0.910364,-0.21313000000000001,0.9363739999999999,-0.278827,0.022076,-0.063149,0.013447999999999998,-0.006658,0.016064,0.040835
654,-0.6518470000000001,-1.2119790000000001,-0.908481,-0.213008,0.936313,-0.279127,0.031744999999999995,-0.037659,0.024165,-0.009572,0.016278,0.038191
655,-0.6499560000000001,-1.211847,-0.9060530000000001,-0.21255500000000002,0.9362659999999999,-0.27962800000000004,0.038159,-0.007326999999999999,0.028863999999999997,-0.014511000000000001,0.010236,0.037913999999999996
656,-0.647196,-1.211645,-0.903171,-0.21189699999999997,0.9361950000000001,-0.28036500000000003,0.046737,0.008597,0.035313,-0.008715,0.006111,0.03772
657,-0.6441439999999999,-1.211309,-0.8999969999999999,-0.211229,0.936077,-0.281262,0.049908999999999995,0.0011330000000000001,0.034276999999999995,-0.005369,0.007037999999999999,0.034497
658,-0.641556,-1.210978,-0.896982,-0.210686,0.935961,-0.282056,0.04877,-0.018025,0.031088,-0.000602,0.008893999999999999,0.028867
659,-0.639875,-1.210603,-0.894487,-0.210421,0.9358290000000001,-0.28269099999999997,0.04125,-0.040326999999999995,0.020382,0.008440000000000001,0.011528,0.028281
660,-0.639209,-1.21022,-0.892596,-0.21044699999999997,0.935694,-0.28312,0.032638,-0.06583,0.011809,0.008467,0.011664,0.028710000000000003
661,-0.6400640000000001,-1.209943,-0.8917069999999999,-0.210844,0.9355959999999999,-0.283148,0.022945,-0.09664600000000001,0.001099,0.012570999999999999,0.010129,0.022284
662,-0.641984,-1.209586,-0.891164,-0.211587,0.93547,-0.28301,0.022115,-0.138234,-0.004817,0.010705,0.01201,0.024373
663,-0.644949,-1.209071,-0.890826,-0.212714,0.9352879999999999,-0.28276599999999996,0.026233,-0.178699,-0.012214000000000001,0.011833,0.012192,0.024128999999999998
664,-0.648501,-1.208515,-0.890365,-0.21403200000000003,0.935091,-0.282423,0.034644,-0.21066999999999997,-0.016387,0.001248,0.011092,0.026227999999999998
665,-0.6523479999999999,-1.207798,-0.8895569999999999,-0.21552399999999997,0.9348360000000001,-0.28213,0.040887,-0.24266300000000002,-0.013097999999999999,0.001275,0.018563,0.020869
666,-0.6565810000000001,-1.2069020000000001,-0.888549,-0.217227,0.9345180000000001,-0.281878,0.050378,-0.268258,-0.014066999999999998,0.002978,0.018882,0.020617
667,-0.660975,-1.206013,-0.887279,-0.21897399999999997,0.9342010000000001,-0.281578,0.055636,-0.286382,-0.015075999999999999,0.011195,0.01665,0.018775
668,-0.665551,-1.204968,-0.885703,-0.220863,0.9338280000000001,-0.28134000000000003,0.061884,-0.313066,-0.007520000000000001,0.01522,0.015452,0.020171
669,-0.669906,-1.203962,-0.8833989999999999,-0.222669,0.933467,-0.281112,0.069222,-0.330183,0.004303,0.015638,0.017048,0.025481
670,-0.67356,-1.2029610000000002,-0.8803350000000001,-0.224277,0.9331079999999999,-0.281026,0.078824,-0.321729,0.012905000000000002,0.0066560000000000005,0.012494,0.033193
671,-0.6763600000000001,-1.202016,-0.876602,-0.225615,0.932768,-0.281085,0.080715,-0.31149099999999996,0.023948,0.0009140000000000001,0.011781999999999999,0.037326
672,-0.67869,-1.201152,-0.8725639999999999,-0.226775,0.932456,-0.281185,0.080749,-0.30085100000000004,0.027139999999999997,-0.005677000000000001,0.007638,0.036099
673,-0.680733,-1.2004110000000001,-0.8685709999999999,-0.22778400000000001,0.9321879999999999,-0.28125900000000004,0.074429,-0.279536,0.030273,-0.013975999999999999,0.007479,0.033792
674,-0.682244,-1.1998229999999999,-0.864741,-0.228555,0.931975,-0.28134000000000003,0.067139,-0.237973,0.032305,-0.028295999999999998,0.000154,0.035628
675,-0.683049,-1.199363,-0.861239,-0.229052,0.931808,-0.281489,0.055643,-0.18148599999999998,0.035357,-0.038084,0.001328,0.035883
676,-0.682996,-1.199076,-0.8580690000000001,-0.229206,0.9317040000000001,-0.281708,0.046314,-0.121794,0.034147000000000004,-0.044857,0.0025,0.033188
677,-0.682268,-1.198799,-0.85539,-0.229163,0.9316030000000001,-0.282075,0.043387,-0.066367,0.028714999999999997,-0.050317,0.004737,0.038331
678,-0.6808930000000001,-1.198441,-0.8530270000000001,-0.228985,0.931473,-0.282649,0.040392000000000004,-0.027977,0.021167,-0.049793000000000004,0.005493,0.040614
679,-0.679396,-1.198058,-0.851109,-0.22878600000000002,0.931333,-0.283269,0.037418,-0.003846,0.019306,-0.04514,0.004396,0.042104
680,-0.677924,-1.197704,-0.849708,-0.228575,0.931205,-0.28386300000000003,0.029012,0.021763,0.01601,-0.039476,0.006111999999999999,0.040851
681,-0.67595,-1.197558,-0.848433,-0.2281,0.9311510000000001,-0.28442,0.017411000000000003,0.051630999999999996,0.015891,-0.035297,0.005342,0.041454000000000005
682,-0.674239,-1.197547,-0.847944,-0.22762,0.931148,-0.28481799999999996,0.002585,0.07194099999999999,0.011488,-0.029811,0.005239,0.036862
683,-0.6730689999999999,-1.197673,-0.848316,-0.227213,0.9311940000000001,-0.284992,-0.011212,0.080541,0.0039030000000000002,-0.022328999999999998,0.008916,0.030307999999999998
684,-0.672086,-1.197901,-0.849032,-0.22680100000000003,0.931276,-0.28505,-0.019694,0.084862,-0.003639,-0.021612,0.008787,0.030777
685,-0.671981,-1.1980790000000001,-0.8505860000000001,-0.22666799999999998,0.931341,-0.28494400000000003,-0.02289,0.076389,-0.013263999999999998,-0.014268000000000001,0.004999,0.030701999999999997
686,-0.672121,-1.198274,-0.852299,-0.226595,0.9314120000000001,-0.28476999999999997,-0.02822,0.072168,-0.018637,-0.011976,0.004516,0.030681
687,-0.6727810000000001,-1.198477,-0.854456,-0.22666599999999998,0.931486,-0.284473,-0.03132,0.06969700000000001,-0.021587000000000002,-0.009493999999999999,0.0036340000000000005,0.033802
688,-0.673423,-1.198734,-0.85667,-0.22669899999999998,0.93158,-0.284141,-0.035568,0.073973,-0.021623,-0.010957,0.007324,0.032798
689,-0.674093,-1.199078,-0.8590040000000001,-0.22668899999999997,0.9317049999999999,-0.283738,-0.04195,0.07825599999999999,-0.021672999999999998,-0.009578,0.009229000000000001,0.031816000000000004
690,-0.674945,-1.199525,-0.8616540000000001,-0.226671,0.931867,-0.28321999999999997,-0.046183999999999996,0.08466699999999999,-0.022779,-0.013624,0.011508,0.03174
691,-0.6759029999999999,-1.200007,-0.864468,-0.226661,0.932041,-0.282652,-0.050456,0.08255599999999999,-0.023874,-0.006005,0.007717,0.028027999999999997
692,-0.677096,-1.2005350000000001,-0.8673270000000001,-0.22668899999999997,0.932233,-0.281998,-0.049451999999999996,0.06976399999999999,-0.022782,-0.0014449999999999999,0.004686999999999999,0.027786
693,-0.678339,-1.200991,-0.8699889999999999,-0.226773,0.932398,-0.281385,-0.043099,0.059088999999999996,-0.022724,-0.00046100000000000004,0.004599,0.028104
694,-0.679238,-1.201296,-0.8722139999999999,-0.226848,0.932508,-0.28096,-0.029560000000000003,0.058385,-0.019422,0.000987,0.009722,0.026016
695,-0.679297,-1.201429,-0.8735290000000001,-0.22678600000000002,0.9325559999999999,-0.28085,-0.011457,0.059352999999999996,-0.010751,-0.000433,0.016541,0.021939
696,-0.6783359999999999,-1.201411,-0.873727,-0.226527,0.93255,-0.28108099999999997,0.006613,0.054986,6.3e-05,0.004588,0.020835,0.021818999999999998
697,-0.676399,-1.2013,-0.872793,-0.22604699999999997,0.932509,-0.2816,0.022534000000000002,0.051674,0.015134,0.01073,0.020005000000000002,0.024184
698,-0.673713,-1.2011290000000001,-0.870876,-0.22538899999999998,0.9324469999999999,-0.282331,0.035241,0.040934,0.025919,0.011186,0.021135,0.025343
699,-0.6704760000000001,-1.200895,-0.8680469999999999,-0.22461,0.9323629999999999,-0.28323000000000004,0.046856,0.023811000000000002,0.035636,0.010620000000000001,0.018931,0.031764999999999995
700,-0.667011,-1.200651,-0.8645799999999999,-0.223768,0.932275,-0.284186,0.053127999999999995,0.0024530000000000003,0.043184,0.011259,0.014625,0.032049
701,-0.663615,-1.200409,-0.8607049999999999,-0.22294099999999997,0.9321870000000001,-0.285122,0.056219000000000005,-0.018876,0.046438,0.0039310000000000005,0.008914,0.038387
702,-0.660489,-1.200184,-0.856701,-0.22217699999999999,0.932106,-0.285984,0.055064999999999996,-0.035925,0.048588,-0.00495,0.010018,0.043628
703,-0.6576890000000001,-1.2000030000000002,-0.8527790000000001,-0.221479,0.93204,-0.28673899999999997,0.05396,-0.046564999999999995,0.046458,-0.01404,0.008206,0.050121
704,-0.655455,-1.199758,-0.8492870000000001,-0.220978,0.931951,-0.287414,0.047563999999999995,-0.052904999999999994,0.038944,-0.017258000000000003,0.006159,0.050155
705,-0.653899,-1.199533,-0.8464299999999999,-0.220658,0.9318700000000001,-0.287925,0.040119999999999996,-0.05604,0.03035,-0.017638,0.008041,0.052375
706,-0.653224,-1.199366,-0.844461,-0.220558,0.931809,-0.288197,0.029499,-0.057021,0.018527000000000002,-0.0261,0.006942,0.052677
707,-0.653386,-1.199234,-0.8434459999999999,-0.22068000000000002,0.9317610000000001,-0.288259,0.016773,-0.050542000000000004,0.0077469999999999995,-0.029396,0.0067150000000000005,0.053121
708,-0.654035,-1.199152,-0.843173,-0.220913,0.931731,-0.28817600000000004,0.004062,-0.038745999999999996,-0.0009029999999999999,-0.030811,0.004838,0.05255
709,-0.655234,-1.199155,-0.843706,-0.221257,0.931733,-0.287909,-0.003334,-0.031229000000000003,-0.00951,-0.030483,0.006362,0.046454
710,-0.656832,-1.199135,-0.8447450000000001,-0.221728,0.931725,-0.287569,-0.00864,-0.030123,-0.014889,-0.030897000000000004,0.008842000000000001,0.038377999999999995
711,-0.658464,-1.199127,-0.845899,-0.222202,0.931723,-0.287213,-0.012883000000000002,-0.024782,-0.014925999999999998,-0.028988999999999997,0.005137,0.038754000000000004
712,-0.6600020000000001,-1.199174,-0.8472049999999999,-0.22261599999999998,0.931739,-0.286837,-0.011754,-0.007755,-0.011734999999999999,-0.030206,0.015007,0.030504000000000003
713,-0.660878,-1.199238,-0.848245,-0.222831,0.9317629999999999,-0.286594,-0.012739,0.013541999999999998,-0.008565000000000001,-0.029427,0.016495,0.028582999999999997
714,-0.661194,-1.19933,-0.849083,-0.222869,0.931796,-0.286456,-0.012681999999999999,0.027386,-0.007514,-0.029419999999999998,0.013013,0.026294
715,-0.661655,-1.199501,-0.8500969999999999,-0.22290300000000002,0.931858,-0.286227,-0.016968,0.02314,-0.0075379999999999996,-0.022794,0.0062369999999999995,0.02251
716,-0.662567,-1.199694,-0.8514280000000001,-0.22305300000000003,0.9319280000000001,-0.285882,-0.02125,0.017837000000000002,-0.009698,-0.024322999999999997,0.011645,0.032113
717,-0.663218,-1.199897,-0.852733,-0.223122,0.932002,-0.285588,-0.023274,0.038100999999999996,-0.014011000000000001,-0.024253,0.011571,0.031819
718,-0.663618,-1.200091,-0.854441,-0.22312600000000002,0.9320719999999999,-0.285357,-0.025230000000000002,0.076463,-0.015142,-0.037723,0.007,0.04587
719,-0.663295,-1.20036,-0.8563430000000001,-0.22287800000000002,0.93217,-0.28523000000000004,-0.032482,0.122304,-0.017388,-0.037604000000000005,0.0022789999999999998,0.050367
720,-0.662293,-1.200716,-0.8583719999999999,-0.222388,0.932298,-0.285192,-0.038711,0.158554,-0.019614,-0.038094,0.00215,0.050329
721,-0.661296,-1.2011290000000001,-0.860985,-0.221867,0.9324479999999999,-0.285109,-0.047023,0.18088900000000002,-0.021883,-0.024913,-0.003599,0.050337
722,-0.6603720000000001,-1.201654,-0.864031,-0.22130300000000003,0.932637,-0.284927,-0.054414,0.197959,-0.021956,-0.01475,0.0050609999999999995,0.049622
723,-0.659076,-1.2022700000000002,-0.867124,-0.22058200000000003,0.932859,-0.28475900000000004,-0.058596,0.215027,-0.024144,-0.014525999999999999,0.006562999999999999,0.048752
724,-0.6577390000000001,-1.202835,-0.87045,-0.219879,0.9330629999999999,-0.284637,-0.05531799999999999,0.228877,-0.027344,-0.008561,0.007642,0.045273
725,-0.656083,-1.203324,-0.873602,-0.219129,0.9332379999999999,-0.284639,-0.048902999999999995,0.23311199999999999,-0.026236000000000002,-0.007266,0.010594,0.041306999999999996
726,-0.6537729999999999,-1.203747,-0.8763860000000001,-0.218231,0.9333899999999999,-0.284831,-0.041348,0.254382,-0.024074,-0.011704,0.014531,0.042919
727,-0.650506,-1.204133,-0.8786889999999999,-0.217081,0.933529,-0.285256,-0.035913,0.2831,-0.017662999999999998,-0.015280000000000002,0.012654,0.04197
728,-0.6464479999999999,-1.2045709999999998,-0.8805879999999999,-0.215675,0.933686,-0.285808,-0.033746,0.296971,-0.011268,-0.015603,0.007125,0.040859
729,-0.6419159999999999,-1.2050319999999999,-0.882186,-0.214119,0.933851,-0.286437,-0.034808,0.302284,-0.0070090000000000005,-0.015174000000000002,0.0058920000000000005,0.037399
730,-0.6372909999999999,-1.205534,-0.883691,-0.212513,0.9340299999999999,-0.287048,-0.032694,0.300137,-0.004855,-0.011211,0.007895000000000001,0.035262
731,-0.632745,-1.206041,-0.8850969999999999,-0.21092600000000003,0.934211,-0.287629,-0.033809,0.290549,-0.003782,-0.0069689999999999995,0.017785,0.03238
732,-0.62858,-1.206564,-0.886632,-0.209439,0.934398,-0.28811,-0.036,0.275652,-0.005915,-0.006793,0.019048,0.031564
733,-0.624799,-1.207068,-0.888301,-0.208073,0.934577,-0.288518,-0.033904000000000004,0.263939,-0.00909,-0.009929,0.011636,0.033483
734,-0.621336,-1.207532,-0.890026,-0.20681999999999998,0.934742,-0.28888400000000003,-0.035019,0.251168,-0.011218,-0.012754000000000001,0.008541,0.030522000000000004
735,-0.617851,-1.207991,-0.891704,-0.205564,0.9349049999999999,-0.289254,-0.033938,0.255421,-0.010148,-0.021609,0.009781999999999999,0.026482
736,-0.61398,-1.208487,-0.893223,-0.204176,0.9350809999999999,-0.289669,-0.033345,0.271989,-0.006143,-0.027025999999999998,0.010247,0.02885
737,-0.609779,-1.209033,-0.8947790000000001,-0.202665,0.9352739999999999,-0.290106,-0.035397000000000005,0.290106,-0.00618,-0.0311,0.006940999999999999,0.028783999999999997
738,-0.605377,-1.209652,-0.8962979999999999,-0.20105599999999998,0.935493,-0.290518,-0.043942,0.291189,-0.003036,-0.032525,0.00663,0.026952999999999998
739,-0.601696,-1.210448,-0.8983459999999999,-0.19956400000000002,0.935774,-0.290643,-0.053625,0.273113,-0.003081,-0.014166,0.002519,0.010064
740,-0.598775,-1.2114,-0.9006719999999999,-0.198212,0.936109,-0.290488,-0.06653300000000001,0.24547800000000003,-0.007409000000000001,-0.016953,0.003069,0.008841
741,-0.597292,-1.212382,-0.9038459999999999,-0.19726400000000002,0.9364540000000001,-0.290022,-0.07410599999999999,0.20933600000000002,-0.020234000000000002,-0.0069900000000000006,0.010583,0.004454
742,-0.5976,-1.2132370000000001,-0.9079149999999999,-0.196903,0.9367540000000001,-0.289299,-0.074269,0.15401900000000002,-0.039392,0.00542,0.013625,-0.000343
743,-0.599931,-1.213866,-0.912718,-0.197243,0.936974,-0.288352,-0.07131799999999999,0.080577,-0.057437,0.011574,0.015678,-0.001657
744,-0.6044510000000001,-1.214252,-0.91817,-0.19833900000000002,0.937109,-0.28715999999999997,-0.066857,-0.0006129999999999999,-0.0672,0.02889,0.011225,0.001134
745,-0.610502,-1.2144840000000001,-0.923417,-0.19994800000000001,0.93719,-0.28577600000000003,-0.058725,-0.090125,-0.06702899999999999,0.037701,0.006993999999999999,0.0021609999999999997
746,-0.617699,-1.214652,-0.928083,-0.201908,0.937248,-0.28420100000000004,-0.049520999999999996,-0.17008800000000002,-0.058316,0.040882,0.010475,0.008764
747,-0.624996,-1.214817,-0.931529,-0.20388599999999998,0.937306,-0.282595,-0.035973000000000005,-0.22135,-0.037860000000000005,0.035841000000000005,0.010662,0.013353
748,-0.631059,-1.215013,-0.9331389999999999,-0.20548699999999998,0.9373739999999999,-0.28120500000000004,-0.014797999999999999,-0.230057,-0.009927,0.013974,0.010502,0.022736000000000003
749,-0.63498,-1.2152049999999999,-0.93261,-0.206481,0.937441,-0.28025100000000003,0.007553,-0.214268,0.017983000000000002,-0.008104,0.013928999999999999,0.026619999999999998
750,-0.6366430000000001,-1.215349,-0.9302870000000001,-0.206867,0.937491,-0.2798,0.025757,-0.178197,0.039428,-0.019237999999999998,0.007868,0.026687
751,-0.63637,-1.2154559999999999,-0.926651,-0.20673000000000002,0.937528,-0.27977399999999997,0.038641,-0.146339,0.053364,-0.021511000000000002,0.007693000000000001,0.028935000000000002
752,-0.6347079999999999,-1.215536,-0.9222090000000001,-0.20622,0.937556,-0.280057,0.047276,-0.112328,0.065131,-0.026476999999999997,0.007131,0.032849
753,-0.6320439999999999,-1.215586,-0.917393,-0.20544600000000002,0.937573,-0.280568,0.050592000000000005,-0.081467,0.07045599999999999,-0.03047,0.009401999999999999,0.037205
754,-0.628789,-1.215626,-0.912438,-0.204509,0.9375870000000001,-0.281204,0.051735,-0.06124400000000001,0.073643,-0.031224000000000002,0.009022,0.04338
755,-0.625109,-1.215631,-0.9074409999999999,-0.20347,0.9375889999999999,-0.281951,0.051836,-0.042056,0.070414,-0.032858,0.007326999999999999,0.045638
756,-0.621305,-1.215619,-0.9026190000000001,-0.202403,0.937585,-0.28273200000000004,0.049760000000000006,-0.032449,0.067183,-0.031042,0.004874,0.044558
757,-0.617835,-1.215649,-0.898183,-0.201404,0.9375950000000001,-0.28341,0.045482999999999996,-0.033503,0.068223,-0.032666,0.00494,0.041726
758,-0.614433,-1.215714,-0.893703,-0.200404,0.9376180000000001,-0.284044,0.042229,-0.043088,0.070349,-0.028783,0.002522,0.035555
759,-0.610839,-1.2158309999999999,-0.888868,-0.199318,0.937659,-0.284672,0.045387000000000004,-0.046321,0.076784,-0.030235,0.0039,0.037464
760,-0.606817,-1.215919,-0.883552,-0.198124,0.937689,-0.285403,0.058146,-0.045343,0.08755399999999999,-0.031214999999999996,0.007166,0.037494
761,-0.601821,-1.215884,-0.8771530000000001,-0.196715,0.9376770000000001,-0.28641700000000003,0.070872,-0.052883000000000006,0.09726699999999999,-0.03441,0.007025,0.036157
762,-0.596247,-1.215727,-0.869951,-0.195197,0.937622,-0.287629,0.08254500000000001,-0.060405999999999994,0.10376700000000001,-0.029656000000000002,0.009674,0.032411
763,-0.5898479999999999,-1.215239,-0.862007,-0.193607,0.9374530000000001,-0.289252,0.098605,-0.047679,0.10386300000000001,-0.030529,0.011781,0.031516
764,-0.583046,-1.21468,-0.854029,-0.191923,0.937258,-0.291,0.099802,-0.01892,0.103835,-0.038286,0.016249,0.040359
765,-0.575549,-1.214217,-0.8462200000000001,-0.189973,0.9370959999999999,-0.29279499999999997,0.092535,0.026907999999999998,0.10479300000000001,-0.042449,0.015356999999999999,0.047356999999999996
766,-0.5673229999999999,-1.213942,-0.838499,-0.187696,0.937,-0.294565,0.080948,0.065277,0.11000399999999999,-0.036775999999999996,0.010342,0.058053999999999994
767,-0.5587810000000001,-1.213956,-0.8311860000000001,-0.185166,0.937005,-0.296146,0.06400800000000001,0.098343,0.11411700000000001,-0.035613,0.005393,0.070636
768,-0.550118,-1.214213,-0.824332,-0.18246800000000002,0.9370950000000001,-0.297535,0.046005000000000004,0.120807,0.106484,-0.041576999999999996,0.006065999999999999,0.076511
769,-0.542325,-1.2146430000000001,-0.818854,-0.17993599999999998,0.9372450000000001,-0.298601,0.025907999999999997,0.144373,0.09135900000000001,-0.050289,0.007137,0.076388
770,-0.535612,-1.215286,-0.8150149999999999,-0.177619,0.937469,-0.299284,0.0026190000000000002,0.166898,0.073007,-0.052041,0.004731,0.082563
771,-0.5296350000000001,-1.2161110000000002,-0.812399,-0.17543599999999998,0.9377559999999999,-0.299672,-0.018575,0.180893,0.05468200000000001,-0.052744000000000006,0.0021550000000000002,0.081228
772,-0.525158,-1.217001,-0.8114939999999999,-0.173674,0.9380649999999999,-0.299732,-0.030235,0.183322,0.032068,-0.047242,-0.000412,0.073933
773,-0.521895,-1.217832,-0.811839,-0.172306,0.9383520000000001,-0.299621,-0.034444999999999996,0.181266,0.017086,-0.046107999999999996,0.008059,0.060729
774,-0.51888,-1.218488,-0.8124439999999999,-0.171097,0.938579,-0.299604,-0.030133999999999998,0.180228,0.006435,-0.046432,0.009557,0.056974000000000004
775,-0.516369,-1.219023,-0.81353,-0.170095,0.9387629999999999,-0.29959600000000003,-0.027991000000000002,0.174924,-0.0010199999999999999,-0.04043,0.014453,0.045598
