,attitude.roll,attitude.pitch,attitude.yaw,gravity.x,gravity.y,gravity.z,rotationRate.x,rotationRate.y,rotationRate.z,userAcceleration.x,userAcceleration.y,userAcceleration.z
0,-1.361035,-1.392236,-1.4849729999999999,-0.173702,0.9841,-0.03698,-0.051046,0.15243199999999998,-0.06302,-0.035983999999999995,0.0030670000000000003,0.009406999999999999
1,-1.362231,-1.391337,-1.489742,-0.174612,0.9839399999999999,-0.036955,-0.031814,0.185281,-0.036222000000000004,-0.03132,0.008659,0.012511
2,-1.360342,-1.390895,-1.49196,-0.17497000000000001,0.9838610000000001,-0.037377,-0.006252000000000001,0.20849499999999999,-0.002959,-0.017657,0.008143000000000001,0.00927
3,-1.355585,-1.391066,-1.491396,-0.174627,0.983892,-0.038173,0.008549,0.20832399999999998,0.027055000000000003,-0.012628,0.015437000000000001,0.007686
4,-1.3492600000000001,-1.391613,-1.48881,-0.17385899999999999,0.9839899999999999,-0.039159,0.023222,0.175146,0.052837,-0.000808,0.021838999999999997,-0.002254
5,-1.3418729999999999,-1.392385,-1.484434,-0.172825,0.9841270000000001,-0.04027,0.042286000000000004,0.14737,0.056211000000000004,-0.017269,0.028401,0.013399000000000001
6,-1.3270950000000001,-1.3933440000000001,-1.47241,-0.171296,0.984297,-0.042592000000000005,0.124324,0.151228,0.085621,-0.014907,0.018984,0.013844
7,-1.308433,-1.3942459999999999,-1.456567,-0.16961400000000001,0.984455,-0.04555,0.104228,0.148124,0.078019,-0.019046,-0.021824,-0.013806
8,-1.300916,-1.395267,-1.451881,-0.168298,0.984634,-0.046556,-0.007677,0.14543499999999998,0.048399,-0.043677,-0.015777,0.01375
9,-1.300489,-1.3958899999999999,-1.454763,-0.167686,0.984743,-0.046464,-0.0383,0.177654,0.009687999999999999,-0.051766,-0.005067,0.015916
10,-1.3032290000000002,-1.395999,-1.461927,-0.16771,0.984762,-0.045975999999999996,-0.066683,0.240729,-0.021569,-0.039916,-0.007756999999999999,0.015443
11,-1.308207,-1.3953659999999999,-1.47252,-0.16853800000000002,0.9846520000000001,-0.045301999999999995,-0.093015,0.28886999999999996,-0.049589,-0.011348,-0.010134,0.010343999999999999
12,-1.314562,-1.3945969999999999,-1.485007,-0.16955599999999998,0.984517,-0.044422,-0.09717200000000001,0.299593,-0.06351799999999999,0.00386,-0.009023,0.006825
13,-1.321964,-1.3935549999999999,-1.498417,-0.170875,0.984334,-0.043419,-0.09832,0.280426,-0.06457,0.026038,0.0010019999999999999,0.000176
14,-1.330637,-1.392483,-1.512282,-0.172269,0.984144,-0.042186,-0.099607,0.23036700000000002,-0.065583,0.051602999999999996,0.006731,-0.000874
15,-1.337349,-1.391637,-1.5232860000000001,-0.17335799999999998,0.983994,-0.041222,-0.072056,0.192969,-0.061070000000000006,0.054477,0.016066999999999998,-0.00251
16,-1.340892,-1.390893,-1.5303930000000001,-0.174218,0.9838610000000001,-0.040774,-0.042395,0.16403,-0.042666,0.060144,0.017528,-0.007504
17,-1.341069,-1.3906530000000001,-1.53348,-0.174455,0.9838180000000001,-0.040797,-0.013838999999999999,0.12551099999999998,-0.025325999999999998,0.061875,0.025383000000000003,-0.015477000000000001
18,-1.34,-1.3905450000000001,-1.534389,-0.174513,0.983799,-0.041007999999999996,-0.0013189999999999999,0.081714,-0.005954,0.059599,0.019924,-0.015068000000000002
19,-1.337352,-1.391106,-1.53282,-0.173867,0.983899,-0.041342000000000004,0.011205,0.037920999999999996,0.012348999999999999,0.041116,0.007266,-0.011316
20,-1.334163,-1.3917629999999999,-1.529815,-0.17310699999999998,0.984016,-0.041745,0.020572,-0.001578,0.025284,0.031917,0.014946000000000001,-0.011066
21,-1.330155,-1.3923889999999999,-1.525526,-0.17234100000000002,0.9841280000000001,-0.042292,0.033274,-0.015506,0.033936,0.026177,0.016040000000000002,-0.0071920000000000005
22,-1.323803,-1.39325,-1.5186030000000001,-0.171248,0.9842799999999999,-0.043179,0.051358,-0.031531,0.029810000000000003,0.017897,0.00716,0.00082
23,-1.317445,-1.3936709999999999,-1.511343,-0.170569,0.9843540000000001,-0.044163,0.05242,-0.040027,0.022351,0.007758,0.006567,0.003193
24,-1.312859,-1.3939030000000001,-1.505771,-0.170145,0.984395,-0.044887,0.039632,-0.044213999999999996,0.014790000000000001,0.004297,0.0049689999999999995,0.0058390000000000004
25,-1.309831,-1.3941940000000002,-1.501678,-0.169731,0.9844459999999999,-0.045328,0.024666999999999998,-0.05798,0.007225,-0.01017,-0.002177,0.007425
26,-1.3103639999999999,-1.394223,-1.501096,-0.169728,0.9844510000000001,-0.04523,-0.003009,-0.052523,-0.001521,-0.012584,-0.007476999999999999,0.012439
27,-1.313658,-1.394212,-1.5031379999999999,-0.16988699999999998,0.984449,-0.044673000000000004,-0.023294,-0.067319,-0.013394,-0.014302,-0.002058,0.008464
28,-1.3185120000000001,-1.393925,-1.5067979999999999,-0.170377,0.984399,-0.043919,-0.024265000000000002,-0.056620000000000004,-0.024097,-0.013522,0.004264,0.010731000000000001
29,-1.322518,-1.393506,-1.510098,-0.170951,0.984325,-0.043338,-0.020901,-0.024656,-0.028387,-0.010186,0.006779,0.008578
30,-1.32499,-1.39288,-1.512386,-0.171655,0.984215,-0.043065,-0.0037259999999999997,-0.004463,-0.031498000000000005,-0.002585,0.001183,0.005925
31,-1.3264639999999999,-1.392317,-1.513806,-0.172257,0.984115,-0.042946,-0.0026829999999999996,-0.004488000000000001,-0.026149000000000002,0.004974,0.006333,0.005302
32,-1.327447,-1.391769,-1.5145620000000002,-0.172822,0.984017,-0.042906,0.003632,-0.01838,-0.020746,0.010178,0.005118,0.002059
33,-1.327901,-1.391416,-1.5143739999999999,-0.173178,0.9839540000000001,-0.042911000000000005,0.010975,-0.038676,-0.013191,0.013358000000000002,0.002908,-0.001766
34,-1.329041,-1.3911930000000001,-1.514377,-0.173442,0.983915,-0.042767,0.003368,-0.064237,-0.007871,0.014049,0.0071129999999999995,0.000698
35,-1.330166,-1.391037,-1.513886,-0.17364100000000002,0.9838870000000001,-0.042608999999999994,0.011797,-0.086642,-0.0067150000000000005,0.011791,0.008499,0.0049960000000000004
36,-1.330552,-1.390847,-1.512182,-0.17383800000000002,0.9838530000000001,-0.042586,0.014893,-0.11433299999999999,-0.010931,0.007379000000000001,-0.0017670000000000001,0.001448
37,-1.3320020000000001,-1.3906530000000001,-1.5111649999999999,-0.174083,0.9838180000000001,-0.042379,0.012706,-0.127104,-0.011998,0.004345,0.001823,0.001775
38,-1.333824,-1.390471,-1.510342,-0.174335,0.983785,-0.042104,0.005195,-0.135605,-0.010971,-0.003293,0.005808,0.005177
39,-1.335991,-1.390276,-1.5097479999999999,-0.17461,0.98375,-0.04177,0.008381,-0.138812,-0.010945,-0.009381,0.0019370000000000001,0.002677
40,-1.338341,-1.3901059999999998,-1.5092860000000001,-0.174869,0.98372,-0.041398000000000004,0.007295,-0.140947,-0.008813,-0.012020999999999999,0.004424,0.0061649999999999995
41,-1.340201,-1.390004,-1.5082879999999999,-0.175042,0.983701,-0.041095,0.011529000000000001,-0.14311400000000002,-0.00344,-0.016578,0.007784,0.011294
42,-1.341107,-1.389831,-1.506284,-0.175243,0.98367,-0.040975,0.023278999999999998,-0.14102,-0.004429,-0.021061,0.001529,0.010823000000000001
43,-1.340998,-1.389501,-1.503417,-0.175553,0.983611,-0.041067,0.034033999999999995,-0.12930999999999998,-0.011845999999999999,-0.029647000000000003,0.010041,0.009831999999999999
44,-1.339068,-1.3889200000000002,-1.499183,-0.176029,0.983506,-0.041537,0.052338,-0.098455,-0.018167,-0.027264,0.010055,0.008487
45,-1.334956,-1.388252,-1.493393,-0.176494,0.9833850000000001,-0.042414,0.06099299999999999,-0.067609,-0.013872999999999998,-0.020572999999999998,-0.0015429999999999999,0.001047
46,-1.332501,-1.387879,-1.489665,-0.17674600000000001,0.983317,-0.042933,0.024724,-0.061112,-0.008794,-0.014294,-0.017955000000000002,-0.0075120000000000004
47,-1.335412,-1.3874870000000001,-1.4911729999999999,-0.17724600000000001,0.983246,-0.042509,-0.011573,-0.073738,-0.016509,-0.008865000000000001,-0.004425,0.0019210000000000002
48,-1.338892,-1.3873030000000002,-1.493107,-0.177569,0.9832120000000001,-0.041933,-0.018046,-0.08014600000000001,-0.006931999999999999,-0.002897,0.0013460000000000002,0.003832
49,-1.342008,-1.387094,-1.494504,-0.177901,0.983174,-0.041427,-0.003143,-0.091899,-0.011085,0.0037380000000000004,0.002742,0.010147
50,-1.343941,-1.386582,-1.494521,-0.178471,0.983081,-0.041195999999999997,0.0022,-0.102519,-0.023853,0.004399,0.0027140000000000003,0.00488
51,-1.347026,-1.3860379999999999,-1.495436,-0.179117,0.982981,-0.040764,-0.004249,-0.113149,-0.023885,0.005457,0.0020350000000000004,0.00043499999999999995
52,-1.350372,-1.3854739999999999,-1.4965899999999999,-0.179791,0.982877,-0.040285,-0.004201,-0.104619,-0.026032,0.001553,-0.00636,0.002825
53,-1.353618,-1.385174,-1.497859,-0.180207,0.982822,-0.039764,-0.00954,-0.096116,-0.016465999999999998,-0.008315000000000001,-0.001407,0.004608
54,-1.356889,-1.384981,-1.4994,-0.18052100000000001,0.982786,-0.039215,-0.008425,-0.083345,-0.014338,-0.011862000000000001,0.007967,0.004837
55,-1.359207,-1.384811,-1.500205,-0.180776,0.9827549999999999,-0.038831,-0.004124,-0.07166,-0.01005,-0.012828,0.00748,0.008482
56,-1.360645,-1.384686,-1.500377,-0.180951,0.9827309999999999,-0.038597,0.001391,-0.058927,-0.004674,-0.017230000000000002,0.009044,0.007729000000000001
57,-1.361337,-1.384557,-1.500094,-0.18110199999999999,0.982708,-0.038498000000000004,0.004674,-0.04295,-0.006807,-0.016377000000000003,0.010182,0.006592
58,-1.361298,-1.384368,-1.499435,-0.181283,0.982672,-0.038544,0.01008,-0.022746000000000002,-0.002523,-0.015174000000000002,0.008431999999999999,0.0038299999999999996
59,-1.361314,-1.384315,-1.499068,-0.181335,0.982663,-0.038551999999999996,0.006874,-0.014251,0.007058,-0.008042,0.003788,0.006523999999999999
60,-1.3605610000000001,-1.384323,-1.497871,-0.181297,0.982664,-0.038687,0.013252000000000002,-0.028088,-0.001426,-0.008553,0.000612,0.004202
61,-1.360708,-1.384355,-1.497308,-0.18127200000000002,0.98267,-0.038653,0.0035159999999999996,-0.038784,0.017748,0.0019809999999999997,0.002941,0.0025210000000000002
62,-1.362099,-1.384435,-1.497607,-0.181248,0.982685,-0.038385,-0.005072,-0.063204,0.004901,-0.003917,-0.004002,-0.001593
63,-1.364215,-1.3844969999999999,-1.498343,-0.18127200000000002,0.9826959999999999,-0.037989,-0.006177,-0.073844,0.00277,-0.00045999999999999996,0.0071719999999999996,0.0032909999999999997
64,-1.366746,-1.3844370000000001,-1.499183,-0.181426,0.982685,-0.037543,-0.007292,-0.086615,0.000642,-0.010133,0.00143,0.007895000000000001
65,-1.368522,-1.384361,-1.499203,-0.181566,0.982671,-0.037235000000000004,0.0034049999999999996,-0.087688,-0.006759,-0.011732,0.004801,0.007511
66,-1.3708420000000001,-1.384134,-1.500031,-0.181871,0.9826290000000001,-0.036858,-0.011454,-0.072713,-0.009018,-0.017928,-0.0048920000000000005,0.007668
67,-1.373613,-1.3839549999999998,-1.501762,-0.182146,0.9825959999999999,-0.036389,-0.013458000000000001,-0.045005,-0.010136,-0.022063,0.00040599999999999995,0.019024
68,-1.375851,-1.383864,-1.503582,-0.182314,0.9825790000000001,-0.035998,-0.014396,-0.009873,-0.003778,-0.030866,0.0014759999999999999,0.018817
69,-1.377673,-1.383917,-1.505633,-0.182328,0.9825889999999999,-0.035656,-0.021758,0.019955,0.002541,-0.028426,0.00022999999999999998,0.014034999999999999
70,-1.37981,-1.383997,-1.5085469999999999,-0.182328,0.982604,-0.035252,-0.025925,0.043401999999999996,0.00355,-0.026900999999999998,0.000154,0.012776000000000001
71,-1.381866,-1.384192,-1.511855,-0.18221199999999999,0.98264,-0.034841000000000004,-0.027957999999999997,0.070024,0.007775,-0.015328,0.001567,0.015203
72,-1.382593,-1.384374,-1.5142959999999999,-0.182063,0.9826739999999999,-0.034675,-0.023594999999999998,0.090253,0.006711,-0.010259,0.00277,0.007499
73,-1.384099,-1.384425,-1.517764,-0.182064,0.982683,-0.034391000000000005,-0.026751999999999998,0.099852,0.006677,-0.000691,0.006056000000000001,0.005964
74,-1.384107,-1.384484,-1.5198459999999998,-0.182005,0.9826940000000001,-0.034379,-0.013940000000000001,0.099815,0.00463,0.004881,0.00487,0.0071719999999999996
75,-1.383275,-1.384557,-1.521002,-0.181904,0.982708,-0.034517,-0.0043630000000000006,0.092333,0.00257,0.008961,0.005848,0.0058909999999999995
76,-1.382088,-1.384548,-1.521315,-0.181872,0.982706,-0.034733999999999994,0.000872,0.06790700000000001,0.0026780000000000003,0.012515,0.002218,0.002874
77,-1.380515,-1.384584,-1.520821,-0.181782,0.982713,-0.035013,0.008254000000000001,0.047645,0.0016879999999999998,0.013249,0.002242,0.0041140000000000005
78,-1.3788040000000001,-1.3846459999999998,-1.5198200000000002,-0.18166300000000002,0.9827239999999999,-0.035313,0.009225,0.028457999999999997,0.003855,0.016273,0.0020329999999999997,0.004704
79,-1.378142,-1.384996,-1.5193969999999999,-0.181303,0.9827889999999999,-0.035368000000000004,0.0004980000000000001,0.007097,0.025186,0.00244,0.011169,0.011198
80,-1.37653,-1.385417,-1.517584,-0.180841,0.982866,-0.03558,0.020707,-0.015309999999999999,0.01681,0.008126999999999999,0.007338,0.018978000000000002
81,-1.3746909999999999,-1.385789,-1.5151729999999999,-0.180417,0.982935,-0.035841000000000005,0.0174,-0.034491,0.021085,-0.0014990000000000001,0.006125,0.020109000000000002
82,-1.372701,-1.386219,-1.5122799999999998,-0.17993,0.9830139999999999,-0.036117,0.028020999999999997,-0.046242,0.020106,-0.008531,-0.004483,0.018066
83,-1.371637,-1.3863889999999999,-1.510199,-0.179728,0.9830450000000001,-0.036275,0.012911,-0.050245,0.003257,-0.004354,0.0009480000000000001,0.011251
84,-1.372218,-1.386314,-1.5097459999999998,-0.179821,0.983031,-0.036185,0.006586,-0.050155,-0.013878,-0.0036810000000000002,0.0031899999999999997,0.0027530000000000002
85,-1.374019,-1.385895,-1.5106709999999999,-0.18029,0.9829540000000001,-0.035942,0.000276,-0.035197000000000006,-0.019283,-0.011345000000000001,-0.002501,0.00161
86,-1.376584,-1.3853229999999999,-1.5122360000000001,-0.18093399999999998,0.982849,-0.035588,-0.011474,-0.052145000000000004,-0.03323,-0.007268000000000001,0.0037840000000000005,-0.0008039999999999999
87,-1.379328,-1.384787,-1.514142,-0.18154800000000001,0.98275,-0.035192,-0.0050490000000000005,-0.040475,-0.026791000000000002,-0.0056619999999999995,0.005516,0.000188
88,-1.380282,-1.3844100000000001,-1.514398,-0.181945,0.9826799999999999,-0.035088999999999995,0.00561,-0.030972000000000003,-0.014978,-0.005524,0.00818,-0.000602
89,-1.380419,-1.3842430000000001,-1.513898,-0.182113,0.982649,-0.035095,0.008749,-0.029977999999999998,-2e-06,-0.00644,0.014299000000000001,0.0022129999999999997
90,-1.378662,-1.384347,-1.511575,-0.18195,0.982669,-0.035396,0.02257,-0.023703000000000002,0.017178,-0.005993,0.004514,0.001689
91,-1.375549,-1.384731,-1.507923,-0.18146900000000002,0.98274,-0.035889,0.033176,-0.022734,0.032206,-0.005268,0.006976,0.005386
92,-1.371154,-1.385368,-1.502932,-0.180696,0.982857,-0.036562,0.040568,-0.027073000000000003,0.045082,-0.010527,0.000571,0.00905
93,-1.3668799999999999,-1.386068,-1.497883,-0.17986400000000002,0.982986,-0.037194,0.039462,-0.036652,0.044018,-0.005255,0.0036009999999999996,0.010476000000000001
94,-1.362957,-1.386651,-1.493148,-0.17915699999999998,0.983093,-0.037781999999999996,0.035233,-0.034481,0.037576,-0.009152,-0.003311,0.008362999999999999
95,-1.360264,-1.3870120000000001,-1.4897040000000001,-0.178707,0.983159,-0.038189,0.027847000000000004,-0.036504,0.017231,-0.006291,-0.00147,0.008984
96,-1.35859,-1.387091,-1.487314,-0.178566,0.983174,-0.038472000000000006,0.014049,-0.033208999999999995,0.004312,-0.0019760000000000003,0.000149,0.0053
97,-1.359024,-1.386838,-1.486889,-0.17882699999999999,0.9831270000000001,-0.038447,0.005567,-0.042681000000000004,-0.0171,0.0006349999999999999,-0.00066,0.0067090000000000006
98,-1.3606120000000002,-1.386348,-1.487517,-0.179358,0.983038,-0.038264,-0.0008289999999999999,-0.049020999999999995,-0.024613999999999997,0.000144,0.002879,0.004069
99,-1.363009,-1.385958,-1.488831,-0.179825,0.982966,-0.037913,-0.008355,-0.057534,-0.020383000000000002,-0.003281,0.005758,0.008584999999999999
100,-1.3653899999999999,-1.385691,-1.490197,-0.18017,0.982917,-0.037537,-0.008364,-0.050115,-0.010778,-0.007406,0.003426,0.010743
101,-1.366763,-1.385666,-1.490764,-0.180247,0.9829120000000001,-0.037295,0.001257,-0.033156,0.0020859999999999997,-0.009268,0.005857,0.01015
102,-1.365467,-1.385891,-1.488951,-0.179982,0.9829540000000001,-0.037483999999999996,0.021508000000000003,-0.01839,0.021436,-0.008602,0.0076159999999999995,0.010232
103,-1.362848,-1.386326,-1.486038,-0.179465,0.983034,-0.037867000000000005,0.023651,-0.00884,0.028917,-0.007852,0.005370000000000001,0.015253000000000001
104,-1.359799,-1.386731,-1.4828350000000001,-0.17895999999999998,0.983108,-0.038331,0.029019,-0.002462,0.027877999999999997,-0.004405,0.012391,0.011719
105,-1.355478,-1.387074,-1.478427,-0.178463,0.9831709999999999,-0.039031,0.037587999999999996,0.001782,0.024728,-0.0038950000000000005,0.007170999999999999,0.008239
106,-1.35215,-1.387311,-1.4750809999999999,-0.178106,0.9832139999999999,-0.039575,0.025876,0.0007830000000000001,0.018238,-0.009608,-0.004897,0.004281
107,-1.350012,-1.387505,-1.472944,-0.177834,0.9832489999999999,-0.039914,0.015231,0.000842,0.012822,-0.009788,-0.0019260000000000002,0.008465
108,-1.348741,-1.38764,-1.471637,-0.177653,0.983274,-0.04011,0.012112999999999999,-0.000225,0.008523000000000001,-0.012731000000000001,0.002688,0.005595
109,-1.348157,-1.387737,-1.471049,-0.177536,0.983291,-0.040193,0.002531,0.001948,0.0063159999999999996,-0.014801,0.003098,0.008638
110,-1.3478219999999999,-1.387782,-1.470813,-0.17748,0.9832989999999999,-0.040243,0.001493,0.006221,0.0041670000000000006,-0.011714,-0.001564,0.0076040000000000005
111,-1.3479709999999998,-1.387928,-1.4711610000000002,-0.177345,0.983326,-0.040184,-0.007061,0.008356,0.010514,-0.011284,0.00037799999999999997,0.006539
112,-1.3482100000000001,-1.388202,-1.471654,-0.177092,0.983376,-0.040082,-0.0038420000000000004,0.01685,0.014799000000000001,-0.008973,0.006324000000000001,0.008939
113,-1.347393,-1.388416,-1.471207,-0.17685499999999998,0.9834149999999999,-0.040181,0.006841,0.020008,0.014869,-0.004999,0.002212,0.008107
114,-1.345995,-1.388665,-1.4702680000000001,-0.176558,0.98346,-0.040373,0.005779,0.022137999999999998,0.015927,-0.001527,0.002868,0.008909
115,-1.344271,-1.388878,-1.469051,-0.176284,0.983498,-0.04063,0.013286000000000001,0.029573000000000002,0.014902,-0.002961,-0.004601,0.003994
116,-1.3421459999999998,-1.389063,-1.4675280000000002,-0.176019,0.983532,-0.040963,0.012232999999999999,0.033833999999999996,0.015957,0.005471,0.001209,0.010064
117,-1.339426,-1.389401,-1.4654530000000001,-0.175584,0.983593,-0.041366,0.020725,0.033766000000000004,0.025631,0.0058909999999999995,0.0067480000000000005,0.008131999999999999
118,-1.336178,-1.3897,-1.462716,-0.175163,0.9836469999999999,-0.041867,0.020715,0.025269,0.019232,0.010383,0.004116,0.005475
119,-1.333605,-1.389846,-1.460451,-0.17491600000000002,0.9836729999999999,-0.042283999999999995,0.017505,0.013600999999999999,0.009611,0.008366,0.002762,0.005831
120,-1.33212,-1.389931,-1.459091,-0.174771,0.9836879999999999,-0.042524,0.007875,0.0019379999999999998,0.004217,0.01077,0.004074,0.004667
121,-1.332127,-1.389975,-1.45895,-0.17473,0.9836959999999999,-0.042513,0.00144,-0.00868,0.000981,0.001573,0.002449,0.010424
122,-1.332247,-1.390012,-1.458853,-0.1747,0.9837030000000001,-0.042484,0.00464,-0.010813,-0.0011300000000000001,-0.001341,0.004441,0.00864
123,-1.331313,-1.389993,-1.457807,-0.174678,0.9837,-0.042651,0.008941,-0.000188,0.002091,-0.0007059999999999999,0.0010869999999999999,0.00458
124,-1.33066,-1.390076,-1.457174,-0.17457,0.983715,-0.042745,0.004688,0.003023,0.0020570000000000002,-0.006873000000000001,0.003529,0.0020039999999999997
125,-1.330526,-1.39016,-1.457099,-0.174483,0.9837299999999999,-0.042749,-0.0006320000000000001,0.008359,0.00415,-0.007448000000000001,0.005009,0.000543
126,-1.330099,-1.39022,-1.456979,-0.17440799999999998,0.98374,-0.042809,0.003689,0.019001,0.003098,-0.005478,0.003564,0.0028309999999999997
127,-1.328934,-1.39026,-1.456289,-0.17432,0.983748,-0.043003,0.010099,0.024291999999999998,0.006340999999999999,0.001468,0.005220000000000001,0.001118
128,-1.327244,-1.3903,-1.4551100000000001,-0.174209,0.9837549999999999,-0.043288,0.011181,0.025362,0.00421,-0.0016489999999999999,0.001536,-0.0034189999999999997
129,-1.325193,-1.390385,-1.453584,-0.174039,0.98377,-0.043625,0.012251999999999999,0.028546,0.00635,-0.001819,0.001521,-0.003082
130,-1.323689,-1.39038,-1.4525299999999999,-0.173978,0.983769,-0.043887999999999996,0.009052,0.023252000000000002,0.0009939999999999999,0.006085,0.004954999999999999,-0.004025
131,-1.322406,-1.390366,-1.451594,-0.173934,0.9837670000000001,-0.044114999999999994,0.007937,0.015786,0.0042,0.006286,0.002897,-0.006743000000000001
132,-1.3219450000000001,-1.390462,-1.451317,-0.173823,0.983784,-0.044172,0.000411,0.003029,0.004164,0.006175,0.00288,-0.006686
133,-1.321648,-1.390593,-1.451067,-0.17368499999999998,0.983807,-0.044191,0.0025210000000000002,0.000878,0.007386,0.001367,0.0027649999999999997,-0.001356
134,-1.3210620000000002,-1.3907049999999999,-1.450443,-0.17355399999999999,0.983827,-0.044266,0.005712,-0.0023239999999999997,0.006344,-0.004118999999999999,0.00041,-0.000503
135,-1.320799,-1.390867,-1.4500879999999998,-0.17338699999999999,0.983856,-0.044273,-0.0007030000000000001,-0.005497999999999999,0.0063030000000000004,-0.003904,0.0023190000000000003,0.000434
136,-1.320511,-1.390992,-1.449703,-0.173255,0.9838790000000001,-0.044292000000000005,0.003583,-0.004435000000000001,0.003127,-0.004632,0.005104,0.0044670000000000005
137,-1.3199610000000002,-1.3911,-1.44919,-0.173128,0.9838979999999999,-0.044361000000000005,0.0014880000000000002,0.005156,0.004169,-0.005323,-0.0016129999999999999,0.002857
138,-1.319726,-1.391091,-1.4490450000000001,-0.173127,0.9838959999999999,-0.044404,0.002593,0.006247,-0.003303,-0.003066,0.0048579999999999995,0.00409
139,-1.319768,-1.391017,-1.449247,-0.173199,0.983883,-0.044414999999999996,-0.0037890000000000003,0.007348,-0.006553,-0.004078,0.0014529999999999999,0.0035670000000000003
140,-1.320841,-1.390871,-1.450392,-0.17338699999999999,0.983857,-0.044265,-0.009133,0.000992,-0.010855,-0.005874,0.0035240000000000002,0.006911
141,-1.322549,-1.390654,-1.45211,-0.17366800000000002,0.9838180000000001,-0.044021,-0.0102,-0.003249,-0.015130000000000001,-0.0013039999999999998,0.010689,0.006881
142,-1.32344,-1.390211,-1.452969,-0.17413,0.9837389999999999,-0.043973000000000005,0.000541,0.0020829999999999998,-0.025744,-0.007297,0.008998,0.005932
143,-1.324215,-1.38973,-1.453904,-0.174622,0.9836520000000001,-0.043953,-0.0026260000000000003,0.010612,-0.024709000000000002,-0.0077659999999999995,0.002523,0.003761
144,-1.325192,-1.389383,-1.455225,-0.174996,0.98359,-0.043864999999999994,-0.009023,0.019127,-0.017287,-0.007148000000000001,0.002815,0.000759
145,-1.327259,-1.3891870000000002,-1.457722,-0.175275,0.983554,-0.04355,-0.022906,0.022346,-0.010979000000000001,-0.004886,0.001004,0.003145
146,-1.330072,-1.3891280000000001,-1.460928,-0.175454,0.9835440000000001,-0.043071,-0.031502999999999996,0.013831999999999999,-0.005686999999999999,-0.001045,0.0014880000000000002,0.0025440000000000003
147,-1.33344,-1.389251,-1.464719,-0.17548,0.9835659999999999,-0.042452,-0.034723000000000004,0.01807,0.0028309999999999997,-0.0062829999999999995,-0.002349,0.00371
148,-1.3364260000000001,-1.3894030000000002,-1.468143,-0.17546099999999998,0.983593,-0.041893,-0.028303,0.020187,0.000737,-0.000763,0.008976000000000001,0.003959000000000001
149,-1.3386280000000002,-1.389493,-1.470869,-0.175467,0.9836090000000001,-0.041486,-0.025078,0.024441,-0.000315,0.002845,0.001269,0.003385
150,-1.340644,-1.389577,-1.4734260000000001,-0.17547100000000002,0.983625,-0.041113,-0.022945,0.024433,-0.0003,0.004618,0.002154,0.003836
151,-1.342675,-1.389699,-1.4759639999999998,-0.17543699999999998,0.9836469999999999,-0.04073,-0.025034999999999998,0.020136,0.002848,0.005332,0.003963,0.006000999999999999
152,-1.344606,-1.389868,-1.478298,-0.175354,0.983677,-0.040354,-0.020801,0.014786,0.00502,0.0021969999999999997,0.0064659999999999995,0.003061
153,-1.346616,-1.390142,-1.48051,-0.175171,0.983726,-0.039941000000000004,-0.019802,0.005173,0.010381,0.0029760000000000003,0.006294,0.019311000000000002
154,-1.347375,-1.3904530000000002,-1.481251,-0.174904,0.9837819999999999,-0.039741000000000005,-0.003861,-0.005548,0.013711000000000001,0.003243,0.0021190000000000002,0.021903
155,-1.346778,-1.390768,-1.480427,-0.174578,0.9838389999999999,-0.039776,0.006755,-0.015181,0.015934,0.009341,0.0017420000000000003,0.015637
156,-1.34606,-1.3910040000000001,-1.4791530000000002,-0.174324,0.9838809999999999,-0.03985,0.009888,-0.03435,0.011706999999999999,0.011314,0.002676,0.015406
157,-1.3461290000000001,-1.391158,-1.4781879999999998,-0.174179,0.983908,-0.039804,0.008721,-0.062022,0.006393,0.006058,0.006829000000000001,0.016046
158,-1.346442,-1.3912280000000001,-1.477001,-0.174124,0.9839209999999999,-0.039734,0.012907,-0.081207,0.005379,0.004065,0.002163,0.017426
159,-1.3473680000000001,-1.39135,-1.476149,-0.174046,0.983943,-0.039547000000000006,0.009307,-0.08958300000000001,0.007215000000000001,-0.011562000000000001,-0.001429,0.015819999999999997
160,-1.348385,-1.391618,-1.4754399999999999,-0.17382999999999998,0.9839899999999999,-0.039312,0.005054,-0.081068,0.012515,-0.013441,0.001727,0.01705
161,-1.349202,-1.391756,-1.474773,-0.173729,0.984015,-0.03914,0.007278,-0.070384,0.002903,-0.012184,0.002038,0.014757
162,-1.35018,-1.391743,-1.474425,-0.17378,0.9840129999999999,-0.038973,0.004131,-0.06502100000000001,-0.003535,-0.008364,0.004222999999999999,0.013705000000000002
163,-1.351076,-1.391583,-1.4740389999999999,-0.17397,0.983984,-0.038852,0.009484000000000001,-0.063962,-0.006704000000000001,-0.014003,0.003855,0.015353
164,-1.351479,-1.391456,-1.473234,-0.17410799999999998,0.9839620000000001,-0.038808999999999996,0.011627,-0.05759500000000001,-0.002424,-0.017283,-0.000105,0.010976999999999999
165,-1.3519079999999999,-1.391384,-1.4725709999999999,-0.17419400000000002,0.983949,-0.03875,0.008451,-0.049074,0.0007480000000000001,-0.019303,0.0043479999999999994,0.014838999999999998
166,-1.3520530000000002,-1.39135,-1.4718120000000001,-0.174232,0.983943,-0.038732,0.0071129999999999995,-0.041654000000000004,-0.000582,-0.021263,0.001912,0.014547
167,-1.3524459999999998,-1.391292,-1.4715770000000001,-0.17430199999999998,0.9839319999999999,-0.038675,0.003999,-0.023528999999999998,-0.001695,-0.015380000000000001,0.001557,0.010782
168,-1.3528639999999998,-1.3911850000000001,-1.471754,-0.174421,0.9839129999999999,-0.038625,-0.0012439999999999999,-0.004331000000000001,-0.002825,-0.010759000000000001,0.002018,0.010198
169,-1.353302,-1.390988,-1.472226,-0.174627,0.983878,-0.038591,0.0009519999999999999,0.003144,-0.009228,-0.0039310000000000005,0.005212,0.005754
170,-1.3532620000000002,-1.390731,-1.472299,-0.174873,0.9838319999999999,-0.038652,0.004181,0.006340999999999999,-0.012415,-0.0033950000000000004,0.001214,0.006640000000000001
171,-1.3532,-1.390462,-1.472414,-0.175128,0.983784,-0.03872,0.003129,0.009541,-0.012426000000000001,-0.001813,0.001629,0.0037170000000000003
172,-1.353397,-1.390205,-1.472853,-0.17538299999999998,0.9837379999999999,-0.03874,-7.2e-05,0.012735,-0.009248000000000001,0.001051,0.005581,0.005827000000000001
173,-1.353798,-1.3900350000000001,-1.473471,-0.175562,0.983707,-0.038706,-0.001163,0.009534,-0.007115000000000001,0.000605,0.005123,0.00387
174,-1.3541809999999999,-1.389948,-1.474029,-0.17565999999999998,0.983691,-0.038657,-0.0033200000000000005,0.008459999999999999,-0.002856,-0.0005639999999999999,0.005261,0.006232
175,-1.354524,-1.389913,-1.474557,-0.175706,0.983685,-0.038604,-0.004573,0.009463,-0.002972,0.002167,-0.001538,0.005462
176,-1.3551819999999999,-1.389897,-1.475432,-0.175744,0.983682,-0.038491000000000004,-0.007774,0.011595999999999999,-0.0008609999999999999,0.002664,0.0032259999999999997,0.006295
177,-1.355505,-1.3898620000000002,-1.4759950000000002,-0.175791,0.983676,-0.038442000000000004,-0.002435,0.010520999999999999,-0.0029579999999999997,0.003031,0.004468,0.001302
178,-1.3560219999999998,-1.389792,-1.476687,-0.175877,0.983663,-0.038366000000000004,-0.004569,0.007345,-0.006174,0.008137,0.002451,-0.001582
179,-1.3569069999999999,-1.3896680000000001,-1.4777069999999999,-0.17603,0.983641,-0.038236,-0.008831,0.004181,-0.010473,0.00678,0.005693,-0.004214
180,-1.357996,-1.389528,-1.478887,-0.176207,0.9836159999999999,-0.038073,-0.008846,0.0031079999999999997,-0.008334999999999999,0.0031260000000000003,0.004894,-0.0047729999999999995
181,-1.3589069999999999,-1.3894030000000002,-1.479832,-0.176361,0.983593,-0.037938,-0.004593,0.000958,-0.007234,0.0055850000000000006,0.006640999999999999,9.7e-05
182,-1.3592790000000001,-1.389361,-1.480165,-0.17641700000000002,0.9835860000000001,-0.037882,-0.00027,-0.004619,-0.002919,-0.001256,0.007015,0.003672
183,-1.35917,-1.389369,-1.479917,-0.176406,0.9835870000000001,-0.0379,0.003954,-0.007855,0.0035240000000000002,-0.001268,0.007012999999999999,0.003689
184,-1.358187,-1.389525,-1.478723,-0.176218,0.983615,-0.03804,0.010317,-0.010034,0.009981,-0.005621,0.004727,0.004685
185,-1.357192,-1.389726,-1.477552,-0.175986,0.9836520000000001,-0.038174,0.010331,-0.005777,0.011043,-0.003594,0.0030280000000000003,0.007198
186,-1.3558569999999999,-1.389908,-1.476142,-0.175761,0.983684,-0.038370999999999995,0.010351,-0.000455,0.012105,-0.003423,0.0036969999999999998,0.010783
187,-1.354671,-1.390184,-1.474815,-0.17545,0.983734,-0.038521,0.009212,-0.009003,0.019586000000000003,-0.00854,0.001633,0.015434
188,-1.353707,-1.390508,-1.473517,-0.175101,0.983792,-0.038620999999999996,0.010236,-0.019655000000000002,0.018538,-0.005807,-0.0014470000000000002,0.021409
189,-1.352184,-1.3907120000000002,-1.471606,-0.174847,0.9838290000000001,-0.038844,0.018833000000000003,-0.014324000000000002,0.010046,-0.011493000000000001,0.000196,0.024745
190,-1.3500370000000002,-1.390771,-1.469311,-0.174706,0.9838389999999999,-0.039207,0.018919,0.000606,0.005754,-0.0070409999999999995,-0.001509,0.01699
191,-1.349352,-1.390744,-1.468777,-0.174706,0.983834,-0.039333,0.0031309999999999997,0.010331,-0.001925,-0.002479,0.007345999999999999,0.017452000000000002
192,-1.349285,-1.390547,-1.46892,-0.174893,0.983799,-0.039387,-0.0021609999999999997,0.010388,-0.011576000000000001,-0.011844,0.002682,0.013508000000000001
193,-1.350327,-1.390318,-1.470248,-0.175154,0.983758,-0.039254000000000004,-0.005323,0.015738,-0.014809000000000001,-0.013734,0.008246999999999999,0.017648
194,-1.351135,-1.390102,-1.4715209999999999,-0.175393,0.983719,-0.039159,-0.007423000000000001,0.028506999999999998,-0.009498999999999999,-0.016624,-0.00148,0.017247
195,-1.35165,-1.390047,-1.472848,-0.175465,0.9837090000000001,-0.039080000000000004,-0.011656999999999999,0.044467,-0.001003,-0.013912,-0.004553,0.016756999999999998
196,-1.351985,-1.389903,-1.474146,-0.175616,0.983683,-0.039051999999999996,-0.00305,0.050867,-0.010565,-0.0032170000000000002,0.000325,0.0057729999999999995
197,-1.3515549999999998,-1.389676,-1.474723,-0.175816,0.983643,-0.039176,-0.003045,0.047688,-0.014834,0.001256,0.002853,8.3e-05
198,-1.352008,-1.389417,-1.4760870000000001,-0.176084,0.9835959999999999,-0.039152,-0.008413,0.044494,-0.010595,0.00279,0.0048530000000000005,0.00041
199,-1.352849,-1.3892120000000001,-1.4777639999999999,-0.176313,0.983559,-0.039047000000000005,-0.008418,0.038777,-0.011718000000000001,0.004453,0.002571,0.002487
200,-1.352861,-1.389035,-1.4785840000000001,-0.176483,0.983527,-0.039083,-0.002022,0.039811,-0.009539,0.005797999999999999,0.0016719999999999999,-4.1e-05
201,-1.352859,-1.3888530000000001,-1.479359,-0.17665799999999998,0.9834940000000001,-0.039122000000000004,-0.004146,0.039827,-0.01169,0.008643000000000001,0.002712,-0.0021379999999999997
202,-1.352488,-1.3886319999999999,-1.479798,-0.176857,0.983454,-0.039235,-0.0009449999999999999,0.039816000000000004,-0.011667,0.001152,0.004721,-0.006664
203,-1.352209,-1.388452,-1.480275,-0.177019,0.9834209999999999,-0.039322,-0.002036,0.033431999999999996,-0.012735,0.006411,0.0056229999999999995,-0.002487
204,-1.3521040000000002,-1.388272,-1.480847,-0.17718699999999998,0.983389,-0.039379000000000004,-0.003127,0.032354,-0.008468,0.006884,0.001978,-0.0025670000000000003
205,-1.352159,-1.388168,-1.481465,-0.177289,0.9833700000000001,-0.039392,-0.005294,0.025965,-0.0074069999999999995,0.0032619999999999997,0.004545,-0.0021579999999999998
206,-1.352423,-1.388136,-1.4821799999999998,-0.17733,0.9833639999999999,-0.039352,-0.0064269999999999996,0.018981,-0.0009689999999999999,0.001518,0.009831,0.0027760000000000003
207,-1.352076,-1.388201,-1.482202,-0.177254,0.983376,-0.039399,0.004228,0.019992,0.0033770000000000002,0.002968,0.01078,0.003251
208,-1.350069,-1.388257,-1.480581,-0.177121,0.9833860000000001,-0.039743,0.018111000000000002,0.022078999999999998,0.002403,0.004925,0.006543000000000001,0.001703
209,-1.347534,-1.3882729999999999,-1.478404,-0.177005,0.983389,-0.040188999999999996,0.018082,0.018869999999999998,0.005612,0.0019100000000000002,0.0020239999999999998,0.002682
210,-1.345535,-1.388369,-1.476631,-0.176832,0.983406,-0.040520999999999995,0.011623999999999999,0.008231,0.007717,0.00247,0.002571,0.000268
211,-1.344958,-1.388566,-1.4760360000000001,-0.176619,0.983442,-0.04058,-0.000184,-0.004524,0.010855,0.001036,0.001452,0.006675
212,-1.345172,-1.388774,-1.4760950000000002,-0.176428,0.9834799999999999,-0.040496,-0.003399,-0.008768999999999999,0.009770000000000001,-0.0039310000000000005,0.004207,0.010512
213,-1.345306,-1.388895,-1.4761229999999999,-0.176318,0.9835010000000001,-0.040445999999999996,-0.00015,-0.003433,0.004445,-0.00398,0.002918,0.012048999999999999
214,-1.345206,-1.388975,-1.476007,-0.17623699999999998,0.983516,-0.040445999999999996,-0.001163,0.001112,0.0045,-0.00165,0.001744,0.010095999999999999
215,-1.345919,-1.38905,-1.476721,-0.17619300000000002,0.9835299999999999,-0.040303,-0.0075650000000000005,-0.002049,0.001255,-0.002716,0.004797,0.009755
216,-1.347408,-1.38915,-1.478067,-0.17615799999999998,0.983548,-0.040019,-0.013980000000000001,-0.008405,-0.001986,-0.004415,0.003757,0.012554000000000001
217,-1.3487959999999999,-1.389191,-1.479206,-0.176174,0.983555,-0.039766,-0.006536,-0.013758000000000001,-0.001927,-0.002049,0.002315,0.011446
218,-1.349959,-1.389154,-1.4800870000000002,-0.176256,0.983548,-0.039569,-0.004398,-0.014822,-0.0040479999999999995,-0.0017530000000000002,-0.000425,0.003803
219,-1.350716,-1.389058,-1.480582,-0.176378,0.9835309999999999,-0.039456,-0.0033159999999999995,-0.014813,-0.007245000000000001,-0.0016309999999999999,-0.000407,0.0036899999999999997
220,-1.3518430000000001,-1.388922,-1.4813610000000001,-0.176554,0.983506,-0.039287,-0.000135,-0.021207,-0.009351,-0.002523,0.005645000000000001,0.007181999999999999
221,-1.3524,-1.3887770000000002,-1.481455,-0.176714,0.9834799999999999,-0.039219,0.00197,-0.024423,-0.0061270000000000005,-0.001417,0.002344,0.004063000000000001
222,-1.352774,-1.388681,-1.481356,-0.176822,0.9834629999999999,-0.039174,0.00196,-0.023371,-0.002924,-0.0040409999999999995,0.005017,0.003834
223,-1.352976,-1.388639,-1.481161,-0.176871,0.983455,-0.039147,0.004045,-0.017824,-0.000813,-0.008004,0.006642,0.009759
224,-1.352971,-1.38868,-1.480866,-0.176832,0.9834629999999999,-0.039139,0.0019309999999999998,-0.011433,0.001301,-0.007753,0.00137,0.0073549999999999996
225,-1.3533959999999998,-1.388757,-1.481117,-0.17677400000000001,0.983477,-0.039048,-0.002327,-0.0039829999999999996,0.006603,-0.007445,0.002317,0.008744
226,-1.3534329999999999,-1.3888040000000001,-1.481082,-0.176731,0.983485,-0.039031,0.000907,-0.001842,0.001281,-0.002301,0.0035909999999999996,0.008636
227,-1.353583,-1.388773,-1.481228,-0.176766,0.9834790000000001,-0.039011000000000004,0.0019879999999999997,-0.0018329999999999998,-0.001916,-0.005988,-0.008244,0.009943
228,-1.353883,-1.388742,-1.48157,-0.176808,0.983474,-0.038965,-0.0054659999999999995,0.00245,-0.0009050000000000001,-0.005565,0.001267,0.010995999999999999
229,-1.353883,-1.388642,-1.481654,-0.176903,0.983456,-0.038986,0.006313,0.006691,-0.006169,0.002282,0.0060609999999999995,0.011978
230,-1.353673,-1.388488,-1.481603,-0.177043,0.9834280000000001,-0.039056,0.000968,0.0087,-0.006161,0.001475,0.0036479999999999998,0.004998
231,-1.353744,-1.388292,-1.4818209999999998,-0.177235,0.983392,-0.039085,-9.4e-05,0.004464,-0.011504,0.001789,0.00231,0.003013
232,-1.3545459999999998,-1.388025,-1.482685,-0.177522,0.983344,-0.038999,-0.0054340000000000005,0.001295,-0.013673,0.00229,0.0034119999999999997,0.004026
233,-1.3557,-1.387833,-1.483846,-0.177751,0.983309,-0.038834,-0.0043950000000000005,-0.0008560000000000001,-0.00939,0.002198,0.004164,0.007935
234,-1.3563610000000001,-1.3877110000000001,-1.484422,-0.177894,0.9832870000000001,-0.038742,-0.004439,-0.0061990000000000005,-0.005111,0.0021579999999999998,0.007055,0.008865999999999999
235,-1.356814,-1.387627,-1.48469,-0.177992,0.9832709999999999,-0.038679000000000005,0.001948,-0.010478,-0.006129,-0.0029010000000000004,0.005117,0.010251999999999999
236,-1.356559,-1.387481,-1.484259,-0.178123,0.983245,-0.038755,0.008373,-0.005174,-0.006091,-0.003167,-0.00024300000000000002,0.007031999999999999
237,-1.3559940000000001,-1.387333,-1.483681,-0.178244,0.983218,-0.038887,0.005202,0.0022890000000000002,-0.005055,-0.006144,-0.000735,0.006813
238,-1.355903,-1.387206,-1.483714,-0.178361,0.983195,-0.03893,0.0020559999999999997,0.008226,-0.008165,-0.008666,0.000265,0.004582
239,-1.3562809999999998,-1.386965,-1.484378,-0.178607,0.983151,-0.038912999999999996,-0.0064069999999999995,0.017868000000000002,-0.014646000000000001,-0.004605,0.00095,0.005359
240,-1.356934,-1.386723,-1.485496,-0.178866,0.9831059999999999,-0.038847,-0.005321,0.025309,-0.011443,-0.005125,0.00487,0.010389
241,-1.357401,-1.386559,-1.486538,-0.179041,0.9830760000000001,-0.038797000000000005,-0.00745,0.030625,-0.0071920000000000005,-0.012472,0.0057090000000000005,0.012537000000000001
242,-1.357518,-1.3865299999999998,-1.487354,-0.179073,0.9830709999999999,-0.038782,-0.00533,0.032727,-0.0018390000000000001,-0.008427,0.006339,0.010828
243,-1.357276,-1.386614,-1.487848,-0.178983,0.983086,-0.038807999999999995,-0.002163,0.036930000000000004,0.009928,-0.015125,0.006095000000000001,0.02416
244,-1.35591,-1.38691,-1.487048,-0.178645,0.9831409999999999,-0.03899,0.010534,0.026182,0.022849,-0.024267,-0.00049,0.026477999999999998
245,-1.353725,-1.387247,-1.485178,-0.17823699999999998,0.983202,-0.039309,0.01583,0.015519,0.020763999999999998,-0.017473,-0.013491,0.019504
246,-1.35313,-1.387305,-1.48463,-0.17815799999999998,0.9832129999999999,-0.039403,-0.0011970000000000001,-0.004542,-0.00924,-0.001637,-0.018384,0.007802
247,-1.356822,-1.386387,-1.4878360000000002,-0.17918399999999998,0.9830450000000001,-0.038937,-0.02775,-0.038689,-0.075571,0.013626,-0.016858,-0.013996000000000001
248,-1.366221,-1.38412,-1.496268,-0.181723,0.982626,-0.037703,-0.059502,-0.059572,-0.153746,0.025167,-0.008520999999999999,-0.026063
249,-1.378955,-1.380498,-1.50829,-0.18568099999999998,0.9819479999999999,-0.036065,-0.078288,-0.028364999999999998,-0.21587399999999998,0.013165000000000001,0.012117000000000001,-0.025886000000000003
250,-1.3907459999999998,-1.376598,-1.520406,-0.189859,0.981203,-0.034558,-0.07274800000000001,0.02485,-0.20842600000000003,-8.2e-05,0.034956,-0.02196
251,-1.39854,-1.3733879999999998,-1.529518,-0.193226,0.9805780000000001,-0.033618,-0.055707000000000007,0.071449,-0.15495599999999998,-0.002147,0.020597,-0.027264999999999998
252,-1.40398,-1.371278,-1.536881,-0.195446,0.9801620000000001,-0.032909,-0.054755,0.103173,-0.09730599999999999,-0.000599,0.005495,-0.024326
253,-1.405628,-1.370254,-1.541074,-0.19649,0.979959,-0.032751999999999996,-0.026074,0.128426,-0.043726999999999995,0.008334000000000001,0.010535,-0.019036
254,-1.4046969999999999,-1.370203,-1.542814,-0.196508,0.979949,-0.032943,-0.017766999999999998,0.13228399999999998,0.015128999999999998,0.020498,0.017274,-0.026810000000000004
255,-1.4034790000000001,-1.371291,-1.544146,-0.195415,0.980165,-0.033005,-0.027638,0.123591,0.066346,0.020656,0.015731000000000002,-0.027832
256,-1.401361,-1.373156,-1.544095,-0.193543,0.980533,-0.033111,-0.012969999999999999,0.098897,0.10173099999999999,0.033555,0.013241999999999999,-0.015366999999999999
257,-1.396888,-1.375325,-1.541272,-0.191297,0.9809559999999999,-0.033608,0.018854,0.072099,0.115875,0.041867,0.003022,-0.010765
258,-1.391823,-1.377483,-1.5375,-0.189039,0.9813729999999999,-0.034199,0.016682,0.058279,0.110536,0.02429,0.014049,0.001927
259,-1.385774,-1.37975,-1.5321770000000001,-0.186641,0.981806,-0.034932,0.030425999999999998,0.037961,0.11813599999999999,0.018672,0.007208,0.017644
260,-1.38107,-1.381867,-1.527685,-0.18443099999999998,0.9822059999999999,-0.035417000000000004,0.012203,0.001873,0.100963,0.024153,0.0038469999999999997,0.05421599999999999
261,-1.377724,-1.383402,-1.523456,-0.182833,0.9824930000000001,-0.035745,0.038736,-0.066248,0.063848,0.008867,0.012487,0.09404900000000001
262,-1.370891,-1.384188,-1.5147540000000002,-0.181825,0.9826389999999999,-0.03684,0.085635,-0.09615800000000001,0.043918,-0.006057,-0.020419999999999997,0.074849
263,-1.367085,-1.384377,-1.508633,-0.181501,0.9826739999999999,-0.037494,0.024907,-0.121379,0.000857,-0.008043999999999999,-0.032097,0.03757
264,-1.372579,-1.384077,-1.511751,-0.181991,0.982619,-0.036554,-0.035726,-0.11888699999999999,-0.036957,-0.019334,0.00403,0.041223
265,-1.379404,-1.383249,-1.516312,-0.183033,0.9824649999999999,-0.035464999999999997,-0.012131,-0.11461500000000001,-0.060299,-0.027065,0.014453,0.030094
266,-1.3840430000000001,-1.381873,-1.5188059999999999,-0.184523,0.9822069999999999,-0.034867,0.005072999999999999,-0.09651799999999999,-0.071952,-0.016511,0.004899000000000001,0.019425
267,-1.3873659999999999,-1.3805180000000001,-1.520422,-0.185945,0.981952,-0.034496,-0.001323,-0.083759,-0.060263,-0.00598,0.010984,0.003414
268,-1.391178,-1.379469,-1.522243,-0.187086,0.9817530000000001,-0.03397,0.0006,-0.116845,-0.04632,0.001936,0.007047,0.002415
269,-1.394177,-1.37893,-1.52245,-0.18770699999999998,0.98165,-0.033502,0.013081,-0.155372,-0.013068999999999999,-0.014854,0.015054,-0.00495
270,-1.395993,-1.379246,-1.520615,-0.18746300000000002,0.9817100000000001,-0.033107,0.020161000000000002,-0.188634,0.040434,-0.027808,0.019221000000000002,0.001674
271,-1.3949989999999999,-1.3805690000000002,-1.515714,-0.18615299999999999,0.9819610000000001,-0.033067,0.041286,-0.184694,0.094111,-0.05019,-0.008756,0.015946000000000002
272,-1.391545,-1.383095,-1.508828,-0.183595,0.9824360000000001,-0.033267000000000005,0.050758,-0.15301199999999998,0.155025,-0.09997400000000001,0.021913,0.091738
273,-1.379526,-1.385913,-1.494165,-0.180463,0.982958,-0.034944,0.142729,-0.09690399999999999,0.163073,-0.090624,0.001997,0.08845700000000001
274,-1.362752,-1.3879700000000001,-1.475922,-0.177874,0.983334,-0.037549,0.126129,-0.03701,0.11801500000000001,-0.052046,-0.036663,0.045926
275,-1.353094,-1.389018,-1.465814,-0.17649700000000001,0.983524,-0.039043,0.060396000000000005,-0.0035210000000000003,0.058761,-0.009568,-0.016727000000000002,0.02061
276,-1.3509879999999999,-1.388907,-1.463514,-0.176522,0.983504,-0.039438,-5.1e-05,-0.009351,-0.029248000000000003,-0.006705,-0.015822,0.011667
277,-1.3562319999999999,-1.387406,-1.468963,-0.178169,0.983231,-0.038826,-0.030554,0.024036000000000002,-0.093598,0.015709,-0.001389,-0.008827
278,-1.366762,-1.3852799999999998,-1.480638,-0.18061300000000002,0.982841,-0.037370999999999995,-0.094302,0.058446000000000005,-0.118656,0.003261,-0.006233,6.4e-05
279,-1.378044,-1.383285,-1.493254,-0.182949,0.9824709999999999,-0.035707,-0.09325399999999999,0.05418099999999999,-0.11864300000000001,0.000317,-0.021183,-0.006361
280,-1.388247,-1.381292,-1.504699,-0.185229,0.9820979999999999,-0.034194,-0.074089,0.050897000000000005,-0.11316400000000001,-0.007215000000000001,0.009251,0.002013
281,-1.393902,-1.379643,-1.511611,-0.187013,0.981786,-0.033431,-0.040036,0.06025,-0.084096,-0.020034,0.026514999999999997,0.003005
282,-1.395799,-1.378606,-1.514997,-0.188079,0.9815879999999999,-0.033254,-0.011322,0.08022699999999999,-0.043329,-0.020859,0.030619,0.0028280000000000002
283,-1.393173,-1.378376,-1.514363,-0.18821300000000002,0.9815440000000001,-0.033787,0.016335,0.116132,0.011298,-0.004124,0.014336000000000002,-0.005749
284,-1.387685,-1.378957,-1.511458,-0.18746300000000002,0.9816549999999999,-0.034714999999999996,0.023712,0.13194,0.047648,0.008813,-0.0019649999999999997,-0.012465
285,-1.3825889999999998,-1.379899,-1.50871,-0.186374,0.981834,-0.035497,0.013962,0.10531700000000001,0.054024,0.049395,-0.002327,-0.024562
286,-1.378884,-1.380866,-1.50629,-0.185308,0.982017,-0.036006,0.016888999999999998,0.043524,0.053055,0.055609000000000006,0.0066,-0.016163999999999998
287,-1.375426,-1.381526,-1.502846,-0.184548,0.982142,-0.036521,0.034844,-0.018239,0.031895,0.038704,0.011251,-0.011727
288,-1.370762,-1.38173,-1.497295,-0.184179,0.9821799999999999,-0.037342,0.054009,-0.046987,0.011770000000000001,0.022955,-0.000796,-0.011868
289,-1.366166,-1.381537,-1.491478,-0.184192,0.982144,-0.038225999999999996,0.046589,-0.060712,-0.012834,0.008472,-0.007275,-0.019391
290,-1.36529,-1.381097,-1.489276,-0.184582,0.9820610000000001,-0.038475999999999996,0.011454,-0.06583,-0.034437,-0.0031620000000000003,0.005808,-0.003379
291,-1.366695,-1.3805459999999998,-1.489339,-0.185166,0.981957,-0.038326,0.0018280000000000002,-0.066879,-0.03023,-0.018493,0.015113,0.009853
292,-1.367414,-1.380172,-1.488803,-0.185555,0.981886,-0.038268,0.014616,-0.057387,-0.017334,-0.023841,0.014191999999999998,0.024993
293,-1.3652440000000001,-1.379825,-1.4857690000000001,-0.185805,0.98182,-0.03874,0.042432,-0.034074,-0.010759999999999999,-0.022416,0.006552,0.016844
294,-1.3614549999999999,-1.379438,-1.481257,-0.186029,0.9817469999999999,-0.039523,0.039226,-0.029823000000000002,-0.005447,-0.028922000000000003,0.000675,0.010867
295,-1.3592739999999999,-1.379451,-1.478515,-0.18592999999999998,0.981749,-0.039925999999999996,0.018897999999999998,-0.021315,0.015765,-0.019667,-0.008254000000000001,0.009056999999999999
296,-1.358171,-1.3798700000000002,-1.477352,-0.18548299999999998,0.9818290000000001,-0.040044,0.0018960000000000001,0.009573,0.03163,-0.001911,-0.007204,0.001469
297,-1.358047,-1.3803809999999999,-1.477742,-0.184988,0.9819260000000001,-0.039961,-0.006509999999999999,0.029876999999999997,0.022999000000000002,0.004721,0.004677000000000001,0.004103
298,-1.359084,-1.380473,-1.479544,-0.184942,0.981943,-0.03975,-0.023402000000000003,0.039644,-0.0070420000000000005,0.011845999999999999,0.000601,-0.0017230000000000001
299,-1.36153,-1.380323,-1.482821,-0.18518099999999998,0.981915,-0.039327999999999995,-0.030822000000000002,0.040773000000000004,-0.016709,0.016937999999999998,-0.006527,-0.001794
300,-1.3654110000000002,-1.380166,-1.487631,-0.18548399999999998,0.981885,-0.038641,-0.045744,0.047204,-0.013616999999999999,0.017286000000000003,0.002902,0.0014089999999999999
301,-1.368684,-1.380128,-1.4919040000000001,-0.185647,0.981878,-0.038041000000000005,-0.034018,0.046094,-0.012465,0.010217,0.011561,0.009614
302,-1.369972,-1.3801299999999999,-1.494041,-0.185693,0.981878,-0.037801,-0.015972999999999998,0.034277999999999996,-0.003778,0.0019010000000000001,0.0115,0.006795000000000001
303,-1.370278,-1.380175,-1.4949219999999999,-0.185662,0.9818870000000001,-0.037736,-0.001108,0.023552,0.00168,0.004386999999999999,0.015062,0.009446
304,-1.369249,-1.380407,-1.494207,-0.1854,0.981931,-0.037881,0.004116,0.012825999999999999,0.015618,0.015066,0.007876000000000001,0.0016420000000000002
305,-1.368295,-1.3807120000000002,-1.493266,-0.18507200000000001,0.981988,-0.037998000000000004,0.007234999999999999,-0.004234,0.016729,0.011824,0.001761,0.0013310000000000002
306,-1.3685450000000001,-1.3810209999999998,-1.4931370000000002,-0.18478499999999998,0.9820469999999999,-0.037891,-0.004582,-0.027607999999999997,0.011336,0.011536,0.001703,0.001224
307,-1.369478,-1.3812389999999999,-1.493325,-0.184612,0.982088,-0.037676,-0.00143,-0.041454000000000005,0.008171,0.001247,-0.0005809999999999999,0.010454000000000001
308,-1.3705690000000001,-1.381436,-1.493539,-0.18446300000000002,0.982125,-0.037436000000000004,-0.006769,-0.043562000000000003,0.0070680000000000005,-0.00528,0.003196,0.013663
309,-1.3719059999999998,-1.381553,-1.494089,-0.184401,0.9821469999999999,-0.037167,-0.003511,-0.035033999999999996,0.002807,-0.005342,0.0031739999999999997,0.013394
310,-1.372209,-1.38164,-1.493852,-0.18433,0.9821629999999999,-0.037094,0.0050869999999999995,-0.021216,0.002849,-0.010784,0.0032340000000000003,0.015519
311,-1.37135,-1.381732,-1.492748,-0.18420899999999998,0.982181,-0.037235000000000004,0.012607,-0.006340999999999999,0.0060869999999999995,-0.011775,0.006818,0.012592
312,-1.370116,-1.381828,-1.491491,-0.184071,0.9821989999999999,-0.037443000000000004,0.010654,0.004131,0.005054,-0.004879,0.0032600000000000003,0.009993
313,-1.369391,-1.381915,-1.490826,-0.18395899999999998,0.982215,-0.037558999999999995,0.0053,0.003071,0.008222,-0.000916,0.000573,0.013893
314,-1.3687120000000002,-1.382083,-1.4900870000000002,-0.183772,0.982246,-0.037651,0.007381,-0.005471,0.011453,0.000651,0.006843999999999999,0.010459999999999999
315,-1.368097,-1.3822709999999998,-1.489208,-0.183568,0.982282,-0.037727,0.007333,-0.015063,0.012532999999999999,-0.000819,0.005527000000000001,0.008948999999999999
316,-1.367448,-1.382515,-1.488251,-0.183308,0.9823270000000001,-0.037798000000000005,0.007324,-0.01401,0.015736,-0.002193,0.0037869999999999996,0.006456
317,-1.366787,-1.3828049999999998,-1.487286,-0.183004,0.982382,-0.037861,0.007314,-0.015080000000000001,0.016806,-0.007853,0.006113,0.006809999999999999
318,-1.366061,-1.383055,-1.486238,-0.18273599999999998,0.9824280000000001,-0.037944,0.0084,-0.015066,0.01254,-0.0060609999999999995,0.003564,0.009075
319,-1.365193,-1.383277,-1.4850450000000002,-0.182489,0.9824700000000001,-0.038058,0.009467,-0.015069999999999998,0.012548,-0.002646,0.0019510000000000003,0.00783
320,-1.364454,-1.383484,-1.483932,-0.18226099999999998,0.982508,-0.038151,0.006252000000000001,-0.017194,0.013596,-0.0008300000000000001,0.000585,0.007969
321,-1.364371,-1.383704,-1.4834370000000001,-0.182045,0.982549,-0.038122,0.0009130000000000001,-0.021422999999999998,0.01036,-0.004204,0.001185,0.010686
322,-1.3650360000000001,-1.383857,-1.483632,-0.181923,0.9825780000000001,-0.03797,-0.0033640000000000002,-0.025661,0.008199,-0.004372,0.003522,0.01087
323,-1.36599,-1.383967,-1.4841030000000002,-0.181854,0.982598,-0.037774,-0.0044020000000000005,-0.02351,0.003915999999999999,-0.0043950000000000005,0.0033179999999999998,0.009607
324,-1.366716,-1.383976,-1.4843879999999998,-0.181873,0.9826,-0.037641,-0.0022440000000000003,-0.021374,0.000724,-0.005994,0.003622,0.007428
325,-1.3675680000000001,-1.3838979999999999,-1.48484,-0.181979,0.982585,-0.037501,-0.001144,-0.019226,-0.004613,-0.004697,0.001622,0.008479
326,-1.368177,-1.383815,-1.485127,-0.182081,0.98257,-0.037406,-5.7999999999999994e-05,-0.013907,-0.003544,-0.0024289999999999997,0.005818,0.008186
327,-1.36824,-1.383715,-1.4850079999999999,-0.182179,0.9825510000000001,-0.037413999999999996,0.005315,-0.005404,-0.003517,5e-05,0.002907,0.0075840000000000005
328,-1.367792,-1.3836760000000001,-1.4845190000000001,-0.182199,0.9825440000000001,-0.037504,0.004243,-0.00116,0.001811,-0.002509,0.0035090000000000004,0.008924
329,-1.367077,-1.383791,-1.483711,-0.182061,0.9825649999999999,-0.037611,0.006319,-0.006523999999999999,0.009309999999999999,-0.005958,-0.002203,0.0064069999999999995
330,-1.365934,-1.383967,-1.4826270000000001,-0.181849,0.982598,-0.037784,0.012773,0.009415,0.013608000000000002,-0.009222,0.005729,0.004566
331,-1.363811,-1.384177,-1.480876,-0.181567,0.9826370000000001,-0.038127999999999995,0.016031,0.024309,0.015747999999999998,-0.001813,0.019681999999999998,0.015194
332,-1.360142,-1.384559,-1.477586,-0.18106,0.982708,-0.038715,0.030876,0.01781,0.029747000000000003,-0.0043490000000000004,0.013019999999999999,0.020359
333,-1.356056,-1.385025,-1.473508,-0.180453,0.9827940000000001,-0.039356999999999996,0.031838,-0.004568,0.03085,-0.013044,-0.004507,0.013768
334,-1.353273,-1.38537,-1.4704030000000001,-0.18001099999999998,0.982858,-0.039786,0.021164,-0.015144999999999999,0.021175,-0.015897,-0.0046630000000000005,0.013541
335,-1.351904,-1.3856680000000001,-1.4688379999999999,-0.179671,0.9829129999999999,-0.039969,0.008434,-0.0033659999999999996,0.016798,0.001204,-0.004946,0.010413
336,-1.3514700000000002,-1.385953,-1.468449,-0.17938099999999998,0.982965,-0.039986,-0.002187,0.006263,0.015643999999999998,0.008787,0.0018679999999999999,0.007943
337,-1.351893,-1.386215,-1.468936,-0.179145,0.9830129999999999,-0.039854,-0.005397,-0.001161,0.01029,0.012199,0.005375,0.0070019999999999995
338,-1.352657,-1.386227,-1.4695209999999999,-0.17916400000000002,0.983015,-0.039715,-0.0011099999999999999,-0.012830000000000001,-0.0056890000000000005,0.003474,0.006593000000000001,0.0064659999999999995
339,-1.3528440000000002,-1.3860709999999998,-1.469359,-0.17932,0.982987,-0.039714,0.0042049999999999995,-0.018171,-0.006712999999999999,-0.005113,0.000839,0.008708
340,-1.353058,-1.385968,-1.469258,-0.179427,0.9829680000000001,-0.039698000000000004,0.004219,-0.013914,-0.00565,-0.0045780000000000005,0.00455,0.008921
341,-1.352688,-1.385966,-1.46865,-0.17941500000000002,0.982967,-0.039764,0.007409999999999999,-0.008629000000000001,0.001843,-0.0041789999999999996,0.005375,0.007614
342,-1.351772,-1.386141,-1.467584,-0.17921099999999998,0.983,-0.039892000000000004,0.010572,-0.005490999999999999,0.013611000000000002,-0.000843,0.0048850000000000005,0.006002
343,-1.3502,-1.3864370000000001,-1.465869,-0.178865,0.9830540000000001,-0.04011,0.015878,-0.006595999999999999,0.018991,0.002107,0.004953,0.005579
344,-1.348207,-1.386715,-1.463682,-0.17852,0.9831049999999999,-0.040406,0.019074,-0.008733,0.017948,0.0005110000000000001,0.004215,0.005921
345,-1.346179,-1.386981,-1.461476,-0.178182,0.983153,-0.04071,0.016964,-0.004461,0.016859,-0.001551,0.002091,0.005004
346,-1.344047,-1.3872440000000001,-1.459316,-0.177844,0.983201,-0.041032,0.017002,0.004061,0.016849,-0.001492,0.004653,0.002091
347,-1.341816,-1.387489,-1.4572260000000001,-0.177517,0.983246,-0.041373,0.015974000000000002,0.010465,0.014697,0.001873,0.006729000000000001,0.003867
348,-1.339476,-1.3877110000000001,-1.455084,-0.177207,0.9832870000000001,-0.041739,0.017055,0.012596,0.013633000000000001,0.002539,0.0038200000000000005,0.00588
349,-1.336964,-1.387907,-1.452815,-0.17691400000000002,0.9833219999999999,-0.042138999999999996,0.02143,0.014683000000000002,0.015780000000000002,0.0035280000000000003,0.006241,0.002954
350,-1.333769,-1.3881620000000001,-1.4498520000000001,-0.176536,0.983369,-0.042644999999999995,0.024607,0.012529,0.01901,-0.007684000000000001,0.008895,0.003385
351,-1.330241,-1.388609,-1.4464569999999999,-0.175959,0.98345,-0.043164,0.023434,0.009255,0.039302,-0.014471000000000001,0.001292,0.005825
352,-1.327069,-1.3895899999999999,-1.443326,-0.17488499999999998,0.983627,-0.043489,0.006229999999999999,0.000708,0.06055700000000001,-0.017284,-0.012909,0.023698
353,-1.325712,-1.3907129999999999,-1.441765,-0.173756,0.9838290000000001,-0.043458,0.010445,-0.013147,0.05846799999999999,-0.03947,0.019344999999999998,0.057222
354,-1.318301,-1.3918110000000001,-1.433944,-0.172382,0.984025,-0.044475,0.078648,-0.011332,0.07817,-0.038098,-0.005219,0.056789
355,-1.308934,-1.392682,-1.424323,-0.171129,0.9841799999999999,-0.045864999999999996,0.057445,-0.00265,0.056646,-0.016309999999999998,-0.022021000000000002,0.026044
356,-1.306662,-1.39303,-1.421999,-0.170693,0.984241,-0.046164,9.300000000000001e-05,0.002026,0.002829,0.010827,-0.00066,9.8e-05
357,-1.310403,-1.392355,-1.426014,-0.171507,0.9841219999999999,-0.045697,-0.033678,0.019449,-0.062591,0.018003,0.009103,-0.00043099999999999996
358,-1.318052,-1.390686,-1.4344540000000001,-0.17344,0.983824,-0.044794,-0.04735,0.040289,-0.112009,0.024544999999999997,0.007065999999999999,-0.005194
359,-1.325415,-1.388428,-1.442718,-0.17592,0.983417,-0.044055000000000004,-0.039833999999999994,0.033939,-0.12904000000000002,0.03058,0.004697,-0.02168
360,-1.332527,-1.386136,-1.450359,-0.17841700000000002,0.982999,-0.043335000000000005,-0.039939999999999996,0.013687000000000001,-0.12580999999999998,0.028408,0.004993,-0.024475
361,-1.339426,-1.3842079999999999,-1.457431,-0.180555,0.982643,-0.042537,-0.044389,-0.002376,-0.101251,0.014509000000000001,0.007363,-0.028249
362,-1.346489,-1.382973,-1.464569,-0.182033,0.9824129999999999,-0.041530000000000004,-0.054135,0.0017739999999999998,-0.065005,0.0020870000000000003,0.010781,-0.024861
363,-1.3515540000000001,-1.382579,-1.470038,-0.18262,0.982339,-0.040692,-0.035085000000000005,0.024913,-0.0072180000000000005,-0.007947,0.020468,-0.015338
364,-1.3507120000000001,-1.383394,-1.470166,-0.181805,0.982491,-0.040671,0.004226,0.05646,0.06138300000000001,-0.011341,0.02999,-0.00657
365,-1.344139,-1.385458,-1.464764,-0.179557,0.982874,-0.041408999999999994,0.029335000000000003,0.061675,0.133967,-0.018533,-0.019906999999999998,0.013257
366,-1.336247,-1.388628,-1.457824,-0.17619300000000002,0.983453,-0.042101,0.027971,0.046560000000000004,0.185252,-0.020081,6e-06,0.040697000000000004
367,-1.321952,-1.391939,-1.443862,-0.172415,0.9840479999999999,-0.043813,0.119582,0.01853,0.189132,-0.03753,0.013313,0.082707
368,-1.3022639999999999,-1.394169,-1.424165,-0.169404,0.984442,-0.046616000000000005,0.128376,0.015547,0.12830899999999998,-0.000106,-0.033499,0.013383
369,-1.2918100000000001,-1.395024,-1.413805,-0.168098,0.984592,-0.048152999999999994,0.053021000000000006,0.006613,0.030586000000000002,0.03466,0.006024,-0.014897
370,-1.291847,-1.394217,-1.413685,-0.168863,0.98445,-0.048365,-0.007416,-0.009819,-0.070228,0.053095,0.00702,-0.019368
371,-1.302918,-1.39196,-1.424331,-0.17153,0.984051,-0.047081,-0.07649299999999999,-0.036924,-0.15827,0.026129000000000003,-0.009762,-0.006111
372,-1.318143,-1.3890129999999998,-1.438921,-0.175036,0.9835229999999999,-0.045189,-0.092453,-0.051684,-0.18293199999999998,0.029422000000000004,-0.011781999999999999,-0.016334
373,-1.335107,-1.385932,-1.45486,-0.178723,0.9829610000000001,-0.042921,-0.108748,-0.069501,-0.184343,0.009045000000000001,-0.005849,-0.01169
374,-1.351867,-1.383378,-1.47055,-0.181868,0.982489,-0.040465,-0.115254,-0.063206,-0.15448599999999998,-0.033144,0.013163,-0.003908
375,-1.364976,-1.381207,-1.483162,-0.18447,0.982082,-0.038513,-0.081072,-0.014481,-0.11478499999999998,-0.036431,0.02332,-0.010147
376,-1.372419,-1.380058,-1.491282,-0.185857,0.981864,-0.037361,-0.053333000000000005,0.050143,-0.049513,-0.027247000000000004,0.040841,-0.001137
377,-1.3734950000000001,-1.3801450000000002,-1.494219,-0.185813,0.981881,-0.037143999999999996,-0.017122,0.11043800000000001,0.025438,0.0010140000000000001,0.017554,-0.0071519999999999995
378,-1.3700780000000001,-1.381705,-1.493303,-0.184184,0.982175,-0.037474,0.000717,0.131331,0.11313,0.005442,0.018878,-0.0002
379,-1.361831,-1.3846040000000002,-1.487323,-0.181083,0.982716,-0.038401,0.040865,0.10855899999999999,0.178602,-0.006661,-0.013890000000000001,0.025415
380,-1.349022,-1.388293,-1.4761229999999999,-0.177039,0.983392,-0.039919,0.081089,0.074184,0.215246,-0.032999,0.021506,0.08658099999999999
381,-1.3273629999999998,-1.391797,-1.455215,-0.172787,0.984022,-0.042913,0.177035,0.051503,0.209536,-0.030964,-0.013884,0.07017999999999999
382,-1.303461,-1.394169,-1.431884,-0.169461,0.984442,-0.046414,0.145023,0.042488,0.131012,0.008465,-0.044806,0.028758999999999996
383,-1.292836,-1.395057,-1.421426,-0.16811800000000002,0.984598,-0.047972,0.044982,-0.00044500000000000003,0.032091,0.051403,0.015662,0.002882
384,-1.297159,-1.394141,-1.424986,-0.169193,0.9844370000000001,-0.047488999999999996,-0.048566000000000005,-0.061357,-0.105216,0.032413,-0.00557,0.008716
385,-1.313337,-1.39174,-1.439716,-0.172224,0.9840120000000001,-0.045347000000000005,-0.09643600000000001,-0.091835,-0.167469,0.015547,-0.009616,0.017606999999999998
386,-1.33139,-1.38842,-1.4560540000000002,-0.176188,0.9834149999999999,-0.043005,-0.101617,-0.100168,-0.210223,0.012461,-0.008851999999999999,0.0008609999999999999
387,-1.34982,-1.3847969999999998,-1.472761,-0.180425,0.9827520000000001,-0.040532,-0.10798900000000002,-0.10330299999999999,-0.219877,-0.008265,-0.002482,-0.000606
388,-1.36731,-1.3812520000000001,-1.488546,-0.18451800000000002,0.98209,-0.038074000000000004,-0.10376500000000001,-0.091685,-0.198498,-0.029486000000000002,0.024151,-0.005475
389,-1.3814899999999999,-1.378411,-1.501534,-0.187781,0.9815510000000001,-0.035979000000000004,-0.087177,-0.056785,-0.14115999999999998,-0.027139,0.045015,-0.0017100000000000001
390,-1.390993,-1.3770149999999999,-1.510728,-0.189462,0.981283,-0.034437999999999996,-0.06172999999999999,-0.005026,-0.053453999999999995,-0.033973,0.051615,0.008315000000000001
391,-1.392665,-1.377708,-1.513051,-0.188851,0.981416,-0.034000999999999997,-0.010860999999999999,0.049665,0.078222,-0.011482,0.013121,0.017689
392,-1.386955,-1.380236,-1.508445,-0.18621300000000002,0.9818979999999999,-0.034625,0.037869,0.064041,0.17041199999999998,-0.014562,0.018453,0.049822000000000005
393,-1.37399,-1.384048,-1.496381,-0.182077,0.982613,-0.036304,0.099446,0.044458,0.218937,-0.019797,0.007148000000000001,0.054706
394,-1.35485,-1.387685,-1.477734,-0.177857,0.983282,-0.039016,0.138924,0.034775,0.20854299999999998,0.000901,-0.024465,0.015578
395,-1.33774,-1.3901629999999998,-1.461119,-0.174793,0.9837299999999999,-0.04149,0.10519200000000001,0.043745,0.12604200000000002,0.023853,-0.0037340000000000003,0.00049
396,-1.326601,-1.391031,-1.450793,-0.173489,0.983886,-0.043227999999999996,0.06404,0.047478,0.027474000000000002,0.035611000000000004,0.003312,-0.002487
397,-1.324816,-1.390398,-1.449634,-0.174016,0.983772,-0.043689,0.000172,0.021156,-0.052034000000000004,0.035207,-0.009498999999999999,0.007648
398,-1.330382,-1.388786,-1.4552969999999998,-0.175797,0.983482,-0.043098000000000004,-0.038154,-0.014712000000000001,-0.106735,0.024567,-0.004279,0.005103
399,-1.339317,-1.38667,-1.463657,-0.178199,0.9830969999999999,-0.042002,-0.05313300000000001,-0.045467,-0.128165,0.023979,0.0064659999999999995,0.005381
400,-1.3491229999999999,-1.3843219999999998,-1.472129,-0.180854,0.982664,-0.040760000000000005,-0.04899,-0.089094,-0.144103,-0.005014,0.0058460000000000005,0.002552
401,-1.359482,-1.382011,-1.480872,-0.18348599999999998,0.982233,-0.039361,-0.054372000000000004,-0.084874,-0.129191,-0.021486,0.015707,0.006371
402,-1.3683889999999999,-1.380279,-1.4885979999999999,-0.18549300000000002,0.981906,-0.038066,-0.048033,-0.053121,-0.083254,-0.038902,0.018078,0.017131
403,-1.372837,-1.37978,-1.492521,-0.186143,0.9818120000000001,-0.037337999999999996,-0.022611000000000003,-0.015177000000000001,-0.004077,-0.035414999999999995,0.012343999999999999,0.017256999999999998
404,-1.372917,-1.380627,-1.49268,-0.18533,0.981972,-0.037159,-0.000384,0.015356,0.06654199999999999,-0.025424000000000002,0.004661,0.027576999999999997
405,-1.367661,-1.382464,-1.4879440000000002,-0.183363,0.982318,-0.037768,0.043237,0.036317,0.11489,-0.009798000000000001,0.00958,0.023578
406,-1.357286,-1.384681,-1.478309,-0.180832,0.9827309999999999,-0.039207,0.0709,0.045613,0.130081,-0.002182,-0.004657,0.013084
407,-1.346847,-1.3864809999999999,-1.468651,-0.17868699999999998,0.9830620000000001,-0.0407,0.063604,0.048976,0.094775,0.006324000000000001,-0.007308,-0.000926
408,-1.3398430000000001,-1.3874469999999999,-1.462658,-0.177472,0.983239,-0.041732,0.030824,0.0589,0.038985,0.011991,-0.003594,-0.001038
409,-1.3376709999999998,-1.387269,-1.461602,-0.177551,0.9832059999999999,-0.042158,0.0076170000000000005,0.053912,-0.025263999999999998,0.020828,-0.004538,-0.0016190000000000002
410,-1.340349,-1.3862139999999998,-1.4650290000000001,-0.178675,0.9830129999999999,-0.04192,-0.036038,0.022311,-0.076803,0.016261,0.004719,-0.001232
411,-1.34893,-1.384644,-1.4736850000000001,-0.180533,0.9827239999999999,-0.040725,-0.069188,-0.021141999999999998,-0.103684,0.008291,0.006611,0.0027
412,-1.358527,-1.382862,-1.4827700000000001,-0.182625,0.982392,-0.039359,-0.058572000000000006,-0.036081,-0.106795,-0.001441,0.0043170000000000005,0.002432
413,-1.366392,-1.381198,-1.490032,-0.184528,0.98208,-0.038252999999999995,-0.046867,-0.035657999999999995,-0.09407599999999999,-0.010662999999999999,0.010092,0.000563
414,-1.372234,-1.379818,-1.495549,-0.186076,0.981819,-0.037441,-0.031936,-0.013433,-0.070499,-0.011175,0.00837,0.00288
415,-1.375426,-1.378954,-1.4987540000000001,-0.187028,0.9816549999999999,-0.037012,-0.014938,0.002359,-0.038354,-0.014999,0.008945999999999999,-0.001379
416,-1.376261,-1.37873,-1.4998559999999999,-0.187275,0.981612,-0.036898,-0.00648,0.02242,-0.000933,0.008319,0.0065780000000000005,0.00072
417,-1.374868,-1.37913,-1.499196,-0.18683699999999998,0.9816879999999999,-0.037082,0.009470999999999999,0.042476,0.0312,0.012872,0.005525,-0.002255
418,-1.371518,-1.379861,-1.496673,-0.18600999999999998,0.981827,-0.037566,0.01901,0.042387,0.045153,0.018040999999999998,0.01036,-0.005128
419,-1.367833,-1.380642,-1.493599,-0.185118,0.981975,-0.038097000000000006,0.022163,0.02854,0.041988,0.014494,0.0046429999999999996,-0.002568
420,-1.364765,-1.381253,-1.490992,-0.18441300000000002,0.98209,-0.038542,0.0158,0.024353,0.029131,0.011484999999999999,0.0028190000000000003,0.0019510000000000003
421,-1.362787,-1.381564,-1.489377,-0.18403699999999998,0.9821489999999999,-0.038843,0.007312999999999999,0.016998,0.010921,0.007951,0.000197,0.005076
422,-1.362175,-1.3817,-1.489035,-0.183884,0.982175,-0.038928,-0.00196,0.008555,-0.00035800000000000003,-0.002838,0.002612,0.00838
423,-1.362652,-1.3815950000000001,-1.489555,-0.184004,0.9821549999999999,-0.038862,-0.005155,-0.000978,-0.01105,-0.004533,0.004372,0.010451
424,-1.36391,-1.381306,-1.490709,-0.18433,0.9821,-0.038689,-0.005146,-0.008397,-0.020655,-0.007946,0.002687,0.0131
425,-1.364701,-1.38093,-1.491315,-0.184722,0.982029,-0.038619,0.001251,-0.009484000000000001,-0.020609,-0.009858,0.004619,0.009947
426,-1.3650639999999998,-1.380584,-1.491571,-0.185068,0.981964,-0.038620999999999996,0.002313,-0.005248,-0.015266,-0.007193000000000001,0.0023190000000000003,0.007936
427,-1.365607,-1.380342,-1.4920200000000001,-0.18532300000000002,0.9819180000000001,-0.038569,-0.001979,-0.004194,-0.008888,-0.005107,0.004044,0.013696999999999999
428,-1.366362,-1.380183,-1.492681,-0.185504,0.9818879999999999,-0.038461,-0.005194,-0.005256,-0.006772,-0.0033539999999999998,0.002304,0.013940000000000001
429,-1.367423,-1.380087,-1.493642,-0.185637,0.98187,-0.038283,-0.008399,-0.0063100000000000005,-0.006793,-0.00139,-0.000165,0.01541
430,-1.369129,-1.379939,-1.495218,-0.185845,0.981842,-0.037995999999999995,-0.015895,-0.008548,-0.011236,-0.002234,-0.002121,0.014787
431,-1.371566,-1.379678,-1.497509,-0.18618800000000002,0.981793,-0.037593,-0.017991,-0.009567,-0.020863,0.008728,0.00033999999999999997,0.010188
432,-1.374547,-1.379083,-1.500204,-0.186873,0.9816790000000001,-0.037152,-0.020072,-0.020123,-0.043297,0.007872,0.005214,0.009335
433,-1.3781889999999999,-1.3780729999999999,-1.503422,-0.18798,0.9814860000000001,-0.036661,-0.018938,-0.024311000000000003,-0.062512,0.0041270000000000005,0.006901999999999999,-0.000571
434,-1.382747,-1.376792,-1.50756,-0.189381,0.98124,-0.036039,-0.031682999999999996,-0.023153999999999997,-0.074353,0.005986,0.006141,-0.0026420000000000003
435,-1.388803,-1.375473,-1.513263,-0.190871,0.980985,-0.035126,-0.045551999999999995,-0.023106,-0.07445,0.00044100000000000004,-0.000684,-0.001968
436,-1.395253,-1.374301,-1.519387,-0.192225,0.980757,-0.034095,-0.045571,-0.01994,-0.066976,-0.007497,0.007859999999999999,0.004706
437,-1.3999110000000001,-1.3732739999999999,-1.52386,-0.193376,0.980556,-0.033371,-0.02531,-0.0051649999999999995,-0.049762,-0.012159999999999999,0.006383,-0.000306
438,-1.402311,-1.3727,-1.52645,-0.194011,0.9804430000000001,-0.033001,-0.015656,0.015041999999999998,-0.022761,-0.004063000000000001,0.008876,-0.003071
439,-1.403191,-1.372471,-1.527883,-0.194262,0.980398,-0.032868,-0.012454999999999999,0.027762000000000002,-0.009936,0.024538,0.009545999999999999,-0.008606
440,-1.4037629999999999,-1.372466,-1.528939,-0.19428499999999999,0.980397,-0.032757,-0.0018629999999999999,0.023413,0.0029620000000000002,0.032099,0.019038,0.0035060000000000004
441,-1.401332,-1.372601,-1.526549,-0.194074,0.980424,-0.033207,0.029932,-0.0076549999999999995,0.019247,0.034207,0.014922,0.001209
442,-1.398512,-1.37303,-1.522939,-0.19356600000000002,0.980508,-0.033682,0.029682999999999998,-0.052439,0.029985,0.032906,-0.002175,0.005011
443,-1.397836,-1.373457,-1.5204959999999998,-0.193131,0.980592,-0.033741,0.015665000000000002,-0.100268,0.014994,0.016495,-0.001954,0.010043999999999999
444,-1.398696,-1.3736709999999999,-1.518928,-0.19295199999999998,0.980634,-0.033539,0.012387,-0.125789,0.006458,-0.010386,-0.00314,0.019028
445,-1.399399,-1.373626,-1.517375,-0.193017,0.980625,-0.03341,0.018019,-0.099216,-0.00926,-0.027014,-0.0033759999999999997,0.020578
446,-1.400226,-1.373362,-1.516746,-0.1933,0.9805729999999999,-0.033295,0.00227,-0.049067,-0.015843,-0.051878,0.007906,0.032242
447,-1.399902,-1.373016,-1.516418,-0.193623,0.980505,-0.033415,0.012251,0.026568,-0.024416,-0.061458000000000006,0.01272,0.027495
448,-1.397783,-1.372408,-1.515708,-0.194138,0.9803860000000001,-0.033928,0.008328,0.096916,-0.030943000000000002,-0.069137,0.0033179999999999998,0.029472
449,-1.39605,-1.371834,-1.516735,-0.194632,0.9802719999999999,-0.034362000000000004,-0.009559,0.161922,-0.021537999999999998,-0.05834400000000001,-0.01082,0.026503
450,-1.395673,-1.371704,-1.52025,-0.194746,0.980247,-0.034457,-0.041469,0.20880300000000002,0.003817,-0.050371,0.002908,0.027972000000000004
451,-1.394876,-1.371942,-1.524008,-0.19449,0.9802930000000001,-0.034572000000000006,-0.029689999999999998,0.234264,0.01989,-0.039427,-0.000359,0.01704
452,-1.392855,-1.37256,-1.526904,-0.193823,0.9804149999999999,-0.034858,-0.039297000000000006,0.249148,0.035827,-0.031915,-0.006218,0.01992
453,-1.391751,-1.37352,-1.5310700000000002,-0.192858,0.9806040000000001,-0.034904000000000004,-0.047807999999999996,0.262992,0.044295999999999995,-0.019346000000000002,-0.001814,0.023231
454,-1.392387,-1.374572,-1.5366389999999999,-0.191867,0.9808100000000001,-0.034599,-0.074545,0.230868,0.054037,0.001757,-0.002706,-0.005379
455,-1.397833,-1.3757620000000002,-1.546196,-0.190902,0.9810409999999999,-0.033352,-0.10559400000000001,0.193743,0.041049,0.032576999999999995,0.008537000000000001,0.023785
456,-1.400828,-1.3764370000000001,-1.553352,-0.190349,0.9811719999999999,-0.032668,-0.047816000000000004,0.203239,0.013666999999999999,0.03358,0.005675,0.010024
457,-1.400767,-1.376494,-1.556913,-0.19029300000000002,0.981183,-0.032671,-0.037262,0.158538,-0.00543,0.029144999999999997,0.006214,0.005144
458,-1.402699,-1.376415,-1.561469,-0.190431,0.981167,-0.032316000000000004,-0.037449,0.10956500000000001,-0.012846000000000002,0.017427,0.009067,0.020765000000000002
459,-1.402647,-1.3763610000000002,-1.56321,-0.19048099999999998,0.981157,-0.032335,-0.006692,0.078526,-0.002977,0.013571000000000001,0.008620000000000001,0.01674
460,-1.401873,-1.376647,-1.5638809999999999,-0.19018,0.9812120000000001,-0.032435000000000005,-0.008936,0.068887,0.011974,0.018137,0.004719,0.004908
461,-1.402366,-1.37707,-1.5656379999999999,-0.189788,0.981294,-0.032272,-0.025001,0.057215999999999996,0.014013999999999999,0.025222,0.00656,0.0030510000000000003
462,-1.4035799999999998,-1.377258,-1.567803,-0.189645,0.9813299999999999,-0.032011000000000005,-0.018639,0.037001,0.002334,0.025079,0.006523999999999999,0.00279
463,-1.40452,-1.377332,-1.569225,-0.189604,0.9813440000000001,-0.03182,-0.013356999999999999,0.017837000000000002,-0.005083,0.020399,0.005152,-0.004647999999999999
464,-1.405729,-1.377337,-1.570733,-0.189638,0.981345,-0.031591,-0.010121,0.011337,-0.004921,0.02263,0.002023,-0.005122
465,-1.4057879999999998,-1.377349,-1.570812,-0.189627,0.981347,-0.031577,0.00149,-0.006852,0.004797999999999999,0.022619999999999998,0.0020210000000000002,-0.005135
466,-1.406297,-1.37763,-1.570806,-0.189371,0.981401,-0.031435000000000005,-0.000826,-0.038837,0.013368000000000001,0.019296,0.009001,0.0032979999999999997
467,-1.4060290000000002,-1.378012,-1.569261,-0.18899200000000002,0.981475,-0.031425,0.017119,-0.075145,0.01995,0.011807,0.0075239999999999994,-0.00022200000000000003
468,-1.405571,-1.3784450000000001,-1.5670190000000002,-0.188559,0.981557,-0.031441000000000004,0.020224000000000002,-0.092217,0.024266,0.002921,0.004908,0.004006
469,-1.4046,-1.378863,-1.564072,-0.188122,0.9816370000000001,-0.031556,0.025544,-0.098615,0.021107,-0.003315,-2.4e-05,0.008805
470,-1.403857,-1.379199,-1.561221,-0.187771,0.981701,-0.031641,0.022328999999999998,-0.10498199999999999,0.017888,-0.007862000000000001,0.0008269999999999999,0.014185
471,-1.403649,-1.379492,-1.558881,-0.187478,0.981757,-0.031632,0.018081,-0.102828,0.015719,-0.014150999999999999,0.001779,0.023087
472,-1.403626,-1.379644,-1.556921,-0.18733,0.981786,-0.031611,0.017113999999999997,-0.088942,0.007148999999999999,-0.018267,0.000743,0.021784
473,-1.4036030000000002,-1.379643,-1.555351,-0.187331,0.981786,-0.031616000000000005,0.015105,-0.06654299999999999,0.0017649999999999999,-0.017107,0.0012619999999999999,0.023971
474,-1.4027120000000002,-1.379492,-1.5533059999999999,-0.187448,0.981757,-0.031807,0.025899000000000002,-0.047370999999999996,-0.00673,-0.009436,0.004693,0.023628
475,-1.402102,-1.379257,-1.551882,-0.187656,0.981712,-0.03196,0.012095999999999999,-0.035592,-0.010046,0.002582,0.005104,0.016717
476,-1.402121,-1.3788790000000002,-1.5511700000000002,-0.188024,0.98164,-0.032019,0.013191999999999999,-0.03557,-0.016447999999999997,0.014638,0.001377,0.009726
477,-1.4027049999999999,-1.378487,-1.550841,-0.188422,0.9815659999999999,-0.031974,0.0035329999999999997,-0.050442,-0.018633,0.014777,0.005739,0.010718
478,-1.404156,-1.378082,-1.551079,-0.188861,0.9814879999999999,-0.031766,0.004536999999999999,-0.065355,-0.019675,0.014559,0.004626,0.004926
479,-1.405528,-1.3778190000000001,-1.550985,-0.18916,0.9814379999999999,-0.03155,0.005508,-0.076054,-0.008971999999999999,0.0075650000000000005,0.006508,0.005457
480,-1.406617,-1.377749,-1.550489,-0.18926300000000001,0.981424,-0.031355,0.008647,-0.080364,0.000669,0.004021,0.007117,0.007887
481,-1.40691,-1.37779,-1.54918,-0.18923299999999998,0.981432,-0.031293,0.015038,-0.08039500000000001,0.00285,0.000604,0.003752,0.0018739999999999998
482,-1.40685,-1.377799,-1.5475219999999998,-0.189222,0.981434,-0.031303,0.016134,-0.076129,0.0007160000000000001,-0.003008,0.002956,0.0023120000000000003
483,-1.406755,-1.377789,-1.545984,-0.18923,0.981432,-0.031323000000000004,0.016177,-0.068664,-0.00143,-0.000437,0.00305,0.003827
484,-1.406592,-1.377664,-1.5445209999999998,-0.18934600000000001,0.981408,-0.031374,0.01411,-0.059048,-0.006798,-0.006714,0.003959000000000001,0.008226
485,-1.40657,-1.377466,-1.543407,-0.189538,0.9813700000000001,-0.03141,0.010962999999999999,-0.049441000000000006,-0.008968,-0.009268,0.002166,0.002937
486,-1.406899,-1.377234,-1.5428549999999999,-0.189773,0.981325,-0.031385,0.0035520000000000005,-0.038754000000000004,-0.011170000000000001,-0.013703,0.005308,0.0034
487,-1.40793,-1.376958,-1.54331,-0.190075,0.9812719999999999,-0.031232999999999997,-0.0016820000000000001,-0.021669,-0.016569999999999998,-0.013493000000000002,0.002752,0.007415000000000001
488,-1.4082569999999999,-1.376644,-1.543472,-0.190389,0.9812120000000001,-0.031221,0.006940000000000001,-0.00040199999999999996,-0.0144,-0.008768999999999999,0.0028280000000000002,0.009401000000000001
489,-1.40584,-1.3763290000000001,-1.541305,-0.190617,0.981151,-0.031731999999999996,0.032611,0.018666,-0.009973000000000001,-0.003032,0.005193,-0.0034700000000000004
490,-1.404148,-1.376159,-1.539988,-0.19072999999999998,0.981118,-0.032082,0.005911,0.020855000000000002,-0.001616,0.003718,0.0037909999999999997,0.005074
491,-1.4026290000000001,-1.376083,-1.538797,-0.190755,0.9811030000000001,-0.032385000000000004,0.01335,0.014438,-0.001556,0.00449,0.004462,0.003271
492,-1.401385,-1.375987,-1.537775,-0.19080899999999998,0.981085,-0.032638,0.009078,0.012326,-0.002651,0.002378,0.005411,0.003768
493,-1.400283,-1.375999,-1.536848,-0.190761,0.981087,-0.032846,0.009035,0.008043999999999999,0.002695,0.0036880000000000003,0.004111999999999999,0.004297
494,-1.399451,-1.376083,-1.536033,-0.190651,0.9811030000000001,-0.032991,0.006834000000000001,-0.002618,0.006966,0.004921,0.0043549999999999995,0.0037090000000000005
495,-1.399623,-1.3762510000000001,-1.5360610000000001,-0.190495,0.981136,-0.03293,-0.0038729999999999997,-0.008981,0.009036,0.004384000000000001,0.0073739999999999995,0.003618
496,-1.399849,-1.376492,-1.5360049999999998,-0.19027,0.981182,-0.032847,0.00034700000000000003,-0.017527,0.011212999999999999,0.001336,0.004520000000000001,0.004725
497,-1.399692,-1.37671,-1.535405,-0.190054,0.981224,-0.03284,0.008853,-0.023948,0.01128,0.002996,0.008948999999999999,0.008533
498,-1.398097,-1.3768639999999999,-1.533252,-0.189852,0.9812540000000001,-0.033117,0.01845,-0.02823,0.008148,-0.000852,0.001748,0.003897
499,-1.397877,-1.376999,-1.532361,-0.18971500000000002,0.9812799999999999,-0.033136,0.004557,-0.033507999999999996,0.008058,-0.0050479999999999995,0.002729,0.010477
500,-1.397985,-1.3772010000000001,-1.5317209999999999,-0.189523,0.981319,-0.033082,0.003461,-0.036713,0.011259,-0.004478,0.00475,0.006881999999999999
501,-1.398939,-1.377446,-1.5318559999999999,-0.189317,0.981366,-0.03286,-0.004021,-0.040943,0.010144,-0.00447,0.001956,0.012352
502,-1.40015,-1.37764,-1.5322209999999998,-0.189168,0.981403,-0.032598,-0.0061600000000000005,-0.043062,0.009064000000000001,-0.00735,0.002102,0.011266
503,-1.401821,-1.377788,-1.533137,-0.189078,0.981432,-0.032257,-0.010365000000000001,-0.034504,0.003682,-0.007455,0.0017989999999999998,0.013000999999999999
504,-1.403632,-1.377894,-1.534425,-0.189033,0.981452,-0.031897,-0.012440999999999999,-0.022774000000000003,0.002584,-0.008797,0.002007,0.014806999999999999
505,-1.4048180000000001,-1.377964,-1.535333,-0.189003,0.9814649999999999,-0.031662,-0.005987,-0.011079,0.002614,-0.011864,0.0010019999999999999,0.012938999999999999
506,-1.4058899999999999,-1.378042,-1.536316,-0.188961,0.9814799999999999,-0.031445999999999995,-0.010212,-0.0014759999999999999,0.002573,-0.010227,0.000392,0.015974000000000002
507,-1.4068129999999999,-1.378109,-1.537344,-0.188925,0.9814930000000001,-0.031261000000000004,-0.009106999999999999,0.0070420000000000005,0.002569,-0.010919,0.001066,0.015758
508,-1.40745,-1.378175,-1.5382870000000002,-0.188882,0.981506,-0.03113,-0.005848,0.020875,0.003643,-0.022772999999999998,0.000413,0.011218
509,-1.407526,-1.378241,-1.53906,-0.18882000000000002,0.981518,-0.031106,-0.006809999999999999,0.044315,0.0036060000000000003,-0.022300999999999998,0.0025510000000000003,0.009193999999999999
510,-1.407165,-1.378384,-1.539881,-0.18867,0.9815459999999999,-0.031150999999999998,-0.008867,0.064549,0.00677,-0.016652,0.004035,0.011757
511,-1.406024,-1.378471,-1.540189,-0.18855,0.981562,-0.031352,0.000792,0.077299,0.006821,-0.018283,0.00443,0.008067
512,-1.4043860000000001,-1.378576,-1.5402040000000001,-0.188398,0.981583,-0.031644,-0.001308,0.085824,0.007864,-0.009539,0.005448,0.011120999999999999
513,-1.4022219999999999,-1.378694,-1.539785,-0.188217,0.981605,-0.032033,0.007242,0.087929,0.006853,-0.00705,0.004098,0.011326000000000001
514,-1.39992,-1.378786,-1.5391549999999998,-0.188054,0.9816229999999999,-0.03245,0.005074,0.081541,0.007914000000000001,-0.006693999999999999,0.007528,0.01034
515,-1.397861,-1.378855,-1.538562,-0.187919,0.9816360000000001,-0.032826,0.00629,0.07082999999999999,0.007949,0.004569,0.004952000000000001,0.008854
516,-1.395939,-1.378966,-1.5379040000000002,-0.187749,0.981657,-0.033168,0.00518,0.059125,0.0058200000000000005,0.006963,0.004137,0.010126999999999999
517,-1.394454,-1.379049,-1.537456,-0.187619,0.9816729999999999,-0.033431999999999996,0.0051270000000000005,0.047407,0.005835,0.014218000000000001,0.003725,0.00998
518,-1.392854,-1.3791010000000001,-1.536613,-0.18751500000000002,0.981683,-0.033724000000000004,0.010409,0.033548,0.0037530000000000003,0.022781,0.0036079999999999997,0.006731
519,-1.391651,-1.3791,-1.535768,-0.187476,0.9816819999999999,-0.033949,0.003912,0.009082,0.000534,0.022742,0.0036079999999999997,0.006957
520,-1.391721,-1.3792280000000001,-1.535787,-0.187354,0.981707,-0.033914,-0.0026089999999999998,-0.0101,0.007991,0.013831,0.004591,0.006402
521,-1.392617,-1.379484,-1.536355,-0.187136,0.981756,-0.033701,-0.006944,-0.021816,0.011179999999999999,0.0033130000000000004,0.004771,0.009637999999999999
522,-1.393912,-1.3797549999999998,-1.537132,-0.186918,0.981807,-0.033412,-0.008048999999999999,-0.028212,0.013316999999999999,0.001691,0.008397,0.009165999999999999
523,-1.394348,-1.38009,-1.537044,-0.186608,0.98187,-0.033273000000000004,0.001567,-0.022928,0.015513999999999998,0.003503,0.007356999999999999,0.011163
524,-1.394242,-1.380414,-1.536548,-0.186291,0.9819319999999999,-0.033237,0.002653,-0.018671,0.015516,0.006573000000000001,0.008362999999999999,0.013599000000000002
525,-1.393645,-1.380662,-1.535592,-0.186031,0.981979,-0.033305,0.010145,-0.016553000000000002,0.012361,0.009334,0.008378,0.010661
526,-1.392843,-1.3808799999999999,-1.534398,-0.18579400000000001,0.9820200000000001,-0.033416,0.009054000000000001,-0.020815,0.013427000000000001,0.0069310000000000005,0.006429000000000001,0.009521
527,-1.392631,-1.381106,-1.533733,-0.185569,0.9820629999999999,-0.033416,0.004787,-0.021861000000000002,0.012331,-0.004586,0.000908,0.011672
528,-1.392343,-1.381418,-1.53309,-0.185258,0.9821209999999999,-0.033415,0.002672,-0.013349000000000001,0.016578,-0.007842,0.000362,0.013243000000000001
529,-1.39195,-1.381846,-1.532678,-0.18483,0.982202,-0.033413,0.0027489999999999997,0.007940000000000001,0.020824000000000002,-0.007384999999999999,0.002951,0.010098000000000001
530,-1.390757,-1.38227,-1.531927,-0.184381,0.982281,-0.033559,0.003907,0.029237,0.021873,-0.005148,0.001376,0.009633
531,-1.3896389999999998,-1.3826969999999998,-1.53154,-0.18392999999999998,0.982361,-0.03369,-0.001375,0.039913,0.020753999999999998,-0.0034020000000000005,0.0032340000000000003,0.008206999999999999
532,-1.388399,-1.3830770000000001,-1.53116,-0.183522,0.982432,-0.03385,0.002926,0.046293,0.019708,-0.004024,0.002293,0.008734
533,-1.387011,-1.383425,-1.530743,-0.18314,0.982497,-0.034043000000000004,0.001883,0.050563,0.018627,-0.0024219999999999997,0.004838,0.008286
534,-1.3849879999999999,-1.38375,-1.52966,-0.182757,0.982558,-0.034354,0.011470999999999999,0.047333,0.018698,-0.0028350000000000003,0.002763,0.009787
535,-1.382398,-1.384045,-1.5279459999999998,-0.182382,0.982613,-0.034773,0.014734,0.04525,0.017654,-0.0026609999999999997,0.004417,0.008925
536,-1.379561,-1.3843290000000001,-1.526015,-0.182009,0.982665,-0.035237,0.014738999999999999,0.047376,0.018719,-0.0014320000000000001,0.007462000000000001,0.009679
537,-1.376425,-1.384582,-1.523726,-0.181654,0.982712,-0.03576,0.020069,0.043108999999999995,0.015557,-0.001299,0.008056,0.008904
538,-1.373215,-1.384751,-1.521339,-0.181375,0.982743,-0.03631,0.020073,0.042052,0.013422,0.0022670000000000004,0.009566,0.016168000000000002
539,-1.369742,-1.385055,-1.518548,-0.180954,0.9828,-0.03688,0.025312,0.0324,0.025222,0.0019379999999999998,0.009312,0.021682
540,-1.3651010000000001,-1.385533,-1.514335,-0.180322,0.9828879999999999,-0.037624,0.039085,0.020595,0.034947000000000006,0.004693999999999999,0.0065840000000000004,0.019633
541,-1.359169,-1.38619,-1.508601,-0.179465,0.983009,-0.038557,0.047524000000000004,0.011992000000000001,0.047836000000000004,0.017844,0.00927,0.016279
542,-1.353648,-1.3868850000000001,-1.502959,-0.178582,0.983136,-0.0394,0.038922000000000005,-0.009258,0.041394,0.016166999999999997,0.0032229999999999997,0.015795
543,-1.3498620000000001,-1.387469,-1.4986389999999998,-0.177871,0.983243,-0.03995,0.030338999999999998,-0.02943,0.031744999999999995,0.017852,-0.0033079999999999997,0.009798999999999999
544,-1.348001,-1.387875,-1.495974,-0.17740699999999998,0.983316,-0.040193,0.014311,-0.041914,0.020891,0.015985,-0.00020800000000000001,0.008668
545,-1.348056,-1.388102,-1.494967,-0.17719200000000002,0.983358,-0.040133999999999996,0.005776,-0.055678,0.006962,0.0049960000000000004,0.000926,0.00658
546,-1.3492,-1.38812,-1.495019,-0.17722000000000002,0.983361,-0.039927,-0.001639,-0.054544,-0.003773,-0.0058850000000000005,0.001243,0.005503
547,-1.3506120000000001,-1.387981,-1.495533,-0.17741099999999999,0.9833360000000001,-0.039707,-0.0026,-0.038531,-0.011278,-0.012943000000000001,0.005602,0.008686
548,-1.351565,-1.3877700000000002,-1.496025,-0.17765,0.983297,-0.039583,-0.001399,-0.012950999999999999,-0.015575,-0.01925,0.0037170000000000003,0.006837
549,-1.3517350000000001,-1.38752,-1.496292,-0.177897,0.983252,-0.039606,0.0008539999999999999,0.015795,-0.01346,-0.012609,0.002664,0.0066159999999999995
550,-1.351191,-1.387322,-1.496345,-0.178065,0.983216,-0.039744999999999996,0.0041270000000000005,0.037068000000000004,-0.008123,-0.006444,-0.0016179999999999999,0.00349
551,-1.3504049999999999,-1.3872440000000001,-1.496453,-0.178108,0.983202,-0.039902,-0.003332,0.047712,0.000357,-0.005028,0.002089,0.003662
552,-1.349564,-1.387276,-1.496602,-0.178043,0.9832069999999999,-0.040044,0.001953,0.05044,0.004541,-0.005307,0.0035020000000000003,0.002141
553,-1.3476139999999999,-1.3873959999999999,-1.495738,-0.177849,0.9832290000000001,-0.040365,0.010487999999999999,0.057837,0.012069,-0.007453,0.0022140000000000003,-0.002649
554,-1.344467,-1.387678,-1.493863,-0.177451,0.983281,-0.040863,0.014769999999999998,0.069506,0.020628999999999998,-0.007088,0.001918,-0.005692
555,-1.340475,-1.3880139999999999,-1.491228,-0.176966,0.983342,-0.041495,0.0201,0.07054400000000001,0.022802,-0.007573000000000001,0.001857,-0.005059
556,-1.336666,-1.388366,-1.48876,-0.17647000000000002,0.983406,-0.042089,0.016888999999999998,0.067364,0.021715,-0.004621,0.007866,0.00234
557,-1.3332700000000002,-1.388633,-1.486584,-0.176071,0.983454,-0.042626,0.016880000000000003,0.059927999999999995,0.016384,-0.007294,0.007359999999999999,0.0033350000000000003
558,-1.330422,-1.388782,-1.484842,-0.175806,0.9834809999999999,-0.043092,0.010498,0.056784,0.008865000000000001,-0.008978,-0.002494,0.003038
559,-1.3287879999999999,-1.388782,-1.4844549999999999,-0.175736,0.9834809999999999,-0.04338,-7e-05,0.065399,-0.005106,-0.005325,-0.0011970000000000001,0.005370000000000001
560,-1.328301,-1.3885459999999998,-1.485466,-0.17594,0.9834379999999999,-0.043521,-0.0096,0.078098,-0.020359,0.009741,0.006613,0.004123
561,-1.328962,-1.3879,-1.4877340000000001,-0.176586,0.9833209999999999,-0.043557,-0.015896,0.079275,-0.042837,0.01321,0.0041670000000000006,0.004327
562,-1.3315780000000002,-1.387147,-1.491952,-0.17741800000000002,0.9831840000000001,-0.043269999999999996,-0.034027999999999996,0.075099,-0.048299,0.02187,0.000443,0.009533
563,-1.334645,-1.386354,-1.4964709999999999,-0.178309,0.983039,-0.042908999999999996,-0.028751,0.06548,-0.045045999999999996,0.024562,0.007425,0.005357
564,-1.3379450000000002,-1.385715,-1.5009940000000002,-0.179061,0.9829209999999999,-0.042464999999999996,-0.037368,0.052704999999999995,-0.039748,0.024108,0.005497,0.005615
565,-1.341718,-1.385248,-1.5057909999999999,-0.17966700000000002,0.982835,-0.041893,-0.039577999999999995,0.045217,-0.030139999999999997,0.025019,0.009322,0.0038380000000000003
566,-1.3452389999999999,-1.385046,-1.510173,-0.180006,0.982798,-0.041305,-0.032206,0.036618,-0.017259,0.023359,0.011221,0.008315000000000001
567,-1.3473959999999998,-1.385057,-1.5130299999999999,-0.180084,0.9828,-0.040914,-0.023776,0.029067000000000003,-0.001167,0.024627,0.012378,0.007176999999999999
568,-1.348998,-1.385264,-1.515097,-0.179951,0.9828379999999999,-0.04058,-0.018635,0.01583,0.006019,0.018681,0.009365,0.006508
569,-1.3502450000000001,-1.385489,-1.516537,-0.179785,0.98288,-0.040307,-0.014400999999999999,0.005175,0.002857,0.022131,0.005371,0.000543
570,-1.35176,-1.385604,-1.518065,-0.179734,0.982901,-0.040010000000000004,-0.014438999999999999,-0.005469,0.000734,0.023744,0.006677,0.006532
571,-1.353582,-1.3855959999999998,-1.519601,-0.179815,0.982899,-0.039685000000000005,-0.011253,-0.021408,-0.012042,0.017355000000000002,0.005122,0.005261
572,-1.355607,-1.3853440000000001,-1.521102,-0.18013800000000002,0.9828530000000001,-0.039373000000000005,-0.011234000000000001,-0.027757,-0.022716,0.010399,-0.000919,0.0038810000000000003
573,-1.357887,-1.3850129999999998,-1.52294,-0.180544,0.982792,-0.039031,-0.013358000000000002,-0.023497,-0.0206,0.0025960000000000002,0.000607,0.009566
574,-1.3592899999999999,-1.384923,-1.523851,-0.18068599999999999,0.982775,-0.038796,-0.004919,-0.028917,-0.00451,-0.012963999999999998,-0.0031149999999999997,0.007775
575,-1.3608280000000001,-1.384983,-1.524786,-0.180687,0.982786,-0.038506,-0.009554,-0.030462,0.001367,-0.025825,0.0013289999999999999,0.011269
576,-1.361997,-1.385045,-1.5255299999999998,-0.180672,0.982798,-0.038282,-0.000933,-0.015562000000000001,-0.002865,-0.034126,0.007223,0.016905
577,-1.360949,-1.384966,-1.524522,-0.18070799999999998,0.982783,-0.038488,0.016266,0.015262999999999999,-0.000647,-0.025606999999999998,0.002904,0.006749
578,-1.35962,-1.384911,-1.523816,-0.18070999999999998,0.982773,-0.038738999999999996,0.002507,0.037691,-0.002909,-0.01889,0.00047300000000000006,0.005445
579,-1.3589209999999998,-1.3846319999999999,-1.5239479999999999,-0.180951,0.982721,-0.038923,0.0036509999999999997,0.040938,-0.016791999999999998,-0.001513,0.001913,-0.0017109999999999998
580,-1.359328,-1.38405,-1.525033,-0.181526,0.982613,-0.03897,-0.009137000000000001,0.028263,-0.032888,0.012596,0.003211,-0.007097
581,-1.361911,-1.383294,-1.52805,-0.182352,0.9824729999999999,-0.038654,-0.024088,0.011327,-0.046858,0.02157,0.002436,-0.011501
582,-1.365791,-1.382376,-1.531963,-0.183383,0.982301,-0.038130000000000004,-0.026288,-0.008884,-0.052188,0.026874000000000002,0.010268000000000001,-0.011323999999999999
583,-1.369924,-1.38142,-1.535767,-0.18445899999999998,0.9821219999999999,-0.037558999999999995,-0.023468,-0.025108000000000002,-0.051448,0.025951,0.010935,-0.009392
584,-1.3735620000000002,-1.3806049999999999,-1.538789,-0.18538,0.9819680000000001,-0.037045,-0.017177,-0.03796,-0.039637,0.020112,0.012095999999999999,-0.001179
585,-1.375776,-1.3801700000000001,-1.540197,-0.185881,0.981886,-0.036717,-0.005571,-0.043422,-0.016048,0.010648999999999999,0.01491,0.0011949999999999999
586,-1.376817,-1.380361,-1.5403870000000002,-0.18573499999999998,0.981922,-0.036488,-0.004657,-0.04144,0.020275,0.002706,0.013012000000000001,0.010227
587,-1.376472,-1.381186,-1.539118,-0.184929,0.9820780000000001,-0.036395,0.010121,-0.044815,0.052428999999999996,-0.010139,0.012657999999999999,0.027301
588,-1.373237,-1.382562,-1.534905,-0.18348499999999998,0.9823360000000001,-0.036728,0.033448,-0.045025,0.08463899999999999,-0.024645,0.0026190000000000002,0.053894000000000004
589,-1.367695,-1.384298,-1.528147,-0.181606,0.9826600000000001,-0.0374,0.050379,-0.062185000000000004,0.098666,-0.039432999999999996,-0.01011,0.070344
590,-1.361381,-1.3859059999999999,-1.520432,-0.179819,0.9829559999999999,-0.038217,0.051522000000000005,-0.057876,0.08585,-0.038122,-0.015687,0.0431
591,-1.357933,-1.386916,-1.516167,-0.17871700000000001,0.983142,-0.038627,0.009207,-0.024516,0.03851,-0.011590999999999999,-0.020083,0.016517
592,-1.361635,-1.386925,-1.519585,-0.178848,0.983143,-0.037963,-0.040882,-0.015284,-0.028393,0.014527000000000002,-0.00182,-0.011719
593,-1.370485,-1.385877,-1.528109,-0.18018699999999999,0.982951,-0.036584,-0.07910199999999999,-0.028776999999999997,-0.084191,0.01765,-0.000697,-0.011068999999999999
594,-1.382732,-1.383975,-1.539654,-0.18245799999999998,0.9826,-0.034724,-0.077973,-0.052066999999999995,-0.12154100000000001,0.014032,0.0036060000000000003,-0.010869
595,-1.3925530000000002,-1.381734,-1.548481,-0.18495799999999998,0.982181,-0.033320999999999996,-0.051354,-0.059634000000000006,-0.11707200000000001,0.003409,0.001797,-0.014469
596,-1.400159,-1.379894,-1.554917,-0.18698599999999999,0.981833,-0.03222,-0.038696,-0.069356,-0.094538,-0.006786,0.005517,-0.010688
597,-1.4052930000000001,-1.378496,-1.5586799999999998,-0.1885,0.981567,-0.031485,-0.015373,-0.072753,-0.064461,-0.022087,0.019181,-0.004129
598,-1.407384,-1.377701,-1.5594219999999999,-0.189335,0.9814149999999999,-0.031218,0.007978,-0.062332000000000005,-0.026923000000000002,-0.030833999999999997,0.029861000000000002,0.018172
599,-1.405338,-1.377653,-1.5563420000000001,-0.18931900000000002,0.981406,-0.031613,0.039938,-0.04136,0.017121,-0.027524,0.009087999999999999,0.042996
600,-1.399183,-1.378333,-1.549583,-0.18846400000000002,0.9815360000000001,-0.032664,0.067624,-0.012856999999999999,0.057871000000000006,-0.023648,-0.007552,0.039652999999999994
601,-1.391424,-1.37934,-1.541626,-0.18723499999999998,0.981728,-0.03395,0.059137,0.004192,0.064199,0.005671,-0.023552,0.001967
602,-1.388269,-1.3801299999999999,-1.5386360000000001,-0.186364,0.981878,-0.034399,-0.000411,0.015184999999999999,0.030654,0.031655,-0.005940999999999999,-0.001825
603,-1.390335,-1.380009,-1.541113,-0.186551,0.9818549999999999,-0.034036000000000004,-0.029962,0.021941,-0.034723000000000004,0.04147,0.001772,-0.00788
604,-1.395166,-1.3786770000000002,-1.546408,-0.188,0.9816020000000001,-0.033362,-0.039343,0.014744,-0.091395,0.054135,0.016338,-0.014093000000000001
605,-1.400619,-1.376725,-1.551955,-0.190067,0.9812270000000001,-0.032661,-0.026599,-0.013999000000000001,-0.10729200000000001,0.050556,0.012303,-0.0056229999999999995
606,-1.404152,-1.374802,-1.5545930000000001,-0.19204000000000002,0.9808549999999999,-0.032302,-0.000234,-0.067415,-0.092085,0.033928,0.008265999999999999,-0.008897
607,-1.407011,-1.373502,-1.555394,-0.193388,0.9806010000000001,-0.03196,0.004703,-0.12189900000000001,-0.057797,0.018797,0.012869,-0.006506999999999999
608,-1.409716,-1.372889,-1.555324,-0.19406700000000002,0.9804799999999999,-0.031533,0.004654999999999999,-0.145068,-0.028794,-0.012140999999999999,0.024158000000000002,0.0063869999999999994
609,-1.4110280000000002,-1.372729,-1.5538969999999999,-0.194262,0.980449,-0.031304000000000005,0.019534,-0.123951,0.0054659999999999995,-0.019269,0.025075,0.004067
610,-1.411576,-1.373327,-1.552721,-0.1937,0.9805659999999999,-0.031104000000000003,-0.00809,-0.06009199999999999,0.043647000000000005,-0.030894,0.0067540000000000005,0.006278
611,-1.411818,-1.374686,-1.552478,-0.192392,0.9808319999999999,-0.030846,-0.000512,-0.008031,0.071407,-0.025595,0.005527000000000001,0.022546
612,-1.409065,-1.376201,-1.549875,-0.19084,0.981126,-0.031137,0.015568,0.018506,0.081099,-0.022279,0.0016010000000000002,0.02366
613,-1.406081,-1.37778,-1.5474219999999999,-0.189219,0.9814299999999999,-0.031452,0.011368000000000001,0.034496,0.082118,-0.015263999999999998,-0.005325,0.036259
614,-1.402224,-1.379206,-1.544329,-0.187718,0.9817030000000001,-0.031947,0.021051,0.045145,0.07469400000000001,-0.00854,-0.010389,0.035518
615,-1.398764,-1.380233,-1.541771,-0.186613,0.9818979999999999,-0.032424,0.01055,0.050636,0.042567,-0.009111,-0.013499,0.029830000000000002
616,-1.398474,-1.38036,-1.542481,-0.18648299999999998,0.981922,-0.032457,-0.015665000000000002,0.049407,-0.012828999999999998,-0.001887,-0.012821,0.017595
617,-1.4024299999999998,-1.379628,-1.5473709999999998,-0.187318,0.981783,-0.031839,-0.048599,0.036913999999999995,-0.056839999999999995,-0.001662,-0.005312,0.003901
618,-1.4100780000000002,-1.378365,-1.555663,-0.188779,0.981542,-0.030604000000000003,-0.070979,0.017916,-0.081541,-0.008273,0.000758,0.010112000000000001
619,-1.417886,-1.37684,-1.56388,-0.19048900000000002,0.9812489999999999,-0.029356999999999998,-0.059249,0.012565999999999999,-0.085725,-0.017763,0.006101,0.007857
620,-1.422927,-1.375557,-1.569324,-0.191881,0.981001,-0.028582,-0.032668,0.016636,-0.060976,-0.019056,0.007295,0.002016
621,-1.424887,-1.374745,-1.5718159999999999,-0.192725,0.980843,-0.028322000000000003,-0.00926,0.028169,-0.03519,-0.016671000000000002,0.012565,0.003557
622,-1.424192,-1.374299,-1.571834,-0.193139,0.980756,-0.02852,0.009909999999999999,0.040804,-0.014776,-0.0036229999999999995,0.014437,0.004258
623,-1.421478,-1.37414,-1.5700120000000002,-0.193215,0.980725,-0.029067000000000003,0.023750999999999998,0.049218,0.000265,0.004631000000000001,0.011309999999999999,-0.001115
624,-1.418685,-1.3741219999999998,-1.5681209999999999,-0.193149,0.980722,-0.029608999999999996,0.015287,0.042947000000000006,0.0034409999999999996,0.031025,0.002188,-0.004998
625,-1.417371,-1.374047,-1.567315,-0.193183,0.980707,-0.029874,0.006661,0.015309999999999999,-0.004061,0.033835000000000004,0.003256,-0.009997
626,-1.4177629999999999,-1.373823,-1.567532,-0.193412,0.980663,-0.029832,-0.004132,-0.021899000000000002,-0.013703,0.031775,0.0031620000000000003,-0.002364
627,-1.419333,-1.373443,-1.568336,-0.193826,0.9805889999999999,-0.029584,-0.004194,-0.047418,-0.025421,0.023063999999999998,0.0036490000000000003,-0.001529
628,-1.420756,-1.372966,-1.568707,-0.194331,0.9804950000000001,-0.029377999999999998,0.0021969999999999997,-0.051692999999999996,-0.027507999999999998,0.014888,-0.001064,0.013769
629,-1.41941,-1.372431,-1.5662969999999998,-0.19480899999999998,0.98039,-0.029719,0.04058,-0.056093,-0.026166000000000002,0.018234999999999998,0.022936,-0.014883
630,-1.41955,-1.372055,-1.565317,-0.195178,0.980316,-0.029747000000000003,-0.009653,-0.061302999999999996,-0.011555,0.012485,0.012589,0.0043560000000000005
631,-1.422061,-1.371969,-1.56628,-0.19533599999999998,0.980299,-0.029269999999999997,0.0043479999999999994,-0.082092,-0.004588,0.000801,0.005419,0.008121
632,-1.42154,-1.371956,-1.563982,-0.19533399999999998,0.980296,-0.029373000000000003,0.023461000000000003,-0.091789,0.00624,-0.007043000000000001,0.004399,0.014130000000000002
633,-1.421068,-1.372308,-1.561568,-0.19498,0.980366,-0.029414,0.024422,-0.09613,0.025481,-0.01077,0.006085,0.018489
634,-1.418647,-1.372867,-1.5573629999999998,-0.194365,0.980476,-0.029802999999999996,0.041530000000000004,-0.07811900000000001,0.035191,-0.019533000000000002,0.002785,0.025896
635,-1.414998,-1.3736030000000001,-1.552543,-0.193543,0.98062,-0.0304,0.043794,-0.037693,0.046905,-0.023758,-0.000625,0.035558
636,-1.408773,-1.3743969999999999,-1.545941,-0.192582,0.980776,-0.031479,0.063141,-0.005802000000000001,0.047,-0.023864,0.0018449999999999999,0.023727
637,-1.404323,-1.375014,-1.541671,-0.19184400000000001,0.9808959999999999,-0.032235,0.027083,0.035894999999999996,0.040285,-0.032399000000000004,0.0026089999999999998,0.026025
638,-1.4005379999999998,-1.37547,-1.53859,-0.19128,0.980985,-0.032885000000000005,0.021869,0.048753,0.026345,-0.034123,-0.006451,0.021212
639,-1.397742,-1.375821,-1.537204,-0.190849,0.981052,-0.033361,0.007129000000000001,0.082932,0.016585,-0.029457,-0.005833,0.023321
640,-1.396313,-1.375964,-1.537495,-0.190663,0.98108,-0.033609,-0.005463,0.090146,0.009594,-0.022884,0.0020440000000000002,0.020516999999999997
641,-1.395038,-1.3760379999999999,-1.5380209999999999,-0.190548,0.981095,-0.033839,-0.002248,0.088026,0.004278,-0.003453,-0.003189,0.005640999999999999
642,-1.3940190000000001,-1.376206,-1.538805,-0.190351,0.9811270000000001,-0.034005,-0.013997999999999998,0.086993,0.006333,-0.0036490000000000003,-0.003222,0.005807
643,-1.395031,-1.37612,-1.541169,-0.190469,0.98111,-0.033826999999999996,-0.02049,0.056165,-0.0043549999999999995,-0.005682,0.016814,0.011336
644,-1.3945940000000001,-1.376221,-1.541688,-0.190356,0.98113,-0.033893,0.0071189999999999995,0.04216,0.010811,-0.012357,0.008479,0.00394
645,-1.3915389999999999,-1.376607,-1.5394079999999999,-0.189878,0.9812049999999999,-0.034406,0.020902,0.039913,0.028002,-0.013247,0.0053219999999999995,0.00337
646,-1.388331,-1.377257,-1.536924,-0.18914,0.9813299999999999,-0.0349,0.018711000000000002,0.036686,0.037605,-0.004036,0.002084,0.011127
647,-1.384158,-1.377982,-1.533404,-0.18829400000000002,0.981469,-0.035557,0.030432,0.036632,0.040891000000000004,0.003327,-0.001092,0.004093
648,-1.379731,-1.378718,-1.5295459999999999,-0.187425,0.98161,-0.036253,0.027177999999999997,0.028109,0.044084,-0.0016309999999999999,-0.0032770000000000004,0.005674
649,-1.37624,-1.379421,-1.526414,-0.186621,0.9817440000000001,-0.036774,0.019686000000000002,0.018563999999999997,0.039771,-0.003503,-0.0012439999999999999,0.004196
650,-1.373853,-1.380092,-1.524324,-0.185886,0.9818709999999999,-0.03709,0.013309,0.018608,0.034386,-0.010845,0.00464,0.004879
651,-1.3713309999999999,-1.380586,-1.522422,-0.185317,0.981965,-0.037462,0.013466999999999998,0.042091,0.022606,-0.008867,0.0036009999999999996,0.001604
652,-1.36891,-1.38094,-1.521166,-0.184885,0.982031,-0.037841,0.0072239999999999995,0.06984,0.015049000000000002,-0.0012720000000000001,0.006906,0.009184999999999999
653,-1.366164,-1.381264,-1.519962,-0.184469,0.982092,-0.038284,0.010449,0.084704,0.024666999999999998,-0.004649,0.003229,0.010879
654,-1.363692,-1.381702,-1.519202,-0.183953,0.982175,-0.038652,-0.00019099999999999998,0.091133,0.024584,-0.012473,0.003558,0.009599
655,-1.361426,-1.382155,-1.5189059999999999,-0.183428,0.98226,-0.038975,-0.004391,0.100757,0.019202,0.002107,0.00358,0.010838
656,-1.359353,-1.382485,-1.519082,-0.183028,0.9823219999999999,-0.039287,-0.004291,0.113578,0.009572,0.024153,0.0039,0.011271999999999999
657,-1.3570950000000002,-1.382729,-1.5191629999999998,-0.182703,0.982367,-0.039649000000000004,-3.8e-05,0.115672,0.01494,0.034265,0.009637,0.014671
658,-1.353872,-1.383053,-1.5179340000000001,-0.182263,0.9824280000000001,-0.040168999999999996,0.012607,0.090023,0.024675,0.040891000000000004,0.020059,0.019051
659,-1.349323,-1.383677,-1.514734,-0.181482,0.9825440000000001,-0.040864,0.029461,0.057941,0.040857,0.032983,0.006790000000000001,0.011033
660,-1.344364,-1.38437,-1.510416,-0.18061300000000002,0.9826729999999999,-0.04161,0.032513,0.024907,0.040921,0.040476,0.000848,0.009445
661,-1.340417,-1.384943,-1.5065899999999999,-0.1799,0.9827790000000001,-0.042194,0.022858,-0.0026920000000000004,0.024866,0.041655000000000005,-0.001959,-0.002926
662,-1.339787,-1.385334,-1.5055370000000001,-0.179499,0.982851,-0.04222,0.0035399999999999997,-0.034558,0.018362,0.03451,0.002073,-0.004823
663,-1.339841,-1.3854790000000001,-1.504508,-0.17936400000000002,0.982878,-0.042178,0.014165,-0.062219000000000003,0.000312,0.017498,0.0033130000000000004,-0.006451999999999999
664,-1.34038,-1.385424,-1.503603,-0.17943900000000002,0.9828680000000001,-0.042093,0.007735,-0.076016,-0.007193000000000001,-0.004964,0.003766,-0.007773
665,-1.341442,-1.385312,-1.503058,-0.179591,0.9828469999999999,-0.041928,0.001315,-0.081315,-0.008298999999999999,-0.017781,-0.002348,-0.005848
666,-1.342552,-1.385161,-1.5027540000000001,-0.179783,0.982819,-0.041762,0.015275,-0.06324600000000001,-0.010361,-0.026760000000000003,0.0012050000000000001,-0.000795
667,-1.340319,-1.3848610000000001,-1.499441,-0.179976,0.982764,-0.042231,0.03667,-0.044170999999999995,-0.003827,-0.029419999999999998,0.008034999999999999,0.00042199999999999996
668,-1.3380239999999999,-1.384794,-1.496633,-0.179945,0.982751,-0.042658999999999996,0.018769,-0.010397,0.005752,-0.029742,0.007451999999999999,0.012232999999999999
669,-1.334722,-1.384932,-1.493582,-0.179671,0.982777,-0.043222000000000003,0.030648,0.027886,0.012195999999999999,-0.030289999999999997,-0.0005690000000000001,0.015694999999999997
670,-1.330125,-1.385039,-1.48987,-0.179368,0.9827969999999999,-0.044022000000000006,0.028625,0.056639,0.016418000000000002,-0.020888,0.002601,0.011505
671,-1.327601,-1.385373,-1.488758,-0.178938,0.982858,-0.044395,-0.004381,0.08015599999999999,0.024703,-0.014803,0.008307,0.028374
672,-1.3249799999999998,-1.385761,-1.487829,-0.178452,0.98293,-0.044772,0.012751,0.086518,0.017337,-0.003113,0.012172,0.028018
673,-1.3219299999999998,-1.385921,-1.486526,-0.17816099999999999,0.982959,-0.045277,0.006389,0.088696,0.010879999999999999,0.025238,0.0027429999999999998,0.014209999999999999
674,-1.320422,-1.385976,-1.486588,-0.17804,0.9829690000000001,-0.045531999999999996,-0.001127,0.068521,0.001239,0.027665,0.009279,0.008117000000000001
675,-1.320284,-1.385764,-1.487407,-0.178235,0.98293,-0.045607999999999996,-0.0065379999999999995,0.033458,-0.016913,0.031705000000000004,0.007167,0.007705
676,-1.322117,-1.385446,-1.489635,-0.178622,0.982872,-0.045357999999999996,-0.018359999999999998,0.009019,-0.022306,0.027179000000000002,0.001076,-0.000967
677,-1.324846,-1.3852149999999999,-1.49231,-0.178965,0.9828290000000001,-0.044926,-0.020599,-0.012287000000000001,-0.020158000000000002,0.022349,0.003865,-0.003307
678,-1.3279809999999999,-1.3848799999999999,-1.495054,-0.179424,0.9827670000000001,-0.044444,-0.01958,-0.025065999999999998,-0.022269999999999998,0.017193,0.003729,-0.006673
679,-1.330807,-1.3846370000000001,-1.4974,-0.17978,0.982722,-0.043993,-0.015337,-0.026163,-0.017967,0.006761,0.006809999999999999,-0.011595000000000001
680,-1.332366,-1.3845319999999999,-1.498661,-0.179949,0.9827030000000001,-0.043737,-0.006783,-0.011321,-0.007244,0.000536,0.007684000000000001,-0.011286
681,-1.332827,-1.384444,-1.499155,-0.180054,0.9826870000000001,-0.043675,-0.000295,0.009953,-0.005089,0.002396,0.007243,-0.012874000000000002
682,-1.332019,-1.384441,-1.4988700000000001,-0.18002200000000002,0.9826860000000001,-0.043821,0.00513,0.036539999999999996,0.001324,0.011733,0.005915999999999999,-0.012972
683,-1.3303610000000001,-1.384499,-1.498071,-0.179893,0.9826969999999999,-0.044106,0.005164,0.04718,0.004515,0.017509,0.009292,-0.008048999999999999
684,-1.328408,-1.384543,-1.496967,-0.179766,0.9827049999999999,-0.044447,0.009393,0.038643000000000004,0.004556,0.017381999999999998,0.009284,-0.007708
685,-1.327076,-1.384624,-1.496191,-0.17962899999999998,0.98272,-0.044667,0.0039770000000000005,0.022674,0.006675,0.015734,0.006599,0.001714
686,-1.326651,-1.384739,-1.496006,-0.1795,0.982741,-0.044716000000000006,-0.003573,0.004591,0.006645,0.009089,0.003602,0.008263
687,-1.327078,-1.384955,-1.496386,-0.179313,0.9827809999999999,-0.044588,-0.007898,-0.006055,0.008765,0.004386999999999999,0.002616,0.014497999999999999
688,-1.327397,-1.385237,-1.49647,-0.179058,0.982833,-0.044464,0.000585,-0.013559,0.013106999999999999,-0.000721,0.001725,0.020401
689,-1.32656,-1.3855110000000002,-1.4953,-0.17876,0.982884,-0.044549,0.010172,-0.016788,0.013178,-0.0040100000000000005,0.0024530000000000003,0.015878
690,-1.325776,-1.38564,-1.494149,-0.178601,0.982908,-0.044657999999999996,0.008091,-0.014612,0.003547,-0.003558,0.001696,0.013149000000000001
691,-1.3264770000000001,-1.385507,-1.494608,-0.17876,0.982883,-0.044565,-0.00674,-0.009161,-0.014724000000000001,-0.00108,0.003094,0.009698
692,-1.328568,-1.385131,-1.4966110000000001,-0.17920999999999998,0.982814,-0.044279,-0.015203,-0.004823,-0.026539,-0.0013160000000000001,0.002751,0.010466
693,-1.331537,-1.38462,-1.499542,-0.17983,0.982719,-0.043866,-0.022637,-0.003706,-0.033001,-0.002833,-0.001228,0.007489
694,-1.335145,-1.384107,-1.503177,-0.180478,0.9826239999999999,-0.043335000000000005,-0.0269,-0.000504,-0.030899,-0.002322,-0.000965,0.006271
695,-1.338223,-1.3837190000000001,-1.506437,-0.18098,0.9825520000000001,-0.042867,-0.021542,0.011169,-0.024467,0.0037649999999999997,0.009208,0.003942
696,-1.339818,-1.383333,-1.508417,-0.181418,0.9824799999999999,-0.042664999999999995,-0.008701,0.021769,-0.022254,0.006247,0.011432,-0.000151
697,-1.33958,-1.3829690000000001,-1.508789,-0.181756,0.9824120000000001,-0.042789999999999995,0.006268999999999999,0.035539,-0.015758,0.008445999999999999,0.014506,-0.003993
698,-1.338082,-1.382844,-1.508055,-0.18181,0.982389,-0.043091000000000004,0.010483,0.041844,0.0024230000000000002,0.00757,0.008669,-0.0008089999999999999
699,-1.335698,-1.383086,-1.506472,-0.181478,0.982434,-0.043469,0.013583000000000001,0.040681999999999996,0.023809999999999998,0.00031,0.009647,0.00317
700,-1.332433,-1.383893,-1.5038719999999999,-0.180564,0.982584,-0.043874,0.012334,0.032036,0.055859000000000006,-0.00773,-0.008616,0.017324000000000003
701,-1.330591,-1.385186,-1.502304,-0.179248,0.982824,-0.043904,-0.005994,0.004343,0.07072200000000001,-0.014950999999999999,0.025324,0.064839
702,-1.3275860000000002,-1.386611,-1.4989940000000002,-0.177755,0.983086,-0.044105,0.037618,-0.020328,0.075331,-0.018503,0.021797,0.070869
703,-1.319006,-1.387408,-1.489717,-0.176611,0.983232,-0.045433,0.075049,-0.032049,0.043561,-0.005167000000000001,-0.024369,0.023566999999999998
704,-1.316913,-1.3873540000000002,-1.4868700000000001,-0.176568,0.9832219999999999,-0.045816,0.0006129999999999999,-0.038998000000000005,-0.018907,0.013466999999999998,-0.009863,-0.006094
705,-1.323045,-1.386263,-1.4924110000000002,-0.177885,0.983022,-0.044996,-0.049165,-0.030010000000000002,-0.091905,0.019255,0.011714,-0.011538
706,-1.332824,-1.384126,-1.502006,-0.180357,0.9826280000000001,-0.043749,-0.057383,-0.005296,-0.137928,0.01985,0.01754,-0.015989
707,-1.340868,-1.381572,-1.51037,-0.183146,0.98215,-0.042868,-0.038089,0.015938,-0.13675199999999998,0.017694,0.013562000000000001,-0.018548
708,-1.34626,-1.3794870000000001,-1.5163280000000001,-0.185369,0.981756,-0.042336,-0.029674000000000002,0.024288999999999998,-0.101453,0.006383,0.011179000000000001,-0.012779
709,-1.350064,-1.3782370000000002,-1.520732,-0.186725,0.981518,-0.041899,-0.024546000000000002,0.026208999999999996,-0.053349,-0.005521,0.011158,-0.008318
710,-1.351775,-1.377923,-1.522933,-0.187096,0.9814579999999999,-0.041645999999999996,-0.01627,0.019583,-0.002008,-0.00843,0.004504,-0.00851
711,-1.3531959999999998,-1.378583,-1.524618,-0.186522,0.981584,-0.04124,-0.02613,0.004533,0.040671,0.016875,0.013228,0.020319999999999998
712,-1.352301,-1.379594,-1.523312,-0.18551600000000001,0.981776,-0.041192,0.018438,-0.037216,0.052786,0.025009,0.010625,0.005898
713,-1.349818,-1.380355,-1.519396,-0.184685,0.9819209999999999,-0.041489,0.025776999999999998,-0.08298,0.035805000000000003,0.024222999999999998,0.005384000000000001,-0.003036
714,-1.348655,-1.380472,-1.5163950000000002,-0.184527,0.981943,-0.041679,0.029136000000000002,-0.084973,-0.001557,0.02254,0.002905,-0.020836
715,-1.349343,-1.379767,-1.515795,-0.18523199999999998,0.981809,-0.041704000000000005,0.002852,-0.049520999999999996,-0.053061000000000004,0.005086,0.0087,-0.007139
716,-1.351425,-1.3784299999999998,-1.517526,-0.1866,0.981555,-0.041604,0.0010539999999999998,0.0006519999999999999,-0.077707,-0.013946,0.002973,0.000283
717,-1.352017,-1.376942,-1.518758,-0.188051,0.9812690000000001,-0.041811,0.0055130000000000005,0.047491000000000005,-0.073463,-0.015378999999999999,0.005212,0.003573
718,-1.352182,-1.3758780000000002,-1.520361,-0.189076,0.9810639999999999,-0.042006,-0.012604,0.081524,-0.043723000000000005,-0.021831,-0.001144,0.009627
719,-1.353607,-1.375544,-1.523751,-0.18945499999999998,0.980999,-0.041807,-0.038061000000000005,0.103924,-0.012925,-0.017575999999999998,0.003254,0.01103
720,-1.3550520000000001,-1.375722,-1.527641,-0.189343,0.981033,-0.041495,-0.03698,0.12621500000000002,0.006282,-0.018008,0.005554,0.012031
721,-1.353861,-1.376231,-1.529321,-0.188805,0.981132,-0.041613,-0.010318,0.151577,0.034210000000000004,-0.006889,0.007256,0.00809
722,-1.349921,-1.377142,-1.5284,-0.18776900000000002,0.9813069999999999,-0.042161000000000004,0.003437,0.148243,0.056742999999999995,-0.008398000000000001,0.012467,0.025483000000000002
723,-1.344076,-1.378468,-1.5251620000000001,-0.18625,0.981562,-0.042966000000000004,0.025615,0.120378,0.07936599999999999,-0.008864,0.012106,0.031827
724,-1.3364120000000002,-1.37982,-1.5191700000000001,-0.184623,0.981819,-0.044083,0.055248,0.06595,0.078574,0.0029059999999999997,0.000938,0.042206
725,-1.328497,-1.380674,-1.511691,-0.183454,0.981981,-0.045342,0.051932000000000006,0.008565000000000001,0.046577999999999994,0.010313,-0.008165,0.022835
726,-1.325077,-1.380878,-1.50801,-0.183104,0.9820200000000001,-0.045919999999999996,0.022151,-0.017775,-0.000598,0.01277,-0.002238,0.017905
727,-1.328781,-1.380128,-1.51116,-0.183988,0.981878,-0.045418,-0.043769,-0.033259,-0.067268,0.011686,-0.013708000000000001,0.006843999999999999
728,-1.339161,-1.378594,-1.520979,-0.185915,0.9815860000000001,-0.043851999999999995,-0.08198899999999999,-0.036141,-0.112397,0.0009630000000000001,-0.0010869999999999999,0.010938
729,-1.351204,-1.3765889999999998,-1.532581,-0.188349,0.981201,-0.042038,-0.07974500000000001,-0.028624,-0.12948199999999999,-0.004278,0.000458,0.012924000000000001
730,-1.3614030000000001,-1.374622,-1.542584,-0.190655,0.98082,-0.040516,-0.076564,-0.012737,-0.10918399999999999,-0.011021,0.007111,0.004459
731,-1.370393,-1.373173,-1.55169,-0.192403,0.9805360000000001,-0.039083,-0.071273,0.004182,-0.082463,-0.012218000000000001,0.018579,0.0017289999999999999
732,-1.3752959999999999,-1.372523,-1.557309,-0.193218,0.980408,-0.038263,-0.037215,0.045369,-0.022458000000000002,-0.000843,0.019241,-0.0032719999999999997
733,-1.37678,-1.3726770000000001,-1.560071,-0.193126,0.980439,-0.037947,-0.020212,0.070714,0.018221,0.001812,0.021225,0.0013109999999999999
734,-1.374378,-1.373478,-1.5593549999999998,-0.19226500000000002,0.9805959999999999,-0.038258,0.011737000000000001,0.088588,0.049399,-0.000118,0.006739,0.003254
735,-1.368731,-1.374784,-1.5554219999999999,-0.19078900000000001,0.980851,-0.039085,0.030815,0.090532,0.07944,0.001092,0.004256,0.0051340000000000005
736,-1.3622809999999999,-1.37615,-1.550518,-0.18922,0.981116,-0.040037,0.036116,0.078813,0.07522000000000001,-0.001103,-0.003867,0.014586000000000002
737,-1.355961,-1.377267,-1.545575,-0.187891,0.981332,-0.040998,0.03082,0.06931699999999999,0.057035,-0.0023710000000000003,-0.005929,0.017072999999999998
738,-1.351996,-1.3780540000000001,-1.542948,-0.186974,0.981483,-0.041576,0.010646,0.070534,0.036596,-0.0032869999999999996,-0.0060799999999999995,0.01765
739,-1.3490090000000001,-1.3784969999999999,-1.541374,-0.186425,0.981567,-0.042038,0.010742,0.072741,0.017366,-0.003059,0.006668,0.024659
740,-1.347114,-1.378541,-1.540876,-0.186305,0.981576,-0.042381999999999996,0.001307,0.069638,-0.00399,0.00648,0.000236,0.021034999999999998
741,-1.34693,-1.378277,-1.541978,-0.18655,0.981525,-0.042474,-0.011477,0.058029,-0.020087999999999998,0.006908,0.00082,0.017740000000000002
742,-1.348649,-1.377895,-1.5447620000000002,-0.18698800000000002,0.981452,-0.042236,-0.022179,0.045304000000000004,-0.025487,-0.003518,0.012856,0.023895
743,-1.350655,-1.377575,-1.5475709999999998,-0.187378,0.981391,-0.041929,-0.021193,0.033557,-0.019056,-0.00528,0.005609,0.019117
744,-1.352044,-1.377257,-1.549703,-0.18774000000000002,0.9813299999999999,-0.041737,-0.011573,0.036724,-0.020061000000000002,0.001217,0.001046,0.010883
745,-1.3522040000000002,-1.3769770000000001,-1.550605,-0.18801600000000002,0.981276,-0.041766000000000005,0.000139,0.036661,-0.014638,0.000714,0.01024,0.0049770000000000005
746,-1.3511819999999999,-1.376825,-1.550259,-0.188119,0.981247,-0.041991,0.010740999999999999,0.033381,-0.00281,0.003396,0.006318,0.000685
747,-1.348859,-1.376853,-1.548466,-0.187994,0.981252,-0.042422,0.020246,0.024775,0.010087,0.007345999999999999,0.0064340000000000005,0.001605
748,-1.345824,-1.3771010000000001,-1.545784,-0.187628,0.9813,-0.042938,0.025552000000000002,0.018193,0.022241999999999998,0.006673999999999999,0.004143,0.005691
749,-1.342652,-1.3774620000000002,-1.5428879999999998,-0.187146,0.981369,-0.043453,0.020194,0.016069,0.025412,0.003094,-0.003647,0.007915
750,-1.340606,-1.377887,-1.541045,-0.18665,0.9814510000000001,-0.04374,0.008429,0.009718000000000001,0.025338,0.004933,-0.0014089999999999999,0.010995
751,-1.338963,-1.3783809999999999,-1.539552,-0.186106,0.9815450000000001,-0.043935,0.010549,0.008637,0.027491,0.009104000000000001,0.008520999999999999,0.01647
752,-1.336654,-1.3788690000000001,-1.537341,-0.185538,0.9816379999999999,-0.044254,0.019074,0.005415,0.026486000000000003,0.012717000000000001,0.010473,0.017078
753,-1.333821,-1.379267,-1.534517,-0.185032,0.981714,-0.044688,0.023322,-0.000983,0.024388,0.014012,0.007711,0.016428
754,-1.3312540000000002,-1.3795899999999999,-1.53176,-0.184609,0.981776,-0.045087,0.020097999999999998,-0.010542000000000001,0.020104,0.011895000000000001,0.005605,0.011533
755,-1.329651,-1.3798549999999998,-1.529829,-0.184285,0.981826,-0.045321,0.01481,-0.017724,0.013912,0.00417,0.0038,0.011493000000000001
756,-1.328813,-1.380081,-1.528565,-0.184032,0.9818690000000001,-0.045423000000000005,0.008409,-0.019823,0.011734,0.00017900000000000001,-8.8e-05,0.009519
757,-1.3282770000000002,-1.380287,-1.5276,-0.18381199999999998,0.981908,-0.045473,0.008428,-0.018744999999999998,0.008528,-0.008281,0.004146,0.006929
758,-1.32746,-1.3803809999999999,-1.526451,-0.183686,0.9819260000000001,-0.045600999999999996,0.011677,-0.012348,0.00427,-0.011718000000000001,0.006431999999999999,0.006966
759,-1.3264639999999999,-1.38042,-1.5254,-0.183603,0.981933,-0.045775,0.009625,0.0047079999999999995,0.003165,-0.014533,-0.004898,0.000624
760,-1.325236,-1.380471,-1.524422,-0.183498,0.981943,-0.045988,0.0064670000000000005,0.017490000000000002,0.006331,-0.00829,-0.005212,0.003614
761,-1.324439,-1.38063,-1.52404,-0.183311,0.981973,-0.046096,0.0011380000000000001,0.021757,0.009493000000000001,-0.0009390000000000001,0.007620999999999999,0.010162000000000001
762,-1.323269,-1.380835,-1.5232569999999999,-0.183061,0.9820120000000001,-0.046261000000000004,0.007509999999999999,0.019587,0.013813999999999998,-0.002043,0.012434,0.010602
763,-1.320973,-1.38106,-1.521398,-0.18274,0.9820540000000001,-0.046626999999999995,0.017417,0.026236000000000002,0.018633,0.0017399999999999998,0.005464,0.017772
764,-1.317502,-1.381269,-1.518461,-0.18237899999999999,0.982093,-0.04721,0.028114999999999998,0.030468000000000002,0.016566,0.000204,0.008904,0.012251999999999999
765,-1.312907,-1.381363,-1.5145600000000001,-0.182071,0.9821110000000001,-0.048024000000000004,0.032449,0.042184,0.013377000000000002,0.001132,0.0049039999999999995,0.011021
766,-1.3101479999999999,-1.3816110000000001,-1.512642,-0.181702,0.982158,-0.048463,0.007916,0.044396,0.014271,0.0019379999999999998,0.005376,0.008027
767,-1.308165,-1.381923,-1.511585,-0.18131,0.982216,-0.048744,0.0036439999999999997,0.048651,0.019577,-0.00056,0.002159,0.003684
768,-1.306893,-1.382362,-1.511343,-0.180833,0.982299,-0.048862,-0.00381,0.055055999999999994,0.022721,-0.004104,0.0063490000000000005,0.005649
769,-1.304843,-1.382794,-1.510466,-0.180323,0.9823790000000001,-0.049121,0.0068969999999999995,0.062479999999999994,0.021718,-0.010168,0.00903,0.004627
770,-1.301606,-1.383114,-1.508566,-0.17986,0.982439,-0.049621,0.016552,0.072042,0.019637,-0.008907,0.005109000000000001,0.006683
771,-1.297383,-1.383406,-1.505808,-0.179373,0.9824940000000001,-0.050303,0.022966999999999998,0.077337,0.021811,-0.010019,0.002171,0.004481000000000001
772,-1.292959,-1.383731,-1.502947,-0.178842,0.982554,-0.051008,0.019996,0.08043,0.024057,-0.010367,0.003072,0.006209
773,-1.2886879999999998,-1.384085,-1.500263,-0.17829,0.98262,-0.051675,0.017872,0.08256799999999999,0.02404,-0.013635,0.00021400000000000002,0.009637
774,-1.2844950000000002,-1.38445,-1.497729,-0.177728,0.9826879999999999,-0.052321000000000006,0.018953,0.08682100000000001,0.02511,-0.010809000000000001,-0.001059,0.012023
775,-1.280241,-1.384795,-1.495256,-0.17718,0.9827520000000001,-0.05297999999999999,0.015791,0.09323200000000001,0.022943,-0.003896,0.002066,0.014375
776,-1.276053,-1.385234,-1.492998,-0.176541,0.982833,-0.053595000000000004,0.011533,0.102805,0.030379000000000003,-0.0030239999999999998,0.001146,0.009879
777,-1.271896,-1.385789,-1.490972,-0.175795,0.982935,-0.054167999999999994,0.008366,0.11239500000000001,0.032481,-0.000399,0.002096,0.008178
778,-1.268248,-1.386315,-1.4895200000000002,-0.1751,0.983031,-0.054653999999999994,0.004108,0.110296,0.028181,0.014868000000000001,0.003754,0.008008
779,-1.265307,-1.3868120000000002,-1.488626,-0.17447100000000001,0.983123,-0.055021,-0.00020299999999999997,0.098602,0.026029000000000004,0.027239,0.005601,0.006758
780,-1.263076,-1.387345,-1.488126,-0.173847,0.9832200000000001,-0.055251,-0.002282,0.077114,0.027222000000000003,0.031742,0.0088,0.005309
