,attitude.roll,attitude.pitch,attitude.yaw,gravity.x,gravity.y,gravity.z,rotationRate.x,rotationRate.y,rotationRate.z,userAcceleration.x,userAcceleration.y,userAcceleration.z
0,2.889062,-1.0312270000000001,-1.691213,0.128367,0.85793,0.49746999999999997,2.217157,0.337012,0.9160950000000001,-0.031062,-0.18071500000000001,-0.540668
1,2.833155,-1.072516,-1.753095,0.145081,0.8784059999999999,0.455362,2.479661,-0.382888,0.8985549999999999,-0.069733,-0.263278,-0.44823599999999997
2,2.7570639999999997,-1.117211,-1.821333,0.164375,0.898882,0.40619299999999997,2.758139,-0.937573,0.576472,-0.212471,-0.32368600000000003,-0.364582
3,2.6636189999999997,-1.16943,-1.90073,0.179703,0.920528,0.346893,3.205365,-1.1034030000000001,0.367232,-0.405869,-0.607921,-0.289993
4,2.528713,-1.2185549999999998,-2.012861,0.198454,0.938602,0.282211,3.064013,-1.9761490000000002,0.560711,-0.279708,-0.8336520000000001,-0.287063
5,2.346066,-1.2534299999999998,-2.1398189999999997,0.222887,0.950061,0.218417,2.3800619999999997,-3.8361989999999997,0.374583,-0.22160500000000002,-0.820407,-0.41581999999999997
6,2.178617,-1.275377,-2.229043,0.23899499999999999,0.95668,0.16626400000000002,1.332141,-3.8776559999999995,-0.33555300000000005,-0.553037,-0.644516,-0.24348899999999998
7,2.169101,-1.305304,-2.200192,0.216806,0.9649629999999999,0.147786,-0.26647600000000005,0.325202,-2.2300400000000002,-0.775095,-0.34094,0.672862
8,2.439007,-1.332303,-2.0277060000000002,0.152656,0.9716950000000001,0.180291,-0.37956100000000004,4.824523999999999,-1.765509,-0.812766,-0.24983200000000003,1.878257
9,2.496736,-1.343821,-1.992325,0.13526300000000002,0.974351,0.179842,0.790773,-0.072107,-0.228843,0.06565,-0.866289,-0.664262
10,2.416258,-1.354932,-2.0633209999999997,0.142092,0.976792,0.160275,0.6854020000000001,-0.8452860000000001,0.607829,0.307753,-0.5878909999999999,-0.43015699999999996
11,2.357479,-1.279906,-2.053383,0.202541,0.957989,0.203062,-5.638393,-5.0197080000000005,3.855925,0.994526,1.7026709999999998,0.735857
12,2.348224,-1.182642,-1.98725,0.269751,0.925609,0.26548499999999997,-2.826459,-1.368379,0.46646499999999996,1.027628,2.068959,1.6898369999999998
13,2.4972,-1.178597,-1.8997009999999999,0.22960500000000003,0.9240700000000001,0.305573,-0.691537,4.916566,-1.3362450000000001,-0.032492,-0.338865,0.140167
14,2.653451,-1.166051,-1.8212270000000002,0.184679,0.9192030000000001,0.347792,-2.098474,3.1563369999999997,-0.5522640000000001,-0.33461199999999997,0.332323,0.16456800000000002
15,2.735375,-1.105318,-1.756293,0.177357,0.8936069999999999,0.41232299999999994,-3.958793,0.267131,0.038785,-0.167653,2.151453,1.182923
16,2.828695,-1.034384,-1.650669,0.15731099999999998,0.859547,0.48623999999999995,-4.158638,0.36638699999999996,-1.696463,-0.016304,3.2387040000000002,0.060589
17,2.9088979999999998,-0.965518,-1.556853,0.131209,0.8223440000000001,0.553655,-3.719754,-0.420336,-1.141186,0.9561620000000001,0.055509,-1.185231
18,2.916178,-0.907442,-1.520122,0.137629,0.787931,0.600184,-2.694847,-1.358101,-0.08596799999999999,1.010122,-0.632322,-0.69929
19,2.911195,-0.884157,-1.519842,0.14477,0.773381,0.617189,-0.066694,0.39916,0.40976899999999994,0.712454,-1.2258040000000001,0.10594
20,2.9015020000000002,-0.9014540000000001,-1.5494709999999998,0.147542,0.78423,0.602671,1.606851,0.95415,0.8277399999999999,0.157222,-0.193745,-0.314494
21,2.889374,-0.9410459999999999,-1.595728,0.146972,0.808174,0.570308,2.584084,1.202073,0.85134,0.118073,-0.256676,-0.383357
22,2.856656,-0.994582,-1.652983,0.153156,0.8385309999999999,0.522883,3.275098,0.41350200000000004,0.851836,-0.114398,-0.356003,-0.401621
23,2.792104,-1.059464,-1.7288279999999998,0.16755799999999998,0.872093,0.45975600000000005,3.938246,-0.15768800000000002,0.860405,-0.22841,-0.26693,-0.34986300000000004
24,2.6838,-1.1336760000000001,-1.8415549999999998,0.187099,0.905975,0.37974,4.711787999999999,-0.512367,0.974153,-0.245098,-0.263549,-0.296321
25,2.511056,-1.199717,-2.011529,0.21379299999999998,0.9319360000000001,0.292892,4.098258,-1.2122469999999999,1.2378200000000001,-0.072558,0.09115,-0.195831
26,2.307839,-1.236359,-2.1608009999999997,0.24304499999999998,0.9445950000000001,0.22060700000000003,2.580652,-4.46053,0.221912,0.16891199999999998,0.251892,-0.132076
27,2.10541,-1.268946,-2.252786,0.255803,0.954788,0.151469,1.8203080000000003,-6.073161,-0.765165,-0.021917,-0.184219,-0.121928
28,2.0695669999999997,-1.293296,-2.209403,0.240575,0.961743,0.131043,-1.5427,-1.285603,-1.8961270000000001,-0.8563129999999999,-0.5094270000000001,1.593932
29,2.317262,-1.314094,-2.017478,0.186379,0.967232,0.172404,-0.5607989999999999,5.122136,-1.974392,-0.968407,-0.7307359999999999,1.968191
30,2.346054,-1.3518729999999999,-2.07012,0.155116,0.976132,0.152001,2.470053,3.0918740000000002,-0.380333,-0.059046,-0.9052399999999999,-0.558022
31,2.263921,-1.367186,-2.1989360000000002,0.155547,0.9793430000000001,0.129197,0.32629600000000003,1.587189,0.806234,0.401353,0.27100799999999997,-0.295655
32,2.31468,-1.300271,-2.1369830000000003,0.196644,0.9636309999999999,0.18095899999999998,-4.376249,-2.141062,2.695622,0.722835,2.485817,0.232798
33,2.3383380000000002,-1.2340870000000002,-2.026971,0.237749,0.9438469999999999,0.22940700000000003,-2.211473,-3.3536370000000004,-0.435753,0.300245,0.992295,0.800592
34,2.405351,-1.231744,-1.9610029999999998,0.22333899999999998,0.9430700000000001,0.24645100000000003,-0.414304,1.739609,-0.43613500000000005,-0.209804,-0.275727,-0.244085
35,2.4569400000000003,-1.221228,-1.932567,0.21659299999999998,0.93952,0.265307,-0.9342290000000001,0.414659,0.21675100000000003,-0.29188000000000003,-0.430228,-0.666507
36,2.432839,-1.202216,-1.934732,0.23450900000000002,0.93284,0.273523,-0.394383,-1.814016,0.8429459999999999,-0.12195999999999999,-0.25243499999999996,-0.415079
37,2.356807,-1.195117,-1.974951,0.259281,0.9302590000000001,0.259598,0.566154,-1.7397060000000002,0.608142,-0.225253,0.305078,-0.250092
38,2.291067,-1.206504,-2.019939,0.267795,0.934376,0.235002,1.247616,-0.8857940000000001,-0.13808399999999998,-0.347735,0.08517000000000001,-0.244402
39,2.210907,-1.237739,-2.090143,0.26221,0.945047,0.195272,2.3212099999999998,-0.76321,-0.554826,-0.43010200000000004,-0.09527000000000001,-0.12628699999999998
40,2.105643,-1.256258,-2.185765,0.266171,0.950939,0.157692,1.112916,-0.452571,0.596425,-0.35218499999999997,0.5748479999999999,1.130623
41,2.0488470000000003,-1.250767,-2.251159,0.279325,0.949226,0.144728,0.785566,0.616725,0.673953,-0.323667,0.456765,0.46196099999999996
42,2.018405,-1.249725,-2.298575,0.284493,0.9488979999999999,0.13658800000000001,0.469918,0.652751,0.19741199999999998,-0.25504299999999996,0.051895000000000004,0.246957
43,2.019848,-1.248143,-2.298677,0.285648,0.9483969999999999,0.13765,-0.386791,-0.420753,0.067821,-0.16325699999999999,-0.43106300000000003,-0.132996
44,2.049756,-1.236731,-2.238682,0.29099,0.944717,0.151108,-1.561683,-1.9154380000000002,0.046575,-0.189168,0.049102999999999994,-0.260956
45,2.1041,-1.214769,-2.119001,0.300149,0.9372889999999999,0.177197,-2.730315,-3.3032190000000003,-0.07410900000000001,-0.11356500000000001,0.262189,-0.08544600000000001
46,2.189516,-1.187067,-1.9663959999999998,0.304978,0.927275,0.217138,-3.119215,-2.341746,-0.417753,-0.167695,0.623674,0.292613
47,2.285404,-1.1594790000000001,-1.841489,0.302,0.916595,0.262007,-2.46042,-0.09627999999999999,-0.42243800000000004,-0.036986,0.37464899999999995,-0.075713
48,2.388778,-1.137718,-1.754847,0.286923,0.9076780000000001,0.306258,-1.801578,1.9201599999999999,-0.428965,0.0037869999999999996,0.433432,-0.25761300000000004
49,2.4880259999999996,-1.12266,-1.7007,0.263447,0.901256,0.343994,-0.9664530000000001,2.6137900000000003,-0.387701,0.15090599999999998,1.1138350000000001,-0.46223400000000003
50,2.5508599999999997,-1.124315,-1.668465,0.24049600000000002,0.9019719999999999,0.358618,0.0028870000000000002,0.899158,-0.810295,-0.051637999999999996,0.885763,-0.510962
51,2.573112,-1.14331,-1.629356,0.223192,0.910011,0.349378,0.458679,-1.6148639999999999,-1.477938,-0.238695,0.691705,-0.40383600000000003
52,2.6074599999999997,-1.168648,-1.543131,0.199257,0.920222,0.336878,-0.070082,-2.020301,-2.458534,-0.400032,0.8588610000000001,0.010946
53,2.67631,-1.192588,-1.440548,0.165675,0.929328,0.33000100000000004,0.316164,-1.251542,-2.168402,-0.217815,0.5155420000000001,-0.5160359999999999
54,2.715366,-1.218744,-1.343468,0.142564,0.938667,0.313974,0.39279400000000003,-3.482175,-1.9823419999999998,-0.048569,0.326058,-0.631753
55,2.713163,-1.231727,-1.262349,0.138179,0.9430649999999999,0.302546,-0.237114,-3.838566,-1.2898049999999999,0.247364,-0.03564,-0.484446
56,2.720141,-1.2304110000000001,-1.187033,0.136573,0.9426260000000001,0.304635,-0.7025279999999999,-2.88472,-0.9930389999999999,0.384988,-0.227264,-0.257852
57,2.717461,-1.224907,-1.126522,0.139522,0.940774,0.308992,-0.591753,-3.178937,-0.77075,0.323918,-0.201379,-0.24991
58,2.692114,-1.221869,-1.0811870000000001,0.14854900000000001,0.9397399999999999,0.30793000000000004,-0.396425,-3.419107,-0.553297,0.13888,-0.257748,-0.179238
59,2.657279,-1.2207430000000001,-1.051259,0.15967699999999999,0.9393540000000001,0.303506,-0.216989,-2.957064,-0.37103800000000003,0.070701,-0.235894,-0.074792
60,2.623107,-1.2204059999999999,-1.032419,0.17010899999999998,0.9392389999999999,0.298148,-0.150873,-2.35595,-0.23675,0.081355,-0.227035,-0.067466
61,2.59147,-1.218509,-1.01643,0.180386,0.938586,0.294137,-0.329379,-2.342898,-0.149351,0.07951699999999999,-0.203539,-0.27413200000000004
62,2.568205,-1.210524,-0.992884,0.19123900000000002,0.935801,0.296147,-0.679802,-2.203229,-0.141296,0.07022,-0.287958,-0.305562
63,2.557051,-1.198818,-0.9588690000000001,0.200562,0.93161,0.303111,-0.904128,-2.072306,-0.186828,0.055389,-0.34419299999999997,-0.278163
64,2.549509,-1.188024,-0.920882,0.208443,0.927633,0.30991599999999997,-0.750816,-2.302301,-0.345695,-0.000984,-0.37943000000000005,-0.23757399999999998
65,2.536203,-1.184174,-0.886559,0.214579,0.9261879999999999,0.31005,-0.36549899999999996,-2.176275,-0.49378500000000003,-0.105128,-0.37208,0.10318900000000002
66,2.523345,-1.189034,-0.85535,0.215935,0.92801,0.30359200000000003,0.010201,-2.09267,-0.681411,-0.177926,-0.294694,0.17648
67,2.510125,-1.200792,-0.822943,0.213473,0.932326,0.291883,0.12209,-2.14846,-0.945477,-0.33558899999999997,-0.116042,0.269381
68,2.5339720000000003,-1.2162629999999999,-0.765692,0.198194,0.937809,0.285013,0.031762,-0.974059,-1.515907,-0.697812,0.506466,0.240011
69,2.606382,-1.235098,-0.676021,0.168014,0.9441799999999999,0.283359,-0.180032,-0.6569010000000001,-1.7912580000000002,-0.813171,0.561191,0.10644200000000001
70,2.672663,-1.237184,-0.570759,0.14798699999999998,0.944866,0.292107,-0.972334,-2.1330240000000003,-1.45841,-0.7016220000000001,0.280614,0.035255
71,2.7153869999999998,-1.238085,-0.47934499999999997,0.135024,0.94516,0.29738600000000004,-0.258982,-2.076439,-1.30929,-0.13477999999999998,-0.355622,0.20008099999999998
72,2.737829,-1.251233,-0.42940500000000004,0.123423,0.9493729999999999,0.288887,0.47028100000000006,-0.68038,-0.747305,0.17091900000000002,0.32710100000000003,-0.180535
73,2.750239,-1.25663,-0.414728,0.117873,0.9510540000000001,0.285657,-0.273502,0.100726,-0.16811600000000002,0.582353,1.5307879999999998,0.35754600000000003
74,2.796887,-1.229057,-0.355504,0.113245,0.9421729999999999,0.315409,-2.3451299999999997,-0.8549030000000001,-0.48366800000000004,0.348654,0.912761,0.582769
75,2.8293779999999997,-1.193826,-0.297531,0.113069,0.929784,0.350308,-1.379974,-1.227603,-0.291647,0.329359,-0.086324,0.16153299999999998
76,2.798114,-1.195534,-0.298329,0.123429,0.9304110000000001,0.345107,0.804379,-1.568584,0.234658,0.282546,-1.128333,-0.307723
77,2.710603,-1.2210370000000002,-0.370531,0.143157,0.9394549999999999,0.31133299999999997,2.1556130000000002,-0.604196,0.848542,0.030594999999999997,-0.8677389999999999,-0.8120350000000001
78,2.596246,-1.2609709999999998,-0.49849799999999994,0.15815099999999999,0.9523870000000001,0.26066500000000004,2.97782,1.07249,0.9493450000000001,-0.191644,-0.67071,-0.985259
79,2.46369,-1.290144,-0.669725,0.17371199999999998,0.960875,0.215738,2.022175,1.536541,1.3469309999999999,-0.418005,1.046663,-0.961267
80,2.409581,-1.276055,-0.74068,0.194155,0.9568770000000001,0.21607600000000002,-1.079344,0.06663,1.0633,-0.330248,1.0930799999999998,-0.252469
81,2.40422,-1.237172,-0.705647,0.22017199999999998,0.9448620000000001,0.242404,-1.860554,-3.2748060000000003,0.858095,-0.290164,0.663384,-0.149951
82,2.326221,-1.2076040000000001,-0.692645,0.258621,0.934767,0.24356399999999997,-0.69165,-4.780954,0.8724620000000001,0.12928800000000001,-0.103469,-0.15958
83,2.204931,-1.197342,-0.731759,0.293904,0.9310729999999999,0.21615700000000002,0.644626,-3.780786,0.81108,0.236339,-0.12090699999999999,-0.11428900000000002
84,2.095199,-1.191087,-0.785509,0.320843,0.9287719999999999,0.185583,0.496271,-2.6275560000000002,0.789338,0.268818,-0.051193999999999996,-0.18501800000000002
85,2.01534,-1.180972,-0.808012,0.343089,0.924976,0.163428,0.003256,-3.373734,0.5390229999999999,0.130147,0.131711,-0.284858
86,1.916045,-1.178026,-0.8253,0.360163,0.923852,0.12953399999999998,0.47388,-4.521873,0.07483200000000001,-0.165217,0.16481700000000002,0.00011999999999999999
87,1.805036,-1.182158,-0.8583299999999999,0.368579,0.925426,0.08795,0.6765180000000001,-3.452633,-0.026602999999999998,-0.309177,0.074757,0.202623
88,1.7335459999999998,-1.187184,-0.885191,0.36932600000000004,0.927319,0.060644,0.477405,-1.7177189999999998,-0.28125,-0.46434200000000003,-0.092556,0.131922
89,1.69102,-1.1983139999999999,-0.9151819999999999,0.36130100000000004,0.931427,0.043648,0.781061,-0.178371,-0.550293,-0.278125,-0.116165,-0.024116
90,1.6458549999999998,-1.211286,-0.9706790000000001,0.350825,0.936069,0.026382,1.196856,0.497579,-0.519413,-0.195338,-0.131107,-0.14122
91,1.579112,-1.221241,-1.0465010000000001,0.342469,0.939525,0.002848,1.387804,-0.089515,-0.387004,0.023071,-0.119762,-0.24201399999999998
92,1.4863870000000001,-1.225287,-1.130056,0.33747,0.940903,-0.028554000000000003,1.4262860000000002,-1.0418180000000001,-0.167597,0.053979,-0.129486,-0.087383
93,1.378629,-1.2214639999999999,-1.211149,0.33597,0.939601,-0.06536900000000001,1.345429,-1.9002029999999999,0.11174400000000001,0.046415,-0.020916,0.090638
94,1.279198,-1.211358,-1.267104,0.3369,0.9360940000000001,-0.101122,0.8209700000000001,-2.5309630000000003,0.328942,-0.043885,0.091402,0.280031
95,1.221701,-1.202037,-1.2787540000000002,0.338717,0.932775,-0.123294,0.10488499999999999,-2.0312650000000003,0.395939,-0.125948,0.129343,0.4276
96,1.205141,-1.195653,-1.271959,0.342183,0.9304549999999999,-0.13101300000000002,0.005207,-0.5870029999999999,0.279093,-0.14113299999999998,0.199718,0.450013
97,1.2049020000000001,-1.191901,-1.27309,0.345409,0.929074,-0.13234200000000002,0.11537,0.270775,0.12600699999999998,-0.147335,0.229541,0.270847
98,1.209309,-1.18929,-1.270722,0.34825700000000004,0.928105,-0.131677,-0.106306,-0.12484200000000001,0.151671,-0.213964,0.230739,0.030801
99,1.2117870000000002,-1.188177,-1.250092,0.349549,0.92769,-0.131176,-0.461649,-1.281741,0.195537,-0.365479,0.157881,-0.097523
100,1.205329,-1.189082,-1.21874,0.347909,0.928027,-0.13313,-0.606246,-1.931921,0.145154,-0.42453900000000006,0.234204,0.075589
101,1.206626,-1.193646,-1.183429,0.34412,0.929718,-0.131169,-0.763166,-1.206164,-0.060903,-0.258365,0.500046,0.289799
102,1.24223,-1.203616,-1.135885,0.33978,0.933343,-0.11583900000000001,-1.152865,-0.026944,-0.24566500000000002,-0.216901,0.460379,0.289667
103,1.3223209999999999,-1.22059,-1.055703,0.332554,0.9393020000000001,-0.084375,-1.912944,0.311302,-0.523805,-0.27161,0.414595,0.20525500000000002
104,1.469878,-1.242358,-0.896526,0.320922,0.9465469999999999,-0.032497000000000005,-3.4197870000000004,-0.584284,-0.627186,-0.361083,0.19452,0.345913
105,1.699026,-1.253228,-0.623698,0.309692,0.949998,0.039931,-4.642949,-1.8977110000000001,-0.6468649999999999,-0.302765,0.036956,0.35588200000000003
106,1.9346900000000002,-1.243746,-0.342358,0.300214,0.946994,0.11433800000000001,-4.141436,-1.103959,-0.579218,-0.051374,0.046338,0.020092
107,2.138427,-1.220823,-0.128412,0.289101,0.9393819999999999,0.18434,-3.4475599999999997,0.925997,-0.533175,0.171562,0.202906,-0.1351
108,2.319128,-1.190475,0.026091000000000003,0.272037,0.9285459999999999,0.25258200000000003,-2.896744,1.957322,-0.514599,0.035901,0.297254,-0.461262
109,2.45391,-1.16612,0.148195,0.24991300000000002,0.9192299999999999,0.304235,-2.090138,0.350754,-1.179886,-0.22766599999999998,0.559164,-0.815557
110,2.5231470000000003,-1.163767,0.257123,0.22951999999999997,0.918301,0.32255700000000004,-1.2416280000000002,-2.436048,-1.9042560000000002,-0.343107,0.871525,-0.371461
111,2.610749,-1.164324,0.40531100000000003,0.20016,0.9185209999999999,0.340959,-1.74741,-2.156923,-2.802248,-0.389171,0.804074,-0.11578499999999999
112,2.7246770000000002,-1.158859,0.5734600000000001,0.162132,0.9163469999999999,0.366088,-1.728202,-2.145314,-2.7914470000000002,-0.282585,0.5898939999999999,-0.331176
113,2.818832,-1.145741,0.728955,0.130798,0.9110159999999999,0.39107600000000003,-1.7931169999999998,-2.48955,-2.6974560000000003,0.089295,0.222865,-0.630792
114,2.8987279999999997,-1.1266100000000001,0.8756709999999999,0.103341,0.902961,0.41711099999999995,-1.7188029999999999,-2.8040849999999997,-2.6922610000000002,0.176062,0.15421400000000002,-0.699002
115,2.9516720000000003,-1.1063969999999999,1.0031809999999999,0.084552,0.894091,0.439831,-1.4531459999999998,-3.215287,-2.38864,0.22170700000000002,-0.258303,-0.419232
116,2.98325,-1.092087,1.10752,0.072633,0.88759,0.45487,-0.906731,-2.897672,-2.104288,0.24723699999999998,-0.26553499999999997,-0.36691799999999997
117,3.006846,-1.0862020000000001,1.194231,0.062582,0.884864,0.461625,-0.425188,-2.553122,-1.839651,0.232325,-0.22116799999999998,-0.34874
118,3.019653,-1.084898,1.265732,0.056804999999999994,0.8842559999999999,0.463533,-0.217363,-2.5263430000000002,-1.5241770000000001,0.126743,-0.161615,-0.394563
119,3.018225,-1.084435,1.321864,0.057517,0.8840399999999999,0.46385699999999996,-0.166769,-2.53651,-1.15741,0.112069,-0.23094800000000001,-0.41968199999999994
120,3.0064759999999997,-1.085404,1.362188,0.062847,0.8844920000000001,0.4623,0.005288,-2.172926,-0.8554360000000001,0.146595,-0.361192,-0.38304499999999997
121,2.99535,-1.091748,1.391262,0.06716799999999999,0.8874340000000001,0.456012,0.355504,-1.647746,-0.626131,0.163209,-0.427717,-0.258075
122,2.984253,-1.104252,1.408331,0.07048,0.893128,0.44424399999999997,0.675886,-1.107575,-0.39064499999999996,0.17382899999999998,-0.44213900000000006,-0.231292
123,2.972439,-1.1210360000000001,1.413278,0.073189,0.900551,0.428541,0.865665,-0.674506,-0.164479,0.168434,-0.46485200000000004,-0.202223
124,2.9562880000000002,-1.138601,1.4081569999999999,0.077174,0.908048,0.411691,0.8835569999999999,-0.544283,0.02135,-0.031855,-0.395673,-0.204904
125,2.931877,-1.154491,1.39478,0.084185,0.914589,0.395521,0.769171,-0.6904,0.163879,-0.06485199999999999,-0.415764,-0.186414
126,2.896305,-1.1654579999999999,1.375973,0.095756,0.918969,0.382524,0.5237069999999999,-1.061813,0.284418,-0.078819,-0.44449700000000003,-0.167207
127,2.851497,-1.171401,1.3534059999999999,0.11123,0.9212959999999999,0.37261,0.352896,-1.242639,0.364642,-0.023019,-0.486116,-0.110204
128,2.8052580000000003,-1.177215,1.330934,0.126564,0.923541,0.362008,0.484504,-1.25655,0.266234,-0.046227,-0.439395,-0.025704
129,2.773539,-1.1902059999999999,1.320618,0.133653,0.9284459999999999,0.346587,0.796255,-1.016916,-0.256392,-0.191712,-0.201593,0.091066
130,2.770566,-1.2125139999999999,1.331608,0.12714,0.936501,0.326801,1.047752,-0.418063,-0.782036,-0.33234,0.207085,0.22335500000000003
131,2.789666,-1.2396280000000002,1.356103,0.112079,0.9456629999999999,0.305215,1.134674,-0.141103,-0.8544229999999999,-0.556354,0.391556,0.214362
132,2.804491,-1.264558,1.373688,0.099712,0.953475,0.284501,1.04565,0.035972000000000004,-0.571125,-0.49550900000000003,0.119371,0.13572599999999999
133,2.800878,-1.289181,1.362681,0.092864,0.960608,0.261927,1.368564,0.48121800000000003,-0.042807,-0.23106300000000002,-0.156546,0.031469
134,2.749427,-1.31742,1.295104,0.095803,0.9680719999999999,0.231638,1.766693,0.868432,0.547,0.004905,-0.307305,-0.08587
135,2.647914,-1.3414270000000001,1.159904,0.10773800000000001,0.9738100000000001,0.20021,1.7407569999999999,1.9364400000000002,1.217362,0.142171,-0.09186699999999999,-0.20079
136,2.485739,-1.3452620000000002,0.9495040000000001,0.136372,0.974675,0.177225,1.081526,1.7632419999999998,2.2096299999999998,0.556453,0.590175,-0.565928
137,2.375859,-1.3207389999999999,0.8616530000000001,0.171502,0.9688979999999999,0.17838299999999999,-1.0854780000000002,-3.298161,0.96291,1.2364879999999998,0.775853,-0.533043
138,2.316634,-1.284741,0.91146,0.207256,0.959364,0.191474,-2.134097,-6.175731,1.137666,0.9702799999999999,0.709917,0.268594
139,2.308925,-1.22391,0.997948,0.25148400000000004,0.940436,0.228766,-3.0482560000000003,-2.670611,1.040263,0.444821,1.109216,0.93786
140,2.380008,-1.2025549999999998,1.0590979999999999,0.24840500000000001,0.9329620000000001,0.260527,-0.721439,2.380354,-0.299121,-0.446144,-0.48091999999999996,-0.303313
141,2.464127,-1.200823,1.08074,0.22665100000000002,0.9323370000000001,0.281737,-0.196992,3.107764,-0.177817,-0.47890900000000003,-0.43940200000000007,-0.47653
142,2.492532,-1.193344,1.093132,0.222766,0.9296059999999999,0.293607,-0.5241180000000001,-0.921539,0.21282600000000002,-0.480213,0.254353,-1.150831
143,2.425754,-1.196228,1.088954,0.240101,0.930666,0.276063,0.70445,-3.9415839999999998,-0.321652,-0.174793,0.9140459999999999,-0.903748
144,2.3168279999999997,-1.227565,1.055878,0.24714299999999997,0.941672,0.22841199999999998,1.881421,-3.615854,-0.747546,-0.053692,0.392007,-0.022541
145,2.273291,-1.2476129999999999,1.035398,0.24239000000000002,0.9482290000000001,0.205198,0.449243,-0.028705,-0.39681500000000003,0.215466,-0.095904,0.935366
146,2.269719,-1.261477,1.018874,0.23303400000000002,0.952541,0.195853,0.910388,0.791866,-0.34123400000000004,0.109877,-0.14619000000000001,0.148233
147,2.239188,-1.281187,0.9670989999999999,0.224125,0.958355,0.176978,1.24048,0.981017,-0.24409899999999998,0.040753,-0.157818,-0.132132
148,2.210915,-1.294575,0.9216139999999999,0.218727,0.962093,0.162892,0.676712,0.601891,-0.04993,0.0037920000000000002,-0.27524899999999997,-0.144276
149,2.1890680000000002,-1.2970270000000002,0.8945719999999999,0.22030999999999998,0.962759,0.15670699999999999,0.226737,-0.051586,0.189182,-0.010074,-0.39514699999999997,0.010209000000000001
150,2.1647849999999997,-1.293584,0.8780680000000001,0.226796,0.961822,0.153167,0.016878999999999998,-0.566954,0.314427,-0.051229,-0.31396399999999997,0.17856
151,2.144939,-1.288192,0.8681030000000001,0.234143,0.960332,0.15145,-0.021597,-0.394047,0.264798,-0.162441,-0.21665,0.265832
152,2.133741,-1.286616,0.8576379999999999,0.237104,0.959892,0.149627,0.13534300000000002,0.139923,0.062248000000000005,-0.295026,-0.178398,0.274064
153,2.137005,-1.288761,0.851985,0.23487600000000003,0.960491,0.149295,0.094358,0.593453,-0.098853,-0.324658,-0.19509500000000002,0.277036
154,2.1543509999999997,-1.291504,0.855698,0.23005100000000003,0.961251,0.151894,-0.020081,0.703833,-0.16388699999999998,-0.323252,-0.205819,0.265922
155,2.188736,-1.2929950000000001,0.876642,0.223525,0.9616610000000001,0.158882,-0.350061,0.762948,-0.275226,-0.26454,-0.135916,0.294655
156,2.261989,-1.289368,0.93737,0.213983,0.9606600000000001,0.177037,-1.040244,0.667816,-0.395293,-0.204171,-0.140622,0.280559
157,2.360963,-1.275644,1.03201,0.204702,0.956758,0.206664,-1.6902669999999997,0.372844,-0.391978,-0.127905,-0.206071,0.319459
158,2.4802470000000003,-1.249364,1.138203,0.19403299999999998,0.948784,0.249315,-2.286474,1.2171889999999999,-0.303221,-0.018678999999999998,0.053978,0.267729
159,2.600552,-1.20541,1.244499,0.184023,0.9339860000000001,0.306274,-3.199884,0.561675,-0.21687800000000002,-0.0058460000000000005,0.265889,0.051438
160,2.6860180000000002,-1.139748,1.351459,0.183832,0.9085280000000001,0.375207,-4.224387999999999,-1.28996,-0.34771199999999997,0.158865,0.59344,-0.18824100000000002
161,2.751941,-1.06815,1.453263,0.182998,0.8763110000000001,0.445633,-3.965532,-1.0294729999999999,-0.711569,0.18592899999999998,0.766771,-0.250824
162,2.8015939999999997,-1.013811,1.529989,0.17629,0.8488530000000001,0.498366,-2.712602,-0.9433879999999999,-0.94755,0.108134,0.733316,-0.5606369999999999
163,2.819232,-0.9820780000000001,1.5765959999999999,0.17592,0.8316530000000001,0.526691,-1.498961,-0.794075,-0.44574600000000003,0.35899200000000003,0.11530699999999999,-0.087421
164,2.830751,-0.964037,1.596595,0.174403,0.8215,0.54288,-0.818049,-0.096184,-0.270969,0.39476500000000003,-0.065092,0.142927
165,2.841213,-0.9621040000000001,1.605897,0.169184,0.8203959999999999,0.546191,0.247523,0.256281,-0.09412999999999999,0.21468099999999998,-0.019707,-0.05089
166,2.8362830000000003,-0.9783639999999999,1.5902969999999998,0.16784200000000002,0.829585,0.532556,1.301051,0.534351,0.315592,-0.0016589999999999999,-0.17666099999999998,-0.08591599999999999
167,2.822355,-1.0110780000000001,1.555507,0.166634,0.847405,0.50412,2.151184,0.849433,0.43756300000000004,0.090309,-0.22260300000000002,-0.242706
168,2.792659,-1.058079,1.503364,0.167716,0.8714149999999999,0.460984,2.959389,0.591651,0.532201,0.12390999999999999,-0.22609,-0.329835
169,2.728325,-1.114755,1.42451,0.17686400000000002,0.897803,0.40331999999999996,3.451336,0.111856,0.743487,0.132096,-0.244971,-0.386627
170,2.6254939999999998,-1.169382,1.313615,0.19281500000000001,0.920509,0.339827,3.4268989999999997,-0.200746,0.883654,0.111597,-0.25069400000000003,-0.380187
171,2.48482,-1.213367,1.1760190000000001,0.213615,0.9367989999999999,0.277081,3.099795,-1.041226,0.895265,0.086511,-0.131883,-0.36668
172,2.3068619999999997,-1.246157,1.031103,0.236389,0.947766,0.21414499999999997,2.674056,-2.8131369999999998,0.554867,-0.125687,-0.328961,-0.266086
173,2.1030740000000003,-1.270413,0.9003329999999999,0.254948,0.9552229999999999,0.15016,2.099486,-4.486551,-0.045206,-0.43571899999999997,-0.649666,0.07239
174,1.937978,-1.292524,0.8209059999999999,0.256382,0.9615309999999999,0.098611,1.040824,-4.0539879999999995,-0.7400220000000001,-0.8526799999999999,-0.6885979999999999,0.6333840000000001
175,1.922555,-1.3137780000000001,0.8442379999999999,0.23863,0.967152,0.08758300000000001,-0.6573640000000001,-0.046729,-1.32104,-1.1446209999999999,-0.484257,1.4268370000000001
176,2.09721,-1.326537,0.968736,0.209094,0.970317,0.12150599999999999,-0.821945,3.309191,-0.987864,-0.707568,-0.70489,0.7539819999999999
177,2.15889,-1.343828,0.981425,0.187218,0.974353,0.12483699999999999,0.884437,1.9696669999999998,-0.75097,0.031150999999999998,-0.80257,-0.443104
178,2.145393,-1.36016,0.939768,0.175503,0.9778979999999999,0.11363399999999999,0.479029,0.8981110000000001,-0.161701,0.364139,-0.6084069999999999,-0.280672
179,2.235619,-1.3084120000000001,1.109538,0.20414100000000002,0.965774,0.160018,-6.3413330000000006,-7.588794,1.715787,1.243919,1.519348,1.23462
180,2.3395479999999997,-1.22448,1.3090389999999998,0.24397800000000003,0.940629,0.235988,-2.404527,-1.15305,0.332464,0.526072,1.742705,1.076238
181,2.49988,-1.222142,1.3901430000000001,0.20449,0.939833,0.273671,-0.711433,5.74752,-1.061787,-0.214988,-0.21761999999999998,0.190745
182,2.661852,-1.208167,1.473061,0.163726,0.934967,0.314688,-1.868752,2.9903299999999997,-0.793941,-0.479934,-0.621567,-0.390479
183,2.76178,-1.163333,1.546187,0.146919,0.9181290000000001,0.36803800000000003,-3.079825,1.3848850000000001,0.007232,-0.472847,-0.332985,0.317814
184,2.832319,-1.091241,1.598487,0.14043,0.8872,0.439492,-3.9318150000000003,0.158138,0.100061,-0.041964999999999995,1.2835,0.325339
185,2.866132,-1.028088,1.6546900000000002,0.140471,0.8563129999999999,0.496985,-3.011646,-0.42295600000000005,-0.832802,0.48935100000000004,2.11616,-0.9700540000000001
186,2.91051,-0.981142,1.7069759999999998,0.127358,0.831133,0.541292,-2.518261,-0.130342,-0.64386,0.9883799999999999,1.335691,-1.2019520000000001
187,2.919858,-0.9423290000000001,1.7360080000000002,0.12929300000000002,0.80893,0.573511,-1.6538549999999999,-0.882726,-0.253366,1.2228649999999999,-0.31092800000000004,0.160772
188,2.925625,-0.9360120000000001,1.7391189999999999,0.127076,0.8052,0.579227,0.541826,0.792937,0.24372800000000003,0.463897,-0.74746,0.224728
189,2.921687,-0.964356,1.6988009999999998,0.124327,0.821682,0.5562199999999999,2.148894,1.753168,1.142484,-0.029905,-0.528515,-0.3543
190,2.8989279999999997,-1.009822,1.631772,0.12783699999999998,0.8467370000000001,0.516423,2.830404,1.341265,1.261003,-0.023573,-0.344494,-0.41418900000000003
191,2.847714,-1.063994,1.563998,0.140599,0.874301,0.46457299999999996,3.208007,-0.145083,0.73998,0.043315,0.086423,-0.46580900000000003
192,2.7751080000000004,-1.124909,1.4979360000000002,0.15453499999999998,0.902228,0.402619,3.4143199999999996,-0.9526450000000001,0.316236,-0.128137,-0.054221000000000005,-0.350022
193,2.687431,-1.1818819999999999,1.429869,0.166351,0.925321,0.34074499999999996,2.918145,-1.4845620000000002,0.033576999999999996,-0.399841,-0.5787479999999999,-0.23344499999999999
194,2.587898,-1.2241819999999999,1.3704399999999999,0.178633,0.940528,0.288957,2.032922,-2.77086,-0.136532,-0.392073,-0.877067,-0.258058
195,2.493162,-1.256685,1.340774,0.186599,0.9510709999999999,0.24625999999999998,1.379966,-3.248293,-0.8540530000000001,-0.558639,-0.825507,-0.41343500000000005
196,2.524037,-1.287497,1.394339,0.161857,0.9601379999999999,0.227895,0.082799,0.9205260000000001,-1.958043,-0.645088,-0.694574,0.08881599999999999
197,2.682004,-1.286999,1.5138690000000001,0.124204,0.9599989999999999,0.250948,-0.675004,0.096277,-0.572523,-0.688718,-0.777046,1.326383
198,2.623742,-1.287739,1.495391,0.138253,0.960206,0.24267199999999997,0.627559,-2.075617,0.377258,0.017112,-0.653108,-0.40057
199,2.561483,-1.259223,1.475429,0.168028,0.951852,0.25640300000000005,-4.173443,-2.671336,1.664808,0.27670500000000003,0.481436,1.374243
200,2.563195,-1.188302,1.4946110000000001,0.204041,0.927737,0.312525,-1.456136,1.387006,0.998131,0.601272,1.24101,-0.495447
201,2.676788,-1.161334,1.5539,0.178455,0.917335,0.35588000000000003,-1.8192110000000001,3.0014,-0.40905,0.333127,-0.063529,-0.306228
202,2.738019,-1.1323969999999999,1.57979,0.166701,0.905432,0.390389,-1.2752299999999999,1.1257979999999999,0.36306900000000003,-0.070601,-1.093375,-0.529137
203,2.7682860000000002,-1.113489,1.581236,0.161025,0.8972450000000001,0.41112299999999996,-0.8941100000000001,2.23926,0.237186,-0.332061,-0.397458,0.815042
204,2.850503,-1.087443,1.597351,0.133382,0.8854420000000001,0.4452,-1.6722279999999998,3.3974839999999995,0.045464,-0.301137,0.160365,0.8774930000000001
205,2.903451,-1.041384,1.6216629999999999,0.11913399999999999,0.8631040000000001,0.490774,-2.718065,0.804505,-0.354829,-0.1363,3.3146760000000004,-0.25752800000000003
206,2.967085,-0.9819110000000001,1.691598,0.09643600000000001,0.8315600000000001,0.546999,-3.6034,-0.322117,-1.294263,0.183746,2.47241,-0.9072889999999999
207,2.977641,-0.9157850000000001,1.740389,0.099427,0.793041,0.601,-3.080452,-1.933293,-0.5632229999999999,0.7322529999999999,0.463688,-1.432009
208,2.952426,-0.8774540000000001,1.7561669999999998,0.120179,0.7691140000000001,0.627711,-1.361974,-1.66248,0.018864,0.41308500000000004,-0.984355,0.32958000000000004
209,2.942177,-0.8746219999999999,1.7491330000000003,0.12703699999999998,0.767301,0.628578,0.583388,0.486231,0.184591,0.234429,-0.378492,0.24025700000000003
210,2.9510240000000003,-0.9044629999999999,1.7339069999999999,0.11707999999999999,0.786093,0.6069180000000001,2.102357,1.231571,0.288267,0.362244,0.14689000000000002,0.085007
211,2.947647,-0.957099,1.698275,0.11099300000000001,0.817524,0.5650970000000001,3.112089,1.2318719999999999,0.669197,0.145873,-0.191151,-0.323413
212,2.926918,-1.0218770000000001,1.6495900000000001,0.111151,0.853089,0.509789,3.606296,0.736158,0.597441,0.035715,-0.091813,-0.48558900000000005
213,2.879603,-1.093691,1.594157,0.11893699999999999,0.8883280000000001,0.44354,3.897646,-0.348684,0.44276899999999997,-0.031045999999999997,-0.098579,-0.477109
214,2.793027,-1.16388,1.515435,0.135178,0.9183459999999999,0.37197800000000003,3.7191050000000003,-0.945413,0.640976,-0.17941400000000002,-0.247844,-0.332732
215,2.6657439999999997,-1.218972,1.4161629999999998,0.157864,0.9387459999999999,0.30632600000000004,2.983326,-2.425152,0.497796,-0.17591500000000002,-0.463892,-0.339941
216,2.499458,-1.261387,1.3158299999999998,0.182364,0.952514,0.243846,2.4733389999999997,-4.228568,0.117325,-0.16796,-0.673125,-0.326182
217,2.329612,-1.2946520000000001,1.2347549999999998,0.197847,0.9621139999999999,0.18759800000000001,1.611733,-4.462956,-0.459891,-0.5295880000000001,-0.8401200000000001,0.097512
218,2.357852,-1.309924,1.284399,0.182076,0.9661649999999999,0.18268099999999998,-1.0022469999999999,2.7147069999999998,-1.348335,-1.0122,-0.357996,2.265882
219,2.509736,-1.316556,1.3466770000000001,0.148553,0.9678549999999999,0.202951,0.503504,3.3105550000000004,-0.34726999999999997,-0.29461,-0.5050560000000001,0.559958
220,2.500161,-1.333037,1.3147799999999998,0.140924,0.9718680000000001,0.188711,1.156549,0.463129,-0.12862,0.147635,-0.928793,-0.664358
221,2.437146,-1.356914,1.2362600000000001,0.137459,0.9772139999999999,0.161732,1.35681,0.724112,-0.033552,0.398338,-0.6403760000000001,-0.480259
222,2.5173740000000002,-1.262605,1.407562,0.177289,0.9528840000000001,0.246133,-9.441133,-8.416001,2.409853,1.214114,1.6101809999999999,1.544974
223,2.504243,-1.183432,1.4754129999999999,0.224786,0.925908,0.303588,-1.28319,1.1388559999999999,-0.22984899999999997,0.368491,1.832393,1.8052529999999998
224,2.6707080000000003,-1.197336,1.522784,0.165519,0.9310700000000001,0.325133,0.4611,7.115755,-1.11729,-0.154609,-0.613367,-0.707397
225,2.829622,-1.195884,1.572824,0.112397,0.9305399999999999,0.348515,-0.917285,4.412187,-0.7474390000000001,-0.390061,-0.763258,-1.066533
226,2.907069,-1.184398,1.6135709999999999,0.087573,0.926272,0.366539,-0.409454,0.48878699999999997,-0.391692,-0.5156430000000001,-0.097339,-0.832176
227,2.924593,-1.157585,1.635174,0.086454,0.9158360000000001,0.392135,-3.037109,0.9817020000000001,-0.168192,-0.6368689999999999,3.615704,1.131364
228,3.006601,-1.101668,1.706679,0.060846000000000004,0.891963,0.447996,-2.695068,1.401429,-1.7964470000000001,-0.122079,3.5752309999999996,0.47442799999999996
229,3.108653,-1.034742,1.800818,0.016821,0.8597309999999999,0.51047,-3.983083,-0.420634,-1.901386,0.828257,1.079967,-0.8842190000000001
230,3.112299,-0.962325,1.858829,0.016742,0.820523,0.571367,-3.161448,-2.484653,-1.137769,1.31419,0.045917,-0.8731399999999999
231,3.096765,-0.923436,1.8722919999999998,0.027025,0.797679,0.602475,-1.184152,-0.467139,0.10618599999999999,0.631147,-0.9304,-0.05840700000000001
232,3.096476,-0.9208620000000001,1.850768,0.027292,0.7961239999999999,0.604517,0.365031,1.27139,0.8935129999999999,0.401312,-0.54501,0.137061
233,3.093434,-0.939328,1.812488,0.028419,0.807161,0.589645,1.32522,1.303167,1.171507,0.159676,0.067137,-0.21182199999999998
234,3.075802,-0.9741040000000001,1.769952,0.036942,0.827199,0.560692,2.0349310000000003,0.559593,1.09196,0.12385499999999999,0.158153,-0.42916099999999996
235,3.044044,-1.01952,1.724996,0.051012,0.851857,0.5212829999999999,2.567471,0.248185,0.983915,0.22108200000000003,0.104122,-0.28121599999999997
236,2.998558,-1.075132,1.671371,0.067798,0.879653,0.470757,3.1607950000000002,-0.158841,1.024901,0.093824,-0.091369,-0.32586
237,2.920556,-1.1424450000000002,1.596797,0.091066,0.909652,0.405263,3.837644,-0.780096,1.0208110000000001,-0.01317,-0.20388699999999998,-0.314259
238,2.79435,-1.211151,1.486758,0.11976700000000001,0.9360219999999999,0.330933,3.810204,-1.594149,1.0900290000000001,-0.128571,-0.310152,-0.313965
239,2.6105549999999997,-1.2678690000000001,1.343652,0.151073,0.954467,0.257228,3.3968879999999997,-2.983637,0.74175,-0.106624,-0.389434,-0.5597479999999999
240,2.386356,-1.3129620000000002,1.1886139999999998,0.174781,0.966944,0.185655,2.854937,-4.052064,0.13578800000000002,-0.244483,-0.503092,-0.447115
241,2.18851,-1.348808,1.061116,0.179479,0.975462,0.12751300000000002,1.8328209999999998,-3.162311,-0.637338,-0.60111,-0.7462439999999999,-0.061824000000000004
242,2.175161,-1.372892,1.0671540000000002,0.16178199999999998,0.9804809999999999,0.111721,0.041684,0.6776260000000001,-1.1194469999999999,-0.930551,-0.703168,1.6673470000000001
243,2.362345,-1.374344,1.2000030000000002,0.137166,0.980765,0.13886400000000002,-1.32199,3.820393,-0.787964,-0.68517,-0.5551520000000001,1.473746
244,2.481162,-1.378654,1.2572729999999999,0.11714400000000001,0.9815969999999999,0.150804,0.656277,2.3175470000000002,-0.43679799999999996,-0.087603,-0.663024,-0.174745
245,2.490875,-1.3984159999999999,1.23616,0.103902,0.9851790000000001,0.136473,0.718054,1.11779,-0.42628299999999997,0.319896,-0.598476,-0.613097
246,2.4727,-1.383034,1.247635,0.11575099999999999,0.982424,0.14643599999999998,-2.309805,-5.3665519999999995,1.399286,0.501238,-0.105776,-0.485471
247,2.463229,-1.261788,1.399369,0.19083699999999998,0.952636,0.236783,-4.912159,-4.254805999999999,1.35832,0.804845,2.53589,1.985553
248,2.606117,-1.255333,1.493511,0.158308,0.9506530000000001,0.266827,-0.09085399999999999,5.3068599999999995,-1.42327,-0.164854,0.74733,0.47912899999999997
249,2.7706060000000003,-1.2506110000000001,1.567864,0.114105,0.949177,0.293329,-1.364954,3.61562,-0.690793,-0.28576599999999996,-0.785053,-1.0077610000000001
250,2.851541,-1.222861,1.618574,0.097514,0.9400790000000001,0.326714,-1.344907,0.5591729999999999,-0.133398,-0.37148600000000004,-0.703522,-0.25106100000000003
251,2.860506,-1.200962,1.624457,0.10026900000000001,0.9323870000000001,0.34727399999999997,-1.322373,0.594441,0.350619,-0.270359,0.240525,1.069261
252,2.9129970000000003,-1.143813,1.6598389999999998,0.093845,0.910219,0.403351,-3.6424510000000003,0.356598,-0.229303,-0.211734,1.5828229999999999,1.167617
253,2.996608,-1.0718219999999998,1.7535319999999999,0.069136,0.878074,0.473504,-4.3206809999999995,0.624672,-1.9424709999999998,0.207277,2.123742,0.032676
254,3.064233,-0.9796450000000001,1.8396599999999999,0.043071,0.830299,0.555649,-4.825237,-1.268426,-1.479961,0.792882,0.593956,-1.1830450000000001
255,3.0692,-0.9066209999999999,1.8832470000000001,0.044585,0.787425,0.614795,-2.759663,-1.109688,-0.611159,0.854432,0.074666,-1.153918
256,3.056595,-0.871151,1.8823150000000002,0.054667999999999994,0.7650710000000001,0.64162,-1.2936239999999999,-0.250893,0.468339,0.46173500000000006,-0.753001,0.130734
257,3.0506830000000003,-0.8573700000000001,1.869537,0.059412,0.756124,0.651724,-0.233157,0.436854,0.45350100000000004,0.316855,0.030573000000000003,-0.076788
258,3.047459,-0.8658899999999999,1.8511950000000001,0.060904999999999994,0.761672,0.645091,0.881178,0.507811,0.656678,0.160912,0.001115,-0.207683
259,3.0311630000000003,-0.8931969999999999,1.821435,0.06909,0.77908,0.623104,1.7531860000000001,0.11604300000000001,0.902553,0.009370999999999999,-0.352536,-0.441051
260,2.998818,-0.9336110000000001,1.7845,0.08465299999999999,0.803773,0.5888800000000001,2.35898,-0.263846,0.806859,0.025973000000000003,-0.44313199999999997,-0.366925
261,2.958383,-0.9853149999999999,1.746287,0.100676,0.8334459999999999,0.543349,2.990226,-0.570856,0.579873,-0.023878,-0.452801,-0.297134
262,2.90319,-1.053183,1.697734,0.11684800000000001,0.8690030000000001,0.48081,3.913529,-0.7518050000000001,0.5416880000000001,-0.055249,-0.41628999999999994,-0.3776
263,2.815859,-1.126274,1.62008,0.13760899999999998,0.902816,0.407412,3.9284779999999997,-1.128175,0.8766290000000001,0.063074,-0.40628000000000003,-0.5963930000000001
264,2.668964,-1.1838959999999998,1.5006620000000002,0.171765,0.926083,0.335953,3.3070239999999997,-2.4245,1.11964,0.12498800000000002,-0.214306,-0.654984
265,2.4937970000000003,-1.228173,1.390084,0.202726,0.9418770000000001,0.267897,2.79333,-4.398442,-0.035098000000000004,0.285418,1.229876,-0.218092
266,2.340505,-1.267412,1.32535,0.21453699999999998,0.9543309999999999,0.20790799999999998,1.566128,-3.921768,-0.692692,-0.34979099999999996,-0.241806,1.267098
267,2.340268,-1.291074,1.351676,0.19830799999999998,0.961132,0.19209,-0.058472,0.431942,-1.3964860000000001,-0.595723,-0.337505,1.572299
268,2.504685,-1.303089,1.457183,0.157313,0.9643799999999999,0.21265799999999999,-0.17649,4.006771,-1.235248,-0.557765,-0.669107,0.41073999999999994
269,2.562868,-1.328011,1.452176,0.131492,0.970672,0.201259,1.360127,2.6785490000000003,-0.48146700000000003,-0.093833,-0.8729399999999999,-0.846355
270,2.598973,-1.346791,1.455925,0.11470699999999999,0.975016,0.190228,0.22703800000000002,0.9038950000000001,-0.588589,0.195733,-0.656961,-0.8521850000000001
271,2.622011,-1.333144,1.500853,0.11689100000000001,0.971893,0.204352,-1.661994,-4.363543,0.693242,0.44091,0.554977,-0.45886899999999997
272,2.494437,-1.2482389999999999,1.5512620000000001,0.19112200000000001,0.948428,0.252898,-3.651404,-4.542852,0.90497,1.359431,2.803403,2.854661
273,2.619936,-1.241041,1.623599,0.16136099999999998,0.9461219999999999,0.28074299999999996,0.0645,5.169306,-0.9915,-0.24356,-0.089188,-0.205502
274,2.7343919999999997,-1.247818,1.654595,0.1257,0.9482940000000001,0.29144000000000003,-0.230742,2.785806,-0.350643,-0.343916,-0.686041,-0.9446690000000001
275,2.73522,-1.239811,1.65618,0.128456,0.945723,0.298509,-0.124429,-1.300765,0.398819,-0.362037,-0.527159,-0.8238540000000001
276,2.642298,-1.251609,1.605701,0.150246,0.949491,0.275486,1.433853,-2.6004509999999996,0.39214099999999996,-0.25647800000000004,-0.010175,-0.27460100000000004
277,2.572214,-1.2671299999999999,1.560619,0.161204,0.954247,0.251845,0.598605,-0.28883200000000003,0.058605,-0.23838299999999998,0.575661,0.819063
278,2.581029,-1.275508,1.555903,0.154721,0.9567180000000001,0.24647600000000003,0.439583,0.889792,-0.17688900000000002,-0.017133000000000002,0.511849,0.30545
279,2.589267,-1.284726,1.550301,0.148053,0.95936,0.240225,0.350538,0.5088689999999999,-0.211206,-0.011715999999999999,0.017401,0.11764000000000001
280,2.611201,-1.285929,1.563223,0.142165,0.959699,0.242418,-0.336449,0.5930310000000001,-0.149882,-0.24893,-0.22926100000000002,0.246794
281,2.668504,-1.2725440000000001,1.602417,0.133889,0.955852,0.261575,-1.173534,1.1106850000000001,-0.205531,-0.239923,-0.039760000000000004,0.022588999999999998
282,2.739863,-1.2402440000000001,1.6662569999999999,0.126909,0.9458629999999999,0.29872600000000005,-2.334874,0.034548,-0.21226399999999998,-0.013687999999999999,0.23759299999999997,0.13566199999999998
283,2.792648,-1.192008,1.7321810000000002,0.126435,0.929114,0.347509,-2.687595,-0.511004,-0.140321,0.21543800000000002,0.71406,0.32635
284,2.8340490000000003,-1.143571,1.778503,0.12542999999999999,0.910119,0.394906,-2.5447919999999997,0.22224499999999997,-0.082579,0.353116,0.608069,-0.033394
285,2.874592,-1.0968930000000001,1.8178580000000002,0.120406,0.8897940000000001,0.440192,-2.401703,0.14759,-0.185102,0.36941599999999997,0.43427299999999996,-0.314154
286,2.899636,-1.060432,1.8480779999999999,0.11704500000000001,0.872567,0.47426499999999994,-1.586727,-0.16718,-0.23028,0.41588400000000003,0.33463200000000004,-0.516456
287,2.910073,-1.0391700000000001,1.865939,0.11632,0.861984,0.49341,-0.983187,-0.384835,-0.136055,0.21482600000000002,-0.094573,-0.41293500000000005
288,2.911342,-1.023132,1.8784880000000002,0.118834,0.853743,0.506953,-0.760007,-0.350418,-0.145223,0.09868099999999999,-0.17815999999999999,-0.139399
289,2.921703,-1.015903,1.8933490000000002,0.114918,0.849957,0.514167,-0.197129,-0.009327,-0.417329,-0.065113,0.0022010000000000003,-0.007087
290,2.940667,-1.020074,1.9123439999999998,0.104439,0.852147,0.512775,0.229002,0.184704,-0.557743,-0.328621,-0.016513999999999997,-0.19939
291,2.958067,-1.032183,1.927141,0.093611,0.8584209999999999,0.504332,0.72749,0.28929699999999997,-0.506325,-0.094786,-0.114494,-0.218901
292,2.97226,-1.055588,1.940504,0.083035,0.87019,0.48566800000000004,1.290317,-0.051446000000000006,-0.497684,0.067173,-0.20231300000000002,-0.323711
293,2.9677729999999998,-1.085017,1.943332,0.080748,0.8843110000000001,0.45986099999999996,1.4678309999999999,-0.411049,-0.234269,0.14421199999999998,-0.276081,-0.343604
294,2.959021,-1.11389,1.939012,0.080099,0.8974219999999999,0.433841,1.4109399999999999,-0.12798199999999998,-0.111115,0.26850300000000005,-0.403479,-0.344806
295,2.945875,-1.141812,1.9244439999999998,0.080889,0.9093889999999999,0.408005,1.482758,-0.020659999999999998,0.160577,0.15223499999999998,-0.501186,-0.321671
296,2.905347,-1.172743,1.8867770000000001,0.090725,0.921817,0.376857,1.8018759999999998,-0.5230819999999999,0.585398,0.070621,-0.529163,-0.273631
297,2.8155669999999997,-1.20536,1.816483,0.114454,0.933968,0.338532,1.947731,-1.7083509999999997,0.895583,0.010927,-0.299782,-0.151947
298,2.686674,-1.229688,1.7315669999999999,0.146989,0.942384,0.300508,1.413581,-2.830292,0.877266,0.089781,-0.041536000000000003,0.25462199999999996
299,2.577068,-1.233831,1.672406,0.17688900000000002,0.9437620000000001,0.279325,0.15269100000000002,-2.2839139999999998,0.6658649999999999,0.09424500000000001,0.049783,0.625674
300,2.552711,-1.220684,1.665507,0.19051400000000002,0.939334,0.28522800000000004,-0.729313,0.05562,0.31808000000000003,-0.190835,0.132825,1.143666
301,2.594903,-1.208815,1.6877849999999999,0.184097,0.935197,0.30251300000000003,-0.6049899999999999,1.348292,-0.17836300000000002,-0.44935600000000003,0.07405,0.752495
302,2.6341490000000003,-1.20698,1.7116189999999998,0.17291900000000002,0.9345459999999999,0.311002,-0.10572000000000001,0.417416,-0.388396,-0.502311,-0.078604,0.23900100000000002
303,2.65315,-1.21084,1.739756,0.165285,0.9359120000000001,0.311044,-0.174065,-0.7490720000000001,-0.592477,-0.457201,-0.175246,0.01705
304,2.6854669999999996,-1.204051,1.78529,0.157943,0.933499,0.321918,-0.928632,-0.009628,-0.506828,-0.161834,0.329303,-0.23190700000000003
305,2.724916,-1.199373,1.81328,0.14689000000000002,0.9318120000000001,0.331886,-0.031439999999999996,0.7031609999999999,-0.24937399999999998,0.037587999999999996,0.528058,-1.1295549999999999
306,2.7175119999999997,-1.200718,1.803748,0.148828,0.932299,0.329648,0.09479,-0.314777,0.323243,0.550574,0.993848,-1.2149780000000001
307,2.720957,-1.182949,1.8139439999999998,0.15443199999999999,0.925726,0.345227,-2.483844,0.08115,-0.015743,1.114336,2.370677,2.089664
308,2.774395,-1.161545,1.8632360000000001,0.142854,0.9174190000000001,0.371394,-0.475921,0.205448,-0.605422,-0.281556,0.160172,-0.723598
309,2.78252,-1.160854,1.8757259999999998,0.14005499999999999,0.9171440000000001,0.373137,-0.16224,-0.301181,0.076807,0.036642,-0.313231,-0.776595
310,2.75545,-1.149723,1.8612669999999998,0.15393900000000002,0.912651,0.378643,-0.34536999999999995,-1.070906,0.650149,0.366157,0.376274,-0.9077719999999999
311,2.6846509999999997,-1.156353,1.825666,0.17766400000000002,0.915341,0.361367,1.310215,-2.3963099999999997,0.33119499999999996,0.400888,0.856525,-0.729241
312,2.5792900000000003,-1.193397,1.7673130000000001,0.196462,0.9296260000000001,0.311764,2.300828,-2.346331,0.027217,0.352504,0.5077520000000001,-0.053921000000000004
313,2.5094830000000004,-1.220616,1.712034,0.202699,0.939311,0.276779,1.387461,-0.029238,-0.009906,0.22631700000000002,0.271169,0.32919299999999996
314,2.474908,-1.247316,1.6642720000000002,0.19656300000000002,0.9481350000000001,0.24980300000000003,1.7179,0.636285,-0.227436,-0.235519,0.23774800000000001,-0.158525
315,2.4179939999999998,-1.277843,1.594336,0.191196,0.9573950000000001,0.21641799999999997,1.8387240000000002,0.327569,-0.119374,-0.242298,0.046801,-0.28136
316,2.342366,-1.302125,1.518643,0.190278,0.964124,0.185087,1.44214,-0.485202,-0.0506,-0.135041,-0.286695,-0.32952600000000004
317,2.248897,-1.318324,1.443174,0.19453199999999998,0.968298,0.1567,1.192256,-1.336092,0.099364,0.045611,-0.448263,-0.178475
318,2.137511,-1.327779,1.364701,0.203011,0.970616,0.129185,0.942378,-1.958968,0.23835399999999998,0.11971199999999999,-0.41257200000000005,-0.030643
319,2.038148,-1.3301180000000001,1.299899,0.212797,0.9711770000000001,0.107386,0.650281,-1.633191,0.274352,0.042193,-0.245835,0.065969
320,1.952252,-1.331977,1.236974,0.21955,0.971618,0.088062,0.790094,-0.9888680000000001,0.195455,-0.077734,-0.12886,0.101681
321,1.8694979999999999,-1.333958,1.162739,0.224237,0.9720850000000001,0.06904600000000001,0.863714,-0.277513,0.19398900000000002,-0.14663099999999998,-0.112069,0.051789
322,1.800544,-1.3350360000000001,1.093631,0.227442,0.9723370000000001,0.053194000000000005,0.757365,-0.02443,0.133101,-0.128733,-0.096452,-0.096468
323,1.732476,-1.336174,1.022326,0.22944,0.9726020000000001,0.037422000000000004,0.907431,0.09662899999999999,0.098743,-0.090158,-0.022376,-0.111428
324,1.646025,-1.336151,0.931839,0.231837,0.9725969999999999,0.017474,1.096997,0.061715,0.140704,-0.07595299999999999,0.126494,0.033643
325,1.561515,-1.332439,0.8438979999999999,0.236092,0.971727,-0.002191,0.922322,0.014948,0.265594,-0.094293,0.173949,0.139353
326,1.508832,-1.325501,0.792639,0.242373,0.970066,-0.015038,0.44163199999999997,-0.263905,0.35339299999999996,-0.197268,0.16467,0.120216
327,1.484369,-1.317708,0.774558,0.249457,0.968144,-0.021613999999999998,0.177758,-0.32059699999999997,0.374055,-0.228904,0.143337,0.126549
328,1.473859,-1.310866,0.765609,0.255803,0.966408,-0.024875,0.135996,0.0463,0.299586,-0.306279,0.098564,0.062915
329,1.4698799999999999,-1.307027,0.758361,0.259391,0.965414,-0.026266,0.205129,0.114724,0.178204,-0.376228,0.030146,-0.215784
330,1.445014,-1.303553,0.735919,0.261984,0.9645030000000001,-0.033128,0.378181,-0.359734,0.130882,-0.35018,-0.009699,-0.25154
331,1.401968,-1.299758,0.703866,0.263922,0.963493,-0.044986,0.48115699999999995,-0.7116319999999999,0.130984,-0.265296,-0.010948000000000001,-0.16070299999999998
332,1.355177,-1.294826,0.670461,0.26616799999999996,0.962161,-0.058297,0.47669799999999996,-0.705422,0.180084,-0.23250700000000002,0.016094999999999998,0.0019010000000000001
333,1.319224,-1.288751,0.6463720000000001,0.269557,0.9604879999999999,-0.069281,0.336001,-0.613568,0.242008,-0.214198,0.044410000000000005,0.108374
334,1.298438,-1.282198,0.636772,0.274115,0.958644,-0.07656,0.140775,-0.549217,0.302519,-0.22610999999999998,0.078984,0.148505
335,1.291975,-1.27573,0.640413,0.27957,0.9567829999999999,-0.08003500000000001,-0.00838,-0.471059,0.333424,-0.255629,0.09251799999999999,0.132083
336,1.2907870000000001,-1.269587,0.649944,0.285118,0.9549780000000001,-0.08199,-0.064226,-0.555012,0.331005,-0.326866,0.11008499999999999,0.0864
337,1.288506,-1.263968,0.660975,0.290079,0.9532959999999999,-0.084133,-0.10424100000000001,-0.698591,0.307408,-0.395991,0.11953399999999999,0.11921300000000001
338,1.292041,-1.26156,0.681082,0.29258,0.952566,-0.083739,-0.25622,-0.8491540000000001,0.26274200000000003,-0.42727,0.140543,0.1369
339,1.302068,-1.263931,0.7112109999999999,0.291227,0.953285,-0.080201,-0.38346399999999997,-1.027215,0.146714,-0.387876,0.251564,0.120316
340,1.3081260000000001,-1.264134,0.741929,0.29152,0.9533459999999999,-0.078385,-0.552872,-1.248065,0.11163,-0.328996,0.2593,0.058045000000000006
341,1.3392899999999999,-1.265709,0.803076,0.29235900000000004,0.9538209999999999,-0.06891900000000001,-1.137438,-1.399692,0.17504,-0.29834,0.272833,0.0032909999999999997
342,1.4001540000000001,-1.26857,0.896178,0.293319,0.954676,-0.050544,-1.516872,-1.386365,0.101869,-0.235702,0.292928,0.025459
343,1.488758,-1.2723389999999999,1.014732,0.293053,0.955791,-0.024096,-1.9470669999999999,-1.071246,-0.007293000000000001,-0.065331,0.198628,0.138277
344,1.62713,-1.2746819999999999,1.170742,0.291339,0.956478,0.01643,-2.482413,-0.172006,-0.112598,-0.006854000000000001,0.102833,0.1413
345,1.809407,-1.269044,1.358193,0.288769,0.954817,0.070242,-2.9136889999999998,0.213131,-0.148151,0.018055,0.06364600000000001,0.084437
346,1.99426,-1.254284,1.546651,0.283758,0.950327,0.127899,-2.871868,0.36797199999999997,-0.27838,0.048716,0.081274,0.12579400000000002
347,2.154615,-1.235607,1.6979389999999999,0.274457,0.944348,0.181318,-2.351212,1.194385,-0.40292100000000003,-0.05494500000000001,0.08000499999999999,-0.009427
348,2.298828,-1.222343,1.8194700000000001,0.25488,0.939902,0.22719499999999998,-1.883115,1.554949,-0.933156,-0.148923,0.14425,-0.168936
349,2.426654,-1.211182,1.944957,0.23070100000000002,0.936033,0.26573800000000003,-1.8965580000000002,-0.39610700000000004,-1.319582,-0.352527,0.319781,-0.6882689999999999
350,2.510729,-1.206164,2.067193,0.210339,0.934255,0.287962,-1.286613,-2.3108419999999996,-1.7390889999999999,-0.40165300000000004,0.518122,-0.78105
351,2.5755369999999997,-1.2141620000000002,2.2094970000000003,0.18723399999999998,0.937077,0.294663,-1.0547549999999999,-3.83886,-2.634954,-0.440072,0.492443,-0.604783
352,2.667698,-1.225994,2.388811,0.154251,0.941142,0.30075599999999997,-0.951174,-3.7788769999999996,-3.072278,-0.45089700000000005,0.409505,-0.486486
353,2.766018,-1.237282,2.576682,0.120078,0.9448979999999999,0.30454200000000003,-0.652704,-4.0803,-3.077285,-0.276221,0.32861599999999996,-0.5665819999999999
354,2.8529009999999997,-1.244086,2.76472,0.091366,0.947103,0.307643,-0.718978,-4.905208,-2.9239349999999997,-0.198498,0.136347,-0.768871
355,2.9141790000000003,-1.241242,2.945455,0.072962,0.9461870000000001,0.315285,-0.9790059999999999,-5.7777650000000005,-2.6746689999999997,-0.16598,0.039485,-0.852273
356,2.951148,-1.231269,3.111827,0.063043,0.9429120000000001,0.327016,-1.055474,-6.0103919999999995,-2.509331,-0.13411800000000001,0.059789,-0.712911
357,2.983046,-1.224359,-3.017989,0.053609000000000004,0.9405879999999999,0.335287,-0.5413359999999999,-5.326127,-2.5119569999999998,-0.031956,0.096597,-0.400136
358,3.0243729999999998,-1.228748,-2.867269,0.039227,0.9420700000000001,0.333111,0.052655999999999994,-4.956231,-2.555284,0.12126500000000001,0.097924,-0.45397600000000005
359,3.0560009999999997,-1.2363790000000001,-2.724931,0.028058,0.944602,0.32701199999999997,0.152558,-5.220894,-2.2572810000000003,0.186999,0.04104,-0.529283
360,3.064382,-1.242309,-2.605886,0.024884,0.9465309999999999,0.32164499999999996,0.14085699999999998,-5.206812,-1.773477,0.202182,0.003069,-0.450933
361,3.04442,-1.247214,-2.517121,0.030849,0.948103,0.31645999999999996,0.099149,-5.1831949999999996,-1.25037,0.21852600000000003,-0.028821,-0.390907
362,3.001388,-1.249401,-2.455334,0.044144,0.948795,0.312787,-0.062887,-4.989304,-0.846894,0.11181600000000001,-0.024265000000000002,-0.38648699999999997
363,2.948024,-1.249401,-2.411721,0.060765,0.9487959999999999,0.30998600000000004,-0.128198,-4.558623000000001,-0.601128,0.085079,-0.023837999999999998,-0.36887
364,2.8955349999999997,-1.248884,-2.3781380000000003,0.077064,0.9486319999999999,0.306848,-0.14441700000000002,-3.9955839999999996,-0.46416199999999996,0.089516,-0.046380000000000005,-0.316828
365,2.847175,-1.247855,-2.353103,0.09208999999999999,0.948306,0.303698,-0.161583,-3.394239,-0.31550100000000003,0.101086,-0.097354,-0.251436
366,2.7992049999999997,-1.246011,-2.338479,0.107134,0.9477190000000001,0.300579,-0.161341,-2.9124380000000003,-0.12383699999999999,0.12798900000000002,-0.169399,-0.204326
367,2.751353,-1.2429270000000001,-2.332233,0.1225,0.946731,0.297811,-0.174309,-2.561457,0.02731,0.162,-0.273147,-0.183446
368,2.702693,-1.240113,-2.333729,0.137973,0.9458209999999999,0.29391100000000003,-0.070793,-2.263758,0.082131,0.118604,-0.347508,-0.081005
369,2.658057,-1.240275,-2.334416,0.15087899999999999,0.945873,0.287326,0.052677999999999996,-2.228479,-0.055920000000000004,-0.008728,-0.359554,0.058713
370,2.615012,-1.242526,-2.325792,0.16203199999999998,0.946601,0.278725,-0.019566,-2.83145,-0.253273,-0.241592,-0.204658,0.21367600000000003
371,2.580821,-1.242184,-2.297186,0.171638,0.946491,0.27329699999999996,-0.433404,-3.0368049999999998,-0.487705,-0.572349,0.23739200000000002,0.6658810000000001
372,2.585443,-1.2410780000000001,-2.242084,0.170925,0.946133,0.27497699999999997,-0.567295,-2.086808,-0.8466440000000001,-0.689587,0.31216700000000003,0.41519300000000003
373,2.6183110000000003,-1.234876,-2.166145,0.164726,0.9441069999999999,0.285524,-1.1508909999999999,-1.952272,-0.951306,-0.49695600000000006,0.21618600000000002,0.195601
374,2.665032,-1.2206620000000001,-2.074838,0.157352,0.939327,0.3048,-1.404099,-1.828743,-0.987416,0.004696,0.926976,0.144678
375,2.70929,-1.202292,-2.01397,0.150917,0.932867,0.327077,-1.353651,-0.021131999999999998,-0.192486,0.21138800000000002,1.449289,-0.35433000000000003
376,2.736671,-1.170778,-1.977727,0.153415,0.921054,0.357939,-1.6749049999999999,-0.713584,0.091373,0.917889,0.588666,-0.698576
377,2.702847,-1.158323,-1.98334,0.170292,0.916132,0.36290300000000003,0.25508600000000003,-1.5537,0.452034,0.36127800000000004,-0.918818,0.057263
378,2.655035,-1.179392,-2.0319439999999998,0.178375,0.924374,0.33721,2.022237,0.989958,0.307294,0.095703,-0.7571680000000001,0.016321000000000002
379,2.624874,-1.221298,-2.111634,0.169167,0.939544,0.297717,2.5895610000000002,2.41203,0.36605,-0.596657,-0.358627,-1.330539
380,2.55448,-1.241787,-2.217609,0.17898499999999998,0.946363,0.268996,1.033794,0.7346010000000001,1.351848,-0.413909,0.471606,-0.967665
381,2.463559,-1.208971,-2.302851,0.22203699999999998,0.9352520000000001,0.275681,-1.0426790000000001,-1.49258,2.273823,-0.295295,0.9179120000000001,-0.430054
382,2.378041,-1.178665,-2.335991,0.264258,0.924097,0.276064,-0.47930600000000007,-3.121957,0.864452,-0.281225,0.631293,-0.139909
383,2.3150169999999997,-1.177737,-2.343236,0.28175100000000003,0.923742,0.25945300000000004,0.406967,-2.335737,-0.180427,-0.223264,0.174845,0.240486
384,2.264545,-1.193352,-2.358891,0.283356,0.929609,0.23565500000000003,0.83916,-1.6776369999999998,-0.49444499999999997,-0.12188800000000001,0.006212,0.159761
385,2.210666,-1.212151,-2.380651,0.281566,0.936373,0.209581,0.935068,-1.663216,-0.454269,0.06450399999999999,-0.16524,-0.023790000000000002
386,2.146248,-1.228546,-2.416845,0.28155399999999997,0.942002,0.182641,0.960835,-1.410642,-0.236496,-0.023604,-0.156403,0.10529300000000001
387,2.086271,-1.239527,-2.455388,0.282979,0.94563,0.160327,0.7421449999999999,-1.0439260000000001,-0.112443,-0.051320000000000005,-0.135923,0.149137
388,2.040432,-1.2483440000000001,-2.485916,0.282582,0.9484610000000001,0.14341199999999998,0.599859,-0.733124,-0.190747,-0.173665,-0.051031,0.10318499999999999
389,2.002934,-1.25736,-2.512794,0.279983,0.9512799999999999,0.129131,0.547657,-0.52715,-0.239446,-0.22160300000000002,-0.061387,0.080342
390,1.978521,-1.265436,-2.5304849999999997,0.27599,0.9537389999999999,0.119208,0.325804,-0.295136,-0.259452,-0.239308,-0.08076799999999999,-0.026572000000000002
391,1.9607150000000002,-1.2713459999999999,-2.542862,0.27285,0.955499,0.112131,0.283496,-0.360334,-0.16886500000000002,-0.119377,-0.141152,-0.010416
392,1.936396,-1.276613,-2.557029,0.270793,0.957039,0.10366199999999999,0.284513,-0.606426,-0.166406,-0.10531099999999999,-0.146172,0.117026
393,1.914246,-1.281707,-2.569476,0.26842699999999997,0.9585040000000001,0.09599500000000001,0.23431999999999997,-0.397387,-0.184116,-0.12295,-0.149224,0.18421700000000002
394,1.909482,-1.286143,-2.573844,0.264868,0.959759,0.093302,0.070646,0.21466100000000002,-0.187112,-0.196631,-0.17152,0.121343
395,1.921832,-1.289981,-2.570347,0.260234,0.96083,0.095299,0.012263,0.49936800000000003,-0.20604499999999998,-0.198345,-0.18751400000000001,0.044106
396,1.9279009999999999,-1.294187,-2.569687,0.255861,0.961987,0.095462,0.08816399999999999,0.07611699999999999,-0.187881,-0.11041500000000001,-0.208554,-0.018924
397,1.926249,-1.29664,-2.568069,0.253805,0.9626540000000001,0.094218,-0.053507000000000006,-0.23596799999999998,-0.075239,-0.08826200000000001,-0.27274299999999996,0.037466
398,1.937866,-1.294946,-2.552563,0.254215,0.9621940000000001,0.097745,-0.316051,-0.135402,0.044576,-0.099109,-0.328573,0.031085
399,1.953393,-1.290482,-2.531266,0.25664899999999996,0.9609690000000001,0.103282,-0.364331,-0.348628,0.128901,-0.12437100000000001,-0.377747,0.008503
400,1.9632,-1.283798,-2.509465,0.26155300000000004,0.959098,0.108248,-0.43126899999999996,-0.655622,0.23564899999999997,-0.12722999999999998,-0.36640100000000003,0.007398
401,1.964446,-1.276147,-2.493361,0.26818800000000004,0.9569040000000001,0.11138599999999999,-0.275987,-0.722375,0.277412,-0.114898,-0.28313699999999997,0.085621
402,1.9504740000000003,-1.27006,-2.495772,0.275122,0.955119,0.109785,0.035726,-0.421019,0.302704,-0.11865899999999999,-0.224665,0.122195
403,1.9331669999999999,-1.265981,-2.515708,0.280622,0.953902,0.106387,0.308382,0.398398,0.27792100000000003,-0.184278,-0.11744600000000001,0.08212
404,1.91325,-1.265272,-2.549415,0.28332199999999996,0.9536889999999999,0.101004,0.531837,0.638785,0.175556,-0.291806,-0.069259,-0.003333
405,1.888406,-1.267092,-2.584214,0.284095,0.954235,0.09339299999999999,0.5060680000000001,0.22929000000000002,0.039169,-0.413245,-0.01025,0.060751
406,1.8587619999999998,-1.270201,-2.612237,0.28389200000000003,0.95516,0.084089,0.37911100000000003,-0.363149,-0.0806,-0.610049,0.12468900000000001,0.19680999999999998
407,1.835853,-1.273963,-2.625139,0.28227399999999997,0.956268,0.07662200000000001,0.144932,-0.559096,-0.159965,-0.691149,0.180268,0.333947
408,1.833462,-1.277676,-2.61416,0.279026,0.957347,0.07502400000000001,-0.30036199999999996,-0.7297899999999999,-0.24404099999999998,-0.55199,-0.06396,0.298939
409,1.8693830000000002,-1.277403,-2.554535,0.276401,0.957268,0.085073,-1.232423,-1.296689,-0.192141,-0.344348,-0.348427,0.281886
410,1.9718790000000002,-1.26486,-2.417005,0.277279,0.953565,0.117586,-2.669119,-1.325184,-0.079294,-0.046917,0.062533,0.591399
411,2.140638,-1.237814,-2.2248639999999997,0.27521,0.9450719999999999,0.17633900000000002,-3.485292,-0.357383,-0.303085,0.005643,0.31556300000000004,0.610648
412,2.310907,-1.203963,-2.0560650000000003,0.26483,0.9334680000000001,0.241867,-3.132374,1.352781,-0.44168,0.037798000000000005,0.7155189999999999,0.336411
413,2.479316,-1.1694930000000001,-1.929334,0.24019400000000002,0.9205530000000001,0.30803600000000003,-2.717877,3.139807,-0.6739470000000001,0.096919,0.661891,-0.32317199999999996
414,2.625731,-1.134301,-1.8230509999999998,0.208542,0.9062389999999999,0.367747,-2.746642,1.522568,-0.87716,0.291931,1.2256879999999999,-0.45878100000000005
415,2.688803,-1.0913959999999998,-1.733263,0.201783,0.887272,0.414764,-2.912385,-2.269596,-0.788,0.345932,1.750302,-0.208144
416,2.757616,-1.043232,-1.598635,0.188589,0.864036,0.466767,-3.905575,-1.462078,-2.86405,0.311442,2.100014,0.9375450000000001
417,2.9127490000000003,-1.000135,-1.427114,0.12254100000000001,0.8415440000000001,0.5261020000000001,-3.000292,0.819264,-3.794276,0.5325340000000001,1.8018740000000002,0.430029
418,3.007545,-0.953267,-1.292139,0.07738400000000001,0.815311,0.573824,-2.990743,-1.9143400000000002,-2.711802,0.835885,0.501797,-0.6189600000000001
419,3.017432,-0.900533,-1.229974,0.076929,0.783658,0.6164069999999999,-2.620082,-1.735153,-0.9596959999999999,0.398336,-0.773419,-0.265577
420,2.999715,-0.863183,-1.209733,0.091914,0.759915,0.643487,-1.485005,-1.626384,-0.108011,0.4596,-0.61485,-0.356683
421,2.973461,-0.849407,-1.21112,0.110516,0.750889,0.651112,-0.159605,-0.9676790000000001,0.24971100000000002,0.15529300000000001,-0.46735,-0.39664099999999997
422,2.957795,-0.862492,-1.223752,0.118896,0.759466,0.6395850000000001,1.2241819999999999,0.077501,0.345632,0.17698699999999998,-0.49678599999999995,-0.40621799999999997
423,2.946708,-0.8986709999999999,-1.2515690000000002,0.12057799999999999,0.7825,0.610859,2.303347,0.726645,0.6439630000000001,0.29470599999999997,-0.56343,-0.46568699999999996
424,2.9283,-0.9489569999999999,-1.296891,0.12330799999999999,0.812809,0.569325,2.968738,0.9309200000000001,0.930359,0.123945,-0.7175630000000001,-0.681996
425,2.891937,-1.0081229999999999,-1.359544,0.131798,0.8458319999999999,0.5169060000000001,3.459879,0.648598,1.0431110000000001,0.115455,-0.750587,-0.629577
426,2.832423,-1.0774629999999998,-1.434168,0.14408900000000002,0.8807590000000001,0.45110500000000003,4.109083,-0.069138,0.6821649999999999,-0.199325,-0.916373,-0.615976
427,2.7504169999999997,-1.158283,-1.519439,0.152856,0.9161159999999999,0.370622,4.558148,-0.292641,0.24227600000000002,-0.502633,-0.964456,-0.5395979999999999
428,2.6230330000000004,-1.237543,-1.6447439999999998,0.162126,0.944983,0.284107,4.470211,-0.68191,0.42909899999999995,-0.523134,-0.6139439999999999,-0.594761
429,2.436111,-1.299882,-1.8161900000000002,0.173514,0.963527,0.203726,3.597254,-1.4831159999999999,0.150564,-0.5718300000000001,-0.486018,-0.582175
430,2.2855990000000004,-1.340136,-1.9308509999999999,0.172651,0.9735159999999999,0.149846,1.5089629999999998,-2.139557,-0.91004,-1.401792,0.205958,1.939341
431,2.276207,-1.377461,-1.922336,0.14627,0.981369,0.12456099999999999,1.332619,-0.125573,-1.4426219999999998,-0.8951870000000001,-0.004761,1.311017
432,2.259803,-1.409577,-1.932886,0.123893,0.987032,0.102046,1.068434,-0.706241,-0.924567,-0.189368,-0.376391,-0.022228
433,2.116003,-1.430332,-2.049953,0.11969300000000001,0.990151,0.07259700000000001,1.480901,-1.6048930000000001,-0.061684,0.25549,-0.8755879999999999,-0.413891
434,1.880151,-1.443565,-2.2617979999999998,0.12085,0.991917,0.038626,1.479898,-0.885799,-0.069022,0.49519300000000005,-0.651493,-0.145727
435,1.8427,-1.436741,-2.276111,0.128728,0.991028,0.03589,-1.429711,-1.826725,0.9256030000000001,0.9937540000000001,-0.080323,0.205702
436,2.195632,-1.340925,-1.822689,0.184793,0.9736959999999999,0.133279,-7.540959,-6.653239,3.2274380000000003,1.8570919999999997,2.07118,1.3310309999999999
437,2.288233,-1.261884,-1.667564,0.229073,0.952665,0.199876,-1.982244,2.71092,0.446979,0.197975,0.466571,2.112257
438,2.488211,-1.2621209999999998,-1.620737,0.184666,0.9527370000000001,0.241218,0.018424,9.108217999999999,-0.5663279999999999,-0.342167,-0.460946,-0.073936
439,2.676554,-1.2527549999999998,-1.591322,0.140232,0.94985,0.279491,-1.6549470000000002,6.382926,-0.10237,-0.625553,0.9623659999999999,-0.807445
440,2.794104,-1.172917,-1.473527,0.131944,0.9218850000000001,0.364299,-5.641521,-2.666187,-0.476475,-0.9797680000000001,3.015463,0.742116
441,2.872818,-1.079142,-1.359869,0.125361,0.881553,0.455129,-4.496678,-0.19725499999999999,-1.107234,-0.159662,2.643655,-0.166296
442,2.932835,-1.020211,-1.289033,0.108426,0.8522190000000001,0.511822,-2.918091,-0.61243,-0.948261,1.155841,1.237595,-1.470241
443,2.944465,-0.963716,-1.238089,0.111728,0.821317,0.559419,-3.232295,-1.992484,-0.545967,1.547925,-0.087156,-0.277971
444,2.9331869999999998,-0.9245610000000001,-1.224948,0.12459100000000001,0.798357,0.58915,-0.8378040000000001,-0.002064,0.186053,0.407147,-0.715639,0.42948100000000006
445,2.941996,-0.9353799999999999,-1.246127,0.117677,0.804825,0.581724,1.160663,1.436872,0.646821,-0.093247,-0.48736599999999997,-0.720472
446,2.9388509999999997,-0.9642370000000001,-1.282389,0.114781,0.821614,0.558363,1.882437,1.195295,0.760063,-0.198567,-0.376317,-0.7899609999999999
447,2.921382,-1.0071290000000002,-1.3220299999999998,0.11670599999999999,0.845302,0.521382,2.5898630000000002,0.458912,0.48286899999999994,-0.156196,-0.449092,-0.591313
448,2.892704,-1.065166,-1.356058,0.119309,0.874869,0.469429,3.299804,-0.166904,-0.007025,-0.192063,-0.532615,-0.5049819999999999
449,2.8577310000000002,-1.136418,-1.39626,0.11786300000000001,0.9071319999999999,0.403999,3.8397360000000003,0.288373,-0.043361000000000004,-0.23520300000000002,-0.8072630000000001,-0.291786
450,2.7858680000000002,-1.215249,-1.4666190000000001,0.12123199999999999,0.937456,0.326305,4.4415949999999995,-1.167471,0.136829,-0.192246,-1.119326,-0.322612
451,2.574586,-1.301108,-1.626044,0.143098,0.9638540000000001,0.224731,4.9791099999999995,-3.7708470000000003,0.430203,0.014998,-1.217257,-0.446838
452,2.264062,-1.3502530000000001,-1.867991,0.168256,0.9757790000000001,0.139794,2.5887860000000003,-3.2019330000000004,0.623217,-0.240094,-0.744364,0.057044000000000004
453,2.327026,-1.348542,-1.8164639999999999,0.16034,0.975403,0.151249,-1.810414,3.597347,-1.061286,-0.9976200000000001,0.313919,2.363628
454,2.41895,-1.364279,-1.7804970000000002,0.13560899999999998,0.978751,0.15379400000000001,1.455106,1.240173,-0.5002770000000001,-0.6774479999999999,-0.02114,0.349502
455,2.311826,-1.397508,-1.893139,0.127201,0.985023,0.11638599999999999,2.070114,0.059284,-0.359871,0.001141,-0.740532,-0.686882
456,2.187193,-1.419087,-2.03036,0.123306,0.9885139999999999,0.08736000000000001,0.9860399999999999,0.707928,0.07396900000000001,0.19426,-0.553562,-0.451054
457,2.220971,-1.383362,-1.984127,0.148314,0.9824860000000001,0.11279000000000002,-3.801735,-2.294411,2.188295,0.465135,0.133725,-0.111371
458,2.376878,-1.269765,-1.727782,0.205275,0.955031,0.21394699999999997,-5.318276999999999,-6.319980999999999,1.346442,0.769807,1.8821729999999999,2.6374470000000003
459,2.466627,-1.247333,-1.635734,0.198613,0.94814,0.248151,-0.54188,4.401103,-0.963725,0.183498,0.42400600000000005,1.7725549999999999
460,2.6582689999999998,-1.2552219999999998,-1.570471,0.14423,0.9506180000000001,0.274807,-0.49384700000000004,6.5272879999999995,-0.978932,-0.218586,-0.454585,-0.28324499999999997
461,2.8074779999999997,-1.225294,-1.497771,0.11105899999999999,0.9409049999999999,0.319936,-2.5890869999999997,2.150889,-0.16756500000000002,-0.583929,0.673795,-0.26601199999999997
462,2.84254,-1.158957,-1.447771,0.117932,0.916386,0.382524,-4.002114,-1.270027,0.070503,-0.40784899999999996,2.895198,1.157301
463,2.919285,-1.082493,-1.357317,0.103433,0.88313,0.45758000000000004,-4.062099,0.256396,-1.444474,0.073325,1.72452,-0.279098
464,2.986286,-1.016909,-1.266877,0.081362,0.8504860000000001,0.519664,-3.3663980000000002,-1.216898,-1.5103659999999999,0.460081,1.147683,-0.953959
465,3.005705,-0.969542,-1.214245,0.076632,0.824627,0.560459,-2.139652,-1.26873,-0.8009649999999999,1.05055,0.095707,-1.061161
466,2.999716,-0.9501280000000001,-1.213167,0.082236,0.8134899999999999,0.5757329999999999,-0.37398400000000004,0.23162600000000003,0.484903,0.6596920000000001,-0.306944,0.356091
467,2.998509,-0.95557,-1.233231,0.082298,0.816643,0.5712430000000001,0.805212,1.067772,0.5518890000000001,0.203622,0.216743,-0.169998
468,2.9969419999999998,-0.9816790000000001,-1.264873,0.080091,0.831432,0.549821,1.727598,1.220114,0.815578,0.041735,0.136067,-0.322542
469,2.9795279999999997,-1.021009,-1.311876,0.08430900000000001,0.8526360000000001,0.515656,2.363033,1.04575,0.9783370000000001,-0.024891,-0.150945,-0.514207
470,2.954886,-1.071192,-1.364209,0.088928,0.8777719999999999,0.470749,2.8865529999999997,1.0064,0.774809,0.035508,-0.23945100000000002,-0.411408
471,2.920203,-1.131251,-1.418188,0.093439,0.9049450000000001,0.41513900000000004,3.374843,0.392307,0.47563199999999994,-0.006464,-0.316231,-0.40671599999999997
472,2.8603680000000002,-1.20089,-1.485662,0.10033500000000001,0.9323610000000001,0.34732399999999997,3.903161,-0.061112,0.453197,-0.145852,-0.62244,-0.355106
473,2.7267919999999997,-1.273313,-1.606966,0.118126,0.9560770000000001,0.268254,4.1048290000000005,-1.642873,0.7674850000000001,-0.0933,-0.853447,-0.364735
474,2.472159,-1.330043,-1.810065,0.147956,0.971159,0.18697,3.508261,-3.700448,0.88346,-0.045447,-0.8885780000000001,-0.334217
475,2.173062,-1.360347,-2.028437,0.17214100000000002,0.9779370000000001,0.118341,2.302827,-4.273314,0.267955,-0.558982,-0.39221300000000003,-0.000925
476,2.1360959999999998,-1.3763370000000001,-2.02691,0.16317,0.981152,0.10350799999999999,-1.2765950000000001,0.683515,-1.446917,-1.145958,-0.27644,1.8504099999999999
477,2.4461150000000003,-1.389821,-1.802202,0.115325,0.983669,0.138182,0.383973,4.842893,-1.423556,-1.22882,-0.255596,2.823625
478,2.4042779999999997,-1.430791,-1.8887479999999999,0.093815,0.990215,0.1033,2.260251,0.9516540000000001,-0.706847,0.148403,-0.746532,-1.011152
479,2.268682,-1.4641030000000002,-2.0319849999999997,0.081587,0.9943139999999999,0.068426,1.306395,0.211588,-0.488234,0.461503,-0.6753899999999999,-0.670858
480,2.2530740000000002,-1.466456,-2.047083,0.080831,0.994561,0.06567,-0.7286130000000001,-0.408147,0.411675,0.509868,-0.54284,-0.500179
481,2.469421,-1.378058,-1.765479,0.119272,0.981483,0.149877,-7.362823,-4.661676,2.135488,0.956992,1.191673,0.579859
482,2.484903,-1.28326,-1.64917,0.17313,0.958946,0.22460700000000003,-1.929558,-2.829805,0.990707,0.132305,1.514306,2.4301169999999996
483,2.584003,-1.282522,-1.621832,0.15043299999999998,0.958736,0.24123499999999998,0.379837,5.998349,-0.529896,-0.002499,-0.406139,-0.050286000000000004
484,2.72463,-1.295817,-1.610439,0.109963,0.9624309999999999,0.248261,0.242929,6.042016,-0.40913099999999997,-0.150674,-0.529158,-0.596771
485,2.8253169999999996,-1.2770569999999999,-1.579305,0.090053,0.957168,0.27516999999999997,-1.820226,1.714272,0.195163,-0.397014,0.128388,-0.804421
486,2.81311,-1.219531,-1.549297,0.11100399999999999,0.9389379999999999,0.32568600000000003,-3.5862010000000004,-3.597204,0.396869,-0.786144,2.42918,1.2720770000000001
487,2.864504,-1.154296,-1.46676,0.11067,0.91451,0.38912800000000003,-3.3141019999999997,0.46196400000000004,-1.0196889999999998,-0.500166,1.936518,0.790896
488,2.978643,-1.1048209999999998,-1.382232,0.072888,0.8933840000000001,0.44333999999999996,-2.513487,1.8223200000000002,-1.180346,0.7433960000000001,0.8234440000000001,-0.9512440000000001
489,3.014777,-1.067697,-1.335687,0.060979,0.876092,0.47826899999999994,-1.631039,-1.344918,-0.570851,0.9895579999999999,0.5746060000000001,-1.071104
490,3.008219,-1.043727,-1.3139,0.066888,0.8642850000000001,0.49853400000000003,-0.9691629999999999,-0.8587940000000001,-0.169472,1.119178,-0.236477,-0.35772600000000004
491,2.996044,-1.039631,-1.323104,0.073466,0.862217,0.501181,0.47563199999999994,0.26508200000000004,0.43951999999999997,0.187154,-0.534779,0.264246
492,2.987709,-1.0668540000000002,-1.3545479999999999,0.074014,0.8756860000000001,0.477174,1.876491,1.114028,0.576404,-0.078149,0.052110000000000004,-0.30803
493,2.9750229999999998,-1.110212,-1.395169,0.07369400000000001,0.8957930000000001,0.43831800000000004,2.488445,1.253576,0.579431,-0.055932,-0.042781,-0.48740600000000006
494,2.9597860000000003,-1.1619270000000002,-1.4439389999999999,0.071884,0.9175709999999999,0.391019,2.855544,1.490998,0.561395,0.060776,-0.312438,-0.405606
495,2.927437,-1.220078,-1.50026,0.073017,0.939126,0.33572399999999997,3.1583919999999996,0.5543359999999999,0.370294,0.006909,-0.418969,-0.409256
496,2.857473,-1.284303,-1.5681260000000001,0.079213,0.959241,0.27125900000000003,3.536715,-0.885531,0.212412,-0.191762,-0.679898,-0.325229
497,2.69155,-1.350423,-1.6904669999999997,0.095088,0.975816,0.196826,3.457123,-3.26563,0.349502,-0.309199,-0.9210219999999999,-0.352526
498,2.426482,-1.386759,-1.8749770000000001,0.11999100000000001,0.9831129999999999,0.138166,1.957744,-4.711469999999999,0.64853,-0.22662,-1.052632,-0.366026
499,2.211837,-1.397405,-1.989002,0.138271,0.9850049999999999,0.103173,0.565407,-4.957292,-0.07231699999999999,-0.497158,-0.8468979999999999,-0.175301
500,2.3260810000000003,-1.4004,-1.833405,0.12346099999999999,0.985518,0.11624100000000001,-1.85162,1.234919,-1.379001,-0.853045,-0.3589,3.3844
501,2.533428,-1.407485,-1.715398,0.092895,0.9866940000000001,0.133434,0.661896,4.28709,-0.667806,-0.315079,-0.391953,1.8828779999999998
502,2.510636,-1.425174,-1.7790119999999998,0.085601,0.989416,0.11716900000000001,1.135294,1.266245,0.183267,0.239304,-0.85462,-0.691067
503,2.430352,-1.432101,-1.8797669999999997,0.090246,0.990397,0.10473099999999999,0.084848,0.62457,0.389328,0.447291,-0.32398499999999997,-0.438166
504,2.526218,-1.378883,-1.746873,0.110105,0.981641,0.155747,-4.216432,-2.596452,1.094075,0.703493,0.645877,0.126403
505,2.564023,-1.310706,-1.6563990000000002,0.14040999999999998,0.966367,0.215452,-2.522487,-2.779876,0.7408100000000001,0.342027,1.208438,0.688708
506,2.662573,-1.2834370000000002,-1.574001,0.13063,0.958996,0.251519,-1.3004440000000002,3.16843,-0.534801,-0.250778,0.264027,1.227424
507,2.8064240000000003,-1.25664,-1.508591,0.101643,0.9510569999999999,0.291817,-2.190737,3.6303730000000005,-0.199781,-0.272892,0.524986,-0.248375
508,2.85955,-1.185306,-1.457623,0.104651,0.9266139999999999,0.361154,-4.475492,-1.639117,0.341147,-0.40769,2.403021,0.744726
509,2.909998,-1.0959510000000001,-1.3783969999999999,0.104941,0.8893629999999999,0.444992,-4.520631,-0.394836,-0.9597209999999999,-0.358695,2.4229529999999997,1.080475
510,2.965425,-1.0239639999999999,-1.2980209999999999,0.09113099999999999,0.854176,0.511934,-3.6018489999999996,-1.277101,-1.169022,0.539087,1.03976,-1.256502
511,2.981106,-0.978037,-1.2549629999999998,0.089271,0.8294030000000001,0.551471,-1.775339,-0.699786,-0.339814,0.980461,-0.0033369999999999997,-0.585117
512,2.963453,-0.956263,-1.25785,0.10216900000000001,0.8170430000000001,0.567451,-0.550358,-0.5327189999999999,0.507083,0.6022529999999999,-0.196605,0.307473
513,2.947136,-0.9611540000000001,-1.281982,0.11064,0.819853,0.5617810000000001,0.9344399999999999,0.522414,0.6902229999999999,0.144227,0.054659000000000006,-0.16261099999999998
514,2.931289,-0.993023,-1.322144,0.114014,0.8376809999999999,0.534125,2.213032,1.011642,0.84701,0.075485,-0.016636,-0.47585200000000005
515,2.909449,-1.0401040000000001,-1.373542,0.116442,0.8624569999999999,0.492551,2.743131,1.084894,0.717091,0.046002999999999995,-0.229767,-0.58949
516,2.879366,-1.093387,-1.42531,0.119111,0.8881879999999999,0.44376899999999997,2.970934,0.5033880000000001,0.48656800000000006,0.000198,-0.316533,-0.529401
517,2.8271740000000003,-1.15401,-1.479334,0.125196,0.9143950000000001,0.384974,3.461804,-0.561024,0.112141,-0.229688,-0.550503,-0.40304
518,2.735312,-1.226116,-1.553709,0.13353299999999999,0.941184,0.310386,4.037475,-1.6462729999999999,0.079097,-0.470157,-0.820807,-0.30151999999999995
519,2.535184,-1.291577,-1.70002,0.15707000000000002,0.9612709999999999,0.22646100000000002,3.784842,-3.9473300000000004,0.579141,-0.372539,-0.8000619999999999,-0.224584
520,2.236272,-1.329927,-1.894627,0.187642,0.971131,0.147283,2.5771450000000002,-6.283772,0.367532,-0.391561,-0.41723699999999997,0.20579
521,2.051356,-1.345315,-1.9695669999999998,0.198248,0.9746870000000001,0.103351,-0.05366900000000001,-4.245064,-0.489874,-0.7158869999999999,-0.517762,1.26286
522,2.214819,-1.3430959999999998,-1.826556,0.180515,0.9741879999999999,0.135533,-1.2177879999999999,3.9925589999999995,-0.7734810000000001,-0.707752,-0.47855200000000003,2.7871810000000004
523,2.297173,-1.360557,-1.827041,0.15600999999999998,0.977981,0.138602,1.352586,3.3625339999999997,-0.493005,0.042537,-0.9871209999999999,-0.41499899999999995
524,2.264577,-1.3883969999999999,-1.9052619999999998,0.139451,0.983411,0.11598299999999999,1.3258299999999998,1.6762099999999998,-0.73779,0.138579,-0.810972,-0.9348920000000001
525,2.267356,-1.413568,-1.934204,0.120098,0.987665,0.100453,0.754239,1.5607659999999999,-0.676473,0.25696199999999997,-0.8299040000000001,-0.763768
526,2.327568,-1.40709,-1.888637,0.11848399999999999,0.9866299999999999,0.11188800000000002,-1.851002,-0.510259,0.5471199999999999,0.30589299999999997,0.140552,-0.039271
527,2.433671,-1.325283,-1.679186,0.15804200000000002,0.9700129999999999,0.184646,-4.476114,-7.627996,1.380732,0.179116,1.037189,0.349366
528,2.481738,-1.296246,-1.576622,0.16619,0.9625469999999999,0.21419699999999997,-0.791238,1.882491,-0.9376450000000001,-0.41272600000000004,0.6748890000000001,1.353567
529,2.656688,-1.300101,-1.4997719999999999,0.12463900000000001,0.963585,0.23656999999999997,-0.600854,5.6323300000000005,-0.853526,-0.158895,-0.311638,-0.581693
530,2.824313,-1.268577,-1.399103,0.09285700000000001,0.954678,0.282779,-2.828465,1.8276580000000002,-0.644157,-0.251411,0.005756,-1.260165
531,2.844259,-1.2208729999999999,-1.330157,0.100437,0.939399,0.327779,-2.301291,-4.1519900000000005,-0.23863800000000002,-0.6952699999999999,1.3734520000000001,0.713511
532,2.879734,-1.16876,-1.257692,0.10129500000000001,0.920266,0.37795,-2.994326,0.184954,-0.754305,-0.266151,1.718573,1.061244
533,2.977224,-1.1194959999999998,-1.183301,0.071364,0.8998809999999999,0.43025399999999997,-2.609632,1.677296,-1.06011,0.19508499999999998,0.8903110000000001,-0.439089
534,3.035859,-1.076619,-1.119365,0.050057,0.880359,0.471655,-2.007619,-0.985397,-1.173202,0.5744859999999999,0.618924,-0.820975
535,3.042598,-1.0539040000000002,-1.073364,0.048841,0.869359,0.491758,-0.833997,-1.641515,-0.8821530000000001,0.7027770000000001,0.305537,-0.42735
536,3.0482139999999998,-1.0420120000000002,-1.0431979999999998,0.04704,0.8634209999999999,0.502283,-0.641176,-0.686802,-0.573313,0.331119,-0.169344,0.226492
537,3.048716,-1.032765,-1.0278479999999999,0.047526,0.858719,0.510234,-0.401863,-0.751842,-0.234,0.078222,-0.024903,0.032979
538,3.035934,-1.0289190000000001,-1.02119,0.054390999999999995,0.856742,0.512865,-0.09377200000000001,-0.911107,-0.100253,-0.154901,-0.168876,-0.224886
539,3.021314,-1.032108,-1.024038,0.061555,0.858383,0.5093,0.357863,-0.407442,0.093468,-0.095735,-0.46154700000000004,-0.28067800000000004
540,3.006137,-1.046422,-1.034006,0.067611,0.8656370000000001,0.49608199999999997,0.9623809999999999,-0.37913600000000003,0.216227,0.066147,-0.471686,-0.366611
541,2.976905,-1.070164,-1.05259,0.07869,0.8772790000000001,0.473483,1.396364,-0.8252,0.30101500000000003,0.154022,-0.383825,-0.441546
542,2.9313990000000003,-1.102048,-1.081888,0.094261,0.892135,0.44182299999999997,1.889888,-1.0425870000000002,0.423313,0.201241,-0.30082600000000004,-0.354451
543,2.862361,-1.14202,-1.133405,0.11458900000000001,0.909475,0.399652,2.3871759999999997,-1.18086,0.7378170000000001,0.161992,-0.274115,-0.259988
544,2.753454,-1.184164,-1.221703,0.142707,0.926184,0.34902,2.606856,-1.5994190000000001,1.056081,0.11270899999999999,-0.18370699999999998,-0.198446
545,2.6171849999999997,-1.221511,-1.316848,0.171351,0.9396180000000001,0.29623499999999997,2.198153,-2.875306,0.26758200000000004,0.123205,0.655628,0.45466599999999996
546,2.540075,-1.242661,-1.336542,0.182373,0.9466450000000001,0.265708,0.059452,-2.419143,-0.331191,0.060562,0.24033600000000002,1.354959
547,2.584285,-1.23413,-1.278816,0.174717,0.9438610000000001,0.280353,-1.0317450000000001,0.473499,-0.821083,-0.31963,0.228167,1.6508759999999998
548,2.6689380000000003,-1.231306,-1.2126,0.1516,0.942925,0.296493,-0.389042,1.277692,-0.822965,-0.3521,-0.251946,0.765885
549,2.751745,-1.2297069999999999,-1.1653209999999998,0.127129,0.942391,0.309411,-0.630341,2.467316,-0.542028,-0.10445499999999999,-0.268563,1.313591
550,2.8062259999999997,-1.235317,-1.164124,0.108351,0.9442520000000001,0.310877,0.7694770000000001,2.354613,0.054348,0.227602,-0.2062,-1.53982
551,2.8260560000000003,-1.226709,-1.180212,0.104683,0.941384,0.320679,-0.997577,1.292718,0.47385900000000003,0.130577,0.143394,-2.082963
552,2.811846,-1.21481,-1.1963290000000002,0.112849,0.9373030000000001,0.329735,0.036747,-0.38169000000000003,0.59112,0.23904899999999998,2.004698,-1.063057
553,2.736149,-1.225839,-1.244194,0.133376,0.94109,0.310738,0.9682139999999999,-2.911189,0.18426099999999998,-0.889755,0.6618,1.581932
554,2.7162919999999997,-1.2312020000000001,-1.2254690000000001,0.137435,0.94289,0.30342600000000003,-0.056008,-0.7900149999999999,-0.311652,-0.521957,0.33463699999999996,0.615153
555,2.735345,-1.237131,-1.216707,0.129418,0.9448479999999999,0.300849,0.429947,1.005339,-0.29133000000000003,0.005301,0.666571,-0.789191
556,2.750623,-1.260338,-1.218415,0.11641800000000001,0.9521940000000001,0.282439,1.572878,0.43315200000000004,-0.44925600000000004,-0.049051,0.500153,-0.801421
557,2.6823080000000004,-1.303051,-1.2706389999999999,0.117279,0.9643700000000001,0.23713800000000002,2.451865,-1.595443,-0.068776,0.11785899999999999,0.325974,-0.571367
558,2.5397,-1.343006,-1.366579,0.127861,0.974168,0.186137,2.107928,-3.2076279999999997,0.068688,0.30674,0.10195800000000001,-0.19726
559,2.343828,-1.362658,-1.47584,0.14790799999999998,0.978417,0.144294,1.2047940000000001,-4.908079,0.386094,0.319637,-0.002572,0.222588
560,2.162321,-1.3698649999999999,-1.576068,0.165667,0.979881,0.11128900000000001,0.9868809999999999,-3.368807,0.32171,0.005109000000000001,-0.028312999999999998,0.287819
561,2.017754,-1.376061,-1.6878529999999998,0.174492,0.9810989999999999,0.083636,1.211845,-0.8669530000000001,0.246369,-0.18142,-0.22671999999999998,0.187254
562,1.876053,-1.382957,-1.829277,0.178097,0.98241,0.056119,1.4470379999999998,0.06272,0.12077,-0.163082,-0.38985,0.085131
563,1.72013,-1.38719,-1.986634,0.18053699999999998,0.983192,0.027163,1.4370209999999999,-0.21336599999999997,0.174465,-0.14423699999999998,-0.44818800000000003,0.058728999999999996
564,1.578264,-1.38347,-2.120123,0.18622,0.982506,0.001391,1.03732,-0.709982,0.303701,-0.132097,-0.401878,-0.047732
565,1.464174,-1.377542,-2.220264,0.190956,0.981384,-0.020437999999999998,1.001999,-0.795902,0.242675,-0.025261000000000002,-0.318573,0.08089299999999999
566,1.3400239999999999,-1.368002,-2.3302680000000002,0.19606099999999999,0.979508,-0.046066,1.21271,-0.830001,0.32858000000000004,0.024246,-0.24896300000000002,0.163406
567,1.226059,-1.353637,-2.429478,0.202773,0.976514,-0.072811,1.154611,-0.8419049999999999,0.425411,-0.018203,-0.201276,0.18832000000000002
568,1.136228,-1.337089,-2.5065419999999996,0.21005500000000002,0.972814,-0.097499,1.1064559999999999,-0.629776,0.432281,-0.202044,-0.005285,0.309612
569,1.066499,-1.319248,-2.5710439999999997,0.21791300000000002,0.9685280000000001,-0.12026500000000001,1.043511,-0.171421,0.41523000000000004,-0.25606,0.13356800000000002,0.38419699999999996
570,1.0316670000000001,-1.304889,-2.608139,0.225505,0.9648549999999999,-0.134908,0.56477,0.11474200000000001,0.39656399999999997,-0.26881,0.170888,0.388448
571,1.032314,-1.295575,-2.607313,0.23329899999999998,0.9623649999999999,-0.13936500000000002,0.0655,-0.11998800000000001,0.38910500000000003,-0.35941300000000004,0.259101,0.20757199999999998
572,1.038237,-1.290334,-2.5920349999999996,0.23846199999999998,0.9609280000000001,-0.14054,-0.09667200000000001,-0.677299,0.306433,-0.44770600000000005,0.366236,0.072028
573,1.042334,-1.2891350000000001,-2.562548,0.240031,0.9605950000000001,-0.14014300000000002,-0.5099090000000001,-1.543751,0.22774499999999998,-0.47120100000000004,0.513343,0.111197
574,1.065872,-1.296341,-2.501004,0.237198,0.9625729999999999,-0.131103,-1.153131,-1.739825,0.002381,-0.531143,0.6644869999999999,0.315139
575,1.138852,-1.314543,-2.3998,0.230174,0.9673459999999999,-0.10610499999999999,-1.9097369999999998,-0.91881,-0.32869499999999996,-0.5554,0.58316,0.303859
576,1.305152,-1.3387360000000001,-2.210257,0.22191,0.973195,-0.060376,-2.944912,-1.189107,-0.301396,-0.403489,0.340663,0.20618899999999998
577,1.549349,-1.351416,-1.9127419999999997,0.217567,0.976032,-0.004667,-3.560139,-2.8292650000000004,-0.12626700000000002,-0.189842,0.174175,0.010740000000000001
578,1.820059,-1.3469280000000001,-1.581644,0.215135,0.9750459999999999,0.054764,-3.615408,-2.163964,-0.220441,-0.075166,0.023091999999999998,-0.075547
579,2.081672,-1.323736,-1.297117,0.21332399999999999,0.969635,0.11957000000000001,-3.3825730000000003,0.180351,-0.066927,0.075998,-0.041291,-0.002459
580,2.287595,-1.291773,-1.115316,0.20763600000000001,0.961325,0.18093800000000002,-2.427957,2.230997,-0.092796,0.090048,0.167398,0.052277
581,2.448053,-1.271457,-1.010458,0.18850799999999998,0.9555309999999999,0.226762,-1.47071,3.257474,-0.543556,-0.24974200000000002,0.27670700000000004,-0.307283
582,2.588002,-1.262972,-0.909273,0.15929000000000001,0.952995,0.257728,-1.0600399999999999,0.814308,-1.308813,-0.285602,0.519478,-0.7380439999999999
583,2.650512,-1.269455,-0.782356,0.139963,0.954939,0.26172199999999995,-0.667125,-4.783416000000001,-1.9900349999999998,-0.42705699999999996,0.687303,-1.075977
584,2.701542,-1.264664,-0.611323,0.128379,0.953506,0.27265700000000004,-1.783175,-5.3715470000000005,-2.329294,-0.46445299999999995,0.5211640000000001,-0.333906
585,2.8037389999999998,-1.254358,-0.41191300000000003,0.103144,0.95035,0.293588,-1.3041040000000002,-3.8833379999999997,-2.7487340000000002,-0.493312,0.504774,-0.209603
586,2.9048130000000003,-1.256208,-0.229399,0.07258200000000001,0.950924,0.30078699999999997,-0.472059,-3.6583349999999997,-2.728256,-0.32003400000000004,0.290989,-0.40732399999999996
587,2.9808169999999996,-1.254156,-0.061102,0.049845,0.9502870000000001,0.30735500000000004,-0.815388,-4.428823,-2.357925,-0.10079500000000001,-0.066254,-0.833219
588,3.020554,-1.237599,0.07105,0.039491000000000005,0.945001,0.324669,-1.21269,-4.132749,-1.729761,0.046187,-0.361322,-0.727669
589,3.038791,-1.221362,0.17063399999999998,0.035134,0.939567,0.340555,-0.749051,-3.6013,-1.5680379999999998,0.272941,-0.32811599999999996,-0.33284899999999995
590,3.055814,-1.216827,0.266584,0.029695999999999997,0.9380040000000001,0.34534499999999996,-0.24711999999999998,-3.749974,-1.586774,0.285108,-0.170655,-0.421349
591,3.05688,-1.216575,0.348852,0.029348000000000003,0.937917,0.345611,-0.058431,-3.7602029999999997,-1.3237290000000002,0.02891,-0.154378,-0.502121
592,3.05191,-1.221048,0.415545,0.030688999999999998,0.939459,0.34128000000000003,0.248705,-3.088926,-1.09598,0.030911,-0.193625,-0.297166
593,3.049821,-1.231607,0.46883199999999997,0.030491000000000004,0.943025,0.33131700000000003,0.543225,-2.351655,-0.843836,0.226528,-0.22415300000000002,-0.169223
594,3.0428330000000003,-1.246645,0.50522,0.031404,0.9479209999999999,0.316948,0.748801,-1.914581,-0.5673590000000001,0.25767399999999996,-0.211456,-0.161949
595,3.027002,-1.262905,0.525637,0.03465,0.952975,0.301057,0.796585,-1.6825900000000003,-0.283175,0.24760700000000002,-0.194262,-0.128465
596,2.9974979999999998,-1.2791780000000001,0.526726,0.041283999999999994,0.95778,0.284517,0.806239,-1.4289969999999999,-0.039878,0.19570099999999999,-0.169572,-0.049745
597,2.9599279999999997,-1.2948110000000002,0.5150020000000001,0.04923,0.9621569999999999,0.268005,0.8012739999999999,-1.2482790000000001,0.0592,0.057322000000000005,-0.084823,0.070435
598,2.922005,-1.309183,0.5039939999999999,0.056338,0.965974,0.252424,0.6393439999999999,-1.545539,-0.054780999999999996,-0.09842100000000001,0.216964,0.186877
599,2.887486,-1.317044,0.513642,0.063105,0.9679770000000001,0.242972,0.14603,-2.6112349999999998,-0.320712,-0.122675,0.207682,0.275521
600,2.875255,-1.315748,0.562104,0.066402,0.967651,0.243392,-0.40391,-2.920748,-0.763196,-0.228618,0.165757,0.43939300000000003
601,2.921113,-1.309202,0.650103,0.056559000000000005,0.965979,0.25235599999999997,-0.736539,-1.357391,-1.156356,-0.732142,0.520563,0.951089
602,3.004044,-1.298967,0.760337,0.036814,0.9632809999999999,0.265955,-0.599921,-1.169066,-1.2176,-0.994059,1.083395,-0.009058
603,3.054642,-1.285693,0.828902,0.024424,0.959633,0.28019099999999997,-0.793155,-0.06327,-0.794146,-0.22590100000000002,0.168205,-0.752648
604,3.123098,-1.281547,0.878891,0.005275,0.958458,0.285181,0.13055899999999998,1.522063,-0.580354,0.446675,-0.7705,-0.794443
605,-3.1119380000000003,-1.291519,0.899066,-0.008173,0.961255,0.275536,0.7512939999999999,0.8953479999999999,0.029399,0.7284189999999999,-0.738675,-0.834664
606,3.057732,-1.30741,0.814543,0.021807,0.965514,0.259434,0.7288899999999999,-3.3946699999999996,1.6830060000000002,0.9156770000000001,-0.7424609999999999,-0.23917
607,2.832944,-1.320751,0.674743,0.075166,0.968901,0.23575100000000002,1.303675,-4.128779,1.484999,0.27416799999999997,-0.255721,0.211988
608,2.656005,-1.346989,0.5106189999999999,0.10358599999999998,0.97506,0.196284,2.371679,1.190116,1.098947,-0.345972,0.377205,0.009816
609,2.496897,-1.374072,0.290892,0.117459,0.980712,0.156223,1.8652540000000002,3.0366150000000003,1.4434209999999998,-0.544538,0.44036899999999995,-0.7929729999999999
610,2.377406,-1.355426,0.132705,0.147874,0.9768969999999999,0.154284,-0.43374799999999997,0.8846620000000001,1.8616810000000001,-0.263673,0.47500699999999996,-0.680453
611,2.32806,-1.313732,0.10429100000000001,0.18475999999999998,0.96714,0.174646,-1.362831,-2.489833,1.527299,-0.11443299999999999,0.21764299999999998,-0.429529
612,2.202296,-1.299476,0.07247999999999999,0.216315,0.963418,0.158216,0.645174,-5.562126999999999,0.33069299999999996,0.007684000000000001,0.35465100000000005,-0.150983
613,2.022255,-1.312066,-0.004739,0.23021799999999998,0.966716,0.111623,1.2289940000000001,-4.772985,-0.11809800000000001,-0.158746,0.278783,-0.070576
614,1.8937380000000001,-1.321402,-0.067859,0.23405700000000002,0.9690620000000001,0.078329,0.7676609999999999,-2.515047,-0.13916900000000001,-0.251864,0.168755,0.118555
615,1.7980580000000002,-1.331496,-0.131909,0.23092800000000002,0.971504,0.05340399999999999,1.018118,-1.367737,-0.357875,-0.178254,0.144387,0.10925499999999999
616,1.679813,-1.3437,-0.228073,0.22381199999999998,0.974324,0.024496,1.249566,-1.213802,-0.42589,-0.13944600000000001,-0.031316000000000004,0.054483000000000004
617,1.547608,-1.351875,-0.338033,0.217117,0.976132,-0.005035,1.218731,-1.282458,-0.279671,-0.010574,-0.20205399999999998,0.01825
618,1.416735,-1.352889,-0.4446,0.213625,0.976352,-0.033174,1.077702,-1.363734,-0.07864600000000001,0.093626,-0.20994899999999997,0.031511000000000004
619,1.310866,-1.347623,-0.528025,0.21389,0.9752,-0.056883,0.8603059999999999,-1.078407,0.151274,0.092262,-0.18194100000000002,0.06930399999999999
620,1.238312,-1.3391549999999999,-0.585074,0.217002,0.973291,-0.074931,0.692816,-0.755379,0.234079,-0.01229,0.03765,0.10679200000000001
621,1.168927,-1.330562,-0.639415,0.218975,0.971282,-0.093064,0.837458,-0.952573,0.13813399999999998,-0.051235,0.078095,0.203034
622,1.066865,-1.319597,-0.7162850000000001,0.217667,0.968615,-0.120025,1.15069,-1.629689,0.033299,-0.20704699999999998,0.07511699999999999,0.571045
623,0.998551,-1.316638,-0.7572949999999999,0.211375,0.967875,-0.136155,-0.070089,-0.9831479999999999,-0.219611,-0.263789,0.13550299999999998,1.055207
624,1.061533,-1.327787,-0.701596,0.21009,0.970618,-0.11731300000000001,-1.212025,1.2263979999999999,-0.070186,-0.278617,0.11358,0.9045290000000001
625,1.205225,-1.347409,-0.5771229999999999,0.206895,0.975153,-0.079195,-2.0805830000000003,0.627837,-0.41304399999999997,-0.318604,0.187002,0.543611
626,1.473493,-1.373091,-0.30017699999999997,0.195491,0.9805200000000001,-0.019082,-3.668286,-0.398834,-0.698419,-0.24581399999999998,0.503046,-0.011344
627,1.87199,-1.382088,0.117556,0.179146,0.982247,0.055651,-3.8761730000000005,-0.8158989999999999,-0.915118,-0.288048,0.24291100000000002,0.05492999999999999
628,2.2299889999999998,-1.362002,0.507116,0.163852,0.978281,0.12695499999999998,-3.88476,-1.221001,-0.8334739999999999,-0.054081,0.188131,-0.025972000000000002
629,2.483777,-1.314457,0.77825,0.15501199999999998,0.967325,0.200633,-3.803265,0.041351,-0.37198200000000003,0.307696,0.224646,-0.212871
630,2.654187,-1.257684,0.947961,0.144256,0.9513799999999999,0.27215100000000003,-3.624402,0.229037,-0.576072,0.340897,0.49184300000000003,-0.41688000000000003
631,2.748096,-1.203044,1.065148,0.137846,0.9331379999999999,0.33204,-2.96235,-1.550115,-0.581986,0.106325,0.42980799999999997,-0.452676
632,2.771849,-1.168528,1.1465020000000001,0.141481,0.920175,0.365048,-1.806688,-2.9137,-1.042184,-0.28318899999999997,0.706778,-0.162243
633,2.8227759999999997,-1.142886,1.2476120000000002,0.13006900000000002,0.9098350000000001,0.394058,-2.035412,-1.257074,-1.6729509999999999,-0.372242,0.709581,0.039368
634,2.906995,-1.115489,1.3571469999999999,0.10221799999999999,0.898126,0.427692,-1.8529240000000002,-0.8728459999999999,-2.012931,-0.20928899999999998,0.616568,-0.26681900000000003
635,2.972064,-1.0864,1.462715,0.078567,0.884956,0.45899799999999996,-1.955862,-1.66307,-1.976318,0.118271,-0.07308200000000001,-0.48141300000000004
636,3.007053,-1.05674,1.546456,0.065956,0.870757,0.48726899999999995,-1.5985989999999999,-2.065172,-1.630408,0.131417,-0.310897,-0.561579
637,3.0226450000000002,-1.036,1.609824,0.06048099999999999,0.8603719999999999,0.5060640000000001,-0.9670790000000001,-1.821282,-1.364595,0.136297,-0.517019,-0.41310699999999995
638,3.031498,-1.0278610000000001,1.657302,0.056766,0.856196,0.513523,-0.29363,-1.456297,-1.048438,0.155469,-0.5592600000000001,-0.380847
639,3.038214,-1.0329469999999998,1.6909830000000001,0.052864999999999995,0.8588129999999999,0.5095529999999999,0.40325900000000003,-0.922832,-0.7942899999999999,0.153159,-0.552309,-0.34128000000000003
640,3.04272,-1.047017,1.71365,0.049371,0.865935,0.497713,0.7510560000000001,-0.6832,-0.5496810000000001,0.080695,-0.590575,-0.325411
641,3.0412060000000003,-1.065912,1.726193,0.048476,0.87523,0.48127,1.0225879999999998,-0.562595,-0.309726,0.013627,-0.606904,-0.335258
642,3.0321569999999998,-1.091931,1.7251599999999998,0.050324,0.887518,0.45801499999999995,1.4842799999999998,-0.30025,0.016834000000000002,0.001907,-0.63822,-0.338508
643,3.009823,-1.12671,1.7037939999999998,0.056449,0.9030040000000001,0.425907,1.9368439999999998,-0.095697,0.41818,0.060037,-0.680515,-0.39951
644,2.963654,-1.165196,1.654327,0.069839,0.918866,0.38834,2.097324,-0.011819,0.8806649999999999,0.047057999999999996,-0.683056,-0.35767
645,2.887644,-1.2012260000000001,1.570096,0.09074700000000001,0.932483,0.349629,2.072593,0.149476,1.324666,-0.027393,-0.5992,-0.259343
646,2.775782,-1.2272809999999998,1.4557799999999999,0.120475,0.941576,0.31451399999999996,1.657884,-0.648258,1.644327,-0.011466,0.261671,-0.298645
647,2.619789,-1.235876,1.3325120000000001,0.16383599999999998,0.944436,0.284951,1.0075290000000001,-2.879092,1.4460899999999999,0.000105,1.223395,0.076041
648,2.503939,-1.2434459999999998,1.282966,0.191414,0.9468979999999999,0.25835199999999997,0.660067,-3.3639550000000003,-0.074728,-0.022772999999999998,1.28586,0.356745
649,2.455515,-1.259223,1.2859610000000001,0.194206,0.951852,0.237195,0.58759,-2.092368,-0.722069,-0.224617,-0.295877,0.29297199999999995
650,2.444771,-1.2814459999999999,1.3065069999999999,0.18312,0.9584290000000001,0.218815,0.7093189999999999,-1.162743,-1.0033530000000002,-0.09321499999999999,-0.41748999999999997,0.160565
651,2.452561,-1.306057,1.32944,0.16635899999999998,0.965161,0.201963,0.754129,-0.48948800000000003,-1.042358,-0.091561,-0.509091,0.140062
652,2.460065,-1.333072,1.340776,0.14835399999999999,0.971877,0.182885,1.151454,0.010212,-0.875717,-0.35221199999999997,-0.800429,-0.279519
653,2.422593,-1.364476,1.304541,0.134927,0.978791,0.154149,1.508475,-0.276565,-0.5983229999999999,-0.426492,-0.8903209999999999,-0.83875
654,2.360863,-1.38814,1.246326,0.127839,0.9833649999999999,0.129038,1.103271,-0.182551,-0.31499,-0.29637199999999997,-0.6545529999999999,-0.90571
655,2.3045560000000003,-1.401801,1.1906450000000002,0.12490799999999999,0.9857540000000001,0.112631,0.544068,0.10148099999999999,0.002274,0.106919,0.047952,-0.5385800000000001
656,2.219073,-1.374643,1.229272,0.155357,0.980823,0.117682,-2.634632,-10.25278,1.3692090000000001,1.265526,2.10873,0.44558100000000006
657,2.331932,-1.297086,1.511725,0.195715,0.962775,0.186441,-4.819355000000001,-3.2524040000000003,0.222277,0.733225,1.8204740000000001,3.895636
658,2.536126,-1.289116,1.5927959999999999,0.15820499999999998,0.9605899999999999,0.22855599999999998,0.353425,10.040197000000001,-0.8204370000000001,-0.187227,-0.540912,0.06943200000000001
659,2.7800580000000004,-1.297777,1.636169,0.095374,0.9629610000000001,0.252209,-0.616629,8.163053999999999,-0.746827,-0.037376,-0.47258999999999995,-1.419445
660,2.879054,-1.270605,1.6957360000000001,0.07674500000000001,0.9552799999999999,0.285571,-1.428064,-0.980289,-0.024002000000000002,-0.131951,-0.46483199999999997,-1.465976
661,2.7783290000000003,-1.270308,1.653702,0.105172,0.955192,0.276672,1.215016,-3.646354,0.800111,0.09452,0.155221,-0.635787
662,2.580978,-1.3036510000000001,1.542985,0.14035899999999998,0.9645290000000001,0.22357,1.8995549999999999,-5.4914,0.470767,-0.037286,0.5542090000000001,0.208223
663,2.570066,-1.270564,1.591315,0.159971,0.955268,0.248741,-2.706318,-0.235596,0.268422,0.064256,0.498651,2.249566
664,2.6843310000000002,-1.254425,1.655341,0.137357,0.95037,0.279156,-0.614296,3.6846769999999998,-0.759232,-0.198987,0.089669,0.594852
665,2.839528,-1.2276989999999999,1.7499919999999998,0.100078,0.941717,0.32117399999999996,-2.8242529999999997,2.653571,-0.994469,-0.36944099999999996,0.13627,0.50837
666,2.943102,-1.158105,1.8275150000000002,0.079088,0.9160450000000001,0.393201,-3.9844480000000004,0.957467,-0.209916,0.058089,0.281267,-0.127835
667,2.975881,-1.083682,1.869378,0.077211,0.8836870000000001,0.46166499999999994,-3.60037,-1.168187,-0.435245,0.464002,0.642207,-0.839885
668,2.957815,-1.0196610000000002,1.9183400000000002,0.095695,0.85193,0.514837,-3.467484,-3.783356,-0.5709029999999999,0.373253,0.5398390000000001,-1.158864
669,2.929351,-0.944052,1.952204,0.12355,0.809941,0.57335,-3.8569739999999997,-1.948141,0.095937,0.226777,0.004359,-0.32205300000000003
670,2.9200880000000002,-0.888747,1.9636240000000003,0.138494,0.7762819999999999,0.614984,-2.009211,-0.325581,0.323621,0.125513,-0.11795699999999999,0.326056
671,2.915851,-0.8676159999999999,1.9601950000000001,0.144739,0.76279,0.6302399999999999,-0.405986,0.106553,0.357767,0.087988,0.14816,-0.255225
672,2.913682,-0.8719629999999999,1.9494189999999998,0.14535499999999998,0.7655930000000001,0.626689,0.63594,0.41427299999999995,0.289875,0.229294,0.105012,-0.496425
673,2.907604,-0.8974690000000001,1.9282270000000001,0.144585,0.781751,0.606597,1.884716,0.617292,0.384863,0.088142,-0.121656,-0.43759
674,2.900906,-0.946398,1.8961810000000001,0.139353,0.811315,0.567757,3.016261,1.182416,0.337564,-0.008448,-0.34776799999999997,-0.24663600000000002
675,2.8994400000000002,-1.0163790000000001,1.854957,0.12623800000000002,0.8502069999999999,0.511089,4.063376,1.8929529999999999,0.22966799999999998,-0.076266,-0.461001,-0.199947
676,2.899245,-1.10622,1.806505,0.107522,0.8940110000000001,0.43495100000000003,4.935169999999999,2.1105259999999997,-0.057214999999999995,-0.168191,-0.491256,-0.244781
677,2.872048,-1.207447,1.745614,0.09464199999999999,0.9347120000000001,0.342574,5.325658,0.802673,0.060421,-0.113731,-0.200382,-0.46809300000000004
678,2.7422020000000003,-1.304359,1.623528,0.102384,0.964715,0.242573,5.0221919999999995,-1.71018,0.024133,-0.024213,0.503699,-0.524373
679,2.5260849999999997,-1.388435,1.47391,0.104707,0.983418,0.14807,3.9956480000000005,-4.452858,-0.7849619999999999,-0.172624,0.43091899999999994,-0.420363
680,2.275455,-1.439957,1.3196430000000001,0.099392,0.991453,0.084511,1.832344,-4.89044,-0.835832,-0.382305,-0.773405,0.052328999999999994
681,2.403962,-1.447251,1.519111,0.082878,0.9923780000000001,0.091199,-2.7150369999999997,-1.954548,-1.419355,-0.6234350000000001,-0.442421,1.705828
682,2.7701290000000003,-1.405271,1.882659,0.05980800000000001,0.986332,0.153533,-1.6878240000000002,0.712441,-0.59734,-0.356821,-0.95467,1.6425939999999999
683,2.772724,-1.429208,1.849693,0.050881,0.989993,0.131624,2.237794,2.633902,-0.197436,0.146079,-1.027331,-0.132357
684,2.8071479999999998,-1.4787489999999999,1.807502,0.030170999999999996,0.995767,0.086824,2.169416,4.272213,-0.9157209999999999,0.732478,-0.495004,-0.416155
685,2.9815669999999996,-1.447793,1.9651419999999997,0.01955,0.992445,0.121126,-6.2790989999999995,-3.766046,0.468052,1.35165,1.2466,0.21794000000000002
686,2.773193,-1.297826,1.9273529999999999,0.097087,0.962974,0.25150500000000003,-4.441448,-8.873118,2.636695,0.521001,2.152947,2.838934
687,2.803907,-1.2510649999999999,1.9398400000000002,0.10413299999999999,0.94932,0.29656,-1.581756,5.519086,0.07876699999999999,-0.26169499999999996,-0.349985,0.21993400000000002
688,2.938,-1.231535,1.9427729999999999,0.067287,0.943001,0.325917,-0.929378,6.05085,0.26424000000000003,-0.333766,-0.8890459999999999,-1.048039
689,3.009989,-1.210432,1.943285,0.046272,0.9357690000000001,0.349566,-0.8643290000000001,2.057662,0.075395,-0.312751,-0.881813,-1.071688
690,3.004812,-1.201849,1.9371599999999998,0.049174,0.932707,0.357266,-0.6784640000000001,-0.645863,0.410239,-0.360026,-0.39984000000000003,-0.243633
691,2.997115,-1.136188,1.9206290000000001,0.060621,0.907035,0.41666800000000004,-3.7797129999999997,0.17547100000000002,0.699445,-0.533308,3.406945,0.666279
692,3.037368,-1.064389,1.98245,0.050462,0.8744930000000001,0.48240600000000006,-4.075684,-0.736061,-1.790412,-0.140855,2.300236,-0.317459
693,3.055444,-0.9869319999999999,2.0448169999999997,0.047431,0.8343389999999999,0.549207,-3.6458440000000003,-2.3926849999999997,-0.8025220000000001,0.26564899999999997,1.3796959999999998,-1.093641
694,3.025361,-0.935478,2.0557939999999997,0.06882100000000001,0.804883,0.589429,-2.179439,-1.9938240000000003,0.21026999999999998,0.870663,-0.372052,-0.65495
695,2.980082,-0.9030309999999999,2.049804,0.099579,0.785208,0.611173,-0.878475,-1.269269,0.372253,0.520554,-0.5788939999999999,-0.161894
696,2.9832919999999996,-0.914586,2.032666,0.096179,0.7923100000000001,0.602489,1.325993,1.5252940000000001,0.505847,0.285947,-0.384397,0.214542
697,2.9960459999999998,-0.955925,1.998818,0.083663,0.8168479999999999,0.570754,2.658413,2.204685,0.746088,0.110627,-0.13829,-0.364989
698,3.007997,-1.016139,1.9569880000000002,0.070149,0.850081,0.5219590000000001,3.336575,2.281458,0.672746,0.098842,-0.196898,-0.41381999999999997
699,3.0102580000000003,-1.085112,1.924323,0.06113300000000001,0.8843559999999999,0.462793,3.639035,0.9221719999999999,0.143558,0.028131,-0.202791,-0.49827
700,2.992364,-1.163359,1.903772,0.058913,0.9181389999999999,0.391853,4.097988,-0.322311,-0.193472,-0.259658,-0.067584,-0.33934699999999995
701,2.95624,-1.247974,1.884064,0.058466,0.9483440000000001,0.311808,4.304838,-1.35305,-0.484468,-0.45615600000000006,-0.335474,-0.30439299999999997
702,2.889642,-1.332041,1.864616,0.058954999999999994,0.971633,0.22902399999999998,3.900182,-3.063723,-0.706224,-0.310634,-0.537566,-0.3382
703,2.7916369999999997,-1.394158,1.850366,0.060246,0.98444,0.16506700000000002,2.401748,-4.778218,-0.8886139999999999,-0.355092,-0.7644850000000001,-0.24725100000000003
704,2.939869,-1.390174,2.0701169999999998,0.035992,0.9837319999999999,0.175996,-3.217002,-0.7013199999999999,-2.430732,-1.0254940000000001,-0.485029,2.669753
705,-3.125684,-1.367894,2.230476,-0.003206,0.9794860000000001,0.201487,0.9489489999999999,2.927666,-0.614875,-0.038451,-0.7796569999999999,1.42655
706,-3.065687,-1.417945,2.252434,-0.011545999999999999,0.988341,0.151815,2.815325,1.822141,0.105673,0.503321,-1.06935,-1.0050709999999998
707,-2.903209,-1.45014,2.375363,-0.028421,0.9927299999999999,0.11695599999999999,0.8153,1.814037,-1.193358,0.8503350000000001,-0.704751,-0.66345
708,-2.8009060000000003,-1.420456,2.479157,-0.050044,0.98872,0.141164,-2.644097,-1.417239,-0.519037,0.796962,-0.419766,-0.14441400000000001
709,-3.139209,-1.319826,2.220777,-0.000592,0.968672,0.248344,-5.982297,-6.25584,2.932362,0.737317,1.0434889999999999,0.460946
710,2.9102,-1.248737,2.0762009999999997,0.072589,0.948586,0.308084,-2.3185540000000002,-0.46948900000000005,0.881393,0.073087,1.778847,2.6804099999999997
711,3.036068,-1.229666,2.1001,0.035238,0.942377,0.33269099999999996,-0.526151,6.596332,-0.366029,-0.107946,-0.18299300000000002,-0.262088
712,-3.136612,-1.204126,2.1167990000000003,-0.001786,0.933526,0.358505,-2.084197,2.973446,-0.110555,-0.34683200000000003,-0.24483600000000003,-0.700866
713,3.127997,-1.1342780000000001,2.0922259999999997,0.005748,0.9062290000000001,0.42274700000000004,-4.175726,-0.864691,0.889223,-0.633174,2.503332,1.429884
714,3.088975,-1.052961,2.078919,0.026033999999999998,0.868892,0.49431499999999995,-3.8071800000000002,-1.471602,-0.301697,-0.416918,2.808369,0.341683
715,3.1006669999999996,-0.986867,2.120963,0.022556,0.834303,0.550845,-3.197115,-1.4201110000000001,-0.919207,0.16280799999999998,1.538637,-1.10036
716,3.077665,-0.931816,2.13667,0.038099,0.802704,0.595159,-2.425624,-1.7636630000000002,0.14202599999999999,0.913165,-0.506119,-0.34979699999999997
717,3.05267,-0.9064540000000001,2.124254,0.054751999999999995,0.7873220000000001,0.614106,-0.28472800000000004,0.187501,0.521948,0.8560450000000001,-0.776031,0.271499
718,3.051108,-0.919431,2.103775,0.054784000000000006,0.7952560000000001,0.603792,1.144937,0.915393,0.537411,0.384166,0.045625,-0.030718000000000002
719,3.064826,-0.954142,2.087149,0.044351,0.815818,0.576605,2.0911560000000002,1.567272,0.267584,0.043433,0.24385900000000002,-0.49761099999999997
720,3.08337,-1.001174,2.0716240000000004,0.031383,0.8421049999999999,0.538399,2.489688,1.4710299999999998,0.28118200000000004,-0.032069,0.07327,-0.565499
721,3.090183,-1.052414,2.056202,0.025461,0.8686219999999999,0.494821,2.655982,0.664291,0.218216,-0.127939,-0.197479,-0.55372
722,3.0881979999999998,-1.11285,2.050215,0.023594999999999998,0.896962,0.44147700000000006,3.287443,0.0074459999999999995,-0.16963699999999998,-0.223119,-0.491918,-0.374872
723,3.0933509999999997,-1.187776,2.060394,0.018022,0.9275399999999999,0.373289,3.9822940000000004,-0.47309700000000005,-0.479293,-0.322481,-0.9124639999999999,-0.172621
724,3.070024,-1.2694889999999999,2.064696,0.021221,0.9549489999999999,0.296009,4.049017,-1.922335,-0.155435,-0.229656,-1.252084,-0.213123
725,2.9888060000000003,-1.337445,2.034954,0.035193,0.9728969999999999,0.228546,2.77757,-2.805181,0.08036900000000001,-0.095236,-1.071896,-0.443954
726,2.944344,-1.357879,2.035966,0.041411,0.977419,0.207215,-0.46923000000000004,-1.579097,-0.554904,-0.5164479999999999,-0.587572,0.161025
727,3.0517060000000003,-1.3439510000000001,2.118707,0.020189,0.9743809999999999,0.22399699999999997,0.123047,2.218815,-0.586612,-0.580629,0.017608000000000002,3.131121
728,3.100524,-1.355801,2.146799,0.008759000000000001,0.9769770000000001,0.21316300000000002,0.542288,0.687161,-0.20463800000000001,0.20591700000000002,-0.640536,-0.8327
729,3.137652,-1.363027,2.16065,0.000813,0.9784930000000001,0.20627600000000001,0.183385,1.5629170000000001,-0.18476700000000001,0.40626100000000004,-0.7702260000000001,-0.530663
730,-3.097283,-1.356477,2.168991,-0.009420999999999999,0.9771209999999999,0.212473,-0.721533,2.051715,0.10738800000000001,0.630713,-0.41916800000000004,-0.263499
731,3.033274,-1.311053,2.049634,0.027764999999999998,0.966456,0.25532699999999997,-3.158986,-5.535926,2.40424,0.6467649999999999,0.5586300000000001,0.290358
732,2.886634,-1.2491139999999998,1.964648,0.079738,0.9487049999999999,0.30594299999999996,-2.211204,0.785245,0.563282,0.58257,2.0515849999999998,1.77055
733,3.024715,-1.2232459999999998,2.004553,0.039717,0.94021,0.33827199999999996,-1.119492,6.117735,-0.577855,-0.356108,-0.147867,-0.36982800000000005
734,3.115973,-1.187347,2.0261150000000003,0.009584,0.92738,0.37399899999999997,-2.416172,1.2140549999999999,0.066714,-0.49850600000000006,-0.048107,-0.6138520000000001
735,3.0867310000000003,-1.116095,2.019612,0.024083,0.898392,0.438533,-4.336344,-1.199194,-0.033336000000000005,-0.908375,1.863861,0.641881
736,3.1009729999999998,-1.029101,2.061623,0.020937,0.856836,0.5151640000000001,-4.1398459999999995,-1.316853,-1.148105,0.372175,1.346716,-0.678998
737,3.103925,-0.9530549999999999,2.108362,0.021812,0.815189,0.578784,-3.6980440000000003,-2.049945,-0.952868,0.37130100000000005,1.388363,-0.742618
738,3.07881,-0.8945,2.129634,0.03927,0.779896,0.624676,-2.3992709999999997,-1.856453,-0.118308,0.8831540000000001,0.24029099999999998,-1.193645
739,3.057829,-0.87521,2.111139,0.053616,0.767678,0.6385890000000001,-0.209983,0.26168,0.821486,0.668491,-0.8261649999999999,0.064674
740,3.0484869999999997,-0.885509,2.086067,0.058841,0.774237,0.630154,1.035057,0.779026,0.6361720000000001,0.404263,-0.34377199999999997,-0.078747
741,3.054724,-0.919135,2.066191,0.052621,0.795078,0.604221,2.068196,1.109785,0.409024,0.14008299999999999,0.282468,-0.227954
742,3.056168,-0.9664370000000001,2.043487,0.048482,0.822866,0.566163,2.570336,0.8881969999999999,0.508955,-0.112325,-0.133993,-0.41183500000000006
743,3.0435,-1.020969,2.0140849999999997,0.051175,0.852615,0.5200279999999999,2.977027,0.45748,0.509143,-0.12579100000000001,-0.18517999999999998,-0.332451
744,3.027995,-1.090188,1.98613,0.052405999999999994,0.8867139999999999,0.45933900000000005,3.8191089999999996,0.49822299999999997,0.24685,-0.116782,-0.083812,-0.286014
745,3.004677,-1.169482,1.951066,0.053315999999999995,0.9205479999999999,0.386973,4.022538,0.253284,0.318019,0.114225,-0.074738,-0.552867
746,2.938941,-1.241431,1.8972490000000002,0.065098,0.946248,0.316824,3.4837550000000004,-1.614525,0.347627,0.155116,-0.102177,-0.623983
747,2.808679,-1.3007799999999998,1.817743,0.087172,0.963767,0.25209899999999996,2.945219,-3.2923050000000003,0.274445,0.032503,-0.291998,-0.306756
748,2.663648,-1.344727,1.7556310000000002,0.103098,0.974555,0.19902999999999998,1.8090400000000002,-4.458377,-0.43916000000000005,-0.267527,-0.556388,0.88233
749,2.661613,-1.365099,1.7917419999999997,0.094314,0.9789190000000001,0.18117,0.15843800000000002,0.032999,-0.915781,-0.683822,-0.7258819999999999,1.697065
750,2.797936,-1.365996,1.879446,0.068522,0.979102,0.191478,-0.378776,3.628464,-0.75643,-0.336619,-0.9878600000000001,0.8545729999999999
751,2.894702,-1.380483,1.903087,0.04623,0.9819450000000001,0.183427,1.2365389999999998,3.4046540000000003,-0.267365,-0.008754000000000001,-1.08456,-0.568697
752,2.947854,-1.407354,1.9032470000000001,0.031327,0.9866729999999999,0.159667,1.15571,2.164333,-0.37850300000000003,0.17660499999999998,-0.8426610000000001,-0.9160299999999999
753,3.009983,-1.41888,1.936877,0.019859,0.988483,0.15002100000000002,0.059399,1.0020930000000001,-0.22123400000000001,0.369088,-0.293552,-0.556103
754,2.937221,-1.370485,1.930119,0.040382,0.9800049999999999,0.19483,-3.3301160000000003,-6.567227000000001,0.9847,0.411279,1.040473,0.445643
755,2.8117900000000002,-1.331313,1.9073470000000001,0.076818,0.971461,0.224415,-1.034581,-2.516331,0.14844300000000002,0.346003,1.0895290000000002,1.145977
756,2.922869,-1.327948,1.9654619999999998,0.052177,0.970657,0.234737,0.037201,4.747857,-0.797687,-0.6334609999999999,0.161438,1.233449
757,3.072926,-1.330611,2.034195,0.016322,0.9712940000000001,0.237319,-0.195711,3.010149,-0.8013600000000001,-0.309,0.162205,-0.389968
758,3.123487,-1.3129790000000001,2.06812,0.0046159999999999994,0.966949,0.254927,-1.309974,0.012629000000000001,-0.144073,-0.07428799999999999,0.18504400000000001,-0.37458600000000003
759,3.113323,-1.273331,2.06284,0.008284999999999999,0.956082,0.292979,-2.387315,-0.272764,0.23119099999999998,0.000337,0.13501300000000002,0.315373
760,3.1103400000000003,-1.213606,2.060251,0.010926,0.936883,0.34947,-3.2576680000000002,0.048545,0.021738,-0.0961,1.126441,0.678392
761,3.1197939999999997,-1.1409639999999999,2.082383,0.009082999999999999,0.909035,0.41661800000000004,-3.990389,-0.745409,-0.593386,-0.043843,1.495063,0.5660930000000001
762,3.137609,-1.057619,2.123869,0.001956,0.871189,0.490943,-4.019971,-1.284988,-0.962506,0.17036199999999999,1.3525200000000002,-0.152351
763,3.122402,-0.989977,2.153187,0.01053,0.8360129999999999,0.548608,-3.0115979999999998,-2.290338,-0.572819,0.27716,1.0579379999999998,-0.67553
764,3.099053,-0.9517950000000001,2.164657,0.024675,0.814459,0.579696,-1.261535,-0.931966,0.003822,0.394636,0.007593000000000001,-0.658157
765,3.088089,-0.937701,2.151097,0.031639999999999995,0.8062,0.590795,-0.37080799999999997,0.327096,0.586339,0.530936,-0.306902,0.07023099999999999
766,3.075947,-0.9427840000000001,2.1261490000000003,0.038542,0.809197,0.586271,0.746129,0.454697,0.741392,0.309756,-0.125023,-0.159651
767,3.064659,-0.9705940000000001,2.0971830000000002,0.043410000000000004,0.8252209999999999,0.563138,1.805694,0.747057,0.769782,0.071229,-0.111186,-0.3513
768,3.053329,-1.013611,2.061755,0.046613,0.8487469999999999,0.52674,2.450325,1.015471,0.752577,0.057238,-0.24868,-0.43215
769,3.042449,-1.066928,2.024616,0.04779,0.8757209999999999,0.48044499999999996,2.8836720000000002,0.960025,0.65633,0.115388,-0.22140900000000002,-0.44038999999999995
770,3.018711,-1.129751,1.985927,0.052324,0.9043059999999999,0.42366499999999996,3.4707440000000003,0.325038,0.43478199999999995,0.0594,-0.09754299999999999,-0.469426
771,2.981889,-1.203606,1.9394740000000001,0.057089,0.93334,0.354426,3.877121,0.222727,0.358717,-0.047034,-0.07219500000000001,-0.378947
772,2.913983,-1.27931,1.884657,0.064846,0.9578180000000001,0.279963,3.8834519999999997,-1.576166,-0.002129,-0.11838900000000001,-0.093072,-0.465082
773,2.771325,-1.352985,1.797516,0.078196,0.9763729999999999,0.20144600000000001,3.792807,-3.736098,-0.035245,-0.075037,-0.385919,-0.297439
774,2.555091,-1.411318,1.6733200000000001,0.087887,0.98731,0.132261,2.473593,-4.986838,-0.46266899999999994,-0.252392,-0.761267,0.026858
775,2.566723,-1.4209479999999999,1.747002,0.08116799999999999,0.9887940000000001,0.12528699999999998,-1.7078200000000001,-0.707387,-0.892602,-0.779945,-0.927636,1.4703700000000002
776,2.827212,-1.386614,1.944969,0.056630999999999994,0.983086,0.17415999999999998,-1.371577,4.568974,-0.39815500000000004,-0.575078,-0.744927,1.994618
777,2.863854,-1.4060780000000002,1.912002,0.044957,0.9864649999999999,0.157683,1.797664,2.7802729999999998,0.07599600000000001,0.060131,-0.946304,-0.186613
778,2.924559,-1.4392969999999998,1.920079,0.028232,0.991366,0.12803399999999998,1.180556,2.643652,-0.91945,0.672985,-0.40993,-0.681471
779,3.093352,-1.440343,2.053027,0.006272,0.991503,0.12992,-1.000024,0.9154680000000001,-0.551111,0.7015979999999999,-0.209856,-0.569267
780,3.0345299999999997,-1.389097,2.029497,0.019308000000000002,0.9835379999999999,0.17965799999999998,-2.86953,-3.4067230000000004,0.8930819999999999,0.5650569999999999,0.511549,-0.12228499999999999
781,2.893996,-1.33825,1.999102,0.056477,0.973083,0.22342199999999998,-2.719758,-5.215345,0.177533,-0.41754600000000003,0.663712,1.445951
782,2.979082,-1.315864,2.05096,0.040801,0.9676799999999999,0.24885300000000002,-0.41172,4.6776919999999995,-0.44606899999999994,-0.40187,0.669115,1.42052
783,3.117506,-1.301891,2.089291,0.006399,0.9640620000000001,0.26559499999999997,-1.254286,4.282145,-0.43221899999999996,-0.136785,-0.19831500000000002,-0.495697
784,-3.125132,-1.2571809999999999,2.099011,-0.005078,0.951224,0.30845500000000003,-2.615866,-0.012461,0.067974,-0.185398,-0.105689,-0.259108
785,3.11773,-1.199345,2.081493,0.00866,0.931802,0.362861,-3.102881,-1.259375,0.358863,-0.235375,0.17868699999999998,0.26397
786,3.107587,-1.130323,2.079457,0.014496,0.90455,0.426117,-3.5465699999999996,-0.012856999999999999,-0.091282,-0.3302,2.1668,0.78598
787,-3.139491,-1.059058,2.118792,-0.001029,0.8718940000000001,0.48968900000000004,-3.6028870000000004,-0.40111199999999997,-1.249131,0.159751,1.579918,-0.474125
788,3.1334400000000002,-0.9890260000000001,2.159402,0.00448,0.835491,0.5494829999999999,-3.217746,-2.751271,-0.7445689999999999,0.357688,1.1496620000000002,-1.172652
789,3.1023389999999997,-0.9422,2.167805,0.023075,0.808854,0.587555,-1.875625,-1.406574,0.142229,0.7202569999999999,-0.284943,-0.569443
790,3.075754,-0.9210940000000001,2.1417770000000003,0.0398,0.7962640000000001,0.603636,-0.573382,0.107551,1.050964,0.48141000000000006,-0.465942,0.21701199999999998
791,3.059996,-0.922049,2.111723,0.049245,0.796841,0.6021770000000001,0.579516,0.696909,0.7858649999999999,0.15241500000000002,0.16478299999999999,0.008449
792,3.0587459999999997,-0.947083,2.086735,0.048331,0.811715,0.5820489999999999,1.6858229999999998,0.976087,0.6073649999999999,-0.025352,0.10671099999999999,-0.287951
793,3.052406,-0.988716,2.056895,0.048967000000000004,0.8353209999999999,0.5475770000000001,2.410686,0.901927,0.6755479999999999,-0.063524,-0.123971,-0.351547
794,3.043448,-1.044031,2.025068,0.049262,0.8644379999999999,0.500319,3.0747869999999997,0.871417,0.537084,0.037744,-0.127072,-0.27635
795,3.0208630000000003,-1.112901,1.9854049999999999,0.053239999999999996,0.896985,0.43884300000000004,3.809803,0.42339799999999994,0.583385,0.030088,-0.052167,-0.348892
796,2.964456,-1.192717,1.921657,0.065046,0.929375,0.36336,4.192977,-0.156769,0.681876,0.006929,0.405006,-0.38000700000000004
797,2.8993029999999997,-1.271344,1.8673080000000002,0.07077699999999999,0.955498,0.286379,3.9584879999999996,-1.0904969999999998,-0.308807,-0.060020000000000004,0.347663,-0.263934
798,2.808743,-1.34907,1.814639,0.071854,0.975519,0.207842,3.952261,-2.603718,-0.437234,-0.11346400000000001,-0.615626,-0.294955
