,attitude.roll,attitude.pitch,attitude.yaw,gravity.x,gravity.y,gravity.z,rotationRate.x,rotationRate.y,rotationRate.z,userAcceleration.x,userAcceleration.y,userAcceleration.z
0,-0.539307,-1.2827389999999999,-0.8349030000000001,-0.145892,0.9587979999999999,-0.24376799999999998,0.574913,-0.227875,0.26408000000000004,0.159869,-0.055615,-0.241691
1,-0.500842,-1.272873,-0.788139,-0.14094500000000001,0.9559479999999999,-0.257483,0.701012,-0.416879,0.267339,0.163787,-0.106949,-0.233698
2,-0.469471,-1.261617,-0.746499,-0.137659,0.952583,-0.271356,0.696994,-0.462266,0.165888,0.136195,-0.103493,-0.26209099999999996
3,-0.45027700000000004,-1.2506700000000002,-0.717919,-0.136956,0.9491959999999999,-0.28331999999999996,0.534291,-0.42621400000000004,0.082452,0.010018,-0.057884000000000005,-0.27091
4,-0.44167799999999996,-1.243099,-0.698533,-0.13758299999999998,0.946786,-0.290975,0.309406,-0.597002,0.097124,-0.035666,-0.058999,-0.284754
5,-0.440723,-1.2396,-0.6825869999999999,-0.138717,0.9456540000000001,-0.294101,0.188695,-0.830031,0.135035,-0.005340999999999999,-0.0035759999999999998,-0.280835
6,-0.44598699999999997,-1.234256,-0.668334,-0.142441,0.943903,-0.297921,0.445672,-0.977491,0.028109,-0.241837,0.253698,-0.202079
7,-0.452323,-1.221739,-0.655507,-0.149478,0.9396959999999999,-0.307616,0.748659,-0.884232,-0.11303599999999998,-0.363111,0.715746,-0.262696
8,-0.46311899999999995,-1.209496,-0.6391439999999999,-0.157918,0.9354379999999999,-0.316254,0.539451,-1.471061,0.033669,-0.188609,0.161074,0.48339899999999997
9,-0.467761,-1.204034,-0.634829,-0.161686,0.933493,-0.32007399999999997,0.061087999999999996,0.21000300000000002,-0.098945,-0.68301,-0.640311,0.6111810000000001
10,-0.473721,-1.211781,-0.65633,-0.16028699999999999,0.936243,-0.312659,-0.9407760000000001,0.7924140000000001,-0.222057,-0.576499,-0.42553199999999997,0.46086800000000006
11,-0.523018,-1.238659,-0.7263270000000001,-0.162867,0.945348,-0.282473,-2.140781,1.020453,-0.5309010000000001,-0.082006,0.300746,0.707964
12,-0.597025,-1.270888,-0.8386049999999999,-0.16608599999999998,0.955364,-0.24432399999999999,-2.330693,1.8832669999999998,-0.6177229999999999,0.019815,0.343998,0.583298
13,-0.685232,-1.30138,-0.970666,-0.168444,0.9639260000000001,-0.206085,-2.257478,1.8720459999999999,-0.5392170000000001,0.193224,0.366747,0.44635
14,-0.7774270000000001,-1.323787,-1.100833,-0.171505,0.969648,-0.174262,-1.7128880000000002,1.570534,-0.468797,0.499295,0.15375,0.126914
15,-0.851281,-1.336295,-1.2062540000000002,-0.174761,0.9726299999999999,-0.15312699999999999,-1.137451,1.3017239999999999,-0.344792,0.449633,0.070552,0.06692999999999999
16,-0.9106059999999999,-1.346319,-1.286066,-0.175821,0.9749110000000001,-0.136509,-1.016463,0.661276,-0.12948199999999999,0.23545300000000002,-0.045086,0.098881
17,-0.993763,-1.357085,-1.3744129999999999,-0.17774500000000001,0.977251,-0.115701,-1.1097709999999998,-0.169274,-0.139752,0.025294999999999998,-0.00702,0.059365999999999995
18,-1.099005,-1.363999,-1.468831,-0.182894,0.9786940000000001,-0.093316,-0.9632719999999999,-0.892761,-0.225396,-0.06144500000000001,0.020025,0.011819
19,-1.20449,-1.364814,-1.554435,-0.190959,0.9788610000000001,-0.07325599999999999,-0.693878,-1.175335,-0.38979400000000003,-0.047628,0.050908999999999996,0.007566
20,-1.2872270000000001,-1.360528,-1.6161860000000001,-0.20038599999999998,0.977975,-0.058397000000000004,-0.49139799999999995,-0.993858,-0.39395399999999997,0.10819300000000001,-0.015054,0.063402
21,-1.355069,-1.355983,-1.670019,-0.20822399999999996,0.977016,-0.045630000000000004,-0.504097,-0.656432,-0.31649499999999997,0.178607,-0.008739,0.030066000000000002
22,-1.421734,-1.353991,-1.724579,-0.21272399999999997,0.97659,-0.031945999999999995,-0.594797,-0.723925,-0.142922,0.169511,-0.034756,0.002817
23,-1.4965389999999998,-1.354014,-1.7840099999999999,-0.214495,0.9765950000000001,-0.015957,-0.64931,-0.8743799999999999,-0.033083,0.159975,-0.024812,0.029994999999999997
24,-1.5759969999999999,-1.35384,-1.846414,-0.21525500000000003,0.976557,0.00112,-0.700725,-0.930617,-0.044052,0.088531,-0.02479,-0.007208
25,-1.6670639999999999,-1.3529719999999998,-1.9206509999999999,-0.21510500000000002,0.9763700000000001,0.020772,-0.8757389999999999,-0.862144,0.033686,0.006807,0.0133,0.011714
26,-1.75942,-1.351424,-2.0080560000000003,-0.213757,0.9760340000000001,0.040805,-0.9645819999999999,0.052053999999999996,0.062873,0.025082,-0.031576,-0.033481
27,-1.8316259999999998,-1.348732,-2.0902979999999998,-0.21279299999999998,0.9754450000000001,0.056797,-0.833636,0.486141,0.085664,0.030496,-0.052516999999999994,-0.059421
28,-1.885616,-1.346036,-2.1560639999999998,-0.211918,0.9748469999999999,0.069011,-0.710472,0.56677,0.061852,0.027088,-0.04455,-0.027141000000000002
29,-1.930667,-1.3416780000000001,-2.218444,-0.21256999999999998,0.973867,0.079981,-0.771687,0.902745,0.011855,0.056076,-0.055196,-0.034814
30,-1.974533,-1.3358860000000001,-2.28278,-0.21404099999999998,0.972535,0.09143899999999999,-0.8069270000000001,0.890106,0.0062840000000000005,0.08106000000000001,-0.063325,-0.094644
31,-2.024075,-1.328491,-2.347318,-0.215709,0.9707870000000001,0.105073,-0.878893,0.510193,-0.028983,0.054561,-0.038872000000000004,-0.139711
32,-2.0786540000000002,-1.319239,-2.410612,-0.217494,0.968526,0.121046,-0.87445,0.271717,-0.069239,0.046778,-0.009648,-0.119276
33,-2.119367,-1.3100399999999999,-2.459044,-0.21998,0.966195,0.134439,-0.701062,0.363915,-0.099124,0.055978999999999994,0.00672,-0.077829
34,-2.144698,-1.3011840000000001,-2.494671,-0.223681,0.963874,0.14460699999999999,-0.644766,0.493892,-0.15124,0.05995399999999999,-0.012336,-0.031554
35,-2.163869,-1.2914430000000001,-2.526183,-0.22864299999999999,0.961234,0.154109,-0.6699729999999999,0.559056,-0.175001,0.073751,0.015939,-0.038523
36,-2.186014,-1.280883,-2.5594419999999998,-0.23345300000000002,0.958269,0.164984,-0.729206,0.433569,-0.17739000000000002,0.091424,0.080946,-0.025626
37,-2.209845,-1.269409,-2.593156,-0.23826599999999998,0.954926,0.177047,-0.7623270000000001,0.41454399999999997,-0.186143,0.157913,0.228027,-0.089813
38,-2.236153,-1.257614,-2.627065,-0.242371,0.951358,0.190194,-0.7762220000000001,0.202477,-0.15499000000000002,0.247025,0.287137,-0.19275699999999998
39,-2.2659599999999998,-1.24579,-2.658299,-0.24521700000000002,0.947649,0.204524,-0.723279,-0.11413499999999999,-0.1446,0.348992,0.269316,-0.316631
40,-2.2939,-1.2371860000000001,-2.684968,-0.24551199999999998,0.944866,0.216683,-0.544434,-0.055689999999999996,0.00292,0.282713,0.26124899999999995,-0.527306
41,-2.309112,-1.232177,-2.701035,-0.245684,0.943214,0.22357399999999997,-0.1884,-0.145263,-0.016911000000000002,0.287661,0.283699,-0.660891
42,-2.305568,-1.234416,-2.685826,-0.244908,0.9439549999999999,0.221286,0.555353,-0.713026,-0.13597,0.36444499999999996,0.461761,-0.6210359999999999
43,-2.27524,-1.24637,-2.6368419999999997,-0.242889,0.9478340000000001,0.206434,1.2093040000000002,-0.812847,0.017209000000000002,0.36849899999999997,0.436428,-0.6843859999999999
44,-2.2207830000000004,-1.26873,-2.562188,-0.23683099999999999,0.954724,0.180035,1.892997,-0.90546,0.206905,0.25955100000000003,0.365604,-0.706097
45,-2.109677,-1.302041,-2.422759,-0.2279,0.964102,0.136264,2.96652,-1.224941,0.316295,0.131724,0.430246,-0.516467
46,-1.8865169999999998,-1.3386149999999999,-2.16811,-0.21872600000000003,0.973167,0.07144600000000001,3.9921870000000004,-1.080678,0.37989,-0.149362,0.49112799999999995,0.007945
47,-1.522052,-1.359753,-1.779204,-0.20923000000000003,0.9778129999999999,-0.010206999999999999,4.398671,-0.471171,0.517612,-0.326002,0.679002,0.760054
48,-1.148097,-1.351343,-1.404367,-0.198535,0.976017,-0.089304,3.5871699999999995,0.959463,0.429994,-0.633359,0.591488,0.92222
49,-0.892825,-1.3248010000000001,-1.184049,-0.189666,0.9698950000000001,-0.15274000000000001,2.4111700000000003,2.4945060000000003,0.122847,-0.8116770000000001,0.538878,0.340194
50,-0.7187319999999999,-1.301153,-1.054647,-0.175397,0.963866,-0.200493,1.919874,2.3664080000000003,0.348179,-0.440982,0.402223,0.16423900000000002
51,-0.566576,-1.270684,-0.947198,-0.15867699999999998,0.955303,-0.24943400000000002,2.2764759999999997,2.584922,0.272409,-0.201873,0.21483200000000002,0.329069
52,-0.42799899999999996,-1.236302,-0.8597030000000001,-0.136258,0.944577,-0.298679,1.85188,2.7551189999999997,0.43586800000000003,0.166668,0.14390899999999998,0.578555
53,-0.32758400000000004,-1.2150370000000001,-0.794621,-0.112069,0.9373819999999999,-0.32978,1.230486,1.3486120000000001,0.793321,0.235146,0.041393,0.56623
54,-0.23191399999999998,-1.203065,-0.714398,-0.082628,0.9331450000000001,-0.349875,0.781089,0.9599479999999999,1.408112,0.119539,-0.091913,0.394934
55,-0.133305,-1.195232,-0.6240180000000001,-0.048750999999999996,0.930301,-0.363543,0.727468,0.532521,1.517244,0.0419,-0.220935,0.32792899999999997
56,-0.056741,-1.182776,-0.544845,-0.021457,0.92566,-0.37774800000000003,0.7427020000000001,-0.065454,1.326905,-0.138226,-0.439866,0.31485100000000005
57,-0.010743,-1.168825,-0.486861,-0.004203,0.920291,-0.39121100000000003,0.740256,-0.530443,0.9290370000000001,-0.15548,-0.434497,0.328314
58,0.002777,-1.1531129999999998,-0.455925,0.001126,0.9140309999999999,-0.405642,0.788105,-0.8300879999999999,0.433079,-0.305448,-0.6831659999999999,0.40617600000000004
59,-0.007240000000000001,-1.139024,-0.44689700000000004,-0.00303,0.908226,-0.41847,0.6218739999999999,-0.921746,0.056021,-0.354453,-0.790519,0.5408149999999999
60,-0.025263999999999998,-1.132223,-0.448817,-0.010727,0.905358,-0.42451300000000003,0.123982,-0.736265,-0.07588099999999999,-0.352081,-0.8187800000000001,0.575041
61,-0.040997000000000006,-1.138213,-0.453454,-0.017182,0.9078860000000001,-0.418865,-0.540552,-0.48142299999999993,-0.0926,-0.32453899999999997,-0.6653319999999999,0.478206
62,-0.057908,-1.154467,-0.46313999999999994,-0.023405000000000002,0.9145790000000001,-0.40372800000000003,-0.958793,-0.368693,-0.215306,-0.096636,-0.5014930000000001,0.365962
63,-0.08341599999999999,-1.176956,-0.48407,-0.031972,0.923442,-0.382402,-1.272314,-0.28270500000000004,-0.401341,-0.002238,-0.460567,0.321046
64,-0.121761,-1.204988,-0.519699,-0.043447,0.9338350000000001,-0.355055,-1.550878,-0.254355,-0.5891930000000001,0.056874,-0.348233,0.21819899999999998
65,-0.18065599999999998,-1.234983,-0.573462,-0.059209000000000005,0.9441430000000001,-0.324173,-1.6478830000000002,-0.602906,-0.719747,0.020894,-0.118154,0.073365
66,-0.267542,-1.264679,-0.640353,-0.079667,0.9535110000000001,-0.290637,-1.6834240000000003,-1.5915,-0.684546,0.041352999999999994,-0.127522,0.039827999999999995
67,-0.394104,-1.289564,-0.721892,-0.10656900000000001,0.960714,-0.256262,-1.449109,-2.9364169999999996,-0.752757,0.232958,0.101313,-0.017282
68,-0.556095,-1.303895,-0.815175,-0.139222,0.964593,-0.224002,-1.075107,-3.7951040000000003,-0.791773,0.555558,0.21439299999999997,-0.05354
69,-0.688333,-1.311072,-0.8866649999999999,-0.16314,0.966461,-0.19833699999999999,-0.660578,-2.509359,-0.34187199999999995,0.562264,0.205796,-0.127377
70,-0.724929,-1.317685,-0.9007799999999999,-0.166046,0.9681379999999999,-0.187447,-0.24145100000000003,-0.414008,0.370875,0.24307199999999998,-0.015119999999999998,-0.348075
71,-0.6929609999999999,-1.3320100000000001,-0.8652569999999999,-0.151095,0.971626,-0.18197,-0.36383699999999997,-0.207258,0.987188,-0.150953,-0.168433,-0.441687
72,-0.6699890000000001,-1.3528069999999999,-0.8263379999999999,-0.134295,0.976334,-0.169514,-0.532103,-1.172542,0.90286,-0.5115029999999999,-0.123597,-0.396923
73,-0.643291,-1.362576,-0.7772180000000001,-0.12399400000000001,0.9784,-0.165398,0.270466,-0.764807,0.540475,-0.498625,0.36329,0.036538
74,-0.5843010000000001,-1.357267,-0.715526,-0.11689100000000001,0.977289,-0.176751,0.566894,0.384549,0.302859,-0.21736799999999998,0.403433,0.692315
75,-0.527163,-1.35249,-0.675505,-0.108953,0.976266,-0.187169,0.487249,0.43290200000000006,0.268058,-0.400461,0.424476,0.261617
76,-0.5059819999999999,-1.353652,-0.6356189999999999,-0.10441500000000001,0.976517,-0.188443,-0.469125,-1.668221,0.397597,0.385284,1.5156399999999999,-1.428073
77,-0.557546,-1.361643,-0.664323,-0.109857,0.9782069999999999,-0.176183,0.770617,2.080419,-0.127316,0.351159,-0.198239,1.158758
78,-0.347236,-1.314268,-0.536429,-0.086341,0.967277,-0.238577,2.927454,4.1863779999999995,0.42236599999999996,-0.254266,-0.324409,0.7883819999999999
79,-0.21654600000000002,-1.280476,-0.468369,-0.061503999999999996,0.958152,-0.27957,1.316059,2.795888,0.29752399999999996,-0.305668,-0.08715,0.6104569999999999
80,-0.168303,-1.270749,-0.458466,-0.049509,0.9553229999999999,-0.291387,0.031402,1.192304,-0.100363,-0.283498,-0.127381,0.48021400000000003
81,-0.201631,-1.2860790000000002,-0.488651,-0.056251999999999996,0.959741,-0.275192,-1.3402209999999999,-0.93963,-0.42981499999999995,-0.141289,-0.097803,0.219925
82,-0.315897,-1.3247360000000001,-0.56596,-0.075673,0.96988,-0.231527,-2.5516360000000002,-2.478972,-0.44057700000000005,0.244984,0.198669,-0.5283760000000001
83,-0.46964399999999995,-1.370061,-0.6805859999999999,-0.090236,0.9799200000000001,-0.177799,-2.197074,-1.1848379999999998,-0.17163499999999998,0.325588,0.11976500000000001,-0.413739
84,-0.48311800000000005,-1.38135,-0.717389,-0.087479,0.982109,-0.16676,0.136812,1.9044159999999999,-0.05247,-0.055954,-0.321128,0.007901
85,-0.4488,-1.371098,-0.7100029999999999,-0.08607000000000001,0.9801270000000001,-0.178725,0.46358999999999995,0.8281350000000001,-0.24749699999999997,-0.158635,-0.45997,-0.063111
86,-0.481204,-1.368177,-0.742149,-0.09314,0.979543,-0.17838099999999998,-0.279708,-0.432104,-0.397421,-0.125396,-0.288106,-0.044748
87,-0.5450729999999999,-1.369368,-0.7973210000000001,-0.10373099999999999,0.9797819999999999,-0.171075,-0.266378,-0.393484,-0.476425,0.043275,-0.049225,-0.046926999999999996
88,-0.581683,-1.3664610000000001,-0.8352870000000001,-0.11148800000000002,0.979196,-0.169543,0.017757,0.287842,-0.343922,0.042716000000000004,-0.002222,-0.089322
89,-0.583559,-1.3631799999999998,-0.8501989999999999,-0.113574,0.978525,-0.172013,0.08970800000000001,0.8290139999999999,-0.143288,-0.053753999999999996,0.041311,-0.389572
90,-0.549958,-1.353916,-0.836838,-0.11246500000000001,0.9765739999999999,-0.183452,0.781359,1.120675,-0.15378499999999998,-0.065728,0.045475,-0.31238299999999997
91,-0.487954,-1.328225,-0.7972640000000001,-0.11260899999999999,0.970724,-0.21216500000000002,1.539536,1.144118,-0.279911,0.035476,0.179331,-0.390023
92,-0.42597700000000005,-1.294686,-0.7549779999999999,-0.112647,0.962123,-0.248252,1.9515959999999999,1.0369110000000001,-0.201051,0.167899,0.577702,-0.296975
93,-0.341677,-1.252557,-0.694493,-0.10484,0.949788,-0.294806,2.393939,1.6205690000000001,0.242466,0.172528,0.885127,-0.14736400000000002
94,-0.22425799999999999,-1.2087729999999999,-0.6148140000000001,-0.078761,0.935182,-0.345298,2.574965,2.146951,0.849806,0.130824,1.13394,0.089423
95,-0.144866,-1.1475629999999999,-0.546656,-0.059289999999999995,0.911766,-0.406408,3.720322,-0.076204,0.637397,0.026148,1.165352,0.433004
96,-0.09849400000000001,-1.083862,-0.487609,-0.046013,0.8837719999999999,-0.46565,2.396588,0.283123,1.1692790000000002,-0.19023900000000002,0.402392,0.618772
97,-0.010957,-1.068347,-0.421162,-0.0052770000000000004,0.8764059999999999,-0.48154399999999997,0.415433,1.746376,1.663107,-0.186999,-0.199267,0.539375
98,0.06421900000000001,-1.0654219999999999,-0.362451,0.031069,0.874993,-0.483137,-0.096087,0.704975,1.198328,-0.29138400000000003,-0.642175,0.420484
99,0.094684,-1.074035,-0.330341,0.045057,0.879131,-0.474445,-0.708624,-0.083473,0.434486,-0.400663,-0.730342,0.430454
100,0.100466,-1.0931540000000002,-0.324608,0.046105,0.8880809999999999,-0.45736800000000005,-1.068179,0.065977,-0.130102,-0.149758,-0.45433500000000004,0.41684
101,0.09568,-1.118752,-0.331355,0.04173,0.8995559999999999,-0.43480699999999994,-1.355192,0.068969,-0.362846,-0.217572,-0.520161,0.339837
102,0.07822899999999999,-1.148867,-0.351534,0.032004000000000005,0.912301,-0.40826799999999996,-1.5163719999999998,-0.008105,-0.661907,-0.22894899999999999,-0.622033,0.345249
103,0.045831000000000004,-1.1822620000000001,-0.386386,0.017356,0.925465,-0.378433,-1.6957849999999999,-0.011991,-0.866117,-0.17915999999999999,-0.711858,0.315826
104,-0.007417,-1.21759,-0.440758,-0.002566,0.938268,-0.34589699999999995,-1.7300400000000002,-0.299506,-1.129839,-0.011366,-0.639684,0.12643
105,-0.098878,-1.250082,-0.5192,-0.03112,0.94901,-0.313703,-1.676638,-1.3145850000000001,-1.208282,-0.039619999999999995,-0.6310479999999999,0.05355599999999999
106,-0.22449299999999997,-1.28064,-0.604186,-0.063689,0.958199,-0.27892100000000003,-1.717179,-2.697229,-0.9279879999999999,-0.081513,-0.351464,0.18048699999999998
107,-0.380373,-1.303479,-0.705142,-0.09806799999999999,0.964483,-0.24526399999999998,-1.291577,-3.036092,-1.001451,0.054321,0.2465,0.15984600000000002
108,-0.5273909999999999,-1.313604,-0.80005,-0.12801700000000002,0.967108,-0.21980300000000003,-0.902274,-2.358719,-0.771,0.18018699999999999,0.769983,-0.27520700000000003
109,-0.628711,-1.324785,-0.8783139999999999,-0.143224,0.969891,-0.196969,-1.079084,-0.668209,-0.33108899999999997,0.308248,0.39161999999999997,-0.587348
110,-0.7099340000000001,-1.341242,-0.953667,-0.148308,0.9737680000000001,-0.172569,-1.2392239999999999,-0.469341,-0.108136,0.317406,-0.060315999999999995,-0.35945900000000003
111,-0.785547,-1.3604,-1.023404,-0.147698,0.9779479999999999,-0.147654,-1.194396,-0.15648399999999998,0.202629,0.137155,-0.056623,-0.19759100000000002
112,-0.8413149999999999,-1.381197,-1.0829280000000001,-0.140504,0.98208,-0.125608,-1.0400399999999999,0.24256399999999997,0.44247700000000006,-0.244506,0.323569,-0.799303
113,-0.768413,-1.391283,-1.030373,-0.124091,0.983931,-0.12838,0.8783629999999999,1.342323,0.811254,0.036994,0.201906,0.191185
114,-0.595766,-1.372749,-0.8691610000000001,-0.11040699999999999,0.980453,-0.162857,1.6726869999999998,0.465063,0.524166,-0.574743,0.266938,0.9084770000000001
115,-0.5386,-1.362203,-0.79964,-0.10622000000000001,0.9783229999999999,-0.177765,0.23993299999999998,-1.61294,0.080986,-1.268002,0.401346,-0.185257
116,-0.620609,-1.361016,-0.836828,-0.1211,0.9780770000000001,-0.16941099999999998,-0.16147,-1.104096,-0.546311,-0.8076260000000001,1.563229,-1.644843
117,-0.669938,-1.36025,-0.891668,-0.129771,0.977917,-0.163821,0.513871,1.528002,-0.283252,1.4414930000000001,0.659458,0.490878
118,-0.460297,-1.3138450000000002,-0.746265,-0.11289,0.9671690000000001,-0.227683,3.04394,2.9665220000000003,0.353214,-0.124049,-0.155585,0.5218729999999999
119,-0.364263,-1.29285,-0.688199,-0.097751,0.961621,-0.256378,0.402738,1.676879,0.14413800000000002,-0.07699199999999999,-0.095761,0.6866
120,-0.35993800000000004,-1.297619,-0.696405,-0.095025,0.9629190000000001,-0.25250300000000003,-0.565504,-0.09679700000000001,-0.083611,0.0055780000000000005,-0.06843300000000001,0.481706
121,-0.419216,-1.317906,-0.741632,-0.101844,0.9681930000000001,-0.22853800000000002,-1.5525360000000001,-0.9780620000000001,-0.222904,0.14465999999999998,0.07672899999999999,-0.005761
122,-0.524574,-1.3508360000000001,-0.832456,-0.109279,0.9759059999999999,-0.188851,-2.0410220000000003,-0.623028,-0.140245,0.06525800000000001,0.104019,-0.359214
123,-0.615213,-1.3803940000000001,-0.9246030000000001,-0.109224,0.981928,-0.154554,-1.445448,0.373205,0.092306,-0.025952999999999997,0.002783,-0.268466
124,-0.659116,-1.394983,-0.9832040000000001,-0.107117,0.984585,-0.138271,-0.674977,0.684526,-0.10780999999999999,-0.041533999999999995,-0.20930100000000001,-0.146824
125,-0.723554,-1.398896,-1.0523360000000002,-0.113247,0.9852620000000001,-0.128198,-0.45425600000000005,-0.151143,-0.441687,0.037701,-0.280244,-0.237219
126,-0.790536,-1.396299,-1.116863,-0.12339100000000001,0.984814,-0.12212999999999999,-0.129918,0.014202000000000001,-0.5133409999999999,0.054939999999999996,-0.369656,-0.224214
127,-0.795039,-1.386213,-1.1304809999999998,-0.131025,0.9830129999999999,-0.128523,0.44959899999999997,0.6317729999999999,-0.410739,-0.12803900000000001,-0.347439,-0.135409
128,-0.78841,-1.374795,-1.132295,-0.138122,0.9808530000000001,-0.137292,0.294254,0.238213,-0.42413900000000004,0.00447,-0.191348,-0.059088999999999996
129,-0.805685,-1.3675,-1.149083,-0.14562999999999998,0.979406,-0.13983800000000002,0.08315,-0.102354,-0.32156,0.09111,-0.172949,-0.177072
130,-0.778737,-1.363951,-1.1372959999999999,-0.144249,0.978684,-0.14618399999999998,0.40082199999999996,1.453318,0.10915899999999999,0.21024299999999999,0.197433,-0.750484
131,-0.6610159999999999,-1.349961,-1.055662,-0.134475,0.975715,-0.172906,1.528709,1.8123209999999998,0.195626,0.05935599999999999,0.079049,-0.320304
132,-0.533866,-1.315703,-0.9473809999999999,-0.128404,0.96764,-0.217221,2.401245,0.637158,0.013083000000000001,0.022874000000000002,0.12116600000000001,-0.293079
133,-0.43991800000000003,-1.266491,-0.8553709999999999,-0.127601,0.9540549999999999,-0.2711,3.088717,0.21836799999999998,-0.015761,0.18943,0.709198,-0.29643600000000003
134,-0.34309,-1.204084,-0.76361,-0.12061500000000001,0.9335110000000001,-0.33765100000000003,3.4808980000000003,0.751255,0.380469,0.006631999999999999,0.867591,0.101765
135,-0.261422,-1.140698,-0.68494,-0.10776500000000001,0.908925,-0.40279299999999996,3.5830370000000005,0.14514200000000002,0.5507380000000001,-0.176171,0.721111,0.662467
136,-0.212821,-1.070647,-0.626839,-0.10129099999999999,0.877511,-0.468737,3.5920900000000002,-0.316806,0.447776,-0.252316,0.307136,0.901186
137,-0.184763,-1.026342,-0.594612,-0.09515499999999999,0.85541,-0.509135,1.43061,0.242127,0.274933,-0.181975,-0.264681,0.6104689999999999
138,-0.16233399999999998,-1.016931,-0.5776859999999999,-0.08501,0.850498,-0.519063,0.251226,0.439856,0.334808,-0.06966900000000001,-0.15075999999999998,0.656087
139,-0.147068,-1.0181959999999999,-0.567656,-0.076918,0.8511629999999999,-0.519235,-0.25644,0.268939,0.360323,-0.225313,0.016025,0.487451
140,-0.111103,-1.038894,-0.545084,-0.056232000000000004,0.861844,-0.504046,-1.337273,1.19442,0.82481,-0.154064,-0.17268,0.300265
141,-0.066461,-1.07231,-0.525005,-0.031751,0.878307,-0.477041,-1.7360790000000001,1.385694,0.49063,-0.172777,-0.24296199999999998,0.318639
142,-0.037766,-1.108486,-0.5197430000000001,-0.01684,0.8950239999999999,-0.44569899999999996,-1.8188,1.068123,0.059966,-0.21848099999999998,-0.30406700000000003,0.34052
143,-0.03333,-1.145009,-0.5314909999999999,-0.013763999999999998,0.9107139999999999,-0.412808,-1.831279,0.529575,-0.315445,-0.26005500000000004,-0.440896,0.263974
144,-0.054176999999999996,-1.181722,-0.555597,-0.020541,0.9252610000000001,-0.378775,-1.9003580000000002,-0.239907,-0.433515,-0.23156500000000002,-0.483137,0.2255
145,-0.10481900000000001,-1.2223950000000001,-0.5928899999999999,-0.035719,0.9399200000000001,-0.339521,-2.204861,-1.176842,-0.562627,-0.161012,-0.550195,0.170561
146,-0.20625100000000002,-1.265491,-0.659139,-0.06155700000000001,0.9537549999999999,-0.294213,-2.248309,-2.360073,-0.863722,-0.12211300000000001,-0.664678,0.132927
147,-0.377228,-1.293757,-0.7769560000000001,-0.100745,0.9618700000000001,-0.254277,-1.512382,-3.152108,-1.367108,-0.112435,-0.529374,0.023152000000000002
148,-0.54647,-1.304057,-0.888963,-0.136979,0.964636,-0.22519899999999998,-1.129541,-2.620967,-0.7925479999999999,0.269776,0.34463,-0.303152
149,-0.660792,-1.315779,-0.9686040000000001,-0.154823,0.967659,-0.19916199999999998,-0.880625,-1.643618,-0.598713,0.42922200000000005,0.288689,-0.8180649999999999
150,-0.765624,-1.316257,-1.0366549999999999,-0.174493,0.9677790000000001,-0.181534,-0.48299200000000003,-2.193602,-0.60164,0.42647700000000005,0.086405,-0.59465
151,-0.857489,-1.317351,-1.0855139999999999,-0.189611,0.9680540000000001,-0.164069,-0.48285500000000003,-2.0331599999999996,-0.23224,0.289464,-0.16322899999999999,-0.252374
152,-0.9024840000000001,-1.32342,-1.10436,-0.192183,0.969558,-0.151731,-0.29268099999999997,-0.9494540000000001,0.32103899999999996,-0.20334000000000002,0.276276,-0.415896
153,-0.8633879999999999,-1.328611,-1.0584959999999999,-0.182278,0.970816,-0.155853,0.862661,-0.062638,0.524525,-0.511112,0.591943,-0.621857
154,-0.751159,-1.304712,-0.948466,-0.179463,0.964808,-0.192193,2.076996,0.618201,-0.026545,-0.777629,0.680944,1.179025
155,-0.656836,-1.2859120000000002,-0.8686389999999999,-0.17161099999999999,0.959694,-0.22256900000000002,0.755674,0.379579,0.319181,-0.8015479999999999,0.187004,-0.046611
156,-0.7009920000000001,-1.291886,-0.884295,-0.177567,0.961356,-0.210391,-0.973001,-1.7190759999999998,-0.296955,-0.397018,1.740213,-0.787091
157,-0.7502979999999999,-1.291058,-0.944154,-0.18826400000000001,0.9611280000000001,-0.201966,0.674532,1.852453,-0.57417,0.894868,0.17904,0.315782
158,-0.592467,-1.252302,-0.835449,-0.174859,0.949708,-0.259768,2.464424,1.809207,0.43080799999999997,0.11109200000000001,-0.100632,0.922549
159,-0.520486,-1.236345,-0.7851520000000001,-0.16324,0.9445899999999999,-0.284783,0.481959,1.349084,-0.000124,0.16363699999999998,-0.06837,0.79699
160,-0.512425,-1.2389459999999999,-0.795416,-0.159734,0.945441,-0.283948,-0.684375,0.32419699999999996,-0.031527,0.140706,0.011392,0.519925
161,-0.563765,-1.263152,-0.844417,-0.16181600000000002,0.9530489999999999,-0.255954,-1.700319,-0.261152,-0.08807999999999999,0.236065,0.096526,-0.10429100000000001
162,-0.6181840000000001,-1.2867680000000001,-0.904974,-0.162406,0.9599340000000001,-0.228365,-1.233761,0.33358699999999997,-0.038581,0.189475,-0.023181999999999998,-0.286665
163,-0.657115,-1.3014139999999998,-0.9504739999999999,-0.16256500000000002,0.963936,-0.210715,-0.8573930000000001,0.17291199999999998,-0.143637,0.08329600000000001,-0.06174400000000001,-0.322534
164,-0.709547,-1.309952,-1.005192,-0.168017,0.966173,-0.195655,-0.753253,-0.107925,-0.33269299999999996,0.115817,-0.175599,-0.137628
165,-0.759944,-1.315221,-1.056499,-0.17415,0.967518,-0.183249,-0.529349,0.131909,-0.29725300000000004,0.155397,-0.256733,-0.166955
166,-0.779801,-1.3164719999999999,-1.0850739999999999,-0.176903,0.967834,-0.178894,-0.166542,0.49133999999999994,-0.187289,0.086739,-0.338363,-0.086136
167,-0.778404,-1.3145719999999999,-1.096166,-0.17794400000000002,0.967354,-0.18045,-0.004889,0.651482,-0.148978,0.021129,-0.321846,-0.11770599999999999
168,-0.7826569999999999,-1.3143770000000001,-1.110762,-0.178842,0.967304,-0.17982599999999999,-0.20884899999999998,0.389006,-0.134043,0.042138999999999996,-0.27460100000000004,-0.125365
169,-0.798327,-1.3156450000000002,-1.1339700000000001,-0.18076,0.967625,-0.176145,-0.245108,0.348828,-0.178041,0.125065,-0.21728899999999998,-0.04883
170,-0.8064060000000001,-1.315596,-1.151118,-0.18221099999999998,0.967613,-0.17471099999999998,-0.074089,0.47159300000000004,-0.124661,0.20046,-0.125099,-0.082521
171,-0.791092,-1.313741,-1.1476959999999998,-0.18079,0.967143,-0.178743,0.221214,0.771582,-0.009751000000000001,0.136677,0.006765,-0.46214099999999997
172,-0.7387020000000001,-1.308054,-1.117422,-0.17488299999999998,0.9656809999999999,-0.192029,0.635563,1.469481,0.127913,0.130831,0.23703200000000002,-0.44703999999999994
173,-0.644001,-1.2967600000000001,-1.060991,-0.16247999999999999,0.962686,-0.216414,1.0636,2.161864,0.300931,0.32905999999999996,0.699042,-0.342699
174,-0.531385,-1.2750190000000001,-0.971131,-0.147703,0.956576,-0.251289,1.937846,0.636513,0.577116,0.43658199999999997,0.809446,-0.367836
175,-0.408573,-1.246518,-0.855081,-0.126589,0.947881,-0.292398,2.085889,0.919168,1.157832,0.30894699999999997,0.6681159999999999,0.090295
176,-0.279092,-1.216491,-0.737516,-0.095575,0.9378879999999999,-0.333513,2.101036,0.664881,1.332384,0.10288399999999999,0.552987,0.312013
177,-0.19824,-1.179678,-0.648475,-0.07507899999999999,0.9244829999999999,-0.373755,2.092246,-0.384322,1.0505879999999999,-0.118875,0.273911,0.477362
178,-0.14262,-1.1508770000000001,-0.5847439999999999,-0.057947000000000005,0.913122,-0.403547,1.360608,0.015037,0.915711,-0.207159,0.082514,0.752699
179,-0.115276,-1.128853,-0.549259,-0.049194,0.9039219999999999,-0.424857,1.122714,-0.724587,0.404387,-0.441391,0.055352,0.6562720000000001
180,-0.117274,-1.1228770000000001,-0.525054,-0.050674000000000004,0.90135,-0.43011499999999997,-0.385356,-1.0305030000000002,0.691211,-0.215531,-0.072508,0.526062
181,-0.086216,-1.151231,-0.487256,-0.035078,0.913266,-0.40585,-1.673412,0.393821,0.9955139999999999,-0.203982,-0.240704,0.35136100000000003
182,-0.037478,-1.187444,-0.450068,-0.014015000000000001,0.927416,-0.373768,-1.75911,0.716028,0.680445,-0.453255,-0.224703,0.297153
183,-0.013003,-1.222709,-0.433104,-0.004435000000000001,0.9400270000000001,-0.34107,-1.7566400000000002,0.267515,0.15440399999999999,-0.470495,-0.35134299999999996,0.20595300000000002
184,-0.018664,-1.2573370000000001,-0.441413,-0.005755,0.9512719999999999,-0.308296,-1.695091,0.021806,-0.257185,-0.39881700000000003,-0.45025,0.112098
185,-0.055536,-1.2891270000000001,-0.476179,-0.015429,0.960593,-0.27752899999999997,-1.555433,-0.297073,-0.5538350000000001,-0.285414,-0.39124200000000003,0.192903
186,-0.124553,-1.316973,-0.538745,-0.031195,0.967959,-0.24915900000000002,-1.396336,-0.505466,-0.791738,-0.22020900000000002,-0.38341,0.181273
187,-0.23025500000000002,-1.338589,-0.633434,-0.052520000000000004,0.973161,-0.22404899999999997,-1.185778,-0.8887709999999999,-1.022649,-0.13105899999999998,-0.403215,0.125172
188,-0.382285,-1.349999,-0.755417,-0.081697,0.975723,-0.203194,-0.753868,-2.2681299999999998,-1.173825,-0.049803,-0.323654,0.001443
189,-0.5520510000000001,-1.350519,-0.8650709999999999,-0.114587,0.9758370000000001,-0.186038,-0.593156,-3.360262,-0.9907729999999999,0.015893,-0.179984,0.055514
190,-0.718878,-1.356932,-0.9828379999999999,-0.139764,0.977218,-0.15971400000000002,-1.270358,-1.857954,-0.73785,0.22509099999999999,0.211854,-0.19023099999999998
191,-0.864189,-1.3639569999999999,-1.1067069999999999,-0.156191,0.978685,-0.133332,-1.002416,-0.989052,-0.613179,0.423785,0.098677,-0.59207
192,-0.9719709999999999,-1.36372,-1.1899110000000002,-0.16982,0.9786360000000001,-0.115888,-0.5017159999999999,-1.6733470000000001,-0.41759300000000005,0.48689799999999994,0.057909,-0.472567
193,-1.053607,-1.3629129999999998,-1.232,-0.179391,0.9784700000000001,-0.10204400000000001,-0.259763,-1.9701950000000001,-0.185854,0.43572299999999997,-0.158203,-0.17891600000000002
194,-1.083174,-1.3674309999999998,-1.239001,-0.178422,0.979392,-0.094624,-0.113285,-0.631764,0.37427,0.148149,-0.11849200000000001,-0.188076
195,-1.056618,-1.379436,-1.213591,-0.165598,0.9817459999999999,-0.093539,0.014615000000000001,0.427295,0.751957,0.008905,-0.094051,-0.352796
196,-0.9119799999999999,-1.376997,-1.0888229999999999,-0.15228,0.9812799999999999,-0.117896,1.767248,1.3624889999999998,0.328235,-0.117221,-0.036196,0.494651
197,-0.777211,-1.359345,-0.948766,-0.14718399999999998,0.977727,-0.149614,1.191853,-1.557575,0.330094,-0.8026449999999999,0.502116,0.012453
198,-0.8327209999999999,-1.365551,-0.933509,-0.150766,0.9790110000000001,-0.137132,-0.833356,-4.029244,0.278522,-0.847266,1.520684,-0.515899
199,-0.908125,-1.378643,-1.018617,-0.150549,0.9815950000000001,-0.117487,-0.7297680000000001,2.333455,-0.029077999999999996,0.8507129999999999,1.135394,-2.081106
200,-0.67656,-1.358114,-0.8532799999999999,-0.132159,0.977468,-0.16458399999999998,3.5221949999999995,4.421311,0.5673090000000001,0.07098600000000001,-0.412191,1.3659540000000001
201,-0.400937,-1.304439,-0.660916,-0.102728,0.964736,-0.24234099999999997,2.616144,4.064652,0.501617,-0.247507,-0.46736099999999997,0.8771370000000001
202,-0.310337,-1.288299,-0.623551,-0.085125,0.960362,-0.265436,0.422835,1.810211,0.085398,-0.14558800000000002,-0.11473499999999999,0.737879
203,-0.293661,-1.284149,-0.619812,-0.08184,0.959197,-0.270631,0.063868,0.128921,-0.064506,-0.06313400000000001,-0.177902,0.226365
204,-0.330361,-1.2912629999999998,-0.646543,-0.089499,0.961184,-0.260984,-1.0012,-1.200906,-0.38216300000000003,-0.040872000000000006,-0.038333,-0.318529
205,-0.50348,-1.332058,-0.759934,-0.114093,0.9716370000000001,-0.20713,-3.093252,-4.117415,-0.48704200000000003,-0.039777,0.091336,-0.36712
206,-0.757209,-1.3756329999999999,-0.9491280000000001,-0.133204,0.981016,-0.140934,-2.372585,-1.9336,-0.312823,0.30285100000000004,0.08203300000000001,-0.458309
207,-0.764707,-1.366976,-0.9821559999999999,-0.140131,0.979301,-0.146053,1.187422,1.701858,-0.652605,0.294885,-0.146049,0.116451
208,-0.747129,-1.345512,-0.973852,-0.151794,0.9747309999999999,-0.16388,0.428101,-0.015309999999999999,-0.541409,0.094848,-0.16426,-0.284408
209,-0.7820520000000001,-1.3447930000000001,-1.008735,-0.157917,0.97457,-0.158977,-0.445669,0.129994,-0.156686,0.031529,0.12387999999999999,-0.540623
210,-0.760051,-1.340365,-1.007759,-0.157354,0.973568,-0.16554000000000002,0.585448,1.424985,-0.155416,0.030889,0.178089,-0.466708
211,-0.6952189999999999,-1.324959,-0.9640549999999999,-0.155888,0.969934,-0.186883,1.106531,0.858381,-0.105117,-0.024730000000000002,0.156058,-0.821341
212,-0.60775,-1.2988979999999999,-0.893056,-0.153353,0.9632629999999999,-0.220469,1.9717060000000002,1.138492,-0.041749,0.0468,0.265482,-0.427374
213,-0.488292,-1.254574,-0.7972,-0.145885,0.950417,-0.274634,2.9205200000000002,1.293599,0.040524,0.042842,0.300377,-0.23697800000000002
214,-0.389829,-1.197433,-0.713831,-0.13861500000000002,0.931106,-0.337382,3.269466,0.8523540000000001,0.05955,-0.09836900000000001,0.270646,0.340144
215,-0.32344,-1.133358,-0.653092,-0.134639,0.90584,-0.40165300000000004,3.462053,0.469369,0.030407999999999998,-0.16806500000000002,0.369291,0.740947
216,-0.280221,-1.066403,-0.603684,-0.133658,0.875468,-0.464425,3.45539,-0.523505,0.04552,-0.084207,0.424505,0.9196559999999999
217,-0.276549,-1.021765,-0.5798300000000001,-0.142487,0.85303,-0.502031,1.411433,-0.71877,0.032562,0.208146,-0.148105,0.694246
218,-0.268233,-1.015339,-0.562742,-0.139757,0.8496600000000001,-0.508474,0.111522,-0.09725299999999999,0.510863,0.170748,-0.11574200000000001,0.470937
219,-0.251064,-1.018775,-0.546003,-0.130281,0.851466,-0.5079670000000001,-0.131858,0.234292,0.394438,0.035677,-0.026363,0.508425
220,-0.244727,-1.024879,-0.540424,-0.125798,0.854651,-0.503731,-0.3748,0.039125,0.128072,-0.353587,-0.17749700000000002,0.35279099999999997
221,-0.241614,-1.0415299999999998,-0.5404680000000001,-0.120807,0.8631780000000001,-0.490233,-1.098701,0.227775,0.19861800000000002,-0.284314,-0.233936,0.304198
222,-0.24242600000000003,-1.071808,-0.549059,-0.11487699999999999,0.878067,-0.46454300000000004,-1.718747,0.34530500000000003,0.116156,-0.284995,-0.254639,0.300938
223,-0.255417,-1.108916,-0.5675020000000001,-0.11258800000000001,0.895216,-0.431173,-2.004755,-0.0048579999999999995,0.019535,-0.333152,-0.341978,0.221685
224,-0.288402,-1.150088,-0.594644,-0.116159,0.9128,-0.391538,-2.2229360000000002,-0.663243,-0.046307,-0.32359899999999997,-0.402592,0.161832
225,-0.351852,-1.1941389999999998,-0.6416069999999999,-0.12676199999999999,0.929899,-0.34527800000000003,-2.452845,-1.2187729999999999,-0.24909499999999998,-0.26693,-0.49854899999999996,0.180773
226,-0.45711999999999997,-1.235515,-0.718308,-0.145223,0.944318,-0.295249,-2.353478,-1.9508619999999999,-0.540155,-0.18873099999999998,-0.47117299999999995,0.14446199999999998
227,-0.607075,-1.262569,-0.83205,-0.173061,0.952873,-0.24916100000000002,-1.946532,-2.110062,-1.040241,0.286159,0.143242,0.029175
228,-0.7462489999999999,-1.2881,-0.954263,-0.18937,0.960307,-0.20481,-2.280815,-0.361113,-0.16033,0.7064600000000001,0.559682,-0.731241
229,-0.8479709999999999,-1.312669,-1.051553,-0.191433,0.9668700000000001,-0.16885899999999998,-1.487266,-0.8158310000000001,-0.087974,0.673504,0.365695,-1.102854
230,-0.940693,-1.326476,-1.1195709999999999,-0.195439,0.970302,-0.142529,-0.928409,-1.3491790000000001,0.137735,0.8791100000000001,0.484059,-0.983402
231,-0.926481,-1.336108,-1.1061450000000002,-0.18591300000000002,0.9725870000000001,-0.13967100000000002,0.785018,1.079005,0.6774979999999999,0.8225399999999999,0.226662,-0.162956
232,-0.711087,-1.315911,-0.921689,-0.164554,0.967692,-0.191026,2.6830060000000002,1.620837,0.994504,-0.52113,0.008687,0.70276
233,-0.611509,-1.311232,-0.801617,-0.147346,0.9665020000000001,-0.210144,-0.313078,-3.606889,1.032618,-1.4825059999999999,1.015432,-0.249237
234,-0.752482,-1.326642,-0.8271270000000001,-0.165211,0.970342,-0.17646199999999998,-0.48143500000000006,-3.819922,-0.423203,-0.8116869999999999,1.052348,0.596155
235,-0.7621,-1.320242,-0.8477049999999999,-0.171184,0.968775,-0.17935299999999998,0.32821500000000003,0.948544,-0.133102,0.063885,-0.041361,0.138902
236,-0.73339,-1.3160040000000002,-0.8329780000000001,-0.168712,0.967716,-0.18724100000000002,0.10270499999999999,1.005206,0.011597,0.150371,0.077908,0.539628
237,-0.7464069999999999,-1.326343,-0.868842,-0.164332,0.9702700000000001,-0.177674,-1.425037,0.5046689999999999,-0.031548,-0.018697,1.017874,-0.374175
238,-0.878619,-1.350055,-1.000138,-0.16855699999999998,0.975735,-0.139734,-1.6480299999999999,-0.082146,-0.14238,0.34880900000000004,0.354495,-0.058432000000000005
239,-0.916875,-1.362431,-1.050065,-0.16418,0.9783700000000001,-0.125829,-0.44436000000000003,0.7847350000000001,0.20888400000000001,0.161983,-0.213798,0.099142
240,-0.9378790000000001,-1.364584,-1.083699,-0.165088,0.978814,-0.12110699999999999,-0.383266,0.348702,-0.292195,-0.035276,-0.459755,-0.10309000000000001
241,-0.999274,-1.3645610000000001,-1.1450559999999999,-0.172227,0.978809,-0.11076199999999999,-0.5529930000000001,-0.273381,-0.42077,0.101136,-0.37396599999999997,-0.299532
242,-1.058638,-1.35941,-1.200225,-0.182887,0.977741,-0.102818,-0.138024,-0.14341199999999998,-0.515246,0.201472,-0.30998600000000004,-0.359111
243,-1.059498,-1.350982,-1.202858,-0.190155,0.975938,-0.106689,0.279095,0.06837,-0.29255,-0.029618000000000002,-0.369081,-0.31243899999999997
244,-1.0545309999999999,-1.344914,-1.1973719999999999,-0.194769,0.9745969999999999,-0.110554,0.152894,0.049435,-0.24320100000000003,-0.131753,-0.393435,0.040089
245,-1.058484,-1.337759,-1.199281,-0.20127799999999998,0.9729700000000001,-0.11319800000000001,0.173023,-0.346407,-0.37074,0.010925,-0.246346,-0.041755
246,-1.076192,-1.329766,-1.20765,-0.21009,0.971093,-0.11330499999999999,0.072853,-0.319429,-0.370406,0.20783200000000002,-0.019691999999999998,-0.411292
247,-1.053129,-1.3228719999999998,-1.194321,-0.213233,0.969424,-0.12143,0.528092,1.003352,-0.159549,0.152701,0.08476,-0.488724
248,-0.984266,-1.310155,-1.144283,-0.21462399999999998,0.966225,-0.142627,1.0109350000000001,0.802859,-0.256333,0.009805,0.19933299999999998,-0.30895700000000004
249,-0.914516,-1.290559,-1.086022,-0.219123,0.96099,-0.16876,1.387964,0.759482,-0.391444,0.174842,0.414254,-0.352785
250,-0.801633,-1.25958,-0.9925799999999999,-0.220011,0.9519620000000001,-0.212981,2.497319,1.443815,-0.128199,0.5280560000000001,1.1011389999999999,-0.545716
251,-0.64431,-1.213993,-0.851792,-0.209792,0.937018,-0.279252,3.56552,0.892331,0.461082,0.379027,1.228219,-0.314666
252,-0.513988,-1.159347,-0.719675,-0.196629,0.916542,-0.34825900000000004,3.50429,0.283482,0.657987,-0.051814,0.701332,0.41120200000000007
253,-0.41303,-1.1150229999999999,-0.624272,-0.176672,0.8979209999999999,-0.40314099999999997,2.503937,0.982042,0.7911100000000001,-0.148951,0.25712399999999996,0.8664440000000001
254,-0.344839,-1.075502,-0.5660890000000001,-0.160669,0.8798290000000001,-0.447309,2.2408509999999997,0.41157299999999997,0.357373,-0.056708,0.041694999999999996,0.423734
255,-0.31823,-1.0565790000000002,-0.52862,-0.153894,0.8706780000000001,-0.467156,0.238556,-0.24489,0.82386,0.048104,0.14371099999999998,0.264413
256,-0.28329499999999996,-1.071648,-0.491597,-0.1338,0.8779899999999999,-0.459596,-0.49673100000000003,0.268779,1.1428049999999998,0.399013,-0.031784,0.333879
257,-0.241492,-1.084649,-0.451063,-0.11173599999999999,0.8841389999999999,-0.453664,-0.389426,0.29335900000000004,1.030292,0.03793,-0.177474,0.323949
258,-0.212479,-1.100301,-0.42070799999999997,-0.095599,0.891344,-0.44313100000000005,-0.77266,-0.02593,0.756696,-0.107892,-0.23172199999999998,0.26731900000000003
259,-0.202754,-1.123478,-0.401833,-0.087101,0.90161,-0.423687,-1.1990049999999999,-0.585141,0.583549,-0.14765599999999998,-0.205504,0.261226
260,-0.21621100000000001,-1.1512069999999999,-0.393351,-0.087396,0.913256,-0.39789800000000003,-1.355212,-1.3646120000000002,0.375154,-0.121726,-0.256243,0.242213
261,-0.255701,-1.177654,-0.398308,-0.09689199999999999,0.92371,-0.370635,-1.2559719999999999,-1.869868,0.101962,-0.116074,-0.332538,0.248152
262,-0.31099299999999996,-1.2015870000000002,-0.420713,-0.110429,0.9326129999999999,-0.343564,-1.316568,-1.597005,-0.149844,-0.071883,-0.400554,0.230893
263,-0.380734,-1.227255,-0.462829,-0.12516300000000002,0.9415680000000001,-0.312702,-1.537536,-1.545527,-0.310618,-0.004536,-0.367471,0.129428
264,-0.478387,-1.253214,-0.523879,-0.143751,0.949993,-0.277212,-1.5569950000000001,-2.404773,-0.40152,-0.125124,-0.374233,0.048116
265,-0.610627,-1.266135,-0.594141,-0.171994,0.9539489999999999,-0.245758,-0.745246,-3.7006550000000002,-0.7114510000000001,-0.222308,-0.38813800000000004,-0.022964
266,-0.729049,-1.263576,-0.6418020000000001,-0.201451,0.9531780000000001,-0.225537,-0.28768,-3.338544,-0.554895,-0.214168,-0.025032,-0.324008
267,-0.8181229999999999,-1.261413,-0.678584,-0.222219,0.952522,-0.20813099999999998,-0.17465799999999998,-2.593439,-0.505922,-0.05842000000000001,0.300683,-0.752822
268,-0.8933760000000001,-1.248558,-0.698391,-0.24675999999999998,0.9485290000000001,-0.198494,0.360356,-2.92259,-0.7079300000000001,0.303935,0.169651,-0.731132
269,-0.9548700000000001,-1.233328,-0.699253,-0.270253,0.9435959999999999,-0.191278,0.44591800000000004,-2.979884,-0.573731,0.46268100000000006,0.023537,-0.47760600000000003
270,-0.998334,-1.223763,-0.694404,-0.285883,0.940386,-0.18423599999999998,0.274575,-2.0178580000000004,-0.179851,0.353952,-0.080294,-0.39629899999999996
271,-1.0092079999999999,-1.221574,-0.6756810000000001,-0.289611,0.9396389999999999,-0.182213,0.411574,-1.071747,0.196976,0.041594,-0.15848099999999998,-0.454079
272,-0.992568,-1.218703,-0.639356,-0.288796,0.9386530000000001,-0.18848,0.703666,-0.9118069999999999,0.173174,-0.222023,0.029685000000000003,-0.8762790000000001
273,-0.9901209999999999,-1.212048,-0.610247,-0.29355,0.9363370000000001,-0.192609,0.666161,-1.552561,-0.19587100000000002,-0.123457,0.5352359999999999,-0.612949
274,-0.9520930000000001,-1.187219,-0.5463399999999999,-0.304865,0.9273319999999999,-0.21705,2.3322979999999998,-0.096291,-0.31749099999999997,0.15333,0.762182,1.8155599999999998
275,-0.830528,-1.169073,-0.463404,-0.288672,0.9203879999999999,-0.263726,0.963432,2.946153,0.597334,-0.9063049999999999,1.7650970000000001,0.745034
276,-0.8356399999999999,-1.191103,-0.477963,-0.274908,0.9287780000000001,-0.24858400000000003,-2.507288,-2.676516,0.4457,-0.77215,1.08114,-1.2618530000000001
277,-0.844564,-1.192316,-0.498174,-0.276273,0.929227,-0.245373,1.559113,2.516709,-0.149983,0.138913,-0.548917,0.365048
278,-0.735885,-1.1625780000000001,-0.416704,-0.266465,0.9178299999999999,-0.29425,1.8144790000000002,0.9318930000000001,0.08243099999999999,0.161545,0.013659000000000001,0.926636
279,-0.7118399999999999,-1.147846,-0.397011,-0.268117,0.911882,-0.310777,0.323849,0.253727,-0.326627,0.225408,0.15775899999999998,1.2907870000000001
280,-0.733594,-1.151529,-0.41633000000000003,-0.272564,0.9133870000000001,-0.302375,-0.8304370000000001,-0.893782,-0.073642,-0.033741,0.582264,0.712043
281,-0.8444360000000001,-1.179905,-0.47844,-0.284841,0.9245700000000001,-0.253048,-2.601858,-3.724743,0.26051199999999997,-0.005884,0.472296,0.157269
282,-1.079153,-1.224513,-0.6254770000000001,-0.299201,0.940641,-0.160223,-3.7098519999999997,-5.425668,0.341478,-0.198739,0.139605,-0.37241599999999997
283,-1.355902,-1.252921,-0.793327,-0.305356,0.949902,-0.066649,-2.346148,-5.50766,0.216513,-0.5028560000000001,0.034046,-0.308138
284,-1.448333,-1.250934,-0.848009,-0.312076,0.9492790000000001,-0.03841,-0.20083800000000002,-0.010456,-0.405798,0.011691,-0.033309,-0.254299
285,-1.4483549999999998,-1.242912,-0.867351,-0.319625,0.9467260000000001,-0.039332,-0.399007,1.049982,-0.356198,0.503875,-0.097361,0.043498
286,-1.4732,-1.241193,-0.903975,-0.322123,0.9461709999999999,-0.031538,-0.670955,0.001284,-0.00424,0.57992,-0.190433,0.10029400000000001
287,-1.5460129999999999,-1.244154,-0.965532,-0.320761,0.947125,-0.007951,-1.228513,-0.974101,0.11062000000000001,0.16705899999999999,-0.23551599999999998,0.146623
288,-1.66117,-1.244346,-1.065504,-0.319368,0.9471870000000001,0.028941,-1.80014,-1.0440639999999999,-0.012925,0.079179,-0.12809500000000001,0.077916
289,-1.7891110000000001,-1.2332299999999998,-1.180504,-0.323324,0.9435629999999999,0.07173,-1.943525,-0.816153,-0.406256,0.055548,-0.052969,0.011186
290,-1.8838689999999998,-1.214185,-1.26924,-0.33212600000000003,0.9370850000000001,0.10751500000000001,-1.526363,-0.48147399999999996,-0.546912,0.32178,0.059527,-0.305635
291,-1.9486299999999999,-1.1956639999999998,-1.325548,-0.340546,0.930459,0.135164,-1.1126280000000002,-0.754614,-0.531922,0.396378,0.205542,-0.390367
292,-2.00141,-1.179073,-1.357628,-0.34692199999999995,0.9242530000000001,0.159364,-0.745557,-1.405902,-0.48258999999999996,0.406996,0.338977,-0.546281
293,-2.055202,-1.167481,-1.377673,-0.34731,0.9197649999999999,0.182763,-0.510166,-1.992415,-0.26761799999999997,0.12083900000000002,0.273442,-0.932351
294,-2.099507,-1.160776,-1.3750879999999999,-0.34419299999999997,0.917113,0.201072,0.209763,-2.470333,-0.45639300000000005,0.05146799999999999,0.254289,-0.908165
295,-2.0919470000000002,-1.157039,-1.320527,-0.348672,0.915617,0.200169,1.170868,-1.695584,-0.8298909999999999,0.37008,0.37269800000000003,-0.6813239999999999
296,-2.032885,-1.154983,-1.232521,-0.361564,0.9147879999999999,0.180078,1.680553,-0.9171469999999999,-0.935219,0.46098999999999996,0.421958,-0.5459069999999999
297,-1.956651,-1.1540540000000001,-1.119025,-0.37501599999999996,0.9144120000000001,0.152338,2.427111,-1.787549,-1.0314379999999999,0.476533,0.478242,-0.6199279999999999
298,-1.8475009999999998,-1.156658,-0.9435450000000001,-0.387087,0.9154629999999999,0.109929,4.060783,-2.877847,-0.9855149999999999,0.5206930000000001,0.957568,-0.46597700000000003
299,-1.685116,-1.15615,-0.700084,-0.400229,0.915259,0.045955,5.0557870000000005,-2.97397,-0.9869870000000001,0.8309540000000001,1.323633,0.453679
300,-1.519418,-1.146498,-0.45686800000000005,-0.411132,0.911328,-0.021141999999999998,4.811166,-2.708031,-0.414333,1.055037,1.0226629999999999,0.920342
301,-1.362611,-1.129731,-0.23165,-0.417679,0.9042979999999999,-0.088233,4.581774,-2.175791,-0.11644700000000001,0.827881,0.23986799999999997,1.121909
302,-1.241079,-1.112112,-0.060948,-0.41891300000000004,0.8966360000000001,-0.14335599999999998,3.266332,-1.2801690000000001,0.293028,0.527968,0.385972,0.786254
303,-1.169724,-1.106066,0.036298000000000004,-0.41261000000000003,0.893943,-0.17497100000000002,1.5116020000000001,-0.40718499999999996,0.61721,0.468213,0.42872,0.651762
304,-1.1089360000000001,-1.115432,0.102399,-0.393706,0.898101,-0.195974,1.078561,0.281953,1.282009,0.235839,0.517518,0.356451
305,-1.031627,-1.130416,0.181974,-0.365804,0.90459,-0.218861,1.200577,0.196155,1.586347,0.149312,0.29894699999999996,0.372807
306,-0.945672,-1.144132,0.273181,-0.335572,0.910351,-0.242173,1.209757,0.128903,1.613202,0.10228,0.078067,0.478013
307,-0.8715950000000001,-1.156886,0.361834,-0.307816,0.9155549999999999,-0.25885,0.8538389999999999,-0.7051189999999999,1.63315,0.21695,0.065249,0.633179
308,-0.830297,-1.1710049999999999,0.441353,-0.287296,0.921142,-0.26259,0.68986,-2.179464,1.5099799999999999,0.401645,0.087662,0.598299
309,-0.817183,-1.1827159999999999,0.519116,-0.275941,0.925637,-0.25893499999999997,0.632336,-3.158056,1.460625,0.33520700000000003,0.083625,0.529092
310,-0.803349,-1.1991129999999999,0.5967100000000001,-0.261373,0.931717,-0.252154,0.41188100000000005,-2.691295,1.6091469999999999,0.090277,0.08404500000000001,0.432696
311,-0.788618,-1.216213,0.670253,-0.246292,0.9377909999999999,-0.244711,0.297072,-2.772223,1.434328,-0.102585,-0.039766,0.404302
312,-0.785151,-1.2291450000000002,0.737476,-0.236848,0.942203,-0.236965,0.398007,-3.126262,1.1727049999999999,-0.077407,-0.12453,0.389309
313,-0.7858149999999999,-1.2378149999999999,0.804185,-0.231217,0.9450719999999999,-0.231025,0.528442,-3.1731540000000003,1.064717,0.018846,-0.079762,0.357077
314,-0.7774300000000001,-1.2412969999999999,0.882971,-0.226963,0.946204,-0.230609,0.9571459999999999,-3.499366,1.018991,0.039432999999999996,-0.014044999999999998,0.34060999999999997
315,-0.754236,-1.238449,0.9815020000000001,-0.223398,0.9452790000000001,-0.23777399999999999,1.3465989999999999,-3.4465730000000003,1.065441,-0.14884,-0.155744,0.307247
316,-0.724748,-1.233686,1.086149,-0.219273,0.9437139999999999,-0.247625,1.248944,-3.5019129999999996,1.136401,-0.173595,-0.187077,0.284155
317,-0.707613,-1.2325190000000001,1.177797,-0.21571300000000002,0.943328,-0.252182,0.912275,-3.4493980000000004,1.0827069999999999,-0.055893,-0.299956,0.293365
318,-0.7032619999999999,-1.2351219999999998,1.253444,-0.213025,0.9441879999999999,-0.251244,0.536111,-3.184672,1.00817,-0.033954000000000005,-0.322774,0.30194899999999997
319,-0.7107479999999999,-1.243476,1.305764,-0.20974600000000002,0.9469069999999999,-0.243655,0.064435,-2.650836,0.851435,-0.025269999999999997,-0.30428299999999997,0.183871
320,-0.736147,-1.254999,1.330239,-0.20852600000000002,0.950549,-0.230148,-0.30633499999999997,-2.361783,0.549373,0.045821,-0.213733,0.034134
321,-0.7906770000000001,-1.2665680000000001,1.323392,-0.212927,0.9540780000000001,-0.210691,-0.5899840000000001,-2.4583909999999998,0.180047,0.12248900000000001,-0.108375,-0.21377800000000002
322,-0.8666889999999999,-1.274534,1.29762,-0.222512,0.956434,-0.188987,-0.467973,-2.586852,-0.034717000000000005,0.25332,0.180239,-0.512841
323,-0.926207,-1.275205,1.288209,-0.23284699999999997,0.95663,-0.175031,0.123553,-2.4813259999999997,-0.030719999999999997,0.480741,0.49667799999999995,-0.716677
324,-0.9389120000000001,-1.272426,1.326203,-0.237196,0.955817,-0.173629,0.734024,-2.475613,0.408303,0.484587,0.608667,-0.740464
325,-0.920532,-1.272683,1.398291,-0.23376999999999998,0.955892,-0.17781,0.860643,-2.475187,0.724312,0.192144,0.296442,-0.456025
326,-0.892548,-1.274311,1.470148,-0.227492,0.956369,-0.183305,0.699138,-1.677548,0.661273,-0.043672,0.47760600000000003,-0.133543
327,-0.86677,-1.27672,1.514434,-0.22093400000000002,0.9570700000000001,-0.187616,0.25132,-0.187922,0.424432,-0.05905,0.726829,0.063486
328,-0.7900560000000001,-1.2704520000000001,1.5549950000000001,-0.21016300000000002,0.9552350000000001,-0.20821399999999998,1.2329649999999999,3.5225470000000003,0.078294,-0.407833,0.123607,0.8809290000000001
329,-0.6329779999999999,-1.250917,1.6344020000000001,-0.18600899999999998,0.9492729999999999,-0.253527,1.394395,3.615757,0.337812,-0.576793,-0.8559959999999999,0.22893000000000002
330,-0.583699,-1.248675,1.6590049999999998,-0.174467,0.948566,-0.26415700000000003,-0.27736500000000003,0.074081,0.097801,-0.63138,-1.064426,0.487408
331,-0.634179,-1.254232,1.613541,-0.184448,0.950311,-0.250767,-0.8229489999999999,-0.332029,-0.7002470000000001,-0.078797,-0.231927,1.1741059999999999
332,-0.7041649999999999,-1.260161,1.540114,-0.19788,0.95214,-0.232956,-0.8541860000000001,0.089876,-0.6871189999999999,-0.015422,0.355813,1.006744
333,-0.757346,-1.257247,1.482631,-0.211889,0.9512450000000001,-0.224124,-0.354784,0.006532,-0.790346,0.019522,0.470462,0.748263
334,-0.850776,-1.25727,1.406518,-0.23185799999999998,0.9512520000000001,-0.20336400000000002,-1.070292,-1.7414939999999999,-0.7258060000000001,0.545381,0.807064,-0.23376999999999998
335,-0.928104,-1.250567,1.377474,-0.251974,0.9491629999999999,-0.188662,0.463203,-2.8736770000000003,-0.508545,0.46358299999999997,0.275584,-0.0038729999999999997
336,-0.980116,-1.238738,1.3890559999999998,-0.270748,0.9453729999999999,-0.18154800000000001,0.308044,-3.211791,-0.26884600000000003,0.342159,0.121796,0.142821
337,-1.047242,-1.23712,1.382216,-0.283641,0.944845,-0.163743,-0.17135899999999998,-2.8668,-0.080356,0.181285,-0.131795,0.303682
338,-1.1118780000000001,-1.239295,1.3688639999999999,-0.291781,0.9455549999999999,-0.14417,-0.310126,-2.5046880000000002,0.060284000000000004,0.167804,-0.117185,0.097356
339,-1.181218,-1.245414,1.347697,-0.295711,0.9475290000000001,-0.12140799999999999,-0.510792,-2.4213139999999997,0.163461,0.16431700000000002,-0.05525599999999999,-0.062476
340,-1.250627,-1.251768,1.325762,-0.297698,0.949541,-0.09871,-0.381946,-2.419861,0.220975,0.140395,-0.052095,-0.077499
341,-1.310284,-1.261161,1.303941,-0.29442199999999996,0.9524450000000001,-0.078484,-0.540238,-1.5786120000000001,0.437777,-0.10433599999999998,-0.059622,-0.16027
342,-1.362076,-1.272966,1.271847,-0.28707,0.955976,-0.060802999999999996,-0.5934689999999999,-0.831707,0.44713,-0.135523,-0.06683099999999999,-0.16553099999999998
343,-1.403804,-1.282089,1.244517,-0.28074299999999996,0.9586129999999999,-0.047323000000000004,-0.409384,-0.821218,0.328762,-0.160693,-0.09701,-0.175104
344,-1.445529,-1.287039,1.218608,-0.277762,0.96001,-0.034977999999999995,-0.402053,-0.844817,0.097039,0.12573800000000002,-0.317203,-0.127345
345,-1.486283,-1.286716,1.189093,-0.279265,0.9599200000000001,-0.023658000000000002,-0.425762,-0.400713,-0.119477,0.275939,-0.361806,-0.168465
346,-1.517958,-1.285457,1.156259,-0.28108099999999997,0.959566,-0.014865999999999999,-0.477995,0.16055999999999998,-0.04258,0.508955,-0.274355,-0.140454
347,-1.5425309999999999,-1.287355,1.124578,-0.279539,0.9600989999999999,-0.007903,-0.383318,0.27245199999999997,0.13205799999999998,0.28155399999999997,-0.077973,-0.426255
348,-1.562081,-1.290875,1.106057,-0.27625900000000003,0.9610770000000001,-0.002408,-0.159154,-0.372985,0.173975,0.046599,-0.078051,-0.451053
349,-1.561305,-1.293949,1.115805,-0.273301,0.9619219999999999,-0.002594,0.36528499999999997,-0.27347899999999997,0.143327,-0.040923,-0.39019000000000004,-0.143921
350,-1.504438,-1.294159,1.1785889999999999,-0.272511,0.9619790000000001,-0.01811,1.049733,-0.273223,0.018853,0.048955,-0.432118,0.084135
351,-1.453331,-1.293226,1.246151,-0.272121,0.961724,-0.032113,0.776514,-0.971234,0.05309,0.119671,-0.22236,0.038582
352,-1.436785,-1.293887,1.281831,-0.270922,0.9619049999999999,-0.036525,0.34793,-0.5770109999999999,0.14039000000000001,0.269732,0.08152100000000001,-0.199452
353,-1.396342,-1.2984120000000001,1.31224,-0.264934,0.963132,-0.046694,0.496917,1.238872,0.38052199999999997,0.22449899999999998,0.114016,-0.8371719999999999
354,-1.2669549999999998,-1.299381,1.415322,-0.255805,0.963392,-0.080208,1.9752450000000001,1.3393899999999999,0.33517199999999997,0.084632,0.253603,-0.9132
355,-1.054835,-1.283298,1.614802,-0.246633,0.9589559999999999,-0.13989300000000002,3.3347300000000004,0.995606,0.413475,0.025167,1.3666209999999999,-0.298813
356,-0.802623,-1.243793,1.85727,-0.231,0.947009,-0.223176,4.351868,0.945958,0.758201,0.021024,1.600537,-0.262236
357,-0.6043390000000001,-1.189484,2.051231,-0.211452,0.928177,-0.306219,4.094239,0.623963,0.785656,-0.177647,0.420196,0.9994719999999999
358,-0.480484,-1.135204,2.181023,-0.195026,0.9066200000000001,-0.374167,3.114208,0.591793,0.8888790000000001,-0.19595,-0.177204,0.787802
359,-0.385719,-1.11122,2.264339,-0.16688,0.8962399999999999,-0.410975,1.146383,1.081905,1.2409059999999998,-0.21741300000000002,0.0858,0.305582
360,-0.30788000000000004,-1.099817,2.329534,-0.137505,0.891124,-0.43241899999999994,1.253643,0.805229,1.074299,0.0018850000000000002,0.42769300000000005,0.389908
361,-0.25638,-1.079013,2.383115,-0.11974000000000001,0.881492,-0.456761,1.0047620000000002,0.15246500000000002,0.965534,-0.123608,0.359994,0.37262399999999996
362,-0.202898,-1.0829360000000001,2.43057,-0.094454,0.883338,-0.459118,-0.39006399999999997,0.763626,1.1857440000000001,0.077761,-0.10419400000000001,0.417415
363,-0.156382,-1.100123,2.4693490000000002,-0.070628,0.8912629999999999,-0.447949,-0.753075,0.408149,0.886698,-0.010793,-0.32655100000000004,0.51672
364,-0.132189,-1.1196030000000001,2.492291,-0.057472,0.899927,-0.43223199999999995,-1.060135,0.134598,0.564437,-0.13961099999999999,-0.352854,0.486309
365,-0.113524,-1.150617,2.508342,-0.046209,0.9130159999999999,-0.405294,-1.762359,0.257694,0.493145,-0.259088,-0.366766,0.380849
366,-0.104851,-1.193495,2.513661,-0.038557,0.9296620000000001,-0.366383,-2.30174,0.087038,0.215063,-0.32419000000000003,-0.420629,0.298238
367,-0.124474,-1.242673,2.494943,-0.040008999999999996,0.946649,-0.319766,-2.53155,-0.17366199999999998,-0.191064,-0.23973000000000003,-0.538461,0.27431
368,-0.17886400000000002,-1.290602,2.442834,-0.049199,0.961002,-0.272122,-2.444146,-0.294041,-0.532131,-0.106563,-0.674609,0.23669099999999998
369,-0.286589,-1.332103,2.3425279999999997,-0.066832,0.971648,-0.22678,-2.212815,-0.748056,-0.9465399999999999,-0.07496699999999999,-0.665419,0.188129
370,-0.486674,-1.359685,2.166847,-0.097997,0.977799,-0.18520599999999998,-1.8660240000000001,-2.004054,-1.5033239999999999,-0.069972,-0.5930479999999999,0.141901
371,-0.74942,-1.364033,1.9687299999999999,-0.13983900000000002,0.978701,-0.150282,-0.9733879999999999,-4.373476,-1.416073,-0.059317999999999996,0.223311,-0.19836600000000001
372,-0.9809889999999999,-1.360855,1.8337400000000001,-0.173182,0.978043,-0.115907,-1.2456049999999999,-4.80831,-0.864078,-0.025976,0.22396799999999997,-0.232742
373,-1.179453,-1.362093,1.69097,-0.19151500000000002,0.9783,-0.079024,-1.184706,-1.577935,-0.49925600000000003,0.06680499999999999,0.378038,-0.904466
374,-1.295375,-1.3651959999999999,1.582892,-0.196447,0.9789389999999999,-0.055517,-1.066745,-0.317662,-0.082372,0.295919,0.058353999999999996,-0.6550239999999999
375,-1.399289,-1.3672879999999998,1.492099,-0.199127,0.9793639999999999,-0.034491,-0.8477040000000001,-0.9926,-0.11736500000000001,0.311661,-0.039314999999999996,-0.535242
376,-1.482327,-1.371301,1.429152,-0.197384,0.980167,-0.017508000000000003,-0.481267,-0.9231870000000001,0.32094,0.07919,-0.114597,-0.386407
377,-1.521811,-1.383119,1.395131,-0.186337,0.98244,-0.009134999999999999,-0.348708,-0.049363,0.663646,-0.27396,0.258115,-0.736333
378,-1.466244,-1.393784,1.443343,-0.17511,0.984374,-0.018375,1.370593,0.955743,0.367788,0.20506300000000002,0.164994,0.913227
379,-1.149744,-1.380943,1.7405259999999998,-0.172218,0.982032,-0.077125,3.0641130000000003,1.003131,0.10288699999999999,-0.375909,0.631478,0.289451
380,-1.091449,-1.373897,1.83857,-0.173567,0.980678,-0.09021699999999999,-0.3678,-3.9257470000000003,-0.156187,-0.333436,0.66132,-0.043343
381,-1.196935,-1.364908,1.7902349999999998,-0.190301,0.97888,-0.074657,0.226185,-1.5601399999999999,-0.578086,-0.43544700000000003,0.765474,-0.29517
382,-1.189712,-1.357259,1.8053400000000002,-0.196701,0.9772870000000001,-0.078813,0.287852,0.41534399999999994,-0.214854,0.507141,0.616585,-0.77983
383,-1.012417,-1.345443,1.942549,-0.189499,0.974715,-0.118379,2.1583799999999997,2.287582,0.422858,0.219529,-0.11103699999999998,0.496324
384,-0.8484149999999999,-1.334603,2.076489,-0.175546,0.9722360000000001,-0.15470699999999998,0.9665389999999999,1.488756,0.357873,-0.11165499999999999,0.075173,0.656691
385,-0.7990079999999999,-1.335161,2.0968299999999997,-0.167303,0.972366,-0.16280999999999998,-0.23873699999999998,1.355286,0.14879900000000001,-0.052439,-0.036957,0.521559
386,-0.8176800000000001,-1.345276,2.060316,-0.163128,0.974678,-0.152922,-0.869542,0.45464499999999997,0.017361,-0.020938,-0.19434400000000002,0.318267
387,-0.922024,-1.36291,1.9627330000000003,-0.164446,0.978469,-0.124694,-1.683643,-1.0008110000000001,-0.0035520000000000005,0.033188999999999996,-0.171722,0.01007
388,-1.140588,-1.385402,1.768684,-0.16752,0.982864,-0.07687000000000001,-2.493002,-1.378318,-0.0012439999999999999,0.216531,0.015168000000000001,-0.579029
389,-1.361887,-1.401707,1.5441610000000001,-0.164603,0.9857379999999999,-0.034895999999999996,-1.489869,1.058817,0.24833000000000002,0.11637,0.013438,-0.636918
390,-1.318983,-1.404406,1.550659,-0.160378,0.986189,-0.041261,0.701384,1.7795590000000001,0.059751,0.08316799999999999,-0.178343,-0.34638800000000003
391,-1.211818,-1.398933,1.633889,-0.160097,0.985268,-0.060074,0.5712729999999999,0.940067,-0.080019,-0.10366700000000001,-0.155693,-0.667511
392,-1.14039,-1.392747,1.6920380000000002,-0.160938,0.984191,-0.073889,0.805254,0.7391310000000001,-0.116584,-0.123608,-0.17459000000000002,-0.533442
393,-1.015557,-1.37792,1.8003,-0.16287100000000002,0.981457,-0.101035,1.406981,0.862132,-0.22897399999999998,-0.09657400000000001,-0.203549,-0.303552
394,-0.9005989999999999,-1.35617,1.90612,-0.166901,0.9770559999999999,-0.13228099999999998,1.5443069999999999,0.526217,-0.259631,0.011673000000000001,-0.094762,-0.47193599999999997
395,-0.767918,-1.3301100000000001,2.01893,-0.16557,0.971175,-0.171463,2.0470349999999997,1.521687,-0.022386,0.151456,0.020600999999999998,-0.23114099999999999
396,-0.6125520000000001,-1.291844,2.150649,-0.158307,0.9613440000000001,-0.22527600000000003,2.8039400000000003,1.299017,0.127396,-0.009387000000000001,0.342977,-0.140569
397,-0.474179,-1.23915,2.26707,-0.148667,0.945508,-0.289668,3.372348,1.232104,0.117565,-0.0016170000000000002,0.36642800000000003,0.276988
398,-0.387954,-1.17804,2.348747,-0.144785,0.923858,-0.35428699999999996,3.204453,0.141,0.06224299999999999,-0.086386,0.412782,0.7230310000000001
399,-0.339904,-1.125564,2.40084,-0.143581,0.9025110000000001,-0.406023,2.618749,-0.11890999999999999,0.032847,-0.090336,0.45280600000000004,0.770738
400,-0.314469,-1.091488,2.430902,-0.14264300000000002,0.8873139999999999,-0.438546,1.235493,0.131431,0.166006,0.033557,0.183578,0.567421
401,-0.28082399999999996,-1.088911,2.451121,-0.128443,0.886123,-0.445292,-0.218272,1.0575729999999999,0.522133,0.045511,0.176759,0.45751400000000003
402,-0.24702399999999997,-1.102533,2.467734,-0.11035999999999999,0.8923530000000001,-0.437633,-0.67281,0.832167,0.54168,-0.193199,0.118023,0.493724
403,-0.21189299999999997,-1.12649,2.4834259999999997,-0.090397,0.902909,-0.42021400000000003,-1.404407,1.257136,0.662075,-0.341167,-0.07335,0.23375100000000001
404,-0.173061,-1.163319,2.494896,-0.06824,0.9181239999999999,-0.390369,-1.9020110000000001,1.4630319999999999,0.48635200000000006,-0.17716700000000002,-0.40429899999999996,0.233219
405,-0.15315299999999998,-1.202468,2.489163,-0.054927,0.932931,-0.355836,-1.9582959999999998,1.066645,0.029268000000000002,-0.21397800000000003,-0.6446310000000001,0.24534699999999998
406,-0.172105,-1.240818,2.45515,-0.05549,0.946049,-0.319227,-2.0220700000000003,0.41361000000000003,-0.44249499999999997,-0.202491,-0.645146,0.23033
407,-0.23832199999999998,-1.280518,2.3841,-0.067566,0.9581639999999999,-0.27812,-2.260011,-0.143564,-0.759637,-0.151108,-0.558338,0.147703
408,-0.368669,-1.321182,2.267114,-0.089019,0.969008,-0.23042100000000001,-2.463706,-1.506691,-0.955866,-0.076035,-0.324751,-0.059069
409,-0.59817,-1.352861,2.092818,-0.121749,0.9763459999999999,-0.178661,-2.122564,-3.8805940000000003,-1.134175,0.191161,0.072848,-0.210042
410,-0.8618290000000001,-1.36227,1.909183,-0.157121,0.9783370000000001,-0.134769,-1.397146,-3.791925,-1.026672,0.545778,0.22478800000000002,-0.315015
411,-1.031342,-1.36479,1.7826389999999999,-0.175488,0.978856,-0.10506300000000002,-0.977439,-1.662106,-0.409038,0.555783,0.234706,-0.590723
412,-1.136542,-1.369504,1.6994669999999998,-0.181361,0.979809,-0.084112,-0.8284959999999999,-0.943875,-0.063847,0.4154,0.024692,-0.440028
413,-1.223239,-1.377856,1.631262,-0.180264,0.9814450000000001,-0.065303,-0.700275,-1.076555,0.237389,0.219189,-0.022353,-0.558339
414,-1.287768,-1.389325,1.586573,-0.173278,0.9835790000000001,-0.050395999999999996,-0.458279,-0.819739,0.53892,0.032256,0.188555,-0.689244
415,-1.189433,-1.402067,1.678657,-0.15584800000000001,0.985799,-0.06249400000000001,1.422842,1.1233739999999999,1.0259969999999998,-0.078787,-0.012913999999999998,0.6030979999999999
416,-0.8758670000000001,-1.383844,1.9777939999999998,-0.14275,0.982575,-0.119005,3.1677150000000003,0.608379,0.163971,-0.993389,0.693313,0.513658
417,-0.792579,-1.3685479999999999,2.100936,-0.143043,0.979617,-0.141004,-0.008622,-3.571901,0.288146,-1.3798139999999999,1.198544,0.067884
418,-0.906639,-1.369656,2.046916,-0.157307,0.9798389999999999,-0.12313800000000001,-0.42156499999999997,-2.132777,-0.402381,-0.808895,0.967548,-0.8166359999999999
419,-1.09784,-1.379341,1.889527,-0.169383,0.981728,-0.086672,-1.4393610000000001,-0.25435599999999997,-0.670407,1.00378,0.443305,-0.396376
420,-0.944844,-1.364013,1.9944490000000001,-0.166374,0.9786959999999999,-0.120277,2.28862,1.830108,0.428662,0.15073399999999998,-0.173994,0.32820900000000003
421,-0.775943,-1.345798,2.1456009999999996,-0.15625,0.9747950000000001,-0.15923299999999999,1.309274,1.09532,0.14929800000000001,-0.068359,-0.09042599999999999,0.632378
422,-0.722942,-1.336769,2.172242,-0.15341300000000002,0.9727399999999999,-0.173881,0.139501,1.384052,-0.178642,-0.009276000000000001,0.038353,0.541663
423,-0.754038,-1.3418780000000001,2.126319,-0.15534,0.9739120000000001,-0.165402,-0.9844430000000001,0.027839,-0.240302,0.032797,0.020183,0.123868
424,-0.89581,-1.361451,2.0048790000000003,-0.162236,0.978167,-0.129854,-1.9604669999999997,-1.7226400000000002,-0.135918,0.11496400000000001,0.0016,-0.065825
425,-1.147832,-1.385609,1.789086,-0.167889,0.982902,-0.075572,-2.658484,-1.8932930000000001,-0.01132,0.210598,-0.023505,-0.562459
426,-1.378922,-1.3987479999999999,1.565774,-0.168041,0.9852360000000001,-0.032644,-1.345357,0.41597700000000004,-0.022199,0.005932,-0.177466,-0.735727
427,-1.352154,-1.393907,1.574139,-0.171762,0.9843959999999999,-0.038165,0.758142,0.7602369999999999,-0.291026,0.014383000000000002,-0.303671,-0.327894
428,-1.2580559999999998,-1.382104,1.661352,-0.17846099999999998,0.98225,-0.05770599999999999,0.8364360000000001,0.290525,-0.377471,0.083429,-0.4109,0.093152
429,-1.230126,-1.374571,1.685936,-0.183748,0.9808100000000001,-0.065137,0.024676,0.230981,-0.234582,0.062455,-0.36291999999999996,-0.057177
430,-1.2353370000000001,-1.3711870000000002,1.6694830000000003,-0.187217,0.980144,-0.06527100000000001,-0.048096,0.697657,-0.192959,0.030157999999999997,-0.174846,-0.505927
431,-1.1978870000000001,-1.367394,1.689771,-0.188103,0.9793850000000001,-0.073589,0.5417609999999999,1.04233,-0.052549,0.109169,0.061614999999999996,-0.265797
432,-1.093776,-1.359227,1.77742,-0.186538,0.9777030000000001,-0.09640800000000001,1.139645,0.734222,0.022525,0.070892,-0.027049,-0.19035
433,-0.9838610000000001,-1.346191,1.8734330000000001,-0.185436,0.974882,-0.12333800000000002,1.319494,0.99398,-0.090851,-0.005681,-0.16139,-0.470366
434,-0.84229,-1.3251819999999999,1.985004,-0.181423,0.969988,-0.16187200000000002,1.9039709999999999,2.071457,0.08063,0.168148,0.521147,-0.501504
435,-0.65971,-1.293643,2.129985,-0.167691,0.961838,-0.21619699999999997,2.780966,1.9158560000000002,0.403149,0.072186,0.8954770000000001,-0.23547800000000002
436,-0.498014,-1.248772,2.2684029999999997,-0.151176,0.9485969999999999,-0.278037,3.03586,1.033631,0.49258599999999997,0.015022,0.780895,0.054374
437,-0.408159,-1.187662,2.370272,-0.148378,0.9274969999999999,-0.343115,3.819411,-0.9541200000000001,0.06690800000000001,-0.156554,0.412438,0.5847680000000001
438,-0.362144,-1.12134,2.436048,-0.153924,0.900683,-0.40629099999999996,3.223811,-0.330877,0.036312,-0.34178800000000004,-0.018831999999999998,1.043971
439,-0.316467,-1.083172,2.476396,-0.14581,0.8834489999999999,-0.44525699999999996,1.387913,0.47122700000000006,0.307675,-0.11520699999999999,-0.071467,0.7455350000000001
440,-0.304824,-1.0781969999999998,2.492315,-0.141933,0.881107,-0.451112,-0.184166,-0.398807,0.264694,-0.202504,0.144299,0.46843100000000004
441,-0.290723,-1.099523,2.50383,-0.130142,0.890991,-0.434965,-1.293888,0.79078,0.774574,-0.220521,0.089768,0.12295299999999999
442,-0.24700500000000003,-1.136292,2.5190200000000003,-0.102924,0.9070790000000001,-0.408179,-1.872707,1.820915,0.7403689999999999,-0.17391600000000002,-0.158635,0.23435100000000003
443,-0.207998,-1.177538,2.521067,-0.07912999999999999,0.923665,-0.374935,-2.005559,1.7474509999999999,0.313315,-0.221178,-0.314077,0.326625
444,-0.196259,-1.216449,2.502269,-0.06766,0.937873,-0.34031,-1.974975,1.272759,-0.08431,-0.272123,-0.406623,0.31112
445,-0.213496,-1.255997,2.4613169999999998,-0.06560099999999999,0.950858,-0.302589,-2.159585,0.996444,-0.35443800000000003,-0.24268800000000001,-0.529197,0.321738
446,-0.265327,-1.297505,2.3908139999999998,-0.070772,0.962888,-0.260448,-2.268177,0.560003,-0.606737,-0.113554,-0.501462,0.250103
447,-0.380536,-1.333224,2.274828,-0.087407,0.9719120000000001,-0.218498,-2.052209,-0.648388,-0.967944,0.009387999999999999,-0.521076,0.18885
448,-0.565866,-1.353423,2.119161,-0.115621,0.976467,-0.18203699999999998,-1.435084,-2.374546,-1.133405,0.05747000000000001,-0.6031,0.017669
449,-0.7874909999999999,-1.359947,1.968388,-0.148289,0.9778530000000001,-0.14767,-1.3309389999999999,-4.400809,-0.930323,-0.026042000000000003,-0.203073,0.089198
450,-1.079476,-1.37709,1.751741,-0.169711,0.981297,-0.09081,-2.5863150000000004,-3.833803,-0.44523199999999996,0.198459,0.307872,-0.788478
451,-1.335531,-1.382411,1.5509030000000001,-0.182094,0.982308,-0.043649,-1.040247,-1.8261290000000001,-0.361162,0.64172,0.450096,-1.272483
452,-1.366774,-1.379976,1.5291270000000001,-0.185711,0.981849,-0.038424,0.032001,-0.11484200000000001,-0.072786,0.663387,0.018441,-0.705869
453,-1.363704,-1.38196,1.532577,-0.183685,0.982223,-0.038593,-0.050703,0.078053,0.244719,0.215119,-0.054214,-0.614788
454,-1.3759569999999999,-1.394616,1.517822,-0.171934,0.9845200000000001,-0.03393,-0.301392,0.179965,0.816473,-0.536181,0.338264,-0.426992
455,-1.269341,-1.411135,1.616498,-0.151793,0.987281,-0.047197,1.579383,0.887028,0.854341,-0.122438,-0.007286,0.9912129999999999
456,-0.9548260000000001,-1.3913520000000001,1.9141009999999998,-0.14566500000000002,0.983943,-0.10310799999999999,2.664767,0.81853,-0.005386,-0.533,0.605962,0.778706
457,-0.9347030000000001,-1.3834959999999998,1.962384,-0.149775,0.982511,-0.110607,-0.738283,-2.700869,-0.053488,-0.26087,0.726672,0.769405
458,-1.017231,-1.373729,1.917391,-0.16653900000000002,0.9806450000000001,-0.102924,0.589266,-1.491199,-0.8159529999999999,-0.205578,0.812797,-0.76022
459,-1.18254,-1.372827,1.7898349999999998,-0.182022,0.980468,-0.07445,-2.0549459999999997,-1.29357,-0.527029,-0.028350999999999998,1.535935,-2.007688
460,-1.070257,-1.363443,1.85047,-0.180599,0.9785790000000001,-0.098789,2.284768,2.687347,0.242734,0.169628,-0.178652,0.383945
461,-0.8625229999999999,-1.34633,2.039955,-0.16903900000000002,0.9749129999999999,-0.144787,1.610326,0.8198620000000001,0.308782,-0.026883999999999998,-0.030806,0.635083
462,-0.809408,-1.340462,2.068335,-0.165253,0.97359,-0.157502,-0.186022,1.463589,-0.073127,-0.052139,0.055524000000000004,0.507706
463,-0.843807,-1.350054,2.01125,-0.16358599999999998,0.975735,-0.145512,-1.040027,0.6239859999999999,-0.08973400000000001,-0.049045,-0.022656,0.208409
464,-0.950232,-1.364571,1.90707,-0.166574,0.9788110000000001,-0.11906099999999999,-1.47892,-0.7239,-0.163712,0.052041,-0.199102,-0.045078
465,-1.144484,-1.379517,1.740062,-0.17307999999999998,0.9817620000000001,-0.07860700000000001,-1.989929,-1.901389,-0.163636,0.16597,-0.263683,-0.47621800000000003
466,-1.359127,-1.388652,1.55355,-0.177074,0.9834579999999999,-0.038051,-1.395101,-0.9992969999999999,-0.097612,0.008586,-0.195021,-0.6398050000000001
467,-1.388937,-1.3826260000000001,1.519082,-0.183956,0.982348,-0.033828,0.353921,0.577124,-0.500817,0.281673,-0.235598,-0.216142
468,-1.328832,-1.372118,1.56752,-0.191604,0.9803280000000001,-0.047288,0.48626400000000003,0.802702,-0.284401,0.314178,-0.284604,-0.014112999999999999
469,-1.29051,-1.36913,1.58943,-0.192465,0.979734,-0.055403999999999995,0.08996699999999999,0.723121,-0.020011,0.272925,-0.25710900000000003,-0.125565
470,-1.278665,-1.370247,1.587431,-0.190748,0.979957,-0.057365,0.047258999999999995,0.837829,0.102389,0.052702,-0.09214,-0.400002
471,-1.210749,-1.369891,1.6342,-0.18674200000000002,0.979886,-0.0703,0.658636,1.108319,0.12767699999999998,0.013875,-0.10983,-0.254743
472,-1.1173819999999999,-1.364004,1.718495,-0.184557,0.9786950000000001,-0.08993,1.00454,0.10299000000000001,0.021355000000000002,-0.006514,-0.14968499999999998,-0.13146
473,-1.03403,-1.3525260000000001,1.8067849999999999,-0.18607200000000002,0.976273,-0.110721,1.2214530000000001,0.051608,-0.104183,0.116416,-0.052552,-0.46683900000000006
474,-0.899752,-1.331988,1.92695,-0.18524200000000002,0.971621,-0.147074,2.006162,1.200122,-0.022193,0.15650999999999998,0.11216500000000001,-0.397604
475,-0.728808,-1.300948,2.076245,-0.177531,0.9638110000000001,-0.198853,2.7141509999999998,1.390387,0.26772399999999996,0.127345,0.455042,-0.47498999999999997
476,-0.5567880000000001,-1.25124,2.2296009999999997,-0.166008,0.949375,-0.26668600000000003,3.4992400000000004,1.148918,0.299155,-0.229591,0.6672170000000001,0.13306500000000002
477,-0.44592,-1.194858,2.338349,-0.158342,0.930164,-0.33123600000000003,3.281786,-0.051729,0.24149,-0.188368,0.396161,0.638655
478,-0.391433,-1.13266,2.40793,-0.161856,0.905544,-0.392158,3.4730540000000003,-0.641938,-0.178365,-0.369654,0.040882,1.0350110000000001
479,-0.35589699999999996,-1.078718,2.448777,-0.16461800000000001,0.881353,-0.44284700000000005,2.1469,0.49961700000000003,0.010666,-0.055261000000000005,-0.055577999999999995,0.836966
480,-0.334859,-1.059399,2.4658919999999998,-0.160831,0.8720620000000001,-0.462208,0.5057020000000001,-0.058147000000000004,-0.008629000000000001,-0.091137,0.17966600000000002,0.6615489999999999
481,-0.338997,-1.0678969999999999,2.4686939999999997,-0.160273,0.876189,-0.454534,-0.981183,0.05365399999999999,0.49358900000000006,-0.1005,0.172151,0.161916
482,-0.310526,-1.101927,2.476012,-0.138074,0.8920799999999999,-0.43026000000000003,-1.765956,1.543769,0.692364,0.034955,-0.191457,0.26772399999999996
483,-0.282543,-1.140411,2.470205,-0.116319,0.908805,-0.400672,-1.9066290000000001,1.615266,0.251183,0.025514,-0.290076,0.31790799999999997
484,-0.283603,-1.177276,2.441534,-0.10729100000000001,0.923565,-0.368118,-1.96727,1.000357,-0.167196,-0.16661900000000002,-0.508282,0.31958000000000003
485,-0.315418,-1.2162979999999999,2.393894,-0.107679,0.9378209999999999,-0.329987,-2.233755,0.45847899999999997,-0.289072,-0.20028900000000002,-0.52063,0.31246999999999997
486,-0.375818,-1.259691,2.32583,-0.112349,0.951996,-0.284738,-2.506698,-0.008098000000000001,-0.322427,-0.138124,-0.530472,0.250406
487,-0.481809,-1.303343,2.2270060000000003,-0.122455,0.9644469999999999,-0.23418000000000003,-2.585099,-0.958619,-0.44673900000000005,0.106556,-0.543549,0.13939200000000002
488,-0.6699689999999999,-1.336745,2.075887,-0.144005,0.972735,-0.181777,-2.2021669999999998,-2.91575,-0.723567,0.11066400000000001,-0.387881,-0.039719
489,-0.8933840000000001,-1.356891,1.9297279999999999,-0.165393,0.977209,-0.13304100000000002,-1.7901740000000002,-4.4047410000000005,-0.348108,0.06978200000000001,-0.079184,-0.179337
490,-1.124097,-1.370922,1.757512,-0.179048,0.9800909999999999,-0.085762,-1.564067,-2.18377,-0.245757,0.37199499999999996,0.47767200000000004,-1.164116
491,-1.215026,-1.375061,1.688532,-0.18229,0.9809049999999999,-0.067736,-0.35662699999999997,-0.869928,-0.049931,0.544121,0.172278,-0.904158
492,-1.253059,-1.3762159999999999,1.671312,-0.18365599999999999,0.9811290000000001,-0.060400999999999996,-0.142784,-1.13635,0.056589999999999994,0.326158,-0.112568,-0.60618
493,-1.278729,-1.3815709999999999,1.665138,-0.18011,0.98215,-0.054153,-0.100641,-0.945992,0.36749299999999996,-0.12415,0.080777,-0.356522
494,-1.210761,-1.39016,1.7427979999999998,-0.168114,0.9837290000000001,-0.06328500000000001,1.15265,0.08884299999999999,0.76589,-0.048393,-0.053157,0.8023600000000001
495,-0.9481139999999999,-1.375526,1.9914669999999999,-0.157598,0.9809950000000001,-0.11315,2.753278,0.975197,0.167048,-0.671381,0.595589,0.389059
496,-0.859741,-1.361675,2.1,-0.157279,0.9782139999999999,-0.135475,0.24728899999999998,-2.3704099999999997,0.102556,-0.633828,0.8359040000000001,0.06851900000000001
497,-0.975987,-1.3654959999999998,2.0462580000000004,-0.16883299999999998,0.979,-0.114223,-0.566565,-2.38992,-0.43935100000000005,-0.18237799999999998,0.24042199999999997,0.247768
498,-1.0582559999999999,-1.369542,1.9741330000000001,-0.17419300000000001,0.979817,-0.098018,-1.40887,-0.42961800000000006,-0.024731,0.009687999999999999,1.595394,-1.993184
499,-1.0513860000000002,-1.367466,1.948653,-0.175282,0.979399,-0.100222,1.526117,3.2751189999999997,-0.098708,0.888905,0.559923,-0.212644
500,-0.824415,-1.347995,2.136705,-0.162207,0.975282,-0.150019,1.77033,1.459891,0.487505,-0.139246,-0.10524100000000002,0.49860600000000005
501,-0.742537,-1.338597,2.1937330000000004,-0.155585,0.9731629999999999,-0.16952799999999998,0.358569,1.305187,-0.092588,-0.158166,-0.115451,0.582431
502,-0.743727,-1.335439,2.176016,-0.157867,0.9724309999999999,-0.171604,-0.224179,0.32909,-0.310121,0.023925,-0.154926,0.348591
503,-0.81877,-1.3396649999999999,2.11607,-0.167285,0.9734079999999999,-0.156477,-0.9303629999999999,-1.556087,-0.321183,0.096988,-0.10037599999999999,0.101637
504,-0.987504,-1.353613,1.9903259999999998,-0.179835,0.976508,-0.11867,-1.935859,-2.6082919999999996,-0.320449,0.152064,-0.022132,-0.182233
505,-1.217853,-1.3718270000000001,1.793822,-0.185454,0.9802709999999999,-0.068315,-1.972882,-0.960686,0.071355,-0.163743,-0.079819,-0.523359
506,-1.251333,-1.372083,1.747869,-0.187399,0.9803209999999999,-0.061991,0.42181899999999994,0.9053479999999999,-0.323438,-0.080317,-0.25319400000000003,-0.207892
507,-1.1865430000000001,-1.358847,1.8039450000000001,-0.19500699999999999,0.9776229999999999,-0.07885199999999999,0.6063430000000001,0.32451399999999997,-0.418613,0.114074,-0.28318000000000004,0.05192000000000001
508,-1.197044,-1.354954,1.7817169999999998,-0.19936600000000002,0.9767959999999999,-0.078189,-0.449978,0.7905810000000001,-0.171284,0.170267,-0.104604,-0.292081
509,-1.1994200000000002,-1.3571819999999999,1.748773,-0.197523,0.9772709999999999,-0.076925,-0.176116,1.900832,0.06528300000000001,0.134,0.064202,-0.44663500000000006
510,-1.131833,-1.356565,1.7799209999999999,-0.192422,0.97714,-0.09034500000000001,0.553284,1.615868,0.099585,0.08884500000000001,0.134463,-0.32603699999999997
511,-1.046724,-1.349742,1.8441580000000002,-0.189815,0.9756670000000001,-0.10970899999999999,0.918783,0.907791,-0.033687,0.15253699999999998,0.054225,-0.524309
512,-0.936111,-1.3337809999999999,1.936233,-0.189063,0.972043,-0.13921,1.5745719999999999,1.213738,-0.12243299999999999,0.213096,-0.028332999999999997,-0.375682
513,-0.798259,-1.3058100000000001,2.051846,-0.18754400000000002,0.965096,-0.182781,2.259363,1.213347,-0.085603,0.257689,0.225517,-0.332737
514,-0.65066,-1.2639690000000001,2.184179,-0.18293900000000002,0.953297,-0.240315,3.112988,0.8923979999999999,0.052187,0.036789999999999996,0.6175649999999999,-0.21113200000000001
515,-0.53364,-1.2097879999999999,2.298351,-0.17966600000000002,0.935541,-0.304098,3.281479,0.145124,0.035093,-0.221991,0.621939,0.144156
516,-0.460988,-1.152395,2.381304,-0.180732,0.91374,-0.363881,3.3167150000000003,-0.410721,-0.052611,-0.206688,0.35625,0.703099
517,-0.410868,-1.0945559999999999,2.440286,-0.18310099999999999,0.888725,-0.42028000000000004,2.833275,0.33320900000000003,0.00822,-0.290898,0.130883,1.174004
518,-0.36480300000000004,-1.070318,2.471597,-0.17119,0.877353,-0.448263,0.444529,0.8644860000000001,0.28781999999999996,-0.212385,-0.227237,0.683813
519,-0.36133899999999997,-1.082056,2.471091,-0.165984,0.882925,-0.43918900000000005,-0.9068870000000001,-0.16669,0.12480899999999999,-0.111268,-0.068731,0.5833229999999999
520,-0.375623,-1.10772,2.4611959999999997,-0.16387100000000002,0.894683,-0.415551,-1.5103600000000001,-0.018782,0.42271099999999995,-0.18770699999999998,0.202943,0.238168
521,-0.365884,-1.147686,2.452794,-0.146899,0.911816,-0.383413,-2.151251,1.339137,0.522249,-0.137021,-0.28731999999999996,0.131338
522,-0.35970599999999997,-1.193816,2.423788,-0.129572,0.929781,-0.344546,-2.4190549999999997,1.656966,0.127933,0.003199,-0.48004300000000005,0.11651800000000001
523,-0.390523,-1.236988,2.364141,-0.12472000000000001,0.944801,-0.302964,-2.357295,0.9448209999999999,-0.322581,-0.07474299999999999,-0.587288,0.074998
524,-0.468213,-1.277372,2.277572,-0.130522,0.957259,-0.25809099999999996,-2.449624,-0.184906,-0.375189,-0.09474400000000001,-0.570647,0.134434
525,-0.599901,-1.3191469999999998,2.1533830000000003,-0.140567,0.9685030000000001,-0.20550900000000002,-2.733205,-0.914437,-0.44139700000000004,-0.06060499999999999,-0.49282600000000004,-0.12582000000000002
526,-0.816368,-1.347229,1.974162,-0.161537,0.9751129999999999,-0.151829,-2.0942790000000002,-3.024232,-0.857246,-0.11565399999999999,-0.076919,-0.643734
527,-1.0212780000000001,-1.347949,1.8410549999999999,-0.188452,0.9752719999999999,-0.115416,-0.906525,-3.337678,-0.757749,0.106878,0.188867,-0.8849809999999999
528,-1.164764,-1.346414,1.7465240000000002,-0.20439200000000002,0.974932,-0.087873,-0.926924,-2.3173630000000003,-0.419504,0.493791,0.469603,-0.795169
529,-1.276937,-1.3473110000000001,1.671242,-0.212106,0.975131,-0.064188,-0.68103,-1.7332580000000002,-0.183526,0.624063,0.031278,-0.510794
530,-1.338797,-1.3473709999999999,1.633054,-0.215612,0.975144,-0.050939,-0.22014899999999998,-0.818492,0.025756,0.589971,-0.338624,-0.18068900000000002
531,-1.326846,-1.354143,1.649261,-0.20857399999999998,0.9766219999999999,-0.051916,0.202041,0.077166,0.517871,0.521898,-0.386382,-0.173075
532,-1.305826,-1.3680510000000001,1.6723830000000002,-0.194306,0.979518,-0.052725,-0.11280499999999999,-0.282256,0.8964190000000001,-0.131011,-0.14065,0.088171
533,-1.237059,-1.3854229999999998,1.734462,-0.17411600000000002,0.9828680000000001,-0.060367,0.925852,1.177229,1.047082,-0.306444,0.049039,0.583164
534,-1.0301690000000001,-1.390559,1.9215659999999999,-0.153672,0.983801,-0.09224600000000001,0.985188,-0.394144,0.752545,-0.724563,0.46276300000000004,-0.572182
535,-1.13957,-1.3879350000000001,1.9039689999999998,-0.165169,0.9833270000000001,-0.07599500000000001,-0.057612000000000003,-5.425982,-0.8698520000000001,-0.526252,1.068003,0.21480500000000002
536,-1.117416,-1.366249,1.960537,-0.182578,0.979153,-0.08895800000000001,1.552976,0.680956,-0.596168,0.178321,-0.007916,0.539977
537,-0.9642370000000001,-1.347382,2.076489,-0.182017,0.975147,-0.12628599999999998,1.296262,2.142884,0.06566799999999999,0.291469,-0.247425,0.316608
538,-0.8979659999999999,-1.3505040000000001,2.109823,-0.170873,0.975834,-0.136164,-0.708354,1.345149,0.431907,-0.121424,1.020382,-0.21776399999999999
539,-0.988986,-1.371868,1.997165,-0.165081,0.9802790000000001,-0.10858399999999999,-1.424523,1.112789,0.020209,0.298398,0.39524000000000004,-0.056074
540,-1.000528,-1.380295,1.9624439999999999,-0.159364,0.981909,-0.10220800000000001,-0.09912,0.8858860000000001,0.20281,0.048158,-0.040182999999999996,-0.086284
541,-0.9818979999999999,-1.377786,1.9673200000000002,-0.15948099999999998,0.9814309999999999,-0.106527,0.12056900000000001,0.7003199999999999,-0.20134200000000002,-0.10983699999999999,-0.09123300000000001,0.156026
542,-0.988367,-1.372317,1.949648,-0.16464600000000001,0.980368,-0.10844300000000001,-0.091796,0.265045,-0.389206,0.0667,-0.073584,-0.202897
543,-1.053787,-1.368267,1.891487,-0.174833,0.979561,-0.099409,-0.594201,-0.770347,-0.500347,0.076887,-0.072777,-0.211931
544,-1.136892,-1.3676700000000002,1.8168279999999999,-0.18301199999999998,0.979441,-0.084799,-0.48168199999999994,0.056008,-0.25706599999999996,-0.014162000000000001,-0.016901,-0.471322
545,-1.113083,-1.366623,1.813541,-0.181862,0.9792290000000001,-0.089586,0.15157400000000001,1.871182,0.006745999999999999,0.048195,-0.068508,-0.274886
546,-1.067244,-1.366201,1.823114,-0.177927,0.979143,-0.098024,0.054515999999999995,1.6562700000000001,0.022366999999999998,0.04426,-0.068422,-0.266447
547,-1.014316,-1.361921,1.8485900000000002,-0.176049,0.9782649999999999,-0.10951300000000001,0.647733,1.311639,-0.088416,0.152475,-0.037072,-0.561721
548,-0.8996940000000001,-1.34535,1.939157,-0.175043,0.9746940000000001,-0.138993,1.605751,1.270073,-0.11478599999999999,0.045573,-0.050622,-0.254363
549,-0.762706,-1.317383,2.056429,-0.17319500000000002,0.9680620000000001,-0.181239,2.132707,1.069867,-0.055300999999999996,-0.046074000000000004,-0.031478,-0.19054100000000002
550,-0.621156,-1.279059,2.18013,-0.167375,0.9577459999999999,-0.23387600000000003,2.8539779999999997,1.26794,0.135354,-0.206862,-0.043683,-0.045818
551,-0.507861,-1.2281739999999999,2.277388,-0.163373,0.9418770000000001,-0.293543,2.8174650000000003,0.8710379999999999,-0.210497,0.040707,-0.043973000000000005,0.5973310000000001
552,-0.447133,-1.185076,2.323404,-0.162668,0.926528,-0.339229,2.013003,0.854709,-0.22464099999999998,-0.031912,-0.012221,0.669079
553,-0.401581,-1.1560290000000002,2.354136,-0.15750899999999998,0.9152100000000001,-0.370908,1.239703,0.8544940000000001,-0.033489,-0.087181,0.146558,0.8657809999999999
554,-0.38105700000000003,-1.152726,2.363391,-0.15098699999999998,0.913874,-0.376867,-0.519406,0.542798,0.317818,0.051392999999999994,0.135213,0.656209
555,-0.358145,-1.184987,2.368656,-0.131906,0.926494,-0.352421,-1.798629,1.257983,0.797212,0.13381400000000002,0.146412,0.218129
556,-0.31496999999999997,-1.221884,2.375714,-0.105905,0.939745,-0.325046,-1.5607440000000001,2.0577509999999997,0.6547069999999999,-0.108954,0.039579,0.211765
557,-0.28063,-1.24991,2.374148,-0.087351,0.9489559999999999,-0.303055,-1.254207,1.441717,0.199371,-0.465948,-0.096372,0.170822
558,-0.303811,-1.27396,2.340792,-0.087498,0.956267,-0.279086,-1.370079,-0.19833399999999998,-0.35054,-0.455913,-0.091933,0.12636
559,-0.395906,-1.298836,2.261802,-0.103585,0.9632459999999999,-0.24782600000000002,-1.648453,-1.0405719999999998,-0.7402380000000001,-0.343482,-0.168401,0.086677
560,-0.542027,-1.321717,2.1396189999999997,-0.127159,0.96914,-0.21116100000000002,-1.742441,-1.762663,-0.966432,0.239616,0.067008,-0.120244
561,-0.736374,-1.337928,1.9959580000000001,-0.154971,0.973008,-0.170963,-1.6196709999999999,-3.248723,-0.8066409999999999,0.391467,0.027219999999999998,-0.174267
562,-0.941624,-1.347361,1.8528689999999999,-0.179133,0.975142,-0.130381,-1.470932,-3.033461,-0.6883739999999999,0.41771899999999995,-0.13276500000000002,-0.207265
563,-1.130687,-1.352808,1.695573,-0.195634,0.976334,-0.092127,-1.539016,-1.452808,-0.575507,0.238893,0.172576,-0.561346
564,-1.275915,-1.35215,1.579749,-0.207521,0.9761920000000001,-0.063032,-0.8841389999999999,-1.8285099999999999,-0.429446,0.208177,0.154774,-0.5714899999999999
565,-1.365206,-1.347615,1.5353510000000001,-0.216646,0.975198,-0.045179000000000004,-0.193214,-2.507896,-0.294462,0.182725,0.06951,-0.5185420000000001
566,-1.423078,-1.3440590000000001,1.5253219999999998,-0.222325,0.974405,-0.033082,-0.095569,-2.205351,-0.11470699999999999,0.10666300000000001,-0.24123499999999998,-0.20323
567,-1.480842,-1.345586,1.499191,-0.222381,0.9747469999999999,-0.020058000000000003,-0.42828900000000003,-1.2134129999999999,0.131662,0.108123,-0.365952,-0.219993
568,-1.538611,-1.35018,1.4554799999999999,-0.218689,0.9757629999999999,-0.0070409999999999995,-0.5282680000000001,-0.567918,0.233754,0.081238,-0.516763,-0.278497
569,-1.571808,-1.351414,1.425972,-0.217598,0.976032,0.00022,-0.0018739999999999998,0.144246,-0.095699,0.034157,-0.383671,0.229852
570,-1.4936399999999999,-1.348532,1.498981,-0.219756,0.9754010000000001,-0.016988999999999997,1.13951,0.00643,-0.186894,0.097365,-0.107252,0.139502
571,-1.469399,-1.3427790000000002,1.566964,-0.224859,0.974117,-0.022879,0.485892,-3.238224,-0.196916,0.007178,0.16986500000000002,-0.137217
572,-1.505663,-1.339344,1.576222,-0.228879,0.973334,-0.014929,-0.07710499999999999,-0.947318,-0.11619000000000002,-0.15973199999999999,0.666772,-0.099924
573,-1.516966,-1.339186,1.556452,-0.229187,0.973298,-0.012348999999999999,-0.095162,0.640484,0.030132,0.07110599999999999,0.054366,-0.08759600000000001
574,-1.46212,-1.340144,1.594449,-0.22724,0.973517,-0.024793,0.5292020000000001,0.797675,0.138978,0.12142,-0.084327,0.00543
575,-1.433318,-1.342708,1.619248,-0.22395700000000002,0.974101,-0.030985000000000002,0.153885,0.131077,0.13186900000000001,0.09174,0.104696,0.42534799999999995
576,-1.428613,-1.34554,1.614531,-0.221077,0.9747370000000001,-0.031647,-0.338341,0.5396449999999999,0.15034,-0.15448699999999999,0.451075,0.247223
577,-1.5497370000000001,-1.344519,1.496579,-0.224275,0.974508,-0.004724,-1.7606529999999998,-0.760256,-0.414473,0.329637,0.263086,-0.348166
578,-1.6690099999999999,-1.335625,1.3853,-0.231859,0.972474,0.022844999999999997,-0.758215,-0.29325999999999997,-0.319407,0.37207199999999996,-0.230363,-0.20573699999999998
579,-1.6585279999999998,-1.329832,1.397702,-0.237695,0.971108,0.020907,0.44438999999999995,-0.021486,-0.328446,0.289956,-0.228555,-0.016878999999999998
580,-1.637653,-1.321944,1.424418,-0.24571700000000002,0.969196,0.016452,0.069248,-0.5384369999999999,-0.46286400000000005,0.204915,-0.277423,0.18273599999999998
581,-1.6870900000000002,-1.310826,1.39904,-0.25529,0.966398,0.029823000000000002,-0.637152,-1.607269,-0.559363,0.20682899999999999,0.026187000000000002,-0.34317800000000004
582,-1.805464,-1.295943,1.306958,-0.263944,0.962465,0.06310199999999999,-1.714775,-1.074362,-0.49173,0.25868,0.206175,-0.693
583,-1.8888630000000002,-1.278314,1.219317,-0.273847,0.9575309999999999,0.090163,-0.940458,0.49968100000000004,-0.5214529999999999,0.210798,0.138294,-0.676619
584,-1.875217,-1.267309,1.233782,-0.285089,0.9543,0.089571,0.506367,-0.547764,-0.640328,0.172448,0.13311800000000001,-0.766878
585,-1.842022,-1.2578850000000001,1.2973729999999999,-0.296557,0.951441,0.082466,0.8888729999999999,-1.754409,-0.783524,0.16054000000000002,0.113454,-0.926933
586,-1.788962,-1.246199,1.3893360000000001,-0.311348,0.947779,0.069024,1.561483,-1.6386630000000002,-1.007574,0.020653,0.062551,-0.61625
587,-1.688625,-1.231326,1.527382,-0.33066100000000004,0.942931,0.039143,2.399499,-1.362184,-1.077919,0.053943,0.5038,-0.360325
588,-1.549427,-1.218229,1.697082,-0.34521199999999996,0.9384889999999999,-0.007378,3.0752740000000003,-0.836825,-0.643378,0.246915,0.74631,-0.321815
589,-1.3912309999999999,-1.2013770000000001,1.8824610000000002,-0.355254,0.9325370000000001,-0.064486,3.462518,-0.825361,-0.38324600000000003,0.442855,0.689106,0.227541
590,-1.2315690000000001,-1.1812690000000001,2.067243,-0.358098,0.9250889999999999,-0.126361,3.602718,-0.26206399999999996,0.085961,0.47772700000000007,0.607351,0.754062
591,-1.072498,-1.160174,2.238457,-0.350628,0.9168729999999999,-0.190775,3.3325620000000002,0.251131,0.652778,0.160412,0.685651,1.019175
592,-0.9275329999999999,-1.147584,2.366556,-0.32860300000000003,0.911774,-0.24633000000000002,1.713497,2.192743,0.8205790000000001,-0.11362699999999999,0.7596430000000001,0.990318
593,-0.8606719999999999,-1.1544969999999999,2.3947599999999998,-0.306625,0.914592,-0.263619,-0.45974799999999993,1.479031,0.5681,-0.057617999999999996,0.5949760000000001,0.103021
594,-0.8511479999999999,-1.174787,2.391865,-0.290083,0.922608,-0.254242,-0.663288,0.400502,0.861821,0.058012,0.5387109999999999,0.092712
595,-0.815415,-1.195981,2.409765,-0.266517,0.930575,-0.25097800000000003,-0.412329,1.38625,1.084501,-0.171426,0.29525500000000005,0.29233000000000003
596,-0.75552,-1.223433,2.4348330000000002,-0.233406,0.9402739999999999,-0.247788,-0.830484,1.981814,1.427989,-0.18244100000000002,0.183124,0.345383
597,-0.6928810000000001,-1.261792,2.459261,-0.194244,0.9526370000000001,-0.233975,-1.4011930000000001,1.656232,1.5579479999999999,-0.053848,0.151672,0.346555
598,-0.698692,-1.305884,2.454016,-0.1684,0.965115,-0.200462,-1.91805,-1.185865,1.192647,0.146869,-0.102139,0.373192
599,-0.7762819999999999,-1.351135,2.412848,-0.152653,0.9759709999999999,-0.155461,-1.9095380000000002,-1.734236,1.123975,0.405659,-0.02248,0.196233
600,-0.8420110000000001,-1.382622,2.372538,-0.13953,0.982347,-0.12456300000000001,-1.025782,-1.429608,0.635171,0.308719,-0.042315,0.020543000000000002
601,-0.904868,-1.3926319999999999,2.358206,-0.13933800000000002,0.9841709999999999,-0.109471,-0.076088,-3.099053,0.118379,-0.18800799999999998,-0.309076,0.047062
602,-0.965508,-1.386335,2.3763400000000003,-0.15081,0.983035,-0.10435,0.46169,-4.222015,-0.306919,-0.192619,-0.44397299999999995,0.115245
603,-1.03614,-1.373713,2.3885110000000003,-0.168464,0.980642,-0.099763,0.386961,-4.000265,-0.55128,-0.141793,-0.446035,0.02356
604,-1.106943,-1.358401,2.396011,-0.18850999999999998,0.9775290000000001,-0.094303,0.511475,-3.9448519999999996,-0.663713,-0.076886,-0.30695100000000003,-0.276958
605,-1.167079,-1.341906,2.4238299999999997,-0.20863800000000002,0.9739190000000001,-0.089126,0.667549,-4.744679,-0.581481,0.24788400000000002,-0.029934,-0.44790699999999994
606,-1.227943,-1.330684,2.458762,-0.223953,0.971311,-0.07994,0.52336,-4.387824,-0.187703,0.337937,0.048174,-0.564866
607,-1.23715,-1.331442,2.503278,-0.223985,0.971491,-0.07763400000000001,0.43891199999999997,-1.437055,0.428562,0.393296,0.10478699999999999,-0.654147
608,-1.192656,-1.33782,2.571266,-0.214547,0.972984,-0.085231,0.8378180000000001,-1.26029,0.633016,0.208367,-0.403327,0.11439
609,-1.111966,-1.339963,2.679825,-0.20511,0.973476,-0.101323,1.095998,-0.8645950000000001,0.5563319999999999,0.268922,-0.519573,0.321202
610,-1.0468389999999999,-1.341123,2.747113,-0.197103,0.973741,-0.11389200000000001,0.345156,0.37683099999999997,0.31342,0.385565,-0.606553,0.390488
611,-1.023872,-1.3412680000000001,2.747432,-0.19431400000000001,0.973774,-0.11831400000000002,-0.070208,1.899525,-0.228748,-0.8013979999999999,3.01701,-0.693331
612,-1.007743,-1.342761,2.708365,-0.191151,0.9741120000000001,-0.120657,-0.796215,1.559312,0.49728,-0.376064,3.179666,-2.315775
613,-0.818009,-1.325248,2.913663,-0.17739100000000002,0.9700040000000001,-0.166183,4.032813,-0.437221,0.358381,0.15728,-0.38428,1.443114
614,-0.6387,-1.278938,3.088545,-0.171525,0.9577110000000001,-0.23100199999999999,2.376878,0.330845,0.195211,0.140672,-1.019158,1.005156
615,-0.6295390000000001,-1.259897,3.1283279999999998,-0.180107,0.952059,-0.247261,0.534844,-2.100594,-0.21832800000000002,-0.135323,-0.718538,1.1301350000000001
616,-0.689587,-1.2473319999999999,3.1163950000000002,-0.202217,0.94814,-0.245218,0.573084,-2.8328599999999997,-0.674301,-0.079735,0.473628,1.165704
617,-0.744921,-1.223131,3.137753,-0.230961,0.9401709999999999,-0.250458,1.441749,-4.215285,-0.437863,0.13625,0.748016,0.961197
618,-0.8014359999999999,-1.207775,-3.104229,-0.255081,0.9348280000000001,-0.24702800000000003,0.21431999999999998,-5.281265,0.268502,0.24427800000000002,0.731065,0.170749
619,-1.032538,-1.243052,3.0939520000000003,-0.276381,0.9467709999999999,-0.165017,-2.88845,-8.41496,0.7400899999999999,-0.067583,0.249915,0.386422
620,-1.2800200000000002,-1.280356,2.970095,-0.274338,0.958118,-0.082098,-2.005977,-4.389937000000001,0.937649,-0.356064,0.286419,-0.36535100000000004
621,-1.367037,-1.29555,2.918203,-0.26614499999999996,0.962358,-0.05499299999999999,-0.29207,-1.2522790000000001,0.412558,-0.209319,0.067076,-0.279007
622,-1.389194,-1.30189,2.931707,-0.261292,0.9640620000000001,-0.04798,0.228471,-2.127055,0.274173,0.092286,-0.053082000000000004,0.273733
623,-1.417334,-1.305242,2.947405,-0.259344,0.9649469999999999,-0.040115,0.064596,-2.090032,0.215297,0.137243,-0.248486,0.373535
624,-1.483992,-1.312337,2.915639,-0.25461300000000003,0.966785,-0.022157,-0.800191,-1.612459,0.349649,0.068944,-0.29845,0.340486
625,-1.603083,-1.318763,2.8230060000000003,-0.249225,0.968407,0.00805,-1.296107,-1.468504,0.211405,-0.048320999999999996,-0.234475,0.206367
626,-1.737997,-1.317662,2.716895,-0.246928,0.968132,0.041676,-1.370639,-1.642116,0.002804,-0.06783099999999999,-0.24775,0.128826
627,-1.882679,-1.30798,2.6016310000000002,-0.24724899999999997,0.9656620000000001,0.079714,-1.672808,-1.671097,-0.212914,0.007411,-0.22902899999999998,-0.031938999999999995
628,-2.028428,-1.287252,2.4841130000000002,-0.250956,0.9600700000000001,0.123597,-1.932766,-1.5702450000000001,-0.432777,0.124232,-0.148546,-0.124573
629,-2.144711,-1.260377,2.389875,-0.256502,0.952206,0.16583,-1.755293,-1.096482,-0.515465,0.22142199999999998,0.022251,-0.096738
630,-2.209262,-1.234776,2.335972,-0.264764,0.944074,0.196498,-1.239007,-0.4642,-0.573558,0.322809,0.136767,-0.138758
631,-2.245841,-1.2149,2.307373,-0.271998,0.937334,0.217734,-0.8636940000000001,-0.592921,-0.410538,0.374797,0.170515,-0.268287
632,-2.28605,-1.201185,2.285039,-0.272706,0.9324680000000001,0.23690100000000003,-0.686263,-1.261242,-0.200139,0.271119,0.071927,-0.731317
633,-2.342056,-1.192708,2.27007,-0.264677,0.929372,0.257297,-0.27984899999999996,-2.621208,-0.117577,-0.117022,0.080195,-1.058246
634,-2.365768,-1.1943219999999999,2.299876,-0.25745100000000004,0.929966,0.262428,0.9104469999999999,-2.134846,-0.49871899999999997,-0.337443,0.134029,-0.752922
635,-2.306044,-1.202278,2.380137,-0.26715900000000004,0.9328620000000001,0.24162199999999998,1.4816040000000001,0.005639,-0.813666,0.12124000000000001,0.468413,-0.5681149999999999
636,-2.2036540000000002,-1.216007,2.4849669999999997,-0.280102,0.9377200000000001,0.20545500000000003,2.139415,-0.043631,-0.518452,0.409085,0.561883,-0.631832
637,-2.0787240000000002,-1.23916,2.633944,-0.284469,0.9455110000000001,0.15834700000000002,3.113243,-1.0556969999999999,-0.28389000000000003,0.564071,0.729019,-0.438331
638,-1.8959759999999999,-1.267051,2.847013,-0.283401,0.9542229999999999,0.09554800000000001,3.887774,-1.0020719999999999,0.019486,0.584717,0.8687290000000001,0.110598
639,-1.661741,-1.286106,3.128629,-0.279679,0.959749,0.025506,4.21494,-2.167974,0.12474600000000001,0.5567489999999999,0.759627,0.343574
640,-1.4136309999999999,-1.2887790000000001,-2.857272,-0.27484400000000003,0.9604959999999999,-0.043555,4.079606,-1.4100219999999999,0.372793,0.48117299999999996,0.492095,0.888709
641,-1.164965,-1.279191,-2.5878759999999996,-0.26412199999999997,0.957784,-0.113489,3.472222,0.040583999999999995,0.7074550000000001,0.090507,0.433558,0.647714
642,-0.9851790000000001,-1.267205,-2.417007,-0.24912199999999998,0.954269,-0.165225,1.8666909999999999,1.169339,0.610404,0.012687,0.449738,0.6096060000000001
643,-0.8717030000000001,-1.2652729999999999,-2.318977,-0.23022199999999998,0.9536899999999999,-0.193557,0.9977600000000001,0.7255699999999999,0.9841219999999999,-0.027041000000000003,0.185867,0.425994
644,-0.772933,-1.2706469999999999,-2.2219290000000003,-0.206432,0.955292,-0.21164299999999997,0.834203,0.18082,1.2240280000000001,0.062999,0.29333400000000004,0.26669699999999996
645,-0.672932,-1.274986,-2.120115,-0.181686,0.956566,-0.227952,0.769894,0.194573,1.303677,0.190551,0.133644,0.397492
646,-0.565703,-1.280135,-2.016105,-0.153604,0.9580549999999999,-0.24192600000000003,0.619133,0.448273,1.393098,0.162271,0.041868999999999996,0.517744
647,-0.47398100000000004,-1.282417,-1.9169490000000002,-0.129802,0.958706,-0.25303200000000003,0.580492,-0.701493,1.243682,0.14918,-0.136425,0.544246
648,-0.412579,-1.283442,-1.820136,-0.11363599999999999,0.958997,-0.25961999999999996,0.501622,-2.054334,1.297208,0.171497,-0.147092,0.5125649999999999
649,-0.369821,-1.285144,-1.724118,-0.101844,0.959478,-0.262718,0.402505,-2.547046,1.255486,0.122001,-0.161962,0.46141800000000005
650,-0.336492,-1.286744,-1.637014,-0.092527,0.9599280000000001,-0.264517,0.319918,-2.523916,1.137375,-0.192904,-0.15775799999999998,0.320959
651,-0.317389,-1.288822,-1.564281,-0.08683400000000001,0.960508,-0.26434,0.14285,-2.500036,0.913918,-0.240864,-0.187757,0.35333000000000003
652,-0.311798,-1.292934,-1.508465,-0.084143,0.961644,-0.26106,8.9e-05,-2.397613,0.73226,-0.25062,-0.200352,0.335889
653,-0.313312,-1.297089,-1.461484,-0.08330499999999999,0.9627760000000001,-0.257128,0.0033299999999999996,-2.227936,0.655153,-0.24053200000000002,-0.162498,0.148226
654,-0.304896,-1.3008520000000001,-1.415137,-0.08005,0.963786,-0.254363,0.028941,-1.5280850000000001,0.641616,-0.264203,-0.165415,0.11071700000000001
655,-0.289458,-1.302589,-1.3735540000000002,-0.075636,0.964247,-0.25396399999999997,0.112276,-1.1847219999999998,0.483662,-0.283815,-0.202254,-0.012440000000000001
656,-0.287953,-1.299748,-1.3456,-0.076031,0.963491,-0.256703,0.309571,-1.240759,0.20737399999999998,-0.22214099999999998,-0.173726,-0.162959
657,-0.305458,-1.290426,-1.335481,-0.08321100000000001,0.9609530000000001,-0.263888,0.6167020000000001,-1.59738,-0.120104,-0.105174,-0.090805,-0.237333
658,-0.34539200000000003,-1.2751940000000002,-1.334797,-0.098625,0.956627,-0.274099,0.728776,-2.209705,-0.269156,0.11438699999999999,-0.136375,-0.08726
659,-0.390123,-1.25976,-1.3331819999999999,-0.11638399999999999,0.952017,-0.283037,0.759957,-2.375006,-0.250567,0.23168000000000002,-0.151816,-0.020781
660,-0.43351300000000004,-1.242977,-1.3263850000000001,-0.135246,0.9467469999999999,-0.29218299999999997,0.812351,-2.5659549999999998,-0.22966,0.334938,-0.148849,-0.034233
661,-0.476837,-1.229235,-1.3173190000000001,-0.153731,0.942233,-0.297584,0.577095,-2.570926,-0.11486099999999999,0.345168,-0.04378,-0.121697
662,-0.5128510000000001,-1.222259,-1.305405,-0.167567,0.939873,-0.297576,0.335819,-2.162914,0.09123400000000001,0.163508,0.093635,-0.217073
663,-0.5303140000000001,-1.217183,-1.285344,-0.175149,0.9381280000000001,-0.298716,0.44968500000000006,-1.642834,0.202458,-0.062537,0.09122999999999999,-0.246023
664,-0.536651,-1.211589,-1.259792,-0.17971800000000002,0.936176,-0.302105,0.453211,-1.5067469999999998,0.26640199999999997,-0.152328,0.077237,-0.25564899999999996
665,-0.5432819999999999,-1.208064,-1.233757,-0.183422,0.934931,-0.30373,0.340831,-1.525774,0.32653000000000004,-0.096576,-0.037165,-0.14795999999999998
666,-0.543955,-1.206547,-1.206285,-0.184361,0.934391,-0.304821,0.319683,-1.172326,0.40070500000000003,-0.20574499999999998,-0.16692,-0.085713
667,-0.541136,-1.205072,-1.180145,-0.18421099999999999,0.933865,-0.30651999999999996,0.254256,-1.100379,0.315791,-0.279748,0.02634,-0.17802300000000001
668,-0.556449,-1.206238,-1.171918,-0.188308,0.9342809999999999,-0.302739,-0.072087,-1.101365,0.046457,-0.253877,0.5912310000000001,-0.147304
669,-0.57153,-1.2089860000000001,-1.171511,-0.191462,0.935258,-0.29770399999999997,-0.218885,-0.684665,0.12928699999999999,-0.20573899999999998,1.70433,-0.38424200000000003
670,-0.586028,-1.209224,-1.179685,-0.195635,0.935342,-0.294712,0.40729499999999996,0.277945,-0.313021,-0.22651500000000002,0.30536599999999997,1.0954780000000002
671,-0.507326,-1.1758520000000001,-1.149643,-0.186926,0.923018,-0.336287,2.030549,3.656905,-0.364765,-0.150705,-0.76039,1.327956
672,-0.432296,-1.155183,-1.140734,-0.169151,0.914869,-0.366601,0.224369,2.5836770000000002,-0.273456,-0.305093,-0.505689,0.8729030000000001
673,-0.43773900000000004,-1.166627,-1.179829,-0.166694,0.919429,-0.356168,-1.19984,0.981825,-0.717186,-0.18445599999999998,-0.130581,1.0048190000000001
674,-0.496357,-1.176709,-1.2472299999999998,-0.18285,0.9233469999999999,-0.337622,-0.831174,-0.34782199999999996,-0.9906450000000001,-0.14201,0.248131,0.7771359999999999
675,-0.569278,-1.177463,-1.2991979999999999,-0.20658600000000002,0.923637,-0.322816,-0.397029,-1.760833,-0.7208829999999999,0.148359,0.43274799999999997,0.379091
676,-0.680616,-1.184788,-1.355446,-0.236911,0.9264190000000001,-0.292597,-1.563368,-3.8048040000000003,-0.582201,0.42995,0.391803,-0.043706
677,-0.849909,-1.215907,-1.457268,-0.26103000000000004,0.937685,-0.22935100000000003,-2.563628,-2.885363,-0.009253,0.327665,0.183637,0.024227000000000002
678,-0.927092,-1.240789,-1.529854,-0.259189,0.94604,-0.194474,-1.1078219999999999,0.411685,0.32143,0.092654,-0.006099,-0.39323400000000003
679,-0.9377559999999999,-1.254105,-1.5443,-0.251069,0.9502709999999999,-0.184229,-0.486104,-0.074322,0.37553400000000003,-0.14372200000000002,-0.05725,-0.046514
680,-0.9664299999999999,-1.266727,-1.563409,-0.24635700000000002,0.954126,-0.170126,-0.690392,-0.723186,0.31405,-0.047879000000000005,-0.09728400000000001,0.035283999999999996
681,-1.027842,-1.278493,-1.605967,-0.24670300000000003,0.957583,-0.148873,-0.9151549999999999,-1.357415,0.07401100000000001,-0.027543,-0.07814199999999999,-0.155448
682,-1.116296,-1.286373,-1.663,-0.252101,0.959824,-0.123181,-0.828377,-1.663916,-0.07560900000000001,-0.043552999999999994,-0.14616400000000002,-0.201236
683,-1.177286,-1.28918,-1.708655,-0.256651,0.960607,-0.106552,-0.522853,-0.24141300000000002,-0.16396,0.113508,-0.10668,-0.16256700000000002
684,-1.193437,-1.288551,-1.7301520000000001,-0.258899,0.960433,-0.10261600000000001,-0.108872,0.280031,-0.121145,0.163684,-0.062987,-0.23001100000000002
685,-1.196944,-1.286694,-1.738647,-0.260917,0.9599139999999999,-0.102358,-0.122025,0.173664,-0.14994200000000002,0.028572000000000004,-0.10826,-0.2395
686,-1.206919,-1.283691,-1.752547,-0.264617,0.959068,-0.100776,-0.124588,0.238963,-0.226956,0.079421,-0.199485,-0.123422
687,-1.201616,-1.279424,-1.7585490000000001,-0.267894,0.957851,-0.103654,0.042039,0.76884,-0.213652,0.12441500000000001,-0.195338,-0.064529
688,-1.186877,-1.277428,-1.7646950000000001,-0.26810900000000004,0.957275,-0.108306,-0.12123699999999998,1.148039,-0.062523,0.12496600000000001,-0.102386,-0.414551
689,-1.162083,-1.2773940000000001,-1.766252,-0.265371,0.9572649999999999,-0.114933,0.15403,1.438758,-0.009698,0.359365,-0.484213,-0.17690699999999998
690,-1.102842,-1.272245,-1.7351,-0.262497,0.955764,-0.132665,0.6316579999999999,1.3423690000000001,-0.028671,0.383133,-0.484572,-0.006297
691,-1.055498,-1.2694,-1.7052330000000002,-0.25829,0.954923,-0.146279,0.347234,0.681053,0.16247,0.309361,-0.37296799999999997,0.037712999999999997
692,-1.01704,-1.272255,-1.675042,-0.250155,0.955766,-0.154667,0.417256,0.619031,0.426889,0.480472,0.35990700000000003,-0.239711
693,-0.935817,-1.273132,-1.6103450000000001,-0.236107,0.956024,-0.173956,0.918132,0.962569,0.661752,0.44033100000000003,0.452301,-0.335901
694,-0.820951,-1.269506,-1.5087899999999999,-0.21715,0.9549540000000001,-0.202233,1.542044,0.8934719999999999,0.8830469999999999,0.376619,0.46325900000000003,-0.34084200000000003
695,-0.661796,-1.248414,-1.362228,-0.194692,0.948483,-0.24993,2.802396,1.071907,0.9888309999999999,0.084096,0.39281,-0.179788
696,-0.48843500000000006,-1.203178,-1.207553,-0.168638,0.9331860000000001,-0.317359,3.563361,1.508546,0.893174,0.058041999999999996,0.408107,-0.11235899999999999
697,-0.35875,-1.137281,-1.096036,-0.147483,0.907495,-0.393312,3.9370019999999997,1.1679329999999999,0.5009779999999999,-0.023049,-0.144738,0.727892
698,-0.287085,-1.0708360000000001,-1.023405,-0.135742,0.8776010000000001,-0.459765,3.406167,-0.128876,0.520296,-0.094849,-0.45052299999999995,0.782854
699,-0.24197399999999997,-1.020225,-0.961751,-0.125361,0.852226,-0.507927,2.385535,-0.36009800000000003,1.15226,0.026347000000000002,-0.29646999999999996,0.864891
700,-0.17921800000000002,-1.0085469999999999,-0.8903979999999999,-0.095028,0.846058,-0.524547,0.013841,0.306068,2.049238,0.30141799999999996,0.21419899999999997,1.199626
701,-0.09666699999999999,-1.034375,-0.813304,-0.049325,0.8595430000000001,-0.508671,-1.34886,1.222574,2.0727279999999997,-0.30477,0.372985,0.41244899999999995
702,-0.018054,-1.06501,-0.75378,-0.008747,0.8747940000000001,-0.48441000000000006,-1.42059,1.262484,1.2133260000000001,-0.316967,0.17760499999999999,0.28542
703,0.022359999999999998,-1.093192,-0.728895,0.010277,0.888099,-0.459531,-1.443551,0.636918,0.23120300000000002,-0.287102,0.036264,0.269391
704,0.020965,-1.126449,-0.733275,0.009012000000000001,0.902891,-0.429766,-1.824413,-0.122374,-0.299255,-0.5135890000000001,-0.148619,0.27557600000000004
705,-0.008221,-1.1683540000000001,-0.755253,-0.00322,0.920107,-0.391644,-2.262872,-0.613019,-0.563403,-0.508728,-0.18257400000000001,0.24802800000000003
706,-0.06861,-1.2185489999999999,-0.802139,-0.023652,0.9386,-0.34418499999999996,-2.714428,-0.989402,-0.885473,-0.45330699999999996,-0.21099899999999996,0.16983800000000002
707,-0.17845999999999998,-1.277607,-0.8846959999999999,-0.0513,0.957327,-0.284401,-3.287094,-2.153747,-0.922164,-0.246216,-0.200598,-0.255195
708,-0.360501,-1.3276219999999999,-1.009958,-0.084928,0.9705790000000001,-0.225287,-2.1832740000000004,-3.315064,-1.0379479999999999,-0.114276,-0.161436,-0.359048
709,-0.541121,-1.334041,-1.12963,-0.120804,0.9721040000000001,-0.20102,-0.348144,-3.177177,-1.147083,-0.15524300000000002,0.032519,-0.5320729999999999
710,-0.667952,-1.328582,-1.205445,-0.148546,0.970809,-0.188289,-0.47287399999999996,-2.021553,-0.7232149999999999,-0.012006999999999999,0.36837800000000004,-0.6018720000000001
711,-0.77995,-1.33323,-1.295617,-0.165483,0.971914,-0.167296,-1.053148,-0.9418920000000001,-0.620761,0.17563,0.48266099999999995,-0.373842
712,-0.8829950000000001,-1.335383,-1.375928,-0.180196,0.972418,-0.148057,-0.444029,-1.561251,-0.5078229999999999,0.5057119999999999,0.059992,-0.189925
713,-0.943364,-1.329165,-1.3978,-0.193692,0.970949,-0.140463,0.06302200000000001,-2.016546,-0.309281,0.384365,-0.25274800000000003,-0.310281
714,-0.981426,-1.328737,-1.400433,-0.199242,0.9708459999999999,-0.133222,-0.05910599999999999,-1.451165,0.132454,0.308769,-0.403509,-0.18593099999999999
715,-0.9618979999999999,-1.329291,-1.3720809999999999,-0.196161,0.970979,-0.13677899999999998,0.615413,0.21925999999999998,0.328373,0.18165,-0.273927,0.826369
716,-0.8568889999999999,-1.319827,-1.273408,-0.187682,0.968672,-0.162597,1.32923,0.188196,0.285329,0.14276,-0.089049,0.797439
717,-0.845276,-1.3219610000000002,-1.233235,-0.18423499999999998,0.9692,-0.163394,-0.260554,-2.335699,0.396056,-0.10472100000000001,0.36638699999999996,0.133701
718,-0.973959,-1.339485,-1.2986959999999999,-0.189598,0.973367,-0.128833,-1.602493,-3.494339,0.13286199999999998,-0.604607,1.0513370000000002,-0.262998
719,-1.018227,-1.345314,-1.329995,-0.19028,0.974686,-0.117335,0.568226,1.112013,0.090847,-0.333753,0.077896,-0.32404
720,-0.895608,-1.337695,-1.226069,-0.180292,0.9729549999999999,-0.144366,1.055301,0.585012,0.389754,-0.39649,0.58718,-0.158979
721,-0.825176,-1.3300239999999999,-1.173216,-0.17516500000000002,0.9711540000000001,-0.16175599999999998,0.789167,1.516416,5e-06,0.085016,0.20629,0.643613
722,-0.7413810000000001,-1.316325,-1.11956,-0.169982,0.9677959999999999,-0.185646,0.821626,1.3661530000000002,-0.013462,0.157226,-0.10393499999999999,0.504448
723,-0.721748,-1.3123049999999998,-1.112695,-0.168874,0.966777,-0.191866,-0.151471,0.30888000000000004,-0.105431,0.17763299999999999,-0.23031100000000002,0.49873599999999996
724,-0.7581859999999999,-1.319061,-1.148918,-0.171256,0.968482,-0.18084,-0.745274,-0.30052399999999996,-0.10666099999999999,0.290565,-0.375983,0.366525
725,-0.828818,-1.331835,-1.2110239999999999,-0.174456,0.971584,-0.159928,-1.157057,-0.457042,-0.035629,0.47412299999999996,0.041294,-0.281173
726,-0.89585,-1.35332,-1.299024,-0.168434,0.9764450000000001,-0.134804,-1.343323,1.914467,0.340318,0.277611,0.46924899999999997,-0.877662
727,-0.8477129999999999,-1.3609280000000001,-1.288068,-0.15617799999999998,0.978058,-0.13783299999999998,0.418292,1.410059,0.278493,-0.025172,-0.014893,-0.122955
728,-0.804956,-1.356967,-1.252557,-0.152936,0.977225,-0.147068,0.247142,-0.127656,0.025032,0.034025,-0.127494,-0.25494
729,-0.790211,-1.352241,-1.234121,-0.154031,0.9762120000000001,-0.152555,0.534365,0.098497,-0.036277,0.120782,-0.11142,-0.44223199999999996
730,-0.711603,-1.336784,-1.165347,-0.15141400000000002,0.972744,-0.17558900000000002,1.362188,0.6703939999999999,0.08413999999999999,0.133958,0.043385,-0.39165700000000003
731,-0.6106689999999999,-1.3141559999999999,-1.073074,-0.145539,0.967248,-0.207938,1.726348,0.459582,0.272825,0.132493,0.094092,-0.354562
732,-0.511328,-1.283534,-0.97544,-0.138633,0.959023,-0.24707300000000001,2.072263,0.29425100000000004,0.292544,-0.086175,0.10623900000000001,-0.202253
733,-0.41804300000000005,-1.246744,-0.8935549999999999,-0.12925899999999999,0.947953,-0.290976,2.320503,0.8847940000000001,0.248656,-0.096616,0.07530099999999999,0.127768
734,-0.345829,-1.202152,-0.8274540000000001,-0.122146,0.932817,-0.33900399999999997,2.568613,0.259856,0.20525700000000002,-0.058945000000000004,0.126128,0.400756
735,-0.29890700000000003,-1.1545290000000001,-0.775704,-0.11906800000000001,0.9146040000000001,-0.38641,2.506597,-0.273517,0.17666500000000002,-0.056896,0.226127,0.560589
736,-0.23248400000000002,-1.138482,-0.725846,-0.096527,0.907999,-0.40769099999999997,1.107177,-0.9276459999999999,0.868482,0.19053699999999998,0.45502299999999996,0.7536229999999999
737,-0.212533,-1.1252149999999999,-0.683079,-0.090908,0.90236,-0.42127600000000004,1.117514,-0.840133,0.553316,-0.226109,0.068496,0.398617
738,-0.195678,-1.113365,-0.660091,-0.085868,0.8971899999999999,-0.43320699999999995,0.323302,-0.190997,0.347179,0.050589,0.307278,0.668956
739,-0.178874,-1.125529,-0.641439,-0.076629,0.902495,-0.42381800000000003,-1.113481,0.446524,0.671748,-0.18626500000000001,0.5294810000000001,0.39713000000000004
740,-0.133941,-1.1614360000000001,-0.61446,-0.053151,0.917376,-0.394446,-1.8809939999999998,1.2506059999999999,0.854432,-0.18441300000000002,-0.07635700000000001,0.147452
741,-0.086013,-1.20018,-0.590275,-0.031114,0.932104,-0.360838,-1.784893,1.152623,0.499511,-0.294951,-0.251379,0.144575
742,-0.068843,-1.2331889999999999,-0.585264,-0.022784,0.94355,-0.33043,-1.600942,0.313347,0.03399,-0.406202,-0.38416300000000003,0.137819
743,-0.098368,-1.265464,-0.6148239999999999,-0.029521,0.9537469999999999,-0.299139,-1.7011599999999998,-0.281466,-0.580175,-0.371129,-0.582791,0.20699099999999998
744,-0.185581,-1.2987879999999998,-0.69497,-0.049569999999999996,0.963233,-0.264033,-1.857686,-0.671098,-1.041173,-0.332754,-0.5938329999999999,0.154841
745,-0.324413,-1.327767,-0.816297,-0.076698,0.970613,-0.228068,-1.682186,-1.387084,-1.162943,-0.303948,-0.6087060000000001,0.132838
746,-0.5058189999999999,-1.341234,-0.954043,-0.110241,0.973766,-0.199033,-0.9897969999999999,-3.1012060000000004,-1.207185,-0.147999,-0.14236,-0.344042
747,-0.713545,-1.343245,-1.086185,-0.147636,0.9742219999999999,-0.170537,-1.047129,-3.899256,-1.1179,0.003929,-0.011453,-0.399028
748,-0.891051,-1.350065,-1.222683,-0.170256,0.9757379999999999,-0.13760799999999998,-1.369839,-1.389237,-0.629853,0.272307,0.10746900000000001,-0.361919
749,-1.02247,-1.351241,-1.324455,-0.18584,0.9759950000000001,-0.11351199999999999,-0.603982,-2.055909,-0.5424640000000001,0.579684,-0.012143000000000001,-0.57086
750,-1.0973629999999999,-1.345643,-1.34582,-0.198673,0.9747600000000001,-0.101779,0.199753,-2.919362,-0.29539299999999996,0.503406,-0.10539000000000001,-0.45330600000000004
751,-1.131222,-1.339633,-1.326478,-0.207304,0.9734,-0.097487,0.314695,-2.300604,-0.08707999999999999,0.48617299999999997,-0.199444,-0.381365
752,-1.137095,-1.340519,-1.3047540000000002,-0.20709,0.9736030000000001,-0.09590499999999999,0.16814,-0.554686,0.323061,-0.13464600000000002,0.045852,-0.6861689999999999
753,-1.0312860000000001,-1.342622,-1.2148079999999999,-0.194047,0.974081,-0.11618900000000001,1.7071290000000001,1.740891,0.609675,-0.18022,0.23066199999999998,-9.9e-05
754,-0.809739,-1.313005,-1.002419,-0.184591,0.9669549999999999,-0.175817,2.875686,-0.776375,0.401009,-0.61915,0.987894,-0.074641
755,-0.796018,-1.30525,-0.913127,-0.18751400000000001,0.964949,-0.18357300000000001,0.058673,-4.386544000000001,0.43296,-0.703752,1.121507,0.050714999999999996
756,-0.8176829999999999,-1.304466,-0.916818,-0.191998,0.964743,-0.17998499999999998,0.508886,1.184621,-0.166034,-0.049227999999999994,0.454736,0.806663
757,-0.741638,-1.2940399999999999,-0.8640469999999999,-0.184556,0.9619469999999999,-0.201458,0.655954,0.8596239999999999,0.260563,0.08963099999999999,0.345258,0.017681
758,-0.727366,-1.2973370000000002,-0.854982,-0.179551,0.962843,-0.201701,-0.330344,0.163626,0.14347000000000001,0.13536199999999998,0.407107,0.28580700000000003
759,-0.723517,-1.3053540000000001,-0.8599370000000001,-0.17365799999999998,0.9649770000000001,-0.196599,-0.273779,0.539995,0.279047,0.09890499999999999,0.32974699999999996,0.322377
760,-0.706666,-1.3129899999999999,-0.855771,-0.16552999999999998,0.966952,-0.19388699999999998,-0.331766,0.684049,0.268843,-0.05846900000000001,0.025907,0.3583
761,-0.72004,-1.325101,-0.8778219999999999,-0.16037300000000002,0.969968,-0.182837,-0.833894,0.162212,0.134613,-0.04324,-0.10332999999999999,0.12851600000000002
762,-0.7733270000000001,-1.340894,-0.929525,-0.15916,0.9736889999999999,-0.16305,-1.041735,-0.32154699999999997,0.079302,-0.017903,-0.158747,0.009882
763,-0.8526239999999999,-1.356111,-0.9993569999999999,-0.160398,0.977043,-0.14016199999999998,-1.124938,-0.650047,-0.01593,0.099775,0.015846000000000002,-0.299825
764,-0.936579,-1.368719,-1.0786639999999998,-0.16164800000000001,0.9796520000000001,-0.118907,-0.87665,0.03709,0.026585,0.126324,-0.016822,-0.367039
765,-0.961167,-1.376193,-1.114005,-0.15851300000000001,0.981124,-0.1107,-0.308854,0.655775,0.126966,0.114797,-0.031936,-0.46441899999999997
766,-0.9509690000000001,-1.378759,-1.11809,-0.155325,0.981617,-0.110848,0.036456999999999996,0.714622,0.029958,-0.031091000000000004,-0.170552,-0.419838
767,-0.9155709999999999,-1.3747770000000001,-1.097124,-0.15440399999999999,0.98085,-0.118657,0.414775,0.743578,-0.07851,-0.053375,-0.207931,-0.388255
768,-0.862092,-1.364918,-1.058416,-0.155177,0.9788819999999999,-0.13302999999999998,0.723923,0.827053,-0.17580199999999999,-0.062474,-0.237076,-0.27428800000000003
769,-0.802967,-1.3489959999999999,-1.013153,-0.15824100000000002,0.9755030000000001,-0.152776,1.008713,0.6753399999999999,-0.311419,-0.061653,-0.214852,-0.347193
770,-0.734097,-1.3254780000000002,-0.9556049999999999,-0.162682,0.97006,-0.180293,1.482457,0.6811619999999999,-0.313458,0.030677999999999997,-0.085096,-0.44013
771,-0.6299899999999999,-1.293434,-0.870447,-0.161304,0.961781,-0.22123800000000002,2.212936,1.362452,-0.02615,0.127582,-0.007741,-0.33682199999999995
772,-0.491072,-1.248823,-0.7571439999999999,-0.14921500000000001,0.9486129999999999,-0.27902899999999997,3.177564,1.498346,0.317972,0.088882,0.390407,0.054938
773,-0.387167,-1.1876209999999998,-0.665054,-0.141155,0.9274819999999999,-0.346182,3.401038,0.417284,0.076295,-0.034230000000000003,0.373909,0.486472
774,-0.33699,-1.129948,-0.607969,-0.141086,0.9043899999999999,-0.402696,2.914571,-0.359446,0.001253,-0.044308,0.334837,0.832536
775,-0.311177,-1.086294,-0.572952,-0.14260599999999998,0.884907,-0.44338999999999995,1.840138,-0.019554,0.116158,-0.133441,0.30839099999999997,0.92009
776,-0.27941900000000003,-1.072545,-0.552172,-0.131798,0.8784200000000001,-0.459348,0.113678,0.917467,0.385977,0.140816,0.26672199999999996,0.716443
777,-0.261855,-1.082139,-0.536607,-0.121523,0.882964,-0.45343,-0.591097,0.058254999999999994,0.613959,-0.07658200000000001,0.41188199999999997,0.47219799999999995
778,-0.22623600000000002,-1.107674,-0.5117550000000001,-0.100207,0.8946620000000001,-0.43535,-1.3179379999999998,0.704332,0.8473360000000001,-0.44515699999999997,0.434378,0.15709
779,-0.209223,-1.140405,-0.498409,-0.086656,0.908803,-0.408117,-1.682979,0.072142,0.48560600000000004,-0.233397,-0.100316,0.161047
780,-0.21665500000000001,-1.177976,-0.506422,-0.082285,0.923833,-0.373834,-1.9634330000000002,-0.035092,0.10670199999999999,-0.201239,-0.351659,0.140528
781,-0.250791,-1.21832,-0.541221,-0.08567000000000001,0.9385209999999999,-0.334408,-2.206373,-0.147608,-0.31573,-0.319481,-0.5213760000000001,0.257794
782,-0.32675,-1.260664,-0.616534,-0.09794800000000001,0.9522930000000001,-0.28902100000000003,-2.473015,-0.270857,-0.6977220000000001,-0.316511,-0.5648270000000001,0.301014
783,-0.454375,-1.300063,-0.734531,-0.117369,0.963575,-0.240283,-2.37288,-1.230161,-0.911574,-0.268144,-0.596815,0.231433
784,-0.649619,-1.318255,-0.876967,-0.151126,0.9682799999999999,-0.198953,-1.231986,-3.973148,-1.125485,-0.22579699999999997,-0.3745,-0.349173
785,-0.836678,-1.319077,-0.982073,-0.184897,0.9684860000000001,-0.166844,-1.1821270000000001,-3.630871,-0.717514,-0.0319,-0.22397899999999998,-0.110454
786,-1.005858,-1.331752,-1.105802,-0.199962,0.971565,-0.126746,-1.555981,-1.896942,-0.308946,0.232738,0.341729,-0.703607
