,attitude.roll,attitude.pitch,attitude.yaw,gravity.x,gravity.y,gravity.z,rotationRate.x,rotationRate.y,rotationRate.z,userAcceleration.x,userAcceleration.y,userAcceleration.z
0,0.627059,-1.0585229999999999,0.278144,0.287608,0.871632,-0.396908,1.0772629999999999,0.224394,0.350103,0.36804699999999996,0.8176220000000001,-0.077808
1,0.628015,-1.043158,0.27592300000000003,0.295822,0.8639979999999999,-0.407423,0.361392,0.052994000000000006,0.410484,0.325471,0.41131599999999996,-0.05575700000000001
2,0.634446,-1.041952,0.289878,0.299053,0.863391,-0.406351,-0.43947200000000003,-0.508131,0.23683,0.14210899999999999,-0.089251,-0.066839
3,0.638048,-1.05255,0.30934,0.295048,0.8686889999999999,-0.397899,-0.8327700000000001,-0.664512,-0.008204000000000001,0.080563,-0.158545,-0.05533300000000001
4,0.645913,-1.068337,0.329102,0.289876,0.876401,-0.384565,-0.9588899999999999,-0.337706,-0.10671099999999999,-0.073994,-0.144986,-0.057924
5,0.661664,-1.08543,0.350655,0.28665,0.8845040000000001,-0.368078,-0.981086,-0.068057,-0.121099,-0.137632,-0.122602,0.025411000000000003
6,0.680398,-1.102012,0.37107199999999996,0.28422800000000004,0.8921180000000001,-0.351193,-0.9268200000000001,0.077927,-0.179655,-0.148669,-0.23190100000000002,0.11585699999999999
7,0.6995180000000001,-1.120072,0.3897,0.280469,0.9001319999999999,-0.333311,-1.011296,0.126746,-0.326654,-0.19726300000000002,-0.377473,0.201261
8,0.7194189999999999,-1.144946,0.407107,0.27220500000000003,0.9106879999999999,-0.310722,-1.292843,0.309037,-0.647184,-0.166966,-0.649457,0.255119
9,0.74953,-1.1758899999999999,0.4292,0.262106,0.923033,-0.281616,-1.511207,0.551906,-0.720592,-0.137075,-0.6742229999999999,0.167282
10,0.78998,-1.206009,0.46157,0.25340999999999997,0.9342,-0.251098,-1.4473129999999998,0.47953900000000005,-0.5277729999999999,-0.124641,-0.272426,0.051467
11,0.8365940000000001,-1.2289,0.503069,0.24889099999999997,0.9421209999999999,-0.224627,-1.218927,0.31245,-0.23326999999999998,-0.073903,-0.235639,-0.0045899999999999995
12,0.882201,-1.244232,0.5476489999999999,0.247689,0.94715,-0.203843,-0.941192,0.118907,-0.025983999999999997,0.027381,-0.215171,-0.041976
13,0.922659,-1.250875,0.5870310000000001,0.25071,0.94926,-0.189855,-0.5696479999999999,0.192234,0.228618,0.035697,-0.167949,0.003774
14,0.9650489999999999,-1.250273,0.626257,0.259,0.9490709999999999,-0.179386,-0.462509,0.285742,0.46105100000000004,-0.003751,-0.11990799999999999,0.017002
15,1.0082959999999999,-1.247247,0.6672100000000001,0.268941,0.9481129999999999,-0.169551,-0.39821100000000004,0.11930299999999999,0.46919099999999997,-0.100896,0.314384,0.011287
16,1.012752,-1.240185,0.677091,0.275368,0.945844,-0.17189200000000002,0.382183,-0.401574,0.315076,-0.101021,0.642428,0.064318
17,0.9738180000000001,-1.230013,0.64241,0.276411,0.942493,-0.187879,0.920298,-0.170941,-0.017950999999999998,-0.038145,0.9529690000000001,0.292631
18,0.9341950000000001,-1.224559,0.593734,0.272882,0.9406559999999999,-0.201735,0.586729,0.5568960000000001,-0.32458899999999996,0.009161,0.0367,0.34527399999999997
19,0.939416,-1.226309,0.584098,0.272602,0.941249,-0.19933499999999998,-0.110599,0.727438,-0.011348,0.15263,-0.099986,-0.004584
20,0.948989,-1.220674,0.586539,0.278804,0.9393309999999999,-0.199802,0.400271,0.091468,0.344481,0.22221799999999997,0.383347,-0.050411000000000004
21,0.92338,-1.209349,0.5647760000000001,0.282064,0.935386,-0.21327800000000002,0.569723,-0.44286000000000003,0.087839,0.5596869999999999,0.661904,0.063407
22,0.9001290000000001,-1.209643,0.551772,0.276814,0.9354899999999999,-0.219608,0.011478,-0.5102300000000001,-0.162733,0.40339200000000003,0.160961,-0.141568
23,0.894041,-1.2102959999999998,0.551131,0.274995,0.9357209999999999,-0.220906,-0.003729,-0.14342,0.027902,0.19256500000000001,0.156717,-0.121807
24,0.906008,-1.207184,0.5638479999999999,0.279909,0.9346180000000001,-0.21939499999999998,-0.149474,0.10265999999999999,0.419675,0.19886600000000001,0.294615,0.031223
25,0.9416100000000001,-1.202382,0.597521,0.291166,0.9328989999999999,-0.211931,-0.47394899999999995,0.23204299999999997,0.579612,0.147249,0.111443,0.08655
26,0.9862350000000001,-1.202721,0.6414,0.30006700000000003,0.9330209999999999,-0.19855699999999998,-0.72488,0.142431,0.297032,0.042523000000000005,-0.035332,0.153803
27,1.0228959999999998,-1.209475,0.6785100000000001,0.301757,0.9354299999999999,-0.18413800000000002,-0.728863,0.098028,-0.050111,0.024461,-0.111731,0.224177
28,1.0553,-1.218504,0.709866,0.300202,0.938584,-0.170093,-0.671624,0.166352,-0.136325,-0.037293,-0.162248,0.24521300000000001
29,1.081228,-1.22686,0.7339060000000001,0.297579,0.941435,-0.15855999999999998,-0.484746,0.164796,-0.17561,-0.082048,-0.152555,0.205618
30,1.0966040000000001,-1.233016,0.74726,0.294819,0.943492,-0.151316,-0.22668000000000002,0.133023,-0.179108,-0.1722,-0.209377,0.085627
31,1.091167,-1.236613,0.736505,0.290979,0.944679,-0.151349,0.26548099999999997,0.338391,-0.28168699999999997,-0.176034,-0.328712,0.003889
32,1.065225,-1.237592,0.697599,0.286146,0.944999,-0.158398,0.683413,0.651582,-0.377446,-0.075513,-0.47563900000000003,0.074643
33,1.0281790000000002,-1.236557,0.64369,0.28092,0.94466,-0.16939300000000002,0.816929,0.6682319999999999,-0.394694,-0.009695,-0.531254,0.06009400000000001
34,0.990772,-1.2339200000000001,0.591797,0.276471,0.943792,-0.181145,0.766842,0.53594,-0.301939,0.11763299999999999,-0.542959,0.110069
35,0.957665,-1.229309,0.548135,0.27388,0.942258,-0.192699,0.721456,0.30015,-0.171631,0.171478,-0.44199799999999995,0.08453
36,0.92391,-1.222433,0.508942,0.272384,0.939933,-0.20573200000000003,0.7414609999999999,0.08456799999999999,-0.09003,0.172837,-0.41326,0.090758
37,0.888553,-1.215773,0.473178,0.269795,0.937638,-0.219176,0.642221,-0.206771,-0.140556,0.1777,-0.31602600000000003,0.186033
38,0.8482879999999999,-1.208704,0.440766,0.265719,0.935158,-0.234235,0.713179,-0.684718,-0.026217,0.034299,-0.02755,0.228223
39,0.8081149999999999,-1.194374,0.415745,0.26576,0.9299860000000001,-0.25395100000000004,0.882187,-0.872383,0.403561,-0.06683099999999999,0.336524,0.226989
40,0.784262,-1.170288,0.406045,0.275372,0.9208629999999999,-0.275999,1.020844,-0.603296,0.922273,-0.16080899999999998,0.564275,0.13656400000000002
41,0.771135,-1.138279,0.399021,0.292126,0.907913,-0.300581,1.429919,-0.185321,1.003643,-0.126248,0.74266,-0.117647
42,0.752544,-1.105193,0.376118,0.30685999999999997,0.893551,-0.327716,1.4954120000000002,0.23783200000000002,0.621135,0.0375,0.755787,-0.160169
43,0.737421,-1.081808,0.35334,0.315835,0.882808,-0.347694,1.0304389999999999,0.211923,0.31134,0.236396,0.600758,-0.178567
44,0.7238319999999999,-1.0662989999999999,0.337941,0.32011100000000003,0.875418,-0.362169,0.744269,-0.14793399999999998,0.241436,0.329853,0.6052649999999999,-0.144102
45,0.714696,-1.0522850000000001,0.33320700000000003,0.324798,0.8685579999999999,-0.374309,0.453217,-0.373573,0.443723,0.354889,0.780414,-0.092564
46,0.711388,-1.045658,0.343871,0.327309,0.8652549999999999,-0.379733,-0.164748,-0.749246,0.35443,0.10460599999999999,0.545115,-0.083799
47,0.709742,-1.0515649999999999,0.361908,0.323347,0.868201,-0.376388,-0.689905,-0.8973549999999999,0.019803,0.031847,0.24233400000000002,-0.043533999999999996
48,0.708561,-1.066136,0.380209,0.314636,0.875339,-0.367124,-0.9082889999999999,-0.8041050000000001,-0.19976,-0.129975,-0.018175999999999998,0.025876
49,0.713246,-1.084873,0.400186,0.305566,0.884244,-0.353179,-1.093437,-0.537882,-0.281511,-0.17130399999999998,-0.263974,0.120055
50,0.728992,-1.107271,0.42538100000000006,0.29782,0.894482,-0.333466,-1.291353,-0.218534,-0.317485,-0.169478,-0.501583,0.093338
51,0.754876,-1.131673,0.455467,0.291304,0.905125,-0.309653,-1.350894,0.030021,-0.352403,-0.169371,-0.550633,0.080389
52,0.785812,-1.15601,0.48578999999999994,0.285072,0.9152020000000001,-0.28483600000000003,-1.277005,0.23785599999999998,-0.44295200000000007,-0.169426,-0.6672779999999999,0.060395000000000004
53,0.81638,-1.179999,0.513405,0.277563,0.9246059999999999,-0.260876,-1.196827,0.21119699999999997,-0.505383,-0.149587,-0.605498,0.093227
54,0.8433,-1.20241,0.540859,0.268938,0.93291,-0.239467,-1.0851110000000002,-0.033387,-0.4434,-0.120592,-0.5513640000000001,0.089046
55,0.8680180000000001,-1.2197149999999999,0.5718880000000001,0.262415,0.939002,-0.22227800000000003,-0.9157770000000001,-0.326863,-0.192946,-0.059229,-0.410361,0.09074700000000001
56,0.8926709999999999,-1.2318360000000002,0.6084149999999999,0.258931,0.943101,-0.20858600000000002,-0.837512,-0.548325,-0.023336000000000003,-0.034184,-0.38610900000000004,0.08987300000000001
57,0.919842,-1.2422360000000001,0.649764,0.256686,0.946508,-0.19552,-0.8614280000000001,-0.596385,0.027833,-0.077563,-0.285161,0.068735
58,0.9499139999999999,-1.250552,0.693968,0.256036,0.949159,-0.18312799999999999,-0.766863,-0.5843189999999999,0.126751,-0.226083,0.12741,0.104835
59,0.9811549999999999,-1.2534969999999999,0.736784,0.259307,0.950082,-0.173486,-0.538501,-0.339978,0.36304200000000003,-0.188995,0.129646,0.087991
60,1.0094450000000001,-1.249059,0.7668159999999999,0.267678,0.9486870000000001,-0.168325,-0.06021900000000001,0.060654,0.458804,-0.175027,0.141767,0.00414
61,0.994657,-1.2362440000000001,0.752019,0.275333,0.944557,-0.178874,0.915687,-0.106395,0.362218,-0.165775,0.706901,0.230785
62,0.955575,-1.224927,0.708155,0.27684699999999995,0.940781,-0.195653,0.7207520000000001,0.372632,-0.180278,-0.135916,0.960907,0.48998
63,0.940683,-1.224559,0.681659,0.27418200000000004,0.9406559999999999,-0.199958,0.382907,0.449456,-0.184873,0.125079,1.010882,0.114005
64,0.913805,-1.214509,0.6406729999999999,0.276181,0.937198,-0.213017,1.0128110000000001,0.817951,0.090383,0.45819399999999993,0.801876,0.109044
65,0.902475,-1.2000979999999999,0.611218,0.284323,0.932074,-0.22448,0.710518,0.695709,0.286049,0.504617,-0.210929,-0.138435
66,0.887445,-1.192358,0.587923,0.286504,0.929243,-0.23327699999999998,0.469021,0.066082,-0.024615,0.28971399999999997,-0.035566,-0.101577
67,0.8786229999999999,-1.1905860000000001,0.581704,0.285702,0.928587,-0.236846,-0.083855,-0.20371,-0.008903,0.190083,0.162173,0.018874000000000002
68,0.891689,-1.1958520000000001,0.596951,0.284963,0.930528,-0.23001799999999997,-0.511224,0.081358,-0.064597,0.09476799999999999,0.27986,0.093803
69,0.914638,-1.2063979999999999,0.614011,0.282375,0.9343379999999999,-0.217419,-0.598983,0.5129199999999999,-0.28581599999999996,0.14081300000000002,0.334873,0.16573800000000002
70,0.9526100000000001,-1.217647,0.638936,0.28184000000000003,0.9382879999999999,-0.200438,-0.739047,0.841939,-0.12698299999999998,0.20775300000000002,0.055211,0.13378800000000002
71,1.003929,-1.227671,0.675245,0.283802,0.941708,-0.18065699999999998,-0.792898,0.818332,-0.037598,0.13280799999999998,-0.079312,0.074394
72,1.052007,-1.235416,0.710959,0.285814,0.944285,-0.163187,-0.666531,0.681556,-0.041881,0.056914,-0.245265,0.054331
73,1.084751,-1.246459,0.733192,0.281765,0.9478620000000001,-0.148862,-0.545945,0.516597,-0.452093,-0.016735,-0.130754,0.027645999999999997
74,1.103085,-1.25942,0.743839,0.273458,0.9519129999999999,-0.138121,-0.364847,0.37885599999999997,-0.528632,-0.009252,-0.215554,0.047376999999999996
75,1.110767,-1.270384,0.7440899999999999,0.265142,0.9552149999999999,-0.131374,-0.195709,0.364031,-0.431292,-0.00040199999999999996,-0.307723,0.094356
76,1.114955,-1.277743,0.741271,0.25937,0.9573659999999999,-0.127164,-0.086542,0.327994,-0.305501,0.009245999999999999,-0.442504,0.123868
77,1.113548,-1.281987,0.733847,0.25554299999999996,0.958584,-0.12573399999999998,0.069472,0.24926900000000002,-0.200693,-0.035695,-0.568386,0.071886
78,1.096184,-1.282484,0.712367,0.252898,0.958725,-0.129935,0.38968200000000003,0.10515799999999999,-0.137383,-0.099547,-0.628967,0.035894999999999996
79,1.05873,-1.278928,0.673651,0.25082600000000005,0.957708,-0.140983,0.656463,-0.082344,-0.098959,-0.097338,-0.5977680000000001,0.007240000000000001
80,1.009024,-1.273635,0.6246550000000001,0.247798,0.9561709999999999,-0.15597,0.7994220000000001,-0.14544300000000002,-0.160905,0.002171,-0.45106,0.014825999999999999
81,0.954399,-1.266849,0.569829,0.244202,0.9541629999999999,-0.173013,0.8872120000000001,-0.088181,-0.171047,0.17511,-0.24884,-0.050421
82,0.902495,-1.2589139999999999,0.516378,0.24083200000000002,0.951758,-0.190135,0.86919,-0.050881,-0.159471,0.330961,-0.13004100000000002,0.075145
83,0.858469,-1.249906,0.475137,0.23870999999999998,0.9489549999999999,-0.206146,0.747219,-0.418716,0.024950999999999997,0.170897,-0.20640100000000003,0.314666
84,0.8119970000000001,-1.236441,0.445219,0.238128,0.944622,-0.22578499999999999,0.8640469999999999,-1.218094,0.294915,0.054719000000000004,-0.07195700000000001,0.35096900000000003
85,0.766292,-1.216122,0.42800200000000005,0.240825,0.93776,-0.250209,0.9711629999999999,-1.490436,0.642116,-0.145473,0.357223,0.335047
86,0.734272,-1.189059,0.421641,0.24961,0.928019,-0.276533,1.1163040000000002,-1.189575,0.9354370000000001,-0.184013,0.5329189999999999,0.074873
87,0.7066279999999999,-1.157174,0.41212,0.26095799999999997,0.9156709999999999,-0.305685,1.473039,-0.737633,0.826255,-0.031237,0.756876,-0.247614
88,0.676972,-1.1270040000000001,0.384844,0.268968,0.9031299999999999,-0.33467600000000003,1.449583,-0.015538,0.355148,0.057311,0.601921,-0.164347
89,0.657162,-1.104191,0.36252199999999996,0.274802,0.8931,-0.356161,1.070813,-0.010001000000000001,0.364246,0.121545,0.685955,-0.21576900000000002
90,0.643968,-1.0837510000000001,0.351567,0.280982,0.8837200000000001,-0.374278,0.861165,-0.327945,0.402713,0.48035500000000003,0.7769550000000001,-0.087865
91,0.634505,-1.072506,0.350177,0.283301,0.878401,-0.3849,0.188195,-0.441046,0.23258299999999998,0.234888,0.41554399999999997,0.029019
92,0.630918,-1.077101,0.363128,0.279535,0.8805879999999999,-0.382651,-0.677042,-0.9068870000000001,-0.0036,0.099692,-0.173312,-0.08467999999999999
93,0.627594,-1.092654,0.38288099999999997,0.27018600000000004,0.8878510000000001,-0.372446,-0.9407629999999999,-1.049385,-0.10353599999999999,-0.028105,-0.12948900000000002,-0.070242
94,0.62785,-1.108428,0.40467600000000004,0.262021,0.894998,-0.360996,-0.9252469999999999,-0.859002,-0.041714,-0.199155,-0.082346,0.063587
95,0.638121,-1.1249149999999999,0.429704,0.256889,0.9022309999999999,-0.346386,-1.0407520000000001,-0.46862,-0.064386,-0.23871599999999998,-0.283136,0.176311
96,0.6591020000000001,-1.144917,0.45804700000000004,0.25299499999999997,0.910676,-0.326586,-1.2327629999999998,-0.084063,-0.16236,-0.22380500000000003,-0.391099,0.177171
97,0.689654,-1.169612,0.490001,0.24846500000000002,0.920599,-0.30126,-1.4593129999999999,0.11458499999999999,-0.358613,-0.16023900000000002,-0.539068,0.114676
98,0.725621,-1.2004860000000002,0.5248619999999999,0.240155,0.932215,-0.270731,-1.651933,0.199398,-0.621782,-0.11291199999999998,-0.776515,0.021586
99,0.757357,-1.234364,0.556926,0.226789,0.9439379999999999,-0.239878,-1.5690540000000002,-0.012331,-0.758732,-0.120573,-0.687743,-0.006093
100,0.783243,-1.262308,0.586414,0.214221,0.952794,-0.215146,-1.153564,-0.145762,-0.518514,-0.04198,-0.100789,0.002652
101,0.812016,-1.277277,0.6200359999999999,0.209948,0.957232,-0.19905799999999998,-0.745315,-0.154718,0.034484,0.063841,0.053648,0.026725
102,0.8540139999999999,-1.2807389999999998,0.664907,0.21561999999999998,0.9582280000000001,-0.18789,-0.535116,-0.028,0.396848,0.015856,-0.095251,-0.021202000000000002
103,0.8981110000000001,-1.280753,0.7142609999999999,0.223683,0.9582309999999999,-0.17819400000000002,-0.531239,-0.276528,0.473038,-0.121419,0.006841,0.044771
104,0.9134,-1.275374,0.7434810000000001,0.230458,0.9566790000000001,-0.1779,0.117308,-0.7900739999999999,0.46433900000000006,-0.082097,0.393449,0.175077
105,0.891487,-1.263936,0.73543,0.235004,0.9532870000000001,-0.18977,0.573038,-0.580475,0.401024,-0.140369,0.744422,0.320065
106,0.8780209999999999,-1.255577,0.719429,0.23855,0.950728,-0.198,0.289246,0.45751800000000004,0.011015,-0.11416,-0.091384,0.33835
107,0.8633200000000001,-1.254076,0.700371,0.236698,0.950262,-0.20241199999999998,0.6352479999999999,-0.360034,-0.16711800000000002,-0.122852,0.057290999999999995,0.06722
108,0.77498,-1.238129,0.620686,0.22849299999999997,0.945175,-0.23330399999999998,1.4669459999999999,-0.288236,-0.46156899999999995,0.403007,1.774002,0.420712
109,0.731506,-1.234723,0.5756859999999999,0.220288,0.9440569999999999,-0.24540900000000002,0.366527,-0.078988,-0.154398,0.6292909999999999,-0.22696999999999998,-0.296567
110,0.711693,-1.224316,0.554616,0.22178699999999998,0.940574,-0.257152,0.6982470000000001,0.014325,0.198176,0.161071,-0.039542,-0.058598000000000004
111,0.724796,-1.213747,0.572004,0.23171599999999998,0.936932,-0.261652,-0.09879199999999999,-0.205456,0.705637,0.175251,0.025348,-0.011893
112,0.763439,-1.2111239999999999,0.616259,0.24335,0.9360120000000001,-0.254279,-0.5978359999999999,-0.058244000000000004,0.5545479999999999,0.12286099999999998,0.189461,0.038794
113,0.8036409999999999,-1.220275,0.657814,0.247196,0.9391940000000001,-0.238337,-0.97215,0.117942,-0.022996,0.336147,0.243927,0.07545
114,0.8440719999999999,-1.2367780000000002,0.6958270000000001,0.245009,0.944733,-0.21782100000000001,-0.9885079999999999,0.286163,-0.251925,0.330706,0.137985,0.053591
115,0.872758,-1.255016,0.721444,0.237914,0.9505540000000001,-0.199595,-0.889719,0.160128,-0.520265,0.15515299999999999,-0.073693,0.10065700000000001
116,0.8962979999999999,-1.276568,0.744668,0.22649,0.957026,-0.18110199999999999,-0.98677,0.036358999999999995,-0.6532439999999999,0.07589299999999999,-0.132182,0.039348
117,0.917485,-1.298974,0.7654989999999999,0.213191,0.963283,-0.163185,-0.824003,0.091502,-0.731226,-0.049418000000000004,-0.19186,-0.058311
118,0.92015,-1.318424,0.763753,0.198676,0.9683229999999999,-0.15123699999999998,-0.43642299999999995,0.313125,-0.812124,-0.037711,-0.242432,-0.006142
119,0.912913,-1.335442,0.747058,0.184508,0.972432,-0.142573,-0.348231,0.511857,-0.770103,0.056077999999999996,-0.357518,0.050989
120,0.91332,-1.3511600000000001,0.735912,0.172443,0.9759770000000001,-0.133138,-0.397556,0.577589,-0.6487539999999999,0.096859,-0.479792,0.11253900000000001
121,0.921184,-1.363842,0.731711,0.163614,0.978661,-0.12428,-0.292685,0.6094470000000001,-0.448305,0.058279,-0.521844,0.16573800000000002
122,0.922752,-1.370868,0.720901,0.158323,0.980081,-0.11987,-0.024468,0.603701,-0.309691,0.022143,-0.537728,0.12185399999999999
123,0.904374,-1.374311,0.690577,0.15343900000000002,0.980759,-0.120672,0.229158,0.524043,-0.322773,0.090946,-0.49374399999999996,0.079061
124,0.861834,-1.373366,0.6393989999999999,0.148872,0.980574,-0.127691,0.504013,0.276686,-0.241488,0.286721,-0.35925100000000004,0.12604300000000002
125,0.8138920000000001,-1.368696,0.588562,0.14590999999999998,0.9796469999999999,-0.137823,0.529824,-0.023266,-0.111668,0.385065,-0.322009,0.057363
126,0.7716770000000001,-1.3604379999999998,0.549817,0.145601,0.9779559999999999,-0.149652,0.60637,-0.359892,0.087987,0.355925,-0.365194,0.157144
127,0.734055,-1.348307,0.5274220000000001,0.147806,0.975351,-0.16382,0.629641,-1.087565,0.356138,0.209112,-0.34849,0.178911
128,0.697986,-1.328396,0.521424,0.154256,0.970765,-0.183889,0.898166,-1.7164709999999999,0.754061,-0.004765999999999999,0.280304,0.05945399999999999
129,0.671968,-1.299768,0.530465,0.166657,0.9634959999999999,-0.20951,1.1377899999999999,-1.6815,1.124227,0.006331,0.52094,0.04058
130,0.653357,-1.262235,0.54171,0.184593,0.9527709999999999,-0.241135,1.508581,-1.304552,1.37523,0.155709,1.058734,-0.084701
131,0.647708,-1.2238870000000002,0.559948,0.20513299999999998,0.940428,-0.271127,1.112495,-1.1751459999999998,1.3252950000000001,0.352636,1.034151,-0.17739000000000002
132,0.642861,-1.199966,0.5861069999999999,0.217243,0.932027,-0.290045,0.50731,-1.607225,0.945608,0.196163,0.933894,-0.15275
133,0.623727,-1.1857360000000001,0.601202,0.219379,0.926776,-0.304884,0.338424,-1.69202,0.453154,0.001233,0.198697,0.023359
134,0.592971,-1.1808530000000002,0.607051,0.21242600000000003,0.924931,-0.315235,-0.030974,-1.9816799999999999,0.21700500000000003,0.183158,-0.22446100000000002,0.07146
135,0.5716899999999999,-1.183132,0.62398,0.204529,0.925795,-0.31790999999999997,-0.43994399999999995,-1.7981900000000002,0.23955,0.11112999999999999,-0.107573,0.053201
136,0.565283,-1.192532,0.6561739999999999,0.197818,0.929307,-0.31185100000000004,-0.8517100000000001,-1.8105060000000002,0.213189,0.037610000000000005,0.067733,-0.011955
137,0.5608029999999999,-1.2069940000000001,0.689415,0.18925,0.93455,-0.301321,-0.9350809999999999,-1.7298259999999999,0.089658,-0.010966,-0.071101,0.12221300000000002
138,0.557569,-1.221203,0.720288,0.181229,0.9395120000000001,-0.290632,-0.881793,-1.523275,0.07160599999999999,-0.007798,-0.17819000000000002,0.164747
139,0.5605680000000001,-1.237905,0.7531939999999999,0.173732,0.945102,-0.27675700000000003,-1.10354,-1.338912,-0.01991,-0.07252,-0.410708,0.212502
140,0.570005,-1.261693,0.789818,0.164154,0.952607,-0.256101,-1.425357,-1.227217,-0.23380900000000002,-0.191056,-0.602692,0.13233699999999998
141,0.5805,-1.2910139999999999,0.824034,0.151444,0.9611149999999999,-0.23090100000000002,-1.519385,-1.0107899999999999,-0.462275,-0.160233,-0.645472,0.08225
142,0.5948439999999999,-1.32025,0.853598,0.138929,0.968777,-0.20533600000000002,-1.338956,-0.5149739999999999,-0.468059,-0.167356,-0.610607,0.01158
143,0.616685,-1.3423129999999999,0.8819940000000001,0.130984,0.9740110000000001,-0.18476700000000001,-0.954306,-0.201744,-0.278835,-0.120547,-0.290616,-0.035448
144,0.64379,-1.3567690000000001,0.9125709999999999,0.127478,0.977183,-0.16986800000000002,-0.721205,-0.126649,-0.079682,-0.0333,-0.09926900000000001,-0.025109
145,0.684137,-1.367701,0.958717,0.127466,0.979447,-0.156299,-0.707956,-0.311755,0.11185999999999999,0.073996,0.258911,-0.12379200000000001
146,0.728839,-1.373695,1.0101229999999999,0.130411,0.9806379999999999,-0.146065,-0.447829,-0.23643899999999998,0.23215300000000003,-0.016076,0.41284,-0.277199
147,0.764383,-1.372198,1.045359,0.136535,0.9803440000000001,-0.142398,0.0064,0.294152,0.350014,-0.000778,0.16694900000000001,-0.400663
148,0.790018,-1.363589,1.062732,0.14613099999999998,0.9786090000000001,-0.144787,0.332503,0.529189,0.431039,0.053667999999999993,0.087614,-0.315327
149,0.755513,-1.34594,1.026991,0.15287,0.974826,-0.16229200000000002,1.271656,-0.278787,0.27412800000000004,0.073219,0.239652,-0.035279000000000005
150,0.6701600000000001,-1.321375,0.955498,0.15331,0.9690549999999999,-0.193447,1.505149,-1.1748969999999999,0.12522,0.28863099999999997,0.476517,0.244732
151,0.579073,-1.29766,0.892489,0.147616,0.962929,-0.225766,1.318408,-1.579475,-0.035799,0.479612,0.693275,0.37594299999999997
152,0.505483,-1.284686,0.847884,0.136656,0.959349,-0.246919,0.509347,-1.401078,-0.25745999999999997,0.463213,0.239275,0.296083
153,0.47909399999999996,-1.2845719999999998,0.841619,0.130144,0.959317,-0.250537,-0.14482,-0.865376,0.07591,0.351179,0.075428,0.10663099999999999
154,0.49116499999999996,-1.28234,0.8668549999999999,0.134168,0.958684,-0.250835,0.044039,-0.399173,0.541309,0.170626,0.28330500000000003,0.0872
155,0.522989,-1.276809,0.9060879999999999,0.144727,0.957096,-0.251029,-0.241799,-0.343991,0.575561,0.068362,0.019909,0.238898
156,0.563909,-1.28477,0.956866,0.15079800000000002,0.9593729999999999,-0.23845,-0.9747549999999999,-0.34686300000000003,0.331163,0.044988,0.171807,0.257981
157,0.6159789999999999,-1.303075,1.010787,0.15283,0.964376,-0.215906,-1.238525,0.24225300000000002,0.023053999999999998,0.11908099999999999,0.471995,0.24264000000000002
158,0.698362,-1.322208,1.084683,0.158184,0.969261,-0.18842899999999999,-1.329144,0.713603,0.242939,0.23886500000000002,0.29988899999999996,0.16609000000000002
159,0.794265,-1.33667,1.1670209999999999,0.165482,0.972717,-0.162573,-1.14204,0.749384,0.19078900000000001,0.197967,-0.059723000000000005,0.12103900000000001
160,0.8751129999999999,-1.353169,1.239422,0.165726,0.9764120000000001,-0.138371,-1.183063,0.41371099999999994,-0.278017,0.120208,-0.183398,0.162251
161,0.9459719999999999,-1.376157,1.304929,0.156856,0.981117,-0.11312699999999999,-1.260009,0.320385,-0.58181,0.044255,-0.315621,0.136809
162,1.020246,-1.401359,1.3735709999999999,0.14369400000000002,0.9856799999999999,-0.08820800000000001,-1.154421,0.336855,-0.795806,-0.008165,-0.375054,0.07624500000000001
163,1.084848,-1.428099,1.432648,0.12573,0.989836,-0.06641,-1.027832,0.293536,-0.994624,0.07664800000000001,-0.359358,0.120029
164,1.169238,-1.455201,1.5129920000000001,0.106136,0.993326,-0.045069,-1.059293,0.188141,-0.9840260000000001,0.148335,-0.383356,0.080713
165,1.295277,-1.479241,1.637481,0.087943,0.995812,-0.024862000000000002,-0.941768,0.079769,-0.891199,0.142602,-0.336479,0.006063000000000001
166,1.4617,-1.499041,1.80236,0.07121799999999999,0.9974270000000001,-0.007801000000000001,-0.807458,0.139674,-0.803812,0.029307,-0.219656,-0.084439
167,1.6648900000000002,-1.5154889999999999,2.000743,0.054970000000000005,0.9984709999999999,0.005188,-0.48736899999999994,0.347491,-0.837094,0.089348,-0.07955599999999999,-0.009323
168,1.895048,-1.531831,2.220774,0.036835,0.9992409999999999,0.012381,-0.314276,0.567699,-0.910942,0.32103000000000004,-0.067951,0.0042060000000000005
169,2.347353,-1.541995,2.66549,0.020451,0.9995850000000001,0.020092,-0.39758699999999997,0.248761,-0.733791,0.480785,-0.068616,-0.141018
170,2.848385,-1.541794,-3.117676,0.008342,0.9995790000000001,0.027632,-0.363442,-0.024874,-0.5323760000000001,0.509648,0.102899,-0.138548
171,-3.125064,-1.535207,-2.805963,-0.000586,0.999367,0.03547,-0.425221,-0.11358599999999999,-0.405575,0.543769,0.157494,-0.09491799999999999
172,-3.012696,-1.5266110000000002,-2.6873270000000002,-0.005667,0.999024,0.043718,-0.378825,-0.448233,-0.14204,0.615438,0.361282,-0.000276
173,-3.052028,-1.521357,-2.7152689999999997,-0.004413,0.998778,0.049144,-0.20502199999999998,-0.6938,0.11158900000000001,0.689457,0.28296,0.19521
174,3.128301,-1.521261,-2.798004,0.000657,0.9987729999999999,0.049438,0.18268800000000002,-1.1718870000000001,0.252711,0.6197189999999999,0.29624,0.252808
175,2.8891419999999997,-1.528163,-3.00536,0.010626,0.999091,0.041193,0.48403199999999996,-2.00697,0.500508,0.22999,0.197274,0.16481500000000002
176,2.4150270000000003,-1.54003,2.851285,0.020365,0.999527,0.022915,1.105425,-2.5580950000000002,0.322889,0.07311000000000001,0.199219,0.298344
177,1.413174,-1.544883,1.900018,0.025466,0.999664,-0.0040479999999999995,1.333655,-2.451911,0.211116,0.123643,0.169998,0.362385
178,0.785513,-1.527924,1.3156379999999999,0.030256,0.999081,-0.030249,1.181426,-2.0183020000000003,0.332342,0.177401,0.159687,0.319403
179,0.597182,-1.505765,1.163987,0.036514,0.997886,-0.053697,1.0894139999999999,-1.758377,0.412551,0.205887,0.198021,0.191972
180,0.5052949999999999,-1.4826270000000001,1.1063530000000001,0.042607,0.996116,-0.077019,1.106633,-1.7148029999999999,0.42329799999999995,0.229992,0.37069,0.156639
181,0.435567,-1.460717,1.073697,0.04634,0.9939469999999999,-0.099576,1.003543,-1.999391,0.28620999999999996,0.301804,0.306651,0.182309
182,0.363604,-1.44356,1.046952,0.045121,0.991916,-0.118577,0.738714,-2.432527,0.141774,0.29833899999999997,0.192303,0.238236
183,0.30457199999999995,-1.4326,1.039981,0.041305,0.990466,-0.13139800000000001,0.419591,-2.676512,0.161222,0.197052,0.097455,0.255833
184,0.27633800000000003,-1.4253639999999999,1.065092,0.039534,0.9894430000000001,-0.139405,0.23981599999999997,-2.602096,0.35535500000000003,0.146028,0.043485,0.250382
185,0.28205399999999997,-1.419993,1.121233,0.041809,0.9886510000000001,-0.144279,0.06909900000000001,-2.4476709999999997,0.51313,0.173172,-0.09976499999999999,0.184623
186,0.294931,-1.418339,1.185042,0.044139,0.988401,-0.145293,-0.122137,-2.569258,0.448925,0.17188,-0.153013,0.153304
187,0.291933,-1.419586,1.237263,0.043348000000000005,0.98859,-0.144243,-0.195374,-2.8613939999999998,0.30885,0.237002,-0.250781,0.129243
188,0.267811,-1.4225510000000001,1.274534,0.039080000000000004,0.989032,-0.14241800000000002,-0.248475,-3.181306,0.17108900000000002,0.15391300000000002,-0.345828,0.222527
189,0.23288299999999998,-1.4274120000000001,1.3062559999999999,0.032973,0.9897379999999999,-0.139015,-0.304772,-3.3547839999999995,0.179464,0.135698,-0.39511799999999997,0.244362
190,0.20465,-1.433214,1.344675,0.027868,0.9905510000000001,-0.134266,-0.36853400000000003,-3.269459,0.208819,0.08855700000000001,-0.395854,0.28281
191,0.179395,-1.440107,1.3824670000000001,0.023249000000000002,0.9914719999999999,-0.12820299999999998,-0.395988,-3.020943,0.15596600000000002,0.069524,-0.362505,0.256865
192,0.15743,-1.447841,1.415482,0.019225,0.99245,-0.12110499999999999,-0.428979,-2.545644,0.138035,0.066072,-0.328739,0.212444
193,0.147883,-1.457532,1.452413,0.016649,0.993592,-0.11176099999999999,-0.592795,-2.184009,0.15351900000000002,0.009214,-0.23579499999999998,0.084143
194,0.15776099999999998,-1.4703760000000001,1.499359,0.015745,0.9949620000000001,-0.098975,-0.6958449999999999,-1.633879,0.13072999999999999,0.04999,-0.202649,-0.010812
195,0.160808,-1.483126,1.5318610000000001,0.014013999999999999,0.996159,-0.086393,-0.597178,-1.424855,-0.011991,0.102213,-0.14912899999999998,-0.054629
196,0.11745599999999999,-1.491474,1.51946,0.009281000000000001,0.996856,-0.078654,-0.27546,-1.664068,-0.142965,0.278118,0.094606,-0.155599
197,0.056544000000000004,-1.4905629999999999,1.496107,0.004527000000000001,0.996783,-0.079981,0.283744,-1.985016,-0.020075,0.383443,0.194684,-0.164617
198,0.056004,-1.479483,1.532875,0.005102000000000001,0.995834,-0.091012,0.6259239999999999,-1.6989319999999999,0.334462,0.428354,0.181519,-0.22454000000000002
199,0.131576,-1.4678799999999999,1.638361,0.013475,0.9947090000000001,-0.101819,0.43472,-1.3876,0.698059,0.432875,0.15520899999999999,-0.41560699999999995
200,0.294962,-1.458067,1.831364,0.032694,0.9936530000000001,-0.107608,0.215533,-1.52911,1.377167,0.5031180000000001,-0.138871,-0.181302
201,0.446615,-1.437662,2.020683,0.057324,0.991151,-0.119702,0.709385,-2.02514,1.384457,0.478046,-0.06804,0.127622
202,0.5036689999999999,-1.414099,2.126777,0.075311,0.987748,-0.13666199999999998,0.603509,-2.528866,1.172855,0.306448,0.655105,0.475087
203,0.551988,-1.395216,2.224286,0.09158999999999999,0.984625,-0.148723,0.211644,-2.185302,1.1098569999999999,0.088326,1.341943,0.606975
204,0.6092890000000001,-1.3981620000000001,2.318448,0.09829700000000001,0.985136,-0.140855,-1.046461,-1.6470580000000001,0.26716599999999996,-0.265427,0.329836,0.159058
205,0.6278279999999999,-1.418045,2.366054,0.089366,0.9883559999999999,-0.123128,-0.7596609999999999,-1.323043,-0.555913,-0.24685100000000001,-0.617186,0.0018510000000000002
206,0.538676,-1.4255360000000001,2.301756,0.07424700000000001,0.989468,-0.12423599999999999,0.326251,-1.285596,-0.47253199999999995,-0.093321,-0.632642,0.02545
207,0.45820299999999997,-1.416766,2.246609,0.067857,0.9881610000000001,-0.13758199999999998,0.587374,-1.297131,0.053804,0.355742,-0.22047600000000003,0.314523
208,0.466168,-1.409641,2.2794,0.072114,0.987043,-0.143323,-0.111036,-1.1519549999999998,0.583919,0.569656,0.30234,0.34930100000000003
209,0.570009,-1.415257,2.406083,0.083588,0.987928,-0.130407,-1.089445,-1.004325,0.743538,0.479446,0.49992600000000004,0.272985
210,0.725928,-1.4295950000000002,2.583344,0.09341100000000001,0.9900479999999999,-0.10523800000000001,-1.4018950000000001,-0.9544100000000001,0.520169,0.010151,0.16905599999999998,-0.00345
211,0.871917,-1.440999,2.7489310000000002,0.09907300000000001,0.9915879999999999,-0.083259,-1.0471469999999998,-0.87145,0.24587199999999998,0.194475,0.076848,0.095634
212,0.993692,-1.449109,2.888719,0.10170900000000001,0.992605,-0.066216,-0.9221219999999999,-0.862158,0.211482,0.19477,0.027155000000000002,0.101647
213,1.14075,-1.453551,3.054769,0.106303,0.993135,-0.048759,-1.0070709999999998,-0.893225,0.328433,0.178533,-0.057617999999999996,0.09624400000000001
214,1.308106,-1.454138,-3.0425400000000002,0.112377,0.9932030000000001,-0.030219,-1.0420040000000002,-0.8408700000000001,0.319576,-0.015286000000000001,-0.314767,0.093909
215,1.481358,-1.453668,-2.8528860000000003,0.11636800000000001,0.9931479999999999,-0.010435999999999999,-1.109903,-0.693983,0.142657,-0.059529,-0.274536,0.085707
216,1.6545849999999998,-1.453714,-2.666413,0.11638,0.9931540000000001,0.009774,-1.0507,-0.559084,-0.07715599999999999,0.034637,-0.12624100000000002,0.002433
217,1.8113279999999998,-1.453953,-2.496624,0.113195,0.993182,0.027764999999999998,-0.930824,-0.620694,-0.22472199999999998,0.135981,-0.18399300000000002,-0.021188
218,1.9568880000000002,-1.454159,-2.336271,0.10778099999999999,0.9932059999999999,0.043812000000000004,-0.865769,-0.731287,-0.32988,0.139152,-0.294139,-0.045811000000000004
219,2.1005529999999997,-1.452426,-2.176683,0.101881,0.993002,0.059661,-0.890249,-0.716296,-0.327934,0.114672,-0.26937,-0.061797000000000005
220,2.237309,-1.447703,-2.0267630000000003,0.096482,0.992434,0.075892,-0.8477690000000001,-0.517259,-0.32255100000000003,0.094421,-0.19030999999999998,-0.08590199999999999
221,2.356332,-1.44337,-1.8996119999999999,0.08982799999999999,0.991892,0.089853,-0.663926,-0.267308,-0.384612,0.19056800000000002,-0.10836300000000001,-0.100473
222,2.446998,-1.439522,-1.804389,0.08376499999999999,0.9913959999999999,0.100547,-0.49237200000000003,-0.187459,-0.25533,0.354284,-0.101213,-0.123481
223,2.48579,-1.43455,-1.7585400000000002,0.082808,0.990733,0.107626,-0.314465,-0.450161,0.017578,0.377855,-0.09124199999999999,-0.16580799999999998
224,2.470788,-1.430561,-1.7595869999999998,0.08687,0.990183,0.10946800000000001,-0.03533,-0.851259,0.180275,0.303496,0.040441000000000005,-0.11288599999999999
225,2.407348,-1.4299110000000002,-1.803566,0.094066,0.990092,0.104217,0.296151,-1.048874,0.293939,0.246129,0.016133,-0.003952000000000001
226,2.290525,-1.430819,-1.899183,0.104896,0.9902190000000001,0.091951,0.582298,-1.169455,0.36339,0.22919499999999998,-0.06718500000000001,0.14877200000000002
227,2.1023259999999997,-1.429602,-2.05662,0.12128699999999999,0.990049,0.071314,0.923642,-1.9034119999999999,0.595314,0.229314,0.070559,0.10297200000000001
228,1.8614529999999998,-1.4238110000000002,-2.255712,0.14029,0.989217,0.041964999999999995,1.346228,-2.229132,0.964015,0.04515,0.21422800000000003,0.10758699999999999
229,1.6105610000000001,-1.4105219999999998,-2.4690790000000002,0.159442,0.9871840000000001,0.006344,1.5472920000000001,-1.8083939999999998,0.801443,-0.11551199999999999,0.339019,0.08822999999999999
230,1.393791,-1.397254,-2.660313,0.169956,0.984979,-0.030400999999999997,1.678143,-1.11371,0.391269,-0.046848,0.5925199999999999,0.056753
231,1.204008,-1.383102,-2.8383380000000002,0.17416600000000002,0.9824370000000001,-0.06691,1.6994340000000001,-0.606993,0.19528399999999999,0.151685,0.556488,0.051285000000000004
232,1.054542,-1.3665889999999998,-2.975362,0.176348,0.9792219999999999,-0.100095,1.502952,-0.877975,0.1996,0.5059939999999999,0.408046,0.010129
233,0.9587389999999999,-1.3466,-3.051931,0.181954,0.974973,-0.127729,0.934154,-1.280045,0.5411779999999999,0.371772,0.393435,-0.021777
234,0.9315100000000001,-1.331308,-3.0443279999999997,0.190353,0.97146,-0.141515,0.090651,-1.958543,0.718821,0.20546,0.288657,-0.032069
235,0.931682,-1.322676,-2.9989939999999997,0.197101,0.969376,-0.146479,-0.27939,-2.27636,0.598071,-0.047779,0.20565799999999998,-0.034765
236,0.9319790000000001,-1.317984,-2.951603,0.200795,0.9682129999999999,-0.149132,-0.362154,-2.258692,0.514149,-0.102314,0.053287,0.013725
237,0.9314100000000001,-1.315413,-2.907549,0.202706,0.967567,-0.15073,-0.339427,-2.0782220000000002,0.384822,-0.08677,-0.114692,0.040165
238,0.922824,-1.313467,-2.877878,0.202906,0.967073,-0.153602,-0.192191,-1.7245709999999999,0.26255100000000003,-0.015314,-0.48532299999999995,0.140906
239,0.914306,-1.312866,-2.85448,0.20205,0.9669200000000001,-0.15567899999999998,-0.273997,-1.49279,0.17943,-0.044564,-0.560563,0.148813
240,0.919142,-1.315736,-2.821066,0.200595,0.967648,-0.15301700000000001,-0.5054029999999999,-1.287224,0.122003,-0.137286,-0.702923,0.133486
241,0.9390229999999999,-1.321344,-2.776961,0.199214,0.9690479999999999,-0.145792,-0.657958,-1.047007,0.121697,-0.223354,-0.700859,0.105402
242,0.97764,-1.327164,-2.719416,0.200014,0.970468,-0.13483699999999998,-0.784883,-0.7463810000000001,0.177041,-0.214007,-0.6727390000000001,0.107051
243,1.029981,-1.333939,-2.65302,0.201153,0.9720799999999999,-0.1208,-0.878626,-0.524287,0.1291,-0.195187,-0.642414,0.049908
244,1.088449,-1.340833,-2.584622,0.201926,0.973675,-0.105728,-0.8261129999999999,-0.321716,0.041613,-0.19924,-0.495174,0.002365
245,1.148068,-1.3471870000000001,-2.518151,0.202219,0.975103,-0.090968,-0.809794,-0.22069499999999997,0.072576,-0.150202,-0.434179,-0.019002
246,1.2138639999999998,-1.350282,-2.446728,0.204933,0.975785,-0.076421,-0.753739,-0.19055899999999998,0.21286599999999997,-0.100823,-0.39354,-0.044032
247,1.275232,-1.34874,-2.379757,0.210675,0.975447,-0.06414700000000001,-0.606063,-0.196932,0.34636500000000003,-0.041928,-0.18154700000000001,-0.156373
248,1.32105,-1.34438,-2.328761,0.21750999999999998,0.974477,-0.055480999999999996,-0.418387,-0.197669,0.367973,-0.012493,0.087825,-0.14534
249,1.349329,-1.3376700000000001,-2.296733,0.225367,0.972949,-0.050744,-0.188839,-0.07205700000000001,0.458078,0.019934,0.134961,-0.121742
250,1.377029,-1.327867,-2.2681720000000003,0.236035,0.9706379999999999,-0.046317000000000004,-0.291435,0.019389,0.5886359999999999,-0.041943,0.14182,-0.039773
251,1.423651,-1.3175290000000002,-2.221393,0.24785,0.9680989999999999,-0.036735000000000004,-0.588696,0.12051300000000001,0.599248,-0.08845700000000001,0.044978,-0.052025
252,1.475806,-1.309072,-2.1702310000000002,0.25756999999999997,0.965945,-0.02454,-0.497514,0.051674,0.419444,-0.11570899999999999,0.10801400000000001,-0.011531
253,1.463471,-1.306398,-2.176745,0.259815,0.96525,-0.027992000000000003,0.48299200000000003,-0.535142,0.06491799999999999,-0.071125,0.944601,0.066612
254,1.3930200000000001,-1.305259,-2.237409,0.258282,0.964952,-0.046406,0.826644,-0.510879,-0.17306300000000002,0.008701,0.8302299999999999,0.165578
255,1.330294,-1.307547,-2.2980099999999997,0.25272100000000003,0.965549,-0.06197999999999999,0.639101,-0.130401,-0.320139,-0.233922,0.115185,0.33885
256,1.282532,-1.3095430000000001,-2.343224,0.24762399999999998,0.966067,-0.073426,0.623808,-0.257878,-0.129939,0.173671,0.647687,0.11293099999999999
257,1.23971,-1.30585,-2.3899150000000002,0.24762699999999999,0.9651069999999999,-0.085119,0.41679799999999995,0.34736500000000003,0.007776999999999999,0.553398,0.689389,-0.09852000000000001
258,1.2371590000000001,-1.304287,-2.401262,0.248833,0.9646959999999999,-0.086244,0.160449,0.367089,0.092487,0.544471,0.23919200000000002,-0.348494
259,1.231607,-1.3013,-2.411268,0.25106799999999996,0.9639049999999999,-0.08858300000000001,0.10383599999999998,0.145585,0.12335399999999999,0.136581,-0.087806,-0.177759
260,1.2452,-1.298432,-2.4013619999999998,0.254867,0.9631379999999999,-0.086046,-0.173457,0.228332,0.18326800000000001,0.051193999999999996,-0.033206,-0.151747
261,1.270892,-1.2979889999999998,-2.378043,0.25740100000000005,0.963018,-0.079596,-0.39975700000000003,0.07941000000000001,0.05903200000000001,0.176025,0.054331,-0.064828
262,1.3101450000000001,-1.302849,-2.335807,0.2558,0.964316,-0.068227,-0.6803060000000001,-0.127539,-0.15950799999999998,0.26110700000000003,0.191049,-0.05395
263,1.356868,-1.310561,-2.282833,0.251432,0.9663290000000001,-0.054624,-0.8162,-0.256866,-0.20088399999999998,0.20681999999999998,-0.152944,-0.05948099999999999
264,1.4123629999999998,-1.315509,-2.218607,0.249349,0.967591,-0.039839,-0.8507680000000001,-0.412987,-0.023601,0.217844,-0.130936,-0.073671
265,1.463851,-1.3176729999999999,-2.154383,0.24898699999999999,0.9681350000000001,-0.02673,-0.7718079999999999,-0.618977,0.006057,0.071738,-0.127849,-0.097843
266,1.502787,-1.319887,-2.099734,0.24769899999999997,0.9686870000000001,-0.016872,-0.6329819999999999,-0.699979,-0.10396500000000002,-0.21975999999999998,-0.381758,-0.101323
267,1.5251430000000001,-1.324751,-2.066651,0.243304,0.9698829999999999,-0.011115,-0.254839,-0.301097,-0.282364,-0.217532,-0.435093,-0.08738
268,1.521109,-1.331647,-2.0714599999999996,0.236571,0.97154,-0.011764,0.206587,0.203654,-0.36845,-0.123107,-0.444196,-0.034332
269,1.496161,-1.338516,-2.102834,0.229543,0.973144,-0.017164,0.382811,0.239283,-0.37367399999999995,-0.052312,-0.49682600000000005,-0.039049
270,1.459999,-1.3456219999999999,-2.141171,0.22189499999999998,0.9747549999999999,-0.024687,0.41678999999999994,-0.048401,-0.388023,0.043898,-0.433938,-0.059161
271,1.413258,-1.351246,-2.186338,0.21508200000000002,0.9759950000000001,-0.034167,0.492799,-0.156547,-0.315783,0.092612,-0.289029,-0.056272
272,1.354757,-1.3542809999999998,-2.243624,0.209823,0.9766520000000001,-0.046049,0.623846,-0.108357,-0.226267,0.09929,-0.20463399999999998,0.019743
273,1.290626,-1.353947,-2.3053529999999998,0.20675500000000002,0.9765799999999999,-0.059490999999999995,0.6651729999999999,-0.27734200000000003,-0.09437000000000001,0.087541,-0.230242,0.008725
274,1.218987,-1.3494950000000001,-2.368657,0.20604699999999998,0.975613,-0.075636,0.753522,-0.64578,0.05840599999999999,0.063286,-0.297146,0.11033399999999999
275,1.137822,-1.3404049999999998,-2.431814,0.20727800000000002,0.973577,-0.095809,0.8773770000000001,-1.184788,0.21165,-0.115756,-0.283636,0.20692399999999997
276,1.05193,-1.325676,-2.490623,0.21072600000000002,0.970108,-0.12033699999999999,1.016959,-1.519431,0.393583,-0.183382,-0.16677899999999998,0.152472
277,0.966944,-1.304118,-2.550426,0.21691999999999997,0.964651,-0.149633,1.359146,-1.1581190000000001,0.583517,-0.22341999999999998,0.10044299999999999,-0.015879
278,0.8858790000000001,-1.272945,-2.6201689999999997,0.227277,0.9559690000000001,-0.185646,1.970225,-0.426576,0.661624,-0.093793,0.669901,-0.20661100000000002
279,0.808722,-1.2319309999999999,-2.70404,0.24047,0.943132,-0.229506,2.419874,0.420775,0.690384,0.036782,0.938292,-0.171434
280,0.771134,-1.195994,-2.755334,0.255142,0.93058,-0.262527,1.478189,0.41483400000000004,0.595152,0.35827600000000004,0.906487,-0.136429
281,0.760337,-1.1751,-2.768607,0.265637,0.9227280000000001,-0.27929699999999996,0.638828,-0.052869000000000006,0.535409,0.177921,0.731157,-0.284699
282,0.77361,-1.164021,-2.750858,0.276447,0.918401,-0.283042,-0.128646,-0.194732,0.712896,0.107174,0.529993,-0.217904
283,0.8113600000000001,-1.161054,-2.70594,0.288907,0.9172239999999999,-0.274282,-0.741843,-0.147804,0.69787,0.061755,-0.074496,-0.16868
284,0.858936,-1.166053,-2.651625,0.298149,0.9192040000000001,-0.257233,-1.052985,-0.104046,0.41469799999999996,0.022911,-0.26596,-0.19300799999999999
285,0.900849,-1.176822,-2.602394,0.300888,0.923391,-0.238355,-1.071201,-0.22829899999999997,0.06862599999999999,-0.038544,-0.311986,-0.158191
286,0.931587,-1.191438,-2.561126,0.297207,0.928902,-0.220919,-1.089285,-0.47328100000000006,-0.189696,-0.167782,-0.522378,0.034746
287,0.9626389999999999,-1.209506,-2.515414,0.290099,0.935442,-0.201961,-1.2762209999999998,-0.623499,-0.290154,-0.212096,-0.6266189999999999,0.092876
288,1.006224,-1.230183,-2.457582,0.28221999999999997,0.94255,-0.17874,-1.4630729999999998,-0.455452,-0.327994,-0.218957,-0.71292,0.076277
289,1.066584,-1.252624,-2.388642,0.27389600000000003,0.949809,-0.151132,-1.5549870000000001,-0.120217,-0.432683,-0.251634,-0.6135510000000001,-0.000357
290,1.14182,-1.2740850000000001,-2.310347,0.26588,0.956303,-0.121609,-1.501949,0.081868,-0.399456,-0.255885,-0.538792,-0.063343
291,1.217765,-1.289649,-2.232047,0.260341,0.9607379999999999,-0.095927,-1.198048,-0.001982,-0.207083,-0.25751799999999997,-0.344481,-0.143178
292,1.279491,-1.2958129999999999,-2.168107,0.26008400000000004,0.9624299999999999,-0.07798200000000001,-0.774511,0.061362,0.101306,-0.10812100000000001,0.035816,-0.127554
293,1.331859,-1.2937670000000001,-2.118731,0.265721,0.961872,-0.06472699999999999,-0.568439,0.365299,0.371548,-0.007084999999999999,0.084637,-0.12111
294,1.384836,-1.286424,-2.075882,0.27571100000000004,0.959838,-0.051871,-0.450197,0.7317239999999999,0.54282,-0.016586,0.037995,-0.11313800000000002
295,1.4297469999999999,-1.276132,-2.045065,0.287528,0.9569,-0.040826999999999995,-0.256392,0.6872199999999999,0.5816180000000001,-0.077338,0.223642,-0.12070299999999999
296,1.429729,-1.2650540000000001,-2.051891,0.298006,0.953624,-0.042319999999999997,0.48555200000000004,0.219489,0.490192,-0.051881,0.390538,-0.058525
297,1.3993440000000001,-1.256104,-2.089012,0.30498000000000003,0.950892,-0.052808,0.5405300000000001,0.299269,0.20525900000000002,-0.069247,0.701574,0.196485
298,1.39347,-1.258033,-2.1002650000000003,0.30286,0.9514870000000001,-0.054275,0.005082,0.092119,-0.273575,-0.076236,0.318029,-0.018189
299,1.348816,-1.2618690000000001,-2.136956,0.296573,0.9526600000000001,-0.066936,0.9031049999999999,-0.703508,-0.286579,0.339932,1.358131,0.22419299999999998
300,1.300073,-1.263448,-2.183074,0.29151,0.953139,-0.08090499999999999,0.30302199999999996,-0.035879,-0.22432800000000003,0.705392,0.306505,0.000567
301,1.301014,-1.262208,-2.182716,0.292725,0.9527629999999999,-0.080945,-0.010887,0.03619,0.139787,0.324494,-0.23236500000000002,-0.383959
302,1.291038,-1.254772,-2.191793,0.298703,0.9504790000000001,-0.085815,0.345355,-0.095422,0.508844,-0.047101,-0.016030000000000003,-0.23104899999999998
303,1.283703,-1.240232,-2.198265,0.311289,0.945859,-0.091908,0.234864,-0.020243,0.7184159999999999,-0.16514,0.036012999999999996,-0.177562
304,1.2903870000000002,-1.227857,-2.194147,0.32311999999999996,0.9417700000000001,-0.093058,0.018357,0.26258200000000004,0.508238,-0.047882,0.189394,-0.07115700000000001
305,1.3131540000000002,-1.2255969999999998,-2.178834,0.32721300000000003,0.941008,-0.08622,-0.36230999999999997,0.47490600000000005,-0.043759,0.089551,0.138765,0.014884999999999999
306,1.348115,-1.233225,-2.151242,0.323015,0.9435620000000001,-0.073142,-0.632372,0.406645,-0.32115900000000003,0.172072,-0.053959,0.041816000000000006
307,1.392755,-1.242117,-2.109239,0.317687,0.94647,-0.057166999999999996,-0.8205540000000001,0.116327,-0.283646,0.22854699999999997,-0.086744,0.036522000000000006
308,1.442712,-1.248158,-2.056965,0.314469,0.9484020000000001,-0.0405,-0.867858,-0.026957,-0.10860399999999999,-0.051026,-0.139656,-0.05032
309,1.482374,-1.252721,-2.010956,0.311513,0.949839,-0.027617000000000003,-0.633992,-0.309693,-0.20168,-0.153813,-0.152751,-0.082277
310,1.497116,-1.259918,-1.9875639999999999,0.305061,0.9520649999999999,-0.022518,-0.23745300000000003,-0.351804,-0.403955,-0.319023,-0.20899299999999998,-0.039769
311,1.493593,-1.269511,-1.989311,0.29586,0.9549559999999999,-0.022887,0.11291400000000001,0.10974,-0.511058,-0.330986,-0.318329,-0.069154
312,1.476426,-1.280201,-2.0177110000000003,0.285244,0.958074,-0.026999000000000002,0.519346,0.718037,-0.6019359999999999,-0.19883299999999998,-0.47701000000000005,-0.026177999999999996
313,1.444728,-1.290977,-2.069409,0.273987,0.9611049999999999,-0.034725,0.717741,0.932582,-0.613644,-0.074021,-0.6306149999999999,-0.043369
314,1.401367,-1.300106,-2.131264,0.26356399999999996,0.9635870000000001,-0.045087999999999996,0.788927,0.7030029999999999,-0.539145,0.115632,-0.610681,-0.089037
315,1.346216,-1.30506,-2.199608,0.25601999999999997,0.964899,-0.058484,0.87974,0.45792700000000003,-0.336303,0.26450300000000004,-0.40976899999999994,-0.11630599999999999
316,1.285884,-1.3042,-2.267921,0.252824,0.964673,-0.074047,0.838902,0.15775899999999998,-0.09478500000000001,0.297026,-0.244077,-0.014698
317,1.23511,-1.298918,-2.319464,0.253548,0.963268,-0.088461,0.706238,-0.187779,0.117307,0.06526900000000001,-0.096889,0.058294000000000006
318,1.1866219999999998,-1.288592,-2.3603009999999998,0.25817199999999996,0.9604440000000001,-0.104369,0.739261,-0.635356,0.394781,-0.001549,0.020253999999999998,0.101287
319,1.132457,-1.270067,-2.399075,0.268208,0.9551209999999999,-0.125723,0.942155,-0.9231,0.781126,-0.109654,0.395175,0.087271
320,1.0882399999999999,-1.244259,-2.428636,0.284134,0.947159,-0.148848,1.029767,-0.688809,0.9886729999999999,-0.055771,0.552231,-0.07510499999999999
321,1.043287,-1.218348,-2.466359,0.298268,0.93853,-0.173764,1.245088,-0.329313,0.677796,0.016307,0.609428,-0.211017
322,0.99624,-1.198874,-2.514417,0.305053,0.931631,-0.197496,1.180213,-0.015175,0.231492,0.05305599999999999,0.595332,-0.314391
323,0.9585819999999999,-1.1863290000000002,-2.553154,0.306942,0.926998,-0.21554099999999998,0.782153,-0.165614,0.102854,0.17874500000000001,0.639713,-0.183248
324,0.933601,-1.1767610000000002,-2.572865,0.308578,0.923367,-0.22840700000000003,0.46863999999999995,-0.475045,0.23351999999999998,0.289124,0.63956,-0.161592
325,0.9238299999999999,-1.170302,-2.571401,0.311084,0.920868,-0.23500100000000002,-0.034442,-0.579914,0.254709,0.07345299999999999,0.396789,-0.12725799999999998
326,0.932551,-1.1720629999999999,-2.5467150000000003,0.311819,0.9215530000000001,-0.23131300000000002,-0.681449,-0.776497,0.159643,0.027812,0.071412,-0.14268
327,0.9524790000000001,-1.182242,-2.5055560000000003,0.308705,0.925458,-0.219604,-1.0495649999999999,-0.9577459999999999,-0.015747999999999998,-0.08092200000000001,-0.208463,-0.11903399999999999
328,0.9781299999999999,-1.196693,-2.457462,0.303111,0.9308360000000001,-0.204122,-1.200402,-0.9131309999999999,-0.11940799999999999,-0.27689600000000003,-0.401066,-0.006723999999999999
329,1.014418,-1.212497,-2.403995,0.297786,0.9364950000000001,-0.185198,-1.248738,-0.538937,-0.147999,-0.290294,-0.450258,-0.009214
330,1.065517,-1.227954,-2.34341,0.29415399999999997,0.9418030000000001,-0.162719,-1.299288,-0.118124,-0.11150399999999999,-0.26561999999999997,-0.521744,0.028732
331,1.130974,-1.2419719999999999,-2.2764,0.292192,0.9464229999999999,-0.137495,-1.303839,0.22624699999999998,-0.179275,-0.21342600000000003,-0.659008,0.011442
332,1.202752,-1.256657,-2.208186,0.2883,0.9510629999999999,-0.11117300000000001,-1.2685540000000002,0.366137,-0.294575,-0.220307,-0.629011,-0.033327999999999997
333,1.27416,-1.271407,-2.138507,0.28205,0.9555170000000001,-0.08621000000000001,-1.198707,0.170164,-0.36433899999999997,-0.21539899999999998,-0.43142299999999995,-0.042132
334,1.340372,-1.283052,-2.069976,0.276283,0.958886,-0.064814,-1.058295,-0.044910000000000005,-0.24771500000000002,-0.136818,-0.32000100000000004,-0.054129
335,1.402711,-1.2897290000000001,-2.0020700000000002,0.273465,0.9607600000000001,-0.046403,-0.9572709999999999,-0.187622,-0.078047,-0.12078599999999999,-0.155325,-0.09097100000000001
336,1.457144,-1.290409,-1.941966,0.274935,0.9609479999999999,-0.031382,-0.731979,-0.11174300000000001,0.197962,-0.129183,-0.060848,-0.12808699999999998
337,1.499417,-1.284087,-1.898782,0.28207,0.9591799999999999,-0.020168000000000002,-0.488676,0.15270899999999998,0.45356,-0.164074,0.114185,-0.17722000000000002
338,1.529851,-1.273684,-1.875879,0.292508,0.9561860000000001,-0.011984,-0.154636,0.540921,0.5835819999999999,-0.172819,0.25330199999999997,-0.198344
339,1.52369,-1.262924,-1.892039,0.30269,0.9529799999999999,-0.014269,0.547441,0.405915,0.436972,-0.137681,0.41731999999999997,-0.131666
340,1.479191,-1.256856,-1.946625,0.307508,0.951124,-0.028248000000000002,0.9943770000000001,0.312927,0.127224,-0.069608,0.9456040000000001,0.25974
341,1.436387,-1.257482,-2.001277,0.305427,0.951317,-0.041301,0.584363,0.566249,-0.26266100000000003,0.044549,0.40221399999999996,0.285671
342,1.427492,-1.2629190000000001,-2.0215229999999997,0.299923,0.9529790000000001,-0.043276999999999996,0.278334,0.353249,-0.277345,0.086582,0.170785,0.07468
343,1.386244,-1.263101,-2.065207,0.297713,0.953034,-0.055576,0.8130890000000001,-0.06397699999999999,-0.032725,0.385393,0.584426,-0.096875
344,1.342716,-1.259997,-2.108692,0.297892,0.952089,-0.069146,0.46343,-0.19503,0.009866,0.36339299999999997,0.195921,-0.143698
345,1.324223,-1.258733,-2.1241659999999998,0.29773,0.951702,-0.074937,0.20011099999999998,-0.118603,0.039976,0.285583,0.072437,-0.24703899999999998
346,1.318934,-1.255236,-2.130459,0.300551,0.950623,-0.07733999999999999,0.10346300000000001,0.134643,0.19600499999999998,-0.03517,0.024124,-0.137809
347,1.328155,-1.250373,-2.126963,0.305736,0.949102,-0.075675,-0.069673,0.371471,0.26179,0.050893,0.023844,-0.111703
348,1.351844,-1.247347,-2.110845,0.310244,0.9481450000000001,-0.069035,-0.301526,0.42597799999999997,0.15220999999999998,0.103468,-0.002344,-0.09905599999999999
349,1.383969,-1.247796,-2.08377,0.31188299999999997,0.9482870000000001,-0.058955999999999995,-0.481041,0.23431100000000002,0.020878999999999998,0.143241,-0.06253,-0.045765
350,1.41984,-1.249722,-2.047675,0.31199099999999996,0.9488969999999999,-0.047458,-0.6516930000000001,-0.010034999999999999,0.0018399999999999998,0.093481,-0.099745,-0.004971
351,1.45999,-1.2520799999999999,-2.003303,0.31142,0.9496379999999999,-0.034649,-0.688355,-0.139695,-0.042047,0.021115000000000002,-0.093635,-0.0219
352,1.48769,-1.2536889999999998,-1.971511,0.310736,0.950141,-0.025883999999999997,-0.427417,-0.076391,-0.11508099999999999,-0.143423,-0.10717,-0.027019
353,1.4973940000000001,-1.257738,-1.962938,0.307133,0.9513959999999999,-0.022585,0.039642000000000004,0.221821,-0.237183,-0.26071500000000003,-0.320888,-0.069517
354,1.489121,-1.263965,-1.9838380000000002,0.30102399999999996,0.9532950000000001,-0.024641,0.41740900000000003,0.787898,-0.401912,-0.24322399999999997,-0.45177,-0.07837100000000001
355,1.4704899999999999,-1.271987,-2.023705,0.29289499999999996,0.9556879999999999,-0.029477999999999997,0.612791,1.005803,-0.45210100000000003,-0.155337,-0.628387,-0.01436
356,1.443897,-1.278229,-2.069673,0.286084,0.957507,-0.0365,0.6261260000000001,0.7528699999999999,-0.348066,-0.040784,-0.547457,-0.057021
357,1.406874,-1.2816100000000001,-2.11998,0.281341,0.958476,-0.046536,0.751223,0.47066800000000003,-0.214371,0.051362,-0.40987700000000005,-0.031879000000000005
358,1.356111,-1.281582,-2.1812169999999997,0.278643,0.958468,-0.060757000000000005,0.907308,0.36654200000000003,-0.15119100000000002,0.18723800000000002,-0.195346,0.008526
359,1.30182,-1.279929,-2.242094,0.276462,0.957996,-0.076209,0.8213719999999999,0.05449299999999999,-0.095844,0.23890300000000003,-0.170322,0.126532
360,1.246726,-1.274853,-2.295157,0.276453,0.956527,-0.092864,0.8421780000000001,-0.357506,0.086427,0.026083,-0.27822800000000003,0.124358
361,1.1833870000000002,-1.2646,-2.3491009999999997,0.279086,0.9534870000000001,-0.113876,0.9845389999999999,-0.765745,0.288771,-0.171069,-0.126003,0.081664
362,1.111257,-1.246094,-2.406134,0.28592199999999995,0.9477459999999999,-0.141496,1.3175059999999998,-0.8939159999999999,0.6170680000000001,-0.177127,0.29633400000000004,-0.061111
363,1.046591,-1.218515,-2.46053,0.298702,0.9385879999999999,-0.172697,1.5188979999999999,-0.49177200000000004,0.840153,0.0387,0.610988,-0.163225
364,0.98965,-1.187508,-2.517109,0.31257199999999996,0.9274399999999999,-0.2053,1.73518,0.0013130000000000001,0.687208,0.24358000000000002,0.8756450000000001,-0.332221
365,0.9452969999999999,-1.163017,-2.5676189999999997,0.321484,0.918004,-0.23219,1.292125,0.09361599999999999,0.366733,0.075351,0.9244190000000001,-0.32924200000000003
366,0.9182950000000001,-1.145532,-2.596329,0.327803,0.9109299999999999,-0.25049299999999997,0.8099149999999999,-0.152854,0.34979299999999997,0.045641,0.9679610000000001,-0.24735500000000002
367,0.903408,-1.1341620000000001,-2.6068130000000003,0.332152,0.9061799999999999,-0.26174000000000003,0.319904,-0.284053,0.284582,0.046892,0.383127,-0.11242100000000001
368,0.90343,-1.132917,-2.597598,0.333044,0.905653,-0.26243,-0.408041,-0.5608609999999999,0.075821,0.075693,-0.230345,-0.159338
369,0.910766,-1.145801,-2.570242,0.325714,0.91104,-0.252804,-1.045542,-1.028119,-0.269864,0.037399,-0.359298,-0.16869
370,0.920161,-1.165365,-2.536697,0.31383,0.918932,-0.23889000000000002,-1.141076,-1.036902,-0.388024,-0.077471,-0.393374,-0.129839
371,0.935271,-1.185719,-2.499718,0.302286,0.9267690000000001,-0.22296999999999997,-1.227032,-0.913114,-0.367419,-0.134485,-0.30047199999999996,0.00158
372,0.964318,-1.2045059999999999,-2.45105,0.294274,0.9336620000000001,-0.20413399999999998,-1.262353,-0.717869,-0.145726,-0.22606700000000002,-0.241325,0.038454
373,1.0059790000000002,-1.217614,-2.395536,0.292157,0.938277,-0.185134,-1.125114,-0.38564699999999996,0.037473,-0.24755500000000003,-0.280684,0.093932
374,1.053607,-1.2301600000000001,-2.340879,0.29038400000000003,0.942542,-0.165181,-1.15403,-0.088782,-0.116933,-0.23651999999999998,-0.343085,0.073765
375,1.112766,-1.244996,-2.28025,0.287066,0.9473950000000001,-0.141523,-1.26321,0.199653,-0.22488699999999998,-0.21803499999999998,-0.439171,0.037214
376,1.1834069999999999,-1.2597770000000001,-2.2109259999999997,0.283341,0.9520219999999999,-0.115605,-1.294144,0.21143699999999999,-0.21443600000000002,-0.243302,-0.6822159999999999,-0.06843099999999999
377,1.254273,-1.271132,-2.138661,0.280523,0.9554360000000001,-0.09188099999999999,-1.140633,0.039022,-0.121276,-0.260702,-0.555609,-0.10279
378,1.315448,-1.277472,-2.074675,0.279748,0.9572879999999999,-0.073027,-0.8950459999999999,-0.017774,0.016176,-0.229546,-0.425733,-0.11950799999999999
379,1.365458,-1.277667,-2.02221,0.282867,0.9573440000000001,-0.058914,-0.642087,0.015503999999999999,0.265728,-0.082,-0.025901999999999998,-0.142105
380,1.406772,-1.2717370000000001,-1.9814619999999998,0.290655,0.955614,-0.048107,-0.475608,0.18578599999999998,0.42797399999999997,-0.061285,0.006148,-0.12209
381,1.44119,-1.2649700000000001,-1.949803,0.298545,0.953598,-0.038912,-0.31796199999999997,0.09907200000000001,0.398208,-0.11260099999999999,0.093566,-0.128584
382,1.428607,-1.257001,-1.958248,0.30554499999999996,0.951169,-0.04374,0.5454180000000001,-0.383044,0.335422,-0.193881,0.7224,0.069635
383,1.3785379999999998,-1.248893,-2.0083349999999998,0.31053400000000003,0.948635,-0.060449,0.943191,0.17105599999999999,0.21785,-0.301012,0.8382299999999999,0.362085
384,1.3275430000000001,-1.245241,-2.074763,0.310409,0.947473,-0.077034,1.219846,0.5711229999999999,-0.168495,-0.24691799999999997,0.6939,0.33376300000000003
385,1.2589190000000001,-1.244888,-2.159125,0.304715,0.9473600000000001,-0.09824,1.150557,0.818412,-0.410714,0.643451,0.648602,-0.06383899999999999
386,1.238,-1.2413450000000001,-2.200821,0.305763,0.9462200000000001,-0.105688,0.55374,0.768333,0.10860999999999998,0.734108,0.004723,-0.52656
387,1.204625,-1.236006,-2.242734,0.306779,0.9444790000000001,-0.11763900000000001,0.7255699999999999,0.013744,0.053092999999999994,0.457351,-0.11971099999999998,-0.447989
388,1.186049,-1.228523,-2.257723,0.311084,0.941994,-0.125966,0.190924,-0.207112,0.335925,0.055509,0.146507,-0.177958
389,1.195298,-1.222889,-2.251018,0.317168,0.9400879999999999,-0.125029,-0.12921,0.39732399999999995,0.24104699999999998,0.057388999999999996,0.323248,-0.060320000000000006
390,1.230253,-1.224278,-2.230238,0.32011300000000004,0.9405610000000001,-0.11343099999999999,-0.473282,0.9493280000000001,-0.040869,0.087312,0.267584,-0.043246
391,1.28301,-1.228228,-2.195811,0.322083,0.941895,-0.095338,-0.690104,0.9976079999999999,0.061172000000000004,0.261031,-0.01706,-0.051009
392,1.342373,-1.228915,-2.149282,0.32654099999999997,0.942126,-0.075915,-0.808871,0.600057,0.21467600000000003,0.153836,-0.135729,-0.049832999999999995
393,1.397483,-1.2282620000000002,-2.096715,0.330833,0.9419059999999999,-0.057919000000000005,-0.869566,0.10616300000000001,0.168951,0.078606,-0.185452,-0.059910000000000005
394,1.439673,-1.2331450000000002,-2.051427,0.328417,0.943535,-0.043312,-0.711486,-0.04924,-0.26558000000000004,-0.20871199999999998,-0.223336,-0.032143
395,1.4671459999999998,-1.241052,-2.022732,0.32205300000000003,0.946125,-0.033500999999999996,-0.345593,0.09151000000000001,-0.349731,-0.22458000000000003,-0.21614499999999998,-0.066215
396,1.4693450000000001,-1.247559,-2.026256,0.31599499999999997,0.948212,-0.032169,0.226348,0.375965,-0.319395,-0.156586,-0.159485,-0.138043
397,1.454018,-1.253547,-2.0518330000000002,0.309819,0.950097,-0.036345,0.396635,0.47887299999999994,-0.361066,-0.06314600000000001,-0.45961899999999994,-0.013841
398,1.436229,-1.260311,-2.0808459999999998,0.302749,0.9521850000000001,-0.040988,0.407505,0.48219799999999996,-0.40265500000000004,-0.03186,-0.497443,0.006976
399,1.412958,-1.266168,-2.113104,0.29620100000000005,0.953958,-0.047144,0.4724,0.28987399999999997,-0.315429,-0.008405,-0.49169300000000005,-0.017278
400,1.379165,-1.268968,-2.151622,0.29181599999999996,0.9547950000000001,-0.056616,0.598999,0.089753,-0.196784,-0.019614,-0.44902700000000006,-0.079096
401,1.334049,-1.269145,-2.201184,0.28880100000000003,0.9548469999999999,-0.06967999999999999,0.779328,0.139016,-0.15179,0.08291799999999999,-0.348356,-0.097541
402,1.2834709999999998,-1.267155,-2.2576549999999997,0.286731,0.954254,-0.08473,0.8453149999999999,0.158803,-0.095807,0.133877,-0.305145,-0.034594
403,1.2339799999999999,-1.262617,-2.309931,0.28627199999999997,0.952887,-0.100241,0.827572,-0.11218299999999999,0.020852000000000002,0.10390999999999999,-0.28713099999999997,0.059332
404,1.1818790000000001,-1.252692,-2.356113,0.289401,0.94983,-0.118594,0.864542,-0.5887060000000001,0.341119,0.046887,-0.018525,0.118075
405,1.129041,-1.234332,-2.395069,0.298451,0.9439280000000001,-0.141145,0.974671,-0.844249,0.7470720000000001,-0.023304,0.529415,0.092882
406,1.090395,-1.209166,-2.4217169999999997,0.313747,0.935321,-0.1635,1.0027549999999998,-0.5660569999999999,0.949874,-0.11349000000000001,0.686581,-0.054121
407,1.049208,-1.185926,-2.457193,0.325511,0.926847,-0.18706199999999998,1.1874200000000001,-0.286837,0.494675,-0.070719,0.482897,-0.204326
408,1.0015180000000001,-1.171864,-2.5061259999999996,0.327169,0.9214760000000001,-0.20937199999999997,1.1150229999999999,-0.084125,-0.051951,0.024791,0.39097800000000005,-0.264139
409,0.961649,-1.1612559999999998,-2.548007,0.326563,0.9173040000000001,-0.227827,0.8832409999999999,-0.01035,0.08093099999999999,0.09727999999999999,0.787042,-0.336428
410,0.943081,-1.14841,-2.5688590000000002,0.331787,0.912113,-0.240752,0.647083,-0.039463,0.37308,0.226608,0.6442829999999999,-0.27997
411,0.93005,-1.13671,-2.577484,0.33715500000000004,0.9072549999999999,-0.251418,0.354392,-0.414258,0.3149,0.095081,0.44075299999999995,-0.201066
412,0.9182600000000001,-1.134107,-2.5749459999999997,0.336042,0.906157,-0.256808,-0.175371,-0.8373430000000001,0.017981,0.056764999999999996,0.274675,-0.23029899999999998
413,0.912665,-1.141751,-2.560926,0.32911,0.9093629999999999,-0.25444,-0.6015699999999999,-0.901148,-0.172922,-0.042932,0.165023,-0.121994
414,0.918533,-1.1533209999999998,-2.5383259999999996,0.322214,0.914115,-0.24610100000000001,-0.776418,-0.631046,-0.16808,-0.138452,0.005944,-0.023003
415,0.935523,-1.167136,-2.509111,0.316152,0.9196290000000001,-0.233075,-0.9501280000000001,-0.42029799999999995,-0.238999,-0.19042,-0.218137,0.060115999999999996
416,0.961291,-1.184922,-2.4732830000000003,0.308591,0.9264700000000001,-0.21545300000000003,-1.150859,-0.33603,-0.359082,-0.25695500000000004,-0.402574,0.092879
417,0.996876,-1.205432,-2.428798,0.300037,0.9339940000000001,-0.19397799999999998,-1.300649,-0.24687399999999998,-0.413654,-0.254245,-0.46591499999999997,0.085793
418,1.04701,-1.226796,-2.373271,0.292033,0.9414129999999999,-0.168678,-1.427608,0.0017329999999999997,-0.403109,-0.26526900000000003,-0.54676,0.058296
419,1.113875,-1.247841,-2.30557,0.28480500000000003,0.9483010000000001,-0.140016,-1.490599,0.218248,-0.414508,-0.197051,-0.684172,-0.043624
420,1.1932530000000001,-1.267124,-2.228275,0.277957,0.9542450000000001,-0.110229,-1.454028,0.315998,-0.382331,-0.172458,-0.6712100000000001,-0.102906
421,1.274735,-1.28219,-2.14875,0.272223,0.958641,-0.083035,-1.248958,0.23177899999999999,-0.278242,-0.152289,-0.555657,-0.186328
422,1.344822,-1.289851,-2.078913,0.270203,0.960794,-0.06212,-0.905226,0.078191,0.0031620000000000003,-0.102174,-0.416116,-0.21893200000000002
423,1.394155,-1.288581,-2.027398,0.274138,0.960441,-0.048934,-0.5869989999999999,-0.02535,0.31209699999999996,-0.047942,-0.256187,-0.189317
424,1.433433,-1.2815889999999999,-1.9868419999999998,0.282494,0.95847,-0.03905,-0.493604,0.029058999999999998,0.47718599999999994,-0.06234,-0.100347,-0.132733
425,1.469388,-1.273409,-1.950175,0.291507,0.956105,-0.029663,-0.46026300000000003,0.05889,0.44747,-0.122867,0.030879000000000004,-0.139252
426,1.4928290000000002,-1.265608,-1.9258259999999998,0.29954899999999995,0.9537909999999999,-0.023403,-0.128236,-0.156276,0.42122299999999996,-0.192387,0.16614400000000001,-0.159413
427,1.462492,-1.257056,-1.9514490000000002,0.3068,0.9511860000000001,-0.033358,0.763604,-0.24963000000000002,0.349592,-0.132804,0.585801,-0.029966000000000003
428,1.403111,-1.2494049999999999,-2.0159380000000002,0.311447,0.9487969999999999,-0.05272,1.110642,0.287035,0.107774,0.017655,0.9155979999999999,0.377626
429,1.374687,-1.248995,-2.056943,0.310204,0.948667,-0.061626,0.356346,0.5249739999999999,-0.13280799999999998,0.037101999999999996,0.265719,0.252971
430,1.3334840000000001,-1.248593,-2.103669,0.307772,0.9485399999999999,-0.074441,0.8931370000000001,0.08314099999999999,-0.12956099999999998,0.233579,0.8872450000000001,0.019844999999999998
431,1.303258,-1.242895,-2.1364810000000003,0.31059000000000003,0.9467200000000001,-0.085136,0.385999,-0.032978,0.31035799999999997,0.606845,0.616146,-0.011986
432,1.28714,-1.235515,-2.1523630000000002,0.315877,0.944318,-0.092084,0.39169699999999996,-0.022063,0.23988099999999998,0.455333,0.18599200000000002,-0.16105999999999998
433,1.273239,-1.228017,-2.169082,0.321327,0.941824,-0.098539,0.299547,0.178323,0.291323,0.035668,0.169473,-0.207812
434,1.281395,-1.222475,-2.1682330000000003,0.327117,0.939947,-0.097403,-0.072283,0.47810600000000003,0.237067,0.033066000000000005,0.19028699999999998,-0.025812
435,1.309086,-1.221517,-2.150568,0.330558,0.9396200000000001,-0.088541,-0.391162,0.565153,0.057402999999999996,0.117547,0.158891,-0.009831999999999999
436,1.347925,-1.2248430000000001,-2.119236,0.33069699999999996,0.9407530000000001,-0.074948,-0.654974,0.372707,-0.072379,0.107948,-0.14769200000000002,0.051144
437,1.392241,-1.2300389999999999,-2.074446,0.328878,0.9425020000000001,-0.059355,-0.848774,-0.067445,-0.122307,0.06573,-0.198224,0.045881
438,1.434513,-1.2364030000000001,-2.024239,0.325144,0.9446100000000001,-0.044588,-0.852669,-0.308899,-0.209619,0.034308,-0.172759,0.044893
439,1.468962,-1.242694,-1.9818349999999998,0.320569,0.9466559999999999,-0.032757999999999995,-0.610031,-0.242493,-0.243261,-0.151196,-0.171952,-0.019458
440,1.4846629999999998,-1.248737,-1.9621849999999998,0.315338,0.948586,-0.027229000000000003,-0.18018900000000002,-0.07549700000000001,-0.286406,-0.19123800000000002,-0.17469,-0.034142
441,1.48199,-1.254982,-1.9664380000000001,0.309357,0.9505440000000001,-0.027545,0.161448,0.155775,-0.343068,-0.225144,-0.24674699999999997,-0.05711
442,1.465223,-1.261938,-1.990357,0.302269,0.952681,-0.032031,0.42947299999999994,0.387305,-0.40024499999999996,-0.17041800000000001,-0.42803800000000003,-0.076032
443,1.436827,-1.268764,-2.031334,0.29478499999999996,0.954734,-0.03973,0.633308,0.623145,-0.414078,-0.150101,-0.477134,-0.087818
444,1.4011959999999999,-1.2743659999999999,-2.082836,0.287906,0.956385,-0.049303,0.739023,0.683339,-0.373893,-0.070774,-0.5163369999999999,-0.07345399999999999
445,1.3599219999999999,-1.278139,-2.139395,0.282097,0.9574809999999999,-0.060385,0.772559,0.603107,-0.319077,0.102379,-0.49983900000000003,-0.05961
446,1.317739,-1.279819,-2.193559,0.27774099999999996,0.9579639999999999,-0.071824,0.719988,0.400485,-0.218771,0.182265,-0.44644399999999995,-0.051604
447,1.275939,-1.278229,-2.2417529999999997,0.275955,0.957507,-0.08381,0.673037,0.102717,-0.039256,0.19155899999999998,-0.38695,-0.047614
448,1.2359790000000002,-1.273039,-2.282039,0.27707600000000004,0.955997,-0.096399,0.599616,-0.166132,0.12401300000000001,0.069878,-0.202579,0.028299
449,1.19899,-1.265285,-2.312802,0.28021999999999997,0.953693,-0.10927,0.5461199999999999,-0.5372140000000001,0.261916,0.030739,-0.132374,0.069841
450,1.156016,-1.25359,-2.339316,0.285457,0.95011,-0.125694,0.6772560000000001,-1.073231,0.460071,0.012912999999999999,-0.046301999999999996,0.07785800000000001
451,1.106415,-1.234441,-2.36769,0.295089,0.9439639999999999,-0.147815,0.890156,-1.070043,0.8097949999999999,-0.069488,0.464606,0.018192
452,1.062371,-1.208056,-2.397991,0.309948,0.9349280000000001,-0.172732,1.203301,-0.594362,0.9288770000000001,0.054508,0.670709,-0.227338
453,1.015676,-1.182533,-2.4404619999999997,0.321726,0.9255680000000001,-0.199526,1.331417,-0.27357,0.5159590000000001,0.18894,0.733978,-0.389906
454,0.9715090000000001,-1.165209,-2.481911,0.325797,0.9188709999999999,-0.22254899999999997,0.982584,-0.320177,0.21982100000000002,0.097925,0.83647,-0.365616
455,0.948011,-1.152622,-2.500339,0.32984600000000003,0.913832,-0.23686999999999997,0.485404,-0.380949,0.396956,0.175372,0.825472,-0.18276199999999998
456,0.9437180000000001,-1.141985,-2.495461,0.336679,0.9094610000000001,-0.24397399999999997,0.07495299999999999,-0.465088,0.48179099999999997,0.039755,0.47141400000000006,-0.139693
457,0.9471069999999999,-1.1402649999999999,-2.47858,0.33877399999999996,0.908744,-0.243746,-0.437968,-0.733637,0.15274400000000002,0.013109,0.13305,-0.14185899999999999
458,0.951341,-1.150136,-2.452745,0.332482,0.9128200000000001,-0.237089,-0.853958,-1.0790549999999999,-0.218255,-0.087838,-0.275552,-0.094912
459,0.954995,-1.166944,-2.424075,0.320776,0.9195540000000001,-0.226978,-0.995209,-1.119367,-0.403993,-0.130911,-0.290541,-0.071759
460,0.965772,-1.186185,-2.3911119999999997,0.30859200000000003,0.9269440000000001,-0.213403,-1.121,-0.8770399999999999,-0.422274,-0.180937,-0.286609,-0.013219999999999999
461,0.992237,-1.2059870000000001,-2.3470459999999997,0.298701,0.934192,-0.19508499999999998,-1.2739770000000001,-0.641442,-0.332845,-0.221888,-0.24303000000000002,0.004396
462,1.035065,-1.224184,-2.2918939999999997,0.292111,0.9405290000000001,-0.17340999999999998,-1.293207,-0.312596,-0.23512399999999997,-0.227307,-0.221993,-0.009177
463,1.089222,-1.2417719999999999,-2.2323619999999997,0.28636300000000003,0.946358,-0.14965699999999998,-1.292303,0.026558,-0.334897,-0.195191,-0.336663,-0.024644
464,1.1535309999999999,-1.261409,-2.168355,0.278343,0.95252,-0.12338800000000001,-1.356747,0.24368499999999998,-0.49799499999999997,-0.15293099999999998,-0.408071,-0.057916999999999996
465,1.227507,-1.280606,-2.096649,0.269429,0.958189,-0.096305,-1.30351,0.261445,-0.455987,-0.09665399999999999,-0.495634,-0.09478099999999999
466,1.301771,-1.29362,-2.0228669999999997,0.263786,0.961832,-0.072728,-1.098322,0.095742,-0.221469,-0.063362,-0.399912,-0.126109
467,1.362333,-1.2999209999999999,-1.9582529999999998,0.26177,0.9635370000000001,-0.055374,-0.820932,-0.19572,-0.035424000000000004,-0.064703,-0.352087,-0.18068
468,1.405448,-1.3008899999999999,-1.9068189999999998,0.262992,0.9637959999999999,-0.043886,-0.610228,-0.361279,0.15854000000000001,-0.135933,-0.30183899999999997,-0.133665
469,1.4409100000000001,-1.297532,-1.8628689999999999,0.26759,0.9628950000000001,-0.034953,-0.5541729999999999,-0.330081,0.29989699999999997,-0.193997,-0.279973,-0.12827
470,1.47806,-1.2923229999999999,-1.8173240000000002,0.273694,0.961476,-0.025454,-0.573789,-0.399346,0.322281,-0.187025,-0.006047,-0.064816
471,1.4898959999999999,-1.289793,-1.7939009999999997,0.276399,0.960778,-0.02241,-0.052743,-0.659679,-0.027326999999999997,-0.163652,0.09374199999999999,-0.06896000000000001
472,1.442632,-1.290045,-1.827523,0.274793,0.9608469999999999,-0.035413,0.71095,-0.5904699999999999,-0.14813199999999999,-0.18767999999999999,1.03662,0.123776
473,1.384798,-1.297947,-1.8866630000000002,0.264816,0.963007,-0.049831,0.649126,0.066011,-0.694198,-0.332351,0.44173199999999996,0.34338
474,1.305709,-1.3101209999999999,-1.967479,0.248717,0.966216,-0.067521,1.108534,0.0321,-0.8704069999999999,-0.047499,0.920319,0.385209
475,1.249642,-1.3172,-2.039862,0.238046,0.968016,-0.079191,0.476054,0.853448,-0.327879,0.7120270000000001,0.9288190000000001,0.173277
476,1.2387299999999999,-1.306706,-2.065157,0.24675999999999998,0.9653299999999999,-0.085091,0.598951,0.517519,0.7213350000000001,0.5666100000000001,-0.132368,-0.437125
477,1.225718,-1.289402,-2.078904,0.261314,0.9606690000000001,-0.093932,0.125495,-0.297157,0.800257,0.152352,-0.132727,-0.205583
478,1.257891,-1.277625,-2.03678,0.274947,0.957332,-0.08895399999999999,-0.541991,-0.361338,0.646126,0.045763,0.093434,-0.212071
479,1.310343,-1.274464,-1.981237,0.28215500000000004,0.956414,-0.075196,-0.8629020000000001,0.171102,0.175321,0.043512999999999996,0.132499,0.008531
480,1.386916,-1.282571,-1.910916,0.279449,0.95875,-0.051972000000000004,-1.18435,0.5937819999999999,-0.285734,0.166321,0.21350700000000003,0.02115
481,1.481457,-1.2914290000000002,-1.827129,0.27463699999999996,0.9612299999999999,-0.024600999999999998,-1.202051,0.699272,-0.277447,0.270789,-0.071643,-0.058376
482,1.570503,-1.2992270000000001,-1.7429130000000002,0.268233,0.9633510000000001,-7.900000000000001e-05,-1.157973,0.191415,-0.385447,0.269228,-0.079989,-0.08051799999999999
483,1.6566290000000001,-1.307391,-1.6523,0.259399,0.9655090000000001,0.02232,-1.191072,-0.19034500000000001,-0.525126,0.047867,-0.227685,-0.075649
484,1.7404330000000001,-1.318203,-1.5607540000000002,0.246315,0.968268,0.04219,-0.979922,-0.210369,-0.761839,-0.061454999999999996,-0.222372,-0.204772
485,1.8076990000000002,-1.33038,-1.488832,0.231444,0.971239,0.055879,-0.5781109999999999,-0.055207000000000006,-0.751753,-0.048659,-0.168718,-0.228334
486,1.8543490000000002,-1.341174,-1.442876,0.218506,0.9737520000000001,0.063674,-0.312026,0.19783199999999998,-0.592122,-0.020812999999999998,-0.157407,-0.199721
487,1.899957,-1.348925,-1.402998,0.208225,0.9754870000000001,0.071127,-0.306399,0.397542,-0.45667399999999997,0.069469,-0.463387,-0.098028
488,1.9404299999999999,-1.353701,-1.369904,0.200829,0.976527,0.07781,-0.20911100000000002,0.39006599999999997,-0.270115,0.118461,-0.5778300000000001,-0.10326099999999999
489,1.952473,-1.356455,-1.36329,0.197382,0.977117,0.079221,0.124293,0.19331700000000002,-0.10836900000000001,0.133703,-0.562688,-0.144315
490,1.922979,-1.361513,-1.392332,0.19499,0.9781799999999999,0.071659,0.548298,-0.22981500000000002,-0.15507100000000001,0.183108,-0.36025999999999997,-0.193211
491,1.8472259999999998,-1.370263,-1.4600799999999998,0.19161199999999998,0.9799610000000001,0.054359000000000005,0.8724299999999999,-0.590692,-0.232461,0.26717399999999997,-0.22376500000000002,-0.108848
492,1.753498,-1.378981,-1.540102,0.187451,0.9816600000000001,0.034634,0.840225,-0.869692,-0.230192,0.257038,-0.24754400000000001,-0.097653
493,1.6459130000000002,-1.3833870000000001,-1.629206,0.18577,0.98249,0.013981,0.876691,-1.084813,-0.011745,0.092322,-0.413292,0.036099
494,1.5271629999999998,-1.380287,-1.722939,0.189161,0.981908,-0.008259,0.874441,-1.513228,0.299641,-0.046965,-0.439565,0.133793
495,1.385835,-1.366319,-1.827869,0.199577,0.979167,-0.037341,1.289034,-2.1151400000000002,0.746621,-0.13015,-0.322261,0.13338
496,1.2390700000000001,-1.339531,-1.9353080000000003,0.21670100000000003,0.973377,-0.074644,1.519517,-1.960894,1.133661,-0.26264499999999996,0.09890399999999999,-0.0161
497,1.1309930000000001,-1.304454,-2.0151380000000003,0.23814699999999997,0.9647399999999999,-0.11205799999999999,1.6404599999999998,-1.261987,1.273547,-0.168978,0.46763299999999997,-0.116702
498,1.049849,-1.2653940000000001,-2.08535,0.260784,0.9537260000000001,-0.149643,1.793728,-0.39644,1.271372,-0.09069400000000001,0.667413,-0.10450799999999999
499,0.993524,-1.231024,-2.13163,0.27926,0.942831,-0.181876,1.351592,-0.8695700000000001,0.892876,0.214194,0.2093,-0.107751
500,0.9389299999999999,-1.207582,-2.163381,0.286679,0.93476,-0.20984299999999997,0.951535,-1.410221,0.579922,0.198153,0.086496,-0.21123899999999998
501,0.900698,-1.189942,-2.172843,0.291329,0.9283469999999999,-0.23085300000000003,0.5263680000000001,-1.4654639999999999,0.644321,0.137321,0.115598,-0.220059
502,0.885022,-1.17298,-2.16063,0.299819,0.921909,-0.245329,0.253012,-1.26101,0.900659,-0.037795,0.159832,-0.219957
503,0.888375,-1.158466,-2.1324389999999998,0.31099299999999996,0.9161889999999999,-0.252736,-0.112977,-1.0667870000000002,0.865807,-0.059909000000000004,-0.012106,-0.19128
504,0.8968360000000001,-1.151856,-2.101881,0.317844,0.9135209999999999,-0.253869,-0.35273000000000004,-0.913122,0.475103,-0.105717,-0.055687,-0.178306
505,0.9047200000000001,-1.1555879999999998,-2.074777,0.317153,0.915032,-0.24924699999999997,-0.686725,-0.852817,0.06997300000000001,0.008653000000000001,0.0033640000000000002,-0.145071
506,0.922408,-1.169149,-2.038335,0.311592,0.9204180000000001,-0.23608200000000001,-1.175761,-0.713763,-0.18038099999999999,0.052223,-0.079445,-0.150622
507,0.961925,-1.189742,-1.9856029999999998,0.30506,0.9282729999999999,-0.2127,-1.524563,-0.294672,-0.253857,0.041894,-0.109349,-0.19733399999999998
508,1.019992,-1.212496,-1.92103,0.298811,0.936494,-0.183534,-1.610411,-0.051004,-0.37547800000000003,0.027268999999999998,-0.056718,-0.36885
509,1.073999,-1.236546,-1.8620619999999999,0.28839499999999996,0.9446559999999999,-0.156354,-1.36727,-0.090251,-0.627966,-0.032215,-0.002045,-0.46577799999999997
510,1.111758,-1.260616,-1.81742,0.273623,0.9522790000000001,-0.135238,-1.047389,-0.290996,-0.786776,-0.066134,-0.05587,-0.36818
511,1.142484,-1.281216,-1.7761900000000002,0.259745,0.958364,-0.118594,-1.01221,-0.530713,-0.543736,0.028676999999999998,0.17718,-0.157697
512,1.183934,-1.292339,-1.7230720000000002,0.25454699999999997,0.9614809999999999,-0.1037,-0.853468,-0.541856,-0.026662,-0.06805399999999999,0.23728000000000002,-0.319319
513,1.221503,-1.2948549999999999,-1.671022,0.255988,0.962169,-0.093238,-0.561284,-0.565171,0.22216799999999998,-0.139746,0.041173,-0.286248
514,1.229267,-1.290139,-1.6516680000000001,0.26097600000000004,0.960874,-0.092766,0.200435,-0.668539,0.369695,-0.039739,-0.23560799999999998,0.040458999999999995
515,1.137305,-1.274425,-1.7230299999999998,0.26502600000000004,0.9564030000000001,-0.12266800000000001,1.928638,-1.754346,0.276335,-0.06213,0.056674,0.084735
516,0.9136350000000001,-1.238875,-1.907256,0.257984,0.945418,-0.199052,3.6263419999999997,-2.08996,-0.11623199999999999,0.18832000000000002,2.1870130000000003,0.380159
517,0.8172520000000001,-1.2359,-1.9920779999999998,0.239682,0.9444440000000001,-0.224879,-0.144765,-0.061958000000000006,-1.037137,0.384509,1.261809,1.077647
518,0.831148,-1.24233,-1.99796,0.23829299999999998,0.9465379999999999,-0.21742899999999998,0.370026,1.082738,0.23190300000000003,0.093342,-0.72231,-0.422464
519,0.8486040000000001,-1.214226,-1.998619,0.261915,0.9371,-0.230735,0.829586,0.693229,1.334813,0.136248,-0.388394,0.036185
520,0.879875,-1.193397,-1.956562,0.283985,0.9296260000000001,-0.234823,-0.115585,-0.8189270000000001,1.22119,0.22797800000000001,0.119736,0.034414
521,0.9033969999999999,-1.186489,-1.908582,0.29446500000000003,0.9270579999999999,-0.23204699999999998,-0.8478629999999999,-0.9921260000000001,0.41513,0.014769,0.8241620000000001,0.525932
522,0.942738,-1.211335,-1.859309,0.284634,0.9360860000000001,-0.20668499999999998,-1.8134599999999998,-0.067797,-0.794549,-0.219829,0.43278,0.322713
523,1.004813,-1.247619,-1.8012259999999998,0.268048,0.9482309999999999,-0.170295,-1.681774,0.645883,-0.894956,-0.225872,0.043894999999999997,0.036155
524,1.086015,-1.2712379999999999,-1.73565,0.26108400000000004,0.955467,-0.137514,-1.364827,1.029047,-0.287551,0.177576,0.011101,-0.055373
525,1.179538,-1.282489,-1.655472,0.262829,0.958727,-0.108424,-1.2903930000000001,0.620408,0.073483,0.215518,-0.264467,-0.097188
526,1.2678399999999999,-1.294722,-1.564181,0.260152,0.962133,-0.081318,-1.482624,-0.342269,-0.375279,0.121058,-0.614904,-0.039439999999999996
527,1.3502120000000002,-1.31505,-1.4646370000000002,0.24682199999999999,0.967475,-0.055346000000000006,-1.5109620000000001,-0.808485,-0.710302,-0.014949,-0.331656,0.041826
528,1.437919,-1.333308,-1.3569209999999998,0.23317,0.971932,-0.031167,-1.420614,-0.817588,-0.643429,-0.007187000000000001,-0.289559,0.089654
529,1.536565,-1.347983,-1.240549,0.220825,0.9752799999999999,-0.007562,-1.358266,-0.670968,-0.600453,-0.00299,-0.319304,0.08489400000000001
530,1.638368,-1.359183,-1.124641,0.209537,0.977693,0.014180000000000002,-1.1431559999999998,-0.49711700000000003,-0.5735359999999999,-0.030626999999999998,-0.305605,0.035746
531,1.72715,-1.3694629999999999,-1.027888,0.197515,0.979801,0.031136,-0.7998609999999999,-0.178321,-0.674096,-0.143621,-0.079074,-0.128045
532,1.8038990000000001,-1.382667,-0.949174,0.18194200000000002,0.9823559999999999,0.043196,-0.5280229999999999,0.057987000000000004,-0.863711,0.002735,0.015645,-0.017256
533,1.882002,-1.396747,-0.871641,0.16483,0.984892,0.053019000000000004,-0.494176,0.040632,-0.815383,0.24231999999999998,-0.069303,-0.065211
534,1.9636900000000002,-1.404398,-0.785913,0.152989,0.986188,0.06340499999999999,-0.570546,-0.227873,-0.46946800000000005,0.31507399999999997,-0.037411,-0.15978
535,2.0283740000000003,-1.4046370000000001,-0.7136899999999999,0.148359,0.9862270000000001,0.07305700000000001,-0.49150600000000005,-0.375329,-0.160011,0.338945,0.072504,-0.17388699999999999
536,2.068257,-1.402865,-0.66468,0.14686400000000002,0.985933,0.079749,-0.364111,-0.44636099999999995,-0.08959600000000001,0.42085500000000003,0.076323,-0.086005
537,2.095284,-1.400334,-0.625827,0.146816,0.985506,0.084939,-0.334854,-0.743985,-0.012098000000000001,0.47911400000000004,0.16080999999999998,-0.111199
538,2.086096,-1.3970690000000001,-0.614855,0.15038900000000002,0.9849469999999999,0.085171,-0.04074,-1.1111440000000001,0.175229,0.267289,0.347877,0.131
539,2.027641,-1.393904,-0.6470670000000001,0.157907,0.984395,0.077615,0.333537,-1.510281,0.297996,0.212454,0.383067,0.180609
540,1.9061849999999998,-1.393044,-0.7333569999999999,0.166946,0.984244,0.05819,0.879647,-1.9608869999999998,0.355799,0.14151,0.421396,0.22810999999999998
541,1.7334459999999998,-1.392188,-0.8664,0.175296,0.984092,0.028766000000000003,1.282389,-2.1431400000000003,0.295821,-0.028369,0.178155,0.273694
542,1.530461,-1.388569,-1.032194,0.181055,0.983442,-0.007306999999999999,1.544299,-1.808415,0.277993,-0.011576000000000001,0.281954,0.242292
543,1.352938,-1.377576,-1.182828,0.18746600000000002,0.981391,-0.0415,1.37859,-1.278921,0.408617,-0.019696,0.331017,0.252361
544,1.229279,-1.361507,-1.287166,0.195753,0.9781790000000001,-0.06957999999999999,1.131802,-1.007918,0.516573,0.040193,0.171129,0.094894
545,1.13089,-1.345135,-1.363586,0.20243699999999998,0.9746459999999999,-0.09527999999999999,1.0464790000000002,-1.377777,0.37651399999999996,0.154451,0.126397,0.01035
546,1.03607,-1.3311979999999999,-1.423712,0.204175,0.971433,-0.12093,0.853908,-2.086115,0.25964,0.17965899999999999,0.174441,0.029438
547,0.9510940000000001,-1.3195569999999999,-1.460241,0.20236800000000002,0.9686049999999999,-0.14438099999999998,0.590914,-2.6902369999999998,0.24896300000000002,0.228983,0.226311,0.08798500000000001
548,0.8774850000000001,-1.309985,-1.476758,0.198325,0.966181,-0.164792,0.387997,-2.956982,0.264979,0.16004300000000002,0.21257600000000001,0.158643
549,0.816217,-1.302486,-1.479172,0.19313699999999998,0.9642200000000001,-0.181584,0.201373,-2.936102,0.266853,0.08976100000000001,0.212721,0.196523
550,0.7834720000000001,-1.295743,-1.456308,0.191673,0.962411,-0.192412,-0.11511600000000001,-2.618488,0.500313,0.04908,0.137656,0.252746
551,0.7672479999999999,-1.292583,-1.4204729999999999,0.190636,0.961548,-0.197685,-0.25500300000000004,-2.4558880000000003,0.45212600000000003,-0.065514,-0.162079,0.20458199999999999
552,0.753674,-1.289336,-1.385879,0.190071,0.960651,-0.20253,-0.18060299999999999,-2.283564,0.450288,-0.08653999999999999,-0.21579299999999998,0.203049
553,0.7378100000000001,-1.286651,-1.353845,0.18856900000000001,0.959902,-0.20742800000000003,-0.238434,-2.39072,0.391269,-0.122971,-0.345674,0.255569
554,0.716627,-1.287225,-1.322154,0.183771,0.9600620000000001,-0.21095999999999998,-0.369392,-2.697607,0.260425,-0.079065,-0.508784,0.337135
555,0.688842,-1.292989,-1.2922280000000002,0.174319,0.961659,-0.21170799999999998,-0.5676800000000001,-2.8729080000000002,0.048824,-0.050341000000000004,-0.537251,0.363091
556,0.662081,-1.303708,-1.262152,0.162245,0.964543,-0.208154,-0.71157,-2.678229,-0.026137,-0.034269,-0.509313,0.366174
557,0.650355,-1.315597,-1.225108,0.152839,0.967613,-0.200901,-0.799456,-2.196804,0.06984,-0.045844,-0.404594,0.263783
558,0.665833,-1.3271,-1.170555,0.149044,0.970453,-0.189745,-0.9055549999999999,-1.6686990000000002,0.22972399999999998,-0.0872,-0.233896,0.174898
559,0.701775,-1.338381,-1.106575,0.14868699999999999,0.9731129999999999,-0.175893,-0.8901540000000001,-1.1147129999999998,0.20561999999999997,-0.095099,-0.159102,0.08669099999999999
560,0.730388,-1.348311,-1.0573219999999999,0.147204,0.975352,-0.16436099999999998,-0.618603,-0.9497469999999999,0.008617,-0.045734,0.010793,0.018258
561,0.724012,-1.355381,-1.0411780000000002,0.14158199999999999,0.9768879999999999,-0.160126,-0.260655,-1.219894,-0.143429,0.044194,0.243144,-0.040863
562,0.6950390000000001,-1.357242,-1.044438,0.135719,0.977284,-0.16276300000000002,0.10115700000000001,-1.300494,-0.014747999999999999,0.059685,0.334728,-0.044893
563,0.6686489999999999,-1.3507850000000001,-1.048108,0.135287,0.9758950000000001,-0.171237,0.34120100000000003,-1.003191,0.286718,0.125257,0.319103,-0.141766
564,0.6649689999999999,-1.339634,-1.035396,0.14136300000000002,0.9734010000000001,-0.180287,0.35839099999999996,-0.715612,0.5492520000000001,0.15201800000000001,0.18082,-0.378261
565,0.683146,-1.3242129999999999,-1.001782,0.154075,0.9697520000000001,-0.189309,0.385317,-0.801203,0.8839030000000001,0.24959699999999999,-0.035044,-0.29499000000000003
566,0.67686,-1.303398,-0.985527,0.165492,0.964462,-0.20596799999999998,0.779704,-1.278116,0.725967,0.438878,0.07408200000000001,0.0174
567,0.664303,-1.2873700000000001,-0.966449,0.172402,0.960103,-0.22017399999999998,0.220308,-1.5957379999999999,0.720332,0.396873,0.29384899999999997,0.150091
568,0.677713,-1.280564,-0.92306,0.17943199999999998,0.9581770000000001,-0.222929,-0.301825,-1.2985010000000001,0.634051,0.107769,0.599409,0.32771100000000003
569,0.697371,-1.280912,-0.873972,0.183566,0.958277,-0.21910300000000002,-0.435225,-1.449797,0.490171,-0.060289999999999996,0.560552,0.303255
570,0.6993149999999999,-1.2827309999999998,-0.840117,0.182868,0.9587950000000001,-0.21741100000000002,-0.38167399999999996,-1.5263,0.12851600000000002,-0.154548,0.282171,0.282841
571,0.663501,-1.288928,-0.846453,0.17130399999999998,0.9605370000000001,-0.219135,-0.016218,-1.494378,-0.44474300000000005,-0.15719,-0.30704899999999996,0.309467
572,0.602229,-1.293105,-0.878591,0.155289,0.961691,-0.225904,0.071394,-1.489264,-0.467639,0.068008,-0.360052,0.3728
573,0.560297,-1.30066,-0.894501,0.141818,0.963734,-0.226054,-0.385777,-1.238933,-0.335489,0.23228200000000002,-0.05634,0.34641500000000003
574,0.554417,-1.314815,-0.8787229999999999,0.13329000000000002,0.9674149999999999,-0.215263,-0.893632,-0.97936,-0.073382,0.326823,0.318443,0.238914
575,0.593464,-1.331724,-0.818862,0.13242400000000001,0.971558,-0.196305,-1.183099,-0.948842,0.27066100000000004,0.27829699999999996,0.395233,0.125763
576,0.654903,-1.3463040000000002,-0.736842,0.13558399999999998,0.974907,-0.176549,-1.0818860000000001,-0.8867200000000001,0.365292,0.150091,0.188926,0.045842
577,0.720079,-1.356632,-0.652977,0.140147,0.9771540000000001,-0.15976400000000002,-0.9354530000000001,-0.8201450000000001,0.372639,0.131307,-0.120572,0.13844800000000002
578,0.7797930000000001,-1.367127,-0.5749489999999999,0.14221199999999998,0.979331,-0.143815,-0.974251,-0.8639680000000001,0.17694000000000001,0.092193,-0.187522,0.154573
579,0.854749,-1.379189,-0.47838800000000004,0.14365999999999998,0.981699,-0.124998,-1.18011,-1.048775,0.21739899999999998,0.067736,-0.209711,0.146757
580,0.948833,-1.3924590000000001,-0.360433,0.14416500000000002,0.98414,-0.103349,-1.2939379999999998,-1.103258,0.088487,-0.023468,-0.258691,0.16877799999999998
581,1.049137,-1.407447,-0.23656300000000002,0.140983,0.9866879999999999,-0.081032,-1.266125,-1.080056,-0.143152,-0.027442,-0.124231,0.10350899999999999
582,1.143405,-1.422407,-0.11928599999999999,0.13453299999999999,0.9890110000000001,-0.061276,-1.063779,-1.085435,-0.30517,-0.01907,-0.09417400000000001,0.057339
583,1.222175,-1.436233,-0.018085,0.126073,0.9909600000000001,-0.045823,-0.846621,-1.047476,-0.395569,0.050166,-0.20027999999999999,0.072435
584,1.298575,-1.448216,0.07845099999999999,0.117754,0.9924959999999999,-0.032871,-0.741613,-0.912689,-0.360825,0.08770499999999999,-0.282413,0.101536
585,1.390923,-1.4575770000000001,0.188065,0.11113699999999999,0.993598,-0.020209,-0.7477550000000001,-0.7776890000000001,-0.283061,0.098092,-0.29151,0.09624400000000001
586,1.5185879999999998,-1.465365,0.331384,0.10507000000000001,0.994447,-0.005490999999999999,-0.8679610000000001,-0.731334,-0.31600700000000004,0.113603,-0.15725899999999998,0.022244999999999997
587,1.674606,-1.472472,0.5028779999999999,0.097612,0.9951700000000001,0.01017,-0.835404,-0.710797,-0.41835500000000003,0.181624,0.03402,-0.044929000000000004
588,1.84112,-1.47865,0.6827270000000001,0.088647,0.995757,0.024565,-0.7535029999999999,-0.572421,-0.461757,0.201086,0.06979400000000001,-0.047697
589,1.9943919999999997,-1.4819,0.846751,0.08090399999999999,0.996051,0.036479000000000004,-0.536771,-0.452083,-0.373871,0.24172800000000003,-0.036579,0.0073290000000000004
590,2.095393,-1.4839870000000002,0.9564010000000001,0.075012,0.9962340000000001,0.043407999999999995,-0.32494,-0.447942,-0.261302,0.407684,-0.012638,0.057879999999999994
591,2.1573,-1.482321,1.0318040000000002,0.073568,0.9960889999999999,0.048886,-0.328783,-0.796292,0.009378000000000001,0.463542,0.06804400000000001,0.014147999999999999
592,2.165922,-1.476426,1.05788,0.07800599999999999,0.99555,0.05281,-0.19658499999999998,-0.825375,0.24107399999999998,0.312695,0.126825,0.01622
593,2.122836,-1.4699229999999999,1.0316889999999999,0.08572,0.994917,0.052796,0.004777,-0.9365600000000001,0.431699,0.351979,0.21264899999999998,-0.044785000000000005
594,2.0161830000000003,-1.4608459999999999,0.943624,0.099003,0.9939620000000001,0.047262,0.321345,-0.9494870000000001,0.7255510000000001,0.31716500000000003,0.180874,0.10753900000000001
595,1.841176,-1.4495149999999999,0.790197,0.116567,0.992654,0.032309,0.837534,-1.301358,0.8930450000000001,0.247004,0.14340799999999998,0.25869200000000003
596,1.606127,-1.433258,0.58825,0.136998,0.990557,0.004842,1.342511,-2.013246,1.0587870000000001,-0.027989,0.148146,0.289561
597,1.353585,-1.40844,0.378231,0.15783,0.986849,-0.034832,1.8417,-2.270675,1.066876,-0.093331,0.22189099999999998,0.285076
598,1.1480059999999999,-1.379226,0.20951999999999998,0.173624,0.981706,-0.07811699999999999,1.803664,-1.7326099999999998,0.808479,-0.025705000000000002,0.417433,0.396156
599,1.0181,-1.350877,0.10423099999999999,0.185661,0.975915,-0.11452000000000001,1.49358,-1.204092,0.775726,0.021263,0.37549499999999997,0.28630300000000003
600,0.9383309999999999,-1.322609,0.047833,0.198124,0.969359,-0.145205,1.253841,-1.3418649999999999,0.8052060000000001,0.129375,0.37152199999999996,0.249926
601,0.873174,-1.297204,0.013072,0.20706100000000002,0.962807,-0.173565,1.0564069999999999,-1.7135349999999998,0.6825260000000001,0.15558,0.426415,0.220196
602,0.8200299999999999,-1.274846,-0.00294,0.213238,0.956526,-0.198957,0.809662,-1.9897529999999999,0.707862,0.100711,0.41917600000000005,0.194029
603,0.777771,-1.2552290000000002,-0.003696,0.21777,0.95062,-0.221117,0.6589470000000001,-2.104071,0.6556810000000001,-0.107144,0.260531,0.14091700000000001
604,0.737574,-1.2355690000000001,-0.002721,0.22123600000000002,0.944335,-0.243477,0.678817,-1.887102,0.7249770000000001,-0.033629,0.164902,0.23362
605,0.698628,-1.220767,-0.0024579999999999997,0.22055500000000003,0.939363,-0.26258200000000004,0.599821,-1.80645,0.33869299999999997,-0.029072000000000004,0.12254200000000001,0.23974
606,0.65613,-1.2096,-0.004497999999999999,0.215586,0.935475,-0.28001,0.298587,-2.3349580000000003,0.366108,0.005239,0.220592,0.110928
607,0.622138,-1.201117,0.008844,0.210562,0.932443,-0.293614,0.162077,-2.247436,0.44195500000000004,0.125619,-0.056024000000000004,0.22264499999999998
608,0.596096,-1.194279,0.022614,0.20642,0.929951,-0.304266,0.100472,-1.7771709999999998,0.37576,0.113602,-0.420658,0.2712
609,0.578104,-1.191654,0.038918,0.202247,0.928982,-0.309975,-0.168424,-1.6299620000000001,0.292508,-0.005653,-0.6328550000000001,0.271919
610,0.564121,-1.195141,0.060091,0.19616,0.930267,-0.310033,-0.46611199999999997,-1.713832,0.212556,-0.10376800000000001,-0.6835479999999999,0.262594
611,0.552814,-1.202841,0.08463999999999999,0.188875,0.9330649999999999,-0.306125,-0.604468,-1.7013779999999998,0.14854900000000001,-0.20491199999999998,-0.69248,0.280964
612,0.546713,-1.2123709999999999,0.111364,0.182372,0.93645,-0.299663,-0.6781560000000001,-1.437106,0.191493,-0.237456,-0.715259,0.29877800000000004
613,0.552416,-1.2232,0.143236,0.17874600000000002,0.9401940000000001,-0.28996700000000003,-0.806597,-1.056348,0.189039,-0.24016300000000002,-0.692285,0.302556
614,0.574278,-1.235963,0.184275,0.178508,0.944465,-0.275893,-0.9591370000000001,-0.735482,0.266611,-0.217784,-0.597999,0.265349
615,0.607462,-1.24912,0.232609,0.180455,0.948707,-0.259592,-0.95849,-0.574695,0.283501,-0.17763199999999998,-0.5211859999999999,0.206339
616,0.640201,-1.2591450000000002,0.27742,0.18316400000000002,0.9518280000000001,-0.24590599999999999,-0.7113689999999999,-0.44233,0.267966,-0.161528,-0.348084,0.10300699999999999
617,0.667772,-1.264214,0.31383099999999997,0.186883,0.9533709999999999,-0.23697100000000001,-0.434496,-0.280468,0.309217,-0.052652,-0.022767,0.016663999999999998
618,0.698333,-1.263236,0.346933,0.194636,0.953075,-0.231864,-0.20527199999999998,0.107876,0.497259,-0.020579,0.028141000000000003,0.0194
619,0.740003,-1.258546,0.38309,0.20713800000000002,0.9516450000000001,-0.226852,-0.214669,0.49736899999999995,0.604585,0.075913,-0.047226,0.07685800000000001
620,0.796107,-1.254724,0.427814,0.22213000000000002,0.950464,-0.217423,-0.430217,0.750496,0.627325,0.074257,-0.049295,0.072586
621,0.861815,-1.2546389999999998,0.481857,0.235988,0.9504370000000001,-0.202421,-0.726627,0.681664,0.515315,0.029454,0.024905,0.06626699999999999
622,0.913035,-1.258054,0.526116,0.243471,0.951493,-0.188088,-0.386394,0.23689000000000002,0.09311,-0.022494,0.959441,0.168465
623,0.8908719999999999,-1.255192,0.5115109999999999,0.24136,0.950609,-0.195148,0.544755,-0.709468,-0.08290800000000001,0.07828099999999999,1.265028,0.336017
624,0.821859,-1.248099,0.45273599999999997,0.232262,0.948383,-0.215914,1.0473780000000001,-0.424964,-0.53696,0.085975,1.267651,0.503817
625,0.7739560000000001,-1.250426,0.40052,0.220113,0.949119,-0.22520900000000002,0.202,0.38354,-0.59304,0.06312000000000001,-0.190574,0.330189
626,0.77644,-1.251459,0.393216,0.21998499999999999,0.9494440000000001,-0.223962,0.103473,0.361595,0.18396600000000002,0.09813,-0.239666,0.117319
627,0.775634,-1.2364899999999999,0.38911599999999996,0.22973000000000002,0.9446379999999999,-0.23426100000000002,0.732889,0.22801999999999997,0.5410470000000001,0.15648499999999999,0.43696899999999994,-0.090995
628,0.7812,-1.228165,0.39405500000000004,0.23656,0.941874,-0.23855500000000002,-0.129974,-0.268385,0.22053000000000003,0.40572800000000003,0.115652,-0.064912
629,0.800249,-1.22666,0.421256,0.242077,0.941367,-0.234992,-0.213952,-0.198746,0.460204,0.074085,-0.000754,-0.007790999999999999
630,0.8222879999999999,-1.221666,0.445404,0.250638,0.9396709999999999,-0.23279699999999998,-0.16178399999999998,0.024738,0.47096400000000005,0.03464,-0.054188,0.06893200000000001
631,0.857526,-1.2200520000000001,0.48048500000000005,0.259831,0.939117,-0.22481399999999999,-0.539676,0.17110799999999998,0.425408,0.021938,-0.09979199999999999,0.10960999999999999
632,0.902341,-1.224947,0.523267,0.266031,0.940788,-0.210096,-0.810298,0.23592800000000003,0.16813,0.09023099999999999,-0.09464199999999999,0.084516
633,0.943174,-1.235747,0.564766,0.26614499999999996,0.9443940000000001,-0.193083,-0.8882459999999999,-0.041842000000000004,-0.096978,0.21729899999999996,0.008228000000000001,0.09600700000000001
634,0.9737319999999999,-1.249624,0.6009329999999999,0.261056,0.948866,-0.177475,-0.8550770000000001,-0.22118200000000002,-0.29841,0.13608499999999998,0.040499,0.083618
635,0.998908,-1.264039,0.6321479999999999,0.25391199999999997,0.953318,-0.163427,-0.751495,-0.235252,-0.33292,0.00117,-0.04217,0.054921000000000005
636,1.020147,-1.274089,0.659614,0.249148,0.956304,-0.152976,-0.491617,-0.259891,-0.257366,-0.096819,-0.18942799999999999,0.07682
637,1.023601,-1.280186,0.665293,0.244691,0.9580690000000001,-0.149079,-0.074395,0.046303,-0.201433,-0.16739,-0.43650900000000004,0.029952999999999997
638,1.013808,-1.281947,0.647277,0.241787,0.958572,-0.150576,0.329228,0.560634,-0.235592,-0.115246,-0.584,0.017275
639,0.986857,-1.2808389999999998,0.604992,0.23852800000000002,0.958256,-0.157623,0.625454,0.6642060000000001,-0.285998,-0.054965,-0.673405,0.007690000000000001
640,0.952235,-1.277678,0.557052,0.235396,0.957348,-0.16754000000000002,0.6767810000000001,0.5029680000000001,-0.235227,0.055803,-0.565487,0.082229
641,0.9123760000000001,-1.271679,0.507993,0.233071,0.9555969999999999,-0.180299,0.807471,0.222039,-0.15811,0.186683,-0.338196,0.026719
642,0.863369,-1.262122,0.455534,0.23089099999999999,0.9527370000000001,-0.197426,0.950284,0.004013,-0.10449000000000001,0.26029,-0.199685,0.122918
643,0.817887,-1.2513729999999998,0.40971199999999997,0.229136,0.949417,-0.214711,0.846648,-0.21952199999999997,-0.057926,0.19936099999999998,-0.071548,0.276371
644,0.7754850000000001,-1.238225,0.376988,0.228548,0.945206,-0.233125,0.8372440000000001,-0.8077340000000001,0.261092,0.010298,0.108047,0.32592899999999997
645,0.7399720000000001,-1.21654,0.362558,0.233895,0.9379049999999999,-0.25617199999999996,1.031744,-1.202375,0.746861,-0.077477,0.43198400000000003,0.262565
646,0.712676,-1.18739,0.358677,0.244594,0.9273959999999999,-0.283032,1.196389,-1.138871,0.973325,0.06461,0.6757989999999999,0.022716999999999998
647,0.686937,-1.156115,0.351011,0.255504,0.9152450000000001,-0.311514,1.3439510000000001,-0.779626,0.783751,0.11931300000000002,0.8467950000000001,-0.234857
648,0.658408,-1.1277700000000002,0.328388,0.262286,0.903458,-0.339065,1.391247,-0.158163,0.375225,0.032483,0.806823,-0.187119
649,0.637397,-1.105574,0.3052,0.266975,0.8937219999999999,-0.36053,1.052044,-0.06260399999999999,0.215704,0.134805,0.6602640000000001,-0.13889
650,0.620637,-1.0900450000000002,0.293538,0.268935,0.886648,-0.3762,0.598547,-0.452384,0.314517,0.29225300000000004,0.505778,-0.06160499999999999
651,0.616256,-1.083223,0.30155,0.270773,0.883473,-0.382302,-0.115071,-0.631112,0.34074,0.119806,0.21268800000000002,0.026420999999999997
652,0.62063,-1.090017,0.325152,0.268946,0.8866350000000001,-0.376222,-0.861585,-0.9474969999999999,0.18851600000000002,0.030172000000000004,-0.063591,0.055955
653,0.627429,-1.107653,0.357204,0.262277,0.894653,-0.361668,-1.254224,-1.13183,0.006548999999999999,-0.170785,-0.331832,0.1097
654,0.635024,-1.129802,0.389678,0.253197,0.904328,-0.34362600000000004,-1.3278299999999998,-1.01921,-0.121228,-0.186882,-0.41642799999999996,0.133024
655,0.6470090000000001,-1.153494,0.42136999999999997,0.24431,0.914186,-0.323377,-1.358149,-0.7374930000000001,-0.21580500000000002,-0.198228,-0.5723739999999999,0.16609000000000002
656,0.666088,-1.177663,0.453593,0.23671,0.9237129999999999,-0.301194,-1.343764,-0.42738000000000004,-0.257762,-0.22691399999999998,-0.673179,0.16304100000000002
657,0.691866,-1.202351,0.488072,0.229773,0.932889,-0.277343,-1.3855950000000001,-0.271574,-0.29030100000000003,-0.199224,-0.774228,0.136428
658,0.7219399999999999,-1.229222,0.524944,0.221358,0.9422290000000001,-0.251399,-1.464718,-0.206842,-0.42553199999999997,-0.162184,-0.708388,0.071787
659,0.75605,-1.2553459999999999,0.56529,0.212839,0.950657,-0.22571300000000002,-1.334906,-0.20442000000000002,-0.344512,-0.094568,-0.404026,0.006841
660,0.796385,-1.273649,0.611341,0.20929299999999998,0.956176,-0.204744,-0.9957229999999999,-0.144029,-0.02389,-0.049167,-0.097975,-0.029233999999999996
661,0.8400629999999999,-1.2820719999999999,0.6583600000000001,0.21202800000000002,0.958608,-0.190028,-0.6892,-0.019495,0.268648,-0.08124400000000001,-0.029775,0.031794
662,0.8897309999999999,-1.285274,0.7086399999999999,0.218815,0.959515,-0.177333,-0.654931,0.098272,0.358467,-0.221088,-0.084377,0.043101
663,0.942283,-1.287336,0.760279,0.226226,0.960093,-0.16443,-0.588349,0.19604100000000002,0.359875,-0.25508000000000003,0.09488400000000001,0.009996
664,0.9565899999999999,-1.283835,0.7755850000000001,0.23130100000000003,0.959108,-0.163113,0.337194,-0.13336199999999998,0.148845,-0.277062,0.5873550000000001,0.16116
665,0.927744,-1.2719530000000001,0.744834,0.235605,0.955678,-0.176538,0.860749,0.284503,0.158376,0.042883,0.971584,0.382761
666,0.8852129999999999,-1.263107,0.685668,0.234421,0.9530360000000001,-0.191742,0.930866,0.9285389999999999,-0.320523,0.179032,0.552076,0.459045
667,0.8663219999999999,-1.256812,0.644726,0.23532399999999998,0.951111,-0.200018,0.607799,0.833506,0.0149,0.45351899999999995,0.58815,0.00263
668,0.856561,-1.2400360000000001,0.621563,0.24538400000000002,0.9457959999999999,-0.21272800000000003,0.752138,0.51966,0.585673,0.450798,0.300741,-0.050288
669,0.857347,-1.2317069999999999,0.6180859999999999,0.251499,0.943058,-0.217683,0.146715,0.074533,0.007308,0.25857199999999997,-0.076511,-0.129393
670,0.8523719999999999,-1.233809,0.611941,0.248919,0.9437549999999999,-0.21762600000000001,-0.07566,0.06841799999999999,-0.135243,0.079206,-0.0065450000000000005,-0.038905
671,0.86595,-1.237366,0.6200439999999999,0.249292,0.944925,-0.212049,-0.28579099999999996,0.474383,0.023002,0.026816000000000003,0.159826,0.061277
672,0.9042969999999999,-1.2386110000000001,0.64442,0.256314,0.945332,-0.20160899999999998,-0.383195,0.9135850000000001,0.296292,0.07951699999999999,0.204403,0.081813
673,0.9547559999999999,-1.238319,0.675944,0.266381,0.9452370000000001,-0.188584,-0.396364,1.07765,0.30453600000000003,0.169516,-0.048096,0.151566
674,1.001911,-1.238416,0.706109,0.274898,0.945268,-0.175769,-0.45731700000000003,0.757423,0.252178,0.135365,-0.120225,0.176867
675,1.042202,-1.2418360000000002,0.739279,0.278961,0.9463790000000001,-0.162921,-0.5747359999999999,0.29422600000000004,0.038307,0.07774400000000001,-0.19203,0.1897
676,1.0666209999999998,-1.249307,0.7597970000000001,0.27665700000000004,0.948766,-0.152642,-0.367561,0.280843,-0.257195,-0.123169,-0.29925999999999997,0.10886400000000002
677,1.0715709999999998,-1.2568030000000001,0.757794,0.27115700000000004,0.951108,-0.147861,-0.018772,0.37812199999999996,-0.377729,-0.14621800000000001,-0.336362,0.054904999999999995
678,1.05796,-1.261354,0.734376,0.265345,0.9525040000000001,-0.14941300000000002,0.317592,0.462096,-0.357327,-0.160975,-0.363331,0.028868
679,1.0327680000000001,-1.262232,0.696994,0.260779,0.9527709999999999,-0.15562,0.563291,0.5867220000000001,-0.301291,-0.1005,-0.48457,0.006481000000000001
680,1.002067,-1.25957,0.649508,0.258015,0.951959,-0.164917,0.767781,0.794606,-0.25099099999999996,-0.073277,-0.49944399999999994,-0.028258999999999996
681,0.963269,-1.253013,0.591284,0.256544,0.9499299999999999,-0.178361,1.011026,0.831952,-0.21088400000000002,-0.018765999999999998,-0.48501000000000005,-0.041503
682,0.920525,-1.2433370000000001,0.529283,0.255992,0.9468629999999999,-0.194716,1.101407,0.798475,-0.176027,0.238438,-0.257013,0.089614
683,0.882028,-1.232006,0.471817,0.256576,0.943157,-0.211231,1.062478,0.752522,-0.10573699999999998,0.293641,-0.188717,0.136722
684,0.850159,-1.2210969999999999,0.425683,0.257431,0.939476,-0.226075,0.8605079999999999,0.465508,-0.08327899999999999,0.30091799999999996,-0.189476,0.168519
685,0.821416,-1.211531,0.39000999999999997,0.257396,0.936155,-0.23949099999999998,0.764563,0.056577999999999996,-0.034287,0.223516,-0.0005780000000000001,0.163105
686,0.787039,-1.198795,0.361033,0.257436,0.931602,-0.25659299999999996,0.863959,-0.614789,0.20654899999999998,0.073771,0.2893,0.17975
687,0.755614,-1.179198,0.345236,0.261719,0.9243,-0.277792,0.914105,-0.8979219999999999,0.637756,0.017334,0.421266,0.114218
688,0.734495,-1.154326,0.341525,0.271121,0.914522,-0.300229,1.040481,-0.8415879999999999,0.8255049999999999,0.08053400000000001,0.491026,-0.208941
689,0.7093729999999999,-1.124739,0.326941,0.281,0.9021549999999999,-0.327339,1.484799,-0.422752,0.6614300000000001,0.160055,0.774404,-0.30674
690,0.681334,-1.096326,0.299786,0.287746,0.8895350000000001,-0.35486100000000004,1.3395780000000002,-0.073616,0.32347800000000004,0.21468,0.943031,-0.242429
691,0.6633789999999999,-1.080582,0.28220500000000004,0.289917,0.882232,-0.37096,0.5813020000000001,-0.229881,0.099396,0.185318,0.855668,-0.075772
692,0.6512640000000001,-1.077971,0.277973,0.28679699999999997,0.881,-0.376276,-0.036842,-0.47319700000000003,-0.05522899999999999,0.049033,0.36308,-0.05968300000000001
693,0.644779,-1.083677,0.281572,0.281325,0.883685,-0.374103,-0.42098,-0.5111720000000001,-0.082433,0.113587,-0.204058,0.101413
694,0.65475,-1.09433,0.299597,0.279292,0.8886209999999999,-0.363791,-0.8686590000000001,-0.307657,0.027411,-0.055949,-0.226054,0.010565999999999999
695,0.669475,-1.11237,0.328212,0.274625,0.89675,-0.347011,-1.206718,-0.641522,-0.103778,-0.155454,-0.36048,0.050793
696,0.681778,-1.134223,0.357216,0.266458,0.906206,-0.32831,-1.244794,-0.699449,-0.236429,-0.18499100000000002,-0.41766499999999995,0.14410599999999998
697,0.693921,-1.1562729999999999,0.38474400000000003,0.257581,0.915308,-0.309611,-1.197325,-0.6174470000000001,-0.271454,-0.200727,-0.485087,0.20130399999999998
698,0.710142,-1.177462,0.41310600000000003,0.249867,0.923636,-0.290618,-1.168791,-0.42903900000000006,-0.259745,-0.217579,-0.5584020000000001,0.202926
699,0.73217,-1.200275,0.44391800000000003,0.242056,0.9321389999999999,-0.2693,-1.2914780000000001,-0.258957,-0.32918600000000003,-0.204306,-0.562846,0.196821
700,0.763423,-1.224688,0.482253,0.234546,0.9407,-0.245088,-1.3618569999999999,-0.239583,-0.317952,-0.188052,-0.45032799999999995,0.150483
701,0.802374,-1.245525,0.528921,0.229767,0.947564,-0.222095,-1.210326,-0.248459,-0.094692,-0.129821,-0.378625,0.074421
702,0.847994,-1.259134,0.5808810000000001,0.229962,0.951825,-0.202835,-0.9612370000000001,-0.14796900000000002,0.133382,-0.075513,-0.301435,-0.033416
703,0.8939090000000001,-1.264989,0.6306,0.234681,0.9536040000000001,-0.188572,-0.647881,-0.013526,0.339429,-0.065125,-0.11168499999999999,-0.10946199999999999
704,0.9378270000000001,-1.263957,0.674615,0.24352800000000002,0.9532930000000001,-0.17867,-0.42481599999999997,0.159781,0.49565699999999996,-0.079786,0.052444000000000005,-0.069194
705,0.9822709999999999,-1.2602280000000001,0.715846,0.254181,0.95216,-0.169646,-0.429412,0.327033,0.498615,-0.010634999999999999,0.082233,-0.000932
706,1.0211540000000001,-1.257903,0.7504810000000001,0.262471,0.9514469999999999,-0.16079300000000002,-0.278438,0.21771,0.268006,-0.059025,0.150604,0.014843
707,1.021835,-1.257193,0.749444,0.263156,0.9512280000000001,-0.160967,0.189442,0.061699000000000004,-0.016946,-0.113559,0.7402850000000001,0.057481
708,0.991025,-1.254769,0.7151569999999999,0.26000100000000004,0.950478,-0.17026,0.785362,0.140689,-0.30664600000000003,-0.044181,1.08651,0.253924
709,0.9438620000000001,-1.2532299999999998,0.6578649999999999,0.252869,0.949998,-0.183186,0.626318,0.44015600000000005,-0.466238,0.30699099999999996,0.830535,0.384236
710,0.932638,-1.253743,0.635737,0.250406,0.950158,-0.185723,0.08712400000000001,0.526647,-0.050303,0.514425,0.282767,0.006462000000000001
711,0.9494440000000001,-1.25169,0.643212,0.255077,0.949516,-0.182623,-0.054582000000000006,0.383231,0.239447,0.46417700000000006,0.30901300000000004,-0.107706
712,0.962217,-1.2466700000000002,0.653541,0.26129600000000003,0.9479290000000001,-0.182073,0.022549,0.06728300000000001,0.32905300000000004,0.22993000000000002,0.204353,-0.085566
713,0.9795940000000001,-1.242039,0.668704,0.26806199999999997,0.9464440000000001,-0.179949,-0.117452,0.24357399999999998,0.320372,-0.04388,-0.047671,-0.037534
714,1.004146,-1.240283,0.685001,0.273801,0.945876,-0.174207,-0.20868,0.626102,0.109873,-0.011334,0.05146900000000001,0.041486
715,1.0395219999999998,-1.2427700000000002,0.7044739999999999,0.27776100000000004,0.94668,-0.163221,-0.42671800000000004,0.938225,0.033174,0.069727,0.135717,0.152631
716,1.086675,-1.248148,0.733336,0.28063499999999997,0.948399,-0.147575,-0.573298,1.0082799999999998,-0.042714999999999996,0.083729,-0.021991999999999998,0.165382
717,1.1313950000000002,-1.254982,0.7595109999999999,0.28108,0.9505440000000001,-0.13212100000000002,-0.443762,0.967907,-0.181696,0.060458000000000005,-0.13046,0.155467
718,1.157894,-1.262625,0.769543,0.277818,0.95289,-0.121708,-0.22733299999999998,0.776042,-0.340171,-0.034151,-0.239358,0.121647
719,1.169028,-1.2706469999999999,0.7669699999999999,0.27211199999999997,0.955292,-0.11561400000000001,-0.056067,0.621153,-0.38257399999999997,-0.081972,-0.288331,0.073637
720,1.161766,-1.275695,0.7482479999999999,0.266837,0.956773,-0.115668,0.298417,0.507812,-0.31799499999999997,-0.101035,-0.35756,-0.009149
721,1.1312010000000001,-1.2761870000000002,0.705329,0.262751,0.956916,-0.12356800000000001,0.719723,0.537014,-0.26061,-0.049951999999999996,-0.48261099999999996,-0.010846
722,1.080934,-1.2725959999999998,0.642126,0.25924200000000003,0.955867,-0.13823,0.972219,0.468976,-0.248077,-0.014536000000000002,-0.515483,0.043626
723,1.027245,-1.26688,0.579005,0.25612199999999996,0.9541719999999999,-0.15476600000000001,0.937795,0.23234699999999997,-0.183921,-0.005298,-0.526025,0.10474800000000001
724,0.974685,-1.259564,0.522149,0.25340799999999997,0.9519569999999999,-0.171923,0.927105,0.025578999999999998,-0.148479,0.083338,-0.357871,0.024065
725,0.9233469999999999,-1.250869,0.466426,0.250845,0.949258,-0.189686,0.9424239999999999,0.10226,-0.15701600000000002,0.160807,-0.265954,0.11868699999999999
726,0.879866,-1.243039,0.420741,0.248083,0.946767,-0.20514000000000002,0.743001,-0.061319000000000005,-0.102652,0.208765,-0.099462,0.17114400000000002
727,0.8494079999999999,-1.2336770000000001,0.3905,0.24836599999999998,0.9437110000000001,-0.218444,0.660582,-0.139678,0.116926,0.088762,-0.152314,0.24142399999999997
728,0.8172729999999999,-1.222015,0.364496,0.24922800000000003,0.93979,-0.23382600000000003,0.756667,-0.569441,0.148058,-0.056388,0.07974099999999999,0.19754000000000002
729,0.776053,-1.206284,0.337438,0.249707,0.934298,-0.254418,0.9827799999999999,-0.8989799999999999,0.310293,-0.032971,0.375868,0.16047
730,0.738067,-1.182732,0.315475,0.254603,0.925643,-0.279922,1.2303950000000001,-0.797788,0.630223,0.03687,0.515336,0.017486
731,0.70482,-1.151858,0.293734,0.263554,0.913522,-0.309859,1.553431,-0.555194,0.6887850000000001,0.0054280000000000005,0.60543,-0.130662
732,0.677304,-1.120942,0.268519,0.272504,0.9005110000000001,-0.338846,1.432954,-0.043626,0.46830200000000005,0.060610000000000004,0.45759799999999995,-0.134756
733,0.6552359999999999,-1.101365,0.24457199999999998,0.275652,0.891826,-0.358689,0.893651,-0.125197,0.023464,0.206907,0.619527,-0.27534400000000003
734,0.632558,-1.092729,0.22825700000000002,0.271991,0.8878860000000001,-0.37104499999999996,0.36895700000000003,-0.5749529999999999,-0.0020570000000000002,0.347623,1.0158770000000001,-0.202655
735,0.621145,-1.090754,0.230854,0.268759,0.886975,-0.375551,-0.11536199999999999,-0.669671,0.128209,0.227091,0.670459,-0.104369
736,0.624879,-1.094941,0.24408600000000003,0.267984,0.888901,-0.371529,-0.527565,-0.281533,0.124832,0.024436000000000003,0.25195300000000004,-0.06327
737,0.637513,-1.109003,0.268859,0.26519000000000004,0.8952549999999999,-0.358033,-1.094912,-0.623007,-0.035722000000000004,-0.045845,-0.177207,-0.07286000000000001
738,0.6472899999999999,-1.131572,0.295609,0.25642600000000004,0.9050819999999999,-0.33921599999999996,-1.2884149999999999,-0.733142,-0.297579,-0.05501,-0.319404,0.001966
739,0.653866,-1.156272,0.317759,0.244975,0.915308,-0.319676,-1.231941,-0.628471,-0.41482299999999994,-0.074641,-0.392862,0.088139
740,0.663027,-1.1805450000000002,0.33892100000000003,0.23414699999999997,0.9248139999999999,-0.29981599999999997,-1.220491,-0.43152799999999997,-0.391494,-0.13147,-0.40815100000000004,0.145626
741,0.686732,-1.204391,0.369786,0.227138,0.9336209999999999,-0.277046,-1.337156,-0.15145999999999998,-0.26555,-0.154522,-0.442288,0.18654600000000002
742,0.724275,-1.229567,0.41091300000000003,0.221728,0.9423440000000001,-0.250636,-1.458064,-0.015653,-0.290069,-0.13367,-0.563819,0.154674
743,0.767243,-1.25495,0.457379,0.215612,0.950534,-0.22358699999999998,-1.4082379999999999,-0.11053900000000001,-0.314168,-0.152975,-0.547183,0.139923
744,0.8101470000000001,-1.277503,0.5078010000000001,0.20941700000000002,0.957297,-0.1993,-1.280542,-0.33822399999999997,-0.229663,-0.167883,-0.551017,0.142232
745,0.8570700000000001,-1.295332,0.564116,0.205598,0.962299,-0.178054,-1.118098,-0.328883,-0.04267,-0.157838,-0.497776,0.135345
746,0.9148209999999999,-1.305472,0.627437,0.20778899999999997,0.965007,-0.15993,-0.883475,-0.059224,0.250248,-0.100245,-0.34684299999999996,0.0019260000000000002
747,0.974916,-1.307962,0.689247,0.215029,0.965658,-0.145813,-0.640609,0.023409,0.420617,-0.086504,-0.308614,-0.054398
748,1.0255040000000002,-1.306009,0.742395,0.22374000000000002,0.965148,-0.135731,-0.472654,-0.054113999999999995,0.480642,-0.072434,-0.21801700000000002,-0.071697
749,1.071153,-1.30035,0.789108,0.23449099999999998,0.9636520000000001,-0.127995,-0.348677,0.11116600000000001,0.598801,-0.059885,-0.09767,-0.07687000000000001
750,1.116941,-1.291976,0.82968,0.247348,0.9613809999999999,-0.12066099999999999,-0.272415,0.477296,0.613819,-0.075961,-0.07374700000000001,-0.0996
751,1.144253,-1.282814,0.850002,0.25856,0.9588190000000001,-0.117501,0.166624,0.207936,0.461271,-0.036101999999999995,0.22950500000000001,-0.097389
752,1.115705,-1.275067,0.8233940000000001,0.261765,0.9565899999999999,-0.12809500000000001,0.598941,-0.335427,0.104996,0.064209,1.129882,0.127194
753,1.0575860000000001,-1.2693780000000001,0.770369,0.258619,0.954916,-0.145753,0.9851639999999999,-0.227694,-0.264185,-0.006468000000000001,1.382486,0.434312
754,0.999685,-1.269671,0.705975,0.249516,0.955003,-0.160324,0.5818270000000001,0.42361800000000005,-0.554121,0.312786,0.177031,0.211608
755,0.9815780000000001,-1.272283,0.673404,0.244498,0.955775,-0.163428,0.258395,0.69515,-0.245875,0.48621499999999995,0.07370499999999999,0.01229
756,0.9834649999999999,-1.268786,0.664103,0.247586,0.954741,-0.16481700000000002,0.155481,0.372849,0.25588299999999997,0.455005,0.033632,0.030508999999999998
757,1.006982,-1.262342,0.688193,0.25658800000000004,0.9528040000000001,-0.162234,-0.29425500000000004,-0.16476500000000002,0.557874,0.255589,0.091691,-0.083463
758,1.036475,-1.2557200000000002,0.724727,0.266685,0.950773,-0.157807,-0.24338600000000002,-0.25331,0.545524,-0.09511499999999999,0.273074,-0.068923
759,1.0542850000000001,-1.250626,0.744949,0.27366,0.949182,-0.155422,-0.131747,0.078787,0.24998099999999998,-0.103647,0.296439,0.031902
760,1.0745,-1.251967,0.758367,0.275627,0.9496030000000001,-0.149253,-0.264739,0.56413,-0.06135499999999999,0.062386000000000004,0.23512,0.12709700000000002
761,1.102183,-1.257868,0.771019,0.274647,0.9514360000000001,-0.139033,-0.318231,0.8461930000000001,-0.222323,0.108425,-0.126729,0.104746
762,1.124969,-1.265272,0.779032,0.27138,0.9536889999999999,-0.129697,-0.25566500000000003,0.672693,-0.311394,0.159788,-0.16203299999999998,0.10670299999999999
763,1.144842,-1.2726600000000001,0.78828,0.267479,0.955886,-0.12136400000000001,-0.297433,0.474397,-0.236656,0.044213,-0.338561,0.10030700000000001
764,1.1589129999999999,-1.2777290000000001,0.7957069999999999,0.264717,0.957362,-0.115647,-0.10771099999999999,0.26997,-0.16136199999999998,0.046975,-0.340037,0.09459
765,1.1507969999999998,-1.279814,0.784036,0.261946,0.9579620000000001,-0.116978,0.23082199999999997,0.093072,-0.172657,-0.030119,-0.426011,-0.057034
766,1.122261,-1.2810549999999998,0.753633,0.257429,0.958318,-0.12388800000000001,0.43162799999999996,0.025736000000000002,-0.29080900000000004,-0.028683999999999998,-0.492162,-0.002928
767,1.078515,-1.282311,0.705345,0.250704,0.958676,-0.134458,0.684649,0.19572,-0.395014,-0.082064,-0.510251,-0.030306
768,1.0205790000000001,-1.2799530000000001,0.6403979999999999,0.244425,0.958002,-0.14993099999999998,0.9670989999999999,0.19025,-0.337486,-0.002573,-0.476404,0.02603
769,0.951837,-1.272681,0.5660069999999999,0.239217,0.955892,-0.170404,1.167997,0.102948,-0.25799099999999997,0.18213900000000002,-0.333882,0.195535
770,0.884166,-1.260686,0.496167,0.235998,0.9523,-0.193445,1.176375,-0.22909899999999997,-0.079114,0.243921,-0.275115,0.304529
771,0.8235399999999999,-1.2430370000000002,0.445671,0.23613800000000001,0.946766,-0.21877800000000003,1.231511,-0.8646959999999999,0.313053,-0.031365,0.033458,0.20297
772,0.769389,-1.215234,0.41074799999999995,0.24217600000000003,0.937451,-0.25005700000000003,1.473903,-1.1143610000000002,0.732741,-0.157672,0.32088,0.09617200000000001
773,0.7275560000000001,-1.180344,0.38716100000000003,0.253114,0.924737,-0.28423000000000004,1.620366,-0.8695120000000001,0.9129120000000001,-0.209596,0.45281099999999996,0.056035
774,0.69567,-1.145195,0.365211,0.26460100000000003,0.910791,-0.316921,1.577611,-0.383821,0.702619,0.07496799999999999,0.5239020000000001,-0.093236
775,0.670077,-1.1190129999999998,0.340546,0.271125,0.8996700000000001,-0.34216599999999997,1.164526,-0.165385,0.248664,0.185525,0.472156,-0.097333
776,0.6435770000000001,-1.103803,0.31753000000000003,0.27014499999999997,0.892926,-0.360136,0.777428,-0.358042,0.012265999999999999,0.159436,0.48881800000000003,-0.07864600000000001
777,0.625951,-1.094951,0.307313,0.268376,0.888906,-0.371233,0.311264,-0.45705,0.13411900000000002,0.098216,0.41008999999999995,-0.006773
778,0.623909,-1.093515,0.315841,0.268363,0.8882469999999999,-0.372816,-0.28451,-0.46811499999999995,0.220771,-0.014396,0.356596,0.06474099999999999
779,0.639937,-1.101142,0.34228800000000004,0.27025,0.891725,-0.363021,-0.8749959999999999,-0.298977,0.260226,-0.095186,-0.095476,0.02304
780,0.667304,-1.115689,0.376192,0.272025,0.898214,-0.34526399999999996,-1.079174,-0.066486,0.10574700000000001,-0.062751,-0.222509,-0.012431999999999999
781,0.698908,-1.131137,0.40928600000000004,0.273838,0.904897,-0.325833,-1.021332,0.170014,0.053505,-0.079624,-0.372533,0.041027999999999995
782,0.73101,-1.146195,0.4404,0.275025,0.9112030000000001,-0.306695,-0.9984190000000001,0.180997,-0.048899,-0.116548,-0.47884499999999997,0.072183
783,0.761858,-1.163158,0.470976,0.273644,0.91806,-0.28684,-1.0781610000000001,0.132714,-0.159421,-0.137184,-0.527145,0.077963
784,0.794233,-1.183251,0.502889,0.26957,0.925839,-0.264849,-1.177406,0.193405,-0.332175,-0.127648,-0.457196,0.016085
785,0.82626,-1.204436,0.533259,0.263427,0.933637,-0.242733,-1.085468,0.183701,-0.382795,-0.103957,0.012484,-0.031574
786,0.8590530000000001,-1.2225620000000001,0.5647439999999999,0.258384,0.9399770000000001,-0.22287300000000002,-0.994509,0.140238,-0.248577,-0.092521,0.190669,-0.029263
787,0.8988709999999999,-1.236725,0.604297,0.256605,0.944715,-0.204102,-0.9249639999999999,0.16044,-0.033404,-0.082518,0.008639,-0.024277
788,0.9439110000000001,-1.244975,0.646077,0.259214,0.9473879999999999,-0.187763,-0.6755479999999999,0.305782,0.16684100000000002,-0.069486,0.15318299999999999,-0.042874
789,0.9647969999999999,-1.241792,0.665626,0.265556,0.946364,-0.184025,0.202279,-0.021914,0.368877,-0.022575,0.278123,-0.008846
790,0.9530639999999999,-1.2299879999999999,0.655844,0.272467,0.942485,-0.19358599999999998,0.569541,-0.18731099999999998,0.38661,0.015527000000000001,0.5031180000000001,0.21154499999999998
791,0.9321709999999999,-1.220736,0.640109,0.275353,0.9393520000000001,-0.204425,0.312017,-0.347098,0.076299,0.067832,0.618479,0.439075
792,0.9258219999999999,-1.224409,0.6417689999999999,0.271291,0.9406049999999999,-0.204093,-0.332433,-0.37896399999999997,-0.186671,0.134639,0.453438,0.297264
