,attitude.roll,attitude.pitch,attitude.yaw,gravity.x,gravity.y,gravity.z,rotationRate.x,rotationRate.y,rotationRate.z,userAcceleration.x,userAcceleration.y,userAcceleration.z
0,-0.817796,-1.396893,-1.619888,-0.126237,0.984917,-0.11831099999999999,1.076293,-0.004768,0.20777600000000002,0.040008999999999996,0.001442,-0.10495499999999999
1,-0.726263,-1.38313,-1.524897,-0.123886,0.982442,-0.139478,1.097976,-0.09790399999999999,0.037131,0.078628,-0.111425,0.20106300000000002
2,-0.660459,-1.360642,-1.457164,-0.127971,0.977999,-0.164732,1.394855,0.072983,-0.330619,0.025827999999999997,-0.151049,-0.012849000000000001
3,-0.6101409999999999,-1.331528,-1.411727,-0.135787,0.971512,-0.194223,1.522964,0.38963400000000004,-0.507455,-0.031708999999999994,0.07296799999999999,-0.11846
4,-0.568539,-1.295823,-1.3711790000000001,-0.14618299999999998,0.962432,-0.22880100000000003,2.03626,-0.14868900000000002,-0.596115,-0.062023,0.310502,-0.206304
5,-0.531878,-1.249958,-1.321333,-0.159933,0.9489709999999999,-0.271791,2.391284,-0.6772779999999999,-0.550204,-0.002176,0.593677,-0.004881
6,-0.507888,-1.203094,-1.278826,-0.17482,0.933156,-0.314092,2.367484,-0.9415680000000001,-0.5040979999999999,-0.010422,0.815288,-0.08974700000000001
7,-0.495055,-1.1566290000000001,-1.237814,-0.191183,0.915452,-0.354109,2.44294,-1.371581,-0.392993,-0.081202,0.737746,0.261472
8,-0.48218900000000003,-1.1134979999999999,-1.1930120000000002,-0.204742,0.8972479999999999,-0.39118,2.241787,-1.369167,-0.023728,-0.06518600000000001,0.44403000000000004,0.44386899999999996
9,-0.46469499999999997,-1.0798,-1.145909,-0.21130300000000002,0.881864,-0.42150200000000004,1.806721,-1.217745,0.31487,-0.206116,0.107623,0.495904
10,-0.45198,-1.059476,-1.105171,-0.21371199999999999,0.872099,-0.44018999999999997,1.050656,-1.011087,0.438579,-0.25259699999999996,-0.10981600000000001,0.322773
11,-0.442576,-1.052676,-1.081281,-0.212098,0.868751,-0.447529,0.277537,-0.29539899999999997,0.354281,-0.292175,-0.008659,0.263813
12,-0.431654,-1.054977,-1.068049,-0.20636100000000002,0.8698889999999999,-0.44800200000000007,-0.053363,0.113871,0.32367199999999996,-0.23628200000000002,0.07901,0.28317600000000004
13,-0.42021899999999995,-1.0607540000000002,-1.0614190000000001,-0.19917100000000001,0.8727239999999999,-0.44573599999999997,-0.27909,0.366408,0.236314,-0.126437,-0.059659000000000004,0.297344
14,-0.41092799999999996,-1.069718,-1.060856,-0.191888,0.877065,-0.440378,-0.49400600000000006,0.43877299999999997,0.174899,-0.023444,-0.20569400000000002,0.334512
15,-0.408125,-1.083576,-1.06431,-0.18581,0.8836379999999999,-0.42971499999999996,-0.767533,0.16255,0.224617,0.000691,-0.30034,0.358442
16,-0.414238,-1.102042,-1.070816,-0.181835,0.8921319999999999,-0.413562,-0.987189,-0.048669,0.222286,0.018932,-0.575588,0.280566
17,-0.42377299999999996,-1.124916,-1.08356,-0.177331,0.9022309999999999,-0.393102,-1.293299,0.204881,0.21768600000000002,0.081429,-0.628839,0.152517
18,-0.43406000000000006,-1.155541,-1.10335,-0.16966099999999998,0.915013,-0.366008,-1.7180330000000001,0.489435,0.288062,0.102477,-0.619512,0.104076
19,-0.447916,-1.192473,-1.1320139999999999,-0.159965,0.929285,-0.332921,-2.006118,0.6993229999999999,0.264416,0.107795,-0.504633,0.046819
20,-0.478393,-1.2315479999999999,-1.1796209999999998,-0.153193,0.943005,-0.295414,-2.1640349999999997,0.6721600000000001,0.001634,0.13126600000000002,-0.354657,0.062336
21,-0.543837,-1.2681870000000002,-1.261863,-0.154195,0.9545620000000001,-0.255012,-2.2617529999999997,0.6324609999999999,-0.375012,0.11305699999999999,0.017102000000000003,0.044944
22,-0.637558,-1.298016,-1.372309,-0.160357,0.963026,-0.21647800000000003,-1.950272,0.554942,-0.440035,0.07908899999999999,0.18413,-0.070646
23,-0.717051,-1.31881,-1.460892,-0.16384400000000002,0.968419,-0.187924,-1.269654,0.12845299999999998,-0.136701,0.092967,0.14893599999999999,-0.145054
24,-0.768517,-1.330854,-1.510153,-0.165174,0.971352,-0.170847,-0.613161,-0.365487,0.006319,0.04022,0.11823299999999999,-0.201803
25,-0.790985,-1.337409,-1.52449,-0.16444,0.9728889999999999,-0.16261199999999998,-0.230915,-0.375987,0.169235,-0.095296,0.09522699999999999,-0.257416
26,-0.7960619999999999,-1.342219,-1.522532,-0.161917,0.9739899999999999,-0.1585,-0.154369,-0.41575100000000004,0.190117,-0.225046,-0.036627,-0.248955
27,-0.817719,-1.3497430000000001,-1.528309,-0.15996,0.9756670000000001,-0.14994000000000002,-0.418962,-1.084003,0.23399099999999998,-0.18528499999999998,-0.15456099999999998,-0.204842
28,-0.867132,-1.35943,-1.547131,-0.159956,0.9777450000000001,-0.135734,-0.486291,-1.799722,0.255802,-0.0143,-0.094399,-0.320397
29,-0.9272020000000001,-1.371787,-1.5683200000000002,-0.158136,0.9802629999999999,-0.118625,-0.631502,-1.918043,0.400217,0.153193,0.5109779999999999,0.046299
30,-1.0094040000000002,-1.392528,-1.6300290000000002,-0.150095,0.984152,-0.09439299999999999,-1.3793309999999999,-0.21207399999999998,0.666273,0.193155,0.638742,0.604144
31,-1.062542,-1.418458,-1.708894,-0.132551,0.988419,-0.07384,-0.816427,1.7348540000000001,0.809783,0.15501199999999998,0.557327,0.832706
32,-0.990661,-1.428967,-1.664233,-0.11821,0.989959,-0.07747000000000001,0.45398999999999995,0.827526,0.436328,-0.43901,0.349274,-0.509077
33,-0.9045709999999999,-1.417894,-1.5642989999999999,-0.119723,0.988333,-0.09411699999999999,0.953089,-1.099566,-0.259538,-0.65872,0.258127,-0.8986040000000001
34,-0.897912,-1.4090639999999999,-1.554375,-0.125914,0.98695,-0.100348,-0.074133,0.38255700000000004,-0.249385,-0.41617,0.094059,0.21163099999999999
35,-0.943423,-1.40767,-1.602622,-0.13146300000000002,0.9867239999999999,-0.095324,-0.258589,-0.192607,-0.377054,-0.418128,0.905457,0.20898699999999998
36,-0.99295,-1.4032120000000001,-1.649171,-0.139705,0.985991,-0.091101,-0.183523,0.19993699999999998,-0.30653,-0.029682999999999998,0.943498,0.080664
37,-0.9886229999999999,-1.408439,-1.668707,-0.13500299999999998,0.986849,-0.08887,-0.24817399999999998,1.619841,0.308631,0.735574,0.250791,0.179324
38,-0.934472,-1.414554,-1.640048,-0.125138,0.987819,-0.092458,0.11065699999999999,0.8299629999999999,0.391198,0.147294,0.089436,0.162267
39,-0.898948,-1.417584,-1.6036190000000001,-0.119432,0.9882860000000001,-0.09498,0.12917599999999999,-0.459396,0.202836,-0.088851,-0.029256,0.017130000000000003
40,-0.8990469999999999,-1.416908,-1.590747,-0.11996400000000002,0.988182,-0.095384,0.059578,-0.52633,-0.047527999999999994,-0.04651,-0.24805500000000003,0.027955
41,-0.9093899999999999,-1.415694,-1.6015549999999998,-0.12189100000000001,0.9879959999999999,-0.094875,-0.069801,0.293584,-0.11464400000000001,0.06375499999999999,-0.35126199999999996,0.16595
42,-0.919133,-1.413894,-1.6171959999999999,-0.124224,0.987716,-0.094762,0.0044340000000000004,0.132716,-0.175876,0.027070999999999998,-0.22094699999999998,-0.050441
43,-0.9345120000000001,-1.408923,-1.62819,-0.129616,0.986927,-0.095759,0.088163,-0.345413,-0.293252,-0.091224,-0.11523800000000001,-0.22211199999999998
44,-0.965989,-1.405148,-1.6567990000000001,-0.13563,0.9863120000000001,-0.09375,-0.16655599999999998,-0.033525,-0.279407,-0.11449300000000001,-0.25688,-0.068085
45,-0.990231,-1.4002219999999999,-1.685207,-0.141923,0.9854879999999999,-0.093098,0.047825,0.310282,-0.395855,-0.046859,-0.42071400000000003,0.032780000000000004
46,-0.9948879999999999,-1.390687,-1.695775,-0.150231,0.983824,-0.09755,0.234531,0.23324099999999998,-0.47243199999999996,0.017449,-0.45487799999999995,-0.029539999999999997
47,-0.99239,-1.381797,-1.703913,-0.157304,0.982193,-0.102703,0.12446600000000001,0.80513,-0.336133,0.061388,-0.311996,-0.05193
48,-0.971578,-1.379175,-1.708559,-0.15725999999999998,0.9816969999999999,-0.10740699999999999,-0.027417,1.519151,-0.010165,0.08594,0.010918,-0.203949
49,-0.940826,-1.382573,-1.7101220000000001,-0.151186,0.9823379999999999,-0.110225,-0.119083,1.5090459999999999,0.198579,0.09562899999999999,0.07184600000000001,-0.101399
50,-0.891883,-1.38505,-1.6848880000000002,-0.143719,0.982799,-0.115961,0.28535900000000003,1.066563,0.212654,0.137417,-0.17946900000000002,-0.138692
51,-0.826724,-1.379498,-1.6359059999999999,-0.139874,0.981758,-0.12876600000000002,0.636881,0.7476109999999999,0.016829,0.140149,-0.172585,-0.13425
52,-0.755782,-1.364406,-1.576849,-0.140543,0.978777,-0.149125,1.1756659999999999,0.526118,-0.204519,0.14896600000000002,-0.11366500000000002,-0.157424
53,-0.675074,-1.336584,-1.502646,-0.145031,0.9726969999999999,-0.18116600000000002,1.8040720000000001,0.37964699999999996,-0.350561,0.049145,0.329961,-0.136248
54,-0.594833,-1.2947799999999998,-1.422936,-0.15271099999999999,0.962149,-0.22571100000000002,2.6111619999999998,-0.108412,-0.476758,0.032365,0.383616,-0.174009
55,-0.539334,-1.237125,-1.347483,-0.168197,0.944846,-0.281019,3.1900619999999997,-1.318845,-0.642079,-0.06569,0.622949,0.04881
56,-0.520998,-1.177382,-1.2931620000000001,-0.190806,0.9236059999999999,-0.33247899999999997,2.874112,-1.654134,-0.668405,0.077372,0.711313,0.218831
57,-0.519115,-1.130256,-1.253568,-0.211554,0.9045209999999999,-0.370246,2.2268529999999997,-1.688498,-0.30541399999999996,0.123526,0.409718,0.5711890000000001
58,-0.506184,-1.102476,-1.211041,-0.21885100000000002,0.892328,-0.394781,1.293133,-1.008507,0.416788,-0.046408,0.17532999999999999,0.448538
59,-0.48376,-1.092388,-1.169101,-0.21411999999999998,0.8877290000000001,-0.407538,0.75598,-0.667682,0.6315850000000001,-0.22060300000000002,0.10581700000000001,0.278006
60,-0.464139,-1.086961,-1.1338270000000001,-0.20823699999999998,0.885217,-0.415962,0.49567799999999995,-0.452549,0.603853,-0.20786999999999997,0.069998,0.27126300000000003
61,-0.43988999999999995,-1.088862,-1.106241,-0.197373,0.8861,-0.419365,0.002607,0.242583,0.621951,-0.176025,-0.007056999999999999,0.271202
62,-0.41520799999999997,-1.09815,-1.08671,-0.183635,0.890367,-0.41656000000000004,-0.37753000000000003,0.366581,0.578545,-0.058812,-0.0663,0.23554499999999998
63,-0.399333,-1.115082,-1.074336,-0.171112,0.8979469999999999,-0.40547300000000003,-0.8480280000000001,0.160367,0.6075689999999999,0.051163,-0.101011,0.266282
64,-0.393878,-1.139522,-1.068748,-0.16042599999999999,0.908434,-0.38601599999999997,-1.1912479999999999,-0.066164,0.545642,0.011165000000000001,-0.23634499999999997,0.289092
65,-0.400882,-1.167275,-1.073482,-0.153226,0.9196840000000001,-0.36152399999999996,-1.38721,-0.151116,0.38201199999999996,0.0016300000000000002,-0.362158,0.249494
66,-0.42158,-1.197522,-1.0919590000000001,-0.149221,0.9311379999999999,-0.332733,-1.608724,-0.21471300000000001,0.22779000000000002,0.014241,-0.40718200000000004,0.182327
67,-0.455676,-1.229584,-1.123948,-0.147258,0.94235,-0.30048,-1.7380380000000002,-0.129689,0.12316099999999999,-0.049977,-0.389173,0.10928800000000001
68,-0.506125,-1.261182,-1.176191,-0.14770899999999998,0.952451,-0.266486,-1.798454,-0.016766999999999997,-0.09105,-0.089154,-0.316282,0.092383
69,-0.573329,-1.290066,-1.246011,-0.150281,0.9608530000000001,-0.23275,-1.733337,-0.048791,-0.131147,-0.056659,-0.23700700000000002,0.088844
70,-0.6580630000000001,-1.31461,-1.331244,-0.154967,0.967363,-0.200473,-1.568098,-0.205447,-0.25904699999999997,-0.033281,-0.110643,0.052127
71,-0.7474,-1.331476,-1.414272,-0.16112,0.971499,-0.173854,-1.116551,-0.569435,-0.202015,-0.024366,-0.03667,0.00031600000000000004
72,-0.820742,-1.340914,-1.474736,-0.166709,0.973693,-0.15532200000000002,-0.686756,-0.789529,-0.14638800000000002,-0.026008999999999997,-0.087142,-0.08035
73,-0.880201,-1.347784,-1.5215809999999999,-0.170483,0.9752360000000001,-0.140876,-0.629575,-0.5313359999999999,-0.028814999999999997,-0.088276,-0.150452,-0.167901
74,-0.92053,-1.357118,-1.564818,-0.168771,0.9772569999999999,-0.128371,-0.659697,0.514259,0.123458,-0.19075699999999998,-0.15723499999999999,-0.24350100000000002
75,-0.9415530000000001,-1.3672229999999999,-1.605532,-0.163439,0.97935,-0.118976,-0.6138520000000001,1.0072219999999998,0.148784,-0.23704299999999998,-0.095256,-0.295315
76,-0.968567,-1.374781,-1.6414959999999998,-0.160487,0.98085,-0.110321,-0.43701,-0.097695,0.052091,-0.204671,-0.089768,-0.35096700000000003
77,-1.016391,-1.378865,-1.6721259999999998,-0.16217,0.9816379999999999,-0.100413,-0.35443600000000003,-1.222784,0.019926,-0.004334,-0.001276,-0.284536
78,-1.0877350000000001,-1.385983,-1.718329,-0.162724,0.9829700000000001,-0.08535,-0.756473,-1.269924,0.16886600000000002,0.178394,0.263795,0.164268
79,-1.216451,-1.403958,-1.825422,-0.15573199999999998,0.986115,-0.057615,-1.324566,-1.007398,0.54378,0.291704,0.479721,0.5588810000000001
80,-1.27181,-1.414862,-1.8717080000000001,-0.148394,0.987867,-0.045739,0.114225,-0.176202,0.292119,0.08984600000000001,0.602358,0.202172
81,-1.118385,-1.406662,-1.724161,-0.14694400000000002,0.98656,-0.07142000000000001,1.75962,0.672934,-0.09592300000000001,-0.169096,0.62666,-0.5555640000000001
82,-0.989399,-1.393786,-1.6085639999999999,-0.147142,0.984375,-0.096697,0.599607,0.9004530000000001,-0.043429,-0.2572,0.146866,-0.005765999999999999
83,-0.946558,-1.391249,-1.5825790000000002,-0.14489100000000002,0.983925,-0.104369,0.287199,0.556038,0.043493000000000004,-0.322562,0.046547000000000005,0.27789200000000003
84,-0.938464,-1.384737,-1.566125,-0.14920799999999998,0.982741,-0.109324,0.18024500000000002,-0.824817,-0.331499,-0.49115699999999995,0.39416599999999996,0.18926400000000002
85,-0.9906020000000001,-1.3807690000000001,-1.6099940000000001,-0.15796400000000002,0.981999,-0.10353699999999999,-0.403957,-0.016349000000000002,-0.338752,0.133916,0.41063999999999995,0.27318400000000004
86,-1.017569,-1.385291,-1.65622,-0.156917,0.982843,-0.09690499999999999,-0.47773000000000004,1.3774899999999999,0.142851,0.529827,0.282461,0.35993600000000003
87,-1.015511,-1.394289,-1.678362,-0.149196,0.9844629999999999,-0.092561,-0.38154099999999996,0.8779,0.319352,0.267223,0.088764,0.091798
88,-1.026844,-1.4006129999999999,-1.695289,-0.144904,0.985554,-0.08764,-0.204243,-0.029372000000000002,0.080335,-0.048501,0.020519,-0.21424
89,-1.0368110000000001,-1.399144,-1.703831,-0.147017,0.9853040000000001,-0.08692899999999999,0.10429400000000001,-0.017637,-0.19099000000000002,-0.040544,0.072786,-0.041672
90,-1.0301049999999998,-1.3930639999999999,-1.697114,-0.151565,0.984247,-0.090995,0.204742,-0.018904,-0.227675,-0.000657,0.109274,0.01937
91,-1.037399,-1.389674,-1.703801,-0.155097,0.983642,-0.091583,-0.09952000000000001,0.01805,-0.147594,-0.041649,-0.045593,-0.006256
92,-1.067552,-1.3908530000000001,-1.74043,-0.156771,0.9838540000000001,-0.086306,-0.415624,0.48549899999999996,-0.08844400000000001,-0.038145,-0.20531999999999997,0.076296
93,-1.100472,-1.393011,-1.786142,-0.157633,0.984238,-0.080137,-0.344578,0.583428,-0.130802,-0.045293,-0.257248,0.062864
94,-1.119653,-1.389928,-1.8129119999999999,-0.16187200000000002,0.9836879999999999,-0.078422,-0.040366,0.20595700000000003,-0.30338200000000004,-0.033333,-0.188888,-0.125024
95,-1.131173,-1.383367,-1.828848,-0.168601,0.9824870000000001,-0.079297,0.002152,0.34243,-0.36949,0.04087,-0.139194,-0.17667
96,-1.137358,-1.3788040000000001,-1.850012,-0.173156,0.981626,-0.080135,-0.14297,0.935794,-0.245214,0.148818,-0.149778,-0.053609000000000004
97,-1.142549,-1.3770930000000001,-1.876023,-0.175097,0.981298,-0.079932,-0.205992,1.020826,-0.143214,0.176517,-0.157659,0.012717000000000001
98,-1.138788,-1.377249,-1.89284,-0.174656,0.9813280000000001,-0.080526,-0.076563,0.992137,-0.007677,0.193333,-0.214772,-0.08903
99,-1.113457,-1.377731,-1.886096,-0.17213599999999998,0.9814209999999999,-0.084715,0.086852,0.8857389999999999,0.0844,0.174485,-0.266455,-0.047777
100,-1.078455,-1.378933,-1.8617,-0.168026,0.981651,-0.090129,0.276924,0.308369,0.183676,0.109768,-0.18996400000000002,-0.13701300000000002
101,-1.027184,-1.377521,-1.8141919999999998,-0.164374,0.9813799999999999,-0.099339,0.48836899999999994,0.31418,0.145621,0.135931,-0.11074400000000001,-0.0009720000000000001
102,-0.9590219999999999,-1.372776,-1.7551709999999998,-0.16103599999999998,0.9804579999999999,-0.112977,0.703074,0.555466,0.09233200000000001,0.116404,-0.10666300000000001,-0.18575999999999998
103,-0.883439,-1.362576,-1.6852939999999998,-0.159768,0.9784,-0.131154,0.945528,0.24940500000000002,-0.035905,0.057763,-0.091651,-0.241756
104,-0.815651,-1.34721,-1.622478,-0.161447,0.975109,-0.15196199999999999,1.076926,0.377375,-0.183634,0.055902,-0.062557,-0.02185
105,-0.7461260000000001,-1.321842,-1.5509979999999999,-0.167242,0.9691709999999999,-0.180923,1.817291,-0.304071,-0.375211,0.072791,0.070853,0.043655
106,-0.676088,-1.281799,-1.4638229999999999,-0.17832699999999999,0.9585299999999999,-0.222294,2.420839,-0.8600709999999999,-0.384169,-0.052524,0.555218,-0.321011
107,-0.611302,-1.243903,-1.384679,-0.18428699999999998,0.947044,-0.262944,2.0704919999999998,-0.185719,-0.056313,-0.103433,0.8236620000000001,0.010472
108,-0.549867,-1.213729,-1.319817,-0.18265,0.936926,-0.29799899999999996,1.7545520000000001,-0.017109,0.14315799999999998,-0.12395999999999999,0.638803,0.018961000000000002
109,-0.5029279999999999,-1.1870459999999998,-1.2630549999999998,-0.180456,0.927267,-0.32803499999999997,1.588853,-0.44525699999999996,0.263258,-0.099482,0.415491,0.25747800000000004
110,-0.46951000000000004,-1.166593,-1.213641,-0.17794000000000001,0.919416,-0.350724,1.208233,-0.718286,0.406227,-0.086114,0.234683,0.408723
111,-0.452164,-1.151183,-1.1742700000000001,-0.177999,0.9132459999999999,-0.36646,0.943616,-1.047256,0.319343,-0.197275,0.076896,0.356679
112,-0.447896,-1.140095,-1.150649,-0.180808,0.908673,-0.37632,0.541816,-0.666928,0.12911,-0.226892,0.022234999999999998,0.197487
113,-0.446492,-1.1368129999999999,-1.14286,-0.181566,0.9072979999999999,-0.379263,0.052032,-0.043879,0.05545599999999999,-0.156309,0.18337,0.186575
114,-0.441015,-1.14022,-1.141127,-0.17816600000000002,0.908725,-0.37745300000000004,-0.260705,0.265726,0.15756099999999998,-0.080867,0.173977,0.187313
115,-0.43439399999999995,-1.151741,-1.139267,-0.171245,0.913474,-0.369102,-0.662876,0.239686,0.357747,-0.032536,0.016488,0.289817
116,-0.427845,-1.17163,-1.135861,-0.161252,0.921386,-0.353612,-0.9898319999999999,0.079223,0.542608,-0.035891,-0.178679,0.33907
117,-0.427782,-1.197207,-1.133471,-0.151402,0.9310229999999999,-0.332065,-1.216258,-0.20338900000000001,0.551002,-0.08926,-0.39779000000000003,0.31602800000000003
118,-0.44192,-1.2241520000000001,-1.1431209999999998,-0.145297,0.9405180000000001,-0.307098,-1.345495,-0.23182399999999997,0.315127,-0.10616800000000001,-0.5638850000000001,0.213714
119,-0.469991,-1.251758,-1.172711,-0.142043,0.9495379999999999,-0.27963699999999997,-1.499783,0.130662,0.109555,-0.055162,-0.618117,0.091725
120,-0.5067119999999999,-1.2796049999999999,-1.21853,-0.139323,0.957902,-0.25101,-1.576919,0.40841,-0.01739,0.0265,-0.51468,0.034122
121,-0.568513,-1.3045799999999999,-1.2859530000000001,-0.14163199999999998,0.964773,-0.221691,-1.505484,-0.036331999999999996,-0.215011,0.125443,-0.325308,0.0424
122,-0.6470859999999999,-1.322724,-1.3608120000000001,-0.148017,0.9693870000000001,-0.195889,-1.1058059999999998,-0.44858000000000003,-0.298217,0.152579,-0.053372,0.08529400000000001
123,-0.7153579999999999,-1.3304340000000001,-1.418388,-0.156127,0.971252,-0.17968699999999999,-0.536238,-0.697797,-0.273623,0.121841,0.010392,0.068099
124,-0.760734,-1.333718,-1.450617,-0.161918,0.9720280000000001,-0.17010899999999998,-0.351218,-0.658673,-0.09505599999999999,-0.048760000000000005,0.035738,0.018223
125,-0.796908,-1.3419299999999998,-1.478559,-0.162249,0.973924,-0.158557,-0.6653720000000001,-0.289959,0.144764,-0.11275999999999999,-0.075914,-0.036222000000000004
126,-0.838764,-1.3571389999999999,-1.52167,-0.15770399999999998,0.9772620000000001,-0.141711,-0.925243,0.168528,0.265207,-0.14313800000000002,-0.149412,-0.077985
127,-0.8812979999999999,-1.3720299999999999,-1.5695430000000001,-0.15234,0.980311,-0.125603,-0.799056,0.19381600000000002,0.22546300000000002,-0.175999,-0.221385,-0.13784000000000002
128,-0.9297190000000001,-1.3845610000000002,-1.6207989999999999,-0.148383,0.982708,-0.110726,-0.7622720000000001,0.012821,0.168268,-0.170129,-0.21183400000000002,-0.061607
129,-0.986711,-1.394886,-1.675242,-0.145976,0.984568,-0.096493,-0.640671,-0.283534,0.11501800000000001,-0.092672,-0.253031,-0.015475999999999998
130,-1.043407,-1.4012870000000002,-1.7224650000000001,-0.145758,0.985668,-0.084892,-0.44659499999999996,-0.6396229999999999,0.018553999999999998,0.030782999999999998,-0.220806,-0.049859
131,-1.101316,-1.405733,-1.766271,-0.146517,0.986408,-0.07433,-0.450429,-0.746274,0.052847000000000005,0.060747,-0.172825,-0.094951
132,-1.175079,-1.4121110000000001,-1.824773,-0.145786,0.9874360000000001,-0.060903,-0.6297020000000001,-0.9100309999999999,0.13405699999999998,-0.023831,0.072211,-0.21430500000000002
133,-1.2724520000000001,-1.420402,-1.9011069999999999,-0.14318499999999998,0.988712,-0.044032999999999996,-0.720097,-1.2423950000000001,0.21183200000000002,-0.167255,0.43644399999999994,-0.27924
134,-1.393881,-1.428793,-2.0017169999999997,-0.13928800000000002,0.989935,-0.024903,-0.846867,-0.687098,0.249759,-0.181818,0.712672,0.1241
135,-1.473078,-1.4372989999999999,-2.09135,-0.132434,0.991102,-0.012983000000000001,-0.485526,1.055936,0.408146,-0.11881800000000001,0.500292,0.213407
136,-1.476523,-1.442739,-2.113531,-0.127105,0.991812,-0.012018000000000001,-0.020487000000000002,0.5163909999999999,0.134348,-0.18448,0.298807,-0.20995100000000003
137,-1.465929,-1.441848,-2.102663,-0.127849,0.991698,-0.013456000000000001,0.161743,-0.042406,-0.1414,-0.13254200000000002,0.222795,0.05876
138,-1.427247,-1.4359600000000001,-2.060964,-0.133012,0.990923,-0.019226,0.331497,-0.426864,-0.314911,-0.35635300000000003,0.645887,0.003632
139,-1.4152770000000001,-1.42795,-2.039429,-0.14061099999999999,0.989815,-0.022046,0.142293,-0.070254,-0.353009,-0.08758400000000001,0.569481,-0.068622
140,-1.382015,-1.4252719999999999,-2.025715,-0.142402,0.9894299999999999,-0.027207,0.116979,1.34822,0.053058,0.398338,0.297069,0.120774
141,-1.342075,-1.429071,-2.0061169999999997,-0.13754,0.989974,-0.032019,0.093468,0.825519,0.252253,0.306089,0.166291,0.253759
142,-1.311246,-1.431921,-1.9851599999999998,-0.133759,0.9903719999999999,-0.035518,0.089379,0.251907,0.113022,-0.002761,-0.152421,0.052944000000000005
143,-1.313313,-1.4324299999999999,-1.9896790000000002,-0.13334300000000002,0.9904430000000001,-0.035113,-0.11193199999999999,0.18818,-0.026102999999999998,0.082226,-0.178675,0.140902
144,-1.335127,-1.432195,-2.016586,-0.134304,0.99041,-0.032251,-0.197152,0.17374,-0.070477,0.145076,-0.056374,0.08796
145,-1.3598709999999998,-1.431322,-2.0416380000000003,-0.135906,0.990289,-0.029099,-0.123574,-0.091691,-0.089919,0.155437,-0.063333,-0.017943999999999998
146,-1.371008,-1.429392,-2.049847,-0.138095,0.9900190000000001,-0.027963,0.012806999999999999,-0.152803,-0.110253,0.146304,-0.151869,-0.025565
147,-1.37116,-1.427028,-2.048378,-0.14039200000000002,0.989683,-0.028406,0.043230000000000005,-0.037829,-0.117665,0.066234,-0.166578,-0.055151
148,-1.367265,-1.424464,-2.045531,-0.142765,0.9893129999999999,-0.029464999999999998,0.052513,0.125139,-0.12101400000000001,-0.083798,-0.179498,-0.054245
149,-1.352286,-1.421152,-2.032667,-0.145506,0.9888239999999999,-0.032310000000000005,0.184718,0.058817999999999995,-0.167007,-0.247912,-0.13706300000000002,-0.171349
150,-1.3258450000000002,-1.4156739999999999,-2.006383,-0.149856,0.987993,-0.03746,0.297155,0.065163,-0.252756,-0.24884099999999998,-0.154573,-0.11155799999999999
151,-1.2849469999999998,-1.4079549999999998,-1.970071,-0.15551199999999998,0.986771,-0.045705,0.40568699999999996,0.400647,-0.327203,-0.042623,-0.269836,-0.077174
152,-1.247242,-1.400427,-1.944031,-0.160719,0.9855219999999999,-0.053895000000000005,0.26362399999999997,0.687353,-0.24096900000000002,0.101713,-0.271045,0.031129
153,-1.210149,-1.395202,-1.922407,-0.163428,0.9846229999999999,-0.061636,0.302175,0.810423,-0.14899,0.174171,-0.255176,-0.016947
154,-1.161586,-1.390702,-1.887025,-0.16430799999999998,0.983827,-0.071259,0.391463,0.578629,-0.069021,0.17859,-0.15294000000000002,-0.041946
155,-1.114188,-1.386099,-1.8489259999999998,-0.16480999999999998,0.982992,-0.08096,0.430558,0.493274,-0.069707,0.15802,-0.095526,-0.013355
156,-1.069194,-1.38077,-1.8130939999999998,-0.16559300000000002,0.981999,-0.090809,0.414656,0.498724,-0.086916,0.17763299999999999,-0.118047,-0.075252
157,-1.024974,-1.3753309999999999,-1.7787,-0.165981,0.980957,-0.100812,0.44887200000000005,0.5421739999999999,-0.060027,0.18272,-0.140869,-0.088839
158,-0.9702299999999999,-1.367551,-1.732795,-0.16651,0.979417,-0.114054,0.680289,0.44046499999999994,-0.103127,0.112875,0.000533,-0.193197
159,-0.8991180000000001,-1.3552440000000001,-1.67012,-0.16741,0.976858,-0.13309,1.043531,0.5563600000000001,-0.096466,-0.009424,0.40522199999999997,-0.235044
160,-0.796678,-1.335387,-1.5766639999999998,-0.16676300000000002,0.972419,-0.163043,1.749098,0.453539,-0.036926,-0.053803,0.792855,-0.363874
161,-0.6788069999999999,-1.2998290000000001,-1.456965,-0.168047,0.963512,-0.208317,2.597394,-0.088072,-0.126447,-0.169844,0.796604,-0.160748
162,-0.58939,-1.252869,-1.35812,-0.173752,0.9498850000000001,-0.259847,2.718397,-0.361725,-0.26198299999999997,-0.25949,0.6299939999999999,0.077092
163,-0.535782,-1.20946,-1.289528,-0.180474,0.935425,-0.303977,2.238166,-0.724942,-0.122799,-0.27021,0.41322299999999995,0.475897
164,-0.507083,-1.176341,-1.240639,-0.186626,0.923206,-0.335938,1.679037,-0.833306,0.021917,-0.26655999999999996,0.271206,0.5674899999999999
165,-0.482808,-1.1526100000000001,-1.201913,-0.18853699999999998,0.9138270000000001,-0.359676,1.274986,-0.402038,0.147797,-0.133271,0.104499,0.33411799999999997
166,-0.456453,-1.1348040000000001,-1.1690690000000001,-0.186137,0.906451,-0.379067,0.9711290000000001,-0.042289,0.223194,-0.074788,0.058636,0.199731
167,-0.438205,-1.1239,-1.14951,-0.183373,0.9017930000000001,-0.391328,0.492225,0.049566000000000006,0.045611,0.053703,-0.034605000000000004,0.297441
168,-0.43313599999999997,-1.119213,-1.146361,-0.183158,0.8997569999999999,-0.396084,0.098835,0.021485,-0.050036000000000004,0.10158500000000001,-0.131493,0.325558
169,-0.43867700000000004,-1.124358,-1.147752,-0.183381,0.901991,-0.390867,-0.47466400000000003,-0.330137,0.20064500000000002,0.083695,-0.17063699999999998,0.333448
170,-0.44904799999999995,-1.142069,-1.147343,-0.18046099999999998,0.909495,-0.37449299999999996,-0.9563209999999999,-0.635315,0.47861400000000004,0.05903200000000001,-0.276027,0.36690900000000004
171,-0.461599,-1.1670719999999999,-1.148302,-0.17496199999999998,0.9196040000000001,-0.351723,-1.2043629999999999,-0.457842,0.534338,-0.003154,-0.42322,0.357537
172,-0.47345200000000004,-1.1930459999999998,-1.158052,-0.168168,0.9294969999999999,-0.32824899999999996,-1.254581,0.031062,0.326126,-0.051039999999999995,-0.564873,0.271242
173,-0.49329300000000004,-1.216972,-1.183573,-0.16406600000000002,0.938054,-0.305169,-1.270623,0.235639,0.06296900000000001,-0.071407,-0.640081,0.174263
174,-0.528579,-1.240669,-1.228166,-0.163471,0.946001,-0.279912,-1.497158,0.39610300000000004,-0.174896,-0.054897,-0.5522630000000001,0.154592
175,-0.589485,-1.264791,-1.302086,-0.167468,0.9535450000000001,-0.250397,-1.681411,0.4627,-0.41875500000000004,-0.028576999999999998,-0.298592,0.162872
176,-0.668308,-1.28541,-1.387623,-0.174441,0.9595530000000001,-0.220951,-1.449558,-0.09980800000000001,-0.34270700000000004,-0.073895,0.355526,0.09679
177,-0.7425579999999999,-1.303682,-1.459149,-0.178463,0.9645370000000001,-0.194448,-1.306517,-0.24006999999999998,-0.023198,-0.073826,0.375109,0.016316999999999998
178,-0.811272,-1.3248280000000001,-1.529933,-0.17656,0.969902,-0.167652,-1.4326969999999999,0.080426,0.123993,-0.022399000000000002,0.24364499999999997,-0.11381199999999998
179,-0.891352,-1.345374,-1.610244,-0.17386300000000002,0.9747,-0.14043599999999998,-1.308705,-0.282442,0.185144,0.148594,-0.226226,-0.345785
180,-0.9706629999999999,-1.362021,-1.680632,-0.171025,0.9782850000000001,-0.11703800000000002,-0.962672,-0.6417229999999999,0.222205,0.139943,-0.23852399999999999,-0.272412
181,-1.030887,-1.373016,-1.725271,-0.16852,0.980505,-0.100995,-0.504096,-0.941514,0.20335999999999999,0.12103499999999999,-0.207342,-0.194796
182,-1.062182,-1.3780540000000001,-1.7367110000000001,-0.16728099999999999,0.981483,-0.093266,-0.070926,-1.000301,0.14343599999999998,-0.011506,-0.155891,-0.178142
183,-1.072195,-1.380059,-1.725911,-0.166478,0.981865,-0.090645,0.057617999999999996,-1.09885,0.167961,-0.035304,-0.10231799999999999,-0.252815
184,-1.0907209999999998,-1.386118,-1.723493,-0.162846,0.9829950000000001,-0.08479500000000001,-0.292112,-0.870394,0.348959,-0.037959,0.007102,-0.289503
185,-1.176293,-1.403183,-1.7986330000000001,-0.15398399999999998,0.985986,-0.064108,-1.442758,-0.44577,0.652299,-0.263878,0.8936379999999999,0.346655
186,-1.3388440000000001,-1.429094,-1.964761,-0.137405,0.989977,-0.032456,-1.388092,0.50566,0.8362639999999999,-0.23428400000000002,0.789091,0.436615
187,-1.3413329999999999,-1.4425370000000002,-1.991194,-0.124511,0.9917860000000001,-0.029082999999999998,0.29289299999999996,1.409125,0.417422,-0.410584,0.164464,-0.466233
188,-1.253226,-1.440381,-1.918223,-0.123501,0.991508,-0.040594,0.350686,0.335568,-0.22493600000000002,-0.369724,0.033349000000000004,0.089987
189,-1.246546,-1.4295229999999999,-1.9171060000000002,-0.133428,0.990038,-0.044847000000000005,0.164414,0.302541,-0.594731,-0.188121,0.012084000000000001,0.392762
190,-1.247674,-1.4144450000000002,-1.906138,-0.147622,0.9878020000000001,-0.049432,0.34649,-1.3741459999999999,-0.7664989999999999,-0.150596,0.513663,0.018456999999999998
191,-1.307741,-1.400101,-1.930897,-0.163992,0.985467,-0.044162,-0.239105,-1.401598,-0.58682,0.368093,0.720054,0.081775
192,-1.3596190000000001,-1.40174,-1.987439,-0.16448,0.9857440000000001,-0.03526,-0.526536,1.006724,0.260527,0.5483600000000001,0.43260600000000005,0.163174
193,-1.359277,-1.4118389999999998,-2.015693,-0.154724,0.9873930000000001,-0.033224000000000004,-0.19501300000000002,1.3882370000000002,0.46958900000000003,0.088013,0.115665,0.016577
194,-1.35146,-1.418584,-2.023943,-0.147955,0.9884379999999999,-0.032982,-0.148207,0.371837,0.194549,-0.11858599999999998,-0.106877,0.000786
195,-1.3734870000000001,-1.4191989999999999,-2.0422759999999998,-0.14805,0.9885309999999999,-0.029597000000000002,-0.11089500000000001,-0.412182,-0.109698,-0.108679,-0.209188,0.024439
196,-1.3948479999999999,-1.4154520000000002,-2.05632,-0.152294,0.987958,-0.027076,-0.077695,-0.25208200000000003,-0.215425,0.083828,-0.230192,0.057395
197,-1.407343,-1.412331,-2.0699509999999997,-0.155664,0.9874709999999999,-0.025673,-0.044973,0.20986999999999997,-0.149558,0.12160599999999999,-0.004591,0.013344
198,-1.400476,-1.409062,-2.06969,-0.158666,0.986949,-0.027288,0.047477,0.33961399999999997,-0.174716,0.077444,0.08688799999999999,-0.06905599999999999
199,-1.3983940000000001,-1.405514,-2.073485,-0.162057,0.9863719999999999,-0.028219,-0.023147,0.288745,-0.17941700000000002,0.003732,-0.075422,-0.176249
200,-1.397897,-1.401759,-2.080547,-0.165691,0.9857469999999999,-0.028937,-0.019117,0.442255,-0.21056399999999997,-0.019765,-0.201842,-0.030893
201,-1.384551,-1.396266,-2.076048,-0.17060899999999998,0.984808,-0.032148,0.184778,0.36844499999999997,-0.310527,0.041169,-0.30861500000000003,-0.042925
202,-1.357249,-1.3876709999999999,-2.05228,-0.17793599999999998,0.9832790000000001,-0.038586,0.30063,0.173487,-0.407744,0.101063,-0.379657,-0.102405
203,-1.3342479999999999,-1.378496,-2.037904,-0.18576700000000002,0.981567,-0.044781,0.197168,0.641554,-0.420817,0.169181,-0.264664,-0.064884
204,-1.308978,-1.369398,-2.0285189999999997,-0.193197,0.9797879999999999,-0.051771000000000005,0.23858600000000002,0.8406,-0.41651000000000005,0.239812,-0.051626,-0.072375
205,-1.275652,-1.360362,-2.005625,-0.199829,0.9779399999999999,-0.060752999999999995,0.411867,0.29961,-0.343035,0.21695,0.028727999999999997,-0.177223
206,-1.234905,-1.351689,-1.965559,-0.205188,0.976092,-0.071636,0.6172890000000001,0.060905999999999995,-0.23447199999999999,0.21794499999999997,-0.26826700000000003,-0.089116
207,-1.187581,-1.34328,-1.91966,-0.20917600000000003,0.9742299999999999,-0.084329,0.61429,0.10884200000000001,-0.23135,0.14602,-0.44108800000000004,0.033517
208,-1.142166,-1.333365,-1.875922,-0.21391,0.9719450000000001,-0.097749,0.688575,0.216342,-0.27263000000000004,0.134625,-0.393393,0.049363
209,-1.090584,-1.3218219999999998,-1.829579,-0.21852199999999997,0.969166,-0.113824,0.799157,0.33963000000000004,-0.26879200000000003,0.166901,-0.197071,-0.12168
210,-1.0346870000000001,-1.3074620000000001,-1.773995,-0.223766,0.965527,-0.13295099999999999,1.126135,-0.056586000000000004,-0.30232,0.16151,-0.075574,-0.193373
211,-0.961033,-1.284852,-1.693815,-0.231217,0.9593959999999999,-0.161521,1.77981,-0.224665,-0.394746,0.041749,0.318635,-0.21250300000000003
212,-0.875519,-1.251148,-1.594507,-0.241281,0.9493459999999999,-0.20128800000000002,2.41626,-0.661148,-0.483745,-0.14798599999999998,0.536509,-0.38167399999999996
213,-0.809337,-1.211602,-1.507212,-0.254432,0.9361799999999999,-0.242533,2.2953069999999998,-0.7300449999999999,-0.46527399999999997,-0.11493699999999998,0.6484300000000001,0.042307
214,-0.759455,-1.176883,-1.438748,-0.264253,0.923414,-0.278332,1.9997599999999998,-0.7374149999999999,-0.23125199999999999,0.047181,0.619555,0.228329
215,-0.7256670000000001,-1.152986,-1.385426,-0.269271,0.9139799999999999,-0.303525,1.344692,-0.891949,0.086974,0.071028,0.269156,0.447568
216,-0.713386,-1.143792,-1.347126,-0.271011,0.9102100000000001,-0.31315,0.552305,-1.19204,0.42792700000000006,0.063033,0.189872,0.43305299999999997
217,-0.7060890000000001,-1.148518,-1.319125,-0.265924,0.912158,-0.311842,0.060315,-0.7725420000000001,0.642939,0.004175,0.145887,0.334196
218,-0.700404,-1.156248,-1.2956,-0.259594,0.915298,-0.307949,0.01404,-0.714492,0.551742,-0.05875,0.260681,0.067287
219,-0.697024,-1.162719,-1.282361,-0.254744,0.9178860000000001,-0.30427600000000005,-0.154281,-0.373321,0.361054,-0.096651,0.244117,0.047958999999999995
220,-0.7016020000000001,-1.171556,-1.276528,-0.250889,0.921357,-0.29689899999999997,-0.337845,-0.5837680000000001,0.400634,-0.099865,0.236602,0.07079400000000001
221,-0.712625,-1.185532,-1.273734,-0.245702,0.9266989999999999,-0.284344,-0.570778,-0.74868,0.550906,0.003896,0.060758000000000006,0.21777
222,-0.727699,-1.2034989999999999,-1.270926,-0.238846,0.933301,-0.26813000000000003,-0.688629,-0.969291,0.677484,-0.013748,0.015688999999999998,0.177676
223,-0.742831,-1.224326,-1.268576,-0.22967600000000002,0.940577,-0.250111,-0.776435,-0.725351,0.755606,-0.03659,-0.027902999999999997,0.13156600000000002
224,-0.752131,-1.24694,-1.269042,-0.217402,0.9480149999999999,-0.23237,-0.8514139999999999,-0.31390300000000004,0.75776,-0.09651699999999999,-0.232744,-0.004187
225,-0.7670170000000001,-1.267878,-1.277372,-0.20701399999999998,0.95447,-0.214767,-0.8211200000000001,-0.46217299999999994,0.5146069999999999,-0.053561000000000004,-0.27258499999999997,-0.01854
226,-0.797148,-1.283002,-1.295001,-0.20303800000000002,0.958872,-0.198322,-0.645289,-0.7451939999999999,0.276916,-0.018321,-0.306178,-4.2e-05
227,-0.831599,-1.294037,-1.313732,-0.201916,0.961946,-0.184071,-0.536771,-0.8922610000000001,0.197746,0.08656,-0.27969499999999997,0.00893
228,-0.8704649999999999,-1.3027440000000001,-1.3311549999999999,-0.202503,0.964289,-0.170681,-0.40170300000000003,-1.2611709999999998,0.161774,0.10779200000000001,-0.240198,0.0077930000000000004
229,-0.9044129999999999,-1.308729,-1.3397729999999999,-0.20364000000000002,0.9658559999999999,-0.160139,-0.21887199999999998,-1.176574,0.15973800000000002,0.069957,-0.081152,-0.00635
230,-0.922615,-1.313758,-1.34245,-0.202645,0.967147,-0.153471,-0.144717,-0.5473939999999999,0.194701,0.007714,-0.053252999999999995,-0.203768
231,-0.920407,-1.3173549999999998,-1.331192,-0.199536,0.9680549999999999,-0.151811,0.11038800000000001,-0.472843,0.24445799999999998,-0.012103000000000001,-0.080604,-0.311293
232,-0.9056209999999999,-1.318194,-1.29998,-0.196631,0.9682649999999999,-0.15424300000000002,0.386375,-0.9714950000000001,0.29723099999999997,0.025961,-0.134891,-0.372429
233,-0.8782540000000001,-1.316648,-1.24694,-0.19348800000000002,0.967878,-0.160521,0.6672520000000001,-1.2924200000000001,0.389335,0.069449,-0.096525,-0.258027
234,-0.8394469999999999,-1.313447,-1.179,-0.189419,0.967068,-0.169975,0.766771,-1.381515,0.472397,0.08501900000000001,-0.083691,-0.203056
235,-0.804054,-1.31152,-1.112365,-0.184628,0.966576,-0.177865,0.64773,-1.482446,0.508015,0.038235000000000005,-0.15847,-0.012641
236,-0.777179,-1.309661,-1.05479,-0.181042,0.966097,-0.184042,0.553633,-1.389049,0.410029,0.043224,-0.242098,6.7e-05
237,-0.760744,-1.308818,-1.012723,-0.178553,0.96588,-0.187582,0.302464,-1.092776,0.329915,0.042628,-0.265181,-0.030893
238,-0.7583270000000001,-1.311056,-0.9918299999999999,-0.17661300000000002,0.966457,-0.186443,-0.009386,-0.776016,0.24080500000000002,-0.05667899999999999,-0.255046,-0.181522
239,-0.771257,-1.317605,-0.992453,-0.174592,0.968118,-0.179601,-0.407122,-0.5252180000000001,0.20459000000000002,-0.115096,-0.185052,-0.272959
240,-0.806048,-1.329122,-1.0188540000000001,-0.172675,0.970939,-0.165687,-0.7372449999999999,-0.423791,0.167971,-0.129799,-0.08054299999999999,-0.29935500000000004
241,-0.8535959999999999,-1.339445,-1.063107,-0.172792,0.9733569999999999,-0.150696,-0.7386510000000001,-0.074284,-0.120906,-0.199294,0.063828,-0.094345
242,-0.935343,-1.341317,-1.1561549999999998,-0.183052,0.973785,-0.135001,-1.038362,0.83641,-0.896491,-0.246574,0.332764,0.444175
243,-1.056399,-1.3351950000000001,-1.309004,-0.203201,0.972374,-0.11483800000000001,-1.299826,1.523284,-1.144889,-0.7033689999999999,1.028373,1.1416629999999999
244,-1.142107,-1.3402530000000001,-1.411701,-0.207808,0.973542,-0.094976,-1.327185,0.024658000000000003,-0.111257,-0.089524,0.626525,0.702978
245,-1.310668,-1.343542,-1.568933,-0.2177,0.974289,-0.057942999999999995,-1.871941,-1.102714,-0.626364,0.236911,0.212723,-0.041513999999999995
246,-1.447292,-1.337618,-1.696058,-0.229287,0.972937,-0.028463,-0.970453,-0.026208,-0.48685100000000003,0.324807,0.532037,0.402211
247,-1.503639,-1.3355569999999999,-1.765194,-0.232526,0.972459,-0.015639,-0.866088,0.458139,0.043095999999999995,0.336835,0.522933,0.628234
248,-1.62604,-1.3422129999999999,-1.8801729999999999,-0.226225,0.973988,0.01251,-1.568932,-1.023744,0.406486,0.332106,0.359553,0.502825
249,-1.7690130000000002,-1.346392,-2.011037,-0.21814099999999997,0.9749270000000001,0.043814,-1.222421,-0.346435,0.42406099999999997,0.12083499999999998,0.146579,0.10909400000000001
250,-1.8653220000000001,-1.352519,-2.122815,-0.20719400000000002,0.9762719999999999,0.062852,-1.1220430000000001,1.089351,0.6547270000000001,-0.20766199999999999,-0.032089,0.053298000000000005
251,-1.9471459999999998,-1.356083,-2.234378,-0.198126,0.977037,0.078296,-1.098381,1.3576540000000001,0.404584,-0.496683,-0.111452,-0.056995000000000004
252,-2.019127,-1.349648,-2.320632,-0.19764400000000001,0.9756459999999999,0.095066,-0.866941,0.138018,-0.087891,-0.318286,-0.20256,-0.082096
253,-2.061332,-1.33754,-2.362168,-0.20386400000000002,0.9729190000000001,0.10887899999999999,-0.615658,-0.075613,-0.42769300000000005,0.064856,-0.112354,-0.04264
254,-2.08283,-1.322938,-2.386591,-0.21383899999999997,0.96944,0.12018499999999999,-0.6341640000000001,0.233717,-0.51154,0.289508,-0.05588099999999999,0.031686
255,-2.104764,-1.30806,-2.417318,-0.223545,0.965683,0.132173,-0.72963,0.449927,-0.41848100000000005,0.370868,-0.104446,0.012969
256,-2.125803,-1.293999,-2.4473700000000003,-0.232233,0.961936,0.143988,-0.688723,0.327144,-0.384923,0.33617600000000003,-0.144171,-0.043997
257,-2.145713,-1.280394,-2.474407,-0.24028400000000003,0.9581290000000001,0.155686,-0.700669,0.29728899999999997,-0.36787600000000004,0.24852399999999997,-0.106353,-0.084611
258,-2.169898,-1.265479,-2.503663,-0.24822399999999997,0.953752,0.169492,-0.808002,0.12626500000000002,-0.396181,0.179056,-0.054855999999999995,-0.066373
259,-2.195616,-1.248056,-2.532181,-0.257225,0.94837,0.185513,-0.894284,0.04605,-0.507776,0.140678,-0.052205999999999995,-0.086148
260,-2.217323,-1.228118,-2.559075,-0.268179,0.941858,0.202405,-0.953564,0.29693800000000004,-0.566177,0.135107,0.010855,-0.19205999999999998
261,-2.228585,-1.2075639999999999,-2.5792900000000003,-0.281146,0.9347530000000001,0.217204,-0.85898,0.39908899999999997,-0.619059,0.180194,0.045899,-0.238506
262,-2.231574,-1.188628,-2.590625,-0.29441999999999996,0.927858,0.228868,-0.655353,0.365358,-0.618661,0.140398,0.130705,-0.209382
263,-2.229911,-1.173394,-2.593861,-0.30594099999999996,0.922069,0.237008,-0.45630200000000004,0.116092,-0.527221,-0.001219,0.24889,-0.33214699999999997
264,-2.22807,-1.160276,-2.593692,-0.315927,0.9169129999999999,0.243815,-0.333273,0.164772,-0.553129,-0.00015900000000000002,0.269809,-0.299906
265,-2.207906,-1.149025,-2.579179,-0.32905,0.912365,0.243517,0.039285,0.358784,-0.6426430000000001,0.23559000000000002,0.283008,-0.338152
266,-2.1807220000000003,-1.140595,-2.550159,-0.341841,0.908882,0.23888099999999998,0.358493,-0.145897,-0.717747,0.271818,0.27114099999999997,-0.428853
267,-2.149121,-1.13513,-2.50956,-0.35337199999999996,0.906589,0.230673,0.6767989999999999,-0.282368,-0.698257,0.271478,0.24268800000000001,-0.459952
268,-2.099548,-1.132363,-2.452892,-0.366533,0.9054180000000001,0.214144,1.151461,0.052011,-0.813942,0.189332,0.372231,-0.31971900000000003
269,-2.018945,-1.13132,-2.36346,-0.38343499999999997,0.904975,0.184346,1.9600419999999998,-0.138702,-0.974693,0.07450599999999999,0.5548489999999999,-0.351124
270,-1.915502,-1.13398,-2.240765,-0.398154,0.9061030000000001,0.142953,2.757874,-0.46503999999999995,-0.7764220000000001,0.060279,0.612833,-0.261789
271,-1.7930139999999999,-1.1427209999999999,-2.093443,-0.404896,0.909766,0.091486,3.197266,-0.660551,-0.217627,0.48723299999999997,0.548562,0.145361
272,-1.6679400000000002,-1.155433,-1.934493,-0.40160300000000004,0.9149700000000001,0.039137,3.366668,-1.179742,0.268127,0.41228400000000004,0.365716,0.257357
273,-1.538116,-1.167899,-1.764202,-0.391859,0.9199290000000001,-0.012811000000000001,3.411093,-1.3794899999999999,0.6308199999999999,0.299284,0.400063,0.30391799999999997
274,-1.4031879999999999,-1.1742,-1.587935,-0.380851,0.9223809999999999,-0.064439,3.3474699999999995,-1.299346,0.6238640000000001,0.05764,0.415494,0.318452
275,-1.266019,-1.1709049999999999,-1.416057,-0.37136199999999997,0.9211030000000001,-0.11682200000000001,3.220072,-0.919674,0.625692,-0.007070999999999999,0.232141,0.272386
276,-1.1417329999999999,-1.16195,-1.265256,-0.361503,0.91758,-0.165383,2.713525,-0.550715,0.705002,0.055166999999999994,0.177009,0.327493
277,-1.0344149999999999,-1.156289,-1.143907,-0.346168,0.915315,-0.205804,2.001959,-0.023112999999999998,0.9824350000000001,0.13709200000000002,0.183882,0.346933
278,-0.953842,-1.155756,-1.047234,-0.328879,0.9151,-0.23328000000000002,1.6067049999999998,-0.7889689999999999,1.039407,0.42832,0.180923,0.45831700000000003
279,-0.8895770000000001,-1.150664,-0.943649,-0.316835,0.913035,-0.256852,1.8758119999999998,-1.8522599999999998,1.1088790000000002,0.457582,0.14739000000000002,0.5285489999999999
280,-0.832132,-1.143686,-0.8388770000000001,-0.306269,0.9101670000000001,-0.278901,1.8515169999999999,-1.972805,1.171889,0.45665900000000004,0.092504,0.585863
281,-0.7860699999999999,-1.135953,-0.732925,-0.298073,0.9069360000000001,-0.297673,1.908539,-2.947094,1.27929,0.46978000000000003,0.068512,0.598729
282,-0.758165,-1.128984,-0.622667,-0.293991,0.9039780000000001,-0.310456,1.803808,-3.9214050000000005,1.531907,0.430954,0.046659,0.6586310000000001
283,-0.74074,-1.12535,-0.511323,-0.290752,0.902418,-0.317954,1.785648,-4.263849,1.67002,0.368679,0.024797,0.740867
284,-0.7309770000000001,-1.120854,-0.400488,-0.29034,0.9004719999999999,-0.323795,1.747047,-4.59375,1.619967,0.199444,-0.06606000000000001,0.562122
285,-0.728923,-1.119108,-0.298296,-0.290721,0.899711,-0.325563,1.388583,-4.394197,1.577683,0.091655,-0.13282,0.5321520000000001
286,-0.730376,-1.122797,-0.209121,-0.288977,0.901315,-0.322666,1.01344,-3.8569459999999998,1.548737,-0.028176,-0.21555500000000002,0.485187
287,-0.731246,-1.130516,-0.13179200000000002,-0.284604,0.904632,-0.317226,0.71636,-3.328295,1.471208,-0.052249000000000004,-0.197235,0.47963999999999996
288,-0.72937,-1.141271,-0.065969,-0.277507,0.9091629999999999,-0.31048600000000004,0.406389,-2.6321470000000002,1.343169,-0.069599,-0.171676,0.450593
289,-0.72613,-1.1544590000000001,-0.011519,-0.268515,0.9145760000000001,-0.30239099999999997,0.177205,-2.2186630000000003,1.236353,-0.13527899999999998,-0.032175999999999996,0.44825
290,-0.725058,-1.168835,0.038536,-0.259443,0.9202959999999999,-0.292806,0.111844,-2.283409,1.233843,-0.21696700000000002,-0.086525,0.38077300000000003
291,-0.721517,-1.183237,0.093908,-0.249623,0.925834,-0.28374099999999997,0.183767,-2.3722790000000002,1.284665,-0.19923,-0.14824600000000002,0.254338
292,-0.712359,-1.198083,0.150569,-0.238002,0.931343,-0.275581,0.0979,-2.0267720000000002,1.269736,0.001049,-0.152687,-0.116844
293,-0.694887,-1.212589,0.205746,-0.224476,0.936527,-0.26929000000000003,0.09754199999999999,-1.481001,1.182508,0.139042,-0.092777,-0.32861
294,-0.6683,-1.22394,0.25915,-0.210637,0.9404459999999999,-0.266801,0.15911,-1.025588,0.994348,0.119466,-0.029466000000000003,-0.421096
295,-0.650981,-1.232009,0.299083,-0.201379,0.943159,-0.264363,0.033491,-1.08125,0.637824,0.108758,0.387423,-0.38013800000000003
296,-0.648238,-1.23699,0.32748,-0.19781400000000002,0.944802,-0.261166,0.143066,-1.2877450000000001,0.501053,0.25054899999999997,0.43804099999999996,-0.250659
297,-0.645057,-1.239541,0.36640500000000004,-0.19553299999999998,0.945635,-0.259867,0.3968,-1.899603,0.6446149999999999,0.284965,0.273512,-0.149847
298,-0.631137,-1.238202,0.42297700000000005,-0.192643,0.945198,-0.263586,0.672653,-1.929629,0.721356,0.201204,-0.072686,-0.107295
299,-0.613805,-1.237878,0.478475,-0.188223,0.9450930000000001,-0.267135,0.385755,-1.665527,0.7254229999999999,0.219854,-0.40786100000000003,-0.25190799999999997
300,-0.614563,-1.245126,0.513135,-0.184471,0.9474360000000001,-0.261389,-0.168802,-1.717512,0.620134,0.320594,-0.426044,-0.093485
301,-0.631004,-1.260278,0.51946,-0.180252,0.952175,-0.24669899999999997,-0.8725780000000001,-0.40186900000000003,0.424457,0.080108,-0.19425599999999998,0.8318129999999999
302,-0.683377,-1.287916,0.45088999999999996,-0.176228,0.960255,-0.216427,-2.206089,1.087275,-0.255472,-0.583415,0.521953,0.9829680000000001
303,-0.780405,-1.308928,0.298383,-0.182127,0.965908,-0.183954,-1.771079,3.350401,-1.018044,-1.1275959999999998,1.8107490000000002,-0.949835
304,-0.77564,-1.284717,0.265208,-0.197569,0.959358,-0.201463,1.927111,-0.161912,-1.2686540000000002,-0.481692,0.377038,0.176209
305,-0.8229049999999999,-1.250256,0.266953,-0.230979,0.9490649999999999,-0.21427100000000002,0.285826,-2.6009919999999997,-1.012074,0.164481,-0.89894,1.34243
306,-0.925377,-1.263267,0.190658,-0.241799,0.953084,-0.182075,-2.128227,-1.05292,0.223173,0.371544,-0.798192,0.675971
307,-1.058449,-1.297193,0.060639,-0.235486,0.9628040000000001,-0.132448,-2.346429,0.318564,0.293598,0.5056579999999999,-0.21815900000000002,0.457506
308,-1.1487459999999998,-1.317555,-0.071407,-0.228533,0.9681049999999999,-0.102619,-1.9778060000000002,2.416517,0.13432,0.15400899999999998,0.361652,0.518787
309,-1.247519,-1.3311469999999999,-0.22359,-0.225039,0.9714209999999999,-0.075395,-1.779466,2.477058,-0.258546,0.006579000000000001,0.568832,0.31117399999999995
310,-1.296678,-1.326949,-0.318616,-0.232395,0.970416,-0.065349,-0.492968,1.622793,-0.595637,0.006993000000000001,0.7419399999999999,0.042949
311,-1.3300459999999998,-1.313986,-0.33869299999999997,-0.24664499999999998,0.967205,-0.060555,-0.000781,-2.303652,-0.769818,0.115542,-0.20336500000000002,0.06952699999999999
312,-1.429225,-1.302848,-0.36549,-0.262079,0.964316,-0.037353,-0.42320399999999997,-3.8333440000000003,-0.415091,0.17899500000000002,-0.260047,0.363952
313,-1.537459,-1.3015729999999999,-0.427364,-0.265808,0.9639780000000001,-0.008865000000000001,-1.021742,-1.299643,-0.015526,0.15931700000000001,-0.259968,0.502868
314,-1.627324,-1.3021559999999999,-0.521195,-0.264968,0.964133,0.014994,-1.2537690000000001,0.29038800000000003,0.025681,0.062102,0.030496,-0.017695
315,-1.710145,-1.29748,-0.601748,-0.267281,0.962881,0.037488,-1.02515,-0.587258,-0.20767399999999997,0.10776600000000001,0.096689,-0.045620999999999995
316,-1.788268,-1.2887629999999999,-0.669471,-0.271727,0.960492,0.060042,-0.984432,-0.615889,-0.275719,0.215864,0.044986,-0.046859
317,-1.85674,-1.278732,-0.73016,-0.276213,0.957651,0.081207,-0.942163,-0.44780699999999996,-0.254275,0.158552,0.0038350000000000003,0.033494
318,-1.919847,-1.269357,-0.789211,-0.278966,0.95491,0.10153,-0.982517,-0.28834899999999997,-0.136189,0.11328599999999998,0.021422999999999998,0.042879
319,-1.980851,-1.258788,-0.84603,-0.281498,0.9517190000000001,0.122366,-0.994276,-0.377454,-0.220546,0.07635800000000001,0.015948,0.061045
320,-2.033258,-1.244766,-0.8933760000000001,-0.286618,0.9473209999999999,0.14288399999999998,-0.949681,-0.345018,-0.378373,0.087201,0.032705,-0.054016999999999996
321,-2.074985,-1.2284469999999998,-0.9309430000000001,-0.293906,0.9419690000000001,0.162164,-0.9182680000000001,-0.31605700000000003,-0.455103,0.13285,0.058016,-0.095086
322,-2.111972,-1.211463,-0.962677,-0.301379,0.9361309999999999,0.181137,-0.873584,-0.35982600000000003,-0.470758,0.171175,0.10232100000000001,-0.113205
323,-2.138789,-1.1946459999999999,-0.985842,-0.309643,0.9300860000000001,0.197595,-0.746745,-0.185417,-0.506415,0.23118200000000003,0.195403,-0.187143
324,-2.153323,-1.179227,-1.001368,-0.318677,0.9243110000000001,0.20994000000000002,-0.6037359999999999,0.094123,-0.47372700000000006,0.23200700000000002,0.237066,-0.150263
325,-2.154951,-1.167473,-1.0068139999999999,-0.327376,0.9197620000000001,0.21643600000000002,-0.330221,0.178403,-0.47513,0.18038800000000002,0.23956999999999998,-0.169836
326,-2.146872,-1.157429,-1.0013100000000001,-0.336845,0.915773,0.218806,-0.112907,0.139156,-0.439378,0.050376,0.14131,-0.37501
327,-2.1343259999999997,-1.151725,-0.9910059999999999,-0.343974,0.913467,0.21735,0.121438,0.16984200000000002,-0.324549,-0.009343,0.039063,-0.419254
328,-2.111875,-1.148823,-0.967512,-0.351038,0.9122819999999999,0.21093800000000001,0.463297,-0.081227,-0.438276,0.13035,0.112284,-0.271851
329,-2.078895,-1.145543,-0.9239209999999999,-0.360415,0.910934,0.200703,0.808121,-0.471508,-0.639397,0.325366,0.166733,-0.249836
330,-2.038222,-1.143378,-0.867943,-0.37003800000000003,0.9100389999999999,0.18677,1.099226,-0.501305,-0.633053,0.341656,0.37154699999999996,-0.313662
331,-1.978875,-1.1443860000000001,-0.7913279999999999,-0.37962199999999996,0.9104559999999999,0.164129,1.715695,-0.554546,-0.640429,0.200408,0.46913699999999997,-0.371359
332,-1.8897,-1.14824,-0.67966,-0.389396,0.9120440000000001,0.12856800000000002,2.5269880000000002,-0.675679,-0.621788,0.180106,0.365971,-0.334073
333,-1.7708169999999999,-1.15301,-0.532312,-0.39762800000000004,0.9139889999999999,0.080612,3.19132,-0.8309639999999999,-0.45992,0.237533,0.268063,-0.279602
334,-1.640522,-1.1584370000000002,-0.36639299999999997,-0.399778,0.916178,0.02792,3.384126,-1.347114,0.044152,0.581129,0.360617,0.390827
335,-1.527289,-1.166368,-0.20620500000000003,-0.393102,0.919328,-0.017113999999999997,3.0165290000000002,-1.7916560000000001,0.442737,0.521993,0.318923,0.6392760000000001
336,-1.422675,-1.170996,-0.055853,-0.384954,0.9211389999999999,-0.057441,2.857118,-1.4658799999999998,0.630282,0.27229899999999996,0.26965700000000004,0.56922
337,-1.306941,-1.176348,0.090545,-0.37098200000000003,0.9232090000000001,-0.100222,2.581584,-0.79059,0.8924110000000001,-0.000676,0.350107,0.204104
338,-1.198114,-1.1781270000000001,0.219561,-0.356373,0.923891,-0.139325,2.17866,-0.293599,0.8323440000000001,0.021075999999999998,0.29814,0.23986500000000002
339,-1.097197,-1.17834,0.332897,-0.340348,0.9239719999999999,-0.174429,1.830899,-0.346354,1.0062389999999999,0.205217,0.231026,0.35401
340,-1.025152,-1.184439,0.431863,-0.32208600000000004,0.9262879999999999,-0.195548,1.340208,-1.2490709999999998,1.272092,0.209736,0.11575,0.42780200000000007
341,-0.956951,-1.193181,0.531555,-0.30138000000000004,0.9295459999999999,-0.21236999999999998,1.337787,-1.167622,1.418317,0.227512,0.025501,0.40870500000000004
342,-0.884597,-1.20039,0.635328,-0.280048,0.9321799999999999,-0.22935,1.22423,-1.261013,1.428326,0.223133,-0.12969,0.45138
343,-0.825983,-1.205682,0.73258,-0.26250100000000004,0.934083,-0.24201399999999998,1.12979,-1.96865,1.3174780000000001,0.25398699999999996,-0.073014,0.47666400000000003
344,-0.786262,-1.207858,0.829421,-0.251244,0.934858,-0.25081,1.1572639999999998,-2.815336,1.241843,0.271965,-0.032087,0.473055
345,-0.764409,-1.209717,0.9186340000000001,-0.2445,0.935516,-0.254985,0.959609,-3.1850810000000003,1.170433,0.207513,-0.07304400000000001,0.45380699999999996
346,-0.758163,-1.214051,0.994373,-0.240112,0.937039,-0.25356100000000004,0.614185,-3.2218560000000003,1.0762,0.055985,-0.168453,0.43045600000000006
347,-0.766521,-1.2233180000000001,1.050825,-0.23619,0.940234,-0.24528000000000003,0.169848,-2.9377,0.9968889999999999,-0.14515799999999998,-0.224521,0.416071
348,-0.784666,-1.236645,1.088913,-0.231725,0.9446889999999999,-0.23206500000000002,-0.09150599999999999,-2.6038240000000004,0.846152,-0.281794,-0.24226599999999998,0.44892299999999996
349,-0.8092229999999999,-1.248189,1.115398,-0.22944499999999998,0.948412,-0.218764,-0.11640299999999999,-2.410113,0.643836,-0.306322,-0.209154,0.41732700000000006
350,-0.8419620000000001,-1.260234,1.12827,-0.22794299999999998,0.9521620000000001,-0.203513,-0.373084,-2.145809,0.5712020000000001,-0.16780899999999999,-0.11146400000000001,0.27419099999999996
351,-0.883166,-1.275622,1.1278219999999999,-0.22478299999999998,0.956751,-0.18462699999999999,-0.5431630000000001,-1.9770240000000001,0.600776,-0.082926,-0.037699,0.14143
352,-0.922004,-1.2913940000000002,1.1289770000000001,-0.219728,0.9612200000000001,-0.16662000000000002,-0.40934299999999996,-2.076704,0.6370899999999999,-0.093596,0.032188,-0.056188999999999996
353,-0.960557,-1.3056379999999999,1.1335540000000002,-0.214743,0.965051,-0.15016400000000002,-0.351852,-2.142794,0.598052,-0.037516,0.108161,-0.21502399999999997
354,-0.988577,-1.318936,1.141572,-0.20812600000000003,0.9684510000000001,-0.137019,-0.23703200000000002,-1.49879,0.620462,0.011501,0.137827,-0.318105
355,-0.991867,-1.3309010000000001,1.160497,-0.19886099999999998,0.9713629999999999,-0.129983,-0.066898,-0.92409,0.6102310000000001,0.167901,0.142147,-0.47308999999999996
356,-0.980877,-1.3392700000000002,1.190179,-0.190657,0.973317,-0.127633,0.14291700000000002,-0.8668959999999999,0.511211,0.14015,0.09225,-0.25867399999999996
357,-0.95036,-1.344557,1.238944,-0.18248499999999998,0.974517,-0.13039800000000001,0.41476499999999994,-0.879697,0.546241,0.11527000000000001,0.036180000000000004,-0.17543399999999998
358,-0.905927,-1.348394,1.306271,-0.173568,0.9753700000000001,-0.136067,0.449543,-1.115635,0.643994,0.19250499999999998,-0.297224,0.41151800000000005
359,-0.8789030000000001,-1.357349,1.342863,-0.16309400000000002,0.9773069999999999,-0.135128,-0.381861,0.125585,0.522297,0.06498,-0.359692,1.007671
360,-0.95025,-1.374938,1.2523469999999999,-0.158299,0.980881,-0.113141,-1.6575259999999998,1.221323,-0.127883,-0.578793,0.07885700000000001,0.766874
361,-1.065304,-1.3889639999999999,1.102226,-0.158185,0.9835139999999999,-0.087548,-1.3871229999999999,1.597359,-0.094429,-0.6823,0.290931,0.281869
362,-1.0769469999999999,-1.3785690000000002,1.0998709999999998,-0.168189,0.9815809999999999,-0.090543,1.252077,-1.878237,-0.8577370000000001,-0.10326500000000001,0.021959,0.369184
363,-1.113102,-1.348018,1.120147,-0.198173,0.9752870000000001,-0.097616,0.35291100000000003,-2.8719330000000003,-1.194962,0.019417,-0.203177,1.121786
364,-1.1838950000000001,-1.335984,1.0796459999999999,-0.21543600000000002,0.972558,-0.087777,-0.355482,-0.854201,-0.606427,0.222104,-0.203408,1.156716
365,-1.23603,-1.328302,1.038561,-0.226768,0.970742,-0.07888300000000001,-0.29791,-0.6867979999999999,-0.428915,0.18854500000000002,0.133582,-0.052449
366,-1.298347,-1.32531,0.990956,-0.234037,0.9700190000000001,-0.065389,-0.643393,-0.681077,-0.228373,0.27432,0.22778,0.037984
367,-1.3643239999999999,-1.330718,0.927176,-0.2327,0.971319,-0.048741,-0.872117,-0.053703999999999995,0.254198,0.329243,0.296579,0.06963
368,-1.428369,-1.3404280000000002,0.8656950000000001,-0.225994,0.973582,-0.032407,-0.691543,-0.335039,0.389347,0.152187,-0.029506,-0.073138
369,-1.483018,-1.349117,0.8211860000000001,-0.218989,0.9755299999999999,-0.019272,-0.469988,-0.7105520000000001,0.331556,0.102259,-0.115498,-0.12735
370,-1.525923,-1.3537649999999999,0.794755,-0.215081,0.976541,-0.009658,-0.204272,-0.871633,0.157362,0.051202,-0.16871,-0.160691
371,-1.546777,-1.355694,0.7876340000000001,-0.213351,0.9769549999999999,-0.0051259999999999995,-0.004004,-0.582105,0.040885000000000005,0.021716,-0.028437999999999998,-0.195436
372,-1.5430549999999998,-1.355394,0.800178,-0.213625,0.976891,-0.005928,0.175547,-0.31412399999999996,0.0022719999999999997,0.041933,0.006996,-0.214608
373,-1.5396459999999998,-1.3554629999999999,0.807044,-0.213536,0.9769049999999999,-0.006654,0.020552,-0.14844200000000002,-0.004365,0.079457,0.003319,-0.209258
374,-1.543288,-1.354961,0.807268,-0.214049,0.9767979999999999,-0.00589,-0.004168,-0.22703299999999998,-0.042892,0.138533,-0.112403,-0.138962
375,-1.549593,-1.353648,0.805403,-0.215364,0.9765159999999999,-0.004567,-0.027404,-0.200217,-0.068726,0.15545799999999999,-0.12239000000000001,-0.11979200000000001
376,-1.549425,-1.352614,0.8086399999999999,-0.21637399999999998,0.976292,-0.004625,0.10596300000000002,-0.170966,-0.040059,0.059802999999999995,-0.060109,-0.138487
377,-1.532182,-1.3510879999999998,0.833816,-0.21775100000000003,0.9759610000000001,-0.008413,0.368381,-0.477371,-0.09979,0.104424,-0.011559999999999999,-0.23093699999999998
378,-1.501709,-1.347934,0.873172,-0.22046300000000002,0.975269,-0.015255000000000001,0.467692,-0.255994,-0.13569900000000001,0.168186,-0.011493000000000001,-0.192752
379,-1.454548,-1.3455489999999999,0.9191739999999999,-0.221809,0.9747389999999999,-0.025901999999999998,0.508175,0.286829,-0.053859000000000004,0.06411,-0.18196800000000002,-0.10279100000000001
380,-1.399756,-1.3424969999999998,0.969598,-0.222989,0.9740530000000001,-0.038517,0.68425,0.261849,-0.08678,-0.021091,-0.198128,-0.18855
381,-1.327826,-1.33696,1.036832,-0.224877,0.972785,-0.05574,0.8108449999999999,0.38298899999999997,-0.121303,-0.044822,-0.176642,-0.155198
382,-1.264442,-1.3312899999999999,1.0901040000000002,-0.22615100000000002,0.971455,-0.071535,0.620223,0.732927,-0.08783099999999999,0.012757,-0.239033,0.12980799999999998
383,-1.1988219999999998,-1.326048,1.137742,-0.225715,0.970198,-0.08806,0.610787,1.051299,-0.04344,0.109825,-0.156432,0.036026999999999997
384,-1.135038,-1.32055,1.1794120000000001,-0.224477,0.968852,-0.104518,0.544639,1.2890840000000001,-0.043138,0.130894,-0.07721900000000001,-0.038593999999999996
385,-1.079511,-1.317102,1.209913,-0.221275,0.967992,-0.11839100000000001,0.36687800000000004,1.2106,0.024087,0.180198,-0.046162,0.020246
386,-1.029121,-1.310603,1.243565,-0.220417,0.96634,-0.132627,0.678963,0.699886,-0.13438,0.224125,-0.083207,-0.088152
387,-0.9698829999999999,-1.298376,1.2942639999999999,-0.22190900000000002,0.9631219999999999,-0.152114,0.9955510000000001,0.42384700000000003,-0.109383,0.247971,0.106397,-0.17799500000000001
388,-0.8962450000000001,-1.281208,1.364188,-0.223,0.958361,-0.178331,1.495391,0.267793,-0.145215,0.295983,0.355619,-0.145598
389,-0.803723,-1.254203,1.460867,-0.22412800000000002,0.9503010000000001,-0.21606,2.261431,-0.302166,-0.001334,0.190391,0.612794,-0.34911
390,-0.720535,-1.216233,1.569995,-0.229055,0.9377979999999999,-0.260878,2.75846,-1.31684,-0.032881,0.07172200000000001,0.8419260000000001,-0.038957
391,-0.667905,-1.173375,1.6607490000000003,-0.23970300000000003,0.922062,-0.30386399999999997,2.626898,-1.705961,-0.11128199999999999,0.060427,0.612392,0.27984699999999996
392,-0.638771,-1.135135,1.732918,-0.25159899999999996,0.906591,-0.338793,2.194232,-1.824757,0.134744,-0.077823,0.158274,0.491045
393,-0.613392,-1.113234,1.7912709999999998,-0.254292,0.8971319999999999,-0.361221,1.2835940000000001,-1.118886,0.49281099999999994,-0.238735,-0.199775,0.44459499999999996
394,-0.596745,-1.104594,1.831027,-0.252591,0.893282,-0.371802,0.628027,-0.822312,0.42162200000000005,-0.31966,-0.21884299999999998,0.201163
395,-0.5886939999999999,-1.106085,1.8478919999999999,-0.248849,0.893951,-0.372715,-0.166213,-0.046943,0.348851,-0.222189,0.127152,0.140324
396,-0.583779,-1.1182940000000001,1.849068,-0.24098000000000003,0.8993559999999999,-0.364799,-0.627961,0.253947,0.362331,-0.10551700000000001,0.129147,0.22725700000000001
397,-0.583016,-1.13609,1.8445479999999999,-0.231852,0.9069940000000001,-0.351565,-0.8803690000000001,0.20758400000000002,0.453563,-0.057210000000000004,-0.035793,0.29736599999999996
398,-0.58772,-1.1582299999999999,1.8387959999999999,-0.222313,0.9160950000000001,-0.33367399999999997,-1.05385,-0.094666,0.531787,-0.039147,-0.30382,0.346857
399,-0.6036779999999999,-1.1819959999999998,1.827277,-0.21518600000000002,0.925364,-0.31206799999999996,-1.137731,-0.34112,0.432172,-0.039330000000000004,-0.42350299999999996,0.328623
400,-0.6328010000000001,-1.206374,1.8023619999999998,-0.210774,0.9343299999999999,-0.28738800000000003,-1.356254,-0.219347,0.272393,0.021733000000000002,-0.569797,0.24326
401,-0.677408,-1.233057,1.755179,-0.20767600000000003,0.943506,-0.25818,-1.6602290000000002,0.107298,0.10214,0.032611,-0.49646899999999994,0.208116
402,-0.736614,-1.2590629999999998,1.687218,-0.20603000000000002,0.9518030000000001,-0.227181,-1.713927,0.363714,-0.038501,0.009466,-0.423666,0.17513299999999998
403,-0.815367,-1.281153,1.597186,-0.20790300000000003,0.9583459999999999,-0.195801,-1.708998,0.29638200000000003,-0.254161,-0.005979,-0.348696,0.154328
404,-0.915968,-1.29759,1.490536,-0.21399,0.9629110000000001,-0.16431199999999999,-1.630951,-0.029362,-0.37924800000000003,0.023346000000000002,-0.011556,0.028769
405,-1.031342,-1.3085440000000002,1.375944,-0.22241799999999998,0.965809,-0.133159,-1.5000790000000002,-0.36530100000000004,-0.3982,0.031774000000000004,-0.014454,-0.002385
406,-1.141405,-1.315325,1.2726030000000002,-0.229737,0.9675440000000001,-0.10519300000000001,-1.206126,-0.573562,-0.253806,0.080933,0.222412,-0.35144200000000003
407,-1.232429,-1.320527,1.192923,-0.23359499999999997,0.9688459999999999,-0.082202,-0.9366770000000001,-0.723352,-0.058384000000000005,0.149412,0.165767,-0.48985
408,-1.298697,-1.327456,1.130701,-0.232052,0.9705389999999999,-0.064747,-0.752837,0.09942899999999999,0.21744699999999997,0.064907,0.128018,-0.504131
409,-1.33181,-1.338909,1.083241,-0.223252,0.973234,-0.054394000000000005,-0.670905,0.819153,0.512994,-0.043944,0.11718900000000002,-0.509495
410,-1.365084,-1.352538,1.037885,-0.21193,0.976276,-0.044222000000000004,-0.6284930000000001,0.311829,0.539578,-0.100509,-0.07344400000000001,-0.353544
411,-1.413116,-1.363438,0.9867600000000001,-0.203284,0.9785780000000001,-0.032322000000000004,-0.645908,0.091954,0.39552800000000005,-0.036416000000000004,-0.122118,-0.221721
412,-1.464422,-1.371532,0.92648,-0.19679000000000002,0.9802129999999999,-0.021013,-0.67523,0.522036,0.22706199999999999,-0.038592,-0.09208999999999999,-0.11511099999999999
413,-1.5448629999999999,-1.374757,0.835095,-0.194681,0.9808459999999999,-0.00505,-1.0471270000000001,0.42715299999999995,0.057960000000000005,0.032418999999999996,0.472325,0.520644
414,-1.652218,-1.374008,0.736325,-0.194831,0.9807,0.015899,-0.742995,-1.372541,-0.094638,0.086128,0.376249,0.265412
415,-1.7077950000000002,-1.369694,0.7248439999999999,-0.19783900000000001,0.9798469999999999,0.027274,0.247406,-2.164747,-0.243733,0.011101,0.580914,-0.577659
416,-1.6654229999999999,-1.36699,0.779192,-0.201452,0.979303,0.019119999999999998,0.400296,0.383513,-0.140177,0.087072,0.354147,0.137206
417,-1.6529479999999999,-1.368083,0.772545,-0.20060899999999998,0.979524,0.016517,-0.210554,1.038469,0.169843,-0.115218,0.034208999999999996,0.42656700000000003
418,-1.677699,-1.371414,0.741054,-0.196892,0.980189,0.021129,-0.407582,-0.34131,0.136051,-0.644935,0.341481,-0.15926700000000002
419,-1.7423110000000002,-1.3673549999999999,0.690656,-0.199036,0.979377,0.034476,-0.49232600000000004,-0.600421,-0.260519,-0.131912,0.38660500000000003,-0.110251
420,-1.766309,-1.360524,0.66265,-0.20471,0.977974,0.040541,-0.33473200000000003,0.5568310000000001,-0.221377,0.38571,0.280922,0.060792
421,-1.792632,-1.360005,0.621482,-0.204067,0.977866,0.046027,-0.43524399999999996,0.68547,0.196499,0.36945700000000004,-0.081458,0.019327
422,-1.815406,-1.363437,0.587925,-0.199708,0.9785780000000001,0.049849,-0.22152600000000003,0.328752,0.24011,0.209488,-0.192521,-0.166945
423,-1.834572,-1.366436,0.568699,-0.195881,0.979191,0.052901,-0.122135,-0.187932,0.160281,0.13861400000000001,-0.22113400000000002,-0.229674
424,-1.847448,-1.368175,0.559113,-0.193545,0.979542,0.054953999999999996,-0.035947,-0.081384,0.08063,0.131442,-0.306813,-0.30101700000000003
425,-1.839978,-1.369712,0.5627310000000001,-0.192497,0.979851,0.053105999999999993,0.127359,0.385798,0.05767100000000001,0.164772,-0.320457,-0.30454000000000003
426,-1.807563,-1.371459,0.584222,-0.192452,0.9801979999999999,0.046437,0.283209,0.595302,0.01149,0.153222,-0.265965,-0.372884
427,-1.760902,-1.372687,0.624818,-0.193226,0.98044,0.037182,0.49173199999999995,0.15809,-0.056996000000000005,-0.170223,-0.152697,-0.172543
428,-1.6888720000000002,-1.372551,0.692768,-0.19553299999999998,0.9804139999999999,0.023196,0.760169,0.48123299999999997,-0.11428699999999999,-0.135475,-0.216376,-0.101901
429,-1.583186,-1.371952,0.7809619999999999,-0.19748,0.980295,0.002447,0.9254290000000001,1.2229379999999999,-0.059604,0.015030000000000002,-0.316309,-0.25913
430,-1.465919,-1.371358,0.8728440000000001,-0.196989,0.9801780000000001,-0.020736,0.893437,1.3355290000000002,0.050055,0.047346,-0.191558,-0.107392
431,-1.3482290000000001,-1.369216,0.969044,-0.195241,0.979751,-0.044186,0.989707,1.1594,0.056294000000000004,0.06882200000000001,-0.148803,-0.042468
432,-1.214725,-1.363869,1.0800969999999999,-0.192531,0.978667,-0.071607,1.303218,1.352228,0.047555,0.127407,-0.048781,-0.201235
433,-1.069742,-1.350738,1.203537,-0.191425,0.975885,-0.10483800000000001,1.54582,1.040994,-0.119131,0.171192,0.135657,-0.055562
434,-0.924752,-1.32459,1.336606,-0.19458599999999998,0.969844,-0.146715,2.308533,0.553476,-0.341778,0.23378600000000002,0.516713,-0.20974600000000002
435,-0.804329,-1.285061,1.468581,-0.203028,0.959455,-0.195483,2.675555,-0.8561469999999999,-0.32779400000000003,0.11745699999999999,0.7414729999999999,-0.004497999999999999
436,-0.712426,-1.245967,1.582491,-0.20860599999999999,0.9477049999999999,-0.24151,2.521049,-0.684507,0.039443,0.141177,0.774219,0.11493800000000001
437,-0.648836,-1.210546,1.6707,-0.212997,0.935809,-0.280862,2.160542,-1.130691,0.043906,0.021941,0.6539590000000001,0.027932
438,-0.602665,-1.1802469999999998,1.743591,-0.215786,0.9247,-0.31361700000000003,1.9742939999999998,-0.985231,0.325498,-0.20881999999999998,0.36089899999999997,0.272892
439,-0.557084,-1.1564379999999999,1.811985,-0.21285500000000002,0.915375,-0.341719,1.563235,-0.9119280000000001,0.465674,-0.328313,0.127289,0.36630100000000004
440,-0.535877,-1.1379700000000001,1.8600560000000002,-0.21415700000000001,0.907784,-0.360632,1.092322,-1.147267,0.31954499999999997,-0.365753,-0.017312,0.302755
441,-0.5252899999999999,-1.1296709999999999,1.885091,-0.214098,0.904272,-0.36938499999999996,0.341591,-0.219581,0.213767,-0.32025,0.043558,0.19371
442,-0.515308,-1.131512,1.89398,-0.20958000000000002,0.905056,-0.370055,-0.15686,0.208265,0.21187399999999998,-0.10139400000000001,0.051014,0.129698
443,-0.511329,-1.1395440000000001,1.8937220000000001,-0.204542,0.908443,-0.364535,-0.444874,0.17641400000000002,0.168242,-0.025744,-0.12829100000000002,0.174486
444,-0.518967,-1.1509610000000001,1.884166,-0.20216199999999998,0.913156,-0.353931,-0.697224,-0.035414,0.080225,-0.017197999999999998,-0.20948200000000003,0.22186599999999998
445,-0.5402899999999999,-1.167233,1.863916,-0.201992,0.919667,-0.336752,-1.026441,-0.202458,0.048229,-0.031865,-0.472127,0.302954
446,-0.576687,-1.1874870000000002,1.831077,-0.20391199999999998,0.9274319999999999,-0.313496,-1.29862,-0.309844,-0.033651,-0.016531999999999998,-0.625644,0.341725
447,-0.628174,-1.2110020000000001,1.778959,-0.20689899999999997,0.935969,-0.284858,-1.621048,-0.030101999999999997,-0.180471,-0.000193,-0.65655,0.316673
448,-0.694695,-1.235115,1.7042979999999999,-0.21086300000000002,0.9441860000000001,-0.253058,-1.811854,0.371552,-0.292346,0.04828,-0.644305,0.22894899999999999
449,-0.775403,-1.257121,1.608643,-0.215977,0.951206,-0.220338,-1.822257,0.49267,-0.46883,0.072499,-0.49127600000000005,0.157869
450,-0.876416,-1.271109,1.497341,-0.226847,0.9554290000000001,-0.188902,-1.597089,0.031570999999999995,-0.7048800000000001,0.130747,-0.16436800000000001,0.133741
451,-0.978709,-1.277131,1.402403,-0.24017199999999997,0.957189,-0.16153499999999998,-1.123393,-0.937167,-0.48241300000000004,0.175123,-0.006673999999999999,0.0427
452,-1.077152,-1.2825540000000002,1.327882,-0.25031,0.9587450000000001,-0.134686,-1.065374,-1.533915,-0.21846,0.20229,0.25854,-0.317325
453,-1.174186,-1.291711,1.259257,-0.25406999999999996,0.9613079999999999,-0.106405,-1.034461,-1.436325,0.12453,0.134929,0.261303,-0.36622
454,-1.240207,-1.3049469999999999,1.207741,-0.248477,0.9648700000000001,-0.085273,-0.775044,-0.300011,0.5158550000000001,0.071368,0.16206800000000002,-0.377923
455,-1.263498,-1.320709,1.175029,-0.23586700000000002,0.968891,-0.074853,-0.59535,0.6320680000000001,0.6355569999999999,-0.030352999999999998,-0.07265,-0.530219
456,-1.282459,-1.337141,1.14534,-0.221946,0.972827,-0.06583,-0.598353,0.262182,0.6968979999999999,-0.037788999999999996,-0.024844,-0.492749
457,-1.327097,-1.3550280000000001,1.103376,-0.20773899999999998,0.9768120000000001,-0.051651999999999997,-0.7262149999999999,-0.33955,0.7704840000000001,-0.06186900000000001,0.029062,-0.35838200000000003
458,-1.3933360000000001,-1.372185,1.040749,-0.194172,0.980341,-0.034824,-0.842542,-0.035949,0.6058439999999999,-0.177151,0.6750689999999999,0.66138
459,-1.451603,-1.384468,0.970759,-0.183896,0.982691,-0.022024000000000002,-0.575708,0.823262,0.49123900000000004,-0.286624,0.46352200000000005,0.52445
460,-1.458623,-1.391165,0.962779,-0.1775,0.9839100000000001,-0.019995,0.062029999999999995,-0.7510479999999999,0.163358,-0.462546,0.39350100000000005,-0.222025
461,-1.4395930000000001,-1.384092,1.008527,-0.18398399999999998,0.982621,-0.024279,0.684106,-0.940091,-0.518922,-0.009772,-0.08381799999999999,0.298662
462,-1.411666,-1.372983,1.025245,-0.194003,0.980499,-0.031135000000000003,-0.195477,1.215402,-0.39964099999999997,0.051317999999999996,-0.06343,0.4542
463,-1.454252,-1.373,0.967476,-0.19513699999999998,0.9805020000000001,-0.022846,-0.645075,0.133942,0.040848,-0.025016999999999998,0.15849000000000002,0.390918
464,-1.522877,-1.376172,0.898965,-0.193135,0.9811200000000001,-0.009262000000000001,-0.65986,0.229609,0.129295,0.43681800000000004,0.761983,-0.023911
465,-1.56244,-1.3816,0.839669,-0.188022,0.9821559999999999,-0.0015710000000000001,-0.563711,1.189271,0.349858,0.486392,0.541572,-0.00026000000000000003
466,-1.5891819999999999,-1.3873739999999999,0.7897310000000001,-0.182321,0.983225,0.0033520000000000004,-0.339212,0.921632,0.21930999999999998,0.12171300000000002,-0.127573,-0.0077930000000000004
467,-1.60764,-1.389615,0.762591,-0.180026,0.9836309999999999,0.0066359999999999995,-0.276163,0.092126,0.07874,-0.11163,-0.24338200000000001,-0.049559
468,-1.666375,-1.3885399999999999,0.709962,-0.180378,0.9834370000000001,0.017293,-0.587212,-0.433463,-0.081924,-0.13808800000000002,-0.30036199999999996,0.028377
469,-1.726315,-1.384081,0.6494800000000001,-0.18335,0.982619,0.028745999999999997,-0.5251979999999999,0.22393600000000002,-0.166723,0.12481700000000001,-0.19377,-0.028518
470,-1.760959,-1.380116,0.607912,-0.18607,0.981876,0.035816,-0.370422,0.311531,-0.095252,0.183903,-0.038272,-0.13939300000000002
471,-1.7950220000000001,-1.377559,0.567275,-0.18719,0.9813879999999999,0.042691,-0.461733,0.249752,-0.017830000000000002,0.127467,0.017178,-0.23775900000000003
472,-1.845838,-1.375917,0.514016,-0.186329,0.9810709999999999,0.052580999999999996,-0.49429700000000004,-0.015774,0.078423,0.03304,-0.098228,-0.126708
473,-1.8669830000000003,-1.375558,0.49124300000000004,-0.185513,0.981001,0.056612,-0.036601,0.142739,0.0013,0.113599,-0.158614,-0.268862
474,-1.833307,-1.375218,0.517,-0.187636,0.980936,0.05042,0.383389,0.646728,-0.124599,0.08997999999999999,-0.148447,-0.340337
475,-1.7658639999999999,-1.374867,0.571148,-0.190946,0.980867,0.037727,0.580701,0.616279,-0.140273,0.06213200000000001,-0.239366,-0.21093
476,-1.6705919999999999,-1.373545,0.6567569999999999,-0.194959,0.9806090000000001,0.019521,0.9192799999999999,0.627109,-0.21162899999999998,0.051328,-0.200244,-0.126607
477,-1.567144,-1.370403,0.743711,-0.199014,0.979988,-0.000727,0.8059569999999999,1.103467,-0.158552,0.109826,-0.086373,-0.24783899999999998
478,-1.4540549999999999,-1.368578,0.833833,-0.199439,0.9796229999999999,-0.023389,1.023324,1.1947709999999998,-0.003327,0.074851,0.036063,-0.333117
479,-1.330673,-1.3654629999999999,0.94119,-0.198008,0.978993,-0.048482,1.074893,0.8577309999999999,0.055149000000000004,-0.019109,-0.120152,-0.06641699999999999
480,-1.2061870000000001,-1.35964,1.0419180000000001,-0.19577999999999998,0.9777889999999999,-0.074724,1.055831,1.566347,0.019925,-0.023229,-0.24806799999999998,-0.081587
481,-1.08948,-1.350151,1.1294549999999999,-0.193964,0.975757,-0.10130499999999999,1.104093,1.514416,-0.08863,0.063486,-0.13806400000000002,-0.068877
482,-0.9620559999999999,-1.3350879999999998,1.234599,-0.191558,0.972349,-0.133524,1.72537,0.9696610000000001,0.00507,0.255629,0.298601,-0.22394299999999998
483,-0.813024,-1.304224,1.381994,-0.191327,0.9646790000000001,-0.18103699999999998,2.628052,0.005777,-0.025845,0.188595,0.589382,-0.29294699999999996
484,-0.690976,-1.265263,1.512744,-0.191685,0.9536870000000001,-0.23179,2.761875,-0.348432,-0.007365000000000001,0.099843,0.712436,0.027536
485,-0.611146,-1.2149299999999998,1.619899,-0.199906,0.9373450000000001,-0.285325,3.133278,-1.4494340000000001,-0.186026,0.19345199999999999,0.781817,0.09842000000000001
486,-0.5687399999999999,-1.1640469999999998,1.703911,-0.213065,0.9184120000000001,-0.333336,2.9096290000000002,-1.901025,-0.013958000000000002,0.23889899999999997,0.738265,0.259773
487,-0.54142,-1.122053,1.780939,-0.223572,0.900993,-0.371777,2.4144930000000002,-2.2364669999999998,0.38466500000000003,0.139817,0.232567,0.45287700000000003
488,-0.5289010000000001,-1.093808,1.841551,-0.23165300000000003,0.888382,-0.396366,1.5433379999999999,-1.75672,0.51363,-0.20210899999999998,-0.19934000000000002,0.2719
489,-0.51579,-1.084359,1.8777869999999999,-0.230566,0.8840040000000001,-0.40665300000000004,0.447859,-0.575554,0.454258,-0.315668,-0.24608000000000002,0.19321300000000002
490,-0.5039140000000001,-1.090769,1.898609,-0.22298,0.886983,-0.40439200000000003,-0.274515,-0.172176,0.63777,-0.155087,-0.061878999999999997,0.23146399999999998
491,-0.48890200000000006,-1.1065459999999998,1.9122720000000002,-0.210285,0.894157,-0.395289,-0.700108,0.340574,0.6523,-0.07763300000000001,-0.237144,0.200846
492,-0.47418699999999997,-1.13022,1.915993,-0.194724,0.9045059999999999,-0.379397,-1.205328,0.621695,0.585386,-0.045906999999999996,-0.32918800000000004,0.214709
493,-0.477947,-1.160038,1.905102,-0.183657,0.916818,-0.354548,-1.526137,0.041887,0.405495,0.13485999999999998,-0.588571,0.34933000000000003
494,-0.510498,-1.191082,1.8764299999999998,-0.1811,0.9287700000000001,-0.323385,-1.6786619999999999,-0.433829,0.156143,0.144479,-0.6509229999999999,0.30072600000000005
495,-0.56155,-1.222854,1.8294810000000001,-0.181554,0.940076,-0.288589,-1.885368,-0.219717,0.071104,0.112508,-0.5585760000000001,0.190826
496,-0.629317,-1.256408,1.757995,-0.182002,0.9509860000000001,-0.249979,-2.113921,0.05014,-0.082526,0.074474,-0.422879,0.113337
497,-0.727807,-1.28674,1.654637,-0.186419,0.9599270000000001,-0.20923000000000003,-2.114096,-0.010601000000000001,-0.343096,0.057740999999999994,-0.201351,0.108125
498,-0.8548950000000001,-1.307728,1.526667,-0.196186,0.9655959999999999,-0.170651,-1.854468,-0.33148299999999997,-0.50965,0.002339,0.014277000000000001,0.054547000000000005
499,-0.9901770000000001,-1.319477,1.398016,-0.207907,0.968585,-0.136398,-1.518926,-0.67147,-0.49298400000000003,-0.057535,0.261884,-0.098221
500,-1.103256,-1.3258370000000002,1.300836,-0.21646500000000002,0.970147,-0.10928800000000001,-0.9876780000000001,-1.111238,-0.202426,-0.002255,0.280265,-0.31837
501,-1.186157,-1.331695,1.240278,-0.21949899999999997,0.971551,-0.088854,-0.7020529999999999,-1.16438,0.051738,0.028947000000000004,0.15350999999999998,-0.44738599999999995
502,-1.24403,-1.3398219999999998,1.197267,-0.21678200000000003,0.9734440000000001,-0.07347100000000001,-0.5637310000000001,-0.51926,0.307182,-0.031768,0.002493,-0.47441099999999997
503,-1.281404,-1.351568,1.158962,-0.2084,0.976066,-0.062051,-0.620738,0.273829,0.491638,-0.153675,-0.200599,-0.28736
504,-1.321321,-1.364796,1.1093309999999998,-0.198178,0.978857,-0.050492,-0.713845,0.43187600000000004,0.47583000000000003,-0.161136,-0.225744,-0.23696799999999998
505,-1.3854,-1.377665,1.0378,-0.188604,0.981408,-0.035373,-0.901265,0.244092,0.44592,-0.14643399999999998,-0.216836,-0.126966
506,-1.4802899999999999,-1.384933,0.930833,-0.183996,0.982777,-0.016697999999999998,-1.160485,0.812224,0.05347999999999999,-0.206934,0.517604,0.678304
507,-1.588752,-1.38509,0.818311,-0.184567,0.982806,0.003314,-0.832249,-0.784338,-0.036185,-0.170398,0.556485,0.224194
508,-1.661068,-1.378427,0.791157,-0.190364,0.981554,0.017231,0.159905,-2.685311,-0.498972,-0.23480700000000002,0.669325,-0.473423
509,-1.594093,-1.370012,0.8748290000000001,-0.19934300000000002,0.9799100000000001,0.004645000000000001,0.781187,0.622821,-0.351457,0.278093,0.185647,0.482782
510,-1.553468,-1.3714389999999999,0.8845940000000001,-0.197967,0.980194,-0.003431,-0.199782,1.608054,0.268543,0.166855,-0.050414999999999995,0.537794
511,-1.5672270000000001,-1.378594,0.855822,-0.190974,0.9815860000000001,-0.000682,-0.35654,0.042326,0.347434,-0.321965,0.019223,-0.08719400000000001
512,-1.627084,-1.382865,0.800664,-0.18648299999999998,0.9823930000000001,0.010508,-0.538978,-0.163936,0.139189,0.026861000000000003,0.503966,0.07230199999999999
513,-1.6659979999999999,-1.382699,0.755826,-0.186095,0.9823620000000001,0.017769999999999998,-0.375665,0.430463,0.003904,0.245741,0.591888,0.090064
514,-1.7081979999999999,-1.3840620000000001,0.702925,-0.183851,0.9826159999999999,0.025422,-0.564873,0.5506840000000001,0.206459,0.375242,0.128224,-0.08162
515,-1.753441,-1.3874799999999998,0.6483949999999999,-0.17920899999999998,0.983245,0.033101,-0.374249,0.261209,0.258382,0.141184,-0.219527,-0.18020999999999998
516,-1.779168,-1.3904729999999998,0.622023,-0.17541700000000002,0.983786,0.03709,-0.121352,-0.090713,0.13455,0.021151,-0.420813,-0.191296
517,-1.7788099999999998,-1.39173,0.623372,-0.17422,0.98401,0.036772000000000006,0.12403299999999999,0.02822,0.016471,0.022059,-0.43315299999999995,-0.277129
518,-1.7580930000000001,-1.390662,0.642169,-0.175976,0.98382,0.033351,0.143421,0.14385699999999998,-0.14698,0.059582,-0.257715,-0.398997
519,-1.729181,-1.3878780000000002,0.664289,-0.179573,0.983317,0.028682,0.199797,0.557083,-0.17061700000000002,0.11933099999999999,-0.193476,-0.251323
520,-1.677399,-1.386833,0.696814,-0.181838,0.9831270000000001,0.019458,0.380427,1.2483030000000002,-0.024963,-0.09871,-0.197863,-0.315341
521,-1.582384,-1.387628,0.7664270000000001,-0.182085,0.9832709999999999,0.0021100000000000003,0.781193,1.172298,-0.013519999999999999,-0.13914300000000002,-0.24485300000000002,-0.264744
522,-1.465984,-1.386148,0.8666659999999999,-0.182546,0.983001,-0.019203,0.954941,0.8968659999999999,-0.016225999999999997,0.091222,-0.141845,-0.236
523,-1.331128,-1.383828,0.9753280000000001,-0.18052200000000002,0.9825719999999999,-0.044113,1.0506719999999998,1.6938240000000002,0.13404000000000002,0.144725,-0.129698,-0.201492
524,-1.17993,-1.379409,1.0918510000000001,-0.175834,0.981741,-0.07245599999999999,1.166718,1.867097,0.12501500000000002,0.028373000000000002,-0.13706,-0.251198
525,-1.016218,-1.368736,1.224615,-0.170576,0.9796549999999999,-0.10565899999999999,1.524832,1.514449,0.091649,0.002668,0.056737,-0.045175
526,-0.8508020000000001,-1.344837,1.371158,-0.16841099999999998,0.9745799999999999,-0.147706,2.290595,0.753155,-0.133831,0.080719,0.47807200000000005,-0.194685
527,-0.715611,-1.3021690000000001,1.516621,-0.174111,0.9641360000000001,-0.200281,2.940555,-0.800495,-0.31103400000000003,0.21872800000000003,0.8256889999999999,-0.048589
528,-0.6233310000000001,-1.250781,1.632208,-0.183622,0.9492309999999999,-0.25540300000000005,3.134161,-1.129415,-0.275077,0.246961,1.025699,0.071916
529,-0.575303,-1.19764,1.7224389999999998,-0.19834100000000002,0.9311809999999999,-0.305858,2.951015,-2.126319,-0.165052,0.186501,0.9469620000000001,0.292476
530,-0.545079,-1.150284,1.802302,-0.211653,0.9128799999999999,-0.349058,2.683511,-2.152504,0.220877,-0.067888,0.436241,0.5736060000000001
531,-0.514081,-1.115636,1.876396,-0.21616300000000002,0.898191,-0.382773,2.059413,-1.5933899999999999,0.5341319999999999,-0.291131,-0.148893,0.35794699999999996
532,-0.495384,-1.091543,1.9252740000000002,-0.21919499999999997,0.887339,-0.405674,1.219609,-0.9205,0.288121,-0.340146,-0.361964,0.298847
533,-0.479684,-1.08443,1.9490439999999998,-0.215707,0.8840370000000001,-0.414654,0.231248,0.004131,0.352672,-0.257712,-0.336048,0.373364
534,-0.463794,-1.090294,1.9606400000000002,-0.20676799999999998,0.886763,-0.413386,-0.316317,0.457578,0.38458600000000004,-0.177005,-0.289046,0.362086
535,-0.444151,-1.104562,1.966425,-0.193152,0.893267,-0.4059,-0.755479,0.867835,0.46751800000000004,0.00109,-0.30141,0.288072
536,-0.428511,-1.127524,1.9658669999999998,-0.17820899999999998,0.9033530000000001,-0.390108,-1.205596,0.646794,0.45718000000000003,0.014421000000000002,-0.460574,0.363847
537,-0.43768,-1.156751,1.951705,-0.170511,0.915501,-0.36438000000000004,-1.590809,-0.04985,0.247079,0.014185,-0.568211,0.366181
538,-0.47621899999999995,-1.188917,1.912667,-0.17083099999999998,0.927966,-0.33118600000000004,-1.873377,-0.10400899999999999,-0.08277000000000001,0.036782,-0.724276,0.282236
539,-0.536309,-1.223956,1.8446470000000001,-0.173682,0.940451,-0.292186,-2.293844,0.362804,-0.306359,0.09790700000000001,-0.657233,0.12495
540,-0.631586,-1.2580040000000001,1.734692,-0.181671,0.951478,-0.248338,-2.380399,0.398838,-0.7172069999999999,0.16026300000000002,-0.490266,0.034822000000000006
541,-0.77231,-1.2812569999999999,1.5847959999999999,-0.19921,0.958376,-0.204494,-2.284068,-0.10296400000000001,-1.052381,0.158301,-0.049776,-0.032582
542,-0.938981,-1.293161,1.426046,-0.22115100000000001,0.961706,-0.16186,-1.8143759999999998,-1.11071,-0.928168,0.107367,0.622416,-0.117086
543,-1.0599530000000001,-1.2941340000000001,1.333836,-0.23825,0.9619719999999999,-0.13353099999999998,-0.657941,-1.8219349999999999,-0.427796,0.13153,0.69118,-0.497771
544,-1.128599,-1.297916,1.299186,-0.24355700000000002,0.9629989999999999,-0.115316,-0.573117,-1.590231,0.162158,0.12363800000000001,0.230086,-0.6569159999999999
545,-1.1820959999999998,-1.3128819999999999,1.258421,-0.236008,0.966924,-0.09665399999999999,-0.8999590000000001,-0.010140999999999999,0.639618,1.6e-05,-0.102621,-0.583324
546,-1.2143899999999999,-1.336367,1.202261,-0.21765700000000002,0.9726469999999999,-0.081035,-1.1618979999999999,1.549298,0.8975040000000001,-0.246027,0.132181,-0.500005
547,-1.266635,-1.35717,1.12914,-0.202237,0.977269,-0.063483,-1.00166,0.527506,0.54101,-0.37953400000000004,0.455837,0.447974
548,-1.323383,-1.365278,1.0635649999999999,-0.197821,0.9789549999999999,-0.049967000000000004,-0.6127130000000001,0.26462199999999997,0.144549,-0.18093299999999998,0.302035,0.847147
549,-1.327823,-1.370026,1.068347,-0.193528,0.9799129999999999,-0.04797,0.357939,-0.9564299999999999,0.163576,-0.146179,0.50051,-0.72768
550,-1.247919,-1.361669,1.162426,-0.19684200000000002,0.9782120000000001,-0.065861,1.375304,0.129588,-0.310341,-0.049999,0.126814,-0.5859489999999999
551,-1.175836,-1.351316,1.212957,-0.200926,0.9760110000000001,-0.083759,0.032751999999999996,1.352435,-0.189894,-0.168947,-0.07072200000000001,0.650409
552,-1.2212459999999998,-1.355773,1.165337,-0.200432,0.9769709999999999,-0.073061,-0.67132,-1.008831,0.041086000000000004,-0.356194,0.364002,0.476321
553,-1.307901,-1.356647,1.108057,-0.20517800000000003,0.977158,-0.055217999999999996,-0.437145,-1.18424,-0.25188299999999997,-0.232947,0.7967529999999999,0.020215
554,-1.314632,-1.356226,1.091386,-0.20594400000000002,0.977068,-0.053939999999999995,-0.23596999999999999,1.090686,0.23158,0.710674,0.11685,0.027772
555,-1.314063,-1.367759,1.077315,-0.194998,0.979459,-0.051192,-0.169327,0.343435,0.563084,0.389868,-0.077115,-0.090196
556,-1.30918,-1.3756190000000001,1.090193,-0.187301,0.9810129999999999,-0.05015,0.03887,-0.8407950000000001,0.293659,-0.091279,-0.326808,-0.097631
557,-1.329748,-1.3773030000000002,1.092247,-0.186687,0.981339,-0.045893,0.008520999999999999,-1.035387,-0.034248,-0.179997,-0.273422,0.044900999999999996
558,-1.347108,-1.3730870000000002,1.081497,-0.191487,0.980519,-0.043562000000000003,-0.156194,0.017738,-0.315554,-0.13145,-0.23189200000000001,-0.12286500000000002
559,-1.3673680000000001,-1.368482,1.056602,-0.196752,0.9796040000000001,-0.040586000000000004,-0.13508499999999998,0.299578,-0.21962800000000002,-0.088786,-0.078206,-0.35402100000000003
560,-1.354545,-1.3662040000000002,1.054511,-0.19839500000000002,0.979144,-0.043585000000000006,0.052435,1.0994329999999999,-0.07406499999999999,-0.06605499999999999,-0.103183,-0.198923
561,-1.313338,-1.365261,1.0682450000000001,-0.197324,0.978952,-0.051955999999999995,0.230584,1.427597,0.022899,-0.033847,-0.177835,-0.126664
562,-1.249115,-1.363767,1.105904,-0.194971,0.9786459999999999,-0.064975,0.437526,1.431092,0.035022000000000005,0.077097,-0.145989,-0.272748
563,-1.175729,-1.36329,1.146126,-0.190114,0.978548,-0.079276,0.334374,1.85392,0.145923,0.061559,-0.22635,-0.10245599999999999
564,-1.104529,-1.361214,1.1843290000000002,-0.185807,0.978118,-0.093513,0.509088,1.437281,0.023763999999999997,0.010881,-0.200286,-0.019127
565,-1.034254,-1.353923,1.232861,-0.18491,0.976575,-0.109973,0.6691630000000001,1.069764,-0.115652,0.139454,-0.11369000000000001,-0.012051000000000001
566,-0.968562,-1.342027,1.278469,-0.186854,0.9739459999999999,-0.128448,0.8045439999999999,1.079677,-0.294168,0.276866,0.08196200000000001,-0.119996
567,-0.89636,-1.324135,1.33395,-0.190685,0.969733,-0.152453,1.314099,0.761465,-0.279518,0.349758,0.43636400000000003,-0.178541
568,-0.776877,-1.295894,1.4467780000000001,-0.19028499999999998,0.9624520000000001,-0.193556,2.45407,0.24064899999999997,0.037828,0.207909,0.782803,-0.39728
569,-0.661533,-1.2530430000000001,1.577754,-0.191923,0.94994,-0.246509,3.077299,-0.9809770000000001,-0.031029,-0.10257100000000001,0.9305540000000001,0.053013
570,-0.5975659999999999,-1.195913,1.683975,-0.206006,0.93055,-0.302696,3.43601,-2.150801,-0.303694,-0.092288,0.754676,0.32975
571,-0.570813,-1.141014,1.76046,-0.22512800000000002,0.909056,-0.350603,2.781549,-2.069362,-0.122499,-0.101227,0.294862,0.748873
572,-0.5478430000000001,-1.111373,1.82055,-0.23095300000000002,0.896309,-0.37852399999999997,1.410988,-1.03625,0.583381,-0.242207,-0.141441,0.376952
573,-0.521243,-1.103221,1.861706,-0.224435,0.8926639999999999,-0.390857,0.583703,-0.312729,0.451693,-0.156668,-0.373224,0.29039299999999996
574,-0.5114489999999999,-1.101717,1.8735240000000002,-0.221254,0.891985,-0.39420700000000003,-0.06287100000000001,0.050956,0.10701600000000001,-0.038298,-0.213335,0.364223
575,-0.511362,-1.111445,1.8680279999999998,-0.216962,0.8963399999999999,-0.38664,-0.697412,0.400229,0.158752,-0.060153,-0.259881,0.3038
576,-0.511798,-1.131023,1.8543990000000001,-0.20849499999999999,0.904848,-0.37117,-1.1809479999999999,0.6816939999999999,0.25329,-0.05421599999999999,-0.45425600000000005,0.319153
577,-0.519221,-1.160831,1.830819,-0.197768,0.917135,-0.346033,-1.746922,0.649241,0.334836,0.0997,-0.6507310000000001,0.37768
578,-0.545425,-1.198825,1.794012,-0.18854300000000002,0.9316129999999999,-0.310702,-2.098842,0.235965,0.360681,0.20416800000000002,-0.664935,0.369922
579,-0.594639,-1.236589,1.7419529999999999,-0.183748,0.9446700000000001,-0.271698,-2.0367319999999998,-0.157568,0.152248,0.203829,-0.613951,0.305558
580,-0.674122,-1.268139,1.663646,-0.18603499999999998,0.954548,-0.232839,-1.968963,-0.352533,-0.167495,0.047943,-0.341206,0.082403
581,-0.782424,-1.2923440000000002,1.560409,-0.193761,0.961482,-0.194918,-1.817229,-0.49078,-0.358538,0.036169,-0.113398,0.033402999999999995
582,-0.8986719999999999,-1.307858,1.448475,-0.203361,0.9656299999999999,-0.16181800000000002,-1.50368,-0.37431,-0.452637,0.034720999999999995,0.010627,-0.025727999999999997
583,-1.0041120000000001,-1.3145850000000001,1.348749,-0.21377600000000002,0.967357,-0.136026,-1.054135,-0.530325,-0.454639,0.051071,0.280736,-0.346061
584,-1.08185,-1.318362,1.2830190000000001,-0.220466,0.9683069999999999,-0.117296,-0.746478,-0.8086979999999999,-0.10496099999999998,0.098365,0.224838,-0.630522
585,-1.1637030000000002,-1.328597,1.2150590000000001,-0.220202,0.9708129999999999,-0.094947,-1.1100780000000001,-0.685125,0.209603,0.184024,-0.077609,-0.49504899999999996
586,-1.246052,-1.342567,1.136501,-0.214389,0.9740690000000001,-0.072177,-1.029242,-0.102293,0.373927,0.12752,-0.154092,-0.287625
587,-1.306348,-1.356006,1.077328,-0.20569099999999998,0.9770209999999999,-0.055699,-0.726116,-0.20709899999999998,0.479796,-0.22202800000000003,0.23673899999999998,-0.07122300000000001
588,-1.377319,-1.366581,1.0208760000000001,-0.19897,0.9792200000000001,-0.038984,-0.667387,-1.098175,0.289068,-0.45728,0.9426389999999999,0.41438100000000005
589,-1.440007,-1.371319,0.9657979999999999,-0.196417,0.9801700000000001,-0.025837,-0.514571,0.008662000000000001,0.153053,-0.174219,0.634622,-0.12336400000000002
590,-1.460507,-1.376855,0.939263,-0.19150799999999998,0.981252,-0.021207,-0.085451,0.391352,0.24956399999999998,0.068263,0.328226,-0.696749
591,-1.394925,-1.378066,0.9901770000000001,-0.18853599999999998,0.981485,-0.033504,0.667652,1.0682969999999998,0.006129,-0.213655,0.210486,0.171047
592,-1.3431110000000002,-1.374203,1.02451,-0.19024100000000002,0.9807379999999999,-0.044079,0.11827599999999999,0.47632399999999997,-0.130477,-0.323873,0.073034,0.40974099999999997
593,-1.380493,-1.369579,1.001233,-0.196207,0.979824,-0.037795999999999996,-0.319222,-1.2350889999999999,-0.404805,-0.002691,0.45892700000000003,0.199799
594,-1.447619,-1.3626340000000001,0.946623,-0.20505,0.9784120000000001,-0.025386000000000002,-0.586233,-0.062556,-0.35583000000000004,0.292437,0.599438,0.16685
595,-1.500393,-1.360906,0.8833979999999999,-0.20778899999999997,0.9780540000000001,-0.014653,-0.680451,0.477417,0.022039,0.5067689999999999,0.562763,0.139424
596,-1.5440209999999999,-1.365648,0.832227,-0.20359000000000002,0.979031,-0.005452,-0.39555,0.263421,0.276404,0.311301,-0.158367,-0.196971
597,-1.560727,-1.3714620000000002,0.81234,-0.197957,0.9801989999999999,-0.001993,-0.13830399999999998,0.053730999999999994,0.277401,0.215398,-0.348576,-0.17044600000000001
598,-1.572922,-1.376414,0.800682,-0.193108,0.981167,0.000411,-0.09919,-0.081474,0.2223,0.12194100000000001,-0.479184,-0.113219
599,-1.5860940000000001,-1.378026,0.7928569999999999,-0.191503,0.981477,0.00293,-0.047398,-0.436462,-0.025779000000000003,-0.282481,-0.139345,-0.146149
600,-1.592982,-1.37345,0.794651,-0.195967,0.98059,0.0043479999999999994,0.020962,-0.261781,-0.34492399999999995,-0.26966999999999997,0.009003,-0.160369
601,-1.593451,-1.364958,0.790028,-0.204285,0.9788899999999999,0.004629,-0.092912,0.42076499999999994,-0.438461,0.11628800000000002,-0.20732899999999999,-0.22694899999999998
602,-1.582993,-1.358682,0.78572,-0.21046399999999998,0.9775879999999999,0.0025670000000000003,0.0034,0.959572,-0.200265,0.292724,-0.373264,-0.057072000000000005
603,-1.545911,-1.356652,0.798459,-0.21239899999999998,0.977159,-0.005287,0.216525,1.2757379999999998,-0.06351699999999999,0.288326,-0.390229,-0.027062
604,-1.504744,-1.355082,0.8213299999999999,-0.213533,0.976824,-0.014125,0.260874,0.688655,-0.073137,0.300356,-0.21019200000000002,-0.055821
605,-1.461257,-1.35433,0.854266,-0.21344699999999997,0.976663,-0.023475,0.404941,0.5843189999999999,0.052984,0.289634,-0.06611,-0.217217
606,-1.405298,-1.354694,0.90066,-0.21145,0.976741,-0.035318,0.5173479999999999,0.47934099999999996,0.100906,0.24372199999999997,-0.033686,-0.302359
607,-1.344537,-1.354236,0.955441,-0.209351,0.976642,-0.048193,0.6276689999999999,0.31924,0.08265399999999999,0.095474,-0.024845,-0.225397
608,-1.25973,-1.349905,1.033607,-0.20854299999999998,0.9757030000000001,-0.06704700000000001,1.072749,0.48645200000000005,-0.027683,0.044633,0.068334,-0.36496
609,-1.130586,-1.337512,1.1550989999999999,-0.209098,0.9729120000000001,-0.098493,1.807551,0.584333,-0.100656,-0.02427,0.447483,-0.445467
610,-0.9700110000000001,-1.3116379999999999,1.3159379999999998,-0.211364,0.966606,-0.144846,2.5815810000000003,-0.074311,-0.162772,-0.080933,0.604256,-0.212637
611,-0.830575,-1.2732290000000002,1.468068,-0.21645100000000003,0.956053,-0.19772699999999999,2.975088,-0.424795,-0.235418,-0.039012,0.675615,0.046375
612,-0.729594,-1.225984,1.589213,-0.225298,0.941139,-0.251959,2.913738,-0.880123,-0.33460700000000004,0.218203,0.6333850000000001,0.190802
613,-0.678272,-1.183147,1.6743720000000002,-0.23717199999999997,0.9258,-0.29432800000000003,2.398658,-1.713657,-0.032694,0.256718,0.448528,0.480821
614,-0.642684,-1.157398,1.7507439999999999,-0.240761,0.915761,-0.321561,1.715598,-1.659302,0.552124,-0.008461,0.250529,0.393751
615,-0.613822,-1.1406450000000001,1.819464,-0.240186,0.9089020000000001,-0.340871,1.363107,-1.640414,0.6628689999999999,-0.277225,0.00044500000000000003,0.24706
616,-0.597742,-1.1307770000000001,1.863535,-0.23970999999999998,0.9047430000000001,-0.352086,0.679621,-0.911341,0.350581,-0.383795,-0.089741,0.280538
617,-0.5917319999999999,-1.1283729999999998,1.879091,-0.238802,0.903717,-0.355325,0.059994000000000006,-0.128525,0.149773,-0.21655,-0.128967,0.320764
618,-0.589309,-1.134583,1.878005,-0.234816,0.906358,-0.351229,-0.45785200000000004,0.279059,0.170202,-0.087297,-0.124055,0.330706
619,-0.5958060000000001,-1.14971,1.866214,-0.229372,0.912646,-0.338308,-0.9476110000000001,0.12485,0.264187,-0.010114,-0.231264,0.392843
620,-0.61759,-1.173136,1.845446,-0.224242,0.9219700000000001,-0.315711,-1.307445,-0.33123600000000003,0.346648,0.0493,-0.367374,0.37045900000000004
621,-0.6598229999999999,-1.199358,1.8124790000000002,-0.222471,0.9318059999999999,-0.286756,-1.494134,-0.679534,0.230422,0.042631,-0.534879,0.30029
622,-0.721614,-1.2273020000000001,1.758864,-0.22246,0.941584,-0.252817,-1.7819209999999999,-0.47044300000000006,0.139482,0.09714,-0.6390020000000001,0.22532
623,-0.802018,-1.256653,1.67701,-0.222079,0.951061,-0.21481799999999998,-2.073331,0.052122,-0.019184,0.11320799999999999,-0.598217,0.154378
624,-0.9108229999999999,-1.280865,1.560648,-0.225829,0.9582629999999999,-0.175257,-2.08546,0.109951,-0.350492,0.09060599999999999,-0.53059,0.134974
625,-1.0426540000000002,-1.295279,1.423092,-0.234948,0.9622850000000001,-0.137075,-1.8863450000000002,-0.11071900000000001,-0.483414,-0.008323,-0.166798,0.12390599999999999
626,-1.168814,-1.302801,1.303226,-0.24365900000000001,0.964304,-0.10358699999999998,-1.447164,-0.7775029999999999,-0.35130500000000003,0.023734,0.00788,0.022959999999999998
627,-1.286715,-1.305175,1.204431,-0.251952,0.96493,-0.07356499999999999,-1.178851,-1.332545,-0.309196,0.044799,0.075934,-0.090391
628,-1.4034950000000002,-1.306474,1.116111,-0.257569,0.9652700000000001,-0.043498,-1.139467,-1.622199,-0.102382,0.04448,0.16877899999999998,-0.498464
629,-1.501603,-1.31093,1.036716,-0.256296,0.966424,-0.017762,-0.92705,-0.558982,0.227819,-0.099402,0.079566,-0.66252
630,-1.545195,-1.318573,0.9822110000000001,-0.24943200000000001,0.96836,-0.0063869999999999994,-0.629646,0.990287,0.412714,-0.306842,-0.027457,-0.544333
631,-1.5731870000000001,-1.328961,0.920954,-0.23943899999999999,0.9709,0.000572,-0.8698229999999999,1.8150810000000002,0.553121,-0.346269,-0.102736,-0.478645
632,-1.620908,-1.338357,0.8330879999999999,-0.230015,0.9731069999999999,0.011536,-1.078487,1.7780080000000003,0.414979,-0.24026,0.390571,0.10241700000000001
633,-1.7004869999999999,-1.339518,0.7291270000000001,-0.22725,0.973374,0.029639,-1.2387190000000001,0.609488,-0.000182,-0.147445,0.585845,0.36857
634,-1.8023069999999999,-1.3297299999999999,0.6290100000000001,-0.23232399999999997,0.9710840000000001,0.054766999999999996,-1.1902270000000001,-0.8602559999999999,-0.392133,0.045862,0.59015,0.420285
635,-1.870168,-1.3164930000000001,0.592527,-0.240339,0.9678389999999999,0.07418,-0.101373,-1.6504150000000002,-0.605705,0.364667,0.43029399999999995,-0.5116649999999999
636,-1.831734,-1.310856,0.6368590000000001,-0.24828000000000003,0.966405,0.06629700000000001,0.5366489999999999,0.80051,-0.2914,0.290089,0.417155,-0.42111000000000004
637,-1.7822619999999998,-1.308822,0.662211,-0.253176,0.965881,0.054351,0.210827,1.182057,-0.053814999999999995,0.22342199999999998,0.179871,-0.026732
638,-1.764937,-1.311865,0.6651130000000001,-0.25119400000000003,0.966664,0.049388999999999995,-0.085642,0.261732,0.184575,-0.390728,0.503734,-0.10122300000000001
639,-1.808124,-1.311626,0.6350020000000001,-0.249052,0.9666030000000001,0.060242,-0.569553,-1.027937,-0.023319,-0.41690200000000005,0.878765,-0.22177199999999997
640,-1.8606099999999999,-1.303928,0.586687,-0.252672,0.964601,0.075349,-0.679415,0.375413,-0.289736,-0.048124,0.891157,-0.291948
641,-1.878687,-1.295975,0.550316,-0.25857199999999997,0.9624739999999999,0.082227,-0.53185,0.799491,-0.176017,0.331784,-0.032679,0.08594
642,-1.899716,-1.291402,0.5217729999999999,-0.260949,0.9612229999999999,0.089067,-0.400443,0.003879,-0.060848,0.201287,-0.10648599999999998,0.010527
643,-1.933401,-1.285823,0.497043,-0.262812,0.9596690000000001,0.099705,-0.43479799999999996,-0.686688,-0.23005,-0.002905,-0.146589,-0.037327
644,-1.956439,-1.276434,0.481292,-0.268784,0.956987,0.109118,-0.33871599999999996,-0.139816,-0.409541,0.072556,-0.06805599999999999,-0.187411
645,-1.9632310000000002,-1.266238,0.474613,-0.27704,0.9539790000000001,0.114668,-0.26348499999999997,-0.05789,-0.44971300000000003,0.10192999999999999,-0.07560700000000001,-0.22064
646,-1.9685110000000001,-1.25544,0.47226599999999996,-0.285912,0.950686,0.12011199999999998,-0.225423,-0.193078,-0.508026,0.093331,-0.242877,-0.262751
647,-1.97069,-1.2429709999999998,0.47336300000000003,-0.296547,0.9467450000000001,0.125341,-0.23494600000000002,-0.06894600000000001,-0.6396430000000001,0.13994600000000001,-0.235868,-0.055913
648,-1.966131,-1.227048,0.475671,-0.31099,0.941498,0.129778,-0.289644,0.173739,-0.8091149999999999,0.180924,-0.17871099999999998,0.0016309999999999999
649,-1.9614790000000002,-1.208892,0.47916400000000003,-0.327345,0.9352239999999999,0.134818,-0.29971,0.006781999999999999,-0.873065,0.23098600000000002,-0.118894,-0.047369999999999995
650,-1.9547759999999998,-1.1908370000000001,0.48301099999999997,-0.343844,0.92868,0.138925,-0.250427,0.30695100000000003,-0.8560139999999999,0.362994,-0.032699,-0.290719
651,-1.942611,-1.173318,0.48854200000000003,-0.360614,0.92204,0.140622,-0.208958,0.279096,-0.852484,0.392703,0.0010710000000000001,-0.145337
652,-1.930697,-1.15703,0.50038,-0.376271,0.9156129999999999,0.141587,0.054104,-0.044663999999999995,-0.835276,0.4614,0.156851,-0.287735
653,-1.907859,-1.142374,0.524968,-0.39203000000000005,0.9096219999999999,0.137381,0.289672,0.114429,-0.8648129999999999,0.452867,0.199142,-0.621787
654,-1.873805,-1.129114,0.561333,-0.407958,0.904034,0.12754200000000002,0.6810930000000001,-0.165978,-0.877743,0.301528,0.100879,-0.530695
655,-1.8432119999999999,-1.115465,0.609651,-0.42351400000000006,0.898115,0.11831300000000002,0.851591,-0.7946489999999999,-0.9857739999999999,0.302131,0.043077,-0.23267800000000002
656,-1.8151549999999999,-1.099974,0.6612,-0.440115,0.8911959999999999,0.109739,0.9846219999999999,-0.985325,-1.103173,0.30675399999999997,0.000925,-0.23882899999999999
657,-1.779198,-1.082973,0.720841,-0.45853599999999994,0.8833549999999999,0.096968,1.292799,-0.782929,-1.1023479999999999,0.29485500000000003,0.086463,-0.279493
658,-1.725932,-1.072449,0.798277,-0.472209,0.878374,0.07385,2.011225,-0.7042039999999999,-0.633822,0.388164,0.674986,-0.188383
659,-1.651837,-1.0757729999999999,0.904042,-0.473469,0.879958,0.038455,2.780278,-1.097995,0.20633600000000002,0.442524,0.7499100000000001,0.046383999999999995
660,-1.5660610000000001,-1.092493,1.02801,-0.46024499999999996,0.887777,-0.002179,2.941941,-1.166584,0.967059,0.333475,0.628901,0.475095
661,-1.472826,-1.114632,1.154965,-0.43837,0.897749,-0.043085000000000005,2.678994,-0.8456870000000001,1.398509,0.133698,0.619478,0.433771
662,-1.372523,-1.138965,1.276031,-0.41031000000000006,0.908201,-0.082437,2.209841,-0.273099,1.671168,-0.016387,1.029955,-0.034658999999999995
663,-1.267741,-1.162059,1.399303,-0.379315,0.917623,-0.11860699999999999,2.182534,-0.5726640000000001,1.750409,0.016644,1.278528,-0.088409
664,-1.16195,-1.179518,1.523226,-0.34991500000000003,0.924422,-0.151604,1.7148880000000002,-0.32011100000000003,1.602609,0.272309,0.563401,0.299203
665,-1.080382,-1.202396,1.6292309999999999,-0.317656,0.9329040000000001,-0.169603,1.07297,-1.159354,2.109811,0.34052899999999997,0.40137,0.388673
666,-1.006213,-1.230073,1.7443810000000002,-0.28228600000000004,0.9425129999999999,-0.178787,1.093265,-2.0396,2.174106,0.35241500000000003,0.31247600000000003,0.567321
667,-0.933266,-1.24545,1.883095,-0.256826,0.9475399999999999,-0.190235,1.6378620000000002,-3.588518,1.704536,0.42914399999999997,0.150833,0.6299170000000001
668,-0.871447,-1.243467,2.04346,-0.24602100000000002,0.9469040000000001,-0.206947,2.2228209999999997,-4.761203,1.4366700000000001,0.290928,0.041041,0.592201
669,-0.825399,-1.237477,2.193306,-0.24039899999999997,0.944961,-0.22189699999999998,1.8834060000000001,-4.86307,1.3649959999999999,0.040387,-0.153824,0.6192810000000001
670,-0.797661,-1.231085,2.33114,-0.23847100000000002,0.942851,-0.23269299999999998,1.843016,-5.1067160000000005,1.324433,-0.13749,-0.50326,0.632885
671,-0.776683,-1.227583,2.451768,-0.23585100000000003,0.941678,-0.239999,1.337752,-4.353705000000001,1.264392,-0.2215,-0.6949890000000001,0.5544359999999999
672,-0.7646,-1.22995,2.54889,-0.23139099999999999,0.942472,-0.241222,0.8679309999999999,-3.7246339999999996,1.2656450000000001,-0.140099,-0.763502,0.46306899999999995
673,-0.761692,-1.240418,2.624861,-0.22386599999999998,0.9459200000000001,-0.23474,0.24897800000000003,-3.3313330000000003,1.2159520000000001,-0.08224,-0.617306,0.37435799999999997
674,-0.786094,-1.256155,2.6706689999999997,-0.21896500000000002,0.950908,-0.21866,-0.197496,-3.433267,0.987569,-0.12858499999999998,-0.390544,0.347292
675,-0.821515,-1.274186,2.697543,-0.213979,0.956333,-0.19905499999999998,-0.396331,-2.645039,0.912531,-0.211848,-0.105808,-0.002803
676,-0.838435,-1.292295,2.718346,-0.204403,0.961468,-0.18379500000000001,-0.317152,-1.5029540000000001,0.816549,-0.324391,0.188876,-0.507383
677,-0.827679,-1.2978020000000001,2.763664,-0.198511,0.962968,-0.182397,0.783922,-1.8611119999999999,0.45188999999999996,-0.30031399999999997,0.507888,-0.927314
678,-0.78194,-1.277405,2.85203,-0.203766,0.957269,-0.20518000000000003,1.825237,-1.849004,-0.015143,-0.28367600000000004,0.734794,-0.8632549999999999
679,-0.722474,-1.255811,2.9426759999999996,-0.204837,0.950801,-0.23238499999999998,1.647444,-1.240094,0.511605,0.23595,0.44041899999999995,-0.5236270000000001
680,-0.674561,-1.241342,3.031933,-0.202045,0.946219,-0.25264899999999996,1.3205639999999998,-2.172574,0.619475,0.23193699999999998,-0.290534,-0.086234
681,-0.641189,-1.233935,3.104003,-0.19769,0.9437969999999999,-0.26486,0.838181,-1.338471,0.773134,0.099957,-0.49550900000000003,-0.211932
682,-0.618052,-1.23732,-3.129338,-0.189657,0.94491,-0.266757,-0.12102,-0.9683120000000001,0.678365,0.317266,0.190435,0.267673
683,-0.652403,-1.25658,3.1141099999999997,-0.187621,0.951039,-0.245575,-1.415331,0.921074,-0.49211800000000006,-0.026842,0.947627,1.165345
684,-0.6683279999999999,-1.23869,3.045564,-0.20202,0.945358,-0.255872,1.1669200000000002,2.835691,-1.742377,-0.80416,0.791718,0.669309
685,-0.668482,-1.199055,3.03,-0.22512,0.9316959999999999,-0.28504,0.765109,-0.8941530000000001,-1.050333,-0.62954,-0.45142600000000005,0.401296
686,-0.76402,-1.208901,2.970493,-0.244925,0.935227,-0.255628,-1.9629759999999998,-1.966076,-0.220915,0.11066300000000001,-0.8456739999999999,0.743268
687,-0.912544,-1.242074,2.830907,-0.255361,0.946456,-0.197472,-3.271426,0.030607,-0.507146,0.22365300000000002,-0.36967300000000003,0.833199
688,-1.095193,-1.27249,2.6164110000000003,-0.261256,0.955836,-0.13455599999999998,-3.642758,1.553734,-0.397392,0.31428,0.203573,0.88094
689,-1.225763,-1.285721,2.4273860000000003,-0.264623,0.9596399999999999,-0.095108,-2.03608,2.780337,-0.5757479999999999,0.49779300000000004,0.604233,0.340439
690,-1.256556,-1.277357,2.357069,-0.27505,0.957255,-0.089394,-0.230048,1.162866,-0.713816,0.44089799999999996,0.625753,-0.062645
691,-1.276413,-1.2696049999999999,2.3429,-0.28386500000000003,0.954984,-0.086066,-0.287574,-1.231295,-0.276383,0.415426,0.5932029999999999,-0.32129800000000003
692,-1.386179,-1.275823,2.2721150000000003,-0.28574099999999997,0.95681,-0.053360000000000005,-1.4768139999999998,-2.265882,0.272111,-0.120799,-0.134819,0.246171
693,-1.521922,-1.287574,2.15777,-0.27908,0.96016,-0.013651,-1.717284,-0.555847,0.41351800000000005,-0.221759,-0.167985,0.17927
694,-1.622217,-1.290751,2.058249,-0.275995,0.961043,0.014204,-1.12352,-0.399525,-0.032256,-0.235434,-0.159331,0.043230000000000005
695,-1.701473,-1.282371,1.9990240000000001,-0.28198,0.958693,0.03706,-0.823076,-1.443691,-0.50952,0.129423,-0.096053,-0.066372
696,-1.7839169999999998,-1.267069,1.943271,-0.29227600000000004,0.9542280000000001,0.063251,-0.9968629999999999,-1.283942,-0.614556,0.289483,-0.084813,-0.09386
697,-1.852654,-1.251745,1.885473,-0.301253,0.949533,0.087233,-1.070062,-0.324496,-0.459268,0.287367,-0.051569000000000004,-0.056577999999999996
698,-1.9113240000000002,-1.238422,1.826741,-0.307519,0.94527,0.108963,-1.091677,-0.219629,-0.291842,0.137597,-0.023944999999999998,0.024413999999999998
699,-1.96945,-1.225272,1.777334,-0.31209899999999996,0.9408979999999999,0.131459,-0.948751,-0.75893,-0.347837,0.087474,-0.004542,0.018566
700,-2.020826,-1.2101389999999999,1.7379349999999998,-0.317722,0.935665,0.15348900000000001,-0.949773,-0.610455,-0.44737899999999997,0.05135,-0.00375,-0.109757
701,-2.063413,-1.192432,1.7006419999999998,-0.325449,0.92927,0.17468599999999998,-1.030238,-0.287188,-0.49963,0.086435,0.015035,-0.192447
702,-2.099915,-1.172962,1.664993,-0.334414,0.921902,0.195543,-1.08146,-0.084477,-0.5322939999999999,0.16505699999999998,0.188907,-0.17593599999999998
703,-2.122427,-1.153024,1.635501,-0.345516,0.9139950000000001,0.212614,-0.936056,0.44133199999999995,-0.549044,0.289516,0.331488,-0.231382
704,-2.125899,-1.1381780000000001,1.617278,-0.35627,0.9078709999999999,0.220941,-0.5644140000000001,0.690764,-0.377988,0.257424,0.329449,-0.352746
705,-2.12108,-1.128849,1.612619,-0.364535,0.9039200000000001,0.22364099999999998,-0.196499,0.26728,-0.28835,0.138247,0.28126,-0.464287
706,-2.111098,-1.124738,1.622434,-0.36993400000000004,0.9021549999999999,0.22190100000000001,0.289003,-0.042989,-0.374292,0.26713600000000004,0.193945,-0.361412
707,-2.075059,-1.120366,1.669113,-0.381139,0.9002600000000001,0.21033200000000002,1.040011,-0.54328,-0.855514,0.49957799999999997,0.260827,-0.422749
708,-2.026998,-1.1165770000000002,1.738752,-0.393865,0.8986040000000001,0.19328,1.37324,-0.6713279999999999,-0.8241799999999999,0.468938,0.274751,-0.362653
709,-1.961728,-1.11836,1.822341,-0.40415100000000004,0.899385,0.166568,1.9257349999999998,-0.465426,-0.5802350000000001,0.298194,0.48911899999999997,-0.34003
710,-1.8762849999999998,-1.1250719999999998,1.929713,-0.411125,0.902299,0.129653,2.5763849999999997,-0.592911,-0.432385,0.114265,0.387481,-0.31343000000000004
711,-1.76885,-1.1333790000000001,2.0638240000000003,-0.41529399999999994,0.905849,0.083343,2.936139,-0.7783680000000001,-0.187148,0.125454,0.356725,-0.020096
712,-1.6669060000000002,-1.144986,2.199169,-0.411127,0.9107040000000001,0.039635000000000004,2.846221,-1.240484,0.36935999999999997,0.44562700000000005,0.432832,0.458671
713,-1.567864,-1.159722,2.339267,-0.399567,0.9166920000000001,-0.001172,2.893579,-1.4627629999999998,0.76949,0.35572800000000004,0.262522,0.24694499999999997
714,-1.458165,-1.1790129999999999,2.488254,-0.379392,0.9242299999999999,-0.042913,2.809498,-1.393106,1.2708780000000002,0.175703,0.41462200000000005,0.173452
715,-1.3472870000000001,-1.195554,2.6394900000000003,-0.357356,0.930419,-0.08123,2.54126,-1.498675,1.263798,-0.216725,0.5378430000000001,0.240394
716,-1.227391,-1.204212,2.793802,-0.337478,0.933557,-0.120673,2.601872,-0.9444870000000001,1.15028,-0.109864,0.191184,0.36707199999999995
717,-1.098687,-1.207584,2.9446380000000003,-0.316394,0.93476,-0.16155799999999998,2.219112,-0.31185300000000005,1.250413,-0.009122,0.13564400000000001,0.467512
718,-0.98459,-1.213009,3.07078,-0.291715,0.936674,-0.193721,1.4749459999999999,-0.453942,1.464383,0.232633,0.18416,0.34929899999999997
719,-0.900373,-1.223388,-3.093784,-0.266754,0.940258,-0.21151999999999999,1.5177450000000001,-1.659707,1.67775,0.35191300000000003,0.060703,0.456012
720,-0.803484,-1.227509,-2.952274,-0.24225,0.9416530000000001,-0.23364200000000002,1.6135110000000001,-1.908432,1.7236029999999998,0.37083499999999997,0.056607000000000005,0.402129
721,-0.7237520000000001,-1.2289,-2.819745,-0.22200300000000003,0.9421209999999999,-0.251212,1.491443,-2.587227,1.616798,0.327838,0.01372,0.447776
722,-0.662467,-1.223062,-2.682557,-0.209581,0.940147,-0.268671,1.8495529999999998,-3.891164,1.582514,0.290559,0.011391,0.559702
723,-0.620264,-1.2109219999999998,-2.544635,-0.204679,0.935941,-0.286542,1.858542,-4.540858,1.543885,0.234494,0.025347,0.649487
724,-0.59682,-1.201203,-2.424053,-0.203009,0.932474,-0.298772,1.498227,-4.323009,1.456699,0.07372100000000001,-0.040826999999999995,0.66393
725,-0.5808949999999999,-1.193616,-2.320805,-0.202102,0.929707,-0.307872,1.295487,-3.812318,1.260213,-0.10173099999999999,-0.185887,0.532802
726,-0.5670069999999999,-1.188855,-2.231392,-0.200182,0.9279430000000001,-0.314379,0.930902,-3.213665,1.317787,-0.21627600000000002,-0.258128,0.390536
727,-0.5469310000000001,-1.192218,-2.148021,-0.192207,0.929191,-0.31566700000000003,0.5315449999999999,-2.6886639999999997,1.442512,-0.122216,-0.288688,0.336129
728,-0.524383,-1.202589,-2.071546,-0.180206,0.932974,-0.311562,0.12026099999999999,-2.307028,1.465855,-0.076325,-0.330374,0.285423
729,-0.5046109999999999,-1.217301,-2.0058689999999997,-0.167356,0.938168,-0.303014,-0.16662000000000002,-1.998459,1.2722440000000002,-0.064456,-0.294141,0.251958
730,-0.502119,-1.233288,-1.959844,-0.15936,0.943583,-0.290242,-0.41442700000000005,-2.136956,0.957702,-0.05166900000000001,-0.16808499999999998,0.271917
731,-0.523522,-1.249667,-1.9313650000000002,-0.15778599999999998,0.94888,-0.273341,-0.514504,-2.5554080000000003,0.727871,-0.032415,-0.116558,0.359691
732,-0.55598,-1.265707,-1.9119869999999999,-0.15851800000000002,0.9538200000000001,-0.255114,-0.541652,-2.520835,0.630429,-0.05800399999999999,-0.117959,0.350481
733,-0.595862,-1.280785,-1.9008060000000002,-0.160472,0.958241,-0.236657,-0.540077,-2.535241,0.502272,-0.084249,0.021648,0.02044
734,-0.6362760000000001,-1.293903,-1.894255,-0.162418,0.961909,-0.21984800000000002,-0.42587600000000003,-2.113536,0.439504,0.005634,0.24408400000000002,-0.329438
735,-0.6488550000000001,-1.302529,-1.8779119999999998,-0.160149,0.964232,-0.211168,-0.031318,-0.980348,0.430126,0.03457,0.357637,-0.485411
736,-0.630506,-1.3020100000000001,-1.8418450000000002,-0.15654300000000002,0.964094,-0.214475,0.446963,-0.9923379999999999,0.350161,-0.22930599999999998,0.511111,-0.601183
737,-0.6123270000000001,-1.299344,-1.790213,-0.154095,0.963382,-0.219388,0.532752,-1.842625,0.5911310000000001,-0.134967,0.251644,-0.366977
738,-0.582989,-1.298335,-1.720834,-0.14812899999999998,0.963111,-0.224625,0.5835819999999999,-1.7147599999999998,0.804967,0.010067,-0.100883,0.100953
739,-0.540435,-1.299847,-1.656736,-0.137689,0.963517,-0.22947399999999998,0.11919300000000001,-0.48223699999999997,0.675162,-0.111533,0.006712999999999999,0.21723699999999999
740,-0.541743,-1.3137290000000001,-1.661666,-0.131078,0.96714,-0.21781,-0.9658190000000001,0.580723,0.064812,-0.082606,0.308114,0.660208
741,-0.5528569999999999,-1.3157370000000002,-1.697614,-0.13247,0.967648,-0.21468600000000002,0.29234499999999997,1.404614,-0.600435,-0.281974,0.373019,0.227305
742,-0.560999,-1.291469,-1.714437,-0.146669,0.961241,-0.233423,0.9762850000000001,-0.5014430000000001,-0.857066,-0.441328,0.254839,0.049768
743,-0.61838,-1.281076,-1.740478,-0.165598,0.958324,-0.23275500000000002,-0.339796,-2.080621,-0.405968,0.205118,-0.432949,0.6664100000000001
744,-0.721545,-1.297059,-1.8015729999999999,-0.178544,0.962767,-0.20293599999999998,-1.455554,-1.9448880000000002,-0.082787,0.335313,-0.226546,0.508783
745,-0.810383,-1.31596,-1.87873,-0.182622,0.9677049999999999,-0.173718,-1.251771,-0.067424,-0.10513399999999999,0.43066899999999997,0.022759,0.478558
746,-0.8627290000000001,-1.3235620000000001,-1.9383669999999997,-0.185867,0.969593,-0.159134,-0.449424,0.250037,-0.269784,0.01091,0.41602700000000004,0.211823
747,-0.877288,-1.3217860000000001,-1.9543849999999998,-0.189487,0.9691569999999999,-0.15751099999999998,-0.001529,-0.16208499999999998,-0.16037300000000002,-0.069546,0.368612,0.06251
748,-0.907428,-1.3221690000000001,-1.966635,-0.193855,0.969251,-0.151501,-0.275251,-1.346264,-0.025103,-0.118309,0.246294,-0.030872000000000004
749,-0.973483,-1.330817,-2.006038,-0.196492,0.9713430000000001,-0.133654,-0.835909,-1.325703,0.114096,-0.180034,-0.27864,0.053912
750,-1.062036,-1.342341,-2.072333,-0.19775,0.974017,-0.110292,-0.961576,-1.120401,0.030701999999999997,-0.14038499999999998,-0.268146,0.033067
751,-1.151252,-1.349361,-2.145314,-0.20053800000000002,0.975583,-0.08944500000000001,-0.8497629999999999,-0.7986489999999999,-0.075752,0.027183,-0.006925,-0.015627000000000002
752,-1.243564,-1.353005,-2.225661,-0.20456,0.976377,-0.069435,-0.9490219999999999,-0.6700659999999999,-0.177023,0.12501600000000002,0.010775,-0.002587
753,-1.343709,-1.355436,-2.313699,-0.20816199999999999,0.976899,-0.048101,-0.8610469999999999,-0.738791,-0.1165,0.15725799999999998,-0.181901,0.035558
754,-1.4209829999999999,-1.354749,-2.378693,-0.211916,0.9767520000000001,-0.031988,-0.5924550000000001,-0.654127,-0.209804,0.165453,-0.083442,-0.181498
755,-1.482644,-1.350425,-2.428397,-0.21769000000000002,0.975816,-0.01924,-0.47253,-0.6499119999999999,-0.30190700000000004,0.280114,0.076231,-0.310564
756,-1.529408,-1.346068,-2.46706,-0.222598,0.9748549999999999,-0.009218,-0.359263,-0.26193,-0.189449,0.360766,0.11344800000000001,-0.221525
757,-1.546394,-1.344757,-2.484324,-0.22399899999999998,0.974562,-0.0054670000000000005,-0.081428,0.018667,-0.005202,0.22135900000000003,0.10556199999999999,-0.22719899999999998
758,-1.533218,-1.345491,-2.469433,-0.22319299999999997,0.974726,-0.008391,0.32667199999999996,-0.056422,0.037269,0.072055,-0.041833999999999996,-0.23581100000000002
759,-1.493066,-1.345043,-2.4295709999999997,-0.22311199999999998,0.974626,-0.017377,0.46202200000000004,0.099899,-0.011124,-0.011323999999999999,-0.123475,-0.203204
760,-1.451279,-1.342784,-2.389378,-0.224377,0.974118,-0.026945,0.510721,0.139601,-0.125135,-0.048817,-0.346142,-0.037630000000000004
761,-1.3936870000000001,-1.336101,-2.333539,-0.228859,0.972585,-0.040962,0.76664,0.17986400000000002,-0.292178,-0.020347,-0.197515,-0.20610799999999999
762,-1.335617,-1.326781,-2.27692,-0.234904,0.970376,-0.056286,0.724985,0.15238,-0.309525,0.059947,0.003974,-0.052662
763,-1.280078,-1.3187520000000001,-2.224354,-0.238875,0.968405,-0.07147,0.711928,0.250873,-0.153782,0.23382399999999998,0.066553,0.020444999999999998
764,-1.222011,-1.315189,-2.1710599999999998,-0.23756599999999997,0.96751,-0.086392,0.748578,0.44004799999999994,0.19126700000000002,0.348727,0.004368,-0.058307000000000005
765,-1.12925,-1.3150700000000002,-2.088006,-0.228649,0.9674799999999999,-0.108076,1.0946420000000001,0.585724,0.49046300000000004,0.245525,-0.0021780000000000002,-0.247744
766,-1.0135530000000001,-1.3141690000000001,-1.975049,-0.215385,0.967252,-0.13421,1.4036540000000002,0.24606399999999998,0.714179,0.06491799999999999,-0.026517000000000002,-0.079032
767,-0.8755149999999999,-1.304574,-1.8422439999999998,-0.201989,0.964772,-0.16851,1.8460150000000002,0.674613,0.520167,0.035546,-0.124928,-0.078164
768,-0.733119,-1.277304,-1.704134,-0.193573,0.957239,-0.21495,2.694049,0.12205,0.239447,0.032684,-0.101649,-0.085252
769,-0.6193310000000001,-1.224474,-1.567001,-0.197027,0.940627,-0.27637399999999995,3.741488,-1.187466,-0.062411,-0.025431,0.08191,0.12061199999999998
770,-0.539642,-1.160126,-1.458133,-0.20512199999999997,0.9168540000000001,-0.342474,3.7700370000000003,-1.074383,-0.110419,-0.07710399999999999,0.203782,0.42976899999999996
771,-0.495409,-1.099269,-1.375361,-0.21593800000000002,0.890875,-0.399621,3.2578009999999997,-1.6972150000000001,0.244655,-0.043660000000000004,0.296869,0.639001
772,-0.44449099999999997,-1.062366,-1.29607,-0.20931999999999998,0.87351,-0.43948999999999994,2.099444,-0.528066,1.112076,0.07180800000000001,0.574198,0.374274
773,-0.387944,-1.0383120000000001,-1.217894,-0.19204100000000002,0.861549,-0.469937,1.75551,-0.632155,1.333065,-0.052633000000000006,0.098794,0.509686
774,-0.340919,-1.020678,-1.151494,-0.174792,0.852462,-0.49268900000000004,1.217327,-0.44100500000000004,1.150668,-0.100538,-0.12445,0.586241
775,-0.309213,-1.013041,-1.114659,-0.16106199999999998,0.8484450000000001,-0.50417,0.309989,0.346204,0.613483,-0.154032,-0.28463299999999997,0.549717
776,-0.28187199999999996,-1.021503,-1.100709,-0.145216,0.852894,-0.5014689999999999,-0.671326,0.958499,0.45843,-0.236406,-0.275028,0.24812800000000002
777,-0.25807199999999997,-1.049018,-1.09594,-0.127202,0.866934,-0.481904,-1.632795,0.9234620000000001,0.463509,-0.232844,-0.26824000000000003,0.215027
778,-0.252823,-1.089998,-1.102991,-0.115682,0.886626,-0.44777,-2.203321,0.305206,0.258422,-0.079707,-0.23936300000000002,0.22290100000000002
779,-0.282091,-1.134743,-1.1325479999999999,-0.117567,0.906425,-0.405654,-2.3875599999999997,-0.35793600000000003,-0.24514699999999998,-0.048647,-0.182304,0.18707200000000002
780,-0.355486,-1.17929,-1.199191,-0.1328,0.924335,-0.357703,-2.642075,-0.75663,-0.7527520000000001,-0.040555,-0.144398,0.106696
781,-0.47555600000000003,-1.2238799999999999,-1.310084,-0.155651,0.940426,-0.302249,-2.908225,-0.869784,-0.995884,0.038951,0.019275999999999998,0.044436
782,-0.6273989999999999,-1.2616690000000002,-1.45074,-0.178575,0.952599,-0.24626399999999998,-2.67467,-0.9978899999999999,-0.863765,0.032014999999999995,0.325416,0.036898
783,-0.778257,-1.287273,-1.582906,-0.196363,0.960076,-0.199187,-1.865043,-1.35912,-0.475224,0.059217,0.490928,-0.025651
784,-0.893408,-1.303373,-1.66986,-0.205873,0.964455,-0.16559400000000002,-1.291001,-1.6514520000000001,-0.062778,0.22956999999999997,0.167961,-0.276438
785,-0.9949100000000001,-1.323448,-1.746639,-0.20530700000000002,0.969565,-0.13330699999999998,-1.450618,-1.063791,0.434213,0.24349899999999997,-0.16303099999999998,-0.32740199999999997
