,attitude.roll,attitude.pitch,attitude.yaw,gravity.x,gravity.y,gravity.z,rotationRate.x,rotationRate.y,rotationRate.z,userAcceleration.x,userAcceleration.y,userAcceleration.z
0,-0.922867,-1.316937,-1.1475030000000002,-0.200234,0.96795,-0.151566,2.219344,2.725701,-1.403518,-1.323448,0.468466,-0.8424379999999999
1,-0.862836,-1.245265,-1.036537,-0.24295100000000003,0.9474809999999999,-0.207963,3.743922,-6.16041,-1.497918,-0.2164,0.8679030000000001,0.582307
2,-0.8614709999999999,-1.198114,-0.9345979999999999,-0.276285,0.9313540000000001,-0.23715100000000003,2.339368,-1.291876,-0.071868,0.580759,0.9210940000000001,0.763488
3,-0.800719,-1.194842,-0.9122540000000001,-0.263563,0.930157,-0.25560900000000003,-0.519229,1.927823,-0.100234,0.651564,1.281085,-1.091285
4,-0.743966,-1.177819,-0.873986,-0.259327,0.923773,-0.281758,1.6000510000000001,1.4649510000000001,0.062577,0.26710900000000004,-0.469717,1.002736
5,-0.671355,-1.188516,-0.8712629999999999,-0.23204299999999997,0.927816,-0.292075,-1.381421,4.0996760000000005,0.44109499999999996,0.26459,-0.57395,0.702231
6,-0.672129,-1.20633,-0.904751,-0.22194,0.934314,-0.278916,-0.47235699999999997,-0.6728930000000001,-0.312355,-0.072325,-0.235767,-0.386474
7,-0.739984,-1.200783,-0.937925,-0.24383200000000002,0.932322,-0.267049,-0.196656,-1.813493,-0.6048100000000001,0.20830900000000002,0.330281,0.019368
8,-0.770893,-1.195745,-0.9417620000000001,-0.255237,0.9304889999999999,-0.262752,0.45237,-1.2074719999999999,-0.072283,0.20622600000000002,0.298896,-0.186635
9,-0.761672,-1.185355,-0.918431,-0.25946199999999997,0.926633,-0.27207600000000004,0.669268,-0.172837,-0.057138999999999995,0.046922000000000005,-0.0789,-0.134464
10,-0.739062,-1.173409,-0.8958719999999999,-0.260683,0.922075,-0.286034,0.860502,0.074898,-0.10419,-0.09675399999999999,-0.335634,-0.5135109999999999
11,-0.701317,-1.1535799999999998,-0.864707,-0.26145100000000004,0.914221,-0.309577,1.228192,0.984133,-0.295067,-0.073937,-0.29739899999999997,-0.25144299999999997
12,-0.64561,-1.1263299999999998,-0.8440350000000001,-0.258707,0.90284,-0.343431,1.511558,2.0091669999999997,-0.599913,0.013512999999999999,-0.22112300000000001,-0.297606
13,-0.587117,-1.090865,-0.821032,-0.255772,0.887026,-0.384395,1.799489,1.773679,-0.567689,-0.156856,-0.169726,0.370937
14,-0.55332,-1.054526,-0.799686,-0.259413,0.8696659999999999,-0.41997700000000004,1.9145279999999998,0.049746,-0.588178,-0.190477,-0.13330799999999998,0.550348
15,-0.543053,-1.0025879999999998,-0.769062,-0.278074,0.842866,-0.46070200000000006,3.1570810000000002,-1.335783,-0.6984319999999999,-0.185763,0.12396099999999999,0.829202
16,-0.532309,-0.9167299999999999,-0.715696,-0.308785,0.793617,-0.524233,5.176044,-1.538714,-0.98424,0.051583000000000004,0.514947,0.705553
17,-0.507726,-0.8046760000000001,-0.65035,-0.337097,0.7206060000000001,-0.605879,5.864391,-1.479384,-0.9666889999999999,0.145523,0.356466,-1.365542
18,-0.537401,-0.738642,-0.643265,-0.37849299999999997,0.673285,-0.6351600000000001,1.2345620000000002,-0.518189,-1.560009,0.268004,-0.146612,-0.11305499999999999
19,-0.529361,-0.720899,-0.654683,-0.379348,0.6600600000000001,-0.648392,0.242612,0.932585,-0.402298,-0.405213,-0.004802000000000001,0.165574
20,-0.514419,-0.723641,-0.662752,-0.368726,0.662118,-0.65241,-0.48148500000000005,0.810405,-0.123052,-0.112613,-0.098977,0.147786
21,-0.5160680000000001,-0.736758,-0.6712279999999999,-0.36548400000000003,0.67189,-0.644191,-0.9212440000000001,-0.129874,0.167774,0.157461,-0.34024,-0.007939
22,-0.527243,-0.7659060000000001,-0.6815180000000001,-0.362648,0.69319,-0.622873,-1.833032,-0.126131,0.554506,0.165932,-0.521117,-0.007070999999999999
23,-0.5346069999999999,-0.817012,-0.6974100000000001,-0.348704,0.729104,-0.588905,-2.850406,0.369037,0.949484,0.165339,-0.7020350000000001,0.133186
24,-0.543006,-0.885914,-0.721352,-0.326861,0.774493,-0.541588,-3.6435120000000003,0.489199,1.157435,0.17216700000000001,-0.730243,0.154305
25,-0.56217,-0.9681420000000001,-0.756139,-0.302132,0.8238340000000001,-0.47959300000000005,-4.274289,0.38305700000000004,1.341172,0.21329499999999998,-0.673825,0.172189
26,-0.6012310000000001,-1.0597889999999999,-0.804399,-0.276636,0.872252,-0.403291,-4.640008,-0.138221,1.481359,0.22548800000000002,-0.39820700000000003,0.12225499999999999
27,-0.679346,-1.1537469999999999,-0.881742,-0.254492,0.9142879999999999,-0.315128,-4.867568,-0.546087,1.378811,0.166189,0.051502,0.107181
28,-0.7955899999999999,-1.2407190000000001,-0.996025,-0.231501,0.946017,-0.22683000000000003,-4.297078,-0.397778,1.3580370000000002,0.178248,0.594708,0.067482
29,-0.897199,-1.298946,-1.097062,-0.209856,0.963276,-0.167492,-2.0112360000000002,-0.12108,1.043568,0.169695,0.5907859999999999,0.337764
30,-0.810806,-1.301366,-1.019196,-0.192931,0.963923,-0.183368,2.561538,0.560715,0.538388,-0.189729,0.830084,-0.418637
31,-0.711808,-1.237753,-0.8768090000000001,-0.21353899999999998,0.945052,-0.247531,2.943914,-3.3014099999999997,-1.529547,-0.9093700000000001,1.347078,0.933841
32,-0.801712,-1.188244,-0.943009,-0.26821999999999996,0.927715,-0.259608,1.820902,-1.159458,-2.340235,-1.3983139999999998,1.530003,-1.822911
33,-0.70289,-1.10511,-0.796265,-0.29026399999999997,0.8935139999999999,-0.342599,3.623208,0.201586,-0.08185,0.147884,-0.263402,1.791238
34,-0.645021,-1.1160459999999999,-0.781435,-0.264072,0.8983709999999999,-0.350984,-1.26334,0.799918,0.77842,0.578129,-0.702479,-0.8815299999999999
35,-0.675752,-1.145766,-0.801226,-0.257913,0.911026,-0.321723,-1.6382299999999999,-0.149589,0.39139,0.52105,0.649749,0.25801799999999997
36,-0.709575,-1.1785889999999999,-0.8666799999999999,-0.249021,0.924068,-0.28996700000000003,-2.159205,1.903766,-0.097716,0.33581300000000003,0.764745,0.10538199999999999
37,-0.744684,-1.203807,-0.927215,-0.243171,0.9334120000000001,-0.263824,-1.361734,0.284289,0.074435,-0.047921,0.312361,0.170425
38,-0.780389,-1.217689,-0.954889,-0.24329299999999998,0.9383030000000001,-0.245743,-0.573396,-0.876602,0.125227,-0.26369499999999996,-0.347421,0.006804999999999999
39,-0.806085,-1.2160469999999999,-0.960141,-0.250638,0.9377340000000001,-0.24047600000000002,0.394696,-0.982612,-0.310119,-0.266239,-0.363973,-0.193209
40,-0.806067,-1.20003,-0.9481440000000001,-0.261439,0.93205,-0.250849,0.659994,-0.233098,-0.429936,-0.162511,-0.270673,-0.555959
41,-0.806057,-1.196192,-0.964885,-0.264016,0.930652,-0.253327,-0.598141,1.7712080000000001,-0.269308,0.11947,-0.322849,-0.17991600000000002
42,-0.769756,-1.206238,-1.004234,-0.248129,0.9342809999999999,-0.256015,-0.799459,4.327064,-0.15969,0.141958,-0.271348,-0.11832899999999999
43,-0.7135739999999999,-1.206812,-1.027302,-0.23301,0.934486,-0.26913899999999996,0.080924,3.260434,-0.317748,0.11383900000000001,-0.252143,0.180378
44,-0.667342,-1.188373,-1.008973,-0.23095,0.9277629999999999,-0.293107,1.448596,0.34765100000000004,-0.357873,0.042122,-0.20503000000000002,0.370332
45,-0.632081,-1.140927,-0.962908,-0.246223,0.90902,-0.336229,3.0459560000000003,-0.5021439999999999,-1.01647,-0.15746300000000002,-0.209542,0.8239
46,-0.6112489999999999,-1.058382,-0.9186489999999999,-0.281366,0.8715629999999999,-0.40150399999999997,4.478733,-1.398411,-1.898347,-0.268179,0.04311,0.97116
47,-0.6045689999999999,-0.9440149999999999,-0.874031,-0.333392,0.80992,-0.482571,6.017867,-1.233606,-2.354621,-0.130704,0.491045,0.202649
48,-0.561373,-0.812913,-0.810763,-0.36592800000000003,0.726292,-0.581887,6.060997,-0.359084,-1.576706,0.234794,0.616054,-1.697227
49,-0.5678850000000001,-0.768208,-0.810856,-0.386798,0.694847,-0.606276,0.43286800000000003,0.9893120000000001,-0.8999020000000001,0.130954,-0.041893,0.09889099999999999
50,-0.542866,-0.757456,-0.810098,-0.375347,0.687075,-0.622124,0.44981400000000005,0.8856,-0.021572,-0.117756,-0.134982,0.100701
51,-0.5252560000000001,-0.759882,-0.806099,-0.36349699999999996,0.688836,-0.6271939999999999,-0.38119000000000003,0.7657189999999999,0.308199,-0.158582,-0.13298900000000002,0.029507
52,-0.5139819999999999,-0.7817569999999999,-0.806427,-0.34891,0.704527,-0.61798,-1.355193,0.44482,0.682094,0.075503,-0.355833,-0.256974
53,-0.516031,-0.825729,-0.812443,-0.334556,0.735042,-0.58973,-2.349417,-0.1358,1.021997,0.13603900000000002,-0.535732,-0.194602
54,-0.532212,-0.885216,-0.8218530000000001,-0.32127,0.7740520000000001,-0.54555,-2.93958,-0.5792010000000001,1.328227,0.154507,-0.662434,-0.125288
55,-0.554221,-0.9577979999999999,-0.8358620000000001,-0.302779,0.8179270000000001,-0.489199,-3.575073,-0.42695,1.633377,0.279037,-0.66987,0.159152
56,-0.570882,-1.046784,-0.858358,-0.270378,0.865818,-0.421009,-4.434528,0.506724,1.988305,0.324272,-0.300556,0.23643899999999998
57,-0.60307,-1.151231,-0.906235,-0.231041,0.913266,-0.335497,-5.174707,0.27513699999999996,1.9364299999999999,0.271065,-0.179196,0.19050799999999998
58,-0.6969569999999999,-1.2522879999999998,-1.0059280000000002,-0.200999,0.9497040000000001,-0.240114,-4.918152,-0.14643299999999998,1.399367,0.279292,0.09991799999999999,0.34623899999999996
59,-0.842101,-1.330362,-1.153681,-0.17763800000000002,0.9712350000000001,-0.158555,-3.660574,-0.173443,1.203087,0.33529200000000003,-0.10970799999999999,0.384995
60,-0.9593299999999999,-1.375756,-1.266356,-0.158671,0.9810399999999999,-0.11124500000000001,-1.511568,-0.515922,0.804067,0.266154,-0.310462,0.334923
61,-0.9833649999999999,-1.385208,-1.273662,-0.15357200000000001,0.982828,-0.102254,0.226543,-1.2029889999999999,0.088561,-0.292916,-0.552423,0.214223
62,-0.9390440000000001,-1.359675,-1.20024,-0.169094,0.9777959999999999,-0.123743,1.748319,-1.4746709999999998,-1.2197149999999999,-0.835728,0.145571,-0.064687
63,-0.976611,-1.311195,-1.172133,-0.212684,0.966492,-0.143697,1.8986310000000002,-4.248842,-1.833611,-1.1258629999999998,0.663802,-0.07885299999999999
64,-0.883642,-1.216336,-0.9697040000000001,-0.268306,0.9378340000000001,-0.220162,7.314773,-4.704018,-1.924451,-0.14153,3.209734,-1.895866
65,-0.725753,-1.153057,-0.79933,-0.269253,0.914008,-0.30345300000000003,1.097452,4.074836,0.552558,0.164181,0.963799,0.30504000000000003
66,-0.615012,-1.187001,-0.8292120000000001,-0.216036,0.92725,-0.305824,-2.0611639999999998,6.803291000000001,0.55584,0.279756,-1.200718,-0.053215
67,-0.564343,-1.203254,-0.8260790000000001,-0.192182,0.933213,-0.303598,0.0037619999999999997,-0.505067,0.505922,0.5777260000000001,-0.398606,0.278848
68,-0.6110899999999999,-1.21785,-0.8284950000000001,-0.198322,0.938358,-0.283098,-0.9129870000000001,-2.775003,0.193711,0.504749,0.268429,-0.210738
69,-0.674501,-1.204706,-0.8354440000000001,-0.223546,0.9337340000000001,-0.27957,1.7222709999999999,-2.215229,-1.149514,0.360646,2.072339,-0.343385
70,-0.6524270000000001,-1.1564020000000002,-0.79408,-0.244441,0.9153610000000001,-0.319931,2.378469,-0.316679,-0.44447299999999995,-0.006887000000000001,0.5414720000000001,-0.23181100000000002
71,-0.615301,-1.109481,-0.7511680000000001,-0.256924,0.895468,-0.36348400000000003,2.474395,0.108991,-0.9496180000000001,-0.21934800000000002,-0.728567,0.548741
72,-0.588716,-1.057474,-0.741748,-0.27268600000000004,0.8711180000000001,-0.408398,2.2134549999999997,1.348786,-1.4753889999999998,-0.223133,-0.8855379999999999,0.5495270000000001
73,-0.558353,-0.998244,-0.746843,-0.287026,0.840521,-0.45949399999999996,2.466989,1.8861150000000002,-1.8022509999999998,-0.235465,-1.006369,0.563025
74,-0.540773,-0.9413,-0.753875,-0.303079,0.8083239999999999,-0.504727,2.263004,0.201575,-1.5408709999999999,-0.21350700000000003,-0.9457139999999999,0.583646
75,-0.560846,-0.880374,-0.741946,-0.33874699999999996,0.770977,-0.539296,3.350514,-2.134789,-1.098719,0.197496,-0.269802,0.686757
76,-0.559852,-0.800134,-0.693822,-0.36994,0.71745,-0.590259,4.442080000000001,-1.3078,-0.531338,0.576956,0.700199,-0.376706
77,-0.568146,-0.766521,-0.6741560000000001,-0.387586,0.693634,-0.607162,0.059185,-0.23518899999999998,-0.16488,0.148831,0.042649,-0.106858
78,-0.568509,-0.771043,-0.680633,-0.386113,0.6968840000000001,-0.604371,-0.468379,-0.069476,-0.12284400000000001,-0.12508699999999998,-0.41718999999999995,-0.130294
79,-0.585577,-0.7890119999999999,-0.695604,-0.389387,0.709657,-0.587162,-1.414184,-0.264865,0.27458699999999997,-0.326891,-0.5468770000000001,-0.03651
80,-0.604204,-0.829277,-0.7101,-0.383703,0.7374430000000001,-0.555828,-2.27155,-0.699168,0.934658,0.017309,0.07195900000000001,-0.076573
81,-0.638775,-0.8878969999999999,-0.723504,-0.376234,0.775746,-0.506616,-2.783398,-1.450879,1.550546,0.054730999999999995,0.06337999999999999,-0.146567
82,-0.680053,-0.9542719999999999,-0.737302,-0.36359,0.815893,-0.449571,-2.8433740000000003,-1.522916,1.7681369999999998,0.123722,0.028742,-0.357619
83,-0.715511,-1.0207950000000001,-0.749051,-0.342881,0.852524,-0.394498,-2.756903,-0.98535,2.058608,0.21539299999999997,-0.35768099999999997,-0.297091
84,-0.725668,-1.10284,-0.755851,-0.299335,0.892492,-0.337414,-3.55994,0.279049,2.774565,0.22975500000000001,-0.335165,-0.176823
85,-0.7521479999999999,-1.196305,-0.8063060000000001,-0.24990900000000002,0.930694,-0.267106,-4.392106,1.265794,2.090235,0.249329,-0.26771500000000004,0.155641
86,-0.852223,-1.274852,-0.9326180000000001,-0.21952,0.956527,-0.19197999999999998,-3.959476,0.644929,0.86987,0.083274,-0.128814,0.68313
87,-1.05851,-1.318586,-1.140923,-0.21749000000000002,0.968363,-0.12230899999999999,-3.164637,-0.656384,-0.197541,0.027259,-0.221201,0.873041
88,-1.2068809999999999,-1.324567,-1.281933,-0.22776300000000002,0.9698379999999999,-0.08675,-0.621097,-0.429932,-0.690675,-0.43941199999999997,0.369807,0.210698
89,-1.119427,-1.2791270000000001,-1.170246,-0.258736,0.957765,-0.125421,4.168744,-2.032032,-1.929554,-0.705666,0.6224810000000001,-0.148383
90,-1.004274,-1.196081,-0.9502360000000001,-0.308815,0.9306120000000001,-0.196429,5.071551,-5.338362999999999,-1.7181849999999999,-0.894768,1.3160610000000001,0.18771600000000002
91,-0.9833200000000001,-1.137774,-0.8196889999999999,-0.34925500000000004,0.907701,-0.232571,2.2242889999999997,-3.8851660000000003,-0.091669,0.73338,0.729338,-0.47652
92,-1.000976,-1.170655,-0.866708,-0.327989,0.921006,-0.21014699999999997,-2.890392,3.184469,1.027908,0.588136,0.6277,-0.8655520000000001
93,-1.0222870000000002,-1.218063,-0.954832,-0.294773,0.9384319999999999,-0.180123,-2.53297,2.612746,1.167869,0.34273200000000004,0.632506,-0.003471
94,-1.090643,-1.2530350000000001,-1.055026,-0.277096,0.949937,-0.14431300000000002,-1.937921,0.514437,0.315864,0.259579,0.476195,-0.156987
95,-1.118681,-1.2535180000000001,-1.071004,-0.28062,0.9500879999999999,-0.13628800000000002,0.9894379999999999,-1.265102,-0.224361,0.105984,0.283021,-0.16028199999999998
96,-1.057277,-1.228797,-0.9772219999999999,-0.292102,0.9420860000000001,-0.164742,2.036923,-1.070727,-0.456575,-0.143155,-0.188653,-0.132712
97,-0.9890450000000001,-1.197673,-0.888509,-0.304551,0.931193,-0.200295,2.3209720000000003,-0.7024739999999999,-0.6195689999999999,-0.29074,-0.5982770000000001,-0.014594
98,-0.930566,-1.159935,-0.816782,-0.320292,0.9167770000000001,-0.23858600000000002,1.945754,-0.083701,-0.788557,-0.186925,-0.832518,0.28416399999999997
99,-0.881875,-1.1255819999999999,-0.781615,-0.332426,0.902518,-0.27376100000000003,1.400267,1.366487,-0.9352309999999999,0.066373,-0.9239870000000001,0.43642
100,-0.8536450000000001,-1.104386,-0.778198,-0.33891,0.8931879999999999,-0.295543,0.29784499999999997,0.708394,-0.57462,0.187909,-0.8840790000000001,0.372173
101,-0.8862049999999999,-1.102135,-0.785755,-0.349908,0.892174,-0.285624,0.010743,-2.495315,0.045981,0.233529,-0.805077,0.512614
102,-0.9179209999999999,-1.096266,-0.754825,-0.36294299999999996,0.8895069999999999,-0.277561,1.159404,-2.814542,0.29262699999999997,0.335279,-0.7055779999999999,0.667423
103,-0.8945219999999999,-1.080625,-0.684172,-0.367157,0.882252,-0.294649,2.121037,-1.456832,0.387335,0.562591,-0.619786,0.513171
104,-0.834068,-1.048802,-0.5990840000000001,-0.3693,0.866826,-0.334995,2.773828,-0.335328,-0.120153,0.479392,-0.356817,0.14139100000000002
105,-0.794601,-1.010373,-0.544353,-0.379297,0.84703,-0.372379,1.7030189999999998,-0.675064,-0.544872,0.37651999999999997,-0.181274,-0.270413
106,-0.836266,-1.0059,-0.564728,-0.39728600000000003,0.8446440000000001,-0.358793,-1.105149,-1.117186,-0.499827,0.369607,0.076407,-0.099017
107,-0.9026620000000001,-1.018446,-0.619848,-0.411864,0.8512940000000001,-0.325052,-1.654334,-0.997273,-0.440792,0.395583,0.25408400000000003,0.048425
108,-0.972756,-1.033118,-0.6832229999999999,-0.423249,0.8589,-0.288344,-1.795827,-0.563641,-0.334446,0.26260500000000003,0.36293200000000003,0.04373
109,-1.033328,-1.052502,-0.744256,-0.425543,0.8686659999999999,-0.253621,-1.9219119999999998,-0.44220299999999996,0.30758800000000003,-0.739129,0.5564899999999999,-0.827159
110,-1.0971309999999999,-1.104344,-0.8059069999999999,-0.400198,0.8931690000000001,-0.20513499999999998,-2.872306,-0.26257800000000003,2.583559,-1.604929,0.8871959999999999,-1.272343
111,-1.135909,-1.181049,-0.8690000000000001,-0.344575,0.925005,-0.160072,-2.503596,1.786645,2.355977,-1.2191459999999998,1.141691,-1.24511
112,-1.1175,-1.215106,-0.878216,-0.313054,0.937406,-0.152497,0.225846,0.581719,1.0819020000000001,0.182348,0.127154,-0.5843649999999999
113,-1.028637,-1.2161950000000001,-0.7567689999999999,-0.297412,0.9377850000000001,-0.179151,2.409847,-1.738643,1.367186,0.66904,-0.662852,0.733274
114,-0.902264,-1.21674,-0.617991,-0.27205999999999997,0.937974,-0.214891,1.7204700000000002,0.293272,1.05746,0.6286430000000001,-0.8357100000000001,0.573213
115,-0.7865850000000001,-1.1839629999999999,-0.509792,-0.267069,0.926108,-0.266436,3.7114559999999996,2.032241,-1.041668,-0.293508,1.245187,0.266115
116,-0.795773,-1.065499,-0.519195,-0.345815,0.87503,-0.338712,2.425894,-3.935838,-5.148176,-0.8669690000000001,1.868408,0.705228
117,-0.9018280000000001,-1.019962,-0.5691,-0.41058,0.852088,-0.32459499999999997,-0.41218999999999995,-0.019292,-0.711056,0.390606,0.6686479999999999,1.9704540000000001
118,-0.891864,-1.059942,-0.6065520000000001,-0.380494,0.8723270000000001,-0.30701999999999996,-1.888581,1.8301319999999999,1.338997,0.516618,0.965533,0.133802
119,-0.9118959999999999,-1.091138,-0.607287,-0.36486599999999997,0.8871530000000001,-0.282532,-1.1975360000000002,-1.585428,1.077941,0.413588,1.23301,0.6111
120,-0.992772,-1.1335870000000001,-0.657692,-0.354618,0.9059370000000001,-0.23133499999999999,-2.436716,-2.3526130000000003,1.133294,0.258397,1.111657,-0.083149
121,-1.11109,-1.176544,-0.737376,-0.34422800000000003,0.923284,-0.170422,-2.531593,-1.7721740000000001,0.9834040000000001,0.112402,0.27186,0.18441400000000002
122,-1.236559,-1.209698,-0.855576,-0.333737,0.935509,-0.115896,-2.6032040000000003,-0.38724200000000003,0.49508800000000003,-0.12425499999999999,-0.039223,0.016897
123,-1.3720860000000001,-1.2282620000000002,-0.984965,-0.32925,0.9419059999999999,-0.066301,-2.317307,-0.885762,0.240283,0.017925,-0.160519,0.145204
124,-1.49197,-1.237631,-1.101917,-0.32600300000000004,0.9450120000000001,-0.025751,-1.774922,-0.160823,0.16516199999999998,0.23263499999999998,-0.332341,0.143778
125,-1.587795,-1.239213,-1.201344,-0.32547600000000004,0.945528,0.005533,-1.545038,-0.25454099999999996,-0.040347,0.030066000000000002,-0.403521,-0.249018
126,-1.686854,-1.235686,-1.2885659999999999,-0.32664299999999996,0.9443739999999999,0.038081,-1.409076,-1.17299,-0.112996,-0.010270999999999999,-0.340401,-0.40478000000000003
127,-1.7896169999999998,-1.2263870000000001,-1.369461,-0.329573,0.941275,0.073291,-1.402893,-1.192413,-0.322299,0.035185,-0.134985,-0.504199
128,-1.8619560000000002,-1.210791,-1.445441,-0.337436,0.935895,0.101121,-1.55999,0.743247,-0.465814,0.127353,-0.009762999999999999,-0.559709
129,-1.905974,-1.1919629999999999,-1.521375,-0.34924,0.929097,0.121647,-1.479382,1.374574,-0.44042299999999995,0.162305,0.009441,-0.6284069999999999
130,-1.914773,-1.176501,-1.5576530000000002,-0.361639,0.923268,0.129545,-0.47149399999999997,1.164952,-0.5741189999999999,0.49069700000000005,-0.13844700000000001,-0.547941
131,-1.875413,-1.165716,-1.532257,-0.375934,0.9190709999999999,0.11819400000000001,0.693194,0.475401,-0.705037,0.5526310000000001,-0.097232,-0.46266199999999996
132,-1.816719,-1.1554440000000001,-1.465709,-0.391358,0.914974,0.098232,1.385917,-0.41021499999999994,-0.945823,0.49291999999999997,0.09763,-0.21541999999999997
133,-1.737656,-1.144254,-1.368023,-0.407966,0.910402,0.068712,2.134619,-0.453359,-0.928788,0.461479,0.760512,0.29164
134,-1.624451,-1.137607,-1.235874,-0.41915,0.907632,0.022511,3.043462,-0.36093800000000004,-0.32114899999999996,0.553946,0.6688149999999999,0.388393
135,-1.491005,-1.140047,-1.0730309999999998,-0.41621099999999994,0.908653,-0.033281,3.565209,-0.9626979999999999,0.261175,-0.010379000000000001,0.457146,0.21389899999999998
136,-1.351233,-1.134211,-0.900817,-0.412684,0.906201,-0.09209500000000001,3.560428,-0.505004,0.358831,-0.19638599999999998,0.818149,0.37206300000000003
137,-1.208757,-1.12701,-0.7520479999999999,-0.401518,0.9031319999999999,-0.152068,2.8020680000000002,0.626386,0.732371,-0.127092,0.9147540000000001,0.294082
138,-1.098301,-1.1262370000000002,-0.6389239999999999,-0.382931,0.9028,-0.19572,1.9343119999999998,0.333262,0.994809,0.164806,0.9065110000000001,0.099376
139,-1.020713,-1.1316959999999998,-0.544775,-0.362402,0.905135,-0.222232,1.475088,-0.811846,1.3765610000000001,0.393042,0.838975,0.208377
140,-0.9691219999999999,-1.144785,-0.45476400000000006,-0.34066399999999997,0.9106209999999999,-0.23389899999999997,1.047477,-2.0857959999999998,1.717037,0.360164,0.619271,0.325284
141,-0.959519,-1.164815,-0.360939,-0.323398,0.918715,-0.226644,1.2385760000000001,-4.408748,1.979859,0.389071,0.365831,0.657613
142,-0.929625,-1.1753209999999998,-0.22680100000000003,-0.308726,0.9228139999999999,-0.230423,2.021284,-5.069416,1.883623,0.322017,0.16919700000000001,0.610153
143,-0.901286,-1.172403,-0.081231,-0.304184,0.9216850000000001,-0.240748,2.515365,-5.026688,1.4266159999999999,0.17765799999999998,-0.209115,0.569911
144,-0.851726,-1.156854,0.063937,-0.302631,0.915542,-0.26493099999999997,2.661289,-3.9469,1.134627,0.073627,-0.455795,0.366005
145,-0.827335,-1.1416709999999999,0.181056,-0.306279,0.90933,-0.281611,2.0362970000000002,-4.23303,1.036624,0.074987,-0.604459,0.39515100000000003
146,-0.8315229999999999,-1.135894,0.277077,-0.311332,0.906911,-0.28386,1.4981799999999998,-4.872043,1.198191,0.334831,-0.54807,0.5024109999999999
147,-0.8577739999999999,-1.134658,0.36119,-0.319523,0.9063899999999999,-0.276323,1.328022,-5.113827,1.0712620000000002,0.502659,-0.501528,0.566484
148,-0.886033,-1.132575,0.43432200000000004,-0.328665,0.905508,-0.268378,1.191376,-4.4305769999999995,0.8216040000000001,0.464041,-0.445821,0.522101
149,-0.9065219999999999,-1.130752,0.49483900000000003,-0.335393,0.904733,-0.26260500000000003,0.9628190000000001,-3.405615,0.7118720000000001,0.275075,-0.41414700000000004,0.434709
150,-0.922341,-1.133484,0.543114,-0.337534,0.9058930000000001,-0.25577300000000003,0.5764729999999999,-2.6747490000000003,0.758443,-0.052709000000000006,-0.391519,0.323385
151,-0.937628,-1.142918,0.575102,-0.3345,0.909848,-0.245515,0.04276,-2.009273,0.768818,-0.41095299999999996,-0.356381,0.140626
152,-0.963569,-1.158413,0.582374,-0.32913600000000004,0.916168,-0.22868400000000003,-0.534612,-1.3891959999999999,0.714852,-0.370845,-0.258484,0.06642200000000001
153,-0.997467,-1.177539,0.571602,-0.321916,0.923666,-0.207853,-0.729318,-1.1175959999999998,0.628754,-0.278853,-0.158621,-0.023776
154,-1.028586,-1.190413,0.560295,-0.31801399999999996,0.928522,-0.191583,-0.346119,-0.930119,0.30004200000000003,-0.150385,0.26154099999999997,-0.538428
155,-1.04324,-1.193284,0.5665789999999999,-0.318483,0.929584,-0.18556,0.29594299999999996,-1.353641,0.161928,0.148484,0.7987479999999999,-0.983034
156,-1.057246,-1.184282,0.6148680000000001,-0.328326,0.9262290000000001,-0.185186,1.569468,-3.9981160000000004,-0.027682,0.202014,0.767573,-0.940257
157,-1.04471,-1.160258,0.722008,-0.34512600000000004,0.916906,-0.200405,2.6144580000000004,-3.741347,0.12243,0.6714359999999999,-0.141348,-0.714054
158,-0.986991,-1.147918,0.845462,-0.342406,0.9119120000000001,-0.226201,2.301055,-2.596263,1.213701,0.714004,-0.258469,-0.377315
159,-0.936084,-1.158369,0.950888,-0.32276,0.916151,-0.23766700000000002,0.73621,-1.647456,1.858511,0.654776,0.861575,0.39205500000000004
160,-0.92719,-1.1846139999999998,0.92165,-0.301291,0.9263540000000001,-0.226018,-2.263532,4.040385,-0.39479200000000003,0.623587,2.3645099999999997,2.118474
161,-0.915748,-1.196174,0.8471360000000001,-0.290172,0.9306459999999999,-0.22291,-0.518953,2.465215,0.130023,0.085384,-0.352445,1.127879
162,-0.9011530000000001,-1.184893,0.896136,-0.295101,0.926459,-0.23362399999999997,1.981809,-2.874868,-0.208862,-0.29747399999999996,-0.46854300000000004,0.905407
163,-0.906158,-1.1419700000000002,0.9585020000000001,-0.327287,0.9094549999999999,-0.25645,2.033673,-3.9544580000000003,-1.201631,-0.725509,-1.030167,-0.725407
164,-1.0375379999999998,-1.113721,0.9621719999999999,-0.38004,0.8973469999999999,-0.22433899999999998,0.21234699999999998,-7.448892999999999,-0.872317,-0.470164,-0.299508,-0.25371900000000003
165,-1.1868100000000001,-1.1150200000000001,0.9165479999999999,-0.408096,0.89792,-0.164888,-1.752573,-3.2926910000000005,-0.109429,0.204467,0.857894,0.176439
166,-1.290702,-1.1427690000000001,0.7735380000000001,-0.398889,0.9097860000000001,-0.11474300000000001,-4.1726410000000005,3.60165,0.686294,0.762567,0.856403,0.42805200000000004
167,-1.397119,-1.183446,0.549442,-0.37203800000000004,0.9259129999999999,-0.065272,-4.844022,5.066285,1.031173,0.655226,0.538396,0.229533
168,-1.520897,-1.210356,0.340837,-0.352229,0.935742,-0.01759,-3.102605,2.26592,0.7926890000000001,0.49361700000000003,-0.039852,0.14185799999999998
169,-1.614598,-1.2227219999999999,0.24793400000000002,-0.340742,0.940031,0.014934000000000001,-0.9078879999999999,-1.825769,0.47997700000000004,0.16252,-0.395888,0.089848
170,-1.7016580000000001,-1.226556,0.22541999999999998,-0.334577,0.941332,0.044035000000000005,-0.158191,-3.98386,0.057485,-0.023807,-0.653414,-0.089766
171,-1.796252,-1.223078,0.21982100000000002,-0.33211,0.940153,0.076171,-0.23138000000000003,-4.439348000000001,-0.25756799999999996,0.046221,-0.38604499999999997,-0.110168
172,-1.8930630000000002,-1.216143,0.190474,-0.329369,0.937767,0.10997799999999999,-0.8249620000000001,-2.714268,-0.10903199999999999,0.09092,0.001534,-0.126092
173,-1.987095,-1.2078520000000001,0.118461,-0.324687,0.9348559999999999,0.143557,-1.622083,-0.537453,0.200941,0.15174400000000002,0.112752,-0.21318299999999998
174,-2.07193,-1.195878,0.019122999999999998,-0.32115,0.9305379999999999,0.17591800000000002,-1.9257009999999999,0.79183,0.24305,0.250731,0.09866799999999999,-0.22044299999999997
175,-2.126848,-1.182274,-0.06162,-0.321734,0.9254700000000001,0.199945,-1.371921,0.941579,0.143109,0.13122799999999998,0.123175,-0.424188
176,-2.1644799999999997,-1.172878,-0.102817,-0.321177,0.9218700000000001,0.216763,-0.7296199999999999,-0.673754,-0.053297000000000004,0.07508300000000001,0.44890399999999997,-0.769452
177,-2.1995810000000002,-1.1645940000000001,-0.112022,-0.319538,0.9186280000000001,0.23238499999999998,-0.06704600000000001,-1.396225,-0.307321,0.204502,0.49006400000000006,-0.6861510000000001
178,-2.191711,-1.164879,-0.086413,-0.32114299999999996,0.918741,0.22971100000000003,0.5809850000000001,-0.30887800000000004,-0.261459,0.527167,0.265296,-0.41508999999999996
179,-2.13931,-1.169084,-0.041119,-0.32947600000000005,0.920393,0.21049400000000001,1.100123,0.8681120000000001,-0.40996000000000005,0.524163,0.255709,-0.40963599999999994
180,-2.033148,-1.177123,0.055365,-0.343292,0.9235059999999999,0.17109000000000002,2.3152049999999997,0.867934,-0.61939,0.313247,0.455797,-0.029580000000000002
181,-1.860241,-1.191138,0.21906199999999998,-0.355169,0.928791,0.105772,3.610635,1.152231,-0.377833,0.043203,0.38146599999999997,-0.072523
182,-1.6401080000000001,-1.202744,0.45501800000000003,-0.358917,0.9330299999999999,0.024916999999999998,4.65371,-1.2473049999999999,-0.083325,-0.058945000000000004,0.10540699999999999,0.22696
183,-1.496718,-1.195177,0.683477,-0.365827,0.9302799999999999,-0.027149,3.519746,-4.2393790000000005,-0.50295,-0.038424,0.12607000000000002,0.742314
184,-1.420369,-1.174236,0.84531,-0.381872,0.9223950000000001,-0.057880999999999995,3.262413,-3.295988,-0.701441,0.257361,0.398665,0.500081
185,-1.294809,-1.149405,1.033576,-0.39353899999999997,0.9125209999999999,-0.111456,4.361203,-1.9242119999999998,-0.247939,0.37458800000000003,0.6358189999999999,0.215338
186,-1.153516,-1.115859,1.242646,-0.40169299999999997,0.898288,-0.178076,4.633973999999999,-2.904236,0.040437,0.052984,1.082165,-0.218454
187,-1.084955,-1.089603,1.398543,-0.409271,0.886443,-0.21611799999999998,3.1293189999999997,-3.9171160000000005,0.761889,0.184524,0.774491,0.144494
188,-1.036134,-1.091742,1.5264149999999999,-0.39660300000000004,0.887431,-0.23486700000000002,2.336922,-2.319625,1.8193240000000002,0.15822999999999998,0.22739099999999998,0.388768
189,-0.950462,-1.101292,1.6485599999999998,-0.368139,0.8917930000000001,-0.263004,1.9166729999999998,-0.744197,1.945761,0.117086,-0.38600999999999996,0.35239000000000004
190,-0.870217,-1.111298,1.7577150000000001,-0.339034,0.896275,-0.2859,1.451092,-1.156635,1.860785,0.12506,-0.764332,0.251659
191,-0.821675,-1.1215,1.8522939999999999,-0.31804899999999997,0.900753,-0.295772,1.03331,-2.197324,1.669056,0.253321,-0.823009,0.168499
192,-0.812754,-1.136795,1.917418,-0.305357,0.907291,-0.289091,0.10570299999999999,-2.511771,1.455745,0.381757,-0.6742130000000001,0.292585
193,-0.8206370000000001,-1.164852,1.950948,-0.28888400000000003,0.9187299999999999,-0.26921,-0.708683,-1.524019,1.568431,0.45880600000000005,-0.644331,0.442168
194,-0.828224,-1.204443,1.9732189999999998,-0.263899,0.9336399999999999,-0.242211,-1.25279,-1.540052,1.7868419999999998,0.350371,-0.52208,0.427331
195,-0.8895569999999999,-1.246693,1.945918,-0.24736599999999997,0.947937,-0.200543,-2.071968,-1.949984,0.8501549999999999,0.07521699999999999,-0.480865,0.460629
196,-1.023591,-1.279111,1.841723,-0.245563,0.9577610000000001,-0.14961300000000002,-2.1179810000000003,-1.319194,0.321324,-0.09689,-0.382214,0.287583
197,-1.114837,-1.300875,1.751152,-0.23939699999999997,0.963792,-0.117407,-1.3091840000000001,0.42479300000000003,0.386696,-0.325575,0.079238,-0.31961999999999996
198,-1.14953,-1.3122040000000001,1.705811,-0.233344,0.966751,-0.10455999999999999,-0.410351,0.08165599999999999,0.170155,-0.382653,0.43228199999999994,-0.955255
199,-1.087394,-1.303328,1.785741,-0.23399099999999998,0.964443,-0.122832,2.3313599999999997,-1.389556,-0.058772000000000005,0.093946,0.195072,-0.727846
200,-0.973291,-1.261577,1.97492,-0.251576,0.952571,-0.171193,3.318196,-4.353186,-0.638808,-0.298579,0.272862,0.9046069999999999
201,-1.007074,-1.222143,2.014397,-0.288761,0.939833,-0.18254,0.44336499999999995,-2.2041880000000003,-1.692477,-0.200725,0.33758699999999997,1.139723
202,-1.061882,-1.20487,1.95734,-0.31245900000000004,0.933793,-0.174332,-0.979627,0.10598099999999999,-0.623268,0.362981,0.012298,0.704986
203,-1.155511,-1.211989,1.8769759999999998,-0.321297,0.936316,-0.14167000000000002,-1.365692,-1.696331,-0.322417,0.551583,0.196939,0.28173000000000004
204,-1.209578,-1.2058360000000001,1.8824560000000001,-0.333866,0.9341379999999999,-0.126133,1.815837,-3.5122760000000004,-0.238046,0.713719,0.687429,-0.34942199999999995
205,-1.145525,-1.1916719999999998,2.000109,-0.337129,0.928989,-0.15268900000000002,1.319058,-1.048375,0.478513,0.932817,0.491421,-0.309881
206,-1.13058,-1.2144059999999999,1.992376,-0.315618,0.937162,-0.14867,-1.323744,2.0980540000000003,1.268937,0.372655,0.099245,-0.07928099999999999
207,-1.1222889999999999,-1.252545,1.944395,-0.28194400000000003,0.949784,-0.135676,-1.483563,2.6736459999999997,1.3215629999999998,-0.15606,-0.010835,-0.156896
208,-1.125408,-1.27968,1.912773,-0.25900500000000004,0.957924,-0.123644,-0.621484,0.33310300000000004,0.874453,-0.7878850000000001,-0.107048,-0.17188900000000001
209,-1.126565,-1.2860129999999999,1.9368619999999999,-0.25366500000000003,0.959723,-0.120734,0.651016,-1.983916,0.049893,-0.51048,-0.19869,-0.162881
210,-1.095667,-1.264858,2.015443,-0.267812,0.953565,-0.137772,2.015741,-2.0026200000000003,-0.717148,-0.033274,-0.24047600000000002,-0.166915
211,-1.010513,-1.222201,2.1180529999999997,-0.28934099999999996,0.939853,-0.181516,2.602681,0.441984,-1.15624,0.160114,-0.27922399999999997,-0.151308
212,-0.9099809999999999,-1.175292,2.193002,-0.304162,0.922802,-0.236459,2.2671,1.7173060000000002,-1.1783780000000001,0.19339800000000001,-0.18079800000000001,-0.508139
213,-0.8574120000000001,-1.133291,2.220789,-0.32036,0.905811,-0.27724899999999997,1.53009,1.188708,-1.283261,0.26782399999999995,-0.177845,-0.208056
214,-0.8386469999999999,-1.095732,2.226531,-0.340177,0.8892629999999999,-0.30575,1.270273,0.569699,-1.303511,0.143171,-0.179669,0.460657
215,-0.815357,-1.061927,2.233479,-0.354655,0.873296,-0.334017,1.326382,0.992347,-1.019513,0.07319099999999999,-0.362325,0.8677540000000001
216,-0.784339,-1.02793,2.2558979999999997,-0.364894,0.856232,-0.365667,1.7953860000000001,0.17061700000000002,-0.792994,0.092875,-0.665207,0.9289459999999999
217,-0.7606850000000001,-0.980483,2.292534,-0.383741,0.830766,-0.40319299999999997,2.901511,-0.6183609999999999,-1.050244,0.30230500000000005,-0.65262,0.79693
218,-0.698404,-0.8980790000000001,2.362048,-0.40065700000000004,0.7821319999999999,-0.47722,5.234108,1.330447,-1.31205,0.101233,0.708316,-0.21706999999999999
219,-0.620805,-0.805954,2.427449,-0.40277399999999997,0.721492,-0.563222,3.592892,0.351885,-0.795626,-0.437863,0.92365,-1.728664
220,-0.60075,-0.805904,2.431772,-0.391419,0.721457,-0.5712149999999999,-0.675573,1.9476330000000002,0.514201,-0.24263,0.7330409999999999,-0.46146899999999996
221,-0.56866,-0.830958,2.433811,-0.36304000000000003,0.738578,-0.568067,-1.211892,0.967951,0.8855870000000001,0.225848,-0.5131600000000001,0.12258699999999999
222,-0.5666220000000001,-0.87187,2.434963,-0.34536300000000003,0.765533,-0.5428430000000001,-2.168413,-0.296498,1.173219,0.18804500000000002,-1.029572,-0.29996100000000003
223,-0.590417,-0.937635,2.414393,-0.329399,0.806161,-0.49152399999999996,-3.5912900000000003,-0.439565,1.4209049999999999,0.38485,-0.9325040000000001,-0.181206
224,-0.6255430000000001,-1.027555,2.3818759999999997,-0.302669,0.856038,-0.419029,-4.495061,-0.272917,2.087358,0.421703,-0.8295790000000001,-0.141732
225,-0.658077,-1.1301350000000001,2.346675,-0.260865,0.9044700000000001,-0.337458,-4.522901999999999,-0.064846,2.557983,0.43638599999999994,-0.33165500000000003,-0.162832
226,-0.681696,-1.225475,2.325972,-0.213286,0.940967,-0.262839,-3.592195,-0.403859,2.614057,0.490813,0.18266,-0.08532100000000001
227,-0.666337,-1.293748,2.349312,-0.16905599999999998,0.961867,-0.21499899999999997,-1.664241,-0.19531199999999999,2.3367,0.560917,0.450959,0.066455
228,-0.567654,-1.326452,2.4366790000000003,-0.13006199999999998,0.9702959999999999,-0.203966,-0.362516,1.443632,1.338496,0.039974,1.646266,0.732546
229,-0.6031880000000001,-1.320142,2.369471,-0.14069600000000002,0.96875,-0.204255,-0.15423499999999998,0.7870659999999999,-2.477033,-1.489003,2.245574,-0.6546930000000001
230,-0.707893,-1.2276850000000001,2.3433740000000003,-0.218745,0.9417129999999999,-0.255581,7.146017,-6.120394,-2.359505,-2.481023,2.529159,-0.529453
231,-0.6454489999999999,-1.129011,2.490948,-0.257194,0.90399,-0.341538,3.701857,-1.369177,0.068327,0.297096,-0.582472,-1.248138
232,-0.603087,-1.103934,2.57835,-0.25528,0.892985,-0.370682,1.014924,-2.059908,0.90609,0.660935,-0.8917950000000001,-0.623444
233,-0.5858869999999999,-1.121721,2.596936,-0.24004499999999998,0.900849,-0.361724,-1.035623,1.190248,0.8192360000000001,0.7153109999999999,0.000762,-0.330583
234,-0.5622699999999999,-1.144911,2.587489,-0.22023800000000002,0.910673,-0.349519,-0.8203719999999999,1.393606,0.128271,0.617851,0.560732,-0.432051
235,-0.568226,-1.134894,2.568766,-0.227214,0.906489,-0.355873,0.840774,0.100949,-0.9245549999999999,0.11820499999999999,0.6165510000000001,0.012962000000000001
236,-0.575651,-1.089613,2.566659,-0.251952,0.8864479999999999,-0.388233,2.38806,-0.361451,-1.448334,-0.163423,-0.10411500000000001,0.509053
237,-0.573933,-1.033975,2.565961,-0.27766,0.8593379999999999,-0.429462,2.1122349999999996,0.625189,-1.5241639999999999,-0.22494899999999998,-0.41368999999999995,0.738376
238,-0.556746,-0.9806889999999999,2.558388,-0.294041,0.830881,-0.472412,2.304593,1.291849,-1.640111,-0.320735,-1.052606,0.682876
239,-0.5315529999999999,-0.927983,2.546736,-0.303843,0.800412,-0.516735,1.7056630000000002,1.937269,-1.619484,-0.34520500000000004,-1.044294,0.617398
240,-0.535925,-0.8808469999999999,2.531597,-0.325018,0.771278,-0.5472560000000001,2.318589,-0.515165,-1.57574,-0.20308900000000002,-0.853874,0.405792
241,-0.5377270000000001,-0.8213239999999999,2.536597,-0.348926,0.732049,-0.585109,2.364881,-0.073577,-1.224538,0.793842,0.388465,-0.420278
242,-0.546362,-0.804404,2.5232229999999998,-0.36035,0.720417,-0.5925739999999999,-0.5229779999999999,0.472553,-0.497654,0.464735,0.11683199999999999,0.079466
243,-0.546696,-0.822009,2.5077279999999997,-0.35389899999999996,0.7325149999999999,-0.581527,-1.213964,0.271996,0.171824,0.164476,-0.321276,0.011413
244,-0.56499,-0.8573930000000001,2.4949689999999998,-0.350375,0.756139,-0.552709,-2.058842,-0.683368,0.85615,-0.068768,-0.34422800000000003,-0.11882999999999999
245,-0.5834189999999999,-0.912903,2.484233,-0.336835,0.7912819999999999,-0.510305,-2.757726,-0.34986300000000004,1.442636,-0.051059,0.023812,-0.229289
246,-0.590333,-0.9844219999999999,2.480584,-0.30801,0.832952,-0.45969099999999996,-3.211602,-0.20311099999999999,2.165668,-0.128055,0.070948,-0.431163
247,-0.587039,-1.071333,2.4892630000000002,-0.265289,0.87784,-0.398766,-3.589625,-0.135045,2.786782,-0.13305699999999998,0.299269,-0.664085
248,-0.582989,-1.163289,2.5035130000000003,-0.21818,0.918112,-0.330852,-3.6957379999999995,-0.778925,2.725978,-0.085424,0.773524,-0.777836
249,-0.611302,-1.245268,2.4907220000000003,-0.183544,0.9474819999999999,-0.261885,-3.3410660000000005,-0.721823,1.72639,0.07272,0.670713,-0.467837
250,-0.619132,-1.308465,2.496155,-0.150491,0.9657879999999999,-0.21118499999999998,-1.938398,-0.535864,2.224126,0.35302100000000003,0.017824,0.193577
251,-0.48944899999999997,-1.371695,2.612257,-0.09298,0.980245,-0.174551,-2.3366540000000002,1.704261,2.872226,0.23006500000000002,-0.551473,0.746496
252,-0.342951,-1.446468,2.7369,-0.041689,0.992281,-0.116757,-3.192543,0.519861,1.970459,-0.22126500000000002,-0.9927389999999999,0.9856540000000001
253,-0.28936300000000004,-1.498685,2.783195,-0.020541999999999998,0.997401,-0.068997,-1.59989,0.55688,0.392022,-0.54971,-0.553904,0.758175
254,-0.434644,-1.4783309999999998,2.647636,-0.038861,0.9957280000000001,-0.08370599999999999,2.326203,-2.069839,-1.739269,-0.8869360000000001,0.701293,-1.020756
255,-0.634666,-1.335413,2.630794,-0.138265,0.972425,-0.187788,7.855002000000001,-11.761115,-4.813848999999999,-0.440882,3.1446560000000003,-0.273333
256,-0.623839,-1.184705,2.752728,-0.21996999999999997,0.9263879999999999,-0.305632,3.6547449999999997,-0.241128,-0.669452,0.5846399999999999,0.310703,0.300124
257,-0.532501,-1.224431,2.771496,-0.172345,0.9406129999999999,-0.29246700000000003,-2.682235,3.869525,1.685584,0.185605,-0.604248,-1.129042
258,-0.46189600000000003,-1.2674239999999999,2.808551,-0.133127,0.954335,-0.267424,-1.106963,1.276781,1.351669,0.371164,-0.357045,0.207411
259,-0.44578900000000005,-1.2944229999999999,2.795281,-0.117647,0.962051,-0.246189,-1.0665719999999999,1.088055,-0.23625300000000002,0.163331,0.9263610000000001,-0.451428
260,-0.49884399999999995,-1.260657,2.748111,-0.146001,0.952291,-0.267989,2.5525130000000003,-1.0376370000000001,-1.9227459999999998,-0.177531,0.333323,0.44189300000000004
261,-0.527454,-1.186618,2.728285,-0.188644,0.927107,-0.323851,3.092864,0.061715,-2.121206,-0.295075,-0.015211,0.515868
262,-0.515849,-1.112839,2.717291,-0.218081,0.896957,-0.38458000000000003,2.975124,1.612316,-1.909302,-0.373273,-0.600525,0.548765
263,-0.46970100000000004,-1.052275,2.710122,-0.22431399999999999,0.868553,-0.44192,2.236831,3.097801,-1.37473,-0.323889,-1.0491709999999999,0.453471
264,-0.445725,-1.008601,2.68748,-0.2298,0.846087,-0.48096099999999997,1.610587,1.2376340000000001,-1.58182,-0.456067,-1.113497,0.387989
265,-0.47763199999999995,-0.964159,2.6659189999999997,-0.26206399999999996,0.82157,-0.506301,1.8458330000000003,-1.7733729999999999,-1.385106,0.892893,-0.344015,0.804809
266,-0.49468,-0.909537,2.6733439999999997,-0.29154800000000003,0.78922,-0.540489,2.8563080000000003,-0.290734,-0.873611,1.111067,-0.149296,0.267982
267,-0.46622600000000003,-0.868658,2.687642,-0.290321,0.763463,-0.576918,0.828672,1.1051879999999998,-0.550936,0.471549,-0.194691,-0.367784
268,-0.47083100000000006,-0.879173,2.666216,-0.289317,0.770211,-0.568389,-1.157232,0.367317,-0.25301,0.12446099999999999,-0.49283699999999997,-0.211167
269,-0.495331,-0.905387,2.641581,-0.293454,0.786664,-0.543176,-1.8415689999999998,-0.750484,0.154908,0.134778,-0.584363,-0.293692
270,-0.538255,-0.95554,2.621968,-0.29587600000000003,0.816625,-0.495555,-2.795268,-1.5802690000000001,0.964363,-0.004783,0.009165000000000001,-0.019948
271,-0.58639,-1.02104,2.60069,-0.289115,0.8526520000000001,-0.435191,-3.170299,-1.412774,1.493503,-0.177758,0.29702199999999995,-0.319249
272,-0.6099180000000001,-1.0974059999999999,2.5938529999999997,-0.261139,0.890028,-0.373699,-3.273023,-0.41863599999999995,2.32152,-0.325241,0.398257,-0.572438
273,-0.5874550000000001,-1.180195,2.610802,-0.21102100000000001,0.92468,-0.316907,-3.191983,0.661879,2.702057,-0.31800100000000003,0.9302090000000001,-0.779406
274,-0.535342,-1.254678,2.636261,-0.158585,0.950449,-0.267375,-2.712945,1.932553,2.071387,-0.09371900000000001,0.622945,-0.606434
275,-0.47139899999999996,-1.313974,2.669265,-0.115347,0.967202,-0.226291,-2.125784,1.056906,1.8266470000000001,0.074408,-0.10318800000000002,0.21338200000000002
276,-0.403316,-1.371791,2.735404,-0.077581,0.9802639999999999,-0.181814,-2.805421,-0.13267400000000001,2.0659099999999997,-0.028451999999999998,-0.8184140000000001,1.225622
277,-0.382804,-1.448603,2.765421,-0.045515,0.9925440000000001,-0.113034,-3.432519,-0.179422,1.2476049999999999,-0.325075,-0.564443,1.294675
278,-0.5297430000000001,-1.4746139999999999,2.610687,-0.048504000000000005,0.9953780000000001,-0.08283099999999999,-0.019126,-0.043453,-1.0788149999999999,-0.449589,-0.006074,0.117881
279,-0.650524,-1.404793,2.564627,-0.10005599999999999,0.986253,-0.131474,4.585196,-6.836235,-2.790902,-0.127803,1.492553,-0.347621
280,-0.690042,-1.257577,2.686058,-0.196134,0.9513469999999999,-0.237621,7.430596,-6.404215,-3.537495,-0.29736599999999996,2.4988639999999998,-1.067387
281,-0.650095,-1.202383,2.762321,-0.21796999999999997,0.9329,-0.286669,0.30384,1.1087930000000001,0.86506,-0.064104,0.08043600000000001,-0.45257299999999995
282,-0.557955,-1.23357,2.7868009999999996,-0.175174,0.9436760000000001,-0.280681,-1.3559620000000001,4.471573,1.311697,0.062534,-0.480145,0.060252
283,-0.45615200000000006,-1.25971,2.80611,-0.134827,0.952002,-0.274785,-0.489883,3.230274,0.359006,0.13931300000000002,-0.029837,-0.30636199999999997
284,-0.468474,-1.237629,2.777612,-0.147661,0.945011,-0.291792,1.5578450000000001,-0.48914799999999997,-1.543656,0.16478099999999998,0.21303899999999998,-0.134371
285,-0.51027,-1.173059,2.740036,-0.189174,0.92194,-0.337984,2.828127,0.11021700000000001,-2.28117,-0.209431,-0.045872,0.39917199999999997
286,-0.520305,-1.1004770000000001,2.715343,-0.22528800000000002,0.891424,-0.393196,2.9928209999999997,0.801553,-2.150582,-0.240044,-0.363714,0.334785
287,-0.50778,-1.0339049999999999,2.703616,-0.248693,0.859303,-0.446928,2.318684,1.311175,-1.6720400000000002,-0.009807,-0.770069,0.533736
288,-0.5036229999999999,-0.9931909999999999,2.682197,-0.263507,0.837773,-0.478221,1.239401,0.8731760000000001,-1.493147,0.010532,-0.9905290000000001,0.519389
289,-0.5185310000000001,-0.9550379999999999,2.6532869999999997,-0.286248,0.816336,-0.50165,1.384111,0.182894,-1.622642,0.397073,-0.7270260000000001,0.640307
290,-0.528911,-0.9068149999999999,2.642696,-0.31095700000000004,0.7875449999999999,-0.532046,2.302131,0.01485,-1.4205299999999998,0.64305,-0.44358100000000006,0.635516
291,-0.519717,-0.855975,2.64414,-0.325533,0.755211,-0.568929,1.7457639999999999,0.282631,-1.038063,0.8314379999999999,-0.122749,0.269094
292,-0.526542,-0.8556889999999999,2.626496,-0.329517,0.755023,-0.5668810000000001,-1.1189049999999998,0.651352,-0.187945,0.144016,0.074826,-0.13114800000000001
293,-0.5361,-0.8809520000000001,2.60089,-0.32507199999999997,0.771345,-0.547129,-1.690663,0.17311400000000002,0.023387,0.083571,-0.474516,-0.214101
294,-0.5595180000000001,-0.923966,2.581819,-0.31987600000000005,0.797998,-0.510757,-2.4405360000000003,-0.7092149999999999,1.008453,0.030066000000000002,-0.657846,-0.237366
295,-0.588758,-0.984926,2.564965,-0.307052,0.8332309999999999,-0.459825,-3.018022,-0.71055,1.309933,-0.106705,-0.155298,-0.114348
296,-0.618401,-1.0596649999999999,2.5430029999999997,-0.28358099999999997,0.872192,-0.398569,-3.672461,-0.43694099999999997,1.9181700000000002,-0.282337,0.524552,-0.573996
297,-0.6374310000000001,-1.152623,2.522823,-0.24167399999999997,0.913832,-0.32634,-4.2522660000000005,0.132277,2.5959849999999998,-0.326075,0.935197,-0.7794949999999999
298,-0.659741,-1.2532450000000002,2.489122,-0.19137,0.950003,-0.246709,-4.208789,0.870972,2.443654,-0.20481,1.1920870000000001,-0.456233
299,-0.631969,-1.332142,2.486151,-0.139638,0.971657,-0.190727,-2.439266,1.7264810000000002,2.218841,0.11795499999999999,-0.22510500000000003,0.038870999999999996
300,-0.538562,-1.377497,2.560342,-0.098518,0.981376,-0.164889,-1.112667,0.41025600000000007,1.7544349999999997,-0.018945,-0.6815859999999999,0.6133609999999999
301,-0.47593199999999997,-1.416187,2.623471,-0.07054400000000001,0.988072,-0.13685899999999998,-1.496716,0.042279000000000004,1.136929,-0.347974,-0.784047,1.239154
302,-0.525576,-1.426417,2.567367,-0.072173,0.9895950000000001,-0.12443800000000001,0.311309,-0.086248,-1.052951,-0.6013350000000001,0.019804,0.11078199999999999
303,-0.616859,-1.350144,2.5356389999999998,-0.1266,0.9757549999999999,-0.178516,4.564521,-5.02414,-2.788027,-0.463793,0.735793,-0.563809
304,-0.681211,-1.2129450000000002,2.634895,-0.220567,0.936651,-0.272082,7.268344,-7.5911800000000005,-2.803239,0.771303,1.8251279999999999,-0.833311
305,-0.6066739999999999,-1.1483940000000001,2.7089220000000003,-0.23372600000000002,0.912107,-0.336791,0.137163,3.546987,0.26684,0.258384,0.473422,-0.708069
306,-0.543235,-1.1827290000000001,2.705478,-0.19559400000000002,0.925642,-0.32392,-1.869146,3.243018,1.030881,0.057258,-0.40894899999999995,0.204031
307,-0.49801899999999993,-1.228853,2.6964080000000004,-0.160173,0.942105,-0.29458,-2.099654,2.131208,0.880076,0.13478199999999999,-0.42023900000000003,0.17156400000000002
308,-0.523587,-1.247709,2.672778,-0.15874000000000002,0.94826,-0.274953,-0.19509300000000002,-1.6957950000000002,-0.369696,-0.007687,0.497831,0.100439
309,-0.593371,-1.234887,2.641632,-0.18431,0.944111,-0.27327399999999996,0.41614700000000004,-1.6780540000000002,-0.806625,-0.020051,0.425777,-0.076824
310,-0.6124729999999999,-1.210013,2.6472599999999997,-0.20293699999999998,0.9356209999999999,-0.288835,1.450324,-0.9356549999999999,-0.613413,-0.056691,0.14410699999999999,-0.537734
311,-0.603414,-1.173913,2.65841,-0.219344,0.92227,-0.318277,1.5685129999999998,0.495208,-1.031028,-0.134095,-0.097319,-0.401739
312,-0.593166,-1.133073,2.650436,-0.23694,0.905719,-0.351465,1.673434,1.091017,-1.467961,-0.128202,-0.037006,0.011422
313,-0.585154,-1.082692,2.625295,-0.259013,0.883223,-0.390928,1.775168,1.769571,-2.065212,-0.158376,-0.248946,0.532651
314,-0.5786859999999999,-1.034948,2.5945840000000002,-0.27924099999999996,0.859836,-0.427437,1.545016,1.395367,-1.792875,-0.087885,-0.5712010000000001,0.608513
315,-0.596807,-0.985568,2.577693,-0.31044299999999997,0.833586,-0.45689799999999997,2.0077580000000004,-1.715943,-1.751473,-0.034848000000000004,-0.385893,0.623112
316,-0.6350060000000001,-0.9115700000000001,2.58431,-0.36332600000000004,0.790466,-0.49310699999999996,4.049975,-1.138686,-2.158827,0.381651,0.14354,1.033741
317,-0.6001810000000001,-0.8198790000000001,2.61649,-0.385362,0.731063,-0.563063,3.634287,0.665321,-1.39065,0.623109,0.32605,-1.317369
318,-0.608358,-0.800816,2.60911,-0.397847,0.717924,-0.571227,-0.176508,-0.031437,-0.46886300000000003,0.49197799999999997,0.348146,-0.166231
319,-0.598237,-0.8097810000000001,2.5984580000000004,-0.38840399999999997,0.724136,-0.569883,-0.752096,1.130495,0.10033099999999999,-0.389702,-0.480896,0.048658
320,-0.586536,-0.8309340000000001,2.591319,-0.373147,0.7385609999999999,-0.561503,-1.14909,0.5073880000000001,0.6901520000000001,-0.214392,-0.611166,-0.058217
321,-0.58048,-0.871343,2.601988,-0.353075,0.7651939999999999,-0.538343,-1.78125,-0.362191,1.848008,0.034456,-0.354351,-0.289644
322,-0.5783550000000001,-0.9383290000000001,2.619567,-0.323142,0.8065720000000001,-0.49499399999999993,-2.962012,-0.659787,2.434072,0.085242,-0.443992,-0.373537
323,-0.592026,-1.026484,2.621034,-0.28897,0.855484,-0.42969799999999997,-3.9786089999999996,-0.803496,2.490181,0.156935,-0.562149,-0.31364899999999996
324,-0.616797,-1.123833,2.611611,-0.25001,0.9017639999999999,-0.352581,-4.182768,-0.73098,2.647827,0.20533200000000001,-0.502289,-0.195774
325,-0.644776,-1.2220010000000001,2.5869470000000003,-0.205404,0.939785,-0.273146,-4.283244,0.09411599999999999,2.325601,0.18305,0.018345,0.23335100000000003
326,-0.683346,-1.315252,2.525811,-0.159592,0.967526,-0.196008,-4.225556,1.517088,2.068876,0.233902,0.042758,0.286035
327,-0.779313,-1.400372,2.39133,-0.119182,0.985513,-0.12064200000000001,-3.96426,1.739644,1.598262,0.20765300000000003,-0.13366,0.28294899999999995
328,-1.000183,-1.4585,2.1471139999999997,-0.09428500000000001,0.9937010000000001,-0.060515,-2.558178,0.498841,0.8523040000000001,-0.222137,-0.414829,0.555358
329,-1.2575889999999998,-1.477279,1.901032,-0.088811,0.9956299999999999,-0.028763,-0.936565,-1.361041,-0.041974000000000004,-0.354961,-0.055475,0.471787
330,-1.246679,-1.4575850000000001,1.96215,-0.10706600000000001,0.993598,-0.03597,2.004051,-3.4141760000000003,-1.436334,-0.46343,0.2286,0.037206
331,-0.966843,-1.380172,2.368679,-0.155943,0.981886,-0.10759400000000001,5.171245,-7.238421000000001,-2.073744,-0.607576,1.540483,-0.9134180000000001
332,-0.9020889999999999,-1.285652,2.572304,-0.220705,0.959621,-0.17439100000000002,3.977779,-4.081207,-2.5710990000000002,0.530138,2.3203009999999997,-1.455874
333,-0.743179,-1.257831,2.649052,-0.20831799999999998,0.951425,-0.226694,-0.331413,7.234066,0.914775,0.567647,0.694129,-0.491537
334,-0.618501,-1.314725,2.623352,-0.146852,0.967392,-0.206355,-2.997223,6.52917,1.547604,0.12283499999999999,-0.40173400000000004,-0.632238
335,-0.6176659999999999,-1.351425,2.586827,-0.126023,0.976035,-0.1774,-0.5292560000000001,-1.749829,-0.137976,0.19345199999999999,0.112924,-0.043837
336,-0.729979,-1.330657,2.53493,-0.158599,0.971305,-0.177229,0.718105,-2.7748049999999997,-1.438658,0.28727600000000003,0.453042,0.532057
337,-0.758126,-1.2820129999999998,2.551059,-0.195804,0.958591,-0.20678600000000003,2.865367,-2.0392770000000002,-1.557061,0.06821,0.50755,-0.043824
338,-0.712463,-1.206634,2.623755,-0.232823,0.934422,-0.269527,3.5870699999999998,-0.377398,-1.6620400000000002,-0.355769,-0.117528,0.22156900000000002
339,-0.652163,-1.141382,2.669639,-0.252676,0.9092100000000001,-0.330891,2.746237,1.511221,-1.171474,-0.486642,-0.36578299999999997,0.227223
340,-0.596527,-1.094435,2.6898470000000003,-0.257598,0.888669,-0.37935100000000005,1.6824700000000001,1.684605,-0.9847100000000001,-0.274964,-0.912855,0.24785100000000002
341,-0.601097,-1.073918,2.6815290000000003,-0.269586,0.879075,-0.393127,0.368607,-0.643247,-0.589253,-0.13361199999999998,-1.076707,0.5131220000000001
342,-0.62712,-1.062438,2.68436,-0.285627,0.8735450000000001,-0.394124,0.790165,-1.8119900000000002,-0.122271,0.364057,-0.927851,0.623754
343,-0.6260789999999999,-1.041407,2.7139849999999996,-0.29591799999999996,0.863116,-0.409221,1.479343,-0.6307689999999999,0.12138,0.85114,-0.598589,0.5832470000000001
344,-0.590017,-1.022793,2.754114,-0.28986100000000004,0.853567,-0.4329,1.1360370000000002,0.472578,0.22225300000000003,0.739904,-0.312795,-0.186622
345,-0.5841649999999999,-1.0303209999999998,2.747434,-0.283771,0.8574639999999999,-0.429217,-1.381743,0.443193,0.163044,-0.011531999999999999,-0.368664,-0.231046
346,-0.600187,-1.065955,2.719385,-0.273173,0.875251,-0.399135,-2.0527889999999998,0.40863,0.596372,0.073451,-0.426551,-0.14818199999999998
347,-0.624007,-1.114364,2.689133,-0.257524,0.897631,-0.357684,-2.6354130000000002,-0.037915,0.883431,0.23091199999999998,-0.217394,-0.115995
348,-0.678629,-1.17449,2.632276,-0.242308,0.922493,-0.300483,-3.3892269999999995,-0.171632,0.877268,0.017058,0.12011,-0.088479
349,-0.776958,-1.245075,2.528294,-0.224346,0.94742,-0.22816599999999998,-4.055623000000001,0.16738499999999998,1.123211,-0.545566,0.820738,-0.202529
350,-0.871008,-1.322035,2.410134,-0.188333,0.969218,-0.158563,-3.502535,1.3508879999999999,1.979067,-0.673315,1.362462,-0.45866999999999997
351,-0.8840520000000001,-1.381109,2.373248,-0.145799,0.9820629999999999,-0.11953699999999999,-1.166339,0.9903719999999999,1.9317540000000002,0.023408,0.257423,-0.845352
352,-0.754401,-1.4051639999999999,2.501528,-0.11290499999999999,0.9863139999999999,-0.12013,0.143995,-0.87329,1.4529809999999999,0.044788999999999995,-1.2474530000000001,-0.006228
353,-0.747096,-1.433805,2.541923,-0.092782,0.9906309999999999,-0.100176,-1.7378470000000001,-1.0746870000000002,0.969009,-0.138801,-1.238526,0.810244
354,-1.093741,-1.461403,2.16895,-0.096963,0.994022,-0.050117,-2.59311,2.438039,-1.078566,-0.240135,-0.045673000000000005,1.239982
355,-1.381209,-1.441474,1.8190849999999998,-0.12663,0.99165,-0.024299,-0.845291,2.4021630000000003,-1.879228,0.101346,1.3560219999999998,0.324424
356,-1.198108,-1.400898,2.012365,-0.15746,0.9856020000000001,-0.061561000000000005,3.573812,-1.8399009999999998,-0.8825930000000001,0.845037,1.5375,-0.15293199999999998
357,-1.047144,-1.3871209999999998,2.187671,-0.158157,0.9831790000000001,-0.091323,0.174198,-0.195881,0.389444,0.16104100000000002,0.622931,0.27095
358,-1.0888950000000002,-1.3910129999999998,2.193308,-0.15843800000000002,0.983883,-0.082868,0.293864,-4.312151999999999,0.03129,-0.256967,0.42599899999999996,-1.50841
359,-1.195338,-1.39681,2.129634,-0.16103499999999998,0.9849030000000001,-0.063473,-1.640034,0.34108,0.082322,0.35206,-0.075708,0.102596
360,-1.440225,-1.414733,1.8229229999999998,-0.154087,0.9878469999999999,-0.020234000000000002,-2.921109,3.4882050000000002,0.318236,0.389301,-0.05143,-0.071532
361,-1.73537,-1.420499,1.457702,-0.14768499999999998,0.988727,0.024527,-2.617487,3.085807,0.25250700000000004,0.416774,-0.0983,0.101221
362,-1.946832,-1.407464,1.194149,-0.151224,0.986691,0.059707,-1.825579,1.9441130000000002,-0.237222,0.101008,-0.276028,0.008744
363,-2.0519380000000003,-1.388366,1.069053,-0.160805,0.983406,0.08395,-1.1116979999999999,0.273447,-0.511037,0.010704,-0.32260900000000003,-0.171017
364,-2.118309,-1.367575,1.014003,-0.172309,0.9794209999999999,0.105055,-1.091609,-1.178682,-0.738664,0.012320999999999999,-0.126745,-0.640364
365,-2.236038,-1.33394,0.921696,-0.184603,0.9720799999999999,0.14482799999999998,-2.038339,-0.865094,-0.816181,0.15467999999999998,-0.164906,-0.32006
366,-2.2372009999999998,-1.303656,0.8901459999999999,-0.20748699999999998,0.9645299999999999,0.163172,-0.704286,2.7501290000000003,-1.092438,0.367979,-0.207602,-0.13418
367,-2.139207,-1.282044,0.934738,-0.239971,0.9586,0.153276,0.249166,2.2659830000000003,-1.258209,0.182079,-0.158887,-0.36694499999999997
368,-2.037912,-1.266972,1.029925,-0.267113,0.954199,0.134716,1.239062,-0.569294,-1.438874,0.12203199999999999,-0.269568,-0.33123400000000003
369,-1.9165439999999998,-1.251287,1.195547,-0.295504,0.94939,0.106446,2.481591,-2.272084,-1.8627790000000002,0.198382,-0.51453,-0.123108
370,-1.75177,-1.2345540000000002,1.403901,-0.324545,0.944001,0.059384000000000006,3.2803440000000004,-1.023619,-1.4806489999999999,0.354025,0.5454399999999999,0.367633
371,-1.54926,-1.224607,1.624995,-0.339229,0.940673,-0.007306999999999999,3.7488330000000003,0.06780900000000001,-0.170203,0.47944200000000003,1.255647,0.515562
372,-1.342424,-1.238319,1.853466,-0.317905,0.9452370000000001,-0.07389,3.5298510000000003,-0.911792,1.768346,0.242984,1.8330229999999998,0.297553
373,-1.1780389999999998,-1.259642,2.054563,-0.282839,0.951981,-0.117175,2.215806,-1.31931,1.98722,-0.537809,0.974411,0.20589000000000002
374,-1.027854,-1.273911,2.239284,-0.250467,0.956252,-0.151141,2.298293,-1.582316,1.886652,-0.44942299999999996,1.002946,0.008502
375,-0.887972,-1.27223,2.431618,-0.228194,0.955759,-0.185601,2.3400369999999997,-2.4129959999999997,1.259894,0.185134,0.968374,-0.086845
376,-0.786071,-1.261758,2.606774,-0.21520100000000003,0.952627,-0.21491100000000002,2.019286,-4.2153279999999995,1.508859,0.5350560000000001,1.011958,-0.08056
377,-0.7423,-1.262569,2.7713400000000004,-0.20506799999999997,0.952873,-0.22355300000000003,1.8375569999999999,-5.73244,1.972074,0.5219020000000001,0.784355,0.414074
378,-0.65451,-1.253428,2.959038,-0.189973,0.95006,-0.247572,2.267131,-4.092711,1.7988529999999998,0.39602800000000005,0.684675,0.442747
379,-0.5912810000000001,-1.236741,3.109271,-0.182763,0.9447200000000001,-0.27220700000000003,1.9080990000000002,-3.797439,1.263992,-0.11206700000000001,0.029508,0.500051
380,-0.556553,-1.222524,-3.062223,-0.180279,0.9399639999999999,-0.289765,1.436181,-3.50774,1.154571,-0.24747,-0.482612,0.5379189999999999
381,-0.544946,-1.211724,-2.9738569999999998,-0.18215599999999998,0.9362229999999999,-0.300502,1.18822,-3.559372,0.961693,-0.221561,-0.638265,0.519725
382,-0.541161,-1.207287,-2.894689,-0.18315499999999998,0.9346549999999999,-0.304746,0.672072,-3.5042190000000004,1.20264,0.17691400000000002,-0.781472,0.302106
383,-0.55671,-1.215451,-2.835599,-0.183833,0.937526,-0.295373,-0.095038,-3.433775,1.034822,0.269801,-0.7211420000000001,0.37082800000000005
384,-0.576629,-1.2338770000000001,-2.801847,-0.18023,0.9437780000000001,-0.277123,-0.662371,-2.024282,0.960686,0.168481,-0.6734220000000001,0.33608299999999997
385,-0.5899449999999999,-1.261239,-2.786483,-0.16947,0.952468,-0.253139,-1.2298850000000001,-1.075208,0.9416190000000001,-0.214151,-0.715698,0.22771799999999998
386,-0.628944,-1.296371,-2.814192,-0.159418,0.9625809999999999,-0.21913200000000002,-1.9207619999999999,-0.45108000000000004,0.506568,-0.266256,-0.725719,0.089692
387,-0.700282,-1.326814,-2.882357,-0.155669,0.970384,-0.184711,-1.449797,-0.24031599999999997,0.138915,-0.262102,-0.22923400000000002,-0.10828900000000001
388,-0.7417279999999999,-1.3346149999999999,-2.915189,-0.15806900000000002,0.972239,-0.172515,0.143362,-0.668818,-0.111122,-0.172894,0.7594810000000001,-0.6074069999999999
389,-0.7041029999999999,-1.302118,-2.851452,-0.17183800000000002,0.964123,-0.202323,2.675039,-2.156366,-0.8670610000000001,-0.136252,1.6908,-1.129556
390,-0.7213729999999999,-1.237322,-2.761021,-0.216169,0.9449110000000001,-0.245786,3.7078050000000005,-6.51976,-0.9568049999999999,0.047695999999999995,0.09479299999999999,-0.485965
391,-0.740109,-1.172489,-2.6398919999999997,-0.261556,0.9217190000000001,-0.286389,3.6648690000000004,-6.216287,-0.355017,0.267904,-1.2169459999999999,-0.205539
392,-0.764342,-1.140643,-2.5462700000000003,-0.288594,0.9089020000000001,-0.30101,1.4220110000000001,-4.794521,0.882656,0.8961379999999999,-1.664944,0.238144
393,-0.7546930000000001,-1.159563,-2.486908,-0.273845,0.9166290000000001,-0.2912,-0.079011,-0.544617,1.786464,0.9426829999999999,0.098554,0.857224
394,-0.668135,-1.187969,-2.477389,-0.23141599999999998,0.9276120000000001,-0.29322,-1.439343,5.661215,0.153858,0.8324600000000001,2.931,0.538582
395,-0.591547,-1.175273,-2.489147,-0.21485300000000002,0.922795,-0.319818,1.489277,3.181911,-0.417508,0.600214,1.9178580000000003,0.713388
396,-0.6322479999999999,-1.153409,-2.502177,-0.23955700000000002,0.914151,-0.32701199999999997,0.121076,-3.9831809999999996,-1.083385,-0.674216,-0.148526,0.782975
397,-0.752304,-1.133134,-2.531702,-0.289605,0.905745,-0.30943699999999996,0.9799770000000001,-4.869493,-1.0281799999999999,-0.716453,-1.20175,0.116505
398,-0.826685,-1.099083,-2.491476,-0.334304,0.890791,-0.30778,1.886982,-5.3992830000000005,-0.396256,-0.098389,0.074068,-0.08978799999999999
399,-0.8885129999999999,-1.096004,-2.5011900000000002,-0.35481,0.889387,-0.288263,-1.8291009999999999,-0.41785500000000003,-0.155132,0.29469,0.608934,-0.048742
400,-0.968825,-1.159858,-2.655549,-0.32924699999999996,0.916747,-0.226204,-5.523568,4.1856230000000005,1.0758020000000001,0.77546,0.652345,0.205025
401,-1.072676,-1.2379879999999999,-2.852119,-0.286993,0.9451290000000001,-0.156085,-4.3793,3.2692810000000003,1.466324,0.678991,0.883393,-0.015698
402,-1.179278,-1.2871700000000001,-2.998519,-0.258655,0.960047,-0.106781,-2.339493,0.844016,1.204874,0.563145,0.22490500000000002,0.406052
403,-1.2708629999999999,-1.321275,-3.0878509999999997,-0.23590500000000003,0.969031,-0.07295700000000001,-1.531639,-0.89045,1.086689,0.255269,-0.341986,0.335606
404,-1.4066379999999998,-1.341883,3.087283,-0.223856,0.973914,-0.037082,-1.398065,-1.9472650000000002,0.454453,-0.11006700000000001,-0.38962399999999997,-0.055875
405,-1.556674,-1.3455709999999999,2.993191,-0.22329000000000002,0.974744,-0.003154,-0.860066,-3.5642400000000003,-0.039645,-0.23049099999999997,-0.347486,-0.222615
406,-1.693671,-1.345316,2.9361099999999998,-0.22187600000000002,0.9746870000000001,0.027401,-0.5758409999999999,-4.083345,0.059145,-0.135378,-0.17386,-0.30982600000000005
407,-1.826007,-1.34409,2.860244,-0.217477,0.9744120000000001,0.05674,-1.097742,-1.912934,0.133903,-0.045554000000000004,-0.16414,-0.30825
408,-1.944127,-1.339553,2.7405209999999998,-0.213391,0.973382,0.083585,-1.421618,0.8969379999999999,0.22952199999999998,0.076321,-0.186593,-0.247709
409,-2.0224159999999998,-1.3308799999999998,2.623746,-0.213788,0.9713579999999999,0.103699,-1.432826,2.061886,0.08908200000000001,0.168744,-0.220259,-0.110108
410,-2.080263,-1.316853,2.520046,-0.219309,0.967929,0.122519,-1.428268,2.1606919999999996,-0.11504400000000001,0.18809,-0.156452,-0.049094
411,-2.11176,-1.300274,2.440293,-0.229069,0.9636319999999999,0.13761099999999998,-1.256458,2.305381,-0.21657800000000002,0.267475,-0.060479,0.029015
412,-2.154904,-1.2824950000000002,2.360709,-0.23717600000000003,0.958728,0.15678699999999998,-1.578616,0.9809379999999999,-0.127401,0.28779,0.20835599999999999,-0.15433
413,-2.245099,-1.261168,2.278689,-0.238011,0.9524469999999999,0.19023800000000002,-1.452742,-1.47465,-0.20456,0.357777,0.348029,-0.246268
414,-2.3110880000000003,-1.247169,2.2592220000000003,-0.23476999999999998,0.9480879999999999,0.214491,-0.149834,-2.631838,-0.459963,0.489683,0.316042,-0.260924
415,-2.32856,-1.242525,2.2868630000000003,-0.23418200000000003,0.946601,0.221584,0.12436300000000002,-1.7990959999999998,-0.340503,0.251882,0.492196,-0.353633
416,-2.369662,-1.237115,2.271137,-0.228448,0.944843,0.234686,-0.658956,-1.131435,0.13814300000000002,-0.001685,0.57481,-0.788427
417,-2.397248,-1.233829,2.266542,-0.223991,0.9437620000000001,0.24318,0.464876,-1.022734,-0.31348200000000004,-0.09804600000000001,0.6534369999999999,-0.73816
418,-2.33255,-1.242799,2.344277,-0.233109,0.9466889999999999,0.222338,1.354056,-0.327706,-0.668153,0.618256,0.49786,-0.263934
419,-2.235629,-1.257837,2.449925,-0.242298,0.951427,0.189932,2.007534,-0.11930299999999999,-0.338047,0.8519629999999999,0.267522,0.014597
420,-2.12014,-1.2806629999999999,2.5828189999999998,-0.243981,0.958206,0.149366,2.441135,-1.103418,-0.231208,0.851967,0.134827,0.059573
421,-1.982959,-1.295334,2.780008,-0.249207,0.962299,0.108955,2.950027,-3.3930190000000002,-0.857107,0.29036,0.06655499999999999,0.061715
422,-1.8247060000000002,-1.299305,3.021779,-0.259561,0.9633719999999999,0.067359,3.2162610000000003,-3.72212,-0.838802,0.07641,0.089271,0.104333
423,-1.637584,-1.298163,-2.9912,-0.26866,0.963065,0.01797,3.861445,-3.473157,-0.521626,0.106398,0.43714200000000003,0.15607200000000002
424,-1.404115,-1.287641,-2.703569,-0.275507,0.9601790000000001,-0.046352,3.791092,-1.220158,-0.17996900000000002,0.291407,0.857051,0.365154
425,-1.223568,-1.274426,-2.5060130000000003,-0.274615,0.9564030000000001,-0.099381,2.222229,-0.440874,0.23856799999999997,0.32652600000000004,0.9264709999999999,0.20755
426,-1.183714,-1.276292,-2.418909,-0.268784,0.956946,-0.109569,0.627324,-3.5052220000000003,0.708849,0.235688,0.793588,0.37153200000000003
427,-1.220876,-1.2866819999999999,-2.347314,-0.263315,0.95991,-0.096094,1.207918,-5.897357,0.885817,0.31217399999999995,0.47705600000000004,0.673441
428,-1.192915,-1.284334,-2.185977,-0.262619,0.95925,-0.104249,2.5532369999999998,-6.76231,0.506422,0.443985,0.169916,0.558427
429,-1.141952,-1.268442,-1.9916909999999999,-0.2708,0.9546379999999999,-0.12381600000000001,3.057771,-6.488512,0.33013400000000004,0.44305600000000006,0.058820000000000004,0.425543
430,-1.05691,-1.2443030000000002,-1.787723,-0.27929499999999996,0.9471729999999999,-0.157654,3.557121,-4.775325,0.374155,0.35236999999999996,0.027299,0.35076999999999997
431,-0.95036,-1.211864,-1.5884530000000001,-0.28580300000000003,0.9362719999999999,-0.204226,3.6875910000000003,-3.902623,0.466884,0.31641199999999997,-0.175271,0.190966
432,-0.8729979999999999,-1.180599,-1.4174280000000001,-0.29146,0.924834,-0.24439899999999998,3.16621,-4.1442239999999995,0.864135,0.239229,-0.440917,0.209013
433,-0.8308059999999999,-1.1640549999999998,-1.281432,-0.292152,0.918415,-0.266756,2.112347,-4.18577,1.244591,0.417473,-0.496097,0.318971
434,-0.822254,-1.16394,-1.180777,-0.289937,0.91837,-0.269316,1.144984,-4.240385,1.355408,0.455495,-0.514225,0.43073900000000004
435,-0.8251569999999999,-1.169516,-1.099772,-0.286952,0.9205620000000001,-0.264995,0.9572649999999999,-3.636301,1.233682,0.463236,-0.46169899999999997,0.539546
436,-0.8230040000000001,-1.1714639999999998,-1.02491,-0.285065,0.921321,-0.264392,1.030029,-3.14226,0.9665020000000001,0.38856599999999997,-0.314906,0.540775
437,-0.809729,-1.174859,-0.95136,-0.279264,0.922635,-0.265995,0.796954,-2.482165,1.262062,0.224836,-0.36009,0.456165
438,-0.78438,-1.191956,-0.8775940000000001,-0.26125,0.9290940000000001,-0.261783,0.13683499999999998,-1.9406290000000002,1.739593,-0.093013,-0.503847,0.206287
439,-0.757141,-1.2202870000000001,-0.8167770000000001,-0.235844,0.939198,-0.24956399999999998,-0.478465,-1.179938,1.719366,-0.092632,-0.501973,0.18038099999999999
440,-0.7356739999999999,-1.251944,-0.7803140000000001,-0.21036799999999997,0.9495959999999999,-0.232402,-0.883857,-0.326006,1.3768129999999998,-0.119817,-0.26409499999999997,-0.041477999999999994
441,-0.711121,-1.2822,-0.76305,-0.185755,0.958644,-0.21562399999999998,-0.93205,0.826656,1.144264,-0.109975,-0.090236,-0.254362
442,-0.6476390000000001,-1.303584,-0.7219869999999999,-0.159296,0.964511,-0.21057399999999998,-0.09568600000000001,1.3814440000000001,1.007321,-0.012884,0.517408,-0.637113
443,-0.5983390000000001,-1.303204,-0.6776340000000001,-0.148931,0.96441,-0.21846999999999997,0.521058,-0.926592,0.103394,0.020529,1.1418979999999999,-0.929067
444,-0.630271,-1.281842,-0.649858,-0.167936,0.958542,-0.23019699999999998,1.7402259999999998,-3.908229,-0.437609,-0.026431,0.546462,-0.688474
445,-0.612765,-1.216513,-0.532091,-0.199521,0.937895,-0.28379699999999997,4.95481,-5.051955,-0.38911999999999997,0.131299,0.32541,-0.45791800000000005
446,-0.6049939999999999,-1.132707,-0.420376,-0.241271,0.9055639999999999,-0.34891300000000003,3.764325,-3.827115,-0.631877,0.89099,0.969772,1.311208
447,-0.571271,-1.119421,-0.38389,-0.235854,0.899848,-0.366938,-0.576166,2.444293,0.9652149999999999,0.8204030000000001,-0.195106,1.84962
448,-0.46427299999999994,-1.184547,-0.36691799999999997,-0.168682,0.9263290000000001,-0.336837,-3.650458,5.490057,1.9952419999999997,0.661388,-1.275862,1.9963369999999998
449,-0.429713,-1.250321,-0.435443,-0.13123800000000002,0.9490860000000001,-0.28637399999999996,-2.761316,3.287669,-0.786989,-0.374805,-0.678532,0.5751310000000001
450,-0.593125,-1.20989,-0.530496,-0.197377,0.935577,-0.29280500000000004,2.706425,-7.220994,-3.196514,-0.423442,1.4835049999999999,-0.061397
451,-0.744262,-1.14011,-0.553309,-0.28281999999999996,0.9086799999999999,-0.307102,1.6675400000000002,-4.648898,-1.6293030000000002,-0.244981,1.760144,0.754566
452,-0.756031,-1.1512639999999998,-0.539199,-0.279445,0.9132790000000001,-0.29635900000000004,-1.041523,0.5700189999999999,1.747373,0.48813900000000005,0.364919,-0.117444
453,-0.6898569999999999,-1.193367,-0.508666,-0.23454099999999997,0.929615,-0.28425900000000004,-0.9503530000000001,1.9487860000000001,1.593488,0.465315,0.051006,-0.663784
454,-0.62925,-1.219001,-0.469316,-0.202798,0.9387559999999999,-0.278582,-0.574817,1.162549,1.284129,0.133325,-0.260701,-0.231535
455,-0.555121,-1.252353,-0.433379,-0.16501,0.949724,-0.266071,-1.3810440000000002,2.411896,1.505496,0.028886000000000002,-0.5123,0.083636
456,-0.49565699999999996,-1.293118,-0.412263,-0.130373,0.961694,-0.241129,-1.604171,1.447244,1.04477,0.131472,-0.375375,-0.039754000000000005
457,-0.48100200000000004,-1.320049,-0.413919,-0.114798,0.968727,-0.219967,-0.8699899999999999,0.5908399999999999,0.389766,0.188528,-0.19651,0.086086
458,-0.47476199999999996,-1.326864,-0.413152,-0.110402,0.9703959999999999,-0.214802,0.009068999999999999,0.045672000000000004,0.09750299999999999,0.06902,-0.18649100000000002,-0.10167999999999999
459,-0.45883100000000004,-1.321934,-0.39056,-0.10908399999999999,0.9691930000000001,-0.22082,0.5142869999999999,-0.459214,0.178591,0.008177,-0.27264499999999997,-0.194509
460,-0.44092299999999995,-1.309099,-0.351578,-0.11041300000000001,0.965952,-0.233971,0.922897,-1.47983,0.11118199999999999,-0.225937,-0.418436,-0.75634
461,-0.461704,-1.293651,-0.332881,-0.12188399999999999,0.961841,-0.244956,0.6561670000000001,-1.8502610000000002,-0.26087899999999997,-0.230533,-0.43429799999999996,-0.615334
462,-0.488633,-1.280672,-0.34484499999999996,-0.134285,0.958208,-0.252589,0.46994300000000006,-0.121682,-0.541065,-0.031273,-0.365008,-0.377263
463,-0.500926,-1.263789,-0.365996,-0.145129,0.953242,-0.265072,0.720549,0.5952109999999999,-0.748536,0.271563,0.15929100000000002,-0.30345500000000003
464,-0.501456,-1.234224,-0.380785,-0.158751,0.943892,-0.289589,1.505491,0.69811,-1.054038,0.271925,0.14087,-0.18244200000000002
465,-0.502728,-1.1879309999999998,-0.394872,-0.17999500000000002,0.9275979999999999,-0.327353,2.136205,0.494384,-1.535412,0.19372799999999998,0.051894,-0.029367
466,-0.524029,-1.136361,-0.42039799999999994,-0.21060399999999999,0.907108,-0.36441399999999996,1.630916,-0.282933,-1.698145,0.12813,-0.297687,0.45251800000000003
467,-0.581403,-1.104589,-0.464854,-0.246862,0.89328,-0.37564200000000003,0.605113,-1.095422,-1.6871770000000001,0.020253999999999998,-0.597122,0.6328590000000001
468,-0.6262939999999999,-1.0600180000000001,-0.502364,-0.286539,0.872365,-0.396071,1.8929599999999998,0.010314,-2.264984,0.108286,-0.617863,0.896956
469,-0.633706,-0.985786,-0.52095,-0.32698,0.833706,-0.444988,3.1434729999999997,0.43121400000000004,-2.578323,0.372436,-0.000393,0.828472
470,-0.617822,-0.890799,-0.5108779999999999,-0.364233,0.777574,-0.5125529999999999,4.618593,0.428929,-2.486832,0.164846,0.9209729999999999,0.526713
471,-0.586457,-0.794094,-0.48167,-0.38790399999999997,0.713229,-0.583809,3.7486940000000004,0.540265,-1.338303,-0.122884,0.800702,-1.132744
472,-0.576033,-0.7748010000000001,-0.477918,-0.389221,0.699574,-0.59925,-0.075476,0.217467,-0.15110099999999999,0.299652,-0.055607000000000004,0.027977
473,-0.5673189999999999,-0.789788,-0.483074,-0.378307,0.710204,-0.593709,-1.023888,0.8595309999999999,0.478112,0.288738,-0.066238,0.022436
474,-0.5517029999999999,-0.826809,-0.481364,-0.35496,0.7357739999999999,-0.576747,-1.950452,0.5212,1.4398819999999999,-0.125326,-0.581752,-0.21703000000000003
475,-0.539986,-0.8939389999999999,-0.47549399999999997,-0.32201799999999997,0.7795449999999999,-0.537225,-3.233695,0.315153,2.130868,-0.02367,-0.571858,-0.165671
476,-0.5298970000000001,-0.983079,-0.47147799999999995,-0.28024899999999997,0.832208,-0.478421,-4.018225,0.363282,2.4959990000000003,0.030966000000000004,-0.384653,-0.13533299999999998
477,-0.513884,-1.082124,-0.46425900000000003,-0.230765,0.882957,-0.408817,-4.267803,0.579598,2.6958729999999997,0.08045,-0.094322,-0.21587800000000001
478,-0.48719399999999996,-1.183915,-0.44721000000000005,-0.17663099999999998,0.92609,-0.333399,-4.282526,0.469605,2.7760279999999997,0.21787600000000001,0.457012,-0.172537
479,-0.468454,-1.2812379999999999,-0.430342,-0.128915,0.95837,-0.254762,-4.037831,-0.023214,2.1972560000000003,0.577829,0.799854,0.059907
480,-0.402066,-1.354447,-0.36333699999999997,-0.083999,0.9766879999999999,-0.197537,-2.239266,0.11051500000000002,2.626254,0.405547,-0.507358,0.461941
481,-0.201133,-1.407678,-0.14161400000000002,-0.03244,0.986726,-0.159108,-1.768473,-1.383987,2.730802,0.118851,-0.8729870000000001,0.584447
482,0.026463,-1.437353,0.13231500000000002,0.00352,0.99111,-0.132982,-0.759392,-2.426497,1.4925709999999999,-0.256999,-0.504522,0.45840600000000004
483,-0.142565,-1.426609,0.015897,-0.020413,0.9896229999999999,-0.142214,0.868015,-2.428229,-2.410024,-0.470538,0.6188819999999999,0.46010100000000004
484,-0.498097,-1.3437629999999998,-0.26760500000000004,-0.10753199999999999,0.9743379999999999,-0.197729,5.291146,-5.637567,-3.6632910000000005,-0.491071,1.396267,0.240423
485,-0.520015,-1.2258440000000002,-0.198856,-0.168022,0.941092,-0.29344699999999996,3.507219,-0.933249,-1.069978,-0.295387,0.973978,0.629232
486,-0.481501,-1.198337,-0.180561,-0.168527,0.931435,-0.32252600000000003,1.194466,0.26418400000000003,-0.41361899999999996,0.377389,0.185142,0.018602
487,-0.45407,-1.189041,-0.178704,-0.163408,0.9280120000000001,-0.334794,-0.5194270000000001,2.807716,0.092443,0.495958,-0.140003,0.39889600000000003
488,-0.40294800000000003,-1.208205,-0.19578800000000002,-0.139087,0.934981,-0.326286,-0.668772,2.836791,-0.12228199999999999,0.194888,0.304842,-0.24108200000000002
489,-0.40833600000000003,-1.1865649999999999,-0.22214,-0.148843,0.9270870000000001,-0.344024,1.219054,0.275486,-1.12917,0.071939,0.302451,0.146865
490,-0.45508699999999996,-1.153734,-0.24629600000000001,-0.178046,0.914283,-0.363845,1.579613,-2.141686,-1.159874,-0.014474,-0.017203,0.105316
491,-0.492579,-1.096514,-0.26471,-0.21597199999999997,0.8896209999999999,-0.402403,2.569598,0.085732,-1.9986400000000002,-0.04477,-0.480731,0.245435
492,-0.491829,-1.032559,-0.297173,-0.242079,0.858614,-0.45186000000000004,2.346374,1.96859,-2.2002330000000003,-0.045442,-0.554765,0.44085799999999997
493,-0.480116,-0.982404,-0.328449,-0.256355,0.831834,-0.49227200000000004,1.451074,1.621734,-1.7969130000000002,-0.083672,-0.720933,0.5812149999999999
494,-0.5264300000000001,-0.94778,-0.374936,-0.293172,0.812122,-0.5044850000000001,0.750607,-1.7479810000000002,-2.19273,0.024495,-0.741261,0.8304889999999999
495,-0.591475,-0.901791,-0.407756,-0.345817,0.784439,-0.514843,1.91638,-1.469041,-1.831363,0.450492,0.012847999999999998,0.454113
496,-0.592446,-0.849118,-0.408958,-0.368898,0.750698,-0.5480550000000001,1.8883020000000001,0.615924,-1.3300299999999998,0.25102399999999997,0.474156,-0.324961
497,-0.5898720000000001,-0.8310049999999999,-0.423375,-0.37498899999999996,0.738609,-0.560212,-0.105253,0.6394989999999999,-0.703052,0.383488,0.0868,0.141266
498,-0.600904,-0.830966,-0.44031400000000004,-0.38116300000000003,0.738583,-0.5560649999999999,-0.46913299999999997,-0.351746,-0.25353400000000004,-0.28978200000000004,-0.278454,-0.110424
499,-0.621396,-0.8539260000000001,-0.4484,-0.382502,0.753866,-0.5342060000000001,-1.3849120000000001,-0.772659,0.837672,-0.12113,0.132654,0.026562
500,-0.631162,-0.895339,-0.444921,-0.36895100000000003,0.780421,-0.504792,-1.7720619999999998,-0.5142180000000001,1.543936,-0.181449,0.148351,-0.264342
501,-0.618074,-0.9476829999999999,-0.434087,-0.338156,0.8120649999999999,-0.475603,-2.008151,0.719839,1.8974919999999997,0.046515,-0.024742,-0.325484
502,-0.5830609999999999,-1.007743,-0.41938500000000006,-0.293883,0.8456299999999999,-0.44558000000000003,-2.3993860000000002,1.229589,2.099205,0.084105,-0.091525,-0.450325
503,-0.5493100000000001,-1.072983,-0.403694,-0.249304,0.8786290000000001,-0.40725500000000003,-2.586362,0.862999,2.028934,0.097097,0.053241,-0.507204
504,-0.520883,-1.13847,-0.389946,-0.208504,0.9079940000000001,-0.363415,-2.722426,0.835268,1.88915,0.036858,0.200176,-0.43854099999999996
505,-0.492029,-1.205294,-0.379251,-0.168848,0.933944,-0.315017,-2.8456240000000004,1.024946,1.714994,-0.0651,0.539429,-0.17968900000000002
506,-0.46698,-1.2669290000000002,-0.372962,-0.1347,0.9541860000000001,-0.267171,-2.4984580000000003,0.8437520000000001,1.4388459999999998,-0.155567,0.3021,0.182134
507,-0.399048,-1.325612,-0.316427,-0.09431,0.970092,-0.223658,-2.466444,0.547111,2.3324830000000003,-0.125844,-0.237533,0.6633399999999999
508,-0.273213,-1.399576,-0.191821,-0.045972000000000006,0.9853780000000001,-0.164055,-3.274952,-0.01945,2.192966,-0.420886,-0.49482299999999996,0.922737
509,-0.196117,-1.4549290000000001,-0.119903,-0.022525,0.993295,-0.11337699999999999,-1.882743,0.592058,0.44575,-0.644025,-0.4349,0.696843
510,-0.30341,-1.4706540000000001,-0.23645300000000002,-0.029863999999999998,0.9949899999999999,-0.09539,-0.30070399999999997,-0.004882,-0.827506,-0.430997,-0.170786,0.025184
511,-0.477911,-1.43569,-0.37539,-0.061944000000000006,0.9908870000000001,-0.119592,2.332507,-3.326335,-1.796166,0.001732,0.31055,-0.8672549999999999
512,-0.645882,-1.35199,-0.398293,-0.130647,0.9761569999999999,-0.173335,3.6950800000000004,-9.110045,-2.627406,-0.140715,2.3138360000000002,-0.9489190000000001
513,-0.6984130000000001,-1.291035,-0.360946,-0.177547,0.9611209999999999,-0.211471,2.004191,0.363189,-0.300199,0.8413950000000001,0.802367,-0.801652
514,-0.548216,-1.286001,-0.279025,-0.146424,0.9597190000000001,-0.239783,0.159556,4.726794,0.971736,0.26919699999999996,-0.862353,0.817679
515,-0.38162399999999996,-1.315193,-0.23201300000000002,-0.094158,0.967511,-0.234634,-1.58249,6.322906,1.333537,0.071667,-0.736676,0.586182
516,-0.280599,-1.353117,-0.216094,-0.059805,0.9764010000000001,-0.20751,-1.458759,1.8698849999999998,0.204587,-0.37504,-0.03057,-0.28953
517,-0.356078,-1.364932,-0.264959,-0.071256,0.978885,-0.191582,-0.42832299999999995,-2.160887,-0.46347700000000003,0.1423,0.370709,0.23316199999999998
518,-0.444801,-1.3626040000000001,-0.302293,-0.088931,0.978406,-0.18657200000000002,0.286054,-3.087457,-0.33872800000000003,0.235415,0.349887,-0.103833
519,-0.501332,-1.3354489999999999,-0.281434,-0.112062,0.972434,-0.204479,1.9363740000000003,-4.041539,-0.538554,-0.006286,0.141321,-0.507847
520,-0.52244,-1.289718,-0.24210700000000002,-0.138414,0.960757,-0.24038400000000001,2.134115,-1.8488330000000002,-0.801696,-0.16931,-0.310778,-0.400363
521,-0.5198649999999999,-1.241012,-0.240641,-0.160869,0.9461120000000001,-0.281052,2.25152,1.021304,-1.506376,-0.184971,-0.321158,-0.183288
522,-0.495385,-1.172352,-0.26749,-0.184435,0.921666,-0.34134000000000003,3.021173,3.2849589999999997,-2.4247080000000003,-0.250868,-0.459492,0.435579
523,-0.458711,-1.090441,-0.31358,-0.204611,0.8868309999999999,-0.41432299999999994,3.280939,4.161419,-2.850237,-0.06727000000000001,-0.385412,0.5435949999999999
524,-0.457269,-1.015499,-0.36235,-0.232756,0.849744,-0.47303100000000003,2.525045,-0.02756,-2.649324,0.11331,-0.33228800000000003,0.7817470000000001
525,-0.540603,-0.944478,-0.387874,-0.301671,0.810191,-0.502576,3.112191,-4.399386,-2.109782,0.369924,-0.142726,0.799543
526,-0.572052,-0.853499,-0.374768,-0.35586100000000004,0.7535850000000001,-0.5526939999999999,3.978332,0.115256,-2.0625150000000003,0.266368,0.265793,-0.521937
527,-0.559663,-0.804012,-0.377363,-0.36835100000000004,0.720146,-0.587968,1.097465,0.10105399999999999,-1.076355,0.311084,0.285179,0.322709
528,-0.575098,-0.7804989999999999,-0.397539,-0.386486,0.703634,-0.59626,0.444053,0.01791,-1.295525,-0.126987,-0.23003200000000001,0.152946
529,-0.583203,-0.772188,-0.418468,-0.394513,0.697705,-0.597968,-0.34845,0.633143,-0.485728,-0.13074000000000002,-0.23266199999999998,0.045142
530,-0.569465,-0.789083,-0.424834,-0.379851,0.709707,-0.5933189999999999,-1.180731,0.86555,0.722729,-0.11746400000000001,-0.23934,-0.23007600000000003
531,-0.555057,-0.836828,-0.420932,-0.35299,0.742522,-0.569261,-2.418271,0.437658,1.707011,-0.081291,-0.360854,-0.352095
532,-0.5490010000000001,-0.9109450000000001,-0.41560699999999995,-0.319884,0.790083,-0.5229159999999999,-3.401847,-0.148215,2.285209,0.034789,-0.343077,-0.3586
533,-0.55116,-1.001395,-0.41072200000000003,-0.282328,0.842224,-0.45929200000000003,-3.97145,-0.304005,2.577327,0.052239999999999995,-0.324035,-0.334989
534,-0.546813,-1.100276,-0.404373,-0.23572600000000002,0.891332,-0.38724400000000003,-4.172894,0.190129,2.79,0.077279,0.00207,-0.173318
535,-0.5174479999999999,-1.201103,-0.391152,-0.17873499999999998,0.9324379999999999,-0.31402399999999997,-4.287037000000001,1.3072290000000002,2.7162,0.150385,0.6984520000000001,0.27314499999999997
536,-0.445378,-1.2909110000000001,-0.373241,-0.119005,0.961087,-0.249293,-3.37851,3.5060589999999996,2.1706630000000002,0.250306,0.293231,0.35329699999999997
537,-0.315795,-1.3561459999999999,-0.2954,-0.066152,0.977051,-0.202467,-2.3298080000000003,1.7195880000000001,2.061704,-0.026957,-0.497147,0.813673
538,-0.194372,-1.3978,-0.168222,-0.033246,0.985073,-0.16888599999999998,-1.288632,-1.117083,1.386814,-0.229373,-0.25251399999999996,0.8258840000000001
539,-0.200601,-1.406023,-0.134876,-0.032682,0.986456,-0.16073099999999998,0.428996,-2.479283,-0.437853,-0.824083,0.583292,-0.235875
540,-0.401192,-1.345861,-0.22996,-0.0871,0.974809,-0.205327,3.3537190000000003,-6.560142,-2.224967,-0.26757600000000004,0.621474,-0.47668
541,-0.571754,-1.2684030000000002,-0.266489,-0.161142,0.954626,-0.25043699999999997,2.705551,-6.273095,-2.051469,0.10346400000000001,1.324747,-1.005728
542,-0.580874,-1.243463,-0.289492,-0.176432,0.946903,-0.26878,-0.13233699999999998,4.370272,-0.44200500000000004,-0.169652,1.099972,-0.656208
543,-0.502987,-1.243473,-0.272887,-0.154979,0.9469059999999999,-0.28168499999999996,0.195096,1.7553040000000002,0.533578,0.34870500000000004,-0.22920900000000002,0.46833
544,-0.45246899999999995,-1.258883,-0.252704,-0.13416199999999998,0.9517479999999999,-0.275994,-0.888824,1.580963,0.582846,0.320502,-0.388119,-0.090919
545,-0.44502200000000003,-1.258174,-0.25150100000000003,-0.132393,0.9515299999999999,-0.277594,1.0403209999999998,-0.679636,-0.534165,0.26725,0.351036,-0.261682
546,-0.48854,-1.20823,-0.26906599999999997,-0.16646,0.93499,-0.31318,2.327448,-1.483801,-1.6778240000000002,0.10603499999999999,0.258186,0.25106100000000003
547,-0.528787,-1.148301,-0.302155,-0.20685599999999998,0.912069,-0.354031,2.459086,0.361165,-2.300974,-0.049582999999999995,0.027339,0.302044
548,-0.532782,-1.073534,-0.348147,-0.24229299999999998,0.878892,-0.41090200000000004,2.6551099999999996,2.715303,-2.972396,-0.031083999999999997,-0.736115,0.584348
549,-0.5154989999999999,-1.0108979999999999,-0.398483,-0.261815,0.847309,-0.462079,1.6702240000000002,2.746395,-2.435591,-0.176098,-0.880741,0.510892
550,-0.538862,-0.960959,-0.44811999999999996,-0.293903,0.8197409999999999,-0.491572,1.600028,-0.224681,-2.369249,-0.149289,-0.924493,0.622004
551,-0.58062,-0.9028510000000001,-0.472208,-0.339752,0.785096,-0.517871,2.423633,-1.343093,-2.0501419999999997,0.558761,-0.29358,0.46767
552,-0.596885,-0.8431649999999999,-0.47266800000000003,-0.373832,0.7467520000000001,-0.550099,2.014503,-0.018322,-1.3218969999999999,0.534904,0.167769,-0.21146700000000002
553,-0.588577,-0.831889,-0.47580200000000006,-0.37390100000000004,0.739205,-0.560154,-0.223152,0.7458140000000001,-2.4e-05,0.32864299999999996,0.23423000000000002,0.046985
554,-0.5816439999999999,-0.8400219999999999,-0.488825,-0.366693,0.744658,-0.55769,-0.719979,0.6555380000000001,-0.170022,-0.027457,-0.44392299999999996,-0.040393
555,-0.589296,-0.859973,-0.49928100000000003,-0.36262,0.757825,-0.542408,-1.248542,-0.331123,0.6073529999999999,0.05778,-0.421216,-0.08666599999999999
556,-0.600629,-0.9026549999999999,-0.497532,-0.350132,0.784974,-0.511097,-2.033468,-0.711555,1.585122,-0.028881,-0.039705000000000004,-0.065868
557,-0.598595,-0.9688040000000001,-0.48393,-0.31909,0.824209,-0.467822,-2.771081,-0.28472600000000003,2.576073,-0.199174,0.165979,-0.297894
558,-0.570713,-1.0518299999999998,-0.44999300000000003,-0.267944,0.868332,-0.41737399999999997,-2.976108,0.133966,3.2759270000000003,-0.159424,0.211975,-0.47439499999999996
559,-0.500496,-1.136499,-0.38786,-0.20190999999999998,0.907166,-0.369159,-2.878943,1.162436,3.338313,-0.003885,0.61322,-0.5050020000000001
560,-0.396149,-1.212766,-0.310241,-0.135218,0.9365889999999999,-0.323286,-2.687056,1.784959,2.805812,0.11925699999999999,0.578975,-0.55823
561,-0.272267,-1.27235,-0.205418,-0.079068,0.9557950000000001,-0.283197,-2.035171,0.654129,2.3845259999999997,0.140729,0.197297,-0.128806
562,-0.18566,-1.3152190000000001,-0.103433,-0.046664,0.967518,-0.24844899999999998,-1.7100790000000001,-1.240731,1.504737,-0.314465,-0.467075,1.418799
563,-0.11084100000000001,-1.345616,-0.013981,-0.024697,0.9747540000000001,-0.22190100000000001,-1.0687879999999998,-0.047889999999999995,1.016306,-0.303703,-0.324943,1.244926
564,-0.120689,-1.353801,-0.030368,-0.025919,0.976549,-0.213719,0.30745,0.248693,-0.816075,-0.616689,0.257567,0.3727
565,-0.269991,-1.2968979999999999,-0.136372,-0.072143,0.962724,-0.260679,4.257843,-5.1757230000000005,-2.365704,0.03279,1.853347,-1.210116
566,-0.502164,-1.166676,-0.217087,-0.18925899999999998,0.919449,-0.344661,5.274876,-7.7461910000000005,-4.0548470000000005,0.12405799999999999,1.603119,-0.940617
567,-0.507505,-1.1163379999999998,-0.23675300000000002,-0.213339,0.8984989999999999,-0.383644,0.250515,5.293666,-0.191619,0.5226350000000001,-0.14111300000000002,0.30356500000000003
568,-0.38295799999999997,-1.132315,-0.22945900000000002,-0.158644,0.9053979999999999,-0.393807,-0.902531,5.058717,0.700105,0.444593,-0.213488,-0.064216
569,-0.327789,-1.157669,-0.21790900000000002,-0.129254,0.9158700000000001,-0.38009499999999996,-1.353157,0.7530439999999999,0.515536,0.27505100000000005,0.105874,0.147703
570,-0.357074,-1.193227,-0.230665,-0.128858,0.929564,-0.345402,-1.8310560000000002,-1.752359,0.36585700000000004,0.268598,0.255693,0.034855000000000004
571,-0.416103,-1.214736,-0.233646,-0.14089400000000002,0.9372780000000001,-0.318833,-0.34662,-3.024517,0.199463,-0.05676799999999999,0.140954,-0.32353200000000004
572,-0.453798,-1.205877,-0.230134,-0.156444,0.9341520000000001,-0.320747,0.581833,-1.297993,-0.266282,-0.153554,-0.035364,-0.341652
573,-0.46462299999999995,-1.199064,-0.23582600000000004,-0.16275499999999998,0.9316989999999999,-0.324718,0.079047,0.099128,-0.23312800000000003,-0.20579,-0.270124,-0.19250899999999999
574,-0.473137,-1.189506,-0.251017,-0.16956400000000002,0.928185,-0.331233,0.605333,0.42403900000000005,-0.689204,-0.189429,-0.404763,0.154505
575,-0.472563,-1.156955,-0.275491,-0.183035,0.915583,-0.358053,1.570168,1.655152,-1.4382059999999999,-0.20914699999999997,-0.514628,0.340093
576,-0.469317,-1.106592,-0.31766700000000003,-0.202488,0.894178,-0.39929899999999996,1.9333619999999998,2.169398,-2.213994,-0.12148699999999998,-0.530226,0.525886
577,-0.479991,-1.053513,-0.36540900000000004,-0.22835300000000003,0.869166,-0.43863599999999997,1.615537,0.73264,-2.013547,0.026266,-0.23346999999999998,0.687446
578,-0.550349,-1.01604,-0.399987,-0.275473,0.850029,-0.448956,1.417909,-3.7559480000000005,-1.697255,0.099646,0.115623,0.7300840000000001
579,-0.62749,-0.9450149999999999,-0.40573000000000004,-0.343889,0.8105060000000001,-0.474149,3.551279,-2.427837,-2.4083099999999997,0.370043,0.45398999999999995,0.004178
580,-0.627046,-0.867403,-0.404032,-0.379517,0.762652,-0.5237609999999999,2.191916,1.003547,-1.7962240000000003,-0.181304,0.7866489999999999,-0.389173
581,-0.624119,-0.843774,-0.419591,-0.388407,0.747157,-0.539345,0.285603,0.46141400000000005,-0.9670860000000001,0.116755,0.22757399999999997,0.400277
582,-0.626318,-0.829326,-0.435458,-0.395879,0.737476,-0.547179,0.253374,0.417936,-0.722633,0.1238,-0.6880069999999999,0.24041700000000002
583,-0.623816,-0.8260219999999999,-0.442341,-0.39593,0.735241,-0.550143,-0.27105100000000004,0.37712399999999996,0.080264,0.046031,-0.478191,-0.125058
584,-0.6107239999999999,-0.851107,-0.44146199999999997,-0.377996,0.752011,-0.539996,-1.494332,0.8499950000000001,1.167109,0.005224,-0.001721,-0.18707000000000001
585,-0.591214,-0.9076200000000001,-0.44050600000000006,-0.34312800000000004,0.788041,-0.511128,-2.74005,0.8857809999999999,1.8217279999999998,0.104191,-0.195939,-0.132747
586,-0.574983,-0.982518,-0.43876099999999996,-0.301781,0.8318969999999999,-0.46569499999999997,-3.2240759999999997,0.672709,2.24484,0.021111,-0.29880100000000004,-0.12178299999999999
587,-0.5537529999999999,-1.0646309999999999,-0.42844499999999996,-0.254961,0.87461,-0.41236999999999996,-3.3875620000000004,0.645575,2.511857,-0.056685,-0.139014,-0.165846
588,-0.520709,-1.151422,-0.40865799999999997,-0.202572,0.913344,-0.353219,-3.570881,0.810833,2.6353470000000003,-0.018131,0.198976,-0.292639
589,-0.49540500000000004,-1.241718,-0.39063600000000004,-0.153628,0.946341,-0.28431300000000004,-3.9128010000000004,0.12307799999999999,2.296282,0.089099,0.536768,-0.260808
590,-0.513649,-1.32741,-0.410678,-0.11840899999999999,0.970527,-0.209885,-3.796181,0.150226,1.534351,0.061448,0.622139,-0.08694400000000001
591,-0.527375,-1.3962780000000001,-0.43803400000000003,-0.087377,0.9848100000000001,-0.150031,-2.579381,1.059685,1.61646,0.052038,0.25019,0.030188
592,-0.36909400000000003,-1.443026,-0.303535,-0.045964,0.991848,-0.118825,-1.250094,0.925795,1.97843,-0.14669400000000002,-0.312573,0.030461000000000002
593,-0.12548800000000002,-1.46722,-0.051780999999999994,-0.012938,0.994641,-0.102558,-0.595288,-1.0261850000000001,1.510147,-0.367052,-0.918011,0.632328
594,0.081175,-1.478919,0.17719200000000002,0.007437,0.995782,-0.09142,-0.622363,-0.930335,0.741783,-0.628562,-0.590448,0.616566
595,-0.014333000000000002,-1.4811370000000001,0.101371,-0.001283,0.995983,-0.089504,0.278122,-0.9564790000000001,-0.957844,-0.41587700000000005,0.21863200000000002,0.463055
596,-0.295197,-1.461534,-0.16386099999999998,-0.031718,0.9940370000000001,-0.10430899999999999,1.125785,-0.9517190000000001,-1.550133,-0.031957,0.959882,-0.265549
597,-0.455978,-1.409823,-0.255822,-0.07057100000000001,0.987072,-0.14389100000000002,3.100702,-6.169857,-1.5595620000000001,0.5741569999999999,1.4205969999999999,-1.7067400000000001
598,-0.43678900000000004,-1.34184,-0.174093,-0.09600800000000001,0.9739040000000001,-0.205645,2.00009,2.188811,0.062828,0.502777,0.45901899999999995,0.644305
599,-0.25735399999999997,-1.3766559999999999,-0.124482,-0.0491,0.9812139999999999,-0.186559,-2.634982,6.547738,1.194569,-0.255846,0.35773,-0.367686
600,-0.155996,-1.409542,-0.060689,-0.024943,0.9870270000000001,-0.158593,-0.47612,-0.918149,0.498166,-0.061926,0.45769099999999996,0.157753
601,-0.207378,-1.4055030000000002,-0.076829,-0.033875,0.9863700000000001,-0.161003,0.437275,-1.578068,-0.43037,0.201463,0.40028800000000003,0.16736600000000001
602,-0.276545,-1.3747280000000002,-0.117324,-0.053188,0.9808399999999999,-0.18740199999999999,2.1194740000000003,-1.4783899999999999,-0.974223,0.166713,0.1775,-0.059729
603,-0.338634,-1.310448,-0.166544,-0.085511,0.9663,-0.24279099999999998,3.121991,-0.041377,-1.8311169999999999,0.094941,-0.183738,0.168023
604,-0.39678800000000003,-1.2296280000000002,-0.242216,-0.129302,0.942364,-0.308589,3.4825809999999997,0.972815,-2.953667,-0.018601,-0.402798,0.293864
605,-0.44706999999999997,-1.143609,-0.32882,-0.179116,0.910135,-0.373589,2.8917490000000003,1.7427970000000002,-3.1873810000000002,0.01629,-0.919977,0.5512779999999999
606,-0.48973599999999995,-1.089228,-0.394071,-0.21786999999999998,0.8862700000000001,-0.408724,1.209711,-0.069168,-2.0142860000000002,0.063207,-1.1017540000000001,0.269365
607,-0.54269,-1.044096,-0.431438,-0.25960500000000003,0.8644709999999999,-0.430457,1.9017240000000002,-0.79202,-1.932682,0.11102999999999999,-1.0268700000000002,0.395545
608,-0.548217,-0.9991760000000001,-0.449662,-0.281947,0.841026,-0.461713,1.329067,0.839468,-1.308522,0.581233,-0.716087,0.311216
609,-0.558682,-0.976187,-0.46775200000000006,-0.29693600000000003,0.828368,-0.475009,0.430025,-0.144243,-0.947141,0.677398,-0.916075,0.5692020000000001
610,-0.567137,-0.961563,-0.48447700000000005,-0.307417,0.8200870000000001,-0.482649,0.30796599999999996,0.569631,-0.610282,0.27331300000000003,-0.8308450000000001,0.255048
611,-0.5714100000000001,-0.964231,-0.49941199999999997,-0.308292,0.8216110000000001,-0.479488,-0.913768,0.15826600000000002,-0.042517,0.080585,-0.526476,-0.25301
612,-0.5897859999999999,-1.001968,-0.522571,-0.299584,0.842533,-0.44764499999999996,-2.35042,0.318887,0.728112,0.12554200000000001,0.161999,-0.16325599999999998
613,-0.604813,-1.0551840000000001,-0.550217,-0.280361,0.869991,-0.405599,-2.715999,0.26022199999999995,1.063192,0.066097,0.175343,-0.397959
614,-0.618607,-1.114466,-0.568246,-0.255535,0.897676,-0.358994,-2.539918,0.215306,1.486427,-0.040638,0.16252,-0.585296
615,-0.608466,-1.170133,-0.57053,-0.222942,0.920802,-0.320025,-2.202464,0.853984,1.581969,-0.34084000000000003,0.746861,-0.657849
616,-0.5713520000000001,-1.224083,-0.563014,-0.183755,0.9404950000000001,-0.28583200000000003,-2.18506,1.974205,1.6789319999999999,-0.42893100000000006,0.956081,-0.361187
617,-0.49350900000000003,-1.28319,-0.534561,-0.13437000000000002,0.9589260000000001,-0.249804,-2.4047259999999997,2.563817,2.006722,-0.384398,0.856825,-0.262021
618,-0.402212,-1.343882,-0.463979,-0.088063,0.9743649999999999,-0.20701,-2.4139459999999997,-0.153854,2.052869,0.050038,-0.063294,0.5721069999999999
619,-0.410606,-1.413935,-0.43056700000000003,-0.062351,0.987722,-0.14322000000000001,-3.116579,-2.4409,1.319189,-0.089504,0.141153,1.046648
620,-0.5750850000000001,-1.449178,-0.557954,-0.065975,0.992614,-0.101787,-1.4403,-1.338152,-0.710819,-0.032734,0.132631,1.179912
621,-0.836752,-1.44632,-0.823599,-0.092165,0.9922629999999999,-0.08315399999999999,-0.5130680000000001,0.809021,-1.673835,0.10615699999999999,0.45547600000000005,0.447167
622,-0.902658,-1.395766,-0.8889299999999999,-0.136682,0.984721,-0.107873,2.46195,-1.115293,-2.280839,-0.10291099999999999,1.105092,-0.313971
623,-0.8275399999999999,-1.3547559999999998,-0.801028,-0.15782100000000002,0.9767540000000001,-0.14505,0.820325,0.40719099999999997,-0.112948,0.046508,0.983238,-0.36789
624,-0.8770370000000001,-1.381666,-0.875243,-0.144537,0.982168,-0.120208,-2.287534,1.41839,0.652396,0.38677,0.297144,0.035354000000000003
625,-0.9801350000000001,-1.4201979999999998,-1.029677,-0.12459500000000001,0.9886809999999999,-0.08354299999999999,-2.007644,3.011779,0.742039,0.24002800000000002,0.039074,0.129274
626,-1.122808,-1.448775,-1.2359950000000002,-0.10968800000000001,0.9925649999999999,-0.052713,-1.9004279999999998,3.0478419999999997,0.42227600000000004,0.127891,-0.030239,0.226404
627,-1.339281,-1.462788,-1.504923,-0.104898,0.994173,-0.024728999999999998,-1.477075,2.0798349999999997,-0.026452999999999997,-0.038916,-0.16877899999999998,0.051355
628,-1.52288,-1.460801,-1.709185,-0.109622,0.993957,-0.005257,-0.922477,0.277875,-0.362101,-0.044218,-0.33932399999999996,-0.114006
629,-1.6786330000000003,-1.452174,-1.8551400000000002,-0.11763399999999999,0.992973,0.012735,-0.8921319999999999,-0.8735129999999999,-0.43198500000000006,0.036259,-0.40912600000000005,-0.273065
630,-1.868913,-1.438091,-2.035666,-0.126461,0.991207,0.038858,-1.42045,0.03698,-0.427228,0.167492,-0.499478,-0.25799
631,-1.9892849999999997,-1.418825,-2.1907,-0.138309,0.988474,0.061515,-1.254627,2.5438240000000003,-0.633312,0.2439,-0.49015299999999995,-0.065055
632,-1.989628,-1.39622,-2.253247,-0.158667,0.9848,0.070634,-0.729537,3.000188,-0.928263,0.278875,-0.44657700000000006,-0.089067
633,-1.958059,-1.374096,-2.2621830000000003,-0.18095,0.9807170000000001,0.07380199999999999,-0.392414,1.2660879999999999,-0.996325,0.178829,-0.274555,-0.196071
634,-1.940407,-1.3537370000000002,-2.244522,-0.20080599999999998,0.976535,0.077795,-0.085882,-0.5948060000000001,-1.031324,0.21417199999999997,-0.151645,-0.278723
635,-1.913577,-1.333831,-2.197173,-0.22108699999999998,0.9720549999999999,0.078899,0.314988,-1.05151,-1.187103,0.24449400000000002,-0.271036,-0.401775
636,-1.843159,-1.311555,-2.105481,-0.246889,0.966585,0.068957,0.999613,-0.788185,-1.564014,0.22729699999999997,-0.292802,-0.393511
637,-1.730336,-1.281611,-1.977528,-0.281543,0.958477,0.045301999999999995,1.631791,-0.379581,-1.995956,0.138232,-0.446208,-0.30693000000000004
638,-1.58245,-1.2403680000000001,-1.813698,-0.32442,0.9459040000000001,0.003781,2.683036,-0.47320500000000004,-2.404032,0.31061,-0.401073,-0.002209
639,-1.430456,-1.189426,-1.651861,-0.368529,0.928156,-0.052062,3.072721,0.48768599999999995,-2.212398,0.3441,-0.0024809999999999997,0.370253
640,-1.2788110000000001,-1.1447399999999999,-1.505149,-0.395787,0.910603,-0.11896400000000001,3.3692300000000004,0.957992,-1.0027700000000002,0.259785,1.747784,0.58892
641,-1.162541,-1.131222,-1.3816540000000002,-0.39057600000000003,0.904933,-0.168947,2.2133979999999998,-0.372731,0.8442270000000001,-0.218158,2.1352279999999997,0.338946
642,-1.068043,-1.137276,-1.262942,-0.368086,0.907493,-0.202404,2.213984,-0.660149,1.8562049999999999,-0.9386620000000001,1.488931,0.294506
643,-0.952309,-1.152075,-1.101966,-0.331271,0.91361,-0.235742,2.35475,-2.553496,2.354202,0.311206,1.0975139999999999,-0.09307
644,-0.8956270000000001,-1.162773,-0.9604209999999999,-0.309737,0.9179069999999999,-0.248007,1.6983,-3.800922,2.121547,0.517486,0.7085279999999999,-0.14164100000000002
645,-0.8516520000000001,-1.179271,-0.8348469999999999,-0.287101,0.924328,-0.251373,1.182569,-3.293628,2.2465490000000004,0.434791,0.913486,0.160415
646,-0.7719050000000001,-1.204805,-0.7083119999999999,-0.249617,0.9337690000000001,-0.256445,0.48429300000000003,-1.2774860000000001,2.9569330000000003,0.333921,0.767204,0.45532799999999995
647,-0.636972,-1.246507,-0.540822,-0.18950999999999998,0.9478780000000001,-0.25614699999999996,0.281968,-1.101157,3.524657,0.056026,0.31759499999999996,0.45621999999999996
648,-0.503612,-1.270457,-0.36125999999999997,-0.14277,0.9552360000000001,-0.25911,0.6347430000000001,-2.368376,2.572686,-0.004569,-0.10664900000000001,0.503815
649,-0.42089099999999996,-1.2764010000000001,-0.21416500000000002,-0.11855,0.9569780000000001,-0.264833,0.64141,-3.3070410000000003,1.8080200000000002,0.005635,-0.24449899999999997,0.495134
650,-0.39868600000000004,-1.278949,-0.109925,-0.111694,0.957714,-0.265152,0.358526,-4.151711,1.231355,-0.11976700000000001,-0.44218100000000005,0.672821
651,-0.426987,-1.2801120000000001,-0.049774,-0.118691,0.958048,-0.260871,0.31424,-4.2712010000000005,0.516558,-0.170356,-0.606577,0.585471
652,-0.492241,-1.273094,-0.032533,-0.138623,0.9560129999999999,-0.258495,0.441874,-4.041132,-0.11843699999999999,-0.076038,-0.563435,0.370357
653,-0.572497,-1.2643659999999999,-0.030042000000000003,-0.163415,0.9534159999999999,-0.253554,0.38149299999999997,-4.251568,-0.188024,0.048287000000000004,-0.445985,0.249175
654,-0.646725,-1.2556,-0.018662,-0.186798,0.950735,-0.247398,0.551613,-4.034221,-0.077087,0.14505,-0.364584,0.12767699999999998
655,-0.6900029999999999,-1.241765,0.007951999999999999,-0.205679,0.946356,-0.249205,0.928931,-3.194913,-0.10543699999999999,0.050925,-0.371054,-0.203477
656,-0.726351,-1.229483,0.042921,-0.22230300000000003,0.9423159999999999,-0.250238,0.738103,-3.849385,0.15792,0.069623,-0.441385,-0.26122199999999995
657,-0.7724770000000001,-1.2231299999999998,0.087376,-0.23777800000000002,0.9401700000000001,-0.244004,0.814443,-4.66555,0.39878,0.23815999999999998,-0.155823,-0.42861899999999997
658,-0.799732,-1.212825,0.150368,-0.251275,0.936609,-0.244173,1.3760459999999999,-3.864274,0.397403,0.473077,0.399633,-0.658842
659,-0.7869189999999999,-1.195798,0.23531999999999997,-0.259383,0.930508,-0.258596,1.821579,-3.151412,0.495742,0.364852,0.701969,-0.487651
660,-0.75276,-1.176542,0.33560999999999996,-0.262602,0.923283,-0.280329,2.063224,-2.88748,0.8827200000000001,0.322829,0.274348,-0.270879
661,-0.718183,-1.163041,0.44572,-0.260934,0.918013,-0.2986,1.8187060000000002,-3.729764,1.27306,0.354608,-0.244811,-0.334273
662,-0.705263,-1.158959,0.551438,-0.259481,0.9163870000000001,-0.304797,1.326238,-4.269403,1.585438,0.291647,-0.5410510000000001,-0.284482
663,-0.690396,-1.169087,0.647131,-0.248998,0.920394,-0.30145,0.512842,-3.106657,1.891255,0.35570300000000005,-0.641967,0.008404
664,-0.655845,-1.192692,0.7320220000000001,-0.225122,0.929366,-0.292568,-0.100439,-1.744705,2.024095,0.349817,-0.009642,0.49613599999999997
665,-0.6123689999999999,-1.220321,0.8014789999999999,-0.197354,0.93921,-0.280951,-0.527366,-0.6215970000000001,1.518677,0.247571,0.6741020000000001,0.7088840000000001
666,-0.61037,-1.2338719999999999,0.793966,-0.18947999999999998,0.9437760000000001,-0.27089,-0.63866,1.027667,-0.567246,-0.006825,2.345287,1.2150590000000001
667,-0.654676,-1.222708,0.7550979999999999,-0.207695,0.9400270000000001,-0.270573,0.8299989999999999,-2.258099,-0.660667,-0.16197999999999999,1.0520690000000001,0.252339
668,-0.728549,-1.1854360000000002,0.772319,-0.250262,0.9266629999999999,-0.280466,1.5575290000000002,-4.747886,-1.231371,-0.059125,-0.66145,0.610575
669,-0.818284,-1.170431,0.745579,-0.284508,0.920919,-0.266385,-0.598254,-2.227289,-0.467721,-0.090736,-1.151281,0.416074
670,-0.8836299999999999,-1.175732,0.70357,-0.29751700000000003,0.9229719999999999,-0.24413800000000002,-0.8394510000000001,-0.966541,-0.378058,0.368379,0.321718,-0.143619
671,-0.928998,-1.194405,0.643458,-0.29442399999999996,0.929997,-0.220036,-2.0050790000000003,1.863578,0.44445500000000004,1.0405790000000001,0.696651,0.280796
672,-0.9667129999999999,-1.237911,0.53571,-0.268935,0.945103,-0.185605,-2.9998709999999997,3.355625,0.608646,0.9313799999999999,0.505,0.484372
673,-1.04444,-1.268633,0.40522600000000003,-0.2573,0.9546950000000001,-0.1495,-2.0897799999999997,1.570554,0.004131,0.328955,0.20843699999999998,0.28451
674,-1.11362,-1.282308,0.33060700000000004,-0.255278,0.958675,-0.125581,-0.9368280000000001,-0.9174370000000001,0.21299400000000002,0.19375499999999998,0.040516,0.12973099999999999
675,-1.201541,-1.294476,0.28796900000000003,-0.254421,0.962066,-0.098462,-0.7870229999999999,-3.104264,0.303369,0.000697,-0.065627,-0.016284
676,-1.344964,-1.304598,0.222485,-0.25637600000000005,0.964778,-0.058903,-1.144903,-4.441884,0.255581,-0.009004999999999999,-0.104701,-0.17490799999999998
677,-1.52515,-1.3144280000000002,0.125473,-0.253294,0.967317,-0.01157,-1.369361,-3.95575,0.358076,0.051313,-0.09323300000000001,-0.168774
678,-1.6915169999999997,-1.321739,0.008865999999999999,-0.24468499999999999,0.969145,0.029682999999999998,-1.4360389999999998,-1.853003,0.44251,0.107829,-0.174757,-0.163945
679,-1.812573,-1.3252950000000001,-0.099088,-0.23596199999999998,0.970016,0.058188,-1.18147,-0.322934,0.40494,0.24455300000000002,-0.276061,-0.029792000000000003
680,-1.9037389999999998,-1.3252540000000002,-0.198918,-0.22971999999999998,0.9700059999999999,0.079441,-1.178767,0.628849,0.279825,0.24812199999999998,-0.26505,0.010112999999999999
681,-1.981526,-1.319756,-0.300816,-0.227739,0.9686540000000001,0.09917999999999999,-1.333499,1.2200090000000001,0.16475599999999999,0.22423,-0.19337100000000002,0.042253
682,-2.065211,-1.309104,-0.40874699999999997,-0.227723,0.9659530000000001,0.122759,-1.50453,0.832091,0.086078,0.206208,-0.09124299999999999,0.098371
683,-2.14237,-1.294982,-0.49859,-0.229033,0.9622040000000001,0.147312,-1.268355,0.274812,-0.08354199999999999,0.13981500000000002,-0.041931,0.079739
684,-2.195462,-1.2802069999999999,-0.549251,-0.23240100000000002,0.958075,0.16755599999999998,-0.854347,-0.618553,-0.27605799999999997,0.064326,-0.001975,-0.049666
685,-2.253973,-1.265739,-0.5796939999999999,-0.232933,0.95383,0.189591,-0.8215530000000001,-1.8894540000000002,-0.297702,-0.017952000000000003,0.133145,-0.284851
686,-2.326453,-1.250818,-0.6179859999999999,-0.228925,0.949242,0.215698,-0.9531540000000001,-1.4958069999999999,-0.05770700000000001,-0.06093,0.174705,-0.320083
687,-2.3664,-1.238918,-0.650501,-0.228019,0.9454319999999999,0.232721,-0.6070300000000001,0.209786,-0.113023,-0.051491999999999996,0.26629899999999995,-0.34675
688,-2.3505830000000003,-1.230389,-0.655311,-0.237396,0.9426190000000001,0.23474699999999998,-0.27026700000000003,1.3269879999999998,-0.336428,0.49430799999999997,0.17160799999999998,0.220698
689,-2.320557,-1.223603,-0.645066,-0.249013,0.9403309999999999,0.231868,0.024099000000000002,0.5888100000000001,-0.339836,0.347555,0.592689,-0.181331
690,-2.352099,-1.21815,-0.649517,-0.245214,0.9384620000000001,0.24321399999999999,-0.6352939999999999,-2.854407,0.026371,0.165411,0.5464319999999999,-0.769474
691,-2.46771,-1.2065620000000001,-0.6824479999999999,-0.222293,0.9343969999999999,0.278356,-0.528043,-4.47685,-0.059463,0.37189,0.541388,-0.754354
692,-2.490171,-1.210685,-0.648921,-0.21364699999999998,0.935858,0.280211,0.979683,-1.087367,-0.510474,0.434564,0.45402,-0.688048
693,-2.405518,-1.224019,-0.576857,-0.228175,0.940473,0.251872,1.495766,1.469583,-0.497327,0.597224,0.20892600000000003,-0.32001799999999997
694,-2.2999650000000003,-1.241714,-0.484604,-0.24099299999999999,0.9463389999999999,0.215308,1.925945,0.331438,-0.496069,0.405391,0.227107,-0.045035000000000006
695,-2.1739479999999998,-1.266318,-0.332962,-0.24688800000000002,0.9540040000000001,0.17005,2.925936,-1.731241,-0.487509,0.328202,0.193671,0.106821
696,-2.027759,-1.291283,-0.124971,-0.247571,0.96119,0.121724,3.335377,-3.109409,-0.384606,0.243283,0.087699,-0.010594
697,-1.8548360000000002,-1.311597,0.132272,-0.246025,0.9665950000000001,0.071823,3.5860769999999995,-3.930017,-0.249344,0.39531700000000003,0.431964,0.079468
698,-1.684553,-1.320909,0.368925,-0.24568299999999998,0.9689399999999999,0.028069,2.501891,-2.103352,-0.038136,0.400179,0.5572739999999999,0.227226
699,-1.577142,-1.326518,0.505921,-0.241838,0.9703120000000001,0.001535,1.3460450000000002,-1.163162,0.27625700000000003,0.388734,0.666223,0.116095
700,-1.511889,-1.3336290000000002,0.619262,-0.23453000000000002,0.972007,-0.013831999999999999,1.365788,-3.198786,0.49585200000000007,0.378085,0.625023,0.217658
701,-1.481506,-1.3453389999999998,0.749782,-0.222648,0.974692,-0.019933000000000003,1.605377,-5.645504,0.76558,0.403846,0.43198500000000006,0.38719699999999996
702,-1.402268,-1.35196,0.958832,-0.214006,0.976151,-0.036412,2.675768,-6.146454,0.438277,0.384676,0.21933000000000002,0.478993
703,-1.221518,-1.339449,1.243866,-0.21543400000000001,0.973358,-0.078463,3.4198720000000002,-4.025568,0.079698,0.329173,-0.000778,0.444537
704,-1.0630469999999999,-1.307784,1.484294,-0.227181,0.9656110000000001,-0.126405,3.227047,-3.8646529999999997,-0.300006,0.234704,-0.054936,0.149553
705,-0.964994,-1.274148,1.667556,-0.24029099999999998,0.9563219999999999,-0.166447,2.871795,-3.741276,0.056277,0.32194,-0.033333,0.259144
706,-0.896417,-1.248394,1.812332,-0.247481,0.948477,-0.197838,2.362093,-3.32335,0.41323999999999994,0.340331,0.00028399999999999996,0.310128
707,-0.848249,-1.228561,1.932737,-0.251731,0.9420069999999999,-0.221923,1.969598,-3.210475,0.49794799999999995,0.209754,-0.347433,0.30436599999999997
708,-0.833225,-1.214025,2.019206,-0.25847600000000004,0.9370290000000001,-0.23486300000000002,1.42213,-3.298897,0.440827,0.186348,-0.375979,0.34906
709,-0.825709,-1.205589,2.093634,-0.26250500000000004,0.93405,-0.24215100000000003,1.1142379999999998,-3.018392,0.623119,0.21016700000000002,-0.40995600000000004,0.382684
710,-0.8206200000000001,-1.2035280000000002,2.155948,-0.262677,0.933312,-0.244796,0.777359,-2.357266,0.75131,0.11871099999999998,-0.438637,0.410811
711,-0.8082020000000001,-1.209265,2.212257,-0.255741,0.935356,-0.244335,0.362634,-1.8347189999999998,0.969933,0.009433,-0.427422,0.350109
712,-0.79619,-1.223178,2.2571790000000003,-0.24346199999999998,0.9401870000000001,-0.23826399999999998,-0.09527100000000001,-1.2860559999999999,1.088877,-0.047034,-0.474733,0.310041
713,-0.787574,-1.244579,2.285477,-0.227088,0.947261,-0.22610100000000002,-0.616608,-0.716495,1.098393,-0.081262,-0.666759,0.126858
714,-0.79306,-1.274318,2.291106,-0.20815300000000003,0.9563709999999999,-0.204988,-1.1992129999999999,-0.452588,1.140987,-0.009544,-0.5942649999999999,-0.056577999999999996
715,-0.8217899999999999,-1.311532,2.2713490000000003,-0.187747,0.9665790000000001,-0.174556,-1.603918,-0.5374399999999999,1.1329280000000002,0.0016510000000000001,-0.38351,-0.305043
716,-0.8649389999999999,-1.344801,2.23442,-0.170523,0.974571,-0.145346,-1.179114,-0.136959,0.780732,0.034064,0.21381399999999998,-0.569238
717,-0.866402,-1.3524690000000001,2.230859,-0.165036,0.976261,-0.140252,0.32950100000000004,-0.089553,-0.126394,-0.277607,1.473141,-0.78112
718,-0.870239,-1.325591,2.257565,-0.18557200000000001,0.970088,-0.15648199999999998,1.616517,-2.394374,-1.083328,-0.405019,0.46246899999999996,-0.792752
719,-0.8207120000000001,-1.261882,2.394155,-0.22242699999999999,0.952664,-0.207247,4.777314,-5.196004,-1.170891,-0.420792,0.297595,-0.8804299999999999
720,-0.797759,-1.168021,2.526998,-0.280567,0.919977,-0.273715,3.956951,-3.2952,-2.144729,0.46524399999999994,1.6267610000000001,0.789096
721,-0.764311,-1.139143,2.556335,-0.289527,0.908275,-0.302002,0.173965,1.359185,0.560763,0.891074,-0.87611,1.436783
722,-0.716073,-1.169499,2.5817669999999997,-0.256405,0.9205549999999999,-0.294669,-1.2500229999999999,0.951376,1.745611,0.682049,-1.6303020000000001,1.4574200000000002
723,-0.711287,-1.2037229999999999,2.583087,-0.234279,0.9333809999999999,-0.271859,-1.122424,-0.350348,0.294321,0.032985,-1.065492,0.419426
724,-0.794925,-1.184231,2.557884,-0.269109,0.9262090000000001,-0.264029,1.4095280000000001,-4.911568,-1.704293,-0.33314,1.580565,-0.224923
725,-0.846289,-1.162943,2.540142,-0.297009,0.917974,-0.262875,-0.706847,1.674133,-0.179661,-0.065952,1.399408,0.40073800000000004
726,-0.808782,-1.211918,2.473667,-0.25408600000000003,0.936291,-0.242473,-3.2956309999999998,5.758904,1.403627,0.457318,0.295047,0.23698000000000002
727,-0.7934829999999999,-1.268183,2.405215,-0.212419,0.9545610000000001,-0.20901199999999998,-1.789577,1.953273,1.014168,0.013597,0.10860999999999998,-0.352588
728,-0.7963399999999999,-1.288833,2.418063,-0.19888,0.960511,-0.194575,-0.26519000000000004,-1.614581,0.820016,0.06136799999999999,-0.036957,0.084361
729,-0.812504,-1.3076510000000001,2.433722,-0.188841,0.965577,-0.178871,-0.746343,-1.337146,0.854756,0.150953,-0.22171100000000002,0.10729200000000001
730,-0.8417899999999999,-1.3375709999999998,2.420862,-0.17236500000000002,0.9729260000000001,-0.153945,-1.3189899999999999,-0.5393789999999999,1.115721,0.13983299999999999,-0.407802,0.02072
731,-0.875813,-1.371063,2.390047,-0.152379,0.9801200000000001,-0.127046,-1.251944,-0.07643,0.90302,0.106938,-0.369448,-0.06777899999999999
732,-0.904526,-1.39088,2.366527,-0.140663,0.983859,-0.11059000000000001,-0.502987,-0.48963900000000005,0.49110600000000004,0.058586,-0.29576399999999997,-0.118948
733,-0.9049149999999999,-1.39649,2.384784,-0.136363,0.9848469999999999,-0.107123,0.2348,-1.088822,0.24279,0.052684,-0.12258800000000002,-0.130502
734,-0.871806,-1.393081,2.438231,-0.135311,0.98425,-0.113738,0.46270600000000006,-0.824945,0.12333499999999999,0.09138099999999999,-0.147367,-0.13658299999999998
735,-0.8486020000000001,-1.3918549999999998,2.474262,-0.133542,0.984033,-0.117645,0.235317,-0.533675,0.20789899999999997,0.047452,-0.29831799999999997,-0.310593
736,-0.812029,-1.390356,2.513184,-0.130222,0.983765,-0.123464,0.27511599999999997,0.39654,0.11618699999999998,0.002018,-0.7324069999999999,-0.01681
737,-0.785816,-1.389616,2.506767,-0.12745599999999999,0.983632,-0.12735,-0.11643699999999998,2.198498,-0.221075,-0.029755,-0.798848,-0.174576
738,-0.795397,-1.379524,2.458343,-0.13575399999999999,0.9817629999999999,-0.13306600000000002,0.210004,1.4652479999999999,-0.9506549999999999,-0.11606199999999998,-0.375425,-0.411764
739,-0.816871,-1.353784,2.421437,-0.15695699999999999,0.9765450000000001,-0.147375,0.844575,0.41701800000000006,-1.234367,0.035954,0.007311,-0.32103899999999996
740,-0.8116,-1.3242399999999999,2.4197029999999997,-0.177036,0.969759,-0.167993,1.0897299999999999,0.39273,-0.9677049999999999,0.19751300000000002,0.203825,-0.128912
741,-0.76681,-1.290089,2.456598,-0.19221300000000002,0.96086,-0.199495,1.935589,0.451166,-0.8635950000000001,0.205488,-0.038481,0.06640800000000001
742,-0.698342,-1.236805,2.5267209999999998,-0.210765,0.944742,-0.25107199999999996,3.051988,-0.186586,-1.11883,0.16978,-0.122705,0.309422
743,-0.660968,-1.1647040000000002,2.580409,-0.24249400000000002,0.9186709999999999,-0.31182600000000005,3.7311589999999994,-0.79952,-1.8728069999999999,-0.0016309999999999999,-0.036026999999999997,0.5397770000000001
744,-0.650338,-1.0588879999999998,2.609473,-0.296576,0.8718110000000001,-0.389852,5.201212,-0.7205050000000001,-3.1915080000000002,-0.190866,0.187958,0.20737199999999997
745,-0.644568,-0.9428690000000001,2.627333,-0.352981,0.809247,-0.46959700000000004,3.3356980000000003,0.9749690000000001,-2.795445,-0.25615,0.835376,-0.921135
746,-0.602688,-0.887804,2.614519,-0.35775300000000004,0.775688,-0.519922,1.761125,1.5741120000000002,-1.280723,0.155147,1.377038,-0.242835
747,-0.5923149999999999,-0.850973,2.6281630000000002,-0.368048,0.751923,-0.546946,1.585799,-0.44231899999999996,-0.364965,0.224097,1.064804,0.07645700000000001
748,-0.587168,-0.84088,2.644334,-0.36941399999999996,0.7452300000000001,-0.555124,0.17866600000000002,-0.10503699999999999,0.423804,-0.091585,-0.056875,-0.067602
749,-0.579496,-0.8578479999999999,2.653221,-0.358168,0.756437,-0.547281,-0.9292530000000001,-0.036795,0.83472,-0.054765999999999995,-0.20902800000000002,-0.103598
750,-0.58057,-0.892567,2.653791,-0.344136,0.7786850000000001,-0.524612,-1.7217419999999999,-0.006161,1.053472,-0.071879,-0.456999,-0.042054
751,-0.5839949999999999,-0.939412,2.645777,-0.325446,0.807211,-0.49243400000000004,-2.298396,0.17668699999999998,1.11544,0.06389500000000001,-0.625449,0.0034509999999999996
752,-0.587674,-0.998591,2.637559,-0.300213,0.840709,-0.45064,-2.7459,0.170606,1.691298,0.204342,-0.776714,0.111819
753,-0.580337,-1.070299,2.637858,-0.263108,0.877344,-0.401294,-3.142013,0.534579,2.121763,0.137605,-0.801584,0.248996
754,-0.5584439999999999,-1.1526319999999999,2.642082,-0.21516799999999997,0.9138360000000001,-0.344388,-3.563019,1.1028790000000002,2.359512,0.169727,-0.525393,0.350613
755,-0.53627,-1.243719,2.640561,-0.16414700000000002,0.9469850000000001,-0.27616999999999997,-4.1731110000000005,1.072257,2.287992,0.14896500000000001,-0.152918,0.25749299999999997
756,-0.573282,-1.3395709999999998,2.588924,-0.124294,0.9733860000000001,-0.192523,-4.487195,0.343003,1.6468669999999999,0.139828,0.161211,0.22445900000000002
757,-0.721074,-1.423865,2.448146,-0.09664199999999999,0.989225,-0.109949,-3.8336980000000005,-1.107443,1.498398,0.109704,0.136996,0.061045
758,-0.867187,-1.48357,2.338561,-0.066403,0.9961979999999999,-0.056340999999999995,-1.6332799999999998,-2.228043,1.70428,0.28674,-0.37290700000000004,-0.296167
759,-0.650628,-1.503698,2.617968,-0.040585,0.99775,-0.053316999999999996,1.110806,-4.079838,1.277167,0.0024219999999999997,-0.722039,-0.737897
760,-0.347717,-1.470966,3.053433,-0.033951999999999996,0.9950209999999999,-0.09367400000000001,2.010857,-6.845305000000001,0.500786,-0.123199,-0.626033,0.439011
761,-0.521541,-1.47481,2.907971,-0.047734,0.995397,-0.08307200000000001,-1.132565,1.8521189999999998,-1.42841,0.13309200000000002,0.6740520000000001,1.291065
762,-0.636538,-1.415194,2.767207,-0.092109,0.9879180000000001,-0.12461099999999999,5.699982,-2.7055919999999998,-2.439861,-0.399681,3.664944,-3.1442490000000003
763,-0.601729,-1.346417,2.8644060000000002,-0.125945,0.974932,-0.183412,0.49359,0.557575,-0.38349,-0.393663,0.785611,2.144777
764,-0.5723060000000001,-1.333967,2.8633580000000003,-0.127059,0.972087,-0.19722699999999999,2.085898,-0.275816,-0.61165,-0.266252,-0.223735,-1.683129
765,-0.538562,-1.295901,2.889355,-0.139221,0.9624540000000001,-0.233015,0.755622,1.463962,-0.56976,0.361908,-0.534918,-0.10263299999999999
766,-0.557094,-1.301016,2.8450290000000003,-0.14090999999999998,0.963829,-0.226213,-0.813446,0.549295,-0.37658600000000003,0.409511,0.351951,-0.728789
767,-0.5919949999999999,-1.2973629999999998,2.819366,-0.15068099999999998,0.962849,-0.224079,0.571426,-0.696298,-0.440092,0.37526,0.7371479999999999,-0.165478
768,-0.600721,-1.2658120000000002,2.82079,-0.169724,0.953852,-0.247702,1.7732130000000002,-0.250731,-1.284709,0.200105,0.36453800000000003,0.369772
769,-0.597633,-1.1992200000000002,2.801455,-0.2043,0.9317559999999999,-0.300146,2.891413,1.663414,-2.480033,-0.075989,-0.588494,0.586828
770,-0.575577,-1.132282,2.782623,-0.231113,0.905384,-0.35618,2.135696,2.203646,-1.8600259999999997,-0.10516099999999999,-0.764469,0.763071
771,-0.565856,-1.0840459999999998,2.753531,-0.25078,0.883858,-0.39484400000000003,1.7940450000000001,0.71763,-2.107267,-0.34620500000000004,-1.0335459999999999,0.378807
772,-0.5995699999999999,-1.019507,2.727027,-0.295564,0.85185,-0.432424,2.585801,-0.864139,-2.290896,0.313783,-0.858152,0.35904400000000003
773,-0.621879,-0.9544530000000001,2.724837,-0.336753,0.815998,-0.469833,2.465223,-0.6990649999999999,-1.6435389999999999,0.629584,-0.43664899999999995,0.168014
774,-0.611533,-0.9233600000000001,2.709212,-0.346277,0.797633,-0.49383299999999997,0.105611,1.770204,-0.9207709999999999,0.6434270000000001,-0.03599,-0.152697
775,-0.608912,-0.930235,2.686284,-0.341837,0.80176,-0.49023,-0.9712290000000001,0.518275,-0.19709300000000002,0.092295,-0.331805,-0.085561
776,-0.631763,-0.9552700000000001,2.66343,-0.340986,0.816469,-0.46594300000000005,-1.75604,-0.566344,0.524138,0.16381600000000002,-0.536455,-0.17134000000000002
777,-0.660251,-1.006157,2.64759,-0.32819,0.8447819999999999,-0.422649,-2.539089,-0.751896,1.516625,0.007816,-0.366404,-0.016362
778,-0.676076,-1.0765799999999999,2.640662,-0.296811,0.880341,-0.37,-3.067773,-0.23375500000000002,2.402097,-0.192325,0.006836,-0.395854
779,-0.646859,-1.162891,2.656054,-0.23907399999999998,0.917954,-0.31654499999999997,-3.2239150000000003,1.366009,3.1392349999999998,-0.186647,0.11503599999999999,-0.858366
780,-0.578902,-1.252625,2.697331,-0.171147,0.949809,-0.261852,-3.2951879999999996,1.312331,3.038393,-0.056621000000000005,0.606679,-1.048359
781,-0.524853,-1.330538,2.7239880000000003,-0.11922999999999999,0.971276,-0.205916,-2.814778,1.504559,1.9711439999999998,0.058134000000000005,0.743384,-0.48607
782,-0.46566499999999994,-1.381442,2.769101,-0.08451,0.982126,-0.16817100000000001,-1.457623,0.166665,1.571072,0.070716,0.344702,-0.093578
783,-0.317814,-1.4198110000000002,2.915463,-0.046997000000000004,0.9886229999999999,-0.142862,-1.4883,0.462074,2.047975,-0.171769,-0.620291,1.3279969999999999
784,-0.187718,-1.455344,3.042454,-0.021493,0.993343,-0.113147,-1.116307,0.106501,0.338669,-0.50283,0.21872399999999997,0.500598
785,-0.35377600000000003,-1.438021,2.894348,-0.045856,0.9911979999999999,-0.12416600000000001,1.652339,-1.9709459999999999,-1.752273,-0.567334,0.697751,-0.159099
786,-0.556884,-1.335825,2.825279,-0.123046,0.9725209999999999,-0.197628,5.968926000000001,-9.499400999999999,-3.323353,0.354187,2.056349,-1.015706
787,-0.6203810000000001,-1.254701,2.850404,-0.18071099999999998,0.950457,-0.252924,1.146478,0.126778,-0.56529,-0.059325,0.65161,-0.9018
788,-0.515288,-1.24729,2.905118,-0.156649,0.948126,-0.27660799999999997,0.795596,3.212742,0.837289,0.170748,-0.11258599999999999,-0.21139899999999998
