,attitude.roll,attitude.pitch,attitude.yaw,gravity.x,gravity.y,gravity.z,rotationRate.x,rotationRate.y,rotationRate.z,userAcceleration.x,userAcceleration.y,userAcceleration.z
0,-2.384464,-0.894073,0.37911300000000003,-0.430126,0.779629,0.45515900000000004,2.653842,-0.8271459999999999,0.684664,0.40168400000000004,-0.537533,-0.019353
1,-2.374238,-0.94916,0.429119,-0.404298,0.8129270000000001,0.419158,3.203704,-1.8964619999999999,0.9515899999999999,0.278092,-0.639541,-0.022414
2,-2.362836,-1.02025,0.490475,-0.36746,0.852239,0.372373,4.124588,-1.8271509999999997,1.467475,-0.080996,-0.569387,0.10635599999999999
3,-2.340799,-1.107704,0.5565479999999999,-0.320702,0.894676,0.31097600000000003,4.092116000000001,-1.825004,2.289776,-0.183113,-0.346244,0.226316
4,-2.341509,-1.19211,0.6025020000000001,-0.265228,0.9291510000000001,0.25755,3.2676819999999998,-2.2704869999999997,2.2546779999999997,-0.308716,0.039049,0.41817
5,-2.339518,-1.2503819999999999,0.643884,-0.22639299999999998,0.949105,0.21896500000000002,2.080511,-1.4616870000000002,1.090602,-0.23466700000000001,1.280418,0.449416
6,-2.295936,-1.270058,0.7072510000000001,-0.22169699999999998,0.955118,0.196468,0.967613,-0.721633,-0.527931,0.247286,0.808004,0.261204
7,-2.269788,-1.254536,0.771985,-0.23807899999999999,0.9504049999999999,0.200121,-0.27566199999999996,-2.476444,-1.504312,0.025325999999999998,-0.027232999999999997,0.279005
8,-2.3088610000000003,-1.221971,0.778205,-0.25285,0.939775,0.229979,-1.159993,-1.428403,-0.958493,0.376583,-0.757203,-0.5576770000000001
9,-2.289181,-1.219699,0.776087,-0.25893299999999997,0.9389959999999999,0.226363,0.713765,2.441176,0.487464,0.580451,-0.787003,-1.177718
10,-2.190039,-1.263794,0.801746,-0.24608899999999997,0.9532440000000001,0.175404,1.9548830000000001,3.777313,2.00275,1.153117,-0.217968,-1.575779
11,-2.3557759999999996,-1.306278,0.751266,-0.184946,0.965219,0.184791,-0.12234300000000001,-9.898322,1.845532,1.25001,1.961799,1.434242
12,-2.448825,-1.317688,0.679064,-0.159932,0.968139,0.192689,0.548836,6.324839,0.7131390000000001,-1.513682,2.765565,2.608366
13,-2.2887939999999998,-1.308475,0.725821,-0.195303,0.965791,0.170603,-0.8359850000000001,1.461904,-1.558138,-2.423105,1.8288259999999998,-0.956736
14,-2.37014,-1.280726,0.700244,-0.199406,0.958224,0.20504699999999998,-0.802795,-2.8654479999999998,-0.20640100000000003,-0.195903,-0.341677,-1.09169
15,-2.3366860000000003,-1.2999610000000001,0.736583,-0.192831,0.963548,0.185451,2.122573,1.48663,0.612827,0.211966,-0.977403,-0.493159
16,-2.1572400000000003,-1.352955,0.865265,-0.18001099999999998,0.976366,0.119603,2.797261,2.668519,1.234526,0.479343,-1.030749,-0.281636
17,-2.0529319999999998,-1.395047,0.973311,-0.154915,0.9845959999999999,0.081071,1.7733299999999999,-1.692694,1.316284,0.316414,-0.1231,-0.144441
18,-1.8811669999999998,-1.429538,1.191214,-0.134062,0.9900399999999999,0.042999,2.46216,-1.9769169999999998,0.40278800000000003,-0.360078,0.8875850000000001,-0.045989
19,-1.628925,-1.433171,1.4693129999999999,-0.136959,0.9905450000000001,0.00797,1.4805840000000001,-0.45304399999999995,-0.20956599999999997,-0.8778879999999999,-0.294072,0.067881
20,-1.44297,-1.431168,1.637968,-0.13804,0.990268,-0.017741999999999997,1.146568,1.594909,-0.043608,-0.5941069999999999,-0.455996,0.251598
21,-1.2375399999999999,-1.4269120000000002,1.820534,-0.1355,0.9896659999999999,-0.046906,1.3519780000000001,0.5640609999999999,0.22620300000000002,0.071748,-0.25043899999999997,0.474213
22,-1.06234,-1.428399,2.012123,-0.12396300000000002,0.9898790000000001,-0.069089,1.07883,-1.175029,0.868525,0.530091,0.051976,0.728681
23,-0.9139149999999999,-1.435142,2.172725,-0.107096,0.9908129999999999,-0.082584,0.521255,0.05749,0.8203219999999999,0.353296,0.074739,0.793292
24,-0.802936,-1.444351,2.263201,-0.090722,0.992016,-0.087595,-0.055878,1.617393,0.7031970000000001,0.064782,0.169147,0.616571
25,-0.7236229999999999,-1.454616,2.307689,-0.076751,0.993259,-0.086872,-0.205731,1.46989,0.42460200000000003,-0.169587,0.177777,-0.055508
26,-0.754632,-1.463668,2.2820110000000002,-0.073244,0.994267,-0.077896,-0.7066520000000001,-1.424311,0.022091999999999997,-0.641081,-0.081593,-0.042083999999999996
27,-1.104676,-1.473256,1.9717790000000002,-0.086997,0.9952469999999999,-0.043768,-2.097812,-1.929984,-0.9846969999999999,-1.189919,0.198982,0.7496550000000001
28,-1.6531,-1.453486,1.456023,-0.116645,0.9931270000000001,0.009622,-2.499778,-2.171442,-1.524511,-1.2636040000000002,0.540458,0.22804899999999997
29,-2.003555,-1.425059,1.177189,-0.13183399999999998,0.989399,0.060903,-1.918246,-4.351277,-0.627826,-0.747423,0.532299,-0.44185399999999997
30,-2.225172,-1.386701,1.035496,-0.145243,0.983102,0.11142,-2.15423,-3.6680050000000004,-1.328967,-0.068502,0.566733,-0.90648
31,-2.3630880000000003,-1.333821,0.962517,-0.164855,0.972052,0.16714400000000001,-2.325957,-3.343983,-1.490816,0.260833,0.9079219999999999,-0.8537889999999999
32,-2.4561580000000003,-1.28041,0.935692,-0.18124500000000002,0.958133,0.22165500000000002,-2.1691689999999997,-3.180221,-1.554024,0.395021,0.668011,-0.62702
33,-2.498675,-1.226265,0.9458110000000001,-0.202496,0.941234,0.270323,-1.897634,-2.3334799999999998,-2.01682,-0.094929,0.23547800000000002,-0.439634
34,-2.495133,-1.1739629999999999,0.9942190000000001,-0.232814,0.9222889999999999,0.308512,-1.381324,-1.9420240000000002,-2.322431,-0.305532,0.13751,-0.36095700000000003
35,-2.488366,-1.129481,1.0457670000000001,-0.259589,0.904191,0.33919499999999997,-1.01338,-2.189355,-2.062103,-0.236246,0.236328,-0.381919
36,-2.508433,-1.0933620000000002,1.084231,-0.271885,0.888177,0.370433,-0.89233,-3.053401,-1.608292,-0.089351,0.165473,-0.353557
37,-2.546631,-1.0624790000000002,1.113916,-0.272789,0.8735649999999999,0.403077,-0.7949470000000001,-3.2368099999999997,-1.380914,0.003257,-0.057311,-0.44896
38,-2.584038,-1.039075,1.142498,-0.268269,0.861936,0.43023100000000003,-0.467449,-3.023658,-1.156709,0.153951,-0.256787,-0.548257
39,-2.617832,-1.022485,1.172855,-0.26069699999999996,0.853406,0.451371,-0.235209,-3.020525,-1.076043,0.282578,-0.38223,-0.646806
40,-2.651789,-1.008966,1.203822,-0.250627,0.846282,0.4701,-0.173652,-3.030576,-1.013643,0.269243,-0.45643500000000004,-0.653831
41,-2.6863200000000003,-0.9993139999999999,1.233218,-0.237828,0.8411,0.48578599999999994,0.014053,-2.880624,-0.84695,0.186116,-0.40022800000000003,-0.585518
42,-2.7174110000000002,-0.9965229999999999,1.258775,-0.22357800000000003,0.8395870000000001,0.49508199999999997,0.251673,-2.455299,-0.59053,0.12851600000000002,-0.331424,-0.583476
43,-2.744777,-0.999769,1.277392,-0.208893,0.8413459999999999,0.49849799999999994,0.402844,-1.9862009999999999,-0.283495,0.060944000000000005,-0.189094,-0.597924
44,-2.7709200000000003,-1.008022,1.289477,-0.193269,0.845778,0.497299,0.568481,-1.7287119999999998,-0.083979,0.138978,-0.078475,-0.587249
45,-2.794293,-1.021356,1.299288,-0.177739,0.852817,0.49103100000000005,0.819749,-1.489307,0.034974,0.229634,-0.047534,-0.500858
46,-2.8125459999999998,-1.041639,1.3095700000000001,-0.163124,0.863233,0.477724,1.193703,-1.303385,0.10250899999999999,0.321205,-0.097211,-0.37901399999999996
47,-2.825372,-1.069732,1.325772,-0.14938099999999999,0.877072,0.456542,1.612922,-1.386599,0.03611,0.30132800000000004,-0.129498,-0.241973
48,-2.8328330000000004,-1.104607,1.348092,-0.13658800000000001,0.893288,0.42823,1.9202119999999998,-1.355812,0.062786,0.20525300000000002,-0.062064999999999995,-0.099845
49,-2.845026,-1.142061,1.367904,-0.12149000000000001,0.909492,0.397573,1.824425,-1.612878,0.229089,0.080794,0.11223599999999999,0.170146
50,-2.895155,-1.167238,1.35931,-0.09579800000000001,0.9196700000000001,0.380829,0.64662,-2.571489,0.6824939999999999,-0.234494,0.682808,0.753555
51,-2.978749,-1.166801,1.338095,-0.06373,0.9194979999999999,0.387895,-0.37969899999999995,-3.4250809999999996,0.051509000000000006,-0.649725,0.6919529999999999,0.785323
52,-3.034724,-1.166319,1.3535409999999999,-0.041977,0.919308,0.391293,0.34831599999999996,-3.5387699999999995,-0.38657199999999997,-0.877136,0.45317399999999997,0.683154
53,-3.070713,-1.175916,1.389524,-0.027244,0.923042,0.383732,0.677629,-3.3177449999999995,-0.7979649999999999,-0.252907,-0.176537,0.305691
54,-3.063684,-1.1858440000000001,1.454364,-0.029226,0.926816,0.374375,0.50632,-2.1726799999999997,-1.421266,-0.089991,-0.172834,0.237288
55,-3.01289,-1.188769,1.540848,-0.047848,0.927911,0.369719,0.22040700000000002,-1.2024629999999998,-1.6434919999999997,0.083188,-0.124047,0.09640599999999999
56,-2.94075,-1.1884620000000001,1.636184,-0.074429,0.927796,0.365587,0.316316,-0.22625599999999998,-1.829943,0.098492,-0.079057,-0.485353
57,-2.821059,-1.191434,1.722002,-0.11668099999999999,0.928901,0.351466,0.752084,3.202744,-1.11238,0.084378,-0.16956300000000002,-0.871135
58,-2.73429,-1.209331,1.748893,-0.14009100000000002,0.9353799999999999,0.324714,1.011348,2.373238,0.439416,0.221527,-0.079484,-1.1095190000000001
59,-2.8421939999999997,-1.209019,1.684752,-0.10439200000000001,0.935269,0.338192,-0.9836229999999999,-5.209529,1.134884,-0.152123,1.765338,1.158879
60,-2.92655,-1.209331,1.677157,-0.075464,0.9353799999999999,0.3455,0.313794,-2.234614,-0.420538,-0.342932,1.38124,0.699712
61,-2.899885,-1.211946,1.720589,-0.084063,0.936301,0.340989,0.354416,-0.431958,-0.7740090000000001,-0.24748,-0.005439,-0.7830060000000001
62,-2.875702,-1.225109,1.767534,-0.089038,0.940843,0.326936,1.159565,-1.316217,-0.386965,0.011248000000000001,-0.688584,-1.498399
63,-2.894018,-1.263925,1.7669529999999998,-0.074025,0.953283,0.29286799999999996,2.328607,-0.46937299999999993,1.007736,0.145726,-0.974981,-1.28414
64,-2.940491,-1.315202,1.731927,-0.050501,0.967513,0.24772600000000003,2.166881,-1.00719,0.8449260000000001,0.028223,-0.92604,-1.1237629999999998
65,-2.9597450000000003,-1.3533190000000002,1.745122,-0.039021,0.9764450000000001,0.21220999999999998,1.875321,-2.0642650000000002,-0.152407,-0.9668540000000001,0.203227,-0.059729
66,-2.929642,-1.385825,1.827316,-0.038689999999999995,0.982942,0.179802,1.57402,-2.605782,-0.6003350000000001,-0.833777,0.48051400000000005,-0.271813
67,-2.869774,-1.407306,1.938295,-0.043699,0.986665,0.15678699999999998,1.1597549999999999,-2.293965,-0.696563,-0.628633,0.610961,-0.44685699999999995
68,-2.799655,-1.4276280000000001,2.045087,-0.047843000000000004,0.989769,0.13442,1.226708,-1.41826,-0.23467800000000003,0.6164,0.213036,0.07335900000000001
69,-2.782494,-1.446936,2.078389,-0.043417000000000004,0.992339,0.11566400000000002,0.8111010000000001,-0.395921,0.206558,0.7451840000000001,-0.017592,0.15121199999999999
70,-2.7378150000000003,-1.460015,2.1213029999999997,-0.043437,0.99387,0.10166499999999999,0.672298,0.294742,-0.030305000000000002,0.242823,-0.194233,-0.019542
71,-2.6927779999999997,-1.4728450000000002,2.156109,-0.042433,0.995207,0.088109,0.662065,0.603919,0.182871,-0.035418,-0.177091,-0.197301
72,-2.6743259999999998,-1.487847,2.161107,-0.037321,0.9965620000000001,0.073972,0.7011649999999999,0.711671,0.375286,-0.108705,-0.161158,-0.173673
73,-2.675691,-1.504658,2.14751,-0.029689999999999998,0.997814,0.059046,0.738336,0.486566,0.426041,-0.385975,-0.038783,-0.090861
74,-2.683019,-1.520704,2.1409849999999997,-0.022165,0.9987459999999999,0.044898,0.689458,-0.519543,0.324439,-0.567465,0.03876,-0.307883
75,-2.570941,-1.538176,2.279849,-0.017618,0.999468,0.027448,1.1009010000000001,-1.553336,0.08722,-0.54595,-0.008761,-0.307706
76,-1.7395349999999998,-1.553032,3.140348,-0.017509,0.999842,0.002983,1.235596,-1.408317,-0.06478099999999999,-0.394814,-0.154673,-0.006813
77,-0.831832,-1.544167,-2.2111970000000003,-0.01968,0.9996450000000001,-0.017933,0.967933,-0.9395899999999999,-0.100366,-0.326221,-0.038784,0.127689
78,-0.5263909999999999,-1.528674,-1.895218,-0.021157,0.9991129999999999,-0.036409,0.972382,-0.361415,-0.036982,-0.080696,0.010759000000000001,-0.019484
79,-0.35533000000000003,-1.507798,-1.715917,-0.021903,0.998016,-0.059024,1.240704,-0.461496,-0.016819999999999998,0.271552,-0.010467,-0.178112
80,-0.256416,-1.483162,-1.608663,-0.022197,0.9961629999999999,-0.08466,1.291297,-0.271351,0.074088,0.34726999999999997,-0.17907,-0.051401999999999996
81,-0.16311900000000001,-1.4608700000000001,-1.5191780000000001,-0.017816,0.993964,-0.108249,1.086072,0.525508,0.24361799999999997,0.131524,-0.123847,0.133273
82,-0.075456,-1.443902,-1.451568,-0.00954,0.9919600000000001,-0.126194,0.7745310000000001,1.3251899999999999,0.332284,-0.11779400000000001,0.14923,0.269474
83,0.010103000000000001,-1.432572,-1.400113,0.001392,0.9904620000000001,-0.137777,0.45847299999999996,1.9177689999999998,0.268428,-0.1832,0.351167,0.335791
84,0.06104400000000001,-1.42677,-1.390094,0.008756,0.9896459999999999,-0.143262,0.190594,2.0871009999999997,-0.019943000000000002,-0.11149400000000001,0.224816,0.261808
85,0.10643499999999999,-1.4268290000000001,-1.3838700000000002,0.015241,0.989655,-0.14265899999999998,-0.13778800000000002,1.8127950000000002,0.13087000000000001,-0.090925,-0.039886000000000005,0.075291
86,0.17632799999999998,-1.432221,-1.343058,0.024231,0.9904139999999999,-0.13599,-0.373408,1.294193,0.287986,-0.209686,-0.13392300000000001,0.022373
87,0.245275,-1.438972,-1.293039,0.031917,0.991324,-0.12750899999999998,-0.402419,0.693801,0.207367,-0.402294,-0.106726,0.069464
88,0.26674200000000003,-1.4456200000000001,-1.269628,0.032909,0.9921760000000001,-0.12043499999999999,-0.31961,-0.579619,-0.026499,-0.560085,0.220349,0.087872
89,0.230831,-1.451667,-1.2857530000000001,0.027191000000000003,0.9929120000000001,-0.115695,-0.28688,-1.110431,-0.24457600000000002,-0.7154229999999999,0.403526,0.240909
90,0.163159,-1.465526,-1.331708,0.017068,0.9944639999999999,-0.103681,-0.915269,-1.1200219999999999,-0.497849,-0.955026,0.431134,0.328504
91,-0.011216,-1.496512,-1.479734,-0.0008320000000000001,0.997242,-0.074211,-1.8344349999999998,-1.4463620000000001,-0.9407540000000001,-1.1819979999999999,0.474026,0.220406
92,-0.735624,-1.5346030000000002,-2.176282,-0.024281,0.999345,-0.026826999999999997,-2.643344,-1.471434,-1.162153,-1.027202,0.445891,0.279589
93,-2.2184,-1.5105600000000001,2.660864,-0.048010000000000004,0.998186,0.036316,-3.345298,-2.2219290000000003,-1.2173690000000001,-0.43152799999999997,0.50247,0.276321
94,-2.607789,-1.4366700000000001,2.3211459999999997,-0.06804,0.9910190000000001,0.11512,-4.099416000000001,-2.600899,-1.163398,0.24740700000000002,0.571665,0.101173
95,-2.7437419999999997,-1.348506,2.230909,-0.08541599999999999,0.9753950000000001,0.203245,-4.259328,-2.104013,-1.407638,0.753476,0.7293930000000001,-0.29391300000000004
96,-2.761068,-1.266888,2.2409169999999996,-0.111144,0.954174,0.277846,-3.3233949999999997,-0.9702790000000001,-1.7561349999999998,0.8584129999999999,0.8365360000000001,-0.501632
97,-2.7341729999999997,-1.20331,2.279366,-0.14235799999999998,0.933233,0.329863,-2.407004,-0.16228900000000002,-1.878956,0.29479299999999997,0.40273400000000004,-0.920225
98,-2.676889,-1.144946,2.33648,-0.185132,0.9106879999999999,0.369288,-2.0869400000000002,0.44613100000000006,-2.458613,-0.148517,0.095721,-0.747691
99,-2.603852,-1.081128,2.400509,-0.24090300000000003,0.882489,0.403954,-2.2126,1.000182,-2.9088540000000003,-0.507632,0.061511,-0.47310699999999994
100,-2.542179,-1.008661,2.4471979999999998,-0.300693,0.8461190000000001,0.440076,-2.5042419999999996,0.929768,-2.895845,-0.595334,0.197247,-0.274777
101,-2.516347,-0.9407639999999999,2.4740159999999998,-0.34484000000000004,0.808008,0.47771099999999994,-2.140272,-0.38506399999999996,-2.342552,-0.326516,0.291754,-0.32852600000000004
102,-2.523056,-0.8895200000000001,2.4974119999999997,-0.365177,0.77677,0.513103,-1.36599,-1.7177369999999998,-1.9455349999999998,-0.30618,0.322992,-0.36391799999999996
103,-2.550123,-0.854449,2.524023,-0.366127,0.754209,0.545086,-0.765067,-2.7173380000000003,-1.574725,0.216408,-0.208708,-0.6966060000000001
104,-2.589051,-0.827757,2.552264,-0.355078,0.736416,0.575857,-0.497255,-3.051184,-1.436762,0.285986,-0.446087,-0.689459
105,-2.621579,-0.8136680000000001,2.5790919999999997,-0.34128400000000003,0.726811,0.596046,0.10597999999999999,-2.264668,-0.9806299999999999,0.25821500000000003,-0.503514,-0.611228
106,-2.640275,-0.813129,2.604911,-0.330269,0.726441,0.602665,0.58099,-1.683717,-0.6875,0.308053,-0.583665,-0.6554909999999999
107,-2.64663,-0.824667,2.632347,-0.32243,0.734322,0.597337,1.198242,-1.10189,-0.47029,0.27973600000000004,-0.641365,-0.550858
108,-2.639932,-0.849825,2.6623639999999997,-0.31743699999999997,0.751165,0.578779,1.791219,-0.57693,-0.130331,0.34839699999999996,-0.808004,-0.489576
109,-2.621671,-0.887912,2.6861479999999998,-0.31350500000000003,0.775756,0.547647,2.1691439999999997,0.36404000000000003,0.523787,0.5211,-0.9671930000000001,-0.370523
110,-2.599549,-0.939133,2.698608,-0.304626,0.8070470000000001,0.505845,2.5612310000000003,0.6816720000000001,1.202304,0.658416,-0.815271,-0.259904
111,-2.579987,-1.0004959999999998,2.708116,-0.287513,0.8417389999999999,0.456959,2.777174,0.494788,1.396331,0.618919,-0.723621,-0.226856
112,-2.5658790000000002,-1.057962,2.719546,-0.26712600000000003,0.871358,0.411558,2.401147,0.0055899999999999995,1.249054,0.4661,-0.552937,-0.153791
113,-2.5682840000000002,-1.100378,2.724333,-0.245854,0.891379,0.380788,1.476204,-0.550193,0.9132239999999999,-0.6084390000000001,0.708108,0.075801
114,-2.593237,-1.12784,2.716882,-0.223429,0.903489,0.36577,0.943644,-1.0543879999999999,0.921901,-0.75884,0.927047,0.052748
115,-2.623638,-1.1546969999999999,2.7029669999999997,-0.20011900000000002,0.9146719999999999,0.351179,1.100227,-0.691447,0.865914,-0.35320999999999997,0.14996400000000001,-0.0038280000000000002
116,-2.618963,-1.182771,2.713567,-0.188863,0.925658,0.327853,1.435837,0.020378,0.254187,-0.008173999999999999,-0.354217,-0.165652
117,-2.565243,-1.2050809999999998,2.7626310000000003,-0.19489,0.933868,0.299847,1.350542,0.564474,-0.405131,0.138676,-0.418716,-0.342816
118,-2.507315,-1.220834,2.81592,-0.203179,0.939386,0.276175,1.076634,0.187227,-0.133096,0.17166900000000002,-0.248819,-0.258063
119,-2.4961729999999998,-1.236669,2.832703,-0.19727,0.9446969999999999,0.26197800000000004,0.606869,-0.48251000000000005,0.45948,0.24338200000000001,-0.012553,0.099106
120,-2.5354759999999996,-1.250833,2.813262,-0.17918199999999998,0.949247,0.25850300000000004,0.31361999999999995,-1.40283,0.69362,0.222273,0.192233,0.24517399999999998
121,-2.562292,-1.257887,2.809295,-0.168517,0.951442,0.25760500000000003,0.307696,-0.695347,-0.134131,0.087279,1.356892,0.06785
122,-2.504169,-1.2574290000000001,2.87806,-0.183456,0.9513010000000001,0.247731,0.6325069999999999,-0.5289550000000001,-1.2654590000000001,0.007736,1.489541,-0.104206
123,-2.4575240000000003,-1.2400579999999999,2.950756,-0.20522100000000001,0.9458030000000001,0.251677,-0.38157199999999997,-1.225955,-1.374199,0.020574000000000002,0.765714,-0.094542
124,-2.448913,-1.224502,2.976485,-0.21675100000000003,0.9406370000000001,0.261192,-0.113686,-0.532794,-0.458818,0.08204600000000001,-0.512551,-0.877541
125,-2.446807,-1.2292379999999998,2.978482,-0.214446,0.942234,0.25731,0.272781,0.48041000000000006,0.505051,-0.089876,-0.396198,0.238738
126,-2.470861,-1.242316,2.929411,-0.200518,0.946534,0.252718,-0.068801,1.09788,1.164172,-0.33885,0.265838,1.232908
127,-2.484898,-1.2509350000000001,2.907474,-0.19196300000000002,0.9492790000000001,0.24903699999999998,0.095953,-0.237981,-0.041125,-0.522728,1.102494,-1.1957229999999999
128,-2.4747,-1.2421520000000001,2.919061,-0.19964300000000001,0.9464809999999999,0.253608,-0.236,0.282493,-0.440421,-0.337009,-0.194772,-0.257652
129,-2.4395330000000004,-1.241528,2.944051,-0.208817,0.9462790000000001,0.246883,0.534104,0.630733,-0.28273200000000004,-0.016036,-0.39824499999999996,-0.470775
130,-2.378847,-1.254437,2.992537,-0.214948,0.9503739999999999,0.224913,1.224956,0.828425,0.029488,-0.009936,-0.32021700000000003,-0.092986
131,-2.3161869999999998,-1.2808950000000001,3.046159,-0.21005500000000002,0.9582719999999999,0.193885,1.584327,0.331972,0.525085,-0.48103100000000004,0.057261,0.017952000000000003
132,-2.257825,-1.3082719999999999,3.1088270000000002,-0.20064300000000002,0.9657379999999999,0.164598,1.500242,-0.22118400000000002,0.401293,-0.42679799999999996,0.083853,-0.27270700000000003
133,-2.1879,-1.327546,-3.0988689999999997,-0.196434,0.9705600000000001,0.139379,1.2256120000000001,-0.236756,0.005221,-0.273308,-0.054484000000000005,-0.006795000000000001
134,-2.1077150000000002,-1.336333,-3.0069470000000003,-0.199631,0.9726389999999999,0.11882999999999999,1.115615,-0.527184,-0.263299,-0.14476,-0.158201,0.026251
135,-2.042554,-1.342997,-2.932734,-0.201166,0.974166,0.102631,0.7456149999999999,-0.211654,0.00504,0.058863,-0.158461,0.064529
136,-2.015941,-1.3523129999999999,-2.904416,-0.195627,0.9762270000000001,0.09333,0.33928200000000003,-0.004164,0.41640600000000005,0.13358399999999998,-0.175095,0.28238800000000003
137,-2.025451,-1.362269,-2.915413,-0.18598900000000002,0.9783370000000001,0.090913,-0.012648000000000001,0.136177,0.523795,0.176803,-0.170659,0.285582
138,-2.056638,-1.369157,-2.953652,-0.1771,0.9797399999999999,0.093519,-0.24183000000000002,0.355609,0.45995600000000003,0.22215900000000002,-0.20477599999999999,0.302187
139,-2.089316,-1.3745370000000001,-2.995232,-0.16937,0.9808030000000001,0.09664199999999999,-0.24859299999999998,0.467667,0.4149,0.045255000000000004,-0.310377,0.068824
140,-2.12566,-1.3769790000000002,-3.044639,-0.163709,0.981276,0.10147,-0.399769,0.660412,0.297161,-0.17467,-0.30461,0.097611
141,-2.1623669999999997,-1.3754819999999999,-3.095241,-0.16109500000000002,0.980987,0.10822899999999999,-0.48571499999999995,0.631424,0.162002,-0.23275,-0.30343600000000004,0.037813
142,-2.208422,-1.369746,3.130229,-0.16046,0.979857,0.118878,-0.698256,0.473868,0.053897,-0.219255,-0.443877,0.0015140000000000002
143,-2.248675,-1.362668,3.081223,-0.160945,0.978419,0.12958599999999998,-0.571918,0.302053,0.020816,-0.135351,-0.541636,-0.123177
144,-2.291481,-1.354663,3.033464,-0.161131,0.976734,0.141518,-0.6865180000000001,0.18004,-0.003329,-0.18776099999999998,-0.589527,-0.09299500000000001
145,-2.327295,-1.346525,2.9939419999999997,-0.161736,0.9749559999999999,0.152648,-0.47597399999999995,0.046058999999999996,0.019678,-0.283592,-0.326366,-0.002837
146,-2.362866,-1.338933,2.9622439999999997,-0.1614,0.97324,0.16356800000000002,-0.663406,-0.447196,-0.076071,-0.09914400000000001,-0.144886,-0.080041
147,-2.420082,-1.320429,2.920657,-0.16365,0.9688209999999999,0.18602,-1.234987,-0.996582,-0.453237,-0.386932,0.351171,0.31051599999999996
148,-2.471379,-1.278589,2.8884819999999998,-0.17893399999999998,0.9576100000000001,0.225755,-2.334044,-0.961514,-1.342242,-0.665732,1.09578,0.331374
149,-2.5142740000000003,-1.2108459999999999,2.862182,-0.206749,0.9359139999999999,0.285165,-3.2846040000000003,-0.9965940000000001,-1.8679919999999999,-0.6328199999999999,1.2283620000000002,0.363501
150,-2.563741,-1.131298,2.834075,-0.232411,0.9049649999999999,0.356402,-3.628375,-1.12388,-1.706793,0.033726,1.0558809999999998,0.022458000000000002
151,-2.5906860000000003,-1.058073,2.8151080000000004,-0.256784,0.8714120000000001,0.417975,-3.077336,-0.12937,-1.537575,0.32609,0.827349,-0.104773
152,-2.593934,-0.9969370000000001,2.812768,-0.28267,0.8398120000000001,0.463479,-2.385688,-0.103914,-1.576574,0.385759,0.6586310000000001,-0.18435
153,-2.586354,-0.949459,2.821998,-0.30686399999999997,0.8131010000000001,0.494673,-1.5781020000000001,0.136208,-1.320208,0.223627,0.41866499999999995,-0.272338
154,-2.571078,-0.91684,2.827563,-0.32853899999999997,0.793683,0.5119859999999999,-1.2005649999999999,0.8274969999999999,-0.8302799999999999,-0.05876,0.111972,-0.065941
155,-2.5519439999999998,-0.8948879999999999,2.827702,-0.34788,0.780139,0.519964,-0.6727529999999999,0.8785569999999999,-0.47093999999999997,0.012736,-0.12933599999999998,-0.34375500000000003
156,-2.540206,-0.8885129999999999,2.829793,-0.35676599999999997,0.776135,0.519935,0.018512999999999998,0.284483,-0.092541,0.05272,-0.24592199999999997,-0.52523
157,-2.53255,-0.89571,2.835251,-0.357531,0.7806529999999999,0.5125930000000001,0.620875,0.174956,0.13506500000000002,0.057589,-0.386946,-0.512975
158,-2.5187880000000002,-0.9139879999999999,2.845934,-0.356168,0.791945,0.49595100000000003,1.100729,0.299329,0.31771900000000003,0.11779500000000001,-0.601577,-0.563928
159,-2.49942,-0.9392379999999999,2.8608729999999998,-0.353614,0.807109,0.472793,1.384586,0.428904,0.434904,0.214759,-0.71313,-0.5829
160,-2.4801509999999998,-0.9725950000000001,2.878833,-0.345922,0.82635,0.444391,1.8178599999999998,0.006613,0.702322,0.25151599999999996,-0.843684,-0.518564
161,-2.469032,-1.017233,2.9020919999999997,-0.32752,0.850656,0.411235,2.337352,-0.661145,1.006977,0.24854099999999998,-0.958002,-0.491939
162,-2.462987,-1.075445,2.9282209999999997,-0.298375,0.8798020000000001,0.370028,2.889071,-0.8196389999999999,1.535531,0.252996,-1.013133,-0.435366
163,-2.460379,-1.1490559999999999,2.9498830000000003,-0.257782,0.912378,0.317986,3.298553,-0.9620290000000001,2.156006,0.382187,-0.708276,-0.280159
164,-2.474319,-1.23248,2.9666740000000003,-0.205395,0.943315,0.260711,3.506624,-1.8491810000000002,2.4523580000000003,0.22373600000000002,-0.206544,-0.036223000000000005
165,-2.5163159999999998,-1.311994,2.975009,-0.149797,0.9666969999999999,0.207502,2.958109,-2.749032,2.052301,-0.272673,0.824257,0.413362
166,-2.519148,-1.356557,3.0075849999999997,-0.123953,0.977138,0.172732,1.417476,-0.5652119999999999,0.192853,-0.547983,1.580387,0.780088
167,-2.4003,-1.3604040000000002,3.1054310000000003,-0.14102,0.977949,0.154042,0.540111,1.704284,-1.024342,-0.253847,0.559084,0.7842210000000001
168,-2.278492,-1.34781,-3.081862,-0.16803800000000002,0.975241,0.143762,0.21078400000000003,1.070519,-1.023694,0.114098,0.066629,1.026435
169,-2.223255,-1.344201,-3.048308,-0.178514,0.9744370000000001,0.136401,0.18921300000000002,1.469541,-0.09286599999999999,0.28994899999999996,0.283086,0.15978699999999998
170,-2.192023,-1.3444909999999999,-3.033589,-0.18245699999999998,0.9745020000000001,0.130596,0.038045999999999996,0.088528,-0.124199,0.690316,0.759965,-1.314007
171,-2.210703,-1.3415139999999999,-3.028219,-0.182313,0.97383,0.135713,-0.017599,-2.121578,-0.16128,0.8741770000000001,0.75258,-1.301744
172,-2.268863,-1.336394,-3.03577,-0.177932,0.9726530000000001,0.149283,-0.38388,-1.956261,-0.159777,-0.338075,0.071841,0.73475
173,-2.2602830000000003,-1.33187,-3.032565,-0.1826,0.971593,0.150549,0.134074,1.283409,-0.11758199999999999,-0.989885,0.17773,-0.289404
174,-2.250491,-1.338581,-3.046434,-0.17899,0.973159,0.144652,-0.051834000000000005,0.7061109999999999,0.5548390000000001,-0.9902299999999999,0.891084,0.19192599999999999
175,-2.27508,-1.3405200000000002,-3.0759819999999998,-0.173941,0.9736030000000001,0.147787,-0.188326,0.206916,0.036438,-0.373865,0.49650500000000003,-0.355779
176,-2.251728,-1.337723,-3.066805,-0.17945999999999998,0.9729610000000001,0.145399,0.13366,0.872541,-0.199311,-0.068221,-0.03537,-0.261747
177,-2.1939509999999998,-1.3410229999999999,-3.021589,-0.184948,0.9737180000000001,0.132919,0.762656,0.548564,-0.178479,-0.041141000000000004,-0.300058,-0.097961
178,-2.113068,-1.349747,-2.9455240000000003,-0.187799,0.975668,0.113153,0.964777,0.32357600000000003,-0.033638,-0.171103,-0.419897,-0.098871
179,-2.0424729999999998,-1.3591090000000001,-2.883553,-0.187168,0.977678,0.09547,0.676581,0.47405600000000003,0.146823,-0.189602,-0.340898,0.004277
180,-2.027964,-1.3664,-2.867353,-0.182132,0.979184,0.08959500000000001,0.080764,-0.404511,0.325384,-0.062787,-0.196499,0.128117
181,-2.0747150000000003,-1.372262,-2.901768,-0.172716,0.9803569999999999,0.095236,-0.262401,-0.689239,0.43124300000000004,0.26532100000000003,-0.271586,0.124918
182,-2.1259349999999997,-1.375009,-2.941351,-0.165324,0.9808950000000001,0.10253399999999999,-0.278003,-0.541457,0.251483,0.22829699999999997,-0.28634499999999996,0.17915899999999998
183,-2.1745520000000003,-1.373745,-2.991367,-0.161167,0.980648,0.111151,-0.536591,0.500445,0.19386199999999998,0.129581,-0.237423,0.164346
184,-2.212212,-1.369257,-3.0539110000000003,-0.160392,0.9797600000000001,0.119772,-0.7136279999999999,1.463013,0.191392,-0.10797899999999999,-0.192406,0.211069
185,-2.246011,-1.363635,-3.1214470000000003,-0.16055,0.978619,0.128565,-0.691807,1.548249,0.169003,-0.014972,-0.3307,-0.121546
186,-2.29071,-1.354467,3.0973990000000002,-0.161385,0.976692,0.14152,-0.835957,0.466855,0.062559,0.031349,-0.397316,-0.118815
187,-2.339398,-1.345192,3.046852,-0.16081099999999998,0.974659,0.155497,-0.6983600000000001,-0.089399,-0.011609999999999999,-0.246721,-0.532185,0.017797
188,-2.380801,-1.3331,3.006042,-0.162352,0.9718829999999999,0.170545,-0.7917890000000001,-0.088666,-0.113745,-0.547045,-0.441594,0.173465
189,-2.433626,-1.314426,2.954847,-0.164895,0.967317,0.192635,-1.449067,-0.230746,-0.24313600000000002,-0.5269229999999999,-0.022019,0.299858
190,-2.50579,-1.275711,2.891147,-0.172697,0.956777,0.233994,-2.371267,-0.75841,-0.686872,-0.514605,0.5615939999999999,0.342499
191,-2.584784,-1.218693,2.832888,-0.182258,0.938649,0.29277800000000004,-3.1317,-1.386617,-0.9028870000000001,-0.237465,1.15745,0.217521
192,-2.650639,-1.148981,2.785727,-0.193027,0.9123469999999999,0.361059,-3.6708190000000003,-0.8601780000000001,-1.016286,0.037845,1.370108,0.029795
193,-2.683799,-1.073584,2.758422,-0.21080900000000002,0.878916,0.427863,-3.4794730000000005,-0.111877,-1.301123,0.136667,0.887152,-0.116782
194,-2.674488,-1.005785,2.7587479999999998,-0.24110399999999998,0.844583,0.47806800000000005,-2.7422310000000003,0.766731,-1.612225,0.306884,0.510001,-0.38251799999999997
195,-2.645135,-0.95165,2.776776,-0.276424,0.8143739999999999,0.510279,-1.830328,0.630683,-1.6804569999999999,0.13964400000000002,0.253253,-0.524774
196,-2.6179810000000003,-0.9139709999999999,2.79439,-0.30530999999999997,0.7919350000000001,0.528796,-1.164274,0.7498239999999999,-1.150392,-0.203785,0.098232,-0.274081
197,-2.590148,-0.891533,2.8039080000000003,-0.32913600000000004,0.778036,0.535098,-0.57586,1.134593,-0.6468470000000001,-0.39812800000000004,-0.014959,-0.232913
198,-2.568074,-0.886367,2.81077,-0.343043,0.77478,0.531072,0.182071,0.580116,-0.105663,-0.315175,-0.15098499999999998,-0.391027
199,-2.555083,-0.8992290000000001,2.8169169999999997,-0.344369,0.7828470000000001,0.518228,0.922731,0.358456,0.337766,-0.026557,-0.355006,-0.41910699999999995
200,-2.541489,-0.9265969999999999,2.828951,-0.339152,0.799581,0.49562700000000004,1.559907,0.102038,0.505983,0.231181,-0.686177,-0.499091
201,-2.5257080000000003,-0.9634879999999999,2.8496080000000004,-0.32965900000000004,0.8211870000000001,0.465808,2.035318,-0.129056,0.6089439999999999,0.25008400000000003,-0.8053640000000001,-0.47047700000000003
202,-2.509443,-1.010853,2.876032,-0.313839,0.8472850000000001,0.428501,2.542661,-0.42069700000000004,0.906623,0.1983,-0.994776,-0.355579
203,-2.488899,-1.069922,2.910333,-0.291635,0.8771629999999999,0.38148899999999997,3.10403,-0.343857,1.18391,0.151345,-1.11015,-0.246586
204,-2.4428509999999997,-1.143442,2.953807,-0.266606,0.9100659999999999,0.317335,3.6763800000000004,0.850133,1.79847,0.23111399999999999,-1.139787,-0.20185699999999998
205,-2.385065,-1.227681,2.994318,-0.23092100000000002,0.9417110000000001,0.24465399999999998,3.48221,0.7938430000000001,2.4562779999999997,0.299005,-0.659317,-0.27032
206,-2.392913,-1.3047870000000001,2.9999849999999997,-0.17893699999999998,0.964828,0.19258499999999998,2.455937,-1.721212,2.531381,0.16253399999999998,-0.164748,-0.203861
207,-2.459912,-1.356946,2.985298,-0.133722,0.9772209999999999,0.164795,1.5098479999999999,-2.693943,1.255903,-0.193625,1.151319,0.189941
208,-2.412541,-1.376938,3.062652,-0.128334,0.981268,0.143677,1.127753,-0.6594869999999999,-0.48630200000000007,-0.49311099999999997,1.05108,0.409073
209,-2.2792619999999997,-1.378525,-3.0810299999999997,-0.14510599999999998,0.9815729999999999,0.12433599999999999,0.9574379999999999,-0.190023,-1.0563870000000002,-0.26811799999999997,0.000193,0.7476119999999999
210,-2.186577,-1.3668360000000002,-2.987584,-0.165345,0.9792719999999999,0.11699200000000001,-0.080512,0.7417520000000001,-0.8704149999999999,-0.021315,0.013541,0.465833
211,-2.131311,-1.359003,-2.9658729999999998,-0.178047,0.977656,0.11175399999999999,0.307751,1.632523,-0.192659,0.41823599999999994,0.286077,-0.704604
212,-2.129585,-1.369156,-2.9424,-0.16981400000000002,0.9797389999999999,0.106179,0.263691,-3.300786,0.646568,1.188018,0.657803,-0.25421900000000003
213,-2.254317,-1.3759270000000001,-2.988886,-0.15013800000000002,0.981073,0.12228699999999999,-0.279717,-2.411816,0.18657100000000001,0.856864,0.325735,0.15012799999999998
214,-2.259194,-1.373601,-2.989606,-0.151302,0.98062,0.12446800000000001,0.002916,0.6232479999999999,-0.081331,-0.9579200000000001,0.352983,-0.23520100000000002
215,-2.220782,-1.3766040000000002,-2.988012,-0.153625,0.9812040000000001,0.116783,0.16411900000000001,2.127799,0.215901,-1.221726,0.512311,-0.087227
216,-2.204057,-1.384594,-2.991313,-0.149232,0.982714,0.109554,0.279023,0.516213,0.338409,-0.707625,-0.011233,-0.313748
217,-2.1770970000000003,-1.391284,-2.974386,-0.146726,0.983931,0.101744,0.33073600000000003,0.35627,0.065511,-0.399753,-0.009672,-0.06506100000000001
218,-2.140448,-1.39478,-2.936543,-0.147457,0.984549,0.094443,0.37093400000000004,-0.082261,-0.059697,-0.195072,0.12282699999999999,0.038782
219,-2.1001790000000002,-1.395412,-2.898181,-0.15060199999999999,0.9846600000000001,0.088116,0.260979,0.21810900000000003,-0.221083,0.002912,-0.032816000000000005,0.11896099999999998
220,-2.0716,-1.392764,-2.87073,-0.155345,0.984194,0.08502799999999999,0.038562,-0.110371,-0.200851,0.11552,-0.237933,-0.005224
221,-2.0988740000000004,-1.389184,-2.890025,-0.15601199999999998,0.983554,0.091007,-0.393958,-0.4528,0.026233999999999997,0.20604499999999998,-0.35322800000000004,0.058513
222,-2.1593880000000003,-1.386614,-2.94716,-0.152324,0.983086,0.10167899999999999,-0.552091,-0.061058,0.232931,0.090572,-0.45441499999999996,0.31806
223,-2.227335,-1.385638,-3.019797,-0.145829,0.982907,0.112372,-0.56195,0.304685,0.419332,0.10728499999999999,-0.470258,0.12188099999999999
224,-2.2956369999999997,-1.384204,-3.101425,-0.138875,0.982642,0.12299700000000001,-0.682534,0.753667,0.398687,-0.070857,-0.415625,0.283588
225,-2.354737,-1.378733,3.103164,-0.13517300000000002,0.981612,0.134779,-0.780382,0.895285,0.23331500000000002,-0.190114,-0.256911,0.14937
226,-2.424194,-1.3608069999999999,3.0229630000000003,-0.13704000000000002,0.978033,0.15707000000000002,-1.527485,0.135938,-0.232402,-0.346603,-0.09519,0.114139
227,-2.506885,-1.318017,2.946695,-0.148293,0.9682209999999999,0.201389,-2.6285130000000003,-0.763043,-0.903375,-0.41313900000000003,0.004481000000000001,0.125897
228,-2.583243,-1.250844,2.888521,-0.166629,0.9492510000000001,0.266755,-3.551797,-1.0531620000000002,-1.34315,-0.394803,0.023451,0.060530999999999995
229,-2.640454,-1.172105,2.845939,-0.186507,0.9215700000000001,0.340476,-3.807511,-0.672241,-1.27599,0.053892999999999996,0.211548,0.07370800000000001
230,-2.6772110000000002,-1.100686,2.810249,-0.202878,0.891518,0.405013,-3.223118,0.02565,-0.75151,0.318738,0.7615890000000001,-0.22347899999999998
231,-2.702605,-1.045766,2.776098,-0.213038,0.865309,0.45371300000000003,-2.7499700000000002,0.400062,-0.48803900000000006,0.404566,1.024065,-0.5876239999999999
232,-2.6897849999999996,-0.997116,2.7703130000000002,-0.23695100000000002,0.839909,0.48827,-1.7136630000000002,1.1781979999999999,-0.974247,0.39642,0.8535879999999999,-0.5784189999999999
233,-2.65524,-0.9691040000000001,2.780816,-0.264569,0.8243790000000001,0.5004029999999999,-0.9818549999999999,1.350544,-1.0184950000000002,-0.397312,0.426903,-0.335715
234,-2.6082009999999998,-0.9427760000000001,2.80107,-0.298741,0.809192,0.505927,-0.7229869999999999,1.646164,-1.111069,-0.305309,0.290982,-0.470084
235,-2.561725,-0.9303739999999999,2.821702,-0.327396,0.801844,0.49985799999999997,0.179122,1.277945,-0.653506,-0.19431700000000002,0.130606,-0.544978
236,-2.5253520000000003,-0.941041,2.8408,-0.340395,0.808172,0.48061400000000004,1.045955,0.9788629999999999,0.127393,-0.077605,-0.48602799999999996,-0.53637
237,-2.496828,-0.9698479999999999,2.858061,-0.339826,0.8248,0.45191099999999995,1.7171130000000001,0.5197510000000001,0.604823,-0.060076,-0.614061,-0.43366099999999996
238,-2.472715,-1.0158129999999999,2.884687,-0.326752,0.849909,0.413386,2.6107650000000002,-0.168681,0.961256,-0.020874,-0.740839,-0.339319
239,-2.445725,-1.08083,2.9289,-0.301677,0.8823479999999999,0.361182,3.585754,-0.770169,1.349124,0.15520699999999998,-1.0773709999999999,-0.13841900000000001
240,-2.403619,-1.164287,2.99202,-0.266025,0.918507,0.292534,4.233642,-0.588391,1.9484169999999998,0.259067,-0.9915809999999999,-0.021584
241,-2.3401110000000003,-1.256062,3.067539,-0.222387,0.9508790000000001,0.215346,4.1156120000000005,-0.363649,2.3243869999999998,0.296117,-0.895993,0.01143
242,-2.284836,-1.335911,-3.137581,-0.17588,0.972541,0.15241400000000002,2.9292279999999997,-1.4678440000000001,2.163691,0.097526,-0.097205,-0.138879
243,-2.308976,-1.386639,-3.123163,-0.135452,0.9830909999999999,0.123228,1.117271,-1.9935619999999998,1.4723190000000002,-0.102357,0.383883,-0.063917
244,-2.368868,-1.402479,3.128022,-0.11694600000000001,0.9858680000000001,0.119949,0.14417,-0.775451,0.327372,-0.306348,1.392855,0.7310800000000001
245,-2.292824,-1.405837,-3.088404,-0.123235,0.986425,0.108529,0.7700060000000001,0.893998,-0.5207,-0.23054000000000002,0.9603370000000001,0.9411229999999999
246,-2.148641,-1.403549,-2.952984,-0.139441,0.9860469999999999,0.090928,0.6772560000000001,0.623826,-0.808353,0.25351599999999996,0.44170299999999996,0.136183
247,-2.0720330000000002,-1.397318,-2.899777,-0.151376,0.9849899999999999,0.082941,-0.024768000000000002,1.205562,-0.22434400000000002,0.9806,0.2494,-0.820886
248,-2.1407830000000003,-1.400112,-2.955806,-0.143004,0.985469,0.091658,-0.508467,-2.085677,0.610776,1.452589,-0.067332,-0.814986
249,-2.276001,-1.404109,-3.035181,-0.126342,0.98614,0.107546,-0.182757,-2.535118,0.568762,0.394866,-0.380335,0.095106
250,-2.334066,-1.4223299999999999,-3.095898,-0.106885,0.988999,0.102256,0.399452,2.293491,1.200097,-0.475101,-0.037217,0.8473139999999999
251,-2.252856,-1.431292,-3.090503,-0.10794300000000001,0.9902850000000001,0.087657,0.041951999999999996,3.248355,-0.446549,-2.223341,1.772517,-0.787029
252,-2.264016,-1.4128290000000001,-3.1188439999999997,-0.121003,0.987549,0.100525,-0.9910979999999999,0.535751,-0.247327,-0.585952,-0.30541999999999997,0.077484
253,-2.300494,-1.404401,3.118425,-0.123455,0.986188,0.11041500000000001,-0.17583,-0.042731,-0.145819,0.047604,-0.608777,-0.46980600000000006
254,-2.2768599999999997,-1.4079620000000002,-3.121338,-0.123357,0.986772,0.10518800000000002,0.626289,-1.280032,0.086764,0.085882,-0.8552709999999999,-0.24756799999999998
255,-2.249375,-1.425907,-3.077115,-0.112397,0.9895219999999999,0.090627,0.920213,-0.137037,0.64176,0.072785,-0.836873,0.107188
256,-2.184296,-1.445907,-3.0324310000000003,-0.101849,0.9922120000000001,0.071716,0.704376,1.341699,0.529399,-0.064426,0.059913,0.13630699999999998
257,-2.154302,-1.455786,-3.0213330000000003,-0.09576799999999999,0.993394,0.063225,0.148867,0.6979989999999999,0.280652,0.034245,-0.073838,0.174705
258,-2.172341,-1.456547,-3.047095,-0.09399,0.993481,0.064515,-0.234388,0.152806,0.023369,-0.015355,-0.080868,0.187331
259,-2.207513,-1.451595,-3.085919,-0.095618,0.9929040000000001,0.07070499999999999,-0.403518,0.368058,-0.112685,-0.233636,-0.16328399999999998,0.156529
260,-2.261602,-1.441748,3.126082,-0.099186,0.991685,0.081996,-0.792185,1.016008,-0.10768399999999999,-0.18615299999999999,-0.22783,0.300526
261,-2.328087,-1.426069,3.0344450000000003,-0.104807,0.9895450000000001,0.099075,-1.132678,1.318159,-0.24825,-0.19759200000000002,-0.235471,0.3443
262,-2.388178,-1.398004,2.950691,-0.117626,0.985109,0.125401,-1.6927279999999998,0.8596879999999999,-0.7269329999999999,-0.39388,-0.296525,0.147075
263,-2.457541,-1.3508280000000001,2.883658,-0.137888,0.9759040000000001,0.16910799999999998,-2.512016,-0.825973,-1.2507190000000001,-0.370016,-0.269575,0.248662
264,-2.525223,-1.286384,2.841948,-0.162205,0.9598270000000001,0.22896,-3.050831,-1.494579,-1.6787779999999999,-0.32481,0.101483,0.291319
265,-2.584373,-1.212099,2.812067,-0.185648,0.9363549999999999,0.29795,-3.5370589999999997,-1.551954,-1.5613920000000001,0.224848,0.478318,-0.087272
266,-2.643927,-1.1368200000000002,2.773231,-0.200728,0.907301,0.369477,-3.612053,-0.8496969999999999,-1.024432,0.306151,0.750246,-0.096772
267,-2.684564,-1.069908,2.737204,-0.21190599999999998,0.8771559999999999,0.43091999999999997,-3.1587330000000002,-0.181031,-0.803137,0.31456799999999996,0.991252,-0.52644
268,-2.684869,-1.008894,2.732281,-0.234969,0.8462430000000001,0.478187,-2.502468,0.393446,-1.444495,0.106475,0.082773,-0.18601099999999998
269,-2.655779,-0.960935,2.743183,-0.267435,0.8197270000000001,0.506484,-1.76,1.492738,-1.2708700000000002,0.108026,-0.110453,-0.07987799999999999
270,-2.610173,-0.9290209999999999,2.756106,-0.30335500000000004,0.801034,0.516062,-0.81038,1.655145,-0.884158,-0.132925,0.071631,-0.48014300000000004
271,-2.577643,-0.9197569999999999,2.7652900000000002,-0.323932,0.795454,0.512173,0.051625,1.030912,-0.30477,-0.16128299999999998,0.06271499999999999,-0.5936239999999999
272,-2.5543150000000003,-0.929974,2.776779,-0.33127,0.801604,0.49768599999999996,0.922233,0.577422,0.192206,-0.088622,-0.35263,-0.600438
273,-2.537012,-0.955101,2.786713,-0.328276,0.816372,0.475154,1.3559430000000001,0.360292,0.5683229999999999,-0.022082,-0.624584,-0.43213999999999997
274,-2.519956,-0.990275,2.805272,-0.319405,0.8361770000000001,0.44585699999999995,2.011628,-0.159939,0.626981,0.033546,-0.9291790000000001,-0.35332800000000003
275,-2.510713,-1.041383,2.834991,-0.29789299999999996,0.8631030000000001,0.407814,2.84892,-1.205352,1.06039,0.160396,-1.236928,-0.333412
276,-2.50834,-1.113153,2.867086,-0.261465,0.8970959999999999,0.356167,3.614295,-1.102273,1.790927,0.382207,-1.207658,-0.320705
277,-2.4965509999999997,-1.202018,2.89118,-0.21673,0.9327690000000001,0.288047,3.9477309999999997,-0.263671,2.5089580000000002,0.462121,-0.8058609999999999,-0.19522799999999998
278,-2.500235,-1.295549,2.8980069999999998,-0.162604,0.962358,0.217777,3.5790870000000004,-0.835512,2.775239,0.11517999999999999,0.082945,-0.0030859999999999998
279,-2.5592080000000004,-1.36612,2.870759,-0.111791,0.9791270000000001,0.169745,2.040096,-1.9606150000000002,1.756462,-0.25828,1.486877,0.7100609999999999
280,-2.5381669999999996,-1.3880190000000001,2.910684,-0.103144,0.9833430000000001,0.149662,0.7967390000000001,0.077312,-0.6391060000000001,-0.572821,2.1228740000000004,0.975369
281,-2.371626,-1.377141,3.072062,-0.133965,0.9813069999999999,0.138164,0.614428,0.406317,-1.769912,-0.281715,0.331437,-0.114727
282,-2.193163,-1.372895,-3.0493200000000003,-0.159747,0.9804809999999999,0.11461700000000001,1.084908,1.207955,-0.718659,0.319903,-0.456556,-1.156609
283,-2.143709,-1.37605,-2.990754,-0.162618,0.9810969999999999,0.104902,0.173105,-2.177539,0.08261399999999999,1.091161,-0.172534,0.306093
284,-2.310266,-1.3800430000000001,-3.06446,-0.14007999999999998,0.9818620000000001,0.12777,-0.49525699999999995,-3.9814529999999997,0.761782,0.27058899999999997,0.31299899999999997,0.840217
285,-2.3473919999999997,-1.389182,-3.102799,-0.12883499999999998,0.983553,0.12658699999999998,0.435407,1.598014,0.33384400000000003,-0.932948,0.49578599999999995,-0.447479
286,-2.267833,-1.39614,-3.056035,-0.13323800000000002,0.984786,0.111551,0.5479310000000001,1.33388,-0.043182,-0.537722,-0.13363599999999998,-0.163096
287,-2.200629,-1.4053149999999999,-3.0087740000000003,-0.13312000000000002,0.986339,0.097026,0.561815,1.030616,0.126083,-0.784345,0.43016499999999996,0.8664290000000001
288,-2.145868,-1.406783,-2.977947,-0.137017,0.9865799999999999,0.08880700000000001,0.067771,1.1742219999999999,-0.192677,-0.7335430000000001,1.155815,-0.31292800000000004
289,-2.148519,-1.399357,-2.980443,-0.142914,0.98534,0.093169,-0.45063800000000004,-0.592881,-0.323289,0.014008000000000001,-0.11601600000000001,-0.278593
290,-2.217859,-1.387879,-3.025929,-0.14513,0.983317,0.10965699999999999,-0.624159,-1.55054,-0.179064,0.051059,-0.265681,0.312782
291,-2.264579,-1.38116,-3.050559,-0.144926,0.982073,0.12053699999999999,-0.297309,-0.678455,-0.10205399999999999,0.010054,-0.292894,0.068214
292,-2.30362,-1.374447,-3.0916650000000003,-0.145009,0.980785,0.13051,-0.767864,0.469638,0.1079,-0.08669600000000001,-0.362743,0.18449300000000002
293,-2.374888,-1.361908,3.104157,-0.143868,0.9782620000000001,0.14935,-1.157276,0.718097,0.116612,-0.066352,-0.225958,0.260608
294,-2.4465470000000002,-1.337723,3.020698,-0.14791700000000002,0.9729610000000001,0.17739000000000002,-1.7922169999999997,0.257577,-0.317726,-0.087358,-0.13153,0.349908
295,-2.5133099999999997,-1.293501,2.954971,-0.160901,0.961799,0.221478,-2.596866,-0.36793400000000004,-0.90259,-0.045564999999999994,-0.026358999999999997,0.156802
296,-2.587637,-1.228283,2.8900490000000003,-0.176679,0.9419129999999999,0.285628,-3.56037,-0.71258,-0.9921989999999999,0.137464,0.107464,-0.057937
297,-2.6503259999999997,-1.156226,2.837905,-0.19001700000000002,0.9152889999999999,0.35516,-3.542511,-0.758514,-0.975992,0.145965,0.159692,-0.3905
298,-2.684718,-1.086639,2.81344,-0.205337,0.8850680000000001,0.41772299999999996,-3.168232,-0.353954,-1.238816,0.163833,0.156116,-0.543623
299,-2.6759459999999997,-1.026653,2.817958,-0.23244099999999998,0.8555709999999999,0.46256800000000003,-2.293515,0.57603,-1.463565,0.140049,0.043033999999999996,-0.3412
300,-2.649324,-0.980498,2.8253909999999998,-0.26306799999999997,0.830775,0.490519,-1.8888310000000001,1.2602209999999998,-1.086669,0.10753499999999999,0.1135,-0.34629299999999996
301,-2.6259099999999997,-0.942909,2.827891,-0.289682,0.809271,0.5110439999999999,-1.279333,0.771703,-0.926894,-0.07753600000000001,0.12461300000000002,-0.333752
302,-2.603357,-0.923839,2.842635,-0.308989,0.797921,0.51754,-0.23677399999999998,0.48944399999999993,-0.77504,-0.41600200000000004,0.208182,-0.58329
303,-2.585912,-0.9246209999999999,2.8583439999999998,-0.31764000000000003,0.798392,0.511541,0.576793,0.118467,-0.084151,-0.31511100000000003,0.052163,-0.631261
304,-2.575597,-0.9463940000000001,2.8679740000000002,-0.313502,0.811312,0.49344499999999997,1.365696,0.113293,0.524911,-0.12083900000000002,-0.337405,-0.543311
305,-2.566363,-0.9858450000000001,2.8795759999999997,-0.30039,0.8337389999999999,0.46329899999999996,2.132956,-0.096853,0.9962850000000001,-0.082469,-0.5338729999999999,-0.30389
306,-2.562867,-1.047299,2.890272,-0.273431,0.8660760000000001,0.41850699999999996,3.136687,-0.393988,1.70443,0.053063,-0.688418,-0.16193
307,-2.561156,-1.134225,2.906411,-0.23187800000000003,0.906207,0.353584,4.192978,-0.787607,2.2528330000000003,0.18215,-0.749865,-0.065941
308,-2.561623,-1.232542,2.927149,-0.181848,0.943335,0.27757800000000005,4.276721,-1.0291190000000001,2.370164,0.179498,-0.585288,0.058191999999999994
309,-2.553764,-1.322631,2.9510549999999998,-0.136213,0.9693649999999999,0.204397,3.679615,-0.5220199999999999,2.082264,0.056425,-0.100438,-0.142522
310,-2.550724,-1.392423,2.962975,-0.098843,0.9841340000000001,0.147347,2.469687,-0.514921,1.623014,-0.098911,0.796689,-0.362252
311,-2.5454209999999997,-1.432685,2.989379,-0.0773,0.9904780000000001,0.113923,1.496759,-1.3540219999999998,0.519161,-0.14918599999999999,0.733903,0.49053900000000006
312,-2.466509,-1.44875,3.101221,-0.076085,0.992562,0.09504,0.690608,-1.756371,-0.460172,-0.22782399999999997,0.256141,1.013511
313,-2.382745,-1.4400629999999999,-3.067777,-0.0897,0.991467,0.09459400000000001,0.054397,-0.835234,-0.8920170000000001,0.104348,-0.068172,-0.08754400000000001
314,-2.250633,-1.440604,-2.931421,-0.100961,0.9915370000000001,0.081616,1.068375,-0.46373000000000003,-0.371595,0.586191,-0.23653200000000002,-0.823987
315,-2.2075150000000003,-1.449068,-2.830889,-0.097635,0.9926,0.072197,0.306578,-4.174792,0.198269,0.742334,-0.078889,0.30671
316,-2.352154,-1.454823,-2.9061619999999997,-0.082151,0.993283,0.08148999999999999,-0.105672,-1.7651860000000001,0.567248,-0.758516,0.43136899999999995,0.689521
317,-2.287054,-1.462348,-2.883278,-0.081639,0.994125,0.071065,0.5988600000000001,3.6177629999999996,-0.07032100000000001,-0.8195899999999999,0.7259369999999999,-0.6208229999999999
318,-2.1449740000000004,-1.468861,-2.79707,-0.085441,0.994809,0.05527000000000001,0.525474,2.003186,0.164108,-0.223809,0.026858,0.077069
319,-2.035612,-1.4834559999999999,-2.706063,-0.077974,0.996188,0.039101,0.881804,0.45905,0.525362,-0.5468890000000001,0.629666,0.5775680000000001
320,-1.889102,-1.4987270000000001,-2.566775,-0.068389,0.9974040000000001,0.022535,0.71211,0.278156,0.355629,-1.000825,0.683855,-0.209348
321,-1.7961529999999999,-1.5017969999999998,-2.461429,-0.067201,0.9976200000000001,0.015406,0.12273099999999999,-0.905019,-0.018713,-0.522139,-0.308091,-0.010783
322,-1.9131490000000002,-1.49973,-2.5617419999999997,-0.066886,0.997476,0.023837,-0.55996,-0.872835,-0.016045,-0.174676,-0.553323,0.49017
323,-2.052021,-1.496715,-2.67968,-0.065608,0.997257,0.034258,-0.34815100000000004,-1.128549,0.078698,0.15253699999999998,-0.598179,0.27223
324,-2.183726,-1.4959280000000001,-2.7972099999999998,-0.06118200000000001,0.997199,0.043028,-0.530856,-0.260579,0.294227,0.153314,-0.463721,0.15721300000000002
325,-2.396077,-1.494634,-3.013705,-0.051614,0.997101,0.055904999999999996,-0.68611,0.14465999999999998,0.586384,0.10958299999999999,-0.47734099999999996,0.280262
326,-2.633181,-1.488584,3.032327,-0.039975,0.9966229999999999,0.071733,-0.8362950000000001,-0.125046,0.498086,-0.061847000000000006,-0.428278,0.191847
327,-2.7759560000000003,-1.471986,2.903193,-0.035272000000000005,0.995122,0.092128,-1.178771,-1.110377,-0.015790000000000002,-0.255591,-0.238866,0.17064300000000002
328,-2.849382,-1.4396799999999998,2.857399,-0.037662,0.991417,0.125198,-1.8877220000000001,-1.3684479999999999,-0.397494,-0.32391,-0.0214,0.109528
329,-2.8931430000000002,-1.390987,2.839412,-0.043976999999999995,0.983878,0.17335,-2.643528,-1.389675,-0.560843,-0.188368,0.264352,-0.029612
330,-2.92486,-1.33121,2.8380229999999997,-0.051029000000000005,0.9714360000000001,0.23174899999999998,-3.056934,-1.487485,-0.783659,-0.063106,0.7003010000000001,-0.119872
331,-2.9105659999999998,-1.265658,2.879825,-0.06879,0.9538049999999999,0.292444,-2.993557,-1.035878,-1.6191440000000001,-0.220547,0.991416,-0.21701900000000002
332,-2.8465380000000002,-1.2015719999999999,2.945122,-0.10494500000000001,0.932607,0.34529699999999997,-2.690707,0.768848,-1.9184430000000001,-0.23950700000000003,0.6173350000000001,-0.258353
333,-2.770701,-1.146576,3.003361,-0.149187,0.9113600000000001,0.38362199999999996,-1.889733,1.083918,-2.01687,-0.223402,0.18823399999999998,-0.091065
334,-2.7026830000000004,-1.1029149999999999,3.068236,-0.191652,0.892526,0.408249,-1.19794,0.091375,-2.1571119999999997,-0.25569000000000003,0.183448,-0.080063
335,-2.657618,-1.07471,3.1236330000000003,-0.221477,0.879452,0.421321,-0.423349,-0.24294699999999997,-1.541318,-0.672535,0.307315,-0.026149000000000002
336,-2.624315,-1.062827,-3.1223669999999997,-0.240535,0.873734,0.422767,0.11699200000000001,0.21631199999999998,-0.7102609999999999,-0.653478,0.313033,-0.027594999999999998
337,-2.605223,-1.070775,-3.104927,-0.24500500000000003,0.8775719999999999,0.41211499999999995,0.840311,0.056119,0.094027,-0.007481999999999999,-0.06713200000000001,-0.221548
338,-2.59286,-1.0959,-3.087227,-0.23850300000000002,0.8893399999999999,0.39011599999999996,1.541942,-0.26474000000000003,0.33755300000000005,0.265801,-0.543759,-0.378092
339,-2.568804,-1.13184,-3.0534060000000003,-0.23033800000000001,0.9051959999999999,0.357163,2.123224,-0.296621,0.346995,0.25763600000000003,-0.5596140000000001,-0.345139
340,-2.530287,-1.176778,-3.0099259999999997,-0.220336,0.923374,0.314377,2.458766,0.10693599999999999,0.634037,0.23344299999999998,-0.83852,-0.299744
341,-2.476285,-1.226632,-2.958277,-0.20828400000000002,0.941358,0.26545,2.60949,0.326303,0.789701,0.241106,-0.945233,-0.252785
342,-2.408546,-1.282001,-2.8900900000000003,-0.19056900000000002,0.9585879999999999,0.211644,2.9426419999999998,-0.011674,1.104382,0.166521,-0.9910129999999999,-0.23622600000000002
343,-2.334963,-1.346647,-2.804088,-0.160475,0.974984,0.153801,3.074863,-0.8019930000000001,1.7590009999999998,0.070234,-1.068871,-0.228661
344,-2.322356,-1.416401,-2.760018,-0.112357,0.9881049999999999,0.104999,2.362664,-2.162558,2.427682,-0.040368,0.268594,0.752423
345,-2.53487,-1.4667700000000001,-2.874232,-0.059205999999999995,0.9945940000000001,0.08530499999999999,0.9757040000000001,-6.420175,1.959841,-0.361646,0.909108,1.286383
346,-2.7458720000000003,-1.466069,-2.988452,-0.040296,0.9945209999999999,0.096457,-1.1929610000000002,-3.147082,-0.560208,-1.319156,1.775514,1.103189
347,-2.692731,-1.4223219999999999,-2.9005959999999997,-0.064193,0.9889979999999999,0.133277,-2.048441,-1.4252770000000001,-1.495607,-0.777329,0.725907,0.264017
348,-2.685179,-1.369005,-2.874968,-0.08833400000000001,0.979709,0.17990899999999999,-2.28495,-0.224592,-1.3204049999999998,0.001847,-0.432147,0.617286
349,-2.6161830000000004,-1.333834,-2.8283669999999996,-0.117744,0.9720549999999999,0.20308800000000002,-0.540452,2.054951,-1.1979090000000001,0.414283,-1.152231,0.724219
350,-2.457473,-1.32798,-2.755716,-0.151954,0.970665,0.186333,0.52375,5.863544,-0.581128,1.073875,-1.179435,-0.891152
351,-2.3483099999999997,-1.349163,-2.761159,-0.156659,0.97554,0.15420799999999998,0.759188,4.580239,1.787204,1.712018,0.105072,-1.9098080000000002
352,-2.62795,-1.39666,-2.9893009999999998,-0.08513,0.984877,0.1509,0.24223000000000003,-6.771595,3.6290720000000003,1.834932,1.070498,-1.7315580000000002
353,-3.0525189999999998,-1.416426,2.994122,-0.013678000000000001,0.988109,0.153149,0.235668,-4.643073,1.747297,-0.31754499999999997,2.274419,-0.352489
354,-3.016892,-1.434346,3.003109,-0.016919,0.990705,0.134972,0.916342,4.469499,-1.02098,-1.8414490000000001,2.46126,1.136314
355,-2.8197400000000004,-1.4225940000000001,-3.123426,-0.046709,0.989038,0.140079,-0.607981,-0.23248000000000002,-0.802343,-1.22505,0.039648,-1.331439
356,-2.83121,-1.427343,-3.110314,-0.043664,0.989728,0.136131,0.883632,-1.361251,0.195491,-0.022712,-0.049939,-0.39713200000000004
357,-2.788045,-1.4572049999999999,-3.0464759999999997,-0.039244,0.993555,0.10633699999999999,1.8294970000000002,-0.613136,0.10179400000000001,0.418425,0.070882,-0.392378
358,-2.7130389999999998,-1.498617,-2.9659590000000002,-0.029968,0.997396,0.065595,2.11574,-0.18933599999999998,0.697182,0.35478200000000004,0.033411,-0.11311099999999999
359,-2.766971,-1.546681,-3.020334,-0.008823000000000001,0.9997090000000001,0.022438999999999997,2.2039779999999998,0.233418,1.192912,0.212619,0.11750899999999999,0.044364
360,0.505777,-1.545439,0.24209899999999998,0.012284999999999999,0.9996780000000001,-0.022181,2.225894,0.578467,0.9330450000000001,-0.367921,0.349107,-0.076726
361,0.43646999999999997,-1.501306,0.162215,0.029352999999999997,0.9975870000000001,-0.06292400000000001,1.8987990000000001,0.550287,0.804746,-0.5068,0.016818,0.20263399999999998
362,0.43482200000000004,-1.463846,0.146739,0.044967,0.994286,-0.096813,1.6698240000000002,0.712608,0.637364,-0.297118,-0.256707,0.369701
363,0.422142,-1.430101,0.123771,0.05745499999999999,0.9901190000000001,-0.127922,1.525253,0.324409,0.605873,0.096872,-0.251685,0.37053600000000003
364,0.441429,-1.399183,0.141798,0.07296,0.98531,-0.15440299999999998,1.239793,-0.013378,0.876709,0.096413,-0.196202,0.443358
365,0.49303400000000003,-1.371419,0.194414,0.09374199999999999,0.98019,-0.17447100000000001,0.851449,0.028395,1.154886,-0.197517,-0.107464,0.49031199999999997
366,0.568706,-1.3506209999999998,0.267343,0.117618,0.975859,-0.184024,0.313309,0.399954,1.144241,-0.366535,-0.063872,0.570773
367,0.652317,-1.339017,0.334899,0.13944,0.973259,-0.182545,-0.09573999999999999,1.166491,0.815662,-0.729284,0.098335,0.942174
368,0.716411,-1.334791,0.38163600000000003,0.15354600000000002,0.9722799999999999,-0.17634,-0.176732,0.543092,0.406767,-0.8652920000000001,0.113917,0.572199
369,0.7363810000000001,-1.3347719999999998,0.409113,0.157049,0.972275,-0.173252,-0.314023,-0.82534,0.147983,-0.8821459999999999,0.095291,0.387074
370,0.75645,-1.348235,0.461887,0.151495,0.9753350000000001,-0.16053,-1.375497,-2.004165,-0.10574800000000001,-0.9644379999999999,0.08316699999999999,0.5818409999999999
371,0.863087,-1.38586,0.615222,0.139725,0.9829479999999999,-0.11954200000000001,-3.134187,-2.1057360000000003,-0.35291100000000003,-0.6927949999999999,0.285057,1.291508
372,1.27111,-1.435289,1.076233,0.129072,0.990833,-0.039882,-4.88379,-2.7634369999999997,-0.32797,-0.354139,0.637845,0.653469
373,1.8779830000000002,-1.441474,1.7602799999999998,0.122926,0.99165,0.038995,-3.815918,-3.870227,-0.46223400000000003,-0.21638600000000002,1.040455,-1.04928
374,2.293504,-1.4329450000000001,2.265078,0.10306300000000002,0.9905139999999999,0.090889,-2.965919,-4.50402,-1.741624,-0.593923,1.458217,-1.3787909999999999
375,2.6735439999999997,-1.411728,2.709168,0.071461,0.987375,0.14136300000000002,-2.7327790000000003,-1.531755,-1.9798810000000002,-0.813954,0.929998,-0.825018
376,3.058838,-1.375636,3.106814,0.016030000000000003,0.981017,0.19326,-2.520369,-0.120564,-3.685088,-1.310585,0.354433,-0.69886
377,-2.855761,-1.321393,-2.792199,-0.069594,0.96906,0.23681100000000002,-1.9548130000000001,-0.45156199999999996,-4.516063,-1.475786,0.07249,-0.521403
378,-2.665512,-1.268153,-2.565616,-0.13659300000000002,0.9545520000000001,0.264901,-1.028859,-2.243478,-3.42519,-0.778003,0.617103,-0.46399799999999997
379,-2.617138,-1.2223979999999999,-2.437877,-0.170949,0.9399209999999999,0.295509,-0.9748680000000001,-4.4379480000000004,-2.673177,0.096563,0.88297,-0.634605
380,-2.628574,-1.1863569999999999,-2.340076,-0.18407300000000001,0.927009,0.326759,-0.5315770000000001,-5.341273,-2.266204,0.273489,0.252206,-0.775825
381,-2.657099,-1.162113,-2.255837,-0.185094,0.917645,0.351665,-0.134466,-5.150298,-1.8844560000000001,0.25089,-0.280362,-0.624599
382,-2.677149,-1.145713,-2.17488,-0.184723,0.911005,0.368712,0.08278200000000001,-4.483301,-1.839996,0.30743400000000004,-0.5317930000000001,-0.614821
383,-2.685674,-1.13289,-2.0917619999999997,-0.186701,0.905641,0.380731,0.284188,-4.0335019999999995,-1.811392,0.330256,-0.57213,-0.6488430000000001
384,-2.6899830000000002,-1.127975,-2.0132830000000004,-0.186999,0.903546,0.38553200000000004,0.6646340000000001,-3.550441,-1.465386,0.322863,-0.488874,-0.678593
385,-2.690243,-1.134096,-1.9431990000000001,-0.18448399999999998,0.9061520000000001,0.38059699999999996,1.085596,-3.036773,-1.082817,0.312352,-0.48002,-0.742185
386,-2.688452,-1.149581,-1.873793,-0.178999,0.912593,0.367605,1.464138,-3.146382,-0.9069799999999999,0.313658,-0.506968,-0.7489680000000001
387,-2.686489,-1.172319,-1.8000369999999999,-0.17055399999999998,0.9216530000000001,0.348522,1.783969,-3.2961339999999995,-0.764617,0.32767399999999997,-0.500495,-0.6461600000000001
388,-2.673692,-1.203409,-1.726606,-0.161994,0.933269,0.32057199999999997,2.15552,-2.37857,-0.37863800000000003,0.46601000000000004,-0.50468,-0.494324
389,-2.6386580000000004,-1.2451860000000001,-1.6519840000000001,-0.154185,0.947456,0.280276,2.603483,-1.3651870000000002,-0.04459,0.41695699999999997,-0.37203200000000003,-0.331805
390,-2.563133,-1.293613,-1.5590959999999998,-0.14961300000000002,0.96183,0.229127,2.884364,-0.17058900000000002,0.138507,0.057067999999999994,-0.146507,-0.156282
391,-2.4293549999999997,-1.347604,-1.435991,-0.144655,0.975196,0.167535,3.0462919999999998,1.165063,0.5812390000000001,-0.038237,0.390588,0.20674800000000002
392,-2.469552,-1.365528,-1.451816,-0.12690099999999999,0.9790059999999999,0.15950799999999998,-1.5158770000000001,-3.655336,0.281016,-0.6744140000000001,2.602201,1.750389
393,-2.567151,-1.319569,-1.468219,-0.135077,0.968608,0.208693,-1.6642740000000003,-3.76082,-1.7131880000000002,-0.7869659999999999,0.878682,1.383653
394,-2.534018,-1.2959100000000001,-1.366251,-0.15495699999999998,0.962456,0.222859,0.60339,-2.876249,-1.646139,-0.73759,-0.412179,0.6144970000000001
395,-2.37567,-1.2750489999999999,-1.178273,-0.202037,0.956585,0.210064,0.764893,-0.209141,-1.439042,-0.752843,-0.9295610000000001,-0.411434
396,-2.246706,-1.262673,-1.0917299999999999,-0.23659299999999997,0.9529040000000001,0.189728,0.74728,3.5680949999999996,-1.1000379999999998,-0.47046899999999997,-0.8061149999999999,-1.744752
397,-2.0512240000000004,-1.2790620000000001,-0.9846469999999999,-0.25505500000000003,0.9577469999999999,0.132923,2.147608,4.708782,0.403792,0.33765100000000003,-0.153944,-1.478459
398,-2.0254939999999997,-1.306082,-0.9801489999999999,-0.235051,0.965167,0.114907,-1.7712189999999999,-3.299979,1.672821,0.47722299999999995,1.328442,-0.311623
399,-2.359683,-1.3152469999999998,-1.184101,-0.178116,0.9675239999999999,0.17936300000000002,-0.260348,-7.324437,1.6564849999999998,0.408005,0.8293659999999999,1.2624090000000001
400,-2.428727,-1.347734,-1.133815,-0.144677,0.975225,0.167349,1.931699,-4.3404419999999995,-0.014477,0.657799,0.014155000000000001,-0.237371
401,-2.333206,-1.368861,-0.986297,-0.145044,0.9796799999999999,0.138524,1.9299580000000003,-1.957209,-0.3316,-0.024541999999999998,-0.6517229999999999,-0.577596
402,-2.147977,-1.402462,-0.782139,-0.1404,0.985865,0.091421,2.776508,0.0015539999999999998,0.335169,-0.081005,-0.319331,-0.409887
403,-1.886973,-1.427459,-0.533337,-0.135767,0.9897450000000001,0.044416000000000004,1.75043,0.865395,0.183753,-0.256796,0.19883900000000002,-0.43826099999999996
404,-1.7698720000000001,-1.435704,-0.41576,-0.132022,0.9908889999999999,0.026635000000000002,0.552168,-0.488004,0.281803,-0.343945,0.270342,0.096076
405,-1.6866970000000001,-1.447602,-0.319322,-0.12205899999999999,0.9924209999999999,0.014209999999999999,0.9404030000000001,-0.49146599999999996,0.544097,-0.085659,0.073085,0.43670200000000003
406,-1.467977,-1.457912,-0.088891,-0.11205,0.993635,-0.011562000000000001,1.523094,-0.719222,0.5185489999999999,0.20049,-0.129591,0.143321
407,-1.19025,-1.465627,0.21341100000000002,-0.097466,0.994475,-0.038991000000000005,1.4526729999999999,-1.232073,0.958822,0.353249,-0.214705,-0.00207
408,-0.8453930000000001,-1.47153,0.579285,-0.074152,0.995077,-0.065749,1.438365,-0.7550720000000001,1.2978049999999999,0.318644,-0.222448,0.035628
409,-0.514684,-1.46459,0.918823,-0.05218300000000001,0.9943649999999999,-0.09227300000000001,1.254022,-0.073499,0.976246,-0.016116,-0.159649,0.200382
410,-0.308646,-1.452166,1.117345,-0.035952,0.992972,-0.11275999999999999,0.87884,0.672517,0.6885220000000001,-0.230528,-0.06275,0.066617
411,-0.171262,-1.441618,1.244194,-0.021953999999999998,0.991668,-0.126935,0.601329,0.342449,0.620777,-0.290439,-0.045318000000000004,-0.035342
412,-0.072699,-1.431668,1.349472,-0.010073,0.9903370000000001,-0.13831300000000002,0.6313409999999999,-0.56213,0.6349640000000001,-0.306654,-0.040356,-0.139931
413,-0.007285,-1.415202,1.42804,-0.001129,0.98792,-0.15496300000000002,0.969872,-0.645772,0.479339,-0.297501,-0.003392,0.006205
414,0.017712000000000002,-1.393393,1.471047,0.0031260000000000003,0.9843049999999999,-0.176447,1.12358,-1.0588600000000001,0.286526,-0.278211,0.026619999999999998,0.13001400000000002
415,0.001013,-1.3722020000000001,1.483335,0.0002,0.980345,-0.197292,0.9717809999999999,-1.6112739999999999,0.03621,-0.33770900000000004,0.301775,0.522502
416,-0.030407,-1.358622,1.4841719999999998,-0.006402,0.977575,-0.21048899999999998,0.498353,-1.581806,0.002954,-0.417853,0.46616599999999997,0.685846
417,-0.058061,-1.353954,1.485623,-0.012485,0.976582,-0.214785,0.051570000000000005,-1.30853,-0.017608000000000002,-0.411771,0.467159,0.690142
418,-0.09409400000000001,-1.363038,1.468293,-0.01938,0.9784959999999999,-0.205354,-0.805291,-0.819014,-0.21222800000000003,-0.357558,0.13261900000000001,0.745881
419,-0.152726,-1.389716,1.426532,-0.027398000000000002,0.98365,-0.17799600000000002,-1.801259,-0.955046,-0.22862399999999997,-0.247428,0.269463,1.035692
420,-0.28308099999999997,-1.441418,1.320402,-0.036037,0.991642,-0.12388199999999999,-2.925194,-1.33026,-0.260563,-0.17390899999999998,0.569164,0.884335
421,-0.544925,-1.485754,1.073244,-0.044029,0.9963860000000001,-0.072638,-2.434354,-0.695626,-0.351952,-0.181175,0.593671,0.008185
422,-1.281521,-1.5132809999999999,0.356279,-0.055096000000000006,0.998346,-0.016398,-3.067263,-1.059691,-0.666758,-0.125888,0.39931300000000003,-0.740987
423,-2.184657,-1.4754530000000001,-0.534736,-0.077818,0.995458,0.054837000000000004,-3.712421,-0.591939,-1.462349,-0.10074,0.455424,-0.7833979999999999
424,-2.3996419999999996,-1.396364,-0.7391840000000001,-0.117272,0.984825,0.127932,-3.426603,-0.635904,-2.435582,-0.029548,0.546303,-0.702563
425,-2.381455,-1.313358,-0.7025359999999999,-0.175428,0.967045,0.184522,-2.353712,-1.0785069999999999,-3.5021519999999997,-0.387469,0.553508,-0.5969979999999999
426,-2.317944,-1.230617,-0.603973,-0.24478000000000003,0.9426950000000001,0.22673600000000002,-1.682047,-1.623545,-4.179355999999999,-0.318116,0.577859,-0.639211
427,-2.2702150000000003,-1.144456,-0.523638,-0.316449,0.910485,0.266227,-1.803557,-1.272997,-4.091991999999999,-0.12126500000000001,0.5240239999999999,-0.505637
428,-2.269001,-1.0646010000000001,-0.48736,-0.371396,0.8745959999999999,0.311685,-1.985054,-1.710129,-3.310761,0.286664,0.5566939999999999,-0.263726
429,-2.290759,-0.9915889999999999,-0.467735,-0.41152299999999997,0.8368969999999999,0.360906,-1.955126,-2.121526,-3.020536,0.326791,0.5943930000000001,-0.312948
430,-2.321286,-0.925075,-0.446787,-0.440111,0.798666,0.410408,-1.649574,-2.455038,-2.732759,0.204622,0.075174,-0.42585
431,-2.3505220000000002,-0.869445,-0.423333,-0.458842,0.763971,0.45366599999999996,-1.2670299999999999,-2.2711099999999997,-2.440835,0.503993,-0.30738200000000004,-0.443458
432,-2.3718619999999997,-0.824459,-0.394123,-0.472513,0.73418,0.48755600000000004,-0.6302399999999999,-2.184215,-2.079712,0.519266,-0.291141,-0.475517
433,-2.391585,-0.799802,-0.362813,-0.47500299999999995,0.717218,0.5098729999999999,0.11514200000000001,-2.054293,-1.384601,0.49606000000000006,-0.329446,-0.50116
434,-2.409243,-0.792238,-0.331183,-0.46953999999999996,0.7119260000000001,0.5222,0.6617930000000001,-1.9887689999999998,-0.929008,0.590787,-0.651853,-0.539335
435,-2.424048,-0.797204,-0.298817,-0.45942700000000003,0.7154050000000001,0.526424,1.095952,-1.8087950000000002,-0.492508,0.674317,-0.723035,-0.509807
436,-2.435257,-0.81604,-0.271721,-0.444671,0.7284390000000001,0.521195,1.452833,-1.292735,0.145984,0.814789,-0.840835,-0.40782199999999996
437,-2.433789,-0.847435,-0.252301,-0.43035,0.7495850000000001,0.502912,1.707946,-0.22741599999999998,0.712558,0.870383,-0.9035,-0.316343
438,-2.4121770000000002,-0.8878020000000001,-0.234974,-0.420599,0.775686,0.47053900000000004,2.0184860000000002,0.753735,0.967707,0.762487,-0.8378959999999999,-0.279377
439,-2.369592,-0.933736,-0.207409,-0.41493900000000006,0.803848,0.426209,2.398905,1.098734,0.942148,0.520881,-0.7150270000000001,-0.274415
440,-2.317214,-0.985535,-0.16657,-0.405544,0.833568,0.37509899999999996,2.766151,0.8432459999999999,1.111683,0.167873,-0.380305,-0.222816
441,-2.27042,-1.04051,-0.122262,-0.386964,0.862662,0.325687,2.5725700000000002,0.10865599999999999,1.432807,-0.144713,0.269448,-0.075473
442,-2.2729169999999996,-1.0945719999999999,-0.105055,-0.349997,0.888732,0.29607,1.7249740000000002,-1.529226,2.03894,-0.49779700000000005,1.407716,0.145596
443,-2.302654,-1.141597,-0.099378,-0.309583,0.909299,0.278089,1.731534,-1.569752,1.246418,-0.443927,1.1818870000000001,0.194903
444,-2.269859,-1.177314,-0.048255,-0.293477,0.923579,0.246723,2.021661,-0.058918,0.395135,-0.023936000000000002,0.07034800000000001,0.214718
445,-2.1777900000000003,-1.201054,0.030251,-0.296822,0.93242,0.206129,1.7105759999999999,1.421789,-0.127023,0.258644,-0.417497,-0.098036
446,-2.082586,-1.21011,0.101261,-0.307697,0.9356549999999999,0.172837,1.086462,1.236173,-0.32022,0.35036,-0.302797,-0.0999
447,-2.031904,-1.214644,0.144016,-0.312255,0.9372450000000001,0.155138,0.586754,0.007437999999999999,-0.035851999999999995,0.5315850000000001,-0.093099,0.055281
448,-2.0411189999999997,-1.216042,0.156857,-0.309645,0.937732,0.157415,0.038001,-1.543644,-0.082563,0.282057,0.045911,0.055995
449,-2.041629,-1.216958,0.175762,-0.308798,0.93805,0.157183,0.608471,-0.493935,-0.147221,0.06453500000000001,0.019790000000000002,-0.778414
450,-2.031933,-1.216931,0.218912,-0.31033099999999997,0.93804,0.154193,0.492154,-2.4450380000000003,-0.432885,0.23013000000000003,0.217004,0.05113
451,-2.0887830000000003,-1.205524,0.217059,-0.310345,0.934026,0.17686300000000002,-0.733434,-2.267709,-0.559178,-0.560596,0.93429,0.22538899999999998
452,-2.099771,-1.1905370000000002,0.212588,-0.32043299999999997,0.9285690000000001,0.187306,-0.176326,0.476267,-0.46586700000000003,-0.062472,0.437047,-0.767674
453,-2.09353,-1.187471,0.20133299999999998,-0.324061,0.927426,0.186723,-0.289802,1.028039,0.17463499999999998,0.232325,-0.056255999999999994,0.47412
454,-2.072066,-1.19445,0.207988,-0.322309,0.9300139999999999,0.17661,0.66845,0.437408,0.260065,0.075941,0.683832,0.372737
455,-2.029677,-1.202226,0.235263,-0.323011,0.932843,0.159585,0.454901,1.246998,-0.08215900000000001,-0.18362699999999998,0.743854,-0.37247600000000003
456,-2.005036,-1.197902,0.24937199999999998,-0.3305,0.931277,0.153274,-0.16067599999999999,0.254258,-0.37146999999999997,-0.33063200000000004,-0.01311,0.217912
457,-2.0036259999999997,-1.185144,0.241522,-0.341475,0.9265530000000001,0.157779,-0.420365,0.42113100000000003,-0.585005,-0.206377,-0.40983,0.116422
458,-2.015717,-1.1754229999999999,0.226687,-0.347656,0.922853,0.16576400000000002,-0.447834,0.028270999999999998,-0.08583400000000001,0.103424,-0.497407,-0.055504
459,-2.037556,-1.1762219999999999,0.198269,-0.34329499999999996,0.9231600000000001,0.172985,-0.532377,0.285206,0.468721,0.08774,-0.627186,0.245716
460,-2.075455,-1.180715,0.151595,-0.33286,0.9248780000000001,0.183861,-0.775696,0.178938,0.6145729999999999,-0.115001,-0.348248,0.549797
461,-2.124951,-1.175574,0.097383,-0.327395,0.922911,0.202604,-1.226104,0.054924,0.050769,-0.062544,0.09399600000000001,0.43025399999999997
462,-2.1787810000000003,-1.148919,0.038491000000000004,-0.336096,0.912322,0.233897,-2.007731,-0.22444699999999998,-0.801433,0.087332,0.300126,0.22495
463,-2.251775,-1.100079,-0.025572,-0.35236999999999996,0.891243,0.285519,-2.917059,-0.946148,-1.217057,0.21389699999999998,0.21814699999999998,-0.044842
464,-2.3354880000000002,-1.0425,-0.09898,-0.36373,0.863667,0.34897,-3.551072,-0.868864,-1.079511,0.30155,0.171093,-0.22952399999999998
465,-2.408045,-1.0048219999999999,-0.171015,-0.35901700000000003,0.844066,0.39832,-3.486257,-0.256268,-0.881157,0.346932,0.170674,-0.371938
466,-2.4396970000000002,-0.948363,-0.21729400000000001,-0.376432,0.812462,0.445201,-2.963879,0.779634,-1.180075,0.21561999999999998,0.181297,-0.471645
467,-2.420106,-0.8858309999999999,-0.24171700000000002,-0.417864,0.7744409999999999,0.47500699999999996,-2.836379,2.800852,-1.654997,0.192995,0.086506,-0.218216
468,-2.382295,-0.836482,-0.24713200000000002,-0.46129,0.74229,0.486021,-1.268499,1.0071379999999999,-1.2027079999999999,-0.08787400000000001,0.48508100000000004,-0.34236
469,-2.378068,-0.813891,-0.24090999999999999,-0.474817,0.726964,0.49605600000000005,-0.393552,-0.289475,-0.8531040000000001,-0.19187,0.255244,-0.42073900000000003
470,-2.3754020000000002,-0.806829,-0.231138,-0.47968500000000003,0.722097,0.49847600000000003,0.197466,-0.150229,-0.224244,0.127406,-0.377553,-0.440004
471,-2.366925,-0.819858,-0.22295500000000001,-0.47727200000000003,0.731049,0.487626,0.981651,0.32781,0.49419300000000005,0.153007,-0.601166,-0.36525
472,-2.343591,-0.8516100000000001,-0.20667600000000003,-0.471657,0.752342,0.45991499999999996,1.816745,0.679036,0.9140469999999999,0.094993,-0.714378,-0.259689
473,-2.3071740000000003,-0.9042620000000001,-0.17948699999999998,-0.45807700000000007,0.7859689999999999,0.415233,2.879866,0.707947,1.5527549999999999,0.355126,-0.563649,-0.055385000000000004
474,-2.2589759999999997,-0.982341,-0.12550999999999998,-0.42874300000000004,0.831799,0.352547,4.17845,-0.08619500000000001,2.152502,0.43416000000000005,-0.5375939999999999,0.000984
475,-2.206706,-1.071734,-0.05294,-0.38505100000000003,0.8780319999999999,0.28424699999999997,4.111190000000001,-0.7709739999999999,2.4285099999999997,0.432383,-0.50732,0.026194
476,-2.1573599999999997,-1.151858,0.028258999999999996,-0.33879499999999996,0.9135209999999999,0.22516,3.559831,-1.302437,2.080305,0.030918,0.285102,-0.160295
477,-2.096927,-1.214742,0.11935699999999999,-0.30143600000000004,0.9372790000000001,0.175053,2.802433,-1.085728,1.557717,-0.185792,0.61135,-0.10416099999999999
478,-2.044218,-1.251266,0.19680699999999998,-0.279572,0.949383,0.143218,1.452383,-1.020435,0.520574,-0.30484,0.814289,0.036026999999999997
479,-2.033284,-1.2472530000000002,0.23151300000000002,-0.284528,0.9481149999999999,0.141852,-0.18827,-1.447865,-0.9217559999999999,-0.092669,0.323934,0.6204930000000001
480,-2.025916,-1.226246,0.26915900000000004,-0.30339099999999997,0.941227,0.148475,0.5754819999999999,-0.821902,-1.2120520000000001,0.338104,0.08868,-0.166892
481,-1.981693,-1.217566,0.343248,-0.31713600000000003,0.93826,0.138175,0.79019,-2.401266,-0.709669,0.602155,-0.171964,-0.981987
482,-2.075638,-1.212581,0.333868,-0.30686599999999997,0.936524,0.169576,-0.779317,-4.6247300000000005,0.17525,0.170407,0.46127299999999993,1.356547
483,-2.116791,-1.206819,0.302036,-0.304236,0.9344879999999999,0.184856,-0.402387,2.1773130000000003,-0.21539299999999997,-0.473764,0.70928,0.29729099999999997
484,-2.06921,-1.195609,0.29711,-0.321865,0.9304389999999999,0.175173,-0.559743,1.876068,-0.401977,-0.44496499999999994,0.7881279999999999,-0.483004
485,-2.074557,-1.183452,0.273909,-0.330806,0.9259149999999999,0.182339,-0.540488,0.745562,-0.356596,0.088787,-0.187085,-0.319363
486,-2.04724,-1.178614,0.27472399999999997,-0.33964,0.924077,0.175288,0.151299,1.618665,-0.051644,0.196269,-0.317281,-0.460917
487,-2.0057840000000002,-1.1896229999999999,0.288462,-0.337366,0.9282290000000001,0.15676500000000002,0.650829,1.1720549999999998,0.644625,0.101465,-0.22710300000000003,-0.089077
488,-1.966468,-1.213719,0.316732,-0.32253200000000004,0.9369219999999999,0.134721,1.112808,0.26066999999999996,0.9203479999999999,-0.6855100000000001,0.418363,0.45754799999999995
489,-1.928834,-1.224675,0.353396,-0.317738,0.9406959999999999,0.11888599999999999,0.46425299999999997,0.283698,-0.278484,-0.936031,0.570199,0.102809
490,-1.916771,-1.208446,0.35738400000000003,-0.333469,0.935066,0.120207,-0.629416,0.14288599999999999,-0.878806,-0.74815,0.237877,0.5538350000000001
491,-1.9823520000000001,-1.184424,0.310367,-0.34536500000000003,0.9262819999999999,0.150746,-1.507837,-1.50031,-0.781355,-0.306398,0.06592100000000001,0.691326
492,-2.070852,-1.155717,0.23534499999999997,-0.353885,0.915084,0.193354,-2.349043,-0.817947,-0.465502,0.34972,0.00702,0.370153
493,-2.204527,-1.121948,0.112696,-0.34967,0.9009469999999999,0.25695300000000004,-3.414679,-1.134068,0.124596,0.850814,-0.113121,0.123525
494,-2.326391,-1.071493,-0.007918000000000001,-0.348511,0.877916,0.328333,-3.7835080000000003,-0.663978,-0.42978500000000003,0.793473,0.019331,-0.012872999999999999
495,-2.409068,-1.0093159999999999,-0.08607200000000001,-0.356068,0.846468,0.395863,-3.4691440000000004,-0.7451909999999999,-0.9049809999999999,0.49390100000000003,0.067594,-0.31995
496,-2.454726,-0.9476969999999999,-0.129255,-0.370042,0.812074,0.451226,-2.876602,-0.24004299999999998,-1.2037959999999999,0.197481,0.11415,-0.425576
497,-2.45932,-0.8945129999999999,-0.14917,-0.39466599999999996,0.779904,0.48578699999999997,-2.2664779999999998,1.261566,-1.0925,0.089002,0.34872800000000004,-0.396462
498,-2.426484,-0.848683,-0.173482,-0.433399,0.7504109999999999,0.49904799999999994,-2.170194,2.960541,-0.8750190000000001,0.167576,0.510606,-0.369577
499,-2.387408,-0.811117,-0.17846099999999998,-0.471541,0.725057,0.501937,-1.040769,1.5858729999999999,-1.205063,0.064742,0.369044,-0.427429
500,-2.358009,-0.791933,-0.16434100000000001,-0.49582,0.711712,0.497623,0.009682,0.64976,-0.8504219999999999,-0.041732,0.16438599999999998,-0.5042300000000001
501,-2.3454490000000003,-0.793768,-0.149648,-0.501096,0.713001,0.49044099999999996,0.664327,-0.131967,0.132576,-0.012041,-0.102313,-0.4506
502,-2.3444380000000002,-0.819903,-0.13961199999999999,-0.488092,0.7310800000000001,0.47674799999999995,1.489763,-0.351142,0.946198,-0.037558,-0.6644140000000001,-0.077303
503,-2.335383,-0.867778,-0.121295,-0.466575,0.762894,0.447549,2.515896,-0.095903,1.4946270000000001,-0.038048,-0.8024600000000001,0.081229
504,-2.299696,-0.9384399999999999,-0.077029,-0.440867,0.8066369999999999,0.393667,3.9970769999999995,-0.040156,1.7206830000000002,0.064585,-1.030697,0.19631400000000002
505,-2.240325,-1.029083,0.008652,-0.40429299999999996,0.856827,0.31999299999999997,4.9429419999999995,-0.9218219999999999,2.1364799999999997,0.037609,-0.9578700000000001,0.07208200000000001
506,-2.176591,-1.12152,0.10218200000000001,-0.357028,0.900761,0.24730500000000002,4.141091,-0.684046,2.509793,0.11410799999999999,-0.474095,-0.308661
507,-2.113723,-1.201292,0.17144,-0.30922,0.932506,0.186588,2.873739,0.278105,2.491162,0.195801,0.934529,-0.635929
508,-2.048689,-1.254725,0.240887,-0.276011,0.950464,0.142956,2.034974,-0.588332,1.1810459999999998,0.243998,1.624182,-0.22633000000000003
509,-1.983264,-1.2725469999999999,0.34172399999999997,-0.269204,0.955852,0.11779500000000001,1.542726,-1.9016819999999999,-0.288446,0.059989999999999995,0.691746,0.49789700000000003
510,-1.937758,-1.269871,0.43827200000000005,-0.27666999999999997,0.9550629999999999,0.10634400000000001,1.185284,-2.4161189999999997,-0.799825,0.137281,-0.101974,0.718363
511,-1.876508,-1.264892,0.524249,-0.287192,0.953575,0.090639,1.083925,-0.293575,-0.574654,0.132773,-0.066048,0.033277
512,-1.8436299999999999,-1.261884,0.582908,-0.292777,0.952665,0.08192200000000001,0.558657,-2.390706,-0.218849,0.7190770000000001,0.034731,-0.528944
513,-1.926984,-1.2618969999999998,0.581626,-0.284929,0.9526690000000001,0.10601,-0.296602,-4.235741,-0.016291999999999997,0.790254,0.20957800000000001,0.38393499999999997
514,-1.969955,-1.2496530000000001,0.56982,-0.290838,0.948875,0.122676,-0.351785,0.1327,-0.7027329999999999,0.354757,0.020027,-0.205409
515,-1.950905,-1.241674,0.5596,-0.300143,0.946326,0.11991900000000001,-0.340233,1.801018,0.061125,0.386126,-0.262336,-0.29438800000000004
516,-1.9168459999999998,-1.251095,0.545038,-0.295653,0.9493290000000001,0.1066,0.170688,2.912974,0.730908,0.295912,0.333477,0.35943400000000003
517,-1.8581020000000001,-1.266651,0.540818,-0.287202,0.954103,0.084863,0.197681,2.835713,0.5816439999999999,-0.652724,2.229582,0.432334
518,-1.8013880000000002,-1.26215,0.567527,-0.295729,0.9527450000000001,0.069428,0.239911,0.868281,-0.819183,-0.8295,0.21095100000000003,-0.631821
519,-1.800187,-1.243315,0.5505180000000001,-0.313234,0.9468549999999999,0.07314,-0.772216,1.024893,-0.745269,-0.7018270000000001,-0.715837,0.161876
520,-1.799394,-1.235259,0.5353180000000001,-0.320711,0.944233,0.07461799999999999,0.023313,0.421817,-0.071301,-0.211867,-0.6915939999999999,-0.166964
521,-1.777939,-1.241184,0.55545,-0.316757,0.946168,0.066569,0.5446810000000001,0.076264,0.376096,-0.149598,-0.364671,0.28336100000000003
522,-1.7469119999999998,-1.2565030000000001,0.582603,-0.304363,0.9510149999999999,0.054164,0.554678,0.326027,0.777497,-0.287159,-0.033046,0.5188189999999999
523,-1.716078,-1.267639,0.6137699999999999,-0.29539099999999996,0.954399,0.043219,0.44986899999999996,-0.119566,0.147085,-0.311162,0.31289,0.48005
524,-1.730811,-1.2549709999999998,0.6050800000000001,-0.306633,0.9505399999999999,0.049489,-0.690279,-0.480601,-1.0173,-0.24424,0.15943,0.769115
525,-1.8224080000000002,-1.224045,0.53294,-0.32914299999999996,0.9404819999999999,0.08461,-1.927007,-1.776841,-1.3265850000000001,-0.062855,-0.02085,0.753754
526,-1.9705,-1.1872479999999999,0.42061800000000005,-0.34471599999999997,0.927343,0.145623,-2.797366,-1.944116,-0.832522,0.203557,-0.037298000000000005,0.613242
527,-2.12985,-1.1530040000000001,0.271325,-0.343972,0.9139870000000001,0.2152,-3.712531,-0.596554,0.228649,0.936974,-0.384904,0.11046900000000001
528,-2.2801709999999997,-1.113677,0.10338399999999999,-0.334894,0.897328,0.287487,-4.060264,0.462212,0.559217,0.7997989999999999,-0.308033,-0.067212
529,-2.380801,-1.064717,-0.016238,-0.33423400000000003,0.8746520000000001,0.351101,-3.3812339999999996,0.058061,-0.191823,0.582647,-0.17421199999999998,-0.40827600000000003
530,-2.431222,-1.012425,-0.067847,-0.345494,0.8481190000000001,0.401656,-2.564157,-0.40985600000000005,-1.0999139999999998,-0.014719999999999999,0.040568,-0.251296
531,-2.436241,-0.9583709999999999,-0.094362,-0.372679,0.8182560000000001,0.437684,-2.60449,2.02014,-1.0904909999999999,-0.007204,0.22031799999999999,0.014478999999999999
532,-2.4013299999999997,-0.904797,-0.121831,-0.416725,0.7863,0.45615,-2.437289,2.733863,-1.498299,0.017662,0.513947,-0.039478
533,-2.36083,-0.8487120000000001,-0.11817000000000001,-0.46519099999999997,0.75043,0.469524,-1.310296,0.8680190000000001,-1.53931,-0.353702,0.736356,-0.46506800000000004
534,-2.359341,-0.8290200000000001,-0.111125,-0.47621499999999994,0.73727,0.479221,-0.209175,-0.455691,-0.737302,-0.10680799999999999,0.34941500000000003,-0.570346
535,-2.359245,-0.822925,-0.099552,-0.479419,0.733139,0.482354,0.199794,-0.443849,-0.324263,0.073612,-0.03482,-0.654671
536,-2.362044,-0.828893,-0.085352,-0.474983,0.7371840000000001,0.480573,0.830591,-0.806217,-0.028837,0.019096000000000002,-0.541261,-0.278654
537,-2.361512,-0.8544450000000001,-0.058509000000000005,-0.461837,0.754206,0.466775,2.0106439999999997,-1.0348540000000002,0.44651199999999996,0.111419,-0.560542,-0.187493
538,-2.349697,-0.905958,-0.013725,-0.439062,0.787017,0.43339300000000003,3.2981629999999997,-1.188792,1.062453,0.192053,-0.598067,-0.157972
539,-2.322069,-0.981326,0.046266,-0.40627800000000003,0.8312350000000001,0.379454,4.141699,-0.853485,1.7259400000000003,0.5089239999999999,-0.47015100000000004,-0.124526
540,-2.270323,-1.067634,0.11949000000000001,-0.36895300000000003,0.8760620000000001,0.31046599999999996,4.3126370000000005,-0.470846,2.0588610000000003,0.523173,-0.43876000000000004,0.00063
541,-2.190356,-1.152361,0.213709,-0.330808,0.913726,0.235947,4.190848,0.165707,2.018738,0.572202,-0.15982000000000002,0.247833
542,-2.059093,-1.224704,0.330169,-0.29958,0.9407049999999999,0.159138,3.3714989999999996,1.6160780000000001,1.797512,0.22775700000000001,0.8642719999999999,0.18316300000000002
543,-1.9243270000000001,-1.266486,0.446683,-0.281105,0.9540540000000001,0.103737,2.0603540000000002,0.523608,0.6788029999999999,-0.082833,1.218325,0.066826
544,-1.8725009999999997,-1.273701,0.527255,-0.279521,0.956191,0.086988,0.773947,-2.226354,-0.480338,-0.24713600000000002,-0.102523,0.965456
545,-1.8537169999999998,-1.257954,0.5869949999999999,-0.295529,0.951463,0.08591599999999999,0.8127770000000001,-1.146774,-1.1597709999999999,-0.12169200000000001,-0.318833,-0.023584
546,-1.782807,-1.244912,0.671822,-0.312979,0.947368,0.067367,1.141514,-0.7117220000000001,-0.7510399999999999,0.404669,-0.37404899999999996,-0.816635
547,-1.807351,-1.24311,0.686617,-0.312891,0.946789,0.075428,-0.521138,-2.627571,0.277045,0.52247,0.370487,0.882
548,-1.893513,-1.246637,0.6333340000000001,-0.30207,0.9479190000000001,0.10101399999999999,-0.501995,-0.292452,0.251753,-0.074059,1.070651,0.249831
549,-1.8618419999999998,-1.242816,0.631598,-0.308584,0.9466950000000001,0.092437,-0.14898699999999998,1.9372490000000002,-0.339365,-0.083048,0.739371,-0.409393
550,-1.847525,-1.233582,0.6199399999999999,-0.318272,0.94368,0.090394,-0.23496999999999998,1.0407620000000002,-0.383682,0.134739,-0.07557699999999999,0.055678
551,-1.8133,-1.230397,0.631128,-0.324094,0.942622,0.08017200000000001,0.316324,1.308087,-0.047956,-0.11598499999999999,0.181524,-0.151842
552,-1.7709970000000002,-1.235458,0.651465,-0.32251599999999997,0.944299,0.065444,0.390893,0.866676,0.250096,-0.34556,0.392463,-0.059661
553,-1.755961,-1.238266,0.6577689999999999,-0.320855,0.945219,0.0601,-0.14762999999999998,0.38506599999999996,-0.055355999999999995,-0.9496370000000001,0.30642800000000003,0.513417
554,-1.7916619999999999,-1.2255209999999999,0.612167,-0.330234,0.940982,0.074147,-1.32705,0.17629,-0.634825,-0.330914,0.11553599999999999,0.679225
555,-1.8988740000000002,-1.203057,0.5111359999999999,-0.340332,0.9331430000000001,0.115842,-2.316256,-1.2012260000000001,-0.5481020000000001,0.07579,0.172464,0.70087
556,-2.040718,-1.174931,0.386498,-0.343808,0.9226629999999999,0.174609,-2.991148,-0.8695709999999999,-0.318233,0.510297,-0.082881,0.324704
557,-2.179855,-1.136943,0.24004,-0.344783,0.907352,0.240492,-3.689771,0.046331,0.079502,0.688609,-0.282169,-0.075209
558,-2.297034,-1.093435,0.098475,-0.343511,0.88821,0.305095,-3.840343,0.618391,0.20804,0.657171,-0.368297,-0.40331500000000003
559,-2.3775209999999998,-1.039252,-0.005525,-0.35068299999999997,0.862025,0.365969,-3.465146,0.481703,-0.565761,0.455618,-0.284557,-0.501727
560,-2.408007,-0.9799379999999999,-0.048223,-0.37298200000000004,0.830463,0.413783,-2.72094,0.17491500000000001,-1.478841,0.279552,-0.295062,-0.627497
561,-2.403127,-0.9198350000000001,-0.071115,-0.40789899999999996,0.795502,0.44810200000000006,-2.5991560000000002,2.142984,-1.444193,-0.03717,-0.36325100000000005,-0.283521
562,-2.350205,-0.872843,-0.08100399999999999,-0.457136,0.766159,0.451693,-1.522801,2.9218189999999997,-1.341532,0.216292,0.791656,-0.517718
563,-2.316879,-0.8407180000000001,-0.082091,-0.48976099999999995,0.7451220000000001,0.452689,-0.9414309999999999,1.3110549999999999,-1.029896,-0.10360799999999999,0.648616,-0.430396
564,-2.2974,-0.821883,-0.077714,-0.508886,0.732429,0.452308,-0.239736,0.2639,-0.576068,-0.119577,0.12293299999999999,-0.5172800000000001
565,-2.30158,-0.825628,-0.071214,-0.504945,0.734974,0.452597,0.6398739999999999,-0.640756,0.31786,-0.041686,-0.341999,-0.365591
566,-2.3061119999999997,-0.852466,-0.056507,-0.48808,0.7529060000000001,0.44148699999999996,1.632982,-0.848799,0.8666520000000001,0.010892,-0.691367,0.064571
567,-2.295969,-0.901093,-0.029414,-0.464562,0.7840060000000001,0.411724,2.6891279999999997,-0.307177,1.433084,0.084512,-0.736078,0.143528
568,-2.260584,-0.972735,0.019261,-0.43431899999999996,0.8264290000000001,0.35830500000000004,3.8166339999999996,-0.260121,2.007057,0.15041400000000002,-0.755857,0.19876300000000002
569,-2.218829,-1.063192,0.096157,-0.387542,0.8739120000000001,0.29341,4.564661,-1.6983279999999998,2.44355,0.315231,-0.38102199999999997,0.210481
570,-2.164222,-1.1557469999999999,0.185649,-0.334294,0.9150969999999999,0.22549,4.059415,-0.6121449999999999,2.71423,0.25951,-0.169934,0.161243
571,-2.07437,-1.2370709999999998,0.271422,-0.286902,0.9448290000000001,0.15806900000000002,3.09495,0.9340950000000001,2.3540669999999997,-0.077646,1.521938,-0.527515
572,-1.941789,-1.281099,0.400846,-0.266228,0.9583299999999999,0.103564,2.600093,0.005038,0.422592,0.028114999999999998,1.008985,-0.131305
573,-1.826187,-1.2874079999999999,0.544937,-0.270541,0.9601139999999999,0.070636,1.490912,-1.9531889999999998,-0.6829149999999999,0.08478,-0.16430699999999998,0.625897
574,-1.8292099999999998,-1.270103,0.581442,-0.286348,0.955131,0.07568899999999999,-0.279048,-1.281159,-0.972809,0.26410100000000003,-0.417335,0.884318
575,-1.819188,-1.261547,0.608686,-0.295003,0.9525620000000001,0.074821,0.9368,-1.307698,-0.186617,0.832707,-0.390993,-0.612404
576,-1.8428380000000002,-1.2677379999999998,0.6518390000000001,-0.287465,0.954428,0.080191,0.127985,-3.9401669999999998,0.29073899999999997,0.7392479999999999,-0.256369,-0.081961
577,-1.922104,-1.27154,0.623606,-0.276803,0.955556,0.101452,-0.282357,-1.052693,0.236102,-0.202216,0.310267,0.8366889999999999
578,-1.869541,-1.271817,0.628042,-0.281499,0.9556379999999999,0.08669099999999999,0.15009,3.910284,-0.102658,-0.265468,0.860448,-0.4251
579,-1.792644,-1.268661,0.638953,-0.290267,0.9547030000000001,0.065473,0.160089,2.6527979999999998,-0.262279,0.111419,0.329644,-0.23485999999999999
580,-1.731216,-1.265507,0.668247,-0.29671,0.95376,0.048011,0.532552,1.1362,-0.141297,0.017291,-0.2073,0.023278
581,-1.690897,-1.270067,0.689243,-0.294083,0.9551209999999999,0.03549,0.125218,1.170917,0.32049,-0.679565,0.889911,0.72133
582,-1.681282,-1.272142,0.685125,-0.29244000000000003,0.9557329999999999,0.032442,-0.156553,0.263795,-0.090513,-0.844767,0.435975,-0.47223100000000007
583,-1.7220099999999998,-1.2678969999999998,0.646641,-0.294885,0.954476,0.044933999999999995,-0.703086,-0.535292,-0.116808,-0.422659,-0.109642,0.45123599999999997
584,-1.769936,-1.262,0.610218,-0.297906,0.9527,0.060122,-0.601288,-0.585117,-0.26558400000000004,-0.017997,-0.149172,0.73805
585,-1.845802,-1.250577,0.541746,-0.302946,0.949166,0.085478,-1.636464,-0.44078,-0.298637,0.16456400000000002,0.14238599999999998,0.47271899999999994
586,-1.964372,-1.230979,0.420175,-0.30783,0.942816,0.127824,-2.407381,-0.084502,-0.282046,0.223098,0.22718200000000002,0.393813
587,-2.092664,-1.198192,0.28272600000000003,-0.315585,0.9313819999999999,0.181475,-3.145794,0.136299,-0.512881,0.324999,-0.089173,0.159711
588,-2.20745,-1.14857,0.154082,-0.32950999999999997,0.9121790000000001,0.243625,-3.590161,0.19761900000000002,-0.809825,0.369244,-0.183526,0.01759
589,-2.3008740000000003,-1.087322,0.048297,-0.346376,0.8853850000000001,0.310026,-3.763548,-0.09723,-0.9837100000000001,0.300737,-0.092691,-0.405531
590,-2.370015,-1.021197,-0.025693999999999998,-0.364214,0.852734,0.374423,-3.395136,-0.25205500000000003,-1.212742,0.253176,-0.02084,-0.46049799999999996
591,-2.4016900000000003,-0.9611770000000001,-0.059329,-0.38602600000000004,0.819866,0.42285200000000006,-2.467635,0.057836,-1.4576930000000001,0.144982,-0.035366,-0.310593
592,-2.3945939999999997,-0.907409,-0.08292999999999999,-0.418391,0.7879109999999999,0.451824,-2.807986,2.270327,-1.141371,0.161769,-0.064873,-0.363796
593,-2.3593759999999997,-0.8547049999999999,-0.09811,-0.46269499999999997,0.7543770000000001,0.465649,-1.263801,1.417904,-1.363433,0.00159,0.370791,-0.433209
594,-2.350967,-0.839572,-0.091376,-0.474655,0.7443569999999999,0.469718,-0.038153,-0.311591,-0.424371,-0.282303,0.22599499999999997,-0.4412
595,-2.3580419999999997,-0.843917,-0.083471,-0.46903199999999995,0.747252,0.47076899999999994,0.537848,-0.665514,0.203948,-0.14225,-0.148482,-0.522313
596,-2.3590869999999997,-0.865864,-0.070073,-0.456866,0.761655,0.459516,1.497032,-0.538187,0.564066,-0.013837,-0.400312,-0.435438
597,-2.353742,-0.9101739999999999,-0.043325999999999996,-0.43495,0.78961,0.432821,2.518852,-0.8513440000000001,1.267017,0.016599000000000003,-0.359694,-0.291952
598,-2.342622,-0.9783370000000001,-0.006204,-0.400173,0.82957,0.389455,3.644968,-1.0792620000000002,1.875516,0.145275,-0.38090100000000005,-0.126973
599,-2.312203,-1.069963,0.058477999999999995,-0.354125,0.877183,0.324262,4.674805,-1.292332,2.317749,0.260054,-0.29748600000000003,0.122774
600,-2.253303,-1.1672879999999999,0.149246,-0.304692,0.919689,0.24765900000000002,4.551406,-0.913974,2.378359,0.345769,-0.10578499999999999,0.289084
601,-2.148386,-1.252203,0.256524,-0.262419,0.949677,0.171026,3.65605,1.007299,2.2104779999999997,0.259535,0.61647,-0.083242
602,-2.0047599999999997,-1.3103850000000001,0.378409,-0.233611,0.966284,0.10826199999999998,2.548276,0.970086,1.289458,0.22618000000000002,1.0669950000000001,-0.351716
603,-1.8676419999999998,-1.339119,0.533723,-0.21956799999999999,0.973283,0.067162,2.1572869999999997,-1.705159,0.38216700000000003,0.092325,0.226577,0.283439
604,-1.76663,-1.346563,0.696477,-0.21810900000000003,0.974965,0.043267,1.650811,-3.3164849999999997,-0.352107,-0.029144999999999997,-0.435933,0.784079
605,-1.7402509999999998,-1.339405,0.7761560000000001,-0.226048,0.973348,0.038676,0.14994200000000002,-1.747899,-0.507742,-0.039822,-0.747854,0.887716
606,-1.77764,-1.333757,0.736785,-0.229821,0.972037,0.048227,-0.479447,0.8317209999999999,0.156468,0.444329,-0.804725,-0.065484
607,-1.7798169999999998,-1.354247,0.7643399999999999,-0.21018499999999998,0.9766450000000001,0.044584,1.040724,-3.8352449999999996,1.232743,1.221598,-0.334829,-0.851606
608,-1.873559,-1.381074,0.797085,-0.180009,0.982057,0.056228,0.10363800000000001,-6.230149,1.28695,1.191483,0.131545,-0.597214
609,-1.9635369999999999,-1.3935799999999998,0.71662,-0.162869,0.9843379999999999,0.06747,-0.32847800000000005,3.480864,0.07507899999999999,-0.571659,0.812064,1.5471840000000001
610,-1.7871419999999998,-1.369523,0.798028,-0.195257,0.9798129999999999,0.042914999999999995,0.2701,3.454728,-1.63093,-0.600092,0.5810850000000001,-0.684882
611,-1.78795,-1.354092,0.771239,-0.20996199999999998,0.976611,0.046324000000000004,-0.627031,0.735258,-0.100813,0.161424,-0.56319,-0.253691
612,-1.811288,-1.3591469999999999,0.74384,-0.204027,0.977686,0.050035,0.171156,-0.144172,0.4165,-0.06996000000000001,-0.537775,0.055510000000000004
613,-1.759493,-1.375405,0.797554,-0.19070399999999998,0.980972,0.036418,0.862922,0.178578,0.888799,-0.602021,0.31753600000000004,-0.08848099999999999
614,-1.65793,-1.3925299999999998,0.882432,-0.176651,0.9841530000000001,0.015431,0.923192,1.216905,0.383689,-1.002365,0.774926,0.440517
615,-1.606343,-1.385491,0.915108,-0.18413,0.98288,0.006548,-0.379668,0.6003569999999999,-0.677888,-0.9076059999999999,0.521469,0.67082
616,-1.7403369999999998,-1.3612879999999998,0.7918,-0.20499699999999998,0.978133,0.035092,-1.8042349999999998,-1.5523639999999999,-1.356992,-0.484868,0.041963,0.750491
617,-1.961397,-1.3183209999999999,0.623354,-0.23098600000000002,0.968297,0.09511,-2.67501,-3.307895,-1.412099,0.007247,0.024318,0.564176
618,-2.1880349999999997,-1.271874,0.44859899999999997,-0.24015100000000003,0.9556540000000001,0.17044700000000002,-3.663021,-2.493921,-0.582558,0.378121,-0.043759,0.125604
619,-2.38793,-1.213735,0.278088,-0.23918299999999998,0.9369280000000001,0.254867,-3.9323089999999996,-1.6417130000000002,-0.346249,0.67299,-0.215248,-0.225921
620,-2.505452,-1.153402,0.183804,-0.24083400000000002,0.914149,0.326085,-3.141942,-1.619393,-0.753091,0.48,-0.193873,-0.7237899999999999
621,-2.563541,-1.0943129999999999,0.15498800000000001,-0.250607,0.8886129999999999,0.38413800000000003,-2.613038,-1.430928,-1.454664,0.13255,-0.201388,-0.314085
622,-2.563828,-1.038084,0.16510899999999998,-0.277376,0.861433,0.425436,-1.9903549999999999,0.275928,-1.7986060000000001,-0.16392400000000001,0.177752,0.218881
623,-2.5285450000000003,-0.9877290000000001,0.185441,-0.316787,0.834778,0.450324,-1.7529880000000002,0.919268,-1.982575,-0.311814,0.940506,-0.368736
624,-2.484845,-0.9264100000000001,0.213806,-0.366759,0.799469,0.47575,-2.012361,1.1190959999999999,-2.711033,-0.360139,0.773026,-0.654155
625,-2.453989,-0.8773540000000001,0.245806,-0.405685,0.76905,0.49394499999999997,-0.670945,-0.600767,-1.8833380000000002,-0.18278599999999998,0.22721100000000002,-0.607639
626,-2.4600779999999998,-0.86193,0.273147,-0.41009399999999996,0.759101,0.505559,0.214878,-1.41861,-0.860224,0.011122,-0.05123,-0.48671400000000004
627,-2.463283,-0.8678600000000001,0.30053,-0.40563899999999997,0.762947,0.503356,1.188536,-0.973555,-0.31560900000000003,0.023865,-0.26769299999999996,-0.298156
628,-2.443969,-0.893338,0.342015,-0.402665,0.7791680000000001,0.48037299999999994,2.195799,-0.55053,-0.151018,0.182175,-0.373025,0.001363
629,-2.406405,-0.93209,0.40074499999999996,-0.399858,0.802867,0.442173,2.830321,-0.282534,-0.055063,0.12871,-0.41393599999999997,0.03828
630,-2.3511759999999997,-0.9762299999999999,0.472344,-0.398068,0.828392,0.39409299999999997,3.142523,-0.224555,0.09339,0.072888,-0.45008000000000004,-0.023655000000000002
631,-2.293282,-1.027097,0.552733,-0.38806399999999996,0.855801,0.342069,3.436079,-0.616505,0.619372,0.152804,-0.573346,-0.083982
632,-2.24233,-1.089292,0.630887,-0.362557,0.886299,0.288143,3.313473,-1.153277,1.49194,0.437325,-0.26412199999999997,0.08617000000000001
633,-2.262094,-1.149237,0.667375,-0.315244,0.912452,0.26087,2.003139,-3.5794120000000005,1.9537779999999998,0.355435,0.48250699999999996,0.836405
634,-2.347442,-1.186809,0.6538430000000001,-0.267205,0.9271780000000001,0.26256799999999997,0.405177,-3.086134,1.1952969999999998,-0.42291899999999993,1.33831,1.213475
635,-2.4110709999999997,-1.1879879999999998,0.6307649999999999,-0.249239,0.9276190000000001,0.278213,-0.482959,-1.7288279999999998,-0.200266,-0.487791,0.61039,0.761857
636,-2.42581,-1.171721,0.640152,-0.254981,0.9214209999999999,0.293204,-0.353851,-0.8694430000000001,-0.770896,-0.201761,-0.38911799999999996,0.41503199999999996
637,-2.407335,-1.1682780000000001,0.670265,-0.26247800000000004,0.9200780000000001,0.29079699999999997,0.625679,-0.199103,-0.358989,-0.05157899999999999,-1.0397370000000001,0.134694
638,-2.365784,-1.1809020000000001,0.702339,-0.266175,0.924949,0.271329,1.003784,1.353898,0.154409,0.074158,-1.309013,-1.044263
639,-2.285332,-1.204983,0.734502,-0.27021300000000004,0.933833,0.234395,1.342916,2.816345,0.702901,0.282023,-1.188502,-2.0721939999999996
640,-2.2195080000000003,-1.236734,0.751052,-0.261278,0.9447180000000001,0.198094,0.954095,2.323282,1.265907,1.101702,-0.22883699999999998,-1.632161
641,-2.274109,-1.269008,0.687493,-0.22669699999999998,0.9548059999999999,0.192232,-0.602513,-4.34781,2.431149,1.722486,1.6668669999999999,-0.263338
642,-2.6345240000000003,-1.318967,0.549404,-0.121004,0.968458,0.217823,2.069444,-10.091744,2.770162,1.047808,2.277666,1.229916
643,-2.673427,-1.354166,0.518508,-0.096992,0.976627,0.19181199999999998,0.555094,3.8766830000000003,-0.042102,-1.098214,2.329418,-0.446862
644,-2.537841,-1.35104,0.610158,-0.123761,0.975951,0.179453,0.496267,0.221845,-0.819767,-1.0818969999999999,0.517259,-0.631891
645,-2.57259,-1.360615,0.594337,-0.11241199999999998,0.977993,0.175764,0.29215399999999997,-1.056009,0.834052,0.12378,0.22818400000000003,-0.391416
646,-2.600927,-1.381302,0.578543,-0.096951,0.9821,0.161495,1.163885,-0.38353899999999996,0.541245,0.202985,0.084139,-0.528439
647,-2.552757,-1.41592,0.628577,-0.085674,0.988031,0.128279,1.9263080000000001,0.12676199999999999,0.670899,0.393474,-0.307824,-0.008131000000000001
648,-2.49739,-1.458143,0.6782060000000001,-0.067513,0.993661,0.089885,1.800732,0.356767,1.069242,0.44817399999999996,-0.22428299999999998,-0.019374000000000002
649,-2.465178,-1.494393,0.701771,-0.047782,0.9970829999999999,0.059523,1.316642,0.511371,0.9214530000000001,0.05745599999999999,0.342273,-0.31800700000000004
650,-2.372856,-1.521733,0.7795310000000001,-0.034097,0.9987969999999999,0.035253,1.196496,1.057185,0.661404,-0.25299699999999997,0.080412,0.162745
651,-1.9046869999999998,-1.549943,1.21574,-0.019701,0.999783,0.006834000000000001,1.459284,1.754493,0.811897,-0.116941,-0.296093,0.169329
652,-0.033333999999999996,-1.5492299999999999,3.0583009999999997,-0.000719,0.999767,-0.021553,1.361035,1.228818,1.0201879999999999,-0.045576,-0.180523,0.095497
653,0.42867700000000003,-1.5178180000000001,-2.7823900000000004,0.022011000000000003,0.998597,-0.048162,1.341798,0.8863700000000001,1.1604290000000002,-0.25309,-0.098924,0.227911
654,0.5617810000000001,-1.4814969999999998,-2.663557,0.047506,0.996015,-0.075474,1.427661,0.6140680000000001,1.250041,-0.49912,-0.065901,0.353504
655,0.602322,-1.444963,-2.6320360000000003,0.071104,0.992093,-0.10341600000000001,1.406664,0.45635600000000004,1.015087,-0.5602239999999999,0.005618,0.553794
656,0.601179,-1.418176,-2.645922,0.08599,0.988376,-0.125374,0.931797,0.632653,0.49666099999999996,-0.45311599999999996,-0.129108,0.6331399999999999
657,0.610316,-1.403857,-2.6360740000000003,0.095234,0.9860979999999999,-0.136167,0.370487,-0.544801,0.531637,-0.32397800000000004,-0.029051,0.43241599999999997
658,0.641907,-1.395651,-2.575093,0.10432899999999999,0.984701,-0.139568,-0.274586,-1.9303,0.717982,-0.506718,-0.031866000000000005,0.262554
659,0.7309060000000001,-1.403565,-2.442873,0.111115,0.986049,-0.12393599999999999,-1.454246,-1.858123,0.474641,-0.8315889999999999,0.057286000000000004,0.360661
660,0.89979,-1.428911,-2.247251,0.110751,0.989951,-0.087925,-2.213705,-0.908515,-0.043559,-0.8591799999999999,0.292016,0.132633
661,1.251344,-1.458136,-1.873418,0.106734,0.993661,-0.035306,-3.165787,-1.159161,-0.20691700000000002,-0.7137439999999999,0.516456,0.09417400000000001
662,1.945279,-1.466607,-1.145642,0.09679299999999999,0.994577,0.038042,-4.115979,-1.608547,-0.754567,-0.383918,0.811972,0.058485
663,2.567661,-1.434835,-0.48573,0.073591,0.990772,0.113825,-3.7314269999999996,-1.655411,-1.621353,-0.242445,0.922299,-0.218836
664,2.93802,-1.387592,-0.0825,0.036832,0.983265,0.17842,-3.204525,-1.185765,-2.308346,0.14837999999999998,0.826412,-0.910903
665,-3.090779,-1.331464,0.195403,-0.01204,0.9714959999999999,0.23674800000000001,-2.8098959999999997,-0.613784,-2.8981169999999996,0.129411,0.8308409999999999,-0.9310379999999999
666,-2.8889240000000003,-1.2787950000000001,0.414681,-0.071964,0.95767,0.278729,-1.6753040000000001,-0.570821,-3.4361089999999996,-0.31603600000000004,0.579363,-0.9398620000000001
667,-2.715154,-1.233517,0.617398,-0.136879,0.943659,0.30128499999999997,-0.873294,-1.282506,-3.844065,-0.745934,0.45949399999999996,-0.736557
668,-2.5992669999999998,-1.183071,0.788611,-0.19514,0.9257709999999999,0.323833,-0.762235,-2.821554,-3.74304,-0.752797,0.423121,-0.6435350000000001
669,-2.56438,-1.136097,0.9095690000000001,-0.22981100000000002,0.9069969999999999,0.352908,-0.677054,-4.305365,-3.048336,-0.39879000000000003,0.43258800000000003,-0.645755
670,-2.577259,-1.094808,1.00377,-0.245079,0.88884,0.387169,-0.55783,-5.27629,-2.770658,-0.112831,0.161834,-0.717888
671,-2.625741,-1.061135,1.086773,-0.24065999999999999,0.8729100000000001,0.42439499999999997,-0.325631,-6.425856,-2.407572,-0.052949,-0.241013,-0.851519
672,-2.6844639999999997,-1.0394889999999999,1.164431,-0.22362600000000002,0.862146,0.454638,0.154907,-6.06427,-2.13976,-0.081122,-0.30404000000000003,-0.8693110000000001
673,-2.726071,-1.032851,1.245424,-0.206828,0.858764,0.468772,0.817793,-5.2983139999999995,-1.921399,-0.056753,-0.298003,-0.886634
674,-2.75402,-1.039391,1.3287719999999998,-0.19152,0.8620959999999999,0.46916,1.270825,-4.8134559999999995,-1.8205790000000002,0.026512,-0.085256,-1.109205
675,-2.771979,-1.053239,1.415329,-0.178734,0.86903,0.461346,1.515755,-4.580339,-1.721959,0.013894,-0.030819,-1.136197
676,-2.787357,-1.0685440000000002,1.501487,-0.166985,0.8765,0.45151199999999997,1.387029,-4.475586,-1.699491,0.014291,0.05260700000000001,-1.135304
677,-2.798331,-1.080265,1.58636,-0.158552,0.882083,0.443612,1.155949,-4.123312,-1.6823290000000002,0.344846,0.102124,-0.827965
678,-2.801411,-1.089129,1.667272,-0.15457,0.886224,0.43671000000000004,1.005005,-3.422249,-1.579596,0.441618,-0.112649,-0.5980409999999999
679,-2.7918830000000003,-1.098862,1.740703,-0.15576099999999998,0.890691,0.42709300000000006,1.066057,-2.401889,-1.323035,0.512206,-0.278996,-0.441589
680,-2.7681310000000003,-1.113543,1.8064,-0.161072,0.8972690000000001,0.411054,1.3050700000000002,-1.3505040000000001,-0.987291,0.49832200000000004,-0.339621,-0.37032800000000005
681,-2.7332919999999996,-1.134559,1.863457,-0.167767,0.9063479999999999,0.387798,1.497639,-0.5911310000000001,-0.5799270000000001,0.41936899999999994,-0.22894899999999999,-0.296597
682,-2.707291,-1.15858,1.9067060000000002,-0.16858099999999998,0.916235,0.36344699999999996,1.38578,-0.8756790000000001,-0.18723800000000002,0.273119,0.024041999999999997,-0.156934
683,-2.720273,-1.176509,1.931284,-0.157104,0.92327,0.350557,0.699092,-2.511326,-0.012614,0.057434000000000006,0.296471,0.243758
684,-2.789546,-1.178189,1.934941,-0.131928,0.9239149999999999,0.359133,-0.14193,-4.056035,-0.06778300000000001,-0.082886,0.39803,0.529691
685,-2.854127,-1.1739680000000001,1.944657,-0.10958,0.922291,0.370635,-0.11348299999999999,-3.2824660000000003,-0.402929,-0.42159399999999997,0.45965100000000003,0.800614
686,-2.868878,-1.166104,1.981141,-0.10605099999999999,0.9192239999999999,0.379185,-0.264217,-1.850839,-1.044614,-0.5037050000000001,0.325527,0.47011899999999995
687,-2.8311490000000004,-1.151133,2.041461,-0.12446900000000001,0.913226,0.38797600000000004,-0.39914499999999997,-0.262414,-1.484494,-0.522336,0.207211,0.25243499999999996
688,-2.761016,-1.137809,2.1030759999999997,-0.155857,0.907716,0.38956399999999997,-0.021044,1.139813,-1.3608049999999998,-0.34122800000000003,-0.18535,-0.29386
689,-2.682989,-1.133325,2.168837,-0.187548,0.905826,0.379875,0.607917,0.522015,-1.388734,-0.341321,-0.341998,-0.158729
690,-2.606795,-1.140096,2.251002,-0.21279,0.908673,0.359212,1.569817,0.315746,-1.255701,-0.541223,-0.357846,-0.18654300000000001
691,-2.493046,-1.171977,2.348911,-0.23456300000000002,0.9215200000000001,0.309485,2.707363,1.4577870000000002,-0.39464099999999996,-0.45484399999999997,-0.144024,-1.424475
692,-2.411938,-1.201531,2.4164529999999997,-0.240601,0.932593,0.269039,1.121108,0.502866,0.022791,-0.307251,0.78985,-0.738338
693,-2.501935,-1.1905270000000001,2.365582,-0.221559,0.928565,0.29779,-1.779953,-4.37584,0.8740389999999999,0.331652,1.722436,-0.009840999999999999
694,-2.686689,-1.1999469999999999,2.322254,-0.15923299999999999,0.9320200000000001,0.32555100000000003,1.125364,-8.349103999999999,0.433679,0.9072950000000001,0.463595,0.054560000000000004
695,-2.788969,-1.223554,2.366911,-0.117529,0.940315,0.319367,1.400139,-6.217167,-0.41636999999999996,0.401861,-0.689094,-1.065064
696,-2.841326,-1.261542,2.40501,-0.090019,0.9525610000000001,0.290731,2.445047,-2.824282,0.279857,0.211112,-0.561829,-0.398946
697,-2.8095369999999997,-1.312081,2.438691,-0.0834,0.9667190000000001,0.241864,2.3042,1.231616,0.303586,0.394497,-0.092726,-0.513196
698,-2.759118,-1.3409280000000001,2.457881,-0.085037,0.9736959999999999,0.211385,0.982708,1.216388,0.196099,0.500046,0.139768,-0.35256
699,-2.719834,-1.355416,2.498036,-0.087489,0.9768950000000001,0.194991,0.884325,-0.47947399999999996,-0.264955,0.131221,0.030063,-0.119475
700,-2.6500060000000003,-1.3741079999999999,2.565362,-0.092244,0.980719,0.172282,1.320066,0.952285,-0.1174,-0.436259,0.120645,0.106405
701,-2.558039,-1.399126,2.623371,-0.094125,0.985301,0.142558,1.247112,1.8294080000000001,0.37769,-0.066596,0.11554500000000001,-0.262034
702,-2.521418,-1.423851,2.638982,-0.085095,0.989223,0.11915099999999999,1.033676,0.512034,0.735741,-0.075626,0.111622,-0.238628
703,-2.557178,-1.450381,2.607681,-0.066274,0.9927590000000001,0.100188,0.937054,-0.564542,0.9810690000000001,-0.123072,-0.025184,-0.23399299999999998
704,-2.622122,-1.475032,2.552237,-0.047467,0.995418,0.083004,0.8633870000000001,-0.256859,0.824199,-0.311344,-0.318096,0.158436
705,-2.6752029999999998,-1.494821,2.494641,-0.034131,0.997115,0.06779600000000001,0.6744359999999999,0.427609,0.581653,-0.32468,-0.319793,0.173644
706,-2.6832290000000003,-1.50681,2.471575,-0.028293000000000002,0.9979540000000001,0.057342,0.399777,0.897733,0.203118,-0.223919,-0.24543600000000002,0.259735
707,-2.658635,-1.509944,2.480069,-0.028242000000000003,0.998149,0.053859000000000004,-0.05242,0.677701,-0.0572,-0.208666,0.053273,0.296941
708,-2.637542,-1.500803,2.495102,-0.033777999999999996,0.9975510000000001,0.061239,-0.519928,0.085083,-0.36949099999999996,-0.18895499999999998,0.063331,0.30514
709,-2.605035,-1.485802,2.528012,-0.043394999999999996,0.99639,0.072962,-0.619844,0.0008820000000000001,-0.537792,-0.166108,-0.0745,0.283437
710,-2.5955220000000003,-1.467551,2.535688,-0.053523,0.994675,0.088074,-0.83845,0.136483,-0.42626099999999995,-0.139882,-0.28833000000000003,0.113251
711,-2.628768,-1.452028,2.496622,-0.058136,0.9929549999999999,0.103247,-0.694601,0.43926899999999997,-0.080609,-0.049301,-0.55808,0.015634000000000002
712,-2.664358,-1.444107,2.448483,-0.058036000000000004,0.991986,0.112233,-0.384508,0.597011,0.162774,-0.028512,-0.54794,-0.10866300000000001
713,-2.720507,-1.441043,2.383228,-0.052888,0.9915940000000001,0.11808699999999998,-0.274276,0.39450100000000005,0.360356,-0.159224,-0.372377,-0.21314899999999998
714,-2.7677509999999996,-1.4399540000000002,2.322658,-0.047647,0.991452,0.121458,-0.219727,0.8493870000000001,0.309948,-0.314566,-0.250592,0.009370999999999999
715,-2.7828459999999997,-1.4383920000000001,2.2887299999999997,-0.046350999999999996,0.991247,0.12361300000000001,-0.027098,0.778157,0.10735399999999999,-0.5034069999999999,-0.004599,0.18653699999999998
716,-2.80092,-1.4405709999999998,2.2680119999999997,-0.043388,0.991533,0.122394,0.002042,-0.248153,0.19433,-0.47014700000000004,-0.01909,-0.06930900000000001
717,-2.836784,-1.434187,2.242011,-0.040871,0.990683,0.129908,-0.62371,-0.585996,-0.024319999999999998,-0.42803199999999997,-0.201957,0.214666
718,-2.8789029999999998,-1.409424,2.215047,-0.041723,0.987008,0.155161,-1.653201,-1.01409,-0.233925,-0.374582,-0.154778,0.738089
719,-2.9496740000000004,-1.364778,2.1838830000000002,-0.039019,0.9788530000000001,0.200808,-2.668365,-2.512785,-0.189957,0.24425,0.113005,0.338239
720,-3.017725,-1.294608,2.161922,-0.033691000000000006,0.962102,0.27060100000000004,-3.8480760000000003,-2.1214,-0.339704,0.404983,0.344752,0.12538
721,-3.051313,-1.2143329999999999,2.156901,-0.031462000000000004,0.9371370000000001,0.347541,-4.005687,-0.948732,-0.41922,0.092848,0.38078,-0.393806
722,-3.0263150000000003,-1.137257,2.1935729999999998,-0.048319,0.907485,0.41729700000000003,-3.601807,-0.094249,-1.601084,-0.374121,0.261751,-0.516464
723,-2.94005,-1.061577,2.266425,-0.09758700000000001,0.8731260000000001,0.477628,-3.438563,1.679053,-2.445043,-0.575188,0.26981900000000003,-0.443097
724,-2.840316,-0.987373,2.330963,-0.163469,0.8345809999999999,0.526072,-2.784237,2.4267630000000002,-2.717032,-0.539244,1.103407,-0.1542
725,-2.727863,-0.9264129999999999,2.422503,-0.2415,0.79947,0.5500229999999999,-1.674985,1.426241,-3.88625,-0.7326060000000001,1.6060780000000001,-0.127309
726,-2.652335,-0.864287,2.505052,-0.305097,0.760632,0.573022,-1.553582,-0.049362,-3.410289,-0.8683649999999999,1.3889799999999999,-0.176538
727,-2.6240930000000002,-0.819262,2.555022,-0.33776799999999996,0.730642,0.593359,-1.023469,-0.613841,-2.036402,0.130431,0.198496,-0.576651
728,-2.62277,-0.796447,2.5767740000000003,-0.346729,0.7148760000000001,0.607232,-0.313865,-0.756655,-0.771829,0.5415989999999999,-0.261827,-0.565713
729,-2.6298790000000003,-0.7939430000000001,2.592087,-0.343279,0.713123,0.61124,0.428217,-1.068188,-0.498123,0.5313439999999999,-0.574771,-0.528355
730,-2.640334,-0.806247,2.615601,-0.332629,0.721695,0.607055,1.2600200000000001,-1.464821,-0.33263899999999996,0.270373,-0.710525,-0.503386
731,-2.647421,-0.8373149999999999,2.6446490000000002,-0.31752600000000003,0.742848,0.589367,2.188226,-1.350152,0.023006,0.176215,-0.813207,-0.46740299999999996
732,-2.642758,-0.888777,2.675734,-0.30156700000000003,0.776301,0.553547,3.06453,-0.546596,0.509865,0.27674099999999996,-0.9529059999999999,-0.300327
733,-2.609458,-0.959535,2.7073970000000003,-0.29118299999999997,0.818925,0.49454499999999996,3.8342330000000002,0.981858,1.227924,0.45228500000000005,-1.11937,-0.16462000000000002
734,-2.557418,-1.052599,2.7284080000000004,-0.27317199999999997,0.868713,0.41317600000000004,4.427502,1.9486729999999999,2.424033,0.5927060000000001,-1.087158,-0.298933
735,-2.5212689999999998,-1.157624,2.7330099999999997,-0.23340100000000003,0.915852,0.32671,4.289454,1.3286360000000002,3.0872290000000002,0.603167,-1.000645,-0.28377199999999997
736,-2.5356490000000003,-1.2564959999999998,2.71053,-0.176073,0.9510129999999999,0.254112,3.4069529999999997,-0.628217,3.304694,0.236071,0.614691,-0.893424
737,-2.695103,-1.33136,2.6066689999999997,-0.102404,0.9714719999999999,0.21390599999999999,1.926163,-4.2852559999999995,2.7115150000000003,-0.063902,2.144861,-0.36292399999999997
738,-2.8462080000000003,-1.368703,2.554296,-0.058431,0.979649,0.192027,1.321365,-4.741206,0.31185300000000005,-0.320002,1.914394,0.230504
739,-2.806046,-1.371845,2.644399,-0.065081,0.980274,0.18662,-0.322398,-0.593554,-1.324368,-0.508894,-0.39365,1.374751
740,-2.6921060000000003,-1.344374,2.733625,-0.09754299999999999,0.974476,0.202194,-0.555125,1.43383,-1.164086,0.152612,-0.9484290000000001,-0.681167
741,-2.637852,-1.357533,2.797989,-0.10216499999999999,0.977345,0.18536,1.408915,-1.148515,0.091012,0.782524,-1.113805,-1.2718770000000001
742,-2.647186,-1.373983,2.820511,-0.092788,0.9806950000000001,0.172129,0.250635,-1.770788,0.33368200000000003,0.605224,-0.451962,0.8210959999999999
743,-2.734,-1.376826,2.729149,-0.076409,0.981247,0.176966,-0.113631,1.943226,1.065588,-0.372154,1.713425,0.409765
744,-2.687886,-1.3933659999999999,2.74684,-0.07736,0.9843,0.158644,1.142468,0.45485200000000003,-0.507904,-0.6680010000000001,2.4165330000000003,-1.4725629999999998
745,-2.555302,-1.3902459999999999,2.880048,-0.099352,0.9837450000000001,0.149583,-0.046657,-0.212227,-1.286611,-1.0656709999999998,0.034444,0.564315
746,-2.5127610000000002,-1.369693,2.932293,-0.117493,0.9798469999999999,0.16154100000000002,-0.571398,-0.52812,-0.689531,-0.8460989999999999,0.22402600000000003,-0.092251
747,-2.522421,-1.357747,2.932569,-0.12271199999999999,0.977391,0.172189,-0.737522,-0.495217,-0.249558,-0.261687,0.222072,-0.167962
748,-2.574018,-1.337853,2.900578,-0.124098,0.9729909999999999,0.19464800000000002,-0.850935,-1.080567,-0.289124,-0.260256,0.005386999999999999,0.656289
749,-2.569323,-1.324501,2.911555,-0.13203499999999999,0.969822,0.204967,-0.522733,0.202048,-0.579032,0.010086,-0.0322,-0.029323000000000002
750,-2.5634189999999997,-1.3010700000000002,2.905513,-0.145623,0.963844,0.223156,-1.232341,0.717707,-0.5130779999999999,0.059303999999999996,-0.128746,0.411854
751,-2.572647,-1.2704090000000001,2.878095,-0.159409,0.9552219999999999,0.24927800000000003,-1.7536900000000002,0.9711879999999999,-0.58007,-0.005843,-0.10553599999999999,0.328434
752,-2.5865080000000003,-1.220289,2.840922,-0.180963,0.939199,0.29181799999999997,-2.865519,0.9906290000000001,-1.014081,-0.016608,0.045848,0.213721
753,-2.603686,-1.149083,2.807169,-0.209713,0.9123889999999999,0.35152100000000003,-3.614264,0.611456,-1.446114,0.236004,0.265788,-0.21100300000000002
754,-2.6141900000000002,-1.071433,2.7841869999999997,-0.241009,0.8778870000000001,0.413797,-3.4461800000000005,0.404606,-1.545088,0.23179299999999997,0.085507,-0.329218
755,-2.61442,-1.0036370000000001,2.778506,-0.27028,0.8434309999999999,0.46429899999999996,-2.751616,0.08401900000000001,-1.629556,0.24328699999999998,-0.12989900000000001,-0.7331439999999999
756,-2.605296,-0.9437629999999999,2.786798,-0.29980100000000004,0.809772,0.50437,-2.2365060000000003,0.193351,-1.711556,0.258037,-0.211948,-0.715704
757,-2.597641,-0.9006790000000001,2.791975,-0.321421,0.783749,0.531438,-1.5720969999999999,0.190075,-0.936723,0.035715,0.22118000000000002,-0.348028
758,-2.593134,-0.869985,2.790855,-0.336201,0.76432,0.550259,-1.179641,0.346661,-0.7419020000000001,-0.338818,0.309243,-0.39953299999999997
759,-2.576678,-0.850369,2.7938009999999998,-0.35317,0.751524,0.55721,-0.46019499999999997,0.976736,-0.424695,-0.21793600000000002,0.308398,-0.33824699999999996
760,-2.554021,-0.855714,2.795843,-0.36346999999999996,0.7550399999999999,0.545715,0.723791,1.008792,0.387905,0.107367,0.037288,-0.368102
761,-2.536124,-0.889684,2.79889,-0.35836799999999996,0.7768729999999999,0.517727,1.8675240000000002,0.6329779999999999,1.202883,0.060898,-0.179201,-0.275402
762,-2.5257650000000003,-0.949478,2.8016959999999997,-0.33624499999999996,0.813112,0.47517200000000004,2.852129,0.272318,1.8297919999999999,0.157351,-0.302004,-0.011091
763,-2.519125,-1.0258639999999999,2.812555,-0.302226,0.8551620000000001,0.421138,3.4487120000000004,-0.414555,2.053824,0.298319,-0.443022,0.151937
764,-2.524104,-1.107119,2.820385,-0.258948,0.8944139999999999,0.364651,3.35883,-0.462114,2.3032209999999997,0.15146500000000002,-0.583806,0.040104
765,-2.523735,-1.187497,2.814028,-0.216644,0.927436,0.304841,3.0734169999999996,0.777092,2.4780330000000004,-0.033889999999999997,-0.45084300000000005,-0.095719
766,-2.519701,-1.259169,2.794307,-0.178622,0.951836,0.249204,2.5024889999999997,1.171192,2.187257,-0.23188499999999998,-0.066597,-0.274915
767,-2.499009,-1.3149540000000002,2.79957,-0.151651,0.96745,0.20258800000000002,2.284327,0.512386,1.162152,-0.372748,0.978534,0.051501
768,-2.387983,-1.355903,2.9162369999999997,-0.14591700000000002,0.976999,0.155502,2.3830869999999997,-0.724545,-0.216784,-0.190249,0.613913,0.364014
769,-2.251923,-1.3703809999999998,3.0876,-0.154655,0.979984,0.125352,1.301826,-1.660118,-0.811728,-0.0373,0.103192,0.6004470000000001
770,-2.215249,-1.362026,3.141096,-0.165687,0.9782870000000001,0.12451199999999998,-0.363159,-0.276146,-0.47902700000000004,0.07520299999999999,-0.812515,-0.037323
771,-2.202037,-1.370415,-3.11889,-0.160687,0.979991,0.11746500000000001,1.179557,-1.319249,0.629081,0.395092,-0.964411,-0.769076
772,-2.208856,-1.401076,-3.04603,-0.135675,0.985632,0.100607,1.149867,-5.352017,0.829526,0.703958,-1.0127469999999998,-1.149756
773,-2.3673580000000003,-1.417314,-3.0919119999999998,-0.10688900000000001,0.988245,0.109302,-0.118477,-4.537171,0.884783,-0.8566879999999999,0.212286,1.623516
774,-2.344357,-1.4206809999999999,-3.086521,-0.106994,0.9887540000000001,0.10449100000000001,0.698576,3.373737,-0.663227,-1.251572,1.410508,0.47551099999999996
775,-2.0962110000000003,-1.414032,-2.901665,-0.13506500000000002,0.9877379999999999,0.078307,0.577752,2.416052,-1.090133,-0.34162,1.5982459999999998,-0.307311
776,-2.0825419999999997,-1.4012930000000001,-2.89615,-0.147081,0.985669,0.082609,-0.670602,0.012289,-0.150396,0.058915999999999996,0.505252,1.250949
777,-2.085686,-1.394839,-2.919405,-0.152355,0.984559,0.086202,-0.239105,1.043026,-0.41148500000000005,-0.019611,0.812133,-0.43468199999999996
778,-2.164422,-1.379294,-3.006088,-0.157772,0.981719,0.106467,-1.371018,0.302727,0.019528,-0.129414,0.09854199999999999,-0.634894
779,-2.237089,-1.37172,-3.09579,-0.15546500000000002,0.98025,0.122233,-0.7508,0.83765,0.24216,-0.10686400000000001,-0.5755100000000001,0.328268
780,-2.308624,-1.362067,3.102523,-0.153326,0.978295,0.13939100000000001,-1.1056979999999998,0.552856,0.108655,-0.060877,-0.368386,0.263502
781,-2.3873189999999997,-1.340424,3.011256,-0.156358,0.9735809999999999,0.166408,-1.748441,0.40389200000000003,-0.176586,-0.21411,-0.053019000000000004,0.33212800000000003
782,-2.475636,-1.29898,2.90842,-0.165871,0.9632850000000001,0.211114,-2.80557,0.80207,-0.532721,-0.264243,0.407504,0.36675100000000005
783,-2.543989,-1.237133,2.823355,-0.184276,0.9448489999999999,0.27074499999999996,-3.4651690000000004,0.298028,-0.984267,-0.059330999999999995,0.312857,0.03324
784,-2.594286,-1.1606020000000001,2.776768,-0.207525,0.9170440000000001,0.340536,-3.6956809999999995,-0.5806899999999999,-1.6160709999999998,0.295919,0.003168,-0.44505900000000004
785,-2.613281,-1.082385,2.774227,-0.236525,0.8830790000000001,0.40525,-3.148323,-1.071674,-2.1168869999999997,0.188139,-0.078651,-0.856483
786,-2.61832,-1.012675,2.789256,-0.264648,0.848251,0.45872799999999997,-2.657706,-0.463654,-1.9465279999999998,0.187606,-0.138214,-0.794849
787,-2.59373,-0.956519,2.795871,-0.300209,0.81719,0.492011,-2.157855,1.6543290000000002,-1.368911,0.079338,-0.303762,-0.249121
788,-2.564749,-0.909674,2.7948009999999996,-0.334866,0.789303,0.514651,-1.8799740000000003,1.200019,-1.217905,0.011715,-0.007336,-0.5380119999999999
789,-2.5383259999999996,-0.872125,2.802309,-0.364911,0.765698,0.529667,-0.740314,0.5388729999999999,-0.971952,-0.033115,0.049213,-0.577259
790,-2.543063,-0.8815959999999999,2.812721,-0.358295,0.771755,0.525375,1.042044,-0.859583,0.348725,-0.099377,0.101109,-0.390945
791,-2.552148,-0.914294,2.822037,-0.339293,0.792132,0.5073529999999999,1.823333,-0.7970659999999999,0.8198469999999999,0.056060000000000006,-0.39313000000000003,-0.434675
792,-2.557055,-0.964565,2.8346869999999997,-0.31440999999999997,0.821801,0.47517299999999996,2.579113,-0.713154,1.290764,0.040697000000000004,-0.495385,-0.389358
