,attitude.roll,attitude.pitch,attitude.yaw,gravity.x,gravity.y,gravity.z,rotationRate.x,rotationRate.y,rotationRate.z,userAcceleration.x,userAcceleration.y,userAcceleration.z
0,-1.297036,1.211484,-2.510241,-0.33852600000000005,-0.9361389999999999,-0.095062,0.849842,-0.207879,0.078165,-0.124456,0.43241599999999997,-0.037873000000000004
1,-1.317033,1.216291,-2.4859560000000003,-0.335999,-0.937818,-0.087143,0.233854,0.322914,-0.257967,-0.00209,0.403547,-0.140869
2,-1.295196,1.225873,-2.4974540000000003,-0.325354,-0.9411010000000001,-0.09200900000000001,-0.2013,0.659497,-0.66843,0.126029,0.41391000000000006,-0.204286
3,-1.250383,1.240469,-2.529889,-0.307834,-0.9459360000000001,-0.102154,-0.328966,0.71002,-0.9375100000000001,0.149204,0.447416,-0.18809800000000002
4,-1.199818,1.256166,-2.568865,-0.288403,-0.9509110000000001,-0.11218499999999999,-0.274853,0.669248,-0.911443,0.181637,0.538313,-0.133832
5,-1.164591,1.269403,-2.592437,-0.272685,-0.954924,-0.117289,0.064959,0.611513,-0.61733,0.17763800000000002,0.499296,-0.077184
6,-1.166939,1.277395,-2.5780529999999997,-0.265933,-0.957266,-0.113646,0.525278,0.557629,-0.06284400000000001,0.171344,0.42055299999999995,-0.054917999999999995
7,-1.209316,1.278114,-2.521803,-0.269864,-0.9574739999999999,-0.102034,0.886892,0.567146,0.43959799999999993,0.11469700000000001,0.060409000000000004,0.011748
8,-1.2724010000000001,1.273004,-2.4462490000000003,-0.280433,-0.9559860000000001,-0.086255,0.9470299999999999,0.390318,0.651753,0.149559,-0.183586,0.047619999999999996
9,-1.322786,1.265628,-2.385925,-0.291249,-0.9537959999999999,-0.073751,0.614629,0.362182,0.517007,0.12095999999999998,-0.298218,0.049154
10,-1.338641,1.262131,-2.3628150000000003,-0.295625,-0.9527399999999999,-0.069891,0.095429,0.244317,0.073424,0.085268,-0.196613,0.035437
11,-1.321169,1.264541,-2.379728,-0.292134,-0.953469,-0.074478,-0.388596,-0.041227999999999994,-0.292786,0.130665,0.079003,-0.023194
12,-1.283744,1.269204,-2.423532,-0.284875,-0.954865,-0.084097,-0.628297,-0.34872800000000004,-0.44254899999999997,0.176217,0.19534300000000002,-0.024163999999999998
13,-1.2544549999999999,1.274558,-2.465854,-0.277429,-0.956441,-0.090812,-0.372707,-0.663977,-0.41579099999999997,0.33605300000000005,0.371587,0.094871
14,-1.254261,1.281857,-2.480493,-0.270769,-0.9585469999999999,-0.08868999999999999,0.082958,-0.66865,-0.44144399999999995,0.306261,0.318471,0.32721500000000003
15,-1.274345,1.294556,-2.470005,-0.260831,-0.9620879999999999,-0.079672,0.461938,-0.364406,-0.663513,0.158414,0.225439,0.348181
16,-1.3012219999999999,1.314694,-2.443669,-0.24415,-0.967385,-0.067459,0.683996,0.06539299999999999,-0.978707,-0.150412,0.093804,0.277496
17,-1.335391,1.337713,-2.405998,-0.22459400000000002,-0.972959,-0.05386900000000001,0.749084,0.084272,-0.9611850000000001,-0.126999,-0.067401,0.274221
18,-1.374311,1.3561530000000002,-2.364977,-0.208885,-0.977052,-0.041579000000000005,0.486696,0.12567,-0.697083,-0.405495,-0.550841,0.07623200000000001
19,-1.361432,1.366468,-2.37034,-0.198461,-0.9791979999999999,-0.042169,-0.197957,0.473132,-0.41602700000000004,-0.43709799999999993,-1.068471,-0.35938200000000003
20,-1.3167959999999999,1.37068,-2.411989,-0.192388,-0.980044,-0.049944999999999996,-0.35168699999999997,-0.103281,-0.258266,-0.07664,-0.953749,-0.330487
21,-1.3078459999999998,1.373781,-2.429654,-0.188997,-0.9806549999999999,-0.050875,0.011032,-0.511768,-0.18470599999999998,-0.169951,-0.5834159999999999,-0.281233
22,-1.330279,1.374916,-2.417278,-0.18900999999999998,-0.980877,-0.046357,0.18466,-0.508263,0.119877,0.007109000000000001,0.052684,-0.175231
23,-1.374861,1.369831,-2.381431,-0.195779,-0.979874,-0.038859,0.334124,-0.349434,0.49673199999999995,0.083993,0.15345799999999998,-0.11075399999999999
24,-1.41097,1.356984,-2.343928,-0.20946700000000001,-0.9772290000000001,-0.033766000000000004,0.186149,0.21995599999999998,0.7577510000000001,-0.175467,0.19678800000000002,-0.11081099999999999
25,-1.410928,1.3430090000000001,-2.337541,-0.22292800000000002,-0.974168,-0.035946,-0.178812,0.314407,0.631167,-0.358294,0.08200199999999999,-0.045917
26,-1.3904729999999998,1.333277,-2.35563,-0.231462,-0.971925,-0.042196,-0.29735300000000003,-0.008891,0.33165100000000003,-0.36494299999999996,-0.12161199999999998,0.06743400000000001
27,-1.388258,1.329712,-2.3641419999999997,-0.23477399999999998,-0.9710799999999999,-0.043338,0.00151,-0.48503,0.06302100000000001,-0.13555699999999998,-0.190709,0.28174099999999996
28,-1.418791,1.330529,-2.348719,-0.235202,-0.971274,-0.03603,0.269839,-0.939371,-0.036004,0.165805,-0.015786,0.42013999999999996
29,-1.458693,1.330771,-2.330894,-0.236219,-0.971332,-0.026592,0.113447,-1.196041,0.083942,0.356626,0.344104,0.176708
30,-1.47428,1.3270899999999999,-2.338316,-0.240161,-0.97045,-0.023252000000000002,-0.225733,-1.0610959999999998,0.19783599999999998,0.37233299999999997,0.474296,0.042112000000000004
31,-1.465358,1.3220530000000001,-2.36555,-0.24480300000000002,-0.969223,-0.025907999999999997,-0.407011,-0.762351,0.23784699999999998,0.391241,0.6146689999999999,-0.079057
32,-1.448693,1.315112,-2.394752,-0.25100900000000004,-0.967491,-0.030802,-0.382773,-0.47740200000000005,0.353019,0.438799,1.173972,-0.18475899999999998
33,-1.4342030000000001,1.304717,-2.416764,-0.260488,-0.964809,-0.035804,-0.30806,-0.288775,0.5359659999999999,0.446737,1.249233,-0.050957999999999996
34,-1.430034,1.293615,-2.4270810000000003,-0.270926,-0.96183,-0.03839,-0.162636,-0.242304,0.510216,0.431983,1.2584,0.061324000000000004
35,-1.422372,1.2870629999999998,-2.4343169999999996,-0.276851,-0.960017,-0.041395999999999995,-0.195223,0.19505,0.124868,0.225063,0.089732,0.101226
36,-1.374322,1.287511,-2.472782,-0.274121,-0.960142,-0.054562,-0.811549,0.936574,-0.16239800000000001,-0.42102399999999995,-0.541399,-0.19003699999999998
37,-1.2535479999999999,1.283323,-2.556806,-0.269369,-0.9589629999999999,-0.08844400000000001,-1.205429,2.3111099999999998,-0.17011500000000002,-1.068109,-0.79595,-0.486125
38,-1.1629,1.285405,-2.613091,-0.258424,-0.9595520000000001,-0.11167300000000001,-0.383151,1.4350049999999999,-0.504011,-0.739898,-1.3858620000000001,-0.502462
39,-1.147471,1.2936370000000001,-2.6202520000000002,-0.24945900000000001,-0.961836,-0.112398,0.32105300000000003,-0.139986,-0.18729,-0.232017,-1.386918,0.031282
40,-1.201535,1.291907,-2.5740060000000002,-0.25672,-0.961362,-0.099354,0.607009,-0.556321,0.582224,0.060416,-0.9182620000000001,0.157078
41,-1.276721,1.278518,-2.508752,-0.275753,-0.9575899999999999,-0.083514,0.721526,-0.653683,1.120465,0.280498,-0.169211,-0.150343
42,-1.334666,1.258605,-2.45265,-0.29861,-0.9516629999999999,-0.071851,0.311929,0.10929200000000001,1.149741,0.22046999999999997,0.819384,-0.185061
43,-1.317626,1.240998,-2.459572,-0.313517,-0.946108,-0.081114,-0.694509,0.675312,0.6014649999999999,0.275996,0.906603,-0.16256900000000002
44,-1.254149,1.229927,-2.511187,-0.317676,-0.942464,-0.104094,-0.9928239999999999,0.764563,0.11963499999999999,0.279819,0.814489,-0.140032
45,-1.1957389999999999,1.227991,-2.558004,-0.312756,-0.941815,-0.12312999999999999,-0.614544,0.6543939999999999,-0.362554,0.160427,0.522595,0.034598000000000004
46,-1.155035,1.23986,-2.591457,-0.297238,-0.945738,-0.13122999999999999,-0.075421,0.326991,-1.004643,0.129834,0.24317800000000003,0.176122
47,-1.130431,1.2654040000000002,-2.614692,-0.271972,-0.953729,-0.128161,0.34978000000000004,0.002426,-1.458456,0.091003,0.078317,0.397417
48,-1.111474,1.296349,-2.634442,-0.242914,-0.962575,-0.120146,0.415275,0.060924,-1.492256,0.026285000000000003,-0.271663,0.411467
49,-1.089681,1.3225,-2.6513240000000002,-0.217842,-0.969332,-0.11372,0.39799,0.430021,-1.0730389999999999,-0.002845,-0.8763709999999999,0.598873
50,-1.077505,1.3391870000000001,-2.65037,-0.202164,-0.973298,-0.108688,0.316103,0.782903,-0.538884,-0.417542,-1.392104,0.437057
51,-1.040282,1.339772,-2.6673310000000003,-0.19748800000000002,-0.973432,-0.115848,-0.38579600000000003,1.047727,0.17585599999999998,-0.42221800000000004,-1.3919700000000002,0.44421700000000003
52,-1.0460909999999999,1.331083,-2.656628,-0.20546999999999999,-0.971406,-0.118931,0.087039,-0.272859,0.47568,-0.0015609999999999999,-0.334548,-0.312908
53,-1.089172,1.3249090000000001,-2.622677,-0.215714,-0.969922,-0.112749,0.201527,-0.43836899999999995,0.474555,-0.046158,0.30706500000000003,-0.315184
54,-1.116143,1.3175940000000002,-2.598851,-0.225044,-0.968115,-0.110003,0.056073000000000005,-0.065987,0.450629,0.050743,0.5294399999999999,-0.26501199999999997
55,-1.139076,1.309519,-2.5718259999999997,-0.234602,-0.9660610000000001,-0.108082,0.214048,0.297346,0.561294,0.093977,0.6044579999999999,-0.028102999999999996
56,-1.165701,1.300452,-2.53403,-0.245437,-0.9636790000000001,-0.105246,0.257738,0.594154,0.627488,-0.074067,0.465846,-0.04722
57,-1.175604,1.290966,-2.510307,-0.254892,-0.961102,-0.106325,0.016246,0.6231949999999999,0.500782,-0.224829,0.19984100000000002,0.016619
58,-1.172787,1.2833649999999999,-2.5044939999999998,-0.261318,-0.958975,-0.10987100000000001,-0.09337899999999999,0.279095,0.33381500000000003,-0.218205,-0.09587999999999999,0.09941900000000001
59,-1.176027,1.277635,-2.4998,-0.266741,-0.957335,-0.111135,-0.008167,-0.068164,0.254739,-0.127607,-0.171785,0.173605
60,-1.185916,1.275709,-2.4949790000000003,-0.26953499999999997,-0.956777,-0.10918399999999999,0.032057999999999996,-0.38052199999999997,0.011865,-0.028622,-0.099437,0.23297800000000002
61,-1.192315,1.2783360000000001,-2.499721,-0.267891,-0.9575370000000001,-0.106528,-0.05865,-0.621074,-0.22560500000000003,0.144677,-0.016919,0.289572
62,-1.188182,1.282129,-2.517275,-0.26407800000000003,-0.958624,-0.106277,-0.223865,-0.6256689999999999,-0.26521,0.184885,0.130896,0.211288
63,-1.182,1.283693,-2.5366150000000003,-0.262029,-0.959068,-0.10734,-0.179756,-0.621143,-0.10360599999999999,0.176046,0.247795,0.156244
64,-1.1939389999999999,1.283606,-2.537272,-0.263369,-0.959043,-0.104234,0.10120499999999999,-0.628046,0.046848,0.276461,0.568724,0.064592
65,-1.2242709999999999,1.28304,-2.518106,-0.26692,-0.958883,-0.096384,0.30044499999999996,-0.569561,0.166738,0.370573,0.6813100000000001,-0.031058
66,-1.2579930000000001,1.281097,-2.49296,-0.271789,-0.9583299999999999,-0.087902,0.288002,-0.410046,0.246563,0.38035599999999997,0.658067,-0.065738
67,-1.28559,1.275773,-2.467396,-0.279004,-0.9567950000000001,-0.081804,0.296654,0.042968,0.437255,0.087002,0.20969400000000002,0.074129
68,-1.307548,1.2679639999999999,-2.435486,-0.287938,-0.9544959999999999,-0.0776,0.28974099999999997,0.69897,0.495118,-0.17988099999999999,-0.717639,-0.050086
69,-1.276348,1.259002,-2.4452130000000003,-0.293553,-0.951785,-0.089024,-0.6142920000000001,1.138578,0.30130100000000004,-0.355586,-1.180677,-0.345394
70,-1.225252,1.250135,-2.485856,-0.296553,-0.9490270000000001,-0.10675499999999999,-0.658567,0.242035,0.234843,-0.45254700000000003,-1.582375,-0.29484099999999996
71,-1.2193559999999999,1.242796,-2.497693,-0.302451,-0.946688,-0.11089700000000001,-0.066987,-0.553808,0.275246,-0.158914,-0.667371,0.084392
72,-1.267313,1.2402360000000001,-2.468684,-0.309729,-0.9458610000000001,-0.09699400000000001,0.717299,-1.234076,0.283733,0.072242,0.142073,0.066965
73,-1.355966,1.241399,-2.3975400000000002,-0.31602399999999997,-0.9462379999999999,-0.06895599999999999,1.224302,-0.831606,0.161776,0.070434,0.51478,-0.027724000000000002
74,-1.4099700000000002,1.24518,-2.349395,-0.315752,-0.9474540000000001,-0.051224,0.423996,-0.227798,-0.158645,-0.045545,0.53713,-0.207855
75,-1.3927450000000001,1.249641,-2.368839,-0.31066,-0.9488709999999999,-0.055904999999999996,-0.662358,0.023798,-0.329993,-0.05285,0.49795900000000004,-0.288821
76,-1.317892,1.2526709999999999,-2.444766,-0.302825,-0.949823,-0.078262,-1.33856,0.219324,-0.421493,0.035949,0.46435,-0.22360300000000002
77,-1.223884,1.252926,-2.5354229999999998,-0.293914,-0.949903,-0.10626,-1.2722200000000001,0.50881,-0.411787,0.154067,0.531721,-0.16583499999999998
78,-1.156045,1.253067,-2.594211,-0.28591300000000003,-0.949947,-0.125885,-0.5169100000000001,0.5952689999999999,-0.31048200000000004,0.171258,0.564022,-0.177857
79,-1.146592,1.25957,-2.594502,-0.279074,-0.951959,-0.12603699999999998,0.492354,0.36586799999999997,-0.294592,0.146353,0.38059299999999996,-0.103745
80,-1.193223,1.273592,-2.542529,-0.27220900000000003,-0.956159,-0.10795899999999999,1.280518,-0.03063,-0.39112800000000003,0.200523,0.097562,0.181323
81,-1.289287,1.293487,-2.447965,-0.262979,-0.9617959999999999,-0.07605,1.6905459999999999,-0.36055,-0.558757,0.304223,-0.199749,0.477799
82,-1.39673,1.312452,-2.344431,-0.251602,-0.966814,-0.044243,1.360269,-0.348384,-0.65081,0.268921,-0.24917399999999998,0.57296
83,-1.443129,1.328187,-2.299665,-0.238263,-0.970714,-0.030585,0.151073,-0.017981,-0.709886,0.034269,0.033901,0.296484
84,-1.374258,1.339842,-2.365464,-0.224483,-0.973448,-0.044696,-1.059287,0.392977,-0.666524,-0.039678,0.048445,0.133701
85,-1.268016,1.347129,-2.465786,-0.2117,-0.9750909999999999,-0.06613200000000001,-0.775774,0.362034,-0.633526,-0.118302,0.002389,0.134903
86,-1.208597,1.3557709999999998,-2.519542,-0.199511,-0.9769709999999999,-0.075598,-0.258811,0.37785,-0.508158,-0.6386229999999999,-0.8616209999999999,-0.241403
87,-1.1886780000000001,1.361412,-2.536076,-0.192848,-0.978159,-0.0775,0.11695799999999999,-0.060062,-0.280645,-0.347008,-0.616171,-0.095962
88,-1.2378280000000002,1.3649040000000001,-2.488653,-0.193194,-0.978879,-0.066815,0.694505,-0.007417,0.171975,-0.11758099999999999,-0.089923,-0.106647
89,-1.301309,1.364862,-2.417802,-0.19708299999999998,-0.97887,-0.054436,0.63949,0.40580900000000003,0.24476799999999999,0.178788,0.032337,-0.251473
90,-1.355248,1.359747,-2.353905,-0.20462,-0.9778120000000001,-0.044801,0.573141,0.396419,0.51885,0.23767,0.10575699999999999,-0.22360100000000002
91,-1.41133,1.3480370000000002,-2.291182,-0.218099,-0.975292,-0.035077,0.516521,0.161224,0.776197,0.10512300000000001,0.180492,-0.163302
92,-1.444766,1.334095,-2.256677,-0.232619,-0.972117,-0.029473000000000003,0.106151,-0.071383,0.693512,-0.047257,0.084986,-0.05124600000000001
93,-1.431813,1.323208,-2.273814,-0.242686,-0.969506,-0.033948,-0.499295,-0.24810100000000002,0.390407,-0.0873,0.058114,0.096402
94,-1.390881,1.3166120000000001,-2.323969,-0.247381,-0.9678690000000001,-0.044994,-0.683924,-0.495787,0.153358,-0.069453,0.141315,0.359417
95,-1.368783,1.313483,-2.363004,-0.24929099999999998,-0.9670770000000001,-0.051057,-0.381287,-0.958586,0.008651,-0.029442000000000003,0.280783,0.46663000000000004
96,-1.381721,1.3137459999999999,-2.374139,-0.249681,-0.967144,-0.047779,-0.0026920000000000004,-1.294142,-0.054505,0.019716,0.36533699999999997,0.41824700000000004
97,-1.416925,1.314549,-2.363501,-0.25044,-0.967348,-0.038843,0.205729,-1.133256,0.023657,0.22421,0.604067,0.097635
98,-1.446717,1.312151,-2.348302,-0.253786,-0.9667370000000001,-0.031652,0.10207100000000001,-0.49241999999999997,0.228278,0.36856300000000003,0.766466,-0.069636
99,-1.43869,1.305862,-2.3573419999999996,-0.25954699999999997,-0.96511,-0.034489,-0.32518600000000003,0.176722,0.294939,0.457682,0.813071,-0.142773
100,-1.393658,1.299464,-2.395963,-0.263804,-0.9634149999999999,-0.047225,-0.658647,0.444507,0.217491,0.349009,0.670141,-0.137224
101,-1.353392,1.294071,-2.4326659999999998,-0.26676,-0.9619549999999999,-0.058926,-0.36190300000000003,0.14663800000000002,0.124874,0.272223,0.015178,0.231244
102,-1.332682,1.2916239999999999,-2.442377,-0.26777,-0.961284,-0.064993,-0.232641,1.134758,0.126647,-0.107169,-0.525746,0.11183699999999999
103,-1.247377,1.283323,-2.488836,-0.268815,-0.9589629999999999,-0.09010399999999999,-0.913708,2.0190930000000002,0.145326,-0.8032060000000001,-1.4311120000000002,-0.57524
104,-1.1890020000000001,1.27661,-2.522722,-0.26907,-0.9570379999999999,-0.10803,-0.28015500000000004,0.8024279999999999,0.158788,-0.6382329999999999,-1.458397,-0.485933
105,-1.197861,1.276645,-2.513871,-0.269984,-0.9570489999999999,-0.10563,0.306958,-0.474102,-0.00105,-0.394216,-1.3109870000000001,-0.337241
106,-1.246982,1.2772780000000001,-2.484054,-0.274271,-0.957232,-0.092053,0.44352700000000006,-1.207287,0.215556,0.184015,-0.297926,0.044385
107,-1.304591,1.273067,-2.4406369999999997,-0.283002,-0.9560049999999999,-0.077168,0.5207149999999999,-0.43393400000000004,0.427716,0.054883,0.19778099999999998,-0.04504
108,-1.311044,1.265082,-2.4319830000000002,-0.290862,-0.9536319999999999,-0.077298,-0.349709,0.310544,0.42068199999999994,0.07270700000000001,0.37833,-0.10772999999999999
109,-1.250923,1.25429,-2.486465,-0.295446,-0.9503290000000001,-0.097866,-1.261217,0.446834,0.16204000000000002,-0.029536,0.660335,-0.165608
110,-1.163337,1.243655,-2.567013,-0.295016,-0.946965,-0.127333,-1.319456,0.625568,0.004376,-0.086088,0.662663,-0.069734
111,-1.097162,1.236675,-2.622251,-0.29182600000000003,-0.944699,-0.149574,-0.713467,0.7474890000000001,-0.107984,-0.033415,0.699963,-0.012825
112,-1.058249,1.2380149999999999,-2.645036,-0.284682,-0.9451370000000001,-0.160193,-0.040589,0.9080360000000001,-0.347044,0.07852100000000001,0.508492,-0.041497000000000006
113,-1.046889,1.252887,-2.640504,-0.270642,-0.949891,-0.156366,0.715603,0.658941,-0.780482,0.23785100000000003,0.235627,0.144663
114,-1.0576020000000002,1.280621,-2.61923,-0.24924699999999997,-0.9581940000000001,-0.140466,1.04049,0.382445,-1.1805780000000001,0.293055,-0.032833999999999995,0.308481
115,-1.068933,1.311269,-2.603282,-0.22496100000000002,-0.966511,-0.12344200000000001,0.819456,0.091377,-1.193499,0.30449,-0.230098,0.423933
116,-1.063915,1.331603,-2.607469,-0.20711100000000002,-0.9715290000000001,-0.115003,0.194203,0.062948,-0.73529,0.21156599999999998,-0.21896100000000002,0.476499
117,-1.019536,1.336602,-2.645896,-0.197665,-0.9727020000000001,-0.12153199999999999,-0.534296,0.592962,-0.24753899999999998,0.11847200000000001,-0.303604,0.306927
118,-0.9620799999999999,1.32851,-2.6882330000000003,-0.196812,-0.970792,-0.13718,-0.6161399999999999,0.8620629999999999,0.19272,-0.190181,-0.7415039999999999,0.217121
119,-0.9124479999999999,1.3195459999999999,-2.717966,-0.196641,-0.9686020000000001,-0.152094,-0.566655,1.0457,0.047552,-0.684874,-1.141856,-0.260427
120,-0.909008,1.3195649999999999,-2.729732,-0.196102,-0.968607,-0.152758,0.297216,-1.265339,-0.054548,-0.27164099999999997,-0.549719,-0.094434
121,-0.987555,1.324824,-2.672559,-0.203228,-0.969901,-0.13409200000000002,0.825061,-0.7900659999999999,0.24656399999999998,-0.161304,0.21166100000000002,-0.067415
122,-1.045564,1.326075,-2.618773,-0.20961100000000002,-0.9702049999999999,-0.121476,0.394485,-0.10298199999999999,0.35804400000000003,0.070008,0.40859,-0.193206
123,-1.073222,1.318314,-2.5882810000000003,-0.21950100000000003,-0.9682950000000001,-0.119224,0.042520999999999996,0.184809,0.621204,0.17311400000000002,0.453189,-0.20360699999999998
124,-1.0970209999999998,1.30522,-2.5584029999999998,-0.233539,-0.964942,-0.11974100000000001,0.029431,0.311919,0.81323,0.047687,0.34392399999999995,-0.099482
125,-1.112608,1.290247,-2.5344330000000004,-0.248309,-0.9609030000000001,-0.122465,-0.11425999999999999,0.361526,0.786525,-0.19914,0.13453299999999999,-0.054339
126,-1.113126,1.276378,-2.528747,-0.260303,-0.9569709999999999,-0.12821300000000002,-0.291196,0.17873699999999998,0.5644020000000001,-0.281017,-0.084121,0.01484
127,-1.106423,1.26711,-2.5343080000000002,-0.267358,-0.954241,-0.133922,-0.24373699999999998,-0.005582,0.263731,-0.26932399999999995,-0.0222,0.181972
128,-1.102258,1.264532,-2.541723,-0.268992,-0.953467,-0.13614500000000002,-0.123826,-0.22737399999999997,-0.052409000000000004,-0.218404,0.062338,0.316641
129,-1.091341,1.266913,-2.55978,-0.265475,-0.954182,-0.138025,-0.254494,-0.355864,-0.307394,-0.191831,0.069508,0.33161399999999996
130,-1.070548,1.2703440000000001,-2.590893,-0.25967399999999996,-0.955203,-0.14194400000000001,-0.320023,-0.5279189999999999,-0.380271,-0.046448,0.22899099999999997,0.11855299999999999
131,-1.0692030000000001,1.2749620000000002,-2.607222,-0.25561300000000003,-0.956559,-0.140171,0.068665,-0.8024859999999999,-0.25329,0.140165,0.425569,0.063954
132,-1.10051,1.281097,-2.591482,-0.25463800000000003,-0.9583299999999999,-0.129439,0.5002310000000001,-0.798086,-0.129572,0.272399,0.521562,0.11964300000000001
133,-1.152943,1.2881879999999999,-2.548184,-0.254855,-0.9603309999999999,-0.11315599999999999,0.791981,-0.334052,-0.009556,0.506671,0.634205,-0.011341
134,-1.202066,1.29254,-2.499302,-0.256201,-0.9615360000000001,-0.098997,0.5858770000000001,-0.033355,0.096509,0.385794,0.5021399999999999,-0.090441
135,-1.2251020000000001,1.291982,-2.4735970000000003,-0.258918,-0.961383,-0.093251,0.171725,0.22562100000000002,0.160583,0.151755,0.174075,-0.015132
136,-1.210904,1.288466,-2.474527,-0.260731,-0.9604090000000001,-0.098108,-0.22949,0.9258299999999999,0.161156,-0.12876500000000002,-0.45336400000000004,0.096536
137,-1.144672,1.2810139999999999,-2.515934,-0.260175,-0.958306,-0.118103,-0.967088,1.4656559999999998,0.068786,-0.442751,-1.3002690000000001,-0.188842
138,-1.070858,1.272281,-2.5726430000000002,-0.25809299999999996,-0.955774,-0.140976,-0.705437,0.5847859999999999,0.080288,-0.549708,-1.72933,-0.328979
139,-1.074454,1.265264,-2.566433,-0.264489,-0.9536870000000001,-0.14323699999999998,0.250055,-0.073128,0.476638,-0.279777,-1.261584,-0.09904199999999999
140,-1.138973,1.260414,-2.505913,-0.277371,-0.952217,-0.127821,1.004436,-0.520962,0.726036,-0.114185,-0.336708,-0.043443999999999997
141,-1.251191,1.257728,-2.400011,-0.292367,-0.951393,-0.096759,1.6484299999999998,-0.465315,0.6375270000000001,-0.030860000000000002,0.268181,0.054401
142,-1.349609,1.2585879999999998,-2.299684,-0.299661,-0.951658,-0.067384,1.287685,0.019198,0.198552,-0.038962000000000004,0.498472,0.044373
143,-1.3896700000000002,1.262375,-2.253161,-0.29857100000000003,-0.9528139999999999,-0.054678,0.360483,0.333958,-0.188615,-0.07092000000000001,0.540247,-0.073785
144,-1.3543040000000002,1.2686709999999999,-2.277028,-0.290586,-0.9547059999999999,-0.063911,-0.648542,0.82436,-0.47296099999999996,-0.051226,0.5462130000000001,-0.13665
145,-1.261415,1.2736040000000002,-2.350527,-0.278916,-0.9561620000000001,-0.089154,-1.0740049999999999,1.305395,-0.519278,0.077546,0.68187,-0.135547
146,-1.169606,1.276853,-2.417909,-0.266707,-0.957109,-0.11313599999999999,-0.655809,1.3272629999999999,-0.489679,0.18853599999999998,0.8582620000000001,-0.16555
147,-1.120749,1.284192,-2.4452849999999997,-0.254531,-0.959209,-0.122967,0.06498999999999999,1.007255,-0.475688,0.22842300000000001,0.798977,-0.158725
148,-1.120279,1.295934,-2.428465,-0.244315,-0.962463,-0.118174,0.684403,0.7385010000000001,-0.403719,0.165382,0.558562,-0.090429
149,-1.1591850000000001,1.310107,-2.376341,-0.23620100000000002,-0.9662120000000001,-0.10311300000000001,1.01563,0.467451,-0.307055,0.089289,0.18053699999999998,-0.046667
150,-1.216651,1.320446,-2.309752,-0.23234899999999997,-0.9688260000000001,-0.08590700000000001,0.8836459999999999,0.301827,-0.066347,0.069537,-0.13649,0.000977
151,-1.2596559999999999,1.322496,-2.258801,-0.233936,-0.969332,-0.07522999999999999,0.47826,0.341568,0.20316800000000002,0.19791,-0.24859499999999998,0.246022
152,-1.278809,1.32005,-2.2308380000000003,-0.237603,-0.968728,-0.071418,0.154672,0.4728,0.16655599999999998,0.25199299999999997,-0.247306,0.373359
153,-1.242022,1.3196700000000001,-2.253904,-0.235166,-0.968633,-0.080228,-0.525817,0.8261950000000001,-0.239233,0.09614299999999999,-0.39029899999999995,0.174039
154,-1.169339,1.323593,-2.316818,-0.22521799999999997,-0.9696,-0.095608,-0.617272,0.329276,-0.56718,-0.126817,-0.31876,0.173184
155,-1.124794,1.334098,-2.361377,-0.211535,-0.972117,-0.101142,0.005201,-0.007629,-0.770703,-0.375272,-0.09975099999999999,0.330985
156,-1.110942,1.351588,-2.373768,-0.19484500000000002,-0.9760700000000001,-0.0965,0.236139,0.22744,-0.8815540000000001,-0.53776,-0.18901500000000002,0.344639
157,-1.058634,1.364775,-2.419947,-0.178296,-0.9788530000000001,-0.100238,-0.292433,0.32011,-0.6877439999999999,-0.47119399999999995,-0.707015,0.006519
158,-1.021336,1.366488,-2.451811,-0.173003,-0.979202,-0.10594100000000001,-0.17578,0.41375500000000004,0.037239999999999995,-0.113068,-0.801255,-0.093797
159,-0.9974879999999999,1.360025,-2.463875,-0.175742,-0.9778700000000001,-0.11346700000000001,-0.406136,0.625777,0.228708,-0.102151,-0.735189,-0.225156
160,-0.9617100000000001,1.347808,-2.4907779999999997,-0.181356,-0.975241,-0.12650699999999998,-0.616408,0.368816,0.46791800000000006,0.05248,-0.217996,-0.44270699999999996
161,-0.9648049999999999,1.332279,-2.483685,-0.194174,-0.9716889999999999,-0.13455699999999998,-0.182698,0.112429,0.804561,0.12875999999999999,0.072184,-0.310023
162,-1.0110379999999999,1.319061,-2.436241,-0.21105300000000002,-0.968482,-0.132248,0.266248,-0.10459600000000001,0.875273,0.029976999999999997,0.314459,-0.141052
163,-1.07712,1.309873,-2.373696,-0.22715100000000002,-0.966152,-0.122235,0.5538310000000001,-0.367027,0.719522,-0.000891,0.529125,-0.002918
164,-1.146915,1.3061129999999999,-2.3105990000000003,-0.238431,-0.965175,-0.107589,0.67645,-0.45038500000000004,0.413905,-0.010607,0.6403770000000001,0.09153700000000001
165,-1.2003489999999999,1.30666,-2.263024,-0.24334499999999998,-0.965318,-0.09451,0.4885,-0.330216,0.09624500000000001,-0.069995,0.577425,0.114407
166,-1.2220309999999999,1.311099,-2.245926,-0.24130700000000002,-0.966468,-0.087747,0.174846,-0.225356,-0.279958,-0.17336600000000002,0.433051,0.054345000000000004
167,-1.218011,1.321252,-2.255092,-0.231731,-0.969025,-0.08532100000000001,0.018346,-0.27873600000000004,-0.647383,-0.215993,0.304169,-0.03588
168,-1.1978799999999998,1.336444,-2.284453,-0.216229,-0.972665,-0.084594,-0.122269,-0.517843,-0.9364790000000001,-0.218219,0.18187799999999998,-0.096971
169,-1.153766,1.353918,-2.342984,-0.196715,-0.9765739999999999,-0.087148,-0.352697,-0.6995180000000001,-1.124794,-0.17030399999999998,0.168972,-0.085398
170,-1.081964,1.371251,-2.430243,-0.174982,-0.980157,-0.093071,-0.45246899999999995,-0.636112,-1.176847,-0.14974,0.213342,-0.019508
171,-0.993812,1.386351,-2.52904,-0.153684,-0.983038,-0.10002799999999999,-0.409735,-0.296796,-1.087253,-0.278476,0.28618499999999997,0.038275
172,-0.8978389999999999,1.39834,-2.627121,-0.134163,-0.985166,-0.106939,-0.31037600000000004,0.123031,-0.934341,-0.483284,0.304502,-0.011714
173,-0.816951,1.408312,-2.702932,-0.117915,-0.986828,-0.110699,-0.037014,0.411948,-0.695657,-0.603582,0.30196799999999996,-0.068378
174,-0.7792979999999999,1.417629,-2.728463,-0.107196,-0.988293,-0.108511,0.295919,0.7779560000000001,-0.340219,-0.5987680000000001,0.273403,-0.074624
175,-0.772062,1.425685,-2.713152,-0.10084800000000001,-0.98949,-0.103574,0.38177300000000003,1.344574,-0.12136,-0.534223,0.363284,-0.09331
176,-0.773017,1.431019,-2.677366,-0.09726,-0.990247,-0.099699,0.348436,1.918239,0.036838,-0.52832,0.447065,-0.147738
177,-0.760027,1.4363139999999999,-2.647129,-0.09234099999999999,-0.9909709999999999,-0.09715,0.418412,2.1624790000000003,-0.096514,-0.372365,0.30251,-0.035754
178,-0.789813,1.448766,-2.57545,-0.08642000000000001,-0.9925639999999999,-0.085661,0.953843,2.0352900000000003,-0.188751,-0.18895499999999998,-0.179556,0.288038
179,-0.9182620000000001,1.471735,-2.414972,-0.078534,-0.9950969999999999,-0.060016,1.6410349999999998,1.250313,-0.284427,0.376171,-0.882451,0.964832
180,-1.147883,1.4905540000000002,-2.163698,-0.073027,-0.996782,-0.032867,1.1304040000000002,0.913257,-0.0012779999999999998,0.502135,-0.951307,0.831406
181,-1.3038450000000001,1.4726620000000001,-1.986643,-0.094448,-0.995189,-0.025829,-0.034000999999999997,1.2093459999999998,1.819005,0.665569,-0.8665209999999999,0.647473
182,-1.271043,1.418144,-1.990751,-0.145243,-0.9883709999999999,-0.04489,-1.220416,1.5776860000000001,2.90731,0.465541,-0.773271,0.163801
183,-1.180981,1.352244,-2.0439130000000003,-0.200527,-0.9762120000000001,-0.082384,-1.514799,2.066623,2.902491,0.340618,-0.9925379999999999,-0.192823
184,-1.166008,1.297179,-2.011192,-0.24836100000000003,-0.9628,-0.10640999999999999,-0.337013,2.53313,2.435829,-0.370216,-1.127075,-0.177495
185,-1.1617549999999999,1.263435,-1.9692,-0.277569,-0.9531350000000001,-0.120324,-0.037738,1.8078029999999998,1.347126,-0.979557,-0.649389,0.134545
186,-1.159132,1.248041,-1.9486740000000002,-0.290667,-0.948365,-0.126908,-0.030114,0.923148,0.661447,-0.651594,-0.170531,0.340409
187,-1.139382,1.239671,-1.9459119999999999,-0.29530500000000004,-0.945677,-0.135939,-0.199436,1.256843,0.210115,-0.429274,0.187346,0.144697
188,-1.095019,1.239348,-1.957416,-0.28925700000000004,-0.945572,-0.149041,-0.058849,2.0046630000000003,-0.176558,-0.198933,0.5355840000000001,-0.043815
189,-1.05941,1.25017,-1.9442270000000001,-0.274827,-0.9490379999999999,-0.154228,0.797375,2.528137,-0.49171400000000004,-0.155883,0.5861689999999999,-0.026101
190,-1.066782,1.273117,-1.881739,-0.256814,-0.9560200000000001,-0.14163900000000001,1.704994,2.6667799999999997,-0.518667,-0.09716,0.44022700000000003,0.150535
191,-1.118012,1.299359,-1.7710709999999998,-0.24108000000000002,-0.9633860000000001,-0.11728399999999999,2.0592650000000003,2.789744,-0.40739200000000003,0.014303,0.1567,0.351155
192,-1.1746450000000002,1.320932,-1.650914,-0.22809899999999997,-0.9689459999999999,-0.09540599999999999,1.6251639999999998,3.145627,-0.317945,0.087871,0.10775499999999999,0.359352
193,-1.1750479999999999,1.3335569999999999,-1.578091,-0.21683200000000002,-0.9719899999999999,-0.09059,0.697801,3.705446,-0.184134,0.155995,0.091375,0.332259
194,-1.1130229999999999,1.337424,-1.561202,-0.207425,-0.972892,-0.10219400000000001,0.056197000000000004,3.963967,-0.07571599999999999,0.225583,0.348014,-0.011454
195,-1.027552,1.339116,-1.573521,-0.196534,-0.973282,-0.118677,-0.11954200000000001,3.398485,-0.234315,0.21959,0.456284,-0.038733
196,-0.9459850000000001,1.345518,-1.5975549999999998,-0.181154,-0.9747319999999999,-0.13064800000000001,0.014869,2.632176,-0.522951,0.252229,0.534928,-0.051878
197,-0.8774190000000001,1.356833,-1.621839,-0.16328299999999998,-0.977197,-0.135693,0.20022,2.047943,-0.567909,0.22341799999999998,0.282403,0.037838
198,-0.8293159999999999,1.36473,-1.630973,-0.150872,-0.978843,-0.13817000000000002,0.11948900000000001,1.9829729999999999,-0.235105,0.136544,0.092445,-0.066938
199,-0.772033,1.363204,-1.647057,-0.143757,-0.9785299999999999,-0.147652,-0.349621,2.083671,0.030681,-0.084896,-0.22223,-0.317878
200,-0.7185819999999999,1.355632,-1.6625150000000002,-0.14053800000000002,-0.976941,-0.160696,-0.296191,1.7792720000000002,0.183132,-0.158549,-0.171923,-0.292689
201,-0.716079,1.355092,-1.634239,-0.140482,-0.976826,-0.161445,0.5165529999999999,1.354187,0.28763,-0.18839,0.014422999999999998,-0.14193
202,-0.781243,1.365736,-1.5439610000000001,-0.14336500000000002,-0.979049,-0.144562,1.2582959999999999,0.989193,0.34455399999999997,-0.219977,0.156814,-0.0
203,-0.8528190000000001,1.375651,-1.457014,-0.146017,-0.9810190000000001,-0.127546,0.62241,0.5373829999999999,0.130251,-0.28107600000000005,0.197786,0.100385
204,-0.8276319999999999,1.3752950000000002,-1.471876,-0.143016,-0.98095,-0.131419,-0.599665,0.584475,-0.196675,-0.275776,-0.261496,0.151332
205,-0.703976,1.35836,-1.581715,-0.136452,-0.9775200000000001,-0.1607,-1.7809700000000002,1.046482,-0.157449,-0.595787,-0.721653,0.14690599999999998
206,-0.583808,1.327942,-1.676507,-0.13253900000000002,-0.9706549999999999,-0.200627,-1.585351,1.3920270000000001,0.10625699999999999,-0.412657,-0.46753100000000003,0.554006
207,-0.531755,1.32959,-1.7044569999999999,-0.12111,-0.971051,-0.20587199999999997,0.93504,1.048246,-0.555086,-0.243819,-0.7075229999999999,0.771775
208,-0.5469579999999999,1.372225,-1.6671479999999999,-0.102584,-0.980349,-0.168466,2.317262,1.249708,-0.718742,-0.33465700000000004,-0.586911,0.64718
209,-0.596592,1.408406,-1.583591,-0.090816,-0.986844,-0.133721,1.6172540000000002,1.8451650000000002,-0.099457,-0.208378,0.035046,0.536996
210,-0.705238,1.4293930000000001,-1.433167,-0.091329,-0.9900190000000001,-0.10728399999999999,1.651677,2.041801,0.5126229999999999,-0.20952800000000002,0.520491,0.306686
211,-0.9711540000000001,1.445783,-1.12163,-0.102895,-0.992196,-0.07034,2.287946,2.275604,0.899191,-0.200328,0.42226499999999995,0.10438199999999999
212,-1.325892,1.4485709999999998,-0.715543,-0.11823399999999999,-0.99254,-0.029549000000000002,2.235591,2.452795,0.8558690000000001,0.081078,0.237657,0.15473199999999998
213,-1.568294,1.4389100000000001,-0.422569,-0.131455,-0.991316,-0.00032900000000000003,1.441627,2.366141,0.570561,0.218704,0.183088,0.14948399999999998
214,-1.649213,1.432709,-0.295617,-0.137178,-0.990481,0.010779,0.5680649999999999,2.194197,0.10534400000000001,0.377168,-0.002393,0.135278
215,-1.644665,1.4332280000000002,-0.254864,-0.136713,-0.9905520000000001,0.010117000000000001,0.15443199999999999,2.305093,-0.095309,0.299112,-0.013201,0.07199
216,-1.6056110000000001,1.434408,-0.247587,-0.13583499999999998,-0.990714,0.004731,-0.0018620000000000002,2.262724,-0.020503,0.24449200000000001,0.012274,0.055785
217,-1.563636,1.432707,-0.248744,-0.137599,-0.990481,-0.000985,0.02125,1.879518,0.152134,0.043742,0.203829,0.028329000000000003
218,-1.5598040000000002,1.4272209999999999,-0.222516,-0.143027,-0.989711,-0.001572,0.298062,1.234338,0.350379,-0.076959,0.278621,0.02356
219,-1.610351,1.417869,-0.155504,-0.152168,-0.9883290000000001,0.006022,0.613075,0.519875,0.525478,-0.171868,0.24063299999999999,0.09941599999999999
220,-1.692375,1.404933,-0.06843300000000001,-0.16384300000000002,-0.986276,0.020019,0.7888729999999999,0.066221,0.600995,-0.274328,0.142755,0.197434
221,-1.7654619999999999,1.3928049999999998,0.0074140000000000005,-0.17366900000000002,-0.984201,0.034241,0.662211,0.165491,0.394884,-0.28949600000000003,0.111154,0.138016
222,-1.798841,1.38764,0.050338,-0.177378,-0.983274,0.041166,0.27422399999999997,0.606089,0.039096,-0.22920700000000002,0.199689,-0.0009140000000000001
223,-1.7862619999999998,1.390944,0.052911,-0.174707,-0.98387,0.038237,-0.172638,0.805977,-0.276202,-0.140509,0.341582,-0.122984
224,-1.7435669999999999,1.4009340000000001,0.02582,-0.166486,-0.985608,0.029054000000000003,-0.383994,0.7852819999999999,-0.511592,-0.085391,0.341885,-0.17968800000000001
225,-1.691945,1.41206,-0.01039,-0.156865,-0.9874280000000001,0.019097,-0.34667800000000004,0.809533,-0.48145299999999996,-0.09959,0.179673,-0.206475
226,-1.6465189999999998,1.4203059999999998,-0.041151,-0.149443,-0.988698,0.011337999999999999,-0.221045,0.6678609999999999,-0.32656999999999997,-0.204866,0.023366,-0.21515
227,-1.63796,1.4266379999999999,-0.040993,-0.143282,-0.989627,0.009637999999999999,0.12096099999999999,0.31093000000000004,-0.34081500000000003,-0.281981,0.033161,-0.087534
228,-1.6773259999999999,1.435302,0.004717,-0.134256,-0.990835,0.014357,0.32365700000000003,0.361034,-0.525334,-0.32547600000000004,0.019597999999999997,-0.03134
229,-1.71406,1.444508,0.054638,-0.124601,-0.992036,0.017974,0.204746,0.823393,-0.42954899999999996,-0.432986,-0.059462,-0.058714999999999996
230,-1.7207560000000002,1.448204,0.081466,-0.120853,-0.9924950000000001,0.01826,0.12950899999999999,1.0565799999999999,-0.07145,-0.543744,-0.074033,-0.028544999999999997
231,-1.718951,1.446274,0.101034,-0.12278,-0.992257,0.018325,0.14216099999999998,1.01407,0.15836,-0.478416,-0.308051,0.006211
232,-1.7406150000000002,1.437981,0.141521,-0.13046300000000002,-0.991193,0.022371000000000002,0.469808,0.9209430000000001,0.518623,-0.232895,-0.49495200000000006,0.334441
233,-1.7910650000000001,1.421742,0.21108200000000002,-0.14486300000000002,-0.9889120000000001,0.032435000000000005,0.662644,0.884067,0.7817310000000001,0.03683,-0.364237,0.546041
234,-1.802641,1.40129,0.23884,-0.16413599999999998,-0.985668,0.038751,0.260653,0.761745,1.083523,0.16601300000000002,-0.278858,0.488562
235,-1.746391,1.3755709999999999,0.196676,-0.19096300000000002,-0.9810040000000001,0.033881,-0.338649,0.739899,1.471402,0.33905,0.007370999999999999,0.32026
236,-1.655272,1.346776,0.12222899999999999,-0.221323,-0.9750120000000001,0.018741,-0.6701060000000001,1.086076,1.501758,0.25795999999999997,0.059255999999999996,0.308255
237,-1.565423,1.318317,0.061992,-0.24977,-0.9682959999999999,-0.001342,-0.593796,1.8806759999999998,1.4596129999999998,0.253768,-0.05619400000000001,0.276595
238,-1.4991889999999999,1.28741,0.039992,-0.278864,-0.9601139999999999,-0.020003,-0.185538,2.374207,1.561177,0.079874,-0.336608,0.126891
239,-1.4632889999999998,1.257509,0.050508,-0.306383,-0.951326,-0.033066000000000005,0.092659,2.170356,1.415966,-0.397764,-0.6055590000000001,0.033936
240,-1.4436209999999998,1.236133,0.063524,-0.325775,-0.9445209999999999,-0.041656,0.054203999999999995,1.145737,0.873286,-0.427063,-0.573286,0.049605
241,-1.435447,1.223331,0.065903,-0.337378,-0.9402389999999999,-0.045945,-0.133419,0.33825500000000003,0.504473,-0.355111,-0.45233900000000005,0.11772200000000001
242,-1.414312,1.221977,0.051688,-0.337589,-0.9397770000000001,-0.053263,-0.26920900000000003,0.45367700000000005,-0.268948,-0.11764100000000001,0.121051,0.173975
243,-1.392444,1.2327540000000001,0.040548,-0.326358,-0.943406,-0.058832,0.053702,0.675782,-0.6803779999999999,-0.11317200000000001,0.22694499999999998,0.172845
244,-1.389042,1.248116,0.056264,-0.311863,-0.9483889999999999,-0.057315,0.602709,1.069019,-0.661024,-0.11291099999999998,0.289087,0.155826
245,-1.410917,1.26,0.10903800000000001,-0.30189299999999997,-0.95209,-0.048681999999999996,1.0496020000000001,1.638059,-0.29543600000000003,0.032833999999999995,0.186252,0.142127
246,-1.436518,1.264869,0.17693299999999998,-0.29844299999999996,-0.9535680000000001,-0.040317,0.973612,2.1165119999999997,0.00038500000000000003,0.03767,0.15152000000000002,0.086871
247,-1.427455,1.265391,0.21661799999999998,-0.29757100000000003,-0.953725,-0.042949,0.318872,2.463797,0.033823,0.054072,0.119451,0.042705
248,-1.3645,1.266598,0.20481300000000002,-0.29315399999999997,-0.9540870000000001,-0.061349,-0.422986,2.6387680000000002,-0.188432,-0.030576,0.236161,-0.130408
249,-1.26715,1.2707620000000002,0.157972,-0.282009,-0.955326,-0.088364,-0.6534840000000001,2.5863650000000002,-0.46984899999999996,-0.003849,0.347294,-0.085236
250,-1.178512,1.2759790000000002,0.11540999999999998,-0.26847,-0.9568549999999999,-0.111074,-0.352139,2.285703,-0.401129,0.075035,0.47106099999999995,0.033956
251,-1.128081,1.280371,0.106387,-0.258731,-0.9581219999999999,-0.12266500000000001,0.171413,1.9475049999999998,-0.196213,0.050861,0.5926739999999999,0.097366
252,-1.1170870000000002,1.285815,0.131907,-0.25267399999999995,-0.959667,-0.12321300000000002,0.559934,1.741755,0.0375,0.189838,0.548732,0.163023
253,-1.123251,1.2865280000000001,0.177048,-0.252812,-0.959867,-0.121358,0.561588,1.9291189999999998,0.333169,0.17474800000000001,0.515943,0.104985
254,-1.122166,1.282928,0.21776199999999998,-0.255792,-0.958851,-0.12312999999999999,0.364271,2.038078,0.42886,0.169992,0.47418599999999994,0.009437000000000001
255,-1.11048,1.279279,0.24723499999999998,-0.25747,-0.957809,-0.127664,0.286611,1.9366889999999999,0.27676,0.189828,0.375762,-0.080481
256,-1.09899,1.280261,0.271348,-0.25514699999999996,-0.958091,-0.130186,0.376906,1.576347,0.002251,0.121556,0.200126,-0.12141600000000001
257,-1.0948930000000001,1.287104,0.293383,-0.24877800000000003,-0.9600280000000001,-0.128224,0.443929,1.0572219999999999,-0.23803400000000002,0.035857,0.023658000000000002,-0.130123
258,-1.0926790000000002,1.2965950000000002,0.305148,-0.240392,-0.962642,-0.12457599999999999,0.274346,0.46603599999999995,-0.367716,0.004705,-0.07634400000000001,-0.11485
259,-1.08219,1.302352,0.298692,-0.234175,-0.9641850000000001,-0.12448699999999999,-0.070437,0.089576,-0.230773,0.030607,-0.08581799999999999,-0.052347000000000005
260,-1.0641200000000002,1.301223,0.279997,-0.232839,-0.963885,-0.129226,-0.339835,-0.001088,0.032416,0.06957,-0.021192,-0.01857
261,-1.0401209999999999,1.292547,0.257531,-0.23687600000000003,-0.9615379999999999,-0.139005,-0.550505,0.20609899999999998,0.350078,0.05637999999999999,0.058523,-0.093448
262,-1.021166,1.277582,0.243571,-0.246443,-0.9573200000000001,-0.15097,-0.505584,0.279361,0.637649,0.095702,0.14735299999999998,-0.135224
263,-1.022924,1.26196,0.249705,-0.259445,-0.9526879999999999,-0.158309,-0.194101,0.11813299999999999,0.726557,0.21256999999999998,0.206823,0.074889
264,-1.052532,1.2525709999999999,0.277158,-0.271777,-0.949792,-0.15498299999999998,0.369989,-0.397505,0.515378,0.25653400000000004,0.26915900000000004,0.46275299999999997
265,-1.1088639999999998,1.257072,0.325196,-0.276242,-0.951191,-0.13752899999999998,0.938068,-0.458671,-0.131123,0.036343,0.35780700000000004,0.61487
266,-1.136555,1.276835,0.352923,-0.262835,-0.9571040000000001,-0.121894,0.627031,0.15864,-1.054894,-0.260892,0.112423,0.546134
267,-1.102702,1.3067360000000001,0.32658000000000004,-0.23290500000000003,-0.9653379999999999,-0.11775,0.054953999999999996,0.651126,-1.7057950000000002,-0.464742,-0.498758,0.837385
268,-0.975289,1.331322,0.22215100000000002,-0.19634200000000002,-0.971463,-0.13303399999999999,-0.760738,1.5962290000000001,-1.582381,-0.938866,-1.429798,0.510841
269,-0.885258,1.341359,0.15093900000000002,-0.176028,-0.9737950000000001,-0.143967,0.14047300000000001,0.530678,-0.43172299999999997,-0.380536,-1.5320340000000001,-0.046646
270,-0.958621,1.353855,0.223784,-0.17613199999999998,-0.97656,-0.123673,1.45885,-0.161151,0.139189,0.366684,-0.9153620000000001,-0.304397
271,-1.127865,1.365151,0.395329,-0.18446600000000002,-0.978929,-0.087505,1.918596,-0.174275,0.624185,0.47940299999999997,-0.133116,-0.45358699999999996
272,-1.310074,1.360044,0.577565,-0.202095,-0.977874,-0.053917999999999994,1.444993,-0.032382999999999995,0.9817540000000001,0.621437,0.205627,-0.380836
273,-1.389522,1.3449440000000001,0.665511,-0.22024000000000002,-0.9746040000000001,-0.040367,0.304987,0.45668000000000003,0.8791610000000001,0.218592,0.376535,-0.310875
274,-1.36781,1.3287309999999999,0.651687,-0.23476100000000003,-0.9708450000000001,-0.048319,-0.583604,0.31452199999999997,0.703289,-0.027888999999999997,0.370763,-0.11966500000000001
275,-1.329157,1.314802,0.609933,-0.24582800000000002,-0.967412,-0.060585,-0.601596,-0.388513,0.44128100000000003,-0.19200799999999998,0.285955,0.133339
276,-1.318273,1.312088,0.582493,-0.24769499999999997,-0.9667209999999999,-0.063913,-0.230777,-0.917637,-0.225225,-0.288011,0.22836399999999998,0.26629
277,-1.316041,1.322774,0.561991,-0.23754099999999997,-0.9694,-0.061859000000000004,-0.10206799999999999,-0.786129,-0.722286,-0.36890500000000004,0.110864,0.307983
278,-1.297786,1.334804,0.532859,-0.225124,-0.972283,-0.06303500000000001,-0.24676599999999999,-0.314294,-0.576487,-0.188801,0.237236,0.049012
279,-1.259168,1.338653,0.491213,-0.21895799999999999,-0.973175,-0.07053200000000001,-0.50967,-0.002908,-0.164252,-0.13001,0.26597600000000005,-0.044092
280,-1.213858,1.333097,0.444887,-0.22060100000000002,-0.971882,-0.08226499999999999,-0.594755,-0.026560000000000004,0.229358,-0.0009109999999999999,0.33412600000000003,-0.14821900000000002
281,-1.202403,1.3232899999999999,0.429012,-0.228527,-0.969526,-0.088215,-0.157441,-0.30594299999999996,0.452824,0.10625899999999999,0.47756800000000005,-0.159221
282,-1.237263,1.315982,0.45594700000000005,-0.23815300000000003,-0.9677100000000001,-0.082514,0.360268,-0.514288,0.42466000000000004,0.16336900000000001,0.550413,-0.125249
283,-1.28526,1.3152620000000002,0.493073,-0.242506,-0.967528,-0.07119,0.41895699999999997,-0.6631319999999999,0.034292,0.20175,0.695846,0.102302
284,-1.323013,1.320826,0.515063,-0.239796,-0.9689200000000001,-0.060663999999999996,0.31917,-0.9042469999999999,-0.32074600000000003,0.27679899999999996,0.6102770000000001,0.419444
285,-1.361064,1.330546,0.539161,-0.232706,-0.9712780000000001,-0.049535,0.443007,-0.504827,-0.413328,0.308741,0.62231,0.418599
286,-1.3802370000000002,1.339734,0.557294,-0.22484099999999999,-0.973424,-0.043372,0.117434,0.17486400000000002,-0.408996,0.317416,0.614751,0.219931
287,-1.335508,1.345264,0.520292,-0.21743800000000002,-0.974675,-0.052126,-0.634784,0.513652,-0.29717899999999997,0.273941,0.198674,-0.029646
288,-1.248372,1.341791,0.443934,-0.215288,-0.973893,-0.071924,-0.910734,0.749534,0.093696,0.227251,-0.144317,0.007547
289,-1.1748809999999998,1.330285,0.392461,-0.219752,-0.971216,-0.091853,-0.7157100000000001,1.511307,0.431641,-0.042745,-1.224081,-0.156026
290,-1.117891,1.3143719999999999,0.362556,-0.22803400000000001,-0.967303,-0.110971,-0.5376310000000001,0.997408,0.652528,-0.796609,-1.8268099999999998,-0.8210049999999999
291,-1.147418,1.2969389999999998,0.399161,-0.24655,-0.962735,-0.111103,0.431741,-0.021069,1.161601,-0.48477299999999995,-1.715457,-0.340527
292,-1.242753,1.282133,0.48686,-0.269472,-0.958625,-0.091712,1.068095,-0.953967,1.0721690000000001,-0.10844200000000001,-0.814751,-0.094674
293,-1.3729959999999999,1.269938,0.595672,-0.290542,-0.955083,-0.05823099999999999,1.5237100000000001,-1.3267440000000001,0.9262790000000001,0.120972,-0.079372,0.167041
294,-1.477384,1.261693,0.6898350000000001,-0.302858,-0.952607,-0.028373000000000002,1.0690549999999999,-0.24490900000000002,0.376923,-0.038771,0.403748,0.245765
295,-1.4877639999999999,1.261225,0.711751,-0.303581,-0.952464,-0.025265,-0.136811,0.8988440000000001,-0.08696,-0.08962300000000001,0.705226,-0.198459
296,-1.4118540000000002,1.264233,0.6585,-0.297962,-0.953376,-0.047762,-1.103137,1.4092770000000001,-0.356078,-0.046597,0.665565,-0.256315
297,-1.294908,1.26616,0.567441,-0.288586,-0.9539559999999999,-0.081701,-1.339559,1.5123360000000001,-0.34931599999999996,-0.022312000000000002,0.535469,-0.240473
298,-1.195336,1.263858,0.492489,-0.281078,-0.953263,-0.11078900000000001,-0.922796,1.319668,-0.21476599999999998,-0.057880999999999995,0.456635,-0.22841399999999998
299,-1.131604,1.26386,0.449597,-0.27345,-0.9532639999999999,-0.128465,-0.388166,1.0220069999999999,-0.299313,0.006848000000000001,0.43799,-0.129073
300,-1.108947,1.27054,0.441862,-0.264762,-0.955261,-0.131786,0.31971,0.600082,-0.361126,0.139915,0.39035,0.035762999999999996
301,-1.136342,1.28309,0.479925,-0.25737600000000005,-0.9588969999999999,-0.11942799999999999,1.0173450000000002,0.415177,-0.280172,0.230566,0.20699,0.154875
302,-1.206812,1.29488,0.563276,-0.25456100000000004,-0.962176,-0.096977,1.41126,0.54569,0.039674,0.287749,0.048678,0.243385
303,-1.2932549999999998,1.300006,0.666621,-0.257236,-0.9635600000000001,-0.073285,1.326915,0.7263,0.23433800000000002,0.32519899999999996,0.001829,0.24743400000000002
304,-1.352645,1.302773,0.742271,-0.25852800000000004,-0.9642959999999999,-0.05731,0.770497,0.599234,-0.007599,0.378813,-0.111052,0.196318
305,-1.362024,1.30935,0.759725,-0.252844,-0.966017,-0.053567,-0.041145,0.254275,-0.41661400000000004,0.229269,-0.185686,0.12775599999999998
306,-1.312381,1.3182770000000001,0.712278,-0.241527,-0.9682860000000001,-0.063842,-0.6249560000000001,0.196578,-0.666309,0.13553900000000002,-0.23305399999999998,0.133574
307,-1.251339,1.332697,0.652065,-0.2239,-0.9717879999999999,-0.074063,-0.558042,0.221325,-1.051502,-0.248588,-0.6967300000000001,0.414365
308,-1.096547,1.341425,0.508441,-0.202251,-0.9738100000000001,-0.10382000000000001,-1.8097400000000001,0.7780239999999999,-0.9220889999999999,-0.895726,-1.042838,-0.14068699999999998
309,-0.984807,1.3326280000000001,0.39121300000000003,-0.196545,-0.971772,-0.130459,-0.834534,-0.5653189999999999,0.10339100000000001,-0.172321,-0.8547969999999999,-0.082767
310,-1.0157770000000002,1.324439,0.41390200000000005,-0.207247,-0.969807,-0.1285,0.372684,-0.220852,0.563265,-0.09593,-0.299373,-0.16106600000000001
311,-1.07328,1.319954,0.47398599999999996,-0.21810900000000003,-0.9687040000000001,-0.118451,0.534094,0.108726,0.587471,0.042099,0.125549,-0.280292
312,-1.1368209999999999,1.312244,0.541312,-0.23196,-0.9667610000000001,-0.1075,0.669473,0.07537100000000001,0.819196,0.17078800000000002,0.484004,-0.209623
313,-1.216499,1.302362,0.627877,-0.24873,-0.9641870000000001,-0.092007,0.9260860000000001,0.29885100000000003,0.9200459999999999,0.056591999999999996,0.48618999999999996,-0.1516
314,-1.287024,1.290589,0.708317,-0.265475,-0.9609979999999999,-0.077424,0.747131,0.28380900000000003,0.840835,-0.033764999999999996,0.468292,-0.102126
315,-1.330373,1.281315,0.752962,-0.277225,-0.958392,-0.067966,0.32297800000000004,-0.23726599999999998,0.448639,-0.010556,0.41989399999999993,0.015049000000000002
316,-1.347811,1.277884,0.760996,-0.281574,-0.957407,-0.063849,-0.062026,-0.578504,0.07144199999999999,0.048603,0.26326900000000003,0.20630500000000002
317,-1.3436540000000001,1.2789110000000001,0.7430260000000001,-0.28034899999999996,-0.9577030000000001,-0.06479700000000001,-0.350258,-0.6806840000000001,-0.232748,0.092391,0.12213199999999999,0.317422
318,-1.310041,1.284948,0.694823,-0.27242,-0.9594229999999999,-0.07269,-0.767455,-0.550049,-0.5712510000000001,0.094365,0.040493,0.272733
319,-1.232301,1.290649,0.6067520000000001,-0.260789,-0.961015,-0.091809,-1.244779,-0.245542,-0.649751,0.050294,0.053940999999999996,-0.013903
320,-1.144379,1.2925209999999998,0.5085649999999999,-0.250082,-0.9615309999999999,-0.11360999999999999,-1.106549,-0.46913900000000003,-0.530994,0.089651,0.130628,-0.12393900000000001
321,-1.110352,1.293949,0.45424799999999993,-0.244842,-0.9619219999999999,-0.12144200000000001,-0.298929,-1.181332,-0.285159,0.13572599999999999,0.17899400000000001,-0.024096
322,-1.15886,1.2979319999999999,0.474366,-0.246929,-0.963003,-0.107892,0.6794979999999999,-1.53021,0.065022,0.224559,0.39613899999999996,0.383527
323,-1.2595020000000001,1.301042,0.549042,-0.25366700000000003,-0.963836,-0.08161900000000001,1.0593629999999998,-1.309732,0.276764,0.275838,0.573959,0.359008
324,-1.335434,1.297023,0.610032,-0.262891,-0.962758,-0.063043,0.43847200000000003,-0.586277,0.515055,0.1891,0.584721,-0.003561
325,-1.351897,1.282837,0.622555,-0.2772,-0.958825,-0.06166699999999999,-0.11623199999999999,0.005528,0.8511850000000001,0.1168,0.48676400000000003,-0.11231400000000001
326,-1.351492,1.265415,0.629946,-0.29343800000000003,-0.953732,-0.06540399999999999,-0.178281,0.619586,0.790144,-0.177448,-1.0983459999999998,-0.396266
327,-1.286351,1.2502149999999999,0.586453,-0.302439,-0.949052,-0.088425,-1.1932200000000002,1.375585,0.4253,-0.625158,-1.6813490000000002,-0.5156850000000001
328,-1.213119,1.238071,0.52978,-0.30593400000000004,-0.945156,-0.114344,-0.8473709999999999,0.523944,0.247209,-0.9523360000000001,-1.8672220000000002,-0.511862
329,-1.196707,1.229252,0.5064569999999999,-0.311764,-0.9422389999999999,-0.12239100000000001,-0.282146,-0.66706,0.296481,-0.16045,-1.085014,-0.061844
330,-1.253533,1.2266059999999999,0.541419,-0.32058000000000003,-0.941349,-0.10526400000000001,1.075685,-1.460058,0.293094,0.010262,-0.0024530000000000003,0.060876
331,-1.36944,1.231883,0.636059,-0.325729,-0.943116,-0.06648899999999999,1.658834,-1.093573,0.046734,0.031906,0.472062,0.12084
332,-1.4401700000000002,1.237083,0.701004,-0.324746,-0.944833,-0.042663,0.65485,-0.08165399999999999,-0.125013,-0.08835599999999999,0.49945900000000004,-0.106156
333,-1.417722,1.238724,0.6893779999999999,-0.32217399999999996,-0.945369,-0.049705,-0.66352,0.9455680000000001,-0.121652,-0.07699600000000001,0.49828599999999995,-0.372933
334,-1.318969,1.237905,0.612405,-0.316454,-0.945101,-0.08142,-1.4686270000000001,1.398362,-0.235746,-0.038709,0.420443,-0.396439
335,-1.2117229999999999,1.234005,0.524896,-0.30937,-0.9438200000000001,-0.116121,-1.297042,1.085776,-0.269398,-0.069582,0.462161,-0.313735
336,-1.1430209999999998,1.23444,0.47071899999999994,-0.300295,-0.9439639999999999,-0.136914,-0.471962,0.768237,-0.429871,0.053101999999999996,0.514215,-0.17657799999999998
337,-1.127243,1.245328,0.467077,-0.288796,-0.947501,-0.137215,0.553871,0.530795,-0.548451,0.191246,0.544166,0.025795
338,-1.165308,1.263569,0.515725,-0.277878,-0.953176,-0.11928699999999999,1.316738,0.37338499999999997,-0.47348599999999996,0.24134899999999998,0.453755,0.146295
339,-1.238002,1.280482,0.602306,-0.270529,-0.9581540000000001,-0.09350900000000001,1.519379,0.609225,-0.220273,0.196051,0.023645,0.183596
340,-1.3134620000000001,1.2889709999999999,0.695021,-0.268931,-0.960549,-0.070774,1.233563,0.6846949999999999,0.06819,0.285594,-0.137855,0.189473
341,-1.362478,1.290909,0.75918,-0.270253,-0.961087,-0.057127,0.679095,0.549079,0.097606,0.41370100000000004,-0.15517,0.29522600000000004
342,-1.3814629999999999,1.293615,0.785008,-0.268733,-0.961831,-0.051497,0.175128,0.167454,-0.200254,0.395809,-0.15703499999999998,0.372893
343,-1.354744,1.301441,0.761329,-0.25990100000000005,-0.963943,-0.057041999999999995,-0.48301099999999997,0.273617,-0.603434,0.287062,-0.153581,0.33214299999999997
344,-1.27429,1.31293,0.687349,-0.243867,-0.966936,-0.074505,-0.867034,0.49335,-0.8745219999999999,-0.18049500000000002,-0.376447,0.37299699999999997
345,-1.192652,1.327639,0.607577,-0.22373600000000002,-0.970583,-0.088882,-0.6657420000000001,0.20056300000000002,-1.08959,-0.48457700000000004,-0.609862,0.145095
346,-1.087331,1.337991,0.504633,-0.204244,-0.973023,-0.107233,-0.963324,0.045918,-0.787027,-0.657053,-0.9567709999999999,-0.166189
347,-1.058024,1.335391,0.46253299999999997,-0.203218,-0.9724200000000001,-0.11441300000000001,-0.097073,-0.811443,0.27873000000000003,-0.010954,-0.6872020000000001,-0.073591
348,-1.1075540000000001,1.328727,0.5023569999999999,-0.21442600000000003,-0.970844,-0.10710399999999999,0.331942,-0.313197,0.515029,-0.039938,-0.216015,-0.256329
349,-1.1428180000000001,1.3206229999999999,0.535543,-0.22521999999999998,-0.9688700000000001,-0.10274000000000001,0.117953,-0.13273800000000002,0.59342,0.14788900000000002,0.329099,-0.247968
350,-1.18608,1.308541,0.577667,-0.240287,-0.965808,-0.09729,0.384834,-0.052777,0.87826,0.10997699999999999,0.477084,-0.181381
351,-1.24524,1.294542,0.642183,-0.25840599999999997,-0.962084,-0.08723,0.626866,0.23473000000000002,0.9639719999999999,0.028716000000000002,0.46313699999999997,-0.153508
352,-1.2984280000000001,1.2814459999999999,0.701177,-0.274791,-0.9584290000000001,-0.076752,0.53956,0.084531,0.772343,-0.165959,0.400904,-0.0224
353,-1.33348,1.273647,0.73511,-0.28457,-0.956175,-0.06883,0.272276,-0.25467199999999995,0.316916,-0.225791,0.291792,0.07792400000000001
354,-1.350876,1.272434,0.745397,-0.286856,-0.9558190000000001,-0.064123,0.06273200000000001,-0.43481099999999995,-0.00692,-0.222848,0.234368,0.126119
355,-1.357034,1.275716,0.742506,-0.28417800000000004,-0.956779,-0.061689,-0.028881,-0.428112,-0.270351,-0.114107,0.04911,0.166441
356,-1.35653,1.283614,0.734893,-0.276754,-0.959046,-0.060224,-0.012339,-0.286684,-0.48726499999999995,-0.024836,-0.022003,0.10276500000000001
357,-1.349026,1.2951219999999999,0.72217,-0.26550799999999997,-0.962242,-0.059865999999999996,-0.096696,-0.223966,-0.6471,0.10976099999999998,-0.032616,-0.029581
358,-1.327509,1.306137,0.694706,-0.253855,-0.965182,-0.06300800000000001,-0.307438,-0.275727,-0.5737300000000001,0.21590700000000002,0.05086,-0.064876
359,-1.300663,1.312333,0.659057,-0.246304,-0.966784,-0.068202,-0.362761,-0.454488,-0.311105,0.223019,0.145769,0.035548
360,-1.294348,1.31371,0.641115,-0.24458600000000003,-0.9671350000000001,-0.069392,-0.068014,-0.60358,-0.046073,0.132373,0.302142,0.23154699999999998
361,-1.322609,1.313951,0.656238,-0.246223,-0.967196,-0.06239600000000001,0.34065500000000004,-0.717288,0.064849,0.199165,0.48143199999999997,0.341082
362,-1.378355,1.315987,0.698569,-0.247383,-0.9677110000000001,-0.048202999999999996,0.616174,-0.732865,-0.007982,0.266518,0.593078,0.20704699999999998
363,-1.427111,1.31776,0.738904,-0.24774000000000002,-0.9681569999999999,-0.035844,0.399337,-0.274208,0.032644,0.24981599999999998,0.587953,0.10481300000000002
364,-1.435569,1.314258,0.7520140000000001,-0.251392,-0.967274,-0.034204000000000005,-0.000607,0.49949799999999994,0.300187,0.187122,0.168507,-0.075309
365,-1.414915,1.305662,0.74773,-0.258839,-0.9650569999999999,-0.040678,-0.215704,0.9768969999999999,0.44762399999999997,0.14632,-0.805634,-0.24283000000000002
366,-1.329817,1.29559,0.684918,-0.263873,-0.962369,-0.064848,-1.47062,1.42526,0.233186,-0.686017,-1.9955319999999999,-0.583086
367,-1.205757,1.2819450000000001,0.579236,-0.26606399999999997,-0.958572,-0.101681,-1.336427,0.761784,0.335386,-0.796268,-1.919327,-0.32852600000000004
368,-1.183016,1.265319,0.555833,-0.278401,-0.9537030000000001,-0.11371600000000001,-0.24128000000000002,-0.397287,0.7301489999999999,-0.213679,-0.765184,0.062783
369,-1.243899,1.254084,0.601631,-0.29493400000000003,-0.9502639999999999,-0.10000099999999999,0.9276780000000001,-1.125998,0.798,0.015041999999999998,0.254662,0.142664
370,-1.375956,1.250406,0.71201,-0.30895900000000004,-0.9491129999999999,-0.060971000000000004,1.9096849999999999,-1.371959,0.450525,0.125914,0.598252,0.158917
371,-1.500709,1.251874,0.8225379999999999,-0.312754,-0.949574,-0.021956,1.425057,-0.676096,0.01255,0.111856,0.5856979999999999,-0.106248
372,-1.533715,1.25352,0.8572569999999999,-0.311746,-0.950089,-0.011565,-0.016373,0.43811700000000003,-0.053425,0.096185,0.544876,-0.363282
373,-1.4583629999999999,1.254366,0.8020109999999999,-0.309191,-0.9503520000000001,-0.034911000000000005,-1.287096,1.497631,-0.174754,0.038653,0.45085600000000003,-0.486253
374,-1.325516,1.2535889999999998,0.6951,-0.30256,-0.95011,-0.075737,-1.726375,1.437868,-0.299523,-0.00434,0.43680399999999997,-0.37899
375,-1.215085,1.252873,0.599137,-0.293008,-0.949887,-0.108857,-1.166742,0.674972,-0.478371,0.038644,0.5103880000000001,-0.149673
376,-1.164247,1.258632,0.554025,-0.282069,-0.9516709999999999,-0.12144,-0.146035,0.321133,-0.522062,0.074045,0.5642050000000001,0.06322799999999999
377,-1.171897,1.269414,0.569998,-0.273517,-0.9549270000000001,-0.11528699999999999,0.7326050000000001,0.424817,-0.306686,0.097888,0.49942200000000003,0.215308
378,-1.22265,1.279885,0.634371,-0.269599,-0.957983,-0.097845,1.2113909999999999,0.627708,-0.045092,0.06658,0.26531,0.269507
379,-1.287721,1.286017,0.719735,-0.269744,-0.959724,-0.078465,1.203551,0.974242,0.147757,0.030562,-0.006768000000000001,0.181386
380,-1.3358649999999999,1.287295,0.7911739999999999,-0.272013,-0.960082,-0.065107,0.826642,0.9625540000000001,0.20068699999999998,0.15726700000000002,-0.052171,-0.004656
381,-1.3592870000000001,1.287141,0.82995,-0.273608,-0.960039,-0.058749,0.356885,0.508833,0.053777,0.45325,-0.022566,-0.033108
382,-1.366587,1.291033,0.841168,-0.270368,-0.9611209999999999,-0.05599199999999999,0.124609,-0.013054,-0.30182600000000004,0.58801,-0.032669,0.042229
383,-1.3582370000000001,1.2997319999999999,0.830177,-0.261707,-0.9634870000000001,-0.056480999999999996,-0.201262,-0.121733,-0.54645,0.278446,-0.001174,0.21396700000000002
384,-1.316817,1.311442,0.7841739999999999,-0.248205,-0.966556,-0.06443,-0.605667,-0.126853,-0.780004,0.063085,0.036288,0.15723399999999998
385,-1.2505600000000001,1.3240889999999998,0.715071,-0.231773,-0.969722,-0.07686799999999999,-0.5608479999999999,-0.000848,-0.8941520000000001,-0.091179,0.032832,0.153452
386,-1.216021,1.341872,0.679226,-0.21277100000000002,-0.9739110000000001,-0.078821,0.080296,0.083768,-1.0318559999999999,-0.767789,-0.8287469999999999,0.170053
387,-1.1656799999999998,1.3574950000000001,0.6350720000000001,-0.194526,-0.9773370000000001,-0.08342000000000001,-0.32640399999999997,0.36191,-0.706041,-0.8872459999999999,-0.900882,0.047256
388,-1.157273,1.3553520000000001,0.6271479999999999,-0.195735,-0.976881,-0.08589400000000001,0.106674,-0.141817,0.47801499999999997,-0.533666,-0.838548,-0.038176
389,-1.203669,1.346999,0.66913,-0.207118,-0.9750620000000001,-0.07965,0.24992899999999998,-0.272449,0.520844,-0.012319,-0.125936,-0.488832
390,-1.2299799999999999,1.340351,0.689079,-0.21524699999999997,-0.973565,-0.076339,0.01852,-0.425396,0.342099,0.093497,0.06691799999999999,-0.476365
391,-1.254134,1.331996,0.706038,-0.22475100000000003,-0.9716229999999999,-0.073648,0.11226099999999999,-0.242298,0.559368,0.187595,0.240269,-0.39066100000000004
392,-1.285627,1.321202,0.739858,-0.23700900000000003,-0.9690129999999999,-0.069482,0.264438,0.21284099999999997,0.627146,-0.10204099999999999,0.369815,-0.138267
393,-1.302422,1.31301,0.761035,-0.24578899999999998,-0.966957,-0.067594,0.033648000000000004,0.099701,0.35007699999999997,-0.179489,0.388816,-0.142367
394,-1.302032,1.3094290000000002,0.756505,-0.2491,-0.966038,-0.068609,-0.158308,-0.402364,0.064165,-0.20649699999999999,0.289112,0.163107
395,-1.303339,1.3066309999999999,0.746398,-0.251797,-0.965311,-0.068998,-0.154115,-0.5498149999999999,0.171205,-0.24473899999999998,0.069757,0.306867
396,-1.302446,1.300489,0.73983,-0.257447,-0.9636889999999999,-0.07079400000000001,-0.184524,-0.07295499999999999,0.293227,-0.269546,-0.03506,0.28489000000000003
397,-1.285331,1.295379,0.7242310000000001,-0.260921,-0.9623120000000001,-0.076575,-0.326839,0.111562,0.094375,-0.18678699999999998,-0.23413,0.104835
398,-1.26204,1.2952629999999998,0.696109,-0.259173,-0.9622799999999999,-0.082665,-0.385509,-0.43559499999999995,-0.21939,0.107074,-0.099365,0.063058
399,-1.246974,1.297166,0.662574,-0.25616300000000003,-0.9627959999999999,-0.085978,-0.38001799999999997,-1.0876649999999999,-0.193947,0.222898,0.051312,0.094568
400,-1.260781,1.29758,0.6485449999999999,-0.256945,-0.962908,-0.082311,-0.003943,-1.498779,-0.008128,0.384829,0.488573,0.28008
401,-1.315487,1.2984360000000001,0.674873,-0.260262,-0.963139,-0.06792999999999999,0.574479,-1.39772,0.058808000000000006,0.42135,0.6874279999999999,0.17838800000000002
402,-1.395141,1.30155,0.732904,-0.261887,-0.9639719999999999,-0.046481,0.829252,-1.0382719999999999,-0.008239,0.413468,0.734586,0.018756000000000002
403,-1.452304,1.3019120000000002,0.777151,-0.26376700000000003,-0.964068,-0.031401,0.384938,-0.495209,0.167423,0.228946,0.474261,-0.17505
404,-1.4670299999999998,1.2940040000000002,0.793161,-0.271776,-0.961937,-0.028303,0.10328599999999999,0.364969,0.552118,0.007081999999999999,-0.267189,-0.049288
405,-1.426004,1.2797049999999999,0.7713270000000001,-0.28397100000000003,-0.957931,-0.041406,-0.872215,1.410561,0.725562,-0.288081,-0.8677219999999999,-0.24425300000000003
406,-1.313212,1.257818,0.686132,-0.297714,-0.951421,-0.078429,-1.55231,1.440075,0.8607100000000001,-0.892792,-1.664973,-0.32113800000000003
407,-1.2543090000000001,1.234251,0.641857,-0.313809,-0.943901,-0.102771,-0.624354,0.48853900000000006,0.916482,-0.371723,-1.3064040000000001,-0.106198
408,-1.27237,1.218227,0.65915,-0.33003000000000005,-0.9384889999999999,-0.101521,0.478893,-0.5375880000000001,0.826158,-0.230334,-0.8251370000000001,-0.067729
409,-1.381324,1.212305,0.750179,-0.344564,-0.936427,-0.066078,2.0692880000000002,-1.403667,0.515774,0.048086000000000004,0.310741,-0.021508000000000003
410,-1.538382,1.214493,0.8926290000000001,-0.348609,-0.937193,-0.011304,2.469638,-0.946901,-0.037489999999999996,0.011373999999999999,0.488874,-0.132678
411,-1.64015,1.220308,0.990641,-0.342511,-0.939205,0.023791999999999997,1.070666,-0.240454,-0.46477399999999996,-0.000766,0.46804399999999996,-0.287846
412,-1.6411099999999998,1.232724,0.9937159999999999,-0.330828,-0.9433959999999999,0.0233,-0.5656,0.291485,-0.734297,0.127367,0.44763800000000004,-0.240723
413,-1.555774,1.25026,0.9172809999999999,-0.315019,-0.949066,-0.004733,-1.598536,0.85903,-0.8426530000000001,0.132905,0.5342560000000001,-0.223417
414,-1.415018,1.262042,0.793906,-0.300171,-0.9527129999999999,-0.047142,-1.889462,1.3429879999999998,-0.671185,0.12353499999999999,0.679672,-0.234779
415,-1.28803,1.2649549999999998,0.690583,-0.289118,-0.953594,-0.084004,-1.1193520000000001,1.37421,-0.356061,0.109644,0.743923,-0.184597
416,-1.245752,1.266376,0.668017,-0.284025,-0.9540209999999999,-0.095716,0.172046,0.815669,-0.060041,0.104032,0.605007,-0.031802
417,-1.284422,1.269074,0.719332,-0.285042,-0.9548260000000001,-0.083936,1.065205,0.372732,0.176433,0.048409,0.327949,0.092237
418,-1.367939,1.272981,0.811042,-0.287394,-0.9559799999999999,-0.059113,1.474213,0.125617,0.08133,0.12273699999999999,0.014191999999999998,0.16911400000000001
419,-1.4611370000000001,1.278211,0.911077,-0.286673,-0.957501,-0.031563,1.437741,0.143495,-0.095204,0.383139,-0.19588,0.27639
420,-1.537876,1.284641,0.994658,-0.282088,-0.9593360000000001,-0.009290000000000001,1.021672,0.157578,-0.32566,0.515562,-0.34977600000000003,0.346097
421,-1.564509,1.2949709999999999,1.026666,-0.27231,-0.962201,-0.0017120000000000002,0.06304900000000001,0.219608,-0.620855,0.439287,-0.357212,0.19723800000000002
422,-1.511074,1.309218,0.976435,-0.25811799999999996,-0.965983,-0.015434,-1.006156,0.251697,-0.7918029999999999,0.252258,-0.400808,0.16750299999999999
423,-1.403424,1.3242200000000002,0.866606,-0.240648,-0.9697540000000001,-0.040658,-1.412211,-0.059397000000000005,-0.964088,-0.14221,-0.81406,0.37308600000000003
424,-1.245982,1.332797,0.70594,-0.223406,-0.9718120000000001,-0.07522999999999999,-1.9308349999999999,0.18420899999999998,-0.695626,-0.5867140000000001,-0.971075,0.28978400000000004
425,-1.144751,1.3218299999999998,0.602871,-0.22435300000000002,-0.969168,-0.10182100000000001,-0.775518,-0.094059,0.48998100000000006,-0.146954,-0.398752,-0.152009
426,-1.184042,1.3056,0.636875,-0.24271700000000002,-0.965041,-0.098851,0.418858,-0.328599,1.096829,-0.12859,-0.402879,-0.154979
427,-1.249584,1.288573,0.699926,-0.264227,-0.9604379999999999,-0.087918,0.451775,-0.19952,1.0231860000000002,0.005972,0.021046000000000002,-0.311802
428,-1.284262,1.273474,0.735368,-0.280996,-0.956124,-0.08279299999999999,0.17014200000000002,0.075002,0.8147,0.193075,0.334588,-0.317765
429,-1.309264,1.260027,0.7640939999999999,-0.295373,-0.952098,-0.07906,0.306218,0.082476,0.6927949999999999,0.118691,0.309429,-0.27589
430,-1.341389,1.252677,0.79569,-0.30456500000000003,-0.949825,-0.071122,0.408857,-0.226438,0.333917,-0.042023000000000005,0.329449,-0.12165799999999999
431,-1.372835,1.2519930000000001,0.8197399999999999,-0.307287,-0.9496110000000001,-0.061638,0.30230100000000004,-0.546373,-0.017862,-0.10984200000000001,0.42745600000000006,0.197243
432,-1.3925319999999999,1.255757,0.828398,-0.304921,-0.950784,-0.054939999999999996,0.08772,-0.523578,-0.204192,-0.126506,0.35289899999999996,0.237145
433,-1.394331,1.259841,0.8239299999999999,-0.301194,-0.952042,-0.053709,-0.10583800000000002,-0.171273,-0.22735999999999998,-0.12202400000000001,0.148529,0.203779
434,-1.377428,1.264371,0.80483,-0.296006,-0.953418,-0.057963,-0.329997,-0.033833999999999996,-0.30387800000000004,-0.05429,-0.00517,0.091639
435,-1.3447,1.267958,0.7697470000000001,-0.290617,-0.9544940000000001,-0.066851,-0.562818,-0.035361000000000004,-0.253159,0.016538999999999998,-0.040349,-0.011549
436,-1.301285,1.268307,0.723324,-0.287122,-0.954598,-0.079312,-0.711639,-0.057592,-0.159098,0.094693,0.050759,-0.061435000000000003
437,-1.256961,1.266492,0.676296,-0.284974,-0.9540549999999999,-0.09249199999999999,-0.654191,-0.003827,-0.067967,0.12529,0.192047,-0.088249
438,-1.230551,1.262994,0.64831,-0.285575,-0.953002,-0.101097,-0.31151,-0.037612,0.091498,0.027214,0.317214,-0.062095000000000004
439,-1.230579,1.259487,0.6461779999999999,-0.288727,-0.951933,-0.102204,0.020618,-0.128552,0.167642,-0.122329,0.384077,0.047089
440,-1.245959,1.258592,0.659679,-0.291072,-0.951659,-0.098023,0.28465,-0.129012,0.05411900000000001,-0.16106099999999998,0.441405,0.25474600000000003
441,-1.28065,1.263647,0.6928810000000001,-0.289684,-0.953199,-0.086491,0.744192,-0.174475,-0.163735,0.098949,0.383421,0.45496099999999995
442,-1.3371879999999998,1.273773,0.748962,-0.284702,-0.9562120000000001,-0.067746,0.9863139999999999,-0.098026,-0.31062399999999996,0.24978899999999998,0.14696199999999998,0.260815
443,-1.382274,1.282273,0.798463,-0.279471,-0.958665,-0.053320000000000006,0.572642,0.300367,-0.213612,0.23339000000000001,-0.217254,-0.127649
444,-1.369245,1.283216,0.798018,-0.277866,-0.958933,-0.056775,-0.337629,0.775374,0.06891,0.22885500000000003,-0.43561300000000003,-0.25793699999999997
445,-1.311229,1.27562,0.753839,-0.281139,-0.956751,-0.074659,-0.866823,0.748658,0.282097,0.231823,-1.2396909999999999,-0.393938
446,-1.243706,1.263259,0.6938340000000001,-0.286641,-0.953082,-0.097251,-1.059352,0.282267,0.398854,0.120351,-1.5314,-0.409539
447,-1.2209459999999999,1.243688,0.6682140000000001,-0.301822,-0.946975,-0.110123,-0.413566,-0.18598800000000001,1.053444,-0.351254,-1.265442,-0.100449
448,-1.241729,1.2233040000000002,0.6874170000000001,-0.32224899999999995,-0.9402299999999999,-0.110043,0.138472,-0.148241,0.9920899999999999,-0.308152,-0.136949,-0.022343000000000002
449,-1.2822120000000001,1.209316,0.723508,-0.339016,-0.9353739999999999,-0.10064400000000001,0.521265,-0.408652,0.781453,-0.233738,0.37056999999999995,0.019208000000000003
450,-1.328376,1.2020790000000001,0.7675390000000001,-0.34986100000000003,-0.93279,-0.086515,0.715407,-0.097746,0.3861,-0.211677,0.5060479999999999,0.004148
451,-1.359161,1.203622,0.804653,-0.35095,-0.9333450000000001,-0.075403,0.59905,0.35521199999999997,-0.09919800000000001,-0.105196,0.541042,-0.122306
452,-1.363585,1.210921,0.8209930000000001,-0.344605,-0.935941,-0.07244600000000001,0.182305,0.622056,-0.401553,0.02034,0.46720600000000007,-0.19304200000000002
453,-1.335153,1.2219659999999999,0.805203,-0.332333,-0.939773,-0.079795,-0.31737600000000005,0.701752,-0.717066,0.133709,0.41366499999999995,-0.20600300000000002
454,-1.285201,1.236561,0.767067,-0.314739,-0.9446610000000001,-0.092414,-0.44125,0.698788,-0.933708,0.234386,0.41361000000000003,-0.159829
455,-1.235234,1.25166,0.729779,-0.296227,-0.949507,-0.10330999999999999,-0.251463,0.764865,-0.839532,0.27326300000000003,0.43786400000000003,-0.091164
456,-1.204543,1.262894,0.7151609999999999,-0.282939,-0.9529719999999999,-0.108524,0.140948,0.8886280000000001,-0.428889,0.229015,0.433654,-0.054928
457,-1.2085350000000001,1.267595,0.7395079999999999,-0.27917800000000004,-0.9543860000000001,-0.105805,0.5945520000000001,0.9850399999999999,0.108267,0.1142,0.34646,0.005509
458,-1.247884,1.267105,0.8001060000000001,-0.283568,-0.954239,-0.094889,0.9713809999999999,0.8663709999999999,0.41976800000000003,0.017469,0.146896,0.043299000000000004
459,-1.306606,1.2645030000000002,0.8777370000000001,-0.291044,-0.953458,-0.078731,1.103861,0.7102189999999999,0.460417,-0.010820999999999999,-0.060976999999999996,0.045513
460,-1.362869,1.2617610000000001,0.949586,-0.297566,-0.952627,-0.06277999999999999,0.9426399999999999,0.541972,0.31743299999999997,0.096471,-0.153543,0.033422
461,-1.3988479999999999,1.260981,0.9963770000000001,-0.30036399999999996,-0.95239,-0.052162,0.5246460000000001,0.35688800000000004,0.07867400000000001,0.285563,-0.10747000000000001,0.12029300000000001
462,-1.405886,1.263616,1.00959,-0.298248,-0.95319,-0.049635000000000006,0.050568,0.247743,-0.187281,0.352752,0.022358000000000003,0.22630100000000003
463,-1.3886450000000001,1.2687190000000002,0.9952629999999999,-0.292559,-0.9547209999999999,-0.053887,-0.272416,0.149418,-0.35496500000000003,0.31500500000000003,0.10004500000000001,0.260415
464,-1.353652,1.276391,0.9629139999999999,-0.283333,-0.956975,-0.06251,-0.44168500000000005,0.272239,-0.552858,-0.000709,0.024068,0.209071
465,-1.309634,1.28806,0.9257569999999999,-0.26950100000000005,-0.9602959999999999,-0.072029,-0.297799,0.5228510000000001,-0.745522,-0.171951,-0.04419,0.175483
466,-1.28,1.301695,0.9085540000000001,-0.254678,-0.96401,-0.07622000000000001,0.1402,0.7096399999999999,-0.68395,-0.432608,-0.49949099999999996,0.34035
467,-1.266153,1.316294,0.910423,-0.240146,-0.9677889999999999,-0.075509,0.166466,0.830032,-0.710626,-0.48978900000000003,-1.164963,-0.190421
468,-1.238221,1.326747,0.893048,-0.22836700000000001,-0.970367,-0.07887899999999999,-0.078681,0.251162,-0.39219899999999996,-0.501568,-1.162384,-0.187051
469,-1.236712,1.32701,0.891349,-0.22800700000000002,-0.9704309999999999,-0.07914,0.008531,-0.010064,0.12255999999999999,0.061152,-0.51103,-0.37557199999999996
470,-1.231476,1.324568,0.8878590000000001,-0.22982399999999997,-0.9698389999999999,-0.081122,-0.177642,0.10140199999999999,0.11470799999999999,0.230632,0.017278,-0.38448499999999997
471,-1.218102,1.3176290000000002,0.871967,-0.23502800000000001,-0.968124,-0.08651,-0.323315,-0.220933,0.39611399999999997,0.26040399999999997,0.180832,-0.283973
472,-1.227967,1.304794,0.877793,-0.247554,-0.96483,-0.088358,0.001923,-0.156318,0.737997,0.089077,0.37422300000000003,-0.10137
473,-1.264947,1.291665,0.9154469999999999,-0.26271100000000003,-0.9612950000000001,-0.082953,0.416546,0.030638,0.778042,-0.19860799999999998,0.465232,0.07477400000000001
474,-1.3128739999999999,1.28159,0.9676370000000001,-0.27573400000000003,-0.958471,-0.072738,0.615205,0.144622,0.6062310000000001,-0.334572,0.531347,0.165206
475,-1.353365,1.27664,1.0138459999999998,-0.283083,-0.957047,-0.06254,0.539189,0.217639,0.261639,-0.356779,0.491608,0.181131
476,-1.372619,1.277364,1.039995,-0.283555,-0.957257,-0.05694199999999999,0.26807600000000004,0.330719,-0.075821,-0.225829,0.136624,0.096233
477,-1.368193,1.282802,1.042594,-0.27819699999999997,-0.958816,-0.057148000000000004,-0.010177,0.333882,-0.358711,-0.132142,0.09077400000000001,0.044437
478,-1.3459780000000001,1.291236,1.0247,-0.268966,-0.9611770000000001,-0.06150800000000001,-0.23313699999999998,0.18507200000000001,-0.5139020000000001,-0.032288,0.075023,-0.000259
479,-1.31256,1.30091,0.991173,-0.257758,-0.963801,-0.068083,-0.368983,0.002738,-0.6193029999999999,0.26808899999999997,0.28438800000000003,-0.15179600000000001
480,-1.27078,1.310375,0.949055,-0.245964,-0.966281,-0.07608999999999999,-0.406016,0.12834,-0.562038,0.26409099999999996,0.341541,-0.173651
481,-1.230401,1.315531,0.912366,-0.237992,-0.9675959999999999,-0.08429299999999999,-0.315899,0.284548,-0.277462,0.21804899999999997,0.376181,-0.179181
482,-1.209933,1.317137,0.896332,-0.234763,-0.968001,-0.08859700000000001,-0.059974,0.198774,-0.09503500000000001,-0.11278699999999998,0.38055300000000003,-0.06463200000000001
483,-1.210448,1.31962,0.8985879999999999,-0.232558,-0.968621,-0.087628,0.12078399999999999,0.025716000000000003,-0.130938,-0.11499100000000001,0.38117199999999996,-0.06560099999999999
484,-1.212236,1.324085,0.9010299999999999,-0.22866199999999998,-0.9697209999999999,-0.085694,0.088301,0.045454,-0.243354,-0.203848,0.37638299999999997,0.002579
485,-1.206007,1.3290959999999998,0.8972899999999999,-0.22358000000000003,-0.970932,-0.085381,0.021698,0.188405,-0.236525,-0.120673,0.22253499999999998,0.126504
486,-1.202731,1.333316,0.898857,-0.219475,-0.971934,-0.084638,0.174173,0.25145500000000004,-0.152219,-0.103066,0.143473,0.197614
487,-1.222193,1.337173,0.9243889999999999,-0.21755500000000003,-0.972834,-0.079069,0.440557,0.295852,-0.030775,0.007853,-0.10323099999999999,0.330809
488,-1.2569709999999998,1.338208,0.968051,-0.219214,-0.973073,-0.071146,0.483843,0.439591,0.21610300000000002,0.108206,-0.30861900000000003,0.21611999999999998
489,-1.28483,1.332139,1.0078040000000001,-0.226773,-0.971656,-0.066677,0.240918,0.622265,0.564549,0.139553,-0.42234099999999997,0.047893
490,-1.2886959999999998,1.317388,1.026704,-0.24076999999999998,-0.9680639999999999,-0.06978200000000001,-0.117353,0.7320220000000001,0.8663489999999999,0.205767,-0.778717,-0.369289
491,-1.275959,1.299215,1.023623,-0.256656,-0.963348,-0.077944,-0.405969,0.318846,0.812519,0.093921,-1.125657,-0.45291000000000003
492,-1.247951,1.280772,0.9977889999999999,-0.271179,-0.9582370000000001,-0.090723,-0.745205,0.098414,0.8200459999999999,-0.093399,-1.172302,-0.433584
493,-1.214253,1.25593,0.963166,-0.290193,-0.950838,-0.10808599999999999,-0.9674879999999999,0.016206,1.0578809999999998,-0.484724,-0.376112,-0.087211
494,-1.188085,1.228809,0.9362799999999999,-0.311082,-0.94209,-0.125229,-0.778874,0.04718,1.140343,-0.448592,0.081388,0.016205
495,-1.185309,1.2048780000000001,0.936053,-0.331534,-0.933796,-0.13453299999999999,-0.248656,0.192687,1.056266,-0.39800399999999997,0.240436,0.048672
496,-1.196775,1.189773,0.956149,-0.346146,-0.928285,-0.13586099999999998,0.232275,0.474829,0.678977,-0.279021,0.566346,0.10433699999999999
497,-1.212127,1.1859110000000002,0.9866379999999999,-0.351546,-0.926842,-0.13178900000000002,0.5813520000000001,0.753576,0.19929000000000002,-0.103654,0.564918,0.046111
498,-1.223419,1.1925370000000002,1.018433,-0.347229,-0.929309,-0.125717,0.6805859999999999,0.9767889999999999,-0.29489,-0.00441,0.5236689999999999,-0.023941
499,-1.221247,1.207166,1.037676,-0.33414499999999997,-0.9346120000000001,-0.121802,0.49908,1.019521,-0.7,0.207481,0.364406,-0.185297
500,-1.2041899999999999,1.224645,1.042409,-0.316717,-0.940686,-0.121608,0.331498,1.1408770000000001,-0.799603,0.23421199999999998,0.36755,-0.194493
501,-1.177658,1.241149,1.041058,-0.29899699999999996,-0.946156,-0.124002,0.26371300000000003,1.319803,-0.730871,0.21940700000000002,0.377889,-0.174765
502,-1.149805,1.25461,1.04031,-0.28377600000000003,-0.950428,-0.127064,0.259928,1.372344,-0.54723,0.133324,0.373631,-0.172573
503,-1.127942,1.2638209999999999,1.0472299999999999,-0.273008,-0.953252,-0.12947999999999998,0.314479,1.450903,-0.260667,0.066862,0.313924,-0.144553
504,-1.121916,1.268277,1.070832,-0.268393,-0.9545889999999999,-0.129278,0.487613,1.383943,0.08352799999999999,0.055929,0.320266,-0.021723
505,-1.1389280000000002,1.2695239999999999,1.113086,-0.269471,-0.95496,-0.124195,0.63774,1.030053,0.27410500000000004,0.18803499999999998,0.291263,0.08493400000000001
506,-1.165777,1.268926,1.160518,-0.273233,-0.954782,-0.11714100000000001,0.5879880000000001,0.9160959999999999,0.310223,0.226419,0.155695,-0.08767799999999999
507,-1.171961,1.2694159999999999,1.186273,-0.273521,-0.9549280000000001,-0.11526800000000001,0.191328,0.879368,-0.017240000000000002,0.138954,-0.088407,-0.34715
508,-1.146559,1.2719719999999999,1.173225,-0.26828,-0.955683,-0.121173,-0.302257,0.48153500000000005,-0.266937,-0.023911,-0.22220399999999998,-0.46757299999999996
509,-1.108435,1.273363,1.137168,-0.262277,-0.956092,-0.130717,-0.475055,-0.002491,-0.285684,-0.14292,-0.009651999999999999,-0.41103100000000004
510,-1.084637,1.274092,1.108966,-0.258475,-0.956305,-0.136595,-0.251198,-0.161419,-0.163207,-0.14241900000000002,0.157813,-0.367311
511,-1.079742,1.27393,1.104525,-0.25794,-0.9562579999999999,-0.137932,0.090987,-0.03342,0.031299,-0.08924299999999999,0.426259,0.506706
512,-1.098425,1.279525,1.114787,-0.255703,-0.95788,-0.130652,0.32700500000000005,-0.152971,-0.379233,0.06116900000000001,-0.303763,0.595313
513,-1.054489,1.292718,1.082234,-0.238706,-0.961585,-0.135506,-0.587152,0.883008,-1.0503120000000001,-0.027285000000000004,-1.181589,0.460182
514,-0.8845940000000001,1.297197,0.94294,-0.209024,-0.9628049999999999,-0.171185,-1.67475,2.235249,-1.2721930000000001,-0.9997159999999999,-1.6580759999999999,0.071148
515,-0.7667689999999999,1.294468,0.8535159999999999,-0.189274,-0.9620639999999999,-0.196461,-0.352686,0.5429069999999999,-0.38378,-0.47684799999999994,-1.028949,0.6953630000000001
516,-0.8277200000000001,1.309094,0.9061020000000001,-0.19050599999999998,-0.965951,-0.175026,1.68525,-0.550776,0.157422,-0.320374,-0.875648,0.8416530000000001
517,-0.9609120000000001,1.323034,1.053976,-0.201002,-0.969464,-0.14045,1.7372400000000001,1.265741,0.855143,-0.37201100000000004,0.275463,0.305519
518,-1.0283010000000001,1.32208,1.170339,-0.210796,-0.9692290000000001,-0.127073,0.9204049999999999,2.669868,0.740816,-0.138157,0.575415,-0.23910700000000001
519,-1.0551469999999998,1.316662,1.257327,-0.21869699999999997,-0.967881,-0.123957,0.779112,2.912805,0.8495440000000001,0.056008,0.21518099999999998,-0.369161
520,-1.094606,1.310243,1.354981,-0.228933,-0.966248,-0.11807899999999999,1.048935,2.623295,0.8208219999999999,0.069357,0.034744,-0.21231999999999998
521,-1.147666,1.310867,1.458613,-0.234323,-0.966408,-0.105523,1.30813,2.137464,0.346828,0.178766,0.16462000000000002,-0.10761099999999998
522,-1.216316,1.322663,1.560864,-0.2303,-0.9693729999999999,-0.08523700000000001,1.4524920000000001,1.098755,-0.293902,0.356521,0.29188200000000003,0.01938
523,-1.300439,1.342725,1.658163,-0.21785700000000002,-0.9741040000000001,-0.060377999999999994,1.3344690000000001,0.256243,-0.754051,0.41091099999999997,0.352202,0.142867
524,-1.379386,1.364288,1.740486,-0.201265,-0.9787530000000001,-0.039001999999999995,0.940097,0.023576,-0.835556,0.37269800000000003,0.295678,0.160279
525,-1.422516,1.377402,1.785553,-0.190046,-0.981358,-0.028388,0.296971,0.080324,-0.350875,0.217558,0.267979,0.09863999999999999
526,-1.4080629999999998,1.3762940000000001,1.773334,-0.19068800000000002,-0.981144,-0.031307999999999996,-0.360446,0.143112,0.234111,-0.096559,0.259434,0.009854
527,-1.355658,1.3674950000000001,1.722246,-0.197216,-0.979405,-0.043095999999999995,-0.630009,0.07339,0.32098000000000004,-0.320133,0.231526,-0.020076
528,-1.313507,1.362409,1.678755,-0.200041,-0.978366,-0.052635,-0.378515,-0.048806999999999996,0.025927,-0.292604,0.230319,0.026298000000000002
529,-1.280892,1.365557,1.646811,-0.195268,-0.9790120000000001,-0.05825,-0.264441,0.19548800000000002,-0.425447,-0.23974499999999999,0.367653,0.001091
530,-1.213663,1.3765450000000001,1.586293,-0.18082,-0.981193,-0.06747,-0.481151,0.45468100000000006,-0.8524450000000001,-0.21801399999999999,0.338401,-0.0076950000000000005
531,-1.112121,1.38849,1.492791,-0.162528,-0.9834280000000001,-0.080256,-0.584234,0.529671,-0.868216,-0.231012,0.11260899999999999,-0.04746
532,-1.017575,1.395961,1.409974,-0.14796800000000002,-0.9847549999999999,-0.091377,-0.34268000000000004,0.703336,-0.5516260000000001,-0.46430600000000005,-0.146669,-0.204292
533,-0.9834780000000001,1.401537,1.3882450000000002,-0.140193,-0.9857100000000001,-0.093324,0.231341,0.561539,-0.221627,-0.51476,-0.231697,-0.010314
534,-1.01867,1.409827,1.434216,-0.136426,-0.987072,-0.08404299999999999,0.6436310000000001,0.506526,-0.141765,-0.44443,-0.366657,0.055082000000000006
535,-1.0624200000000001,1.418225,1.489128,-0.132723,-0.988384,-0.07395700000000001,0.499615,0.555844,-0.095832,-0.269362,-0.639027,0.5171640000000001
536,-1.0934620000000002,1.417675,1.535716,-0.135437,-0.9883,-0.070052,0.18209,0.896941,0.392895,-0.136536,-0.499829,0.529738
537,-1.126085,1.403881,1.5902370000000001,-0.149946,-0.986102,-0.071457,0.06692200000000001,1.1246639999999999,1.086143,-0.098848,-0.342954,0.5588529999999999
538,-1.185786,1.378664,1.674936,-0.17694300000000002,-0.981599,-0.071703,0.253849,1.222042,1.612889,0.12486400000000002,0.117204,0.462603
539,-1.232086,1.349235,1.751436,-0.20724,-0.975555,-0.073008,0.14032,1.608032,1.621215,0.15621500000000002,0.176926,0.20817
540,-1.2230969999999999,1.321915,1.7833720000000002,-0.23155599999999998,-0.969189,-0.083922,-0.26705,2.226677,1.2458360000000002,0.16042,0.100384,0.0009140000000000001
541,-1.176177,1.302246,1.782272,-0.244921,-0.9641559999999999,-0.102001,-0.36686599999999997,2.2813380000000003,0.717367,0.004854,-0.28518699999999997,-0.183079
542,-1.124824,1.293125,1.774957,-0.24728699999999998,-0.9616969999999999,-0.118227,-0.225352,2.1317470000000003,0.17589000000000002,-0.330457,-0.416004,-0.041257999999999996
543,-1.076619,1.29241,1.762875,-0.24190799999999998,-0.9615,-0.130332,-0.121778,1.632901,-0.105826,-0.434529,-0.374224,0.061576
544,-1.044637,1.291668,1.7603240000000002,-0.238234,-0.9612959999999999,-0.13835899999999998,-0.009253,1.472964,0.099196,-0.44593999999999995,-0.093361,0.256309
545,-1.023819,1.289841,1.772029,-0.23680199999999998,-0.960791,-0.144202,0.173688,1.6807349999999999,0.196347,-0.290053,0.007468000000000001,0.244177
546,-1.022286,1.2902200000000001,1.808022,-0.23626999999999998,-0.9608959999999999,-0.144375,0.631991,1.883398,0.26658699999999996,-0.220196,0.100194,0.22724499999999997
547,-1.054352,1.295701,1.883663,-0.23619400000000002,-0.962399,-0.134123,1.268804,2.1271240000000002,0.302769,-0.053966999999999994,0.27074899999999996,0.257368
548,-1.114954,1.305108,1.9951720000000002,-0.235742,-0.9649120000000001,-0.11558,1.642009,2.505265,0.253617,0.040231,0.271919,0.23348400000000002
549,-1.168566,1.315907,2.109613,-0.23199299999999998,-0.967691,-0.098696,1.441709,3.041686,0.014385,0.09849400000000001,0.277887,0.149279
550,-1.1787,1.3264690000000001,2.186051,-0.223523,-0.9703,-0.092428,0.8288639999999999,3.233114,-0.172807,0.136456,0.297708,0.05386900000000001
551,-1.146313,1.33444,2.217488,-0.213356,-0.972198,-0.096429,0.363271,3.07838,-0.23461300000000002,0.149636,0.342391,0.000298
552,-1.10154,1.342941,2.231696,-0.20144700000000001,-0.974153,-0.10214,0.35638600000000004,2.840307,-0.365747,0.122971,0.403459,-0.008471
553,-1.0616370000000002,1.3546790000000002,2.247405,-0.18721400000000002,-0.9767370000000001,-0.10451300000000001,0.45556599999999997,2.731704,-0.46532799999999996,0.054386000000000004,0.397102,0.0036520000000000003
554,-1.022874,1.366758,2.2623889999999998,-0.172938,-0.9792559999999999,-0.10553499999999999,0.435667,2.613382,-0.428996,-0.001714,0.28109,0.048162
555,-1.000286,1.3759620000000001,2.289606,-0.162916,-0.98108,-0.10454100000000001,0.501324,2.3657209999999997,-0.090662,0.008985,0.218415,0.088351
556,-1.013274,1.3792790000000001,2.3467849999999997,-0.161497,-0.9817170000000001,-0.100694,0.565287,2.0230759999999997,0.292647,0.012221,0.084698,0.11383199999999999
557,-1.044358,1.377185,2.41502,-0.166327,-0.981316,-0.09666,0.434909,1.6776659999999999,0.47057200000000005,0.032691000000000005,-0.137428,0.06904099999999999
558,-1.0525959999999999,1.371107,2.456752,-0.172297,-0.9801280000000001,-0.09824,0.031726,1.669607,0.437856,-0.021291,-0.21399400000000002,-0.012478
559,-1.010143,1.362496,2.4505220000000003,-0.17511600000000002,-0.978384,-0.109948,-0.443421,1.8892650000000002,0.264409,-0.11351900000000001,-0.28276999999999997,-0.097678
560,-0.9398120000000001,1.352522,2.415274,-0.17482899999999998,-0.976273,-0.127735,-0.616981,1.664289,0.199391,-0.431784,-0.143585,-0.244488
561,-0.898085,1.342438,2.399339,-0.17704,-0.974039,-0.141044,-0.29490500000000003,1.103176,0.380753,-0.451347,0.015986,-0.177041
562,-0.908645,1.3354540000000001,2.427516,-0.183881,-0.972435,-0.143346,0.24055900000000002,0.724777,0.505687,-0.383914,0.129142,-0.023951
563,-0.942995,1.331758,2.47792,-0.191604,-0.971566,-0.139057,0.35635100000000003,0.8002130000000001,0.455125,-0.20600900000000003,-0.018333000000000002,0.049701999999999996
564,-0.936278,1.329277,2.491509,-0.192606,-0.9709760000000001,-0.141769,-0.181538,1.072152,0.049368,-0.105001,-0.299807,0.045425
565,-0.874331,1.322279,2.44945,-0.188669,-0.9692780000000001,-0.157777,-0.8961110000000001,1.036675,-0.047422000000000006,-0.09664,-0.505057,0.008409
566,-0.798615,1.303981,2.388818,-0.188871,-0.964615,-0.183943,-1.179902,0.66982,0.298238,0.14286500000000002,-0.395828,0.47595
567,-0.780755,1.294967,2.376118,-0.191668,-0.9622,-0.193456,0.189822,0.129222,0.036101999999999995,0.29999000000000003,-0.320775,0.68067
568,-0.8353450000000001,1.317045,2.433286,-0.186136,-0.9679780000000001,-0.16841199999999998,1.790803,0.101851,-0.36715,0.473016,-0.427225,0.792573
569,-0.918126,1.3441370000000001,2.5328880000000003,-0.178516,-0.9744229999999999,-0.136462,1.526119,1.183411,-0.214425,0.062717,-0.15662,0.48550699999999997
570,-0.93914,1.35033,2.5920419999999997,-0.17646900000000001,-0.9757959999999999,-0.129114,0.23112800000000003,2.0951459999999997,0.40988500000000005,-0.041319999999999996,0.057079,0.406702
571,-0.938386,1.33696,2.634943,-0.18688,-0.972785,-0.13694800000000001,0.0836,2.131685,0.9899209999999999,-0.226923,0.211432,0.37606799999999996
572,-0.9827540000000001,1.3279379999999998,2.7249529999999997,-0.20006500000000002,-0.9706549999999999,-0.133388,0.949127,2.100282,0.899867,-0.10646800000000001,0.103894,0.158748
573,-1.058801,1.328682,2.8428869999999997,-0.20899099999999998,-0.970833,-0.117449,1.276735,1.8053119999999998,0.588476,0.001426,0.104424,0.145205
574,-1.1171870000000002,1.333518,2.936413,-0.211265,-0.971981,-0.102995,0.9607399999999999,1.5132889999999999,0.098465,0.17798599999999998,0.093731,0.132231
575,-1.137306,1.34429,2.98582,-0.20378,-0.974457,-0.09432,0.618821,1.358892,-0.420745,0.30195500000000003,-0.004974,0.090597
576,-1.124034,1.3565610000000001,3.00008,-0.191709,-0.977139,-0.091842,0.28079299999999996,1.328393,-0.492501,0.32357600000000003,-0.002506,0.024581
577,-1.1004399999999999,1.363229,2.999001,-0.183677,-0.978535,-0.09338400000000001,0.073936,0.994267,-0.13993599999999998,0.186591,0.17812,0.057312
578,-1.093071,1.361394,3.007888,-0.184578,-0.9781549999999999,-0.09556,0.024881999999999998,0.689217,0.2639,-0.000389,0.191778,0.11161199999999999
579,-1.101811,1.3532950000000001,3.02772,-0.192467,-0.97644,-0.09752100000000001,-0.011587,0.461271,0.555562,-0.094063,0.182861,0.133974
580,-1.1164100000000001,1.341948,3.051238,-0.20381400000000002,-0.973928,-0.09955800000000001,-0.012205,0.405549,0.637882,-0.287275,0.140158,0.179545
581,-1.131831,1.331407,3.077098,-0.214608,-0.971483,-0.100762,0.078408,0.545114,0.556083,-0.249473,0.169389,0.183831
582,-1.1426459999999998,1.325152,3.1008139999999997,-0.22120900000000002,-0.969981,-0.10095599999999999,0.145002,0.6300520000000001,0.303271,-0.192167,0.182505,0.174061
583,-1.1440350000000001,1.322843,3.114887,-0.223387,-0.969417,-0.101576,0.069906,0.5958829999999999,0.12226,-0.017763,0.245952,0.042753
584,-1.135229,1.321019,3.1168259999999997,-0.22408699999999998,-0.968967,-0.10428499999999999,-0.072365,0.483576,0.092568,0.076062,0.268955,-0.061486
585,-1.1201299999999998,1.317356,3.10913,-0.225681,-0.9680549999999999,-0.109202,-0.214169,0.319805,0.145199,0.108127,0.271293,-0.098013
586,-1.102065,1.311718,3.095473,-0.228537,-0.966626,-0.11572400000000001,-0.31193899999999997,0.20706799999999997,0.184185,0.08164099999999999,0.235959,-0.10766400000000001
587,-1.081577,1.306086,3.077629,-0.23092100000000002,-0.965168,-0.122939,-0.340758,0.13288599999999998,0.112508,-0.025747000000000003,0.184864,-0.032106
588,-1.0616299999999999,1.302129,3.058209,-0.231756,-0.964126,-0.129381,-0.294979,0.006381,0.007234999999999999,-0.074916,0.172194,0.027864
589,-1.046202,1.3007440000000001,3.0402869999999997,-0.230888,-0.963757,-0.13360999999999998,-0.21842899999999998,-0.14796700000000002,-0.088172,-0.125329,0.145108,0.090931
590,-1.029742,1.2997610000000002,3.0194810000000003,-0.22946799999999998,-0.9634940000000001,-0.137879,-0.314571,-0.174268,-0.087742,-0.153298,0.14899500000000002,0.018113
591,-1.006834,1.296476,2.992896,-0.228924,-0.9626100000000001,-0.14479,-0.417067,-0.11456199999999998,-0.011622,-0.16228099999999998,0.145852,-0.012406
592,-0.989826,1.291372,2.973698,-0.230533,-0.9612139999999999,-0.151358,-0.294588,-0.035602999999999996,0.116251,-0.18678,0.150851,0.0035
593,-0.988611,1.287405,2.973761,-0.23353200000000002,-0.9601129999999999,-0.15373299999999998,0.017386000000000002,0.13347,0.188716,-0.263202,0.179473,0.029542000000000002
594,-1.000159,1.286737,2.991275,-0.235832,-0.9599260000000001,-0.151373,0.253318,0.34699800000000003,0.132406,-0.281945,0.18551199999999998,0.014440999999999999
595,-1.005954,1.288108,3.007344,-0.235593,-0.960309,-0.149299,0.175818,0.561822,0.023699,-0.349841,0.162427,-0.064675
596,-0.9934360000000001,1.2891700000000001,3.008648,-0.23285100000000003,-0.9606049999999999,-0.15168,-0.025663,0.742927,-0.06980700000000001,-0.395094,0.142032,-0.067925
597,-0.9748600000000001,1.289599,3.00452,-0.22965300000000002,-0.960724,-0.155747,-0.042339999999999996,0.729543,-0.171388,-0.34128600000000003,0.154419,-0.04518
598,-0.9626819999999999,1.291775,3.005587,-0.22602199999999997,-0.961325,-0.15733699999999998,0.14191099999999998,0.655407,-0.17321,-0.197166,0.236884,0.12358499999999999
599,-0.9689620000000001,1.297806,3.024337,-0.222221,-0.9629690000000001,-0.152629,0.562487,0.536483,-0.101754,0.037926,0.439486,0.45078599999999996
600,-1.018745,1.30958,3.084404,-0.21986999999999998,-0.966076,-0.135425,1.2302549999999999,0.35486999999999996,-0.018877,0.20365,0.41433400000000004,0.573581
601,-1.098159,1.323955,-3.107325,-0.21753000000000003,-0.9696889999999999,-0.111221,1.330743,0.507375,-0.14869300000000002,0.575242,-0.048271,0.639022
602,-1.159133,1.337289,-3.031463,-0.212031,-0.9728610000000001,-0.092575,0.9106700000000001,0.739214,-0.219223,0.7991590000000001,-0.393854,0.200165
603,-1.160742,1.3417629999999998,-3.01179,-0.208186,-0.973886,-0.090498,-0.16054100000000002,0.931743,-0.018649000000000002,0.758402,-0.601935,-0.037432
604,-1.088013,1.328098,-3.068177,-0.21283000000000002,-0.970693,-0.111555,-1.24558,0.859434,0.622276,0.43449399999999994,-1.491847,-0.327959
605,-1.0230059999999999,1.2919129999999999,-3.1203060000000002,-0.23498200000000002,-0.961363,-0.14335499999999998,-1.488056,0.577272,1.59623,0.071362,-1.704362,-0.325669
606,-1.026142,1.247112,-3.111582,-0.272023,-0.9480700000000001,-0.164785,-0.705069,0.125026,2.1246400000000003,-0.18479500000000001,-1.309361,-0.039637
607,-1.084143,1.207343,-3.049757,-0.314215,-0.934675,-0.16625,0.23564200000000002,-0.050268,2.2553490000000003,-0.504358,0.029157,0.173681
608,-1.1512040000000001,1.177907,-2.98106,-0.349632,-0.9238069999999999,-0.15596500000000002,0.619851,-0.231015,1.569261,-0.5364,0.43577,0.131872
609,-1.209381,1.166772,-2.921566,-0.367709,-0.919486,-0.13900099999999999,1.003649,-0.095213,0.577253,-0.376492,0.594657,0.10120499999999999
610,-1.26158,1.173081,-2.8641389999999998,-0.368927,-0.921948,-0.11785899999999999,1.195765,0.115952,-0.18118099999999998,-0.155136,0.5559810000000001,0.056991999999999994
611,-1.29285,1.1864709999999998,-2.820638,-0.360526,-0.9270520000000001,-0.10287,0.79225,0.701324,-0.49773900000000004,-0.054254,0.429875,-0.077916
612,-1.28165,1.201059,-2.8095220000000003,-0.346351,-0.932422,-0.10303399999999999,0.179123,1.253024,-0.7366689999999999,0.026069,0.317081,-0.144342
613,-1.2343469999999999,1.2169450000000002,-2.830041,-0.32706599999999997,-0.938045,-0.11439,-0.245806,1.468331,-0.931125,0.154901,0.269115,-0.15218099999999998
614,-1.1637440000000001,1.2319120000000001,-2.872911,-0.30525399999999997,-0.943126,-0.131604,-0.45768500000000006,1.5405389999999999,-0.956198,0.27055500000000005,0.246044,-0.151278
615,-1.0902969999999998,1.244192,-2.915772,-0.284481,-0.9471370000000001,-0.148285,-0.275275,1.7244950000000001,-0.763948,0.261166,0.300119,-0.153198
616,-1.0339559999999999,1.252253,-2.936626,-0.269109,-0.949693,-0.160159,0.004107,1.876309,-0.342357,0.22273800000000002,0.377198,-0.123045
617,-1.002522,1.253655,-2.929375,-0.262821,-0.950131,-0.167821,0.189612,1.920325,0.210085,0.188648,0.385083,-0.069972
618,-0.9960190000000001,1.246526,-2.8975459999999997,-0.267403,-0.947883,-0.173205,0.23761500000000002,1.76345,0.77037,0.177696,0.377342,-0.029829
619,-1.00409,1.231476,-2.8542650000000003,-0.28079699999999996,-0.942981,-0.17868,0.14868199999999998,1.56523,1.133198,0.192876,0.390033,0.011871
620,-1.013987,1.212257,-2.8123139999999998,-0.297885,-0.9364100000000001,-0.185437,0.070049,1.4513049999999998,1.1862059999999999,0.20976599999999998,0.409021,0.020932
621,-1.0162799999999999,1.197661,-2.781091,-0.309898,-0.9311889999999999,-0.191931,0.123528,1.21771,0.682678,0.116584,0.22267800000000001,0.029624
622,-1.0152649999999999,1.196199,-2.762514,-0.31085999999999997,-0.9306549999999999,-0.192964,0.336687,0.7179939999999999,-0.008468999999999999,0.036522000000000006,0.085471,0.048539
623,-1.015716,1.2063760000000001,-2.75335,-0.30288000000000004,-0.9343309999999999,-0.187822,0.400751,0.248854,-0.491324,0.10122,-0.100734,0.198716
624,-1.008125,1.218524,-2.758914,-0.291823,-0.938591,-0.18404600000000002,0.132614,0.072287,-0.592316,0.191833,-0.061012000000000004,0.233805
625,-0.9954040000000001,1.23015,-2.772559,-0.28028400000000003,-0.9425389999999999,-0.181793,0.182186,-0.089668,-0.627013,0.262615,-0.022656,0.296234
626,-0.99211,1.245642,-2.778523,-0.267426,-0.947601,-0.174707,0.400478,-0.06969,-0.750496,0.24456799999999998,-0.10687200000000001,0.373026
627,-0.977369,1.2614809999999999,-2.78986,-0.252344,-0.952542,-0.170214,0.194444,0.37101300000000004,-0.757841,0.12088900000000001,-0.154101,0.349398
628,-0.943758,1.276142,-2.8141119999999997,-0.23514699999999997,-0.956902,-0.17038399999999998,0.148777,0.534644,-0.879079,-0.28729899999999997,-0.507606,0.389119
629,-0.892136,1.2938690000000002,-2.857669,-0.21280100000000002,-0.9619,-0.17161300000000002,-0.175451,0.5230229999999999,-1.154794,-0.640058,-1.038985,-0.27575900000000003
630,-0.817426,1.297228,-2.931681,-0.19704100000000002,-0.9628129999999999,-0.184807,-0.735897,-0.223739,-0.402518,-0.450862,-1.162523,-0.382103
631,-0.833485,1.289787,-2.93067,-0.20528200000000002,-0.9607760000000001,-0.18643099999999999,0.087051,-0.8801370000000001,0.528083,-0.046656,-0.307992,-0.291184
632,-0.8889950000000001,1.2854219999999998,-2.888434,-0.218563,-0.959556,-0.177396,0.33426300000000003,-0.677665,0.562665,-0.06515900000000001,0.19353499999999998,-0.23578200000000002
633,-0.9372360000000001,1.277822,-2.848536,-0.23273400000000002,-0.9573889999999999,-0.170962,0.157878,-0.343256,0.7372609999999999,0.040672,0.336814,-0.168744
634,-0.9789770000000001,1.266145,-2.804776,-0.248928,-0.953952,-0.167328,0.244073,0.201383,0.857874,-0.123799,0.583712,0.018295
635,-1.01512,1.256553,-2.758649,-0.262574,-0.951031,-0.163044,0.35785700000000004,0.451896,0.716275,-0.371871,0.455654,0.027469
636,-1.035849,1.250108,-2.7276759999999998,-0.27116599999999996,-0.9490190000000001,-0.160688,0.138158,0.398509,0.405024,-0.421706,0.35533000000000003,0.045103
637,-1.036974,1.245692,-2.72002,-0.274951,-0.947617,-0.16251300000000002,-0.05349400000000001,0.26477399999999995,0.18273499999999998,-0.38148200000000004,0.12344400000000001,0.20359000000000002
638,-1.031158,1.244951,-2.720689,-0.274604,-0.9473799999999999,-0.164471,-0.005334,0.264631,-0.089325,-0.297051,-0.024131,0.134884
639,-1.014622,1.250612,-2.733926,-0.267288,-0.9491780000000001,-0.166155,-0.071339,0.11421600000000001,-0.511541,-0.216736,-0.108775,0.07913400000000001
640,-0.9873049999999999,1.2607709999999999,-2.765971,-0.254589,-0.952326,-0.168072,-0.19167599999999999,-0.32961999999999997,-0.769254,0.21094899999999997,-0.274099,-0.015979
641,-0.960557,1.27013,-2.806063,-0.24268800000000001,-0.955139,-0.169705,-0.230111,-0.693217,-0.651552,0.420605,-0.082901,0.071927
642,-0.956269,1.2754729999999999,-2.828221,-0.237785,-0.956708,-0.1678,-0.010104,-0.936421,-0.229893,0.478538,0.061521000000000006,0.181975
643,-0.9922559999999999,1.277555,-2.811932,-0.242,-0.957312,-0.158046,0.42715699999999995,-1.029113,0.193091,0.41877299999999995,0.527365,0.360057
644,-1.06015,1.278565,-2.759433,-0.25132,-0.9576030000000001,-0.140791,0.794459,-0.755328,0.40467800000000004,0.408302,0.769325,0.273375
645,-1.126454,1.277859,-2.6990279999999998,-0.260706,-0.9574,-0.12412100000000001,0.646414,-0.190352,0.438171,0.385874,0.8560200000000001,0.172644
646,-1.157778,1.272146,-2.665338,-0.269471,-0.955735,-0.11808900000000001,0.13128499999999999,0.152068,0.501432,0.241669,0.621903,0.029983999999999997
647,-1.159668,1.261408,-2.6559049999999997,-0.279087,-0.95252,-0.121674,-0.17252,0.494888,0.548009,0.160374,0.015783000000000002,0.074891
648,-1.1364610000000002,1.252171,-2.668417,-0.28415799999999997,-0.949667,-0.13181500000000002,-0.588534,0.571511,0.129466,-0.08248,-1.2272129999999999,-0.257132
649,-1.050866,1.2471729999999999,-2.7466909999999998,-0.275966,-0.948089,-0.15798199999999998,-1.4586290000000002,0.42939099999999997,-0.603888,-0.831594,-2.061539,-0.49605600000000005
650,-0.984749,1.24274,-2.818906,-0.268424,-0.9466700000000001,-0.17819200000000002,-0.8286899999999999,-0.461901,-0.171057,-0.384103,-1.423203,-0.088974
651,-0.977173,1.236009,-2.8416,-0.27234200000000003,-0.9444799999999999,-0.183781,-0.271708,-0.7987270000000001,0.194324,-0.046918,-0.362298,0.095325
652,-1.0339040000000002,1.231423,-2.806037,-0.286043,-0.9429629999999999,-0.170257,0.830132,-1.309505,0.69833,0.038256,0.43576099999999995,0.065963
653,-1.134993,1.228594,-2.717542,-0.304181,-0.942018,-0.141646,1.271939,-0.47519300000000003,0.797555,-0.188891,0.6666880000000001,-0.026963
654,-1.187147,1.222056,-2.65726,-0.31685599999999997,-0.9398040000000001,-0.127899,0.47603199999999996,0.586961,0.669925,-0.254479,0.643417,-0.211258
655,-1.177634,1.2119719999999998,-2.646387,-0.324363,-0.9363100000000001,-0.13453099999999998,-0.258459,1.1456819999999999,0.378864,-0.130624,0.660248,-0.21555100000000002
656,-1.133171,1.208322,-2.669635,-0.321156,-0.9350219999999999,-0.150264,-0.5144489999999999,1.076383,-0.183652,-0.016551,0.54455,-0.173192
657,-1.080526,1.211665,-2.705476,-0.31004499999999996,-0.9362030000000001,-0.165482,-0.45056499999999994,0.8881399999999999,-0.58248,0.061814999999999995,0.44680699999999995,-0.12324500000000001
658,-1.0306959999999998,1.221091,-2.742627,-0.293836,-0.939474,-0.176174,-0.224519,0.664424,-0.776099,0.152586,0.362493,-0.05449299999999999
659,-0.998519,1.234518,-2.765181,-0.277385,-0.943989,-0.178688,0.20660599999999998,0.477451,-0.746142,0.218852,0.15968800000000002,0.014197999999999999
660,-0.999432,1.2500870000000002,-2.756782,-0.265152,-0.9490120000000001,-0.170465,0.733579,0.285857,-0.443114,0.281968,-0.084008,0.063058
661,-1.045166,1.263098,-2.703944,-0.261965,-0.953033,-0.151956,1.18976,0.200273,0.050496,0.364137,-0.16735899999999998,0.180902
662,-1.121024,1.269986,-2.620405,-0.266808,-0.955097,-0.128808,1.2690780000000002,0.149615,0.395083,0.40831799999999996,-0.120923,0.365915
663,-1.196006,1.27357,-2.541736,-0.272519,-0.956152,-0.107205,0.9908469999999999,-0.055050999999999996,0.137028,0.338498,-0.022882,0.491101
664,-1.221919,1.282418,-2.5154900000000002,-0.267242,-0.958706,-0.097211,0.166102,-0.001621,-0.520416,0.14240999999999998,-0.124195,0.41947700000000004
665,-1.179022,1.295002,-2.560425,-0.251657,-0.962209,-0.103967,-0.623851,-0.055735,-0.9542219999999999,-0.187048,-0.386637,0.208398
666,-1.096354,1.304837,-2.650277,-0.233783,-0.964841,-0.12006300000000002,-0.97955,-0.290313,-0.8581290000000001,-0.330945,-0.47697700000000004,0.204459
667,-1.0110620000000001,1.3038319999999999,-2.7444040000000003,-0.22352800000000003,-0.964576,-0.140058,-1.176568,-0.233902,-0.407699,-0.45040699999999995,-0.5872430000000001,0.102628
668,-0.9493010000000001,1.294309,-2.815762,-0.22191599999999997,-0.9620200000000001,-0.158929,-0.858626,-0.48931099999999994,0.050980000000000004,-0.13691,-0.366379,-0.19206900000000002
669,-0.963176,1.2838,-2.812141,-0.232388,-0.9590989999999999,-0.161599,0.079955,-0.431066,0.6545979999999999,-0.055973,-0.038948,-0.139579
670,-1.019185,1.274091,-2.75668,-0.248989,-0.956305,-0.15320899999999998,0.5383439999999999,0.008277,0.94352,0.017574,0.137442,-0.11539200000000001
671,-1.088445,1.262686,-2.6819330000000003,-0.26864,-0.952908,-0.14066099999999998,0.752778,0.156064,1.095448,0.026498,0.464871,-0.008981999999999999
672,-1.153432,1.248681,-2.606766,-0.289381,-0.9485680000000001,-0.128316,0.6983699999999999,0.428825,1.1299700000000001,-0.100375,0.40794899999999995,-0.044414
673,-1.19297,1.235388,-2.555773,-0.305921,-0.944276,-0.12141800000000001,0.35835500000000003,0.36864600000000003,0.756999,-0.228793,0.328019,-0.033992
674,-1.207575,1.227218,-2.538383,-0.314863,-0.9415549999999999,-0.119675,-0.005503,-0.052413,0.342663,-0.326342,0.194134,0.180527
675,-1.204974,1.224183,-2.5433310000000002,-0.317218,-0.9405290000000001,-0.12151500000000001,-0.184326,-0.088667,-0.026008,-0.268201,0.025138999999999998,0.22542800000000002
676,-1.189125,1.2275989999999999,-2.561197,-0.312268,-0.941683,-0.125329,-0.238938,-0.053861,-0.423813,-0.15198,-0.100721,0.198434
677,-1.159604,1.237208,-2.595744,-0.300124,-0.944873,-0.130869,-0.42691899999999994,-0.220081,-0.7838350000000001,0.062041,-0.044629,0.171152
678,-1.1151309999999999,1.247499,-2.6488259999999997,-0.285261,-0.9481930000000001,-0.139796,-0.619309,-0.31203200000000003,-0.798948,0.185118,0.049435,0.036173000000000004
679,-1.075844,1.252732,-2.6975860000000003,-0.275181,-0.949842,-0.148533,-0.478325,-0.381131,-0.42506499999999997,0.19905499999999998,0.157423,0.016133
680,-1.0675729999999999,1.253183,-2.716087,-0.273568,-0.949983,-0.150598,-0.086049,-0.515204,-0.004479,0.23966300000000001,0.330385,0.107293
681,-1.0958729999999999,1.252212,-2.697321,-0.27854,-0.94968,-0.143218,0.449379,-0.527698,0.257787,0.316519,0.41322600000000004,0.175674
682,-1.15467,1.25334,-2.646626,-0.285493,-0.950033,-0.12617,0.8599959999999999,-0.530305,0.287364,0.381303,0.585088,0.163401
683,-1.215601,1.254792,-2.593116,-0.29135300000000003,-0.950485,-0.108071,0.680238,-0.47083800000000003,0.224075,0.28679099999999996,0.46307299999999996,0.083199
684,-1.2435129999999999,1.251975,-2.569322,-0.29678899999999997,-0.949606,-0.100758,0.063978,-0.07269500000000001,0.292968,0.23053600000000002,0.321096,0.026676
685,-1.227511,1.243319,-2.57785,-0.302869,-0.946857,-0.10825699999999999,-0.47299300000000005,0.661706,0.385484,0.06199400000000001,-0.675763,-0.17840999999999999
686,-1.1515090000000001,1.230054,-2.637317,-0.305223,-0.942507,-0.136043,-1.589126,1.1043610000000001,0.146385,-0.466246,-1.615797,-0.5282479999999999
687,-1.0712,1.2148139999999998,-2.711291,-0.3059,-0.9373049999999999,-0.166953,-1.055029,0.10416800000000001,0.190921,-0.709893,-1.7915009999999998,-0.402581
688,-1.0820290000000001,1.2061030000000001,-2.711465,-0.314887,-0.934233,-0.167459,0.172741,-0.8801129999999999,0.449654,-0.090783,-0.728441,0.064111
689,-1.144383,1.201282,-2.672029,-0.328807,-0.9325030000000001,-0.149373,0.714648,-1.484383,0.57706,0.059184,0.07798,0.12338699999999998
690,-1.226605,1.200668,-2.6145150000000004,-0.340503,-0.9322809999999999,-0.122057,1.020211,-1.244428,0.245601,0.052828999999999994,0.35436999999999996,0.087938
691,-1.27778,1.2066,-2.574302,-0.340999,-0.9344100000000001,-0.10288,0.535456,-0.338708,-0.191575,-0.06897400000000001,0.558312,-0.171244
692,-1.274184,1.211074,-2.5762490000000002,-0.33662600000000004,-0.935995,-0.10288199999999999,-0.253217,0.307516,-0.20752600000000002,-0.06584,0.608358,-0.292641
693,-1.227308,1.2122760000000001,-2.6145009999999997,-0.330376,-0.936417,-0.118165,-0.7856350000000001,0.646511,-0.33773000000000003,-0.067192,0.556244,-0.260818
694,-1.162207,1.213254,-2.6701900000000003,-0.321148,-0.93676,-0.139043,-0.899439,0.628123,-0.435709,-0.054904999999999995,0.533088,-0.204906
695,-1.100236,1.215457,-2.72273,-0.310081,-0.937528,-0.157729,-0.6781189999999999,0.66279,-0.505779,0.031806,0.513029,-0.153504
696,-1.058011,1.2200959999999998,-2.753756,-0.299352,-0.939132,-0.168542,-0.140929,0.643483,-0.405862,0.12148099999999999,0.463074,-0.051428999999999996
697,-1.052924,1.227025,-2.746179,-0.29283000000000003,-0.9414899999999999,-0.16683699999999999,0.546817,0.589921,-0.128593,0.078627,0.228035,-0.0087
698,-1.089137,1.2358879999999999,-2.695812,-0.291271,-0.94444,-0.152254,1.157007,0.546469,0.085097,-0.010151,-0.169939,0.048677
699,-1.1528530000000001,1.243765,-2.617485,-0.293566,-0.947,-0.130375,1.352207,0.48114300000000004,0.268142,0.084139,-0.330725,0.21841799999999997
700,-1.221675,1.247482,-2.537081,-0.298525,-0.9481879999999999,-0.108673,1.147708,0.34539899999999996,0.29252399999999995,0.18645,-0.289514,0.25793499999999997
701,-1.267696,1.251142,-2.4829939999999997,-0.299894,-0.9493440000000001,-0.093788,0.698264,0.168349,-0.062901,0.45626700000000003,-0.08268400000000001,0.417671
702,-1.283323,1.260636,-2.465896,-0.292666,-0.952285,-0.08653,0.185388,-0.004779,-0.544825,0.46679899999999996,-0.024232,0.397505
703,-1.255147,1.273976,-2.494382,-0.27801,-0.9562709999999999,-0.090789,-0.43803400000000003,0.059447,-0.880411,0.17808,0.11967799999999999,0.215942
704,-1.186034,1.2871920000000001,-2.565159,-0.259339,-0.960053,-0.105018,-0.813038,0.082452,-0.980268,0.039475,-0.014831,0.23188000000000003
705,-1.107726,1.298094,-2.644342,-0.240948,-0.963047,-0.1203,-0.802163,0.22159,-0.886367,-0.324817,-0.441326,0.123276
706,-1.0163950000000002,1.298271,-2.729984,-0.22882800000000003,-0.963094,-0.14168499999999998,-1.069523,0.44380699999999995,-0.282837,-0.52282,-0.968562,-0.214547
707,-0.9866959999999999,1.285513,-2.758848,-0.23475300000000002,-0.9595819999999999,-0.155182,-0.305763,-0.11957999999999999,0.6162529999999999,-0.215946,-0.773221,-0.236236
708,-1.033817,1.275376,-2.710277,-0.25014899999999995,-0.95668,-0.148921,0.608835,0.138496,0.818864,-0.253422,-0.103806,-0.252171
709,-1.097718,1.269903,-2.638773,-0.263804,-0.9550719999999999,-0.135027,0.8357629999999999,0.186119,0.700747,-0.125219,0.199579,-0.25263800000000003
710,-1.160348,1.2667030000000001,-2.571678,-0.274538,-0.954119,-0.119469,0.8381790000000001,0.014481,0.46490699999999996,-0.051739999999999994,0.32466300000000003,-0.074501
711,-1.2142620000000002,1.2680719999999999,-2.515997,-0.279354,-0.954528,-0.104046,0.7305,-0.0637,0.129901,-0.114033,0.343856,0.026043
712,-1.245131,1.271587,-2.486557,-0.27925,-0.95557,-0.0943,0.286021,-0.194413,-0.096294,-0.09781000000000001,0.359455,0.099427
713,-1.246142,1.2751,-2.489853,-0.276161,-0.9566,-0.092946,-0.125131,-0.163743,-0.21670999999999999,-0.03141,0.29185,0.143559
714,-1.2257129999999998,1.27756,-2.510226,-0.271989,-0.957313,-0.097771,-0.288956,0.187273,-0.209758,-0.065322,0.150886,0.101372
715,-1.19003,1.279874,-2.540994,-0.266271,-0.9579799999999999,-0.106589,-0.42119700000000004,0.32772399999999996,-0.319821,-0.073405,0.016909,0.024496
716,-1.14466,1.283823,-2.583968,-0.257716,-0.9591049999999999,-0.11699100000000001,-0.526046,0.108197,-0.47516400000000003,-0.007481,-0.118868,-0.011366
717,-1.096432,1.287588,-2.636902,-0.24856199999999998,-0.9601639999999999,-0.127629,-0.59929,-0.279326,-0.47090600000000005,0.105129,-0.122172,-0.013713
718,-1.065302,1.288809,-2.679255,-0.24344200000000002,-0.9605040000000001,-0.134735,-0.388371,-0.580372,-0.22547399999999998,0.300236,0.156824,0.13505599999999998
719,-1.075143,1.28791,-2.684005,-0.245517,-0.960254,-0.132744,0.146763,-0.807342,0.125727,0.263126,0.44452200000000003,0.270836
720,-1.1355030000000002,1.2882879999999999,-2.6393169999999997,-0.25274800000000003,-0.960359,-0.117539,0.799614,-0.878542,0.31518,0.294496,0.6683060000000001,0.29953
721,-1.221841,1.2902770000000001,-2.564808,-0.26014499999999996,-0.9609120000000001,-0.094653,1.018764,-0.593611,0.26614,0.276884,0.7620899999999999,0.142016
722,-1.281217,1.291998,-2.5082009999999997,-0.263718,-0.9613870000000001,-0.078576,0.547188,-0.033161,0.11364500000000001,0.221375,0.590766,-0.016578
723,-1.2846739999999999,1.289517,-2.499469,-0.266276,-0.960701,-0.078337,-0.18102100000000002,0.398329,0.198804,0.10853099999999999,0.193413,-0.031099
724,-1.246456,1.281406,-2.523425,-0.270467,-0.958418,-0.090935,-0.550376,0.966841,0.33863699999999997,-2.5e-05,-0.603823,-0.056389
725,-1.184028,1.269052,-2.5651029999999997,-0.275213,-0.9548200000000001,-0.11208900000000001,-0.9719,1.1834879999999999,0.33862,-0.524699,-1.451018,-0.375963
726,-1.108696,1.253163,-2.621608,-0.279544,-0.9499770000000001,-0.139232,-1.069389,0.9692540000000001,0.451445,-0.690396,-1.626439,-0.385579
727,-1.070589,1.2368540000000001,-2.646959,-0.287596,-0.944758,-0.157192,-0.517792,0.566511,0.523112,-0.220781,-0.874868,0.016796000000000002
728,-1.0761319999999999,1.228437,-2.639226,-0.295452,-0.9419649999999999,-0.159365,0.199883,-0.31553000000000003,0.432047,-0.027104000000000003,-0.22023600000000002,0.027987
729,-1.1430200000000001,1.226473,-2.586227,-0.307126,-0.9413040000000001,-0.14002799999999999,1.068202,-1.01223,0.480666,0.015972999999999998,0.2842,-0.038789
730,-1.2298120000000001,1.2287219999999999,-2.510942,-0.31611100000000003,-0.942061,-0.11217,1.1403809999999999,-0.571759,0.290462,-0.051702,0.5511,-0.150617
731,-1.269551,1.228897,-2.471668,-0.32016,-0.942119,-0.099474,0.273431,0.113534,0.16281900000000002,-0.015244,0.608822,-0.249189
732,-1.246583,1.225468,-2.4862580000000003,-0.32085199999999997,-0.9409639999999999,-0.107829,-0.5856640000000001,0.633737,0.021556,-0.006221,0.517334,-0.241765
733,-1.1873799999999999,1.2211239999999999,-2.53252,-0.317697,-0.939485,-0.128153,-0.8464780000000001,0.838758,-0.140762,-0.012503,0.518083,-0.164679
734,-1.131764,1.220748,-2.57321,-0.310402,-0.939356,-0.145764,-0.487121,0.858457,-0.31667,0.07505099999999999,0.530604,-0.086367
735,-1.100502,1.225325,-2.590939,-0.301858,-0.940916,-0.153446,0.025125,0.6298560000000001,-0.3363,0.15773900000000002,0.43101300000000003,0.004382
736,-1.102465,1.234278,-2.5800419999999997,-0.294629,-0.94391,-0.149044,0.56857,0.28477800000000003,-0.292538,0.151319,0.132936,0.06780599999999999
737,-1.140421,1.244759,-2.536791,-0.291066,-0.947319,-0.133621,1.009473,0.104403,-0.056354999999999995,0.153661,-0.169762,0.13250699999999999
738,-1.20248,1.250381,-2.468298,-0.293819,-0.949105,-0.11339300000000001,1.1299299999999999,0.176152,0.27768000000000004,0.258205,-0.292,0.23550900000000002
739,-1.263696,1.251061,-2.399742,-0.299589,-0.949319,-0.09501,0.911233,0.200267,0.29748600000000003,0.36656,-0.28704,0.307488
740,-1.291462,1.253321,-2.367759,-0.300048,-0.9500270000000001,-0.086064,0.218187,0.07881200000000001,-0.16333,0.360092,-0.21318099999999998,0.336018
741,-1.26625,1.259033,-2.3944919999999996,-0.292602,-0.951794,-0.091972,-0.623891,-0.047024,-0.464948,0.191298,-0.013324,0.289299
742,-1.205194,1.263126,-2.460543,-0.28280500000000003,-0.9530420000000001,-0.108261,-0.9449209999999999,-0.115843,-0.5589689999999999,-0.083299,0.158867,0.265488
743,-1.145262,1.26814,-2.524507,-0.271456,-0.954548,-0.123031,-0.6570630000000001,0.02186,-0.612683,-0.42963999999999997,-0.251751,0.374633
744,-1.101618,1.27518,-2.565248,-0.259829,-0.956623,-0.131716,-0.238587,0.383389,-0.542925,-0.576307,-0.45951499999999995,0.244509
745,-1.070154,1.281403,-2.586119,-0.250329,-0.958417,-0.136964,-0.076424,0.5918399999999999,-0.33161999999999997,-0.642204,-0.525103,-0.041213
746,-1.057857,1.286799,-2.594635,-0.244115,-0.959943,-0.137492,0.11139,-0.012159,-0.23125700000000002,-0.003001,-0.128939,-0.22348600000000002
747,-1.070966,1.28993,-2.580418,-0.24325700000000003,-0.960816,-0.132838,0.309314,0.128866,0.027386,-0.0038590000000000005,-0.12806700000000001,-0.22813899999999998
748,-1.09105,1.291239,-2.553259,-0.24475999999999998,-0.9611780000000001,-0.12734600000000001,0.382311,0.39214099999999996,0.192065,0.159021,0.142879,-0.230733
749,-1.118019,1.288125,-2.5155119999999997,-0.250795,-0.9603139999999999,-0.12200799999999999,0.40062800000000004,0.478288,0.477297,0.014559,0.299379,-0.098115
750,-1.1498959999999998,1.281807,-2.4740330000000004,-0.260089,-0.9585319999999999,-0.11642999999999999,0.3837,0.320493,0.525451,0.023853,0.29759800000000003,-0.10369300000000001
751,-1.1755200000000001,1.276742,-2.443975,-0.267464,-0.9570770000000001,-0.111596,0.22352199999999997,0.075829,0.311002,-0.129173,0.28688,0.094109
752,-1.183154,1.2744719999999998,-2.4346400000000004,-0.27031900000000003,-0.9564159999999999,-0.110372,-0.0036130000000000003,0.107379,0.07757,-0.168783,-0.00919,0.10156799999999999
753,-1.166607,1.2733780000000001,-2.446752,-0.269419,-0.956096,-0.11524100000000001,-0.318841,0.32638,-0.07019,-0.177206,-0.089436,0.077201
754,-1.117538,1.2718129999999999,-2.491245,-0.264787,-0.955636,-0.128973,-0.823752,0.27473000000000003,-0.30225,-0.169005,-0.168982,0.040533
755,-1.0404360000000001,1.270467,-2.570656,-0.255176,-0.955239,-0.149636,-1.1515950000000001,-0.081965,-0.593571,-0.07900700000000001,-0.096595,0.019646
756,-0.9691,1.269778,-2.6511270000000002,-0.244405,-0.9550350000000001,-0.16781600000000002,-0.87229,-0.3557,-0.579519,0.080923,0.037370999999999995,0.023346000000000002
757,-0.934625,1.2714,-2.6949110000000003,-0.237229,-0.955515,-0.17522000000000001,-0.23105599999999998,-0.34187199999999995,-0.33150300000000005,0.118379,0.213693,0.094471
758,-0.943924,1.276289,-2.6914580000000004,-0.235062,-0.956945,-0.170264,0.449792,-0.313204,-0.099253,0.158203,0.420782,0.315253
759,-0.99902,1.287598,-2.64228,-0.234965,-0.960167,-0.151195,1.136219,-0.437122,-0.075072,0.230235,0.5376350000000001,0.370372
760,-1.083524,1.301635,-2.5619490000000003,-0.23495300000000002,-0.963994,-0.124499,1.293676,-0.244009,-0.01974,0.24046199999999998,0.5384720000000001,0.233004
761,-1.1473659999999999,1.307552,-2.492075,-0.23721199999999998,-0.965551,-0.10690999999999999,0.69382,0.46424899999999997,0.27105999999999997,0.147231,0.390706,0.0015789999999999999
762,-1.166711,1.300758,-2.455804,-0.24526199999999998,-0.9637610000000001,-0.104878,0.11493099999999999,0.909083,0.6189600000000001,0.12604500000000002,0.13908399999999999,-0.19758199999999998
763,-1.161571,1.2881719999999999,-2.444617,-0.25583,-0.960327,-0.110956,-0.277528,0.644382,0.554601,0.261307,-0.477066,-0.14163800000000001
764,-1.120321,1.276949,-2.476885,-0.26072399999999996,-0.9571370000000001,-0.12609700000000001,-0.8507129999999999,0.495363,0.22284400000000001,-0.09227300000000001,-1.3088549999999999,-0.35425
765,-1.0733540000000001,1.2635450000000001,-2.518343,-0.26576900000000003,-0.953169,-0.144309,-0.75569,0.221575,0.409729,-0.334328,-1.483782,-0.30198
766,-1.063502,1.251212,-2.531094,-0.27459,-0.9493659999999999,-0.15262,-0.293012,-0.355191,0.388063,-0.10031799999999999,-0.421087,0.06488200000000001
767,-1.0951110000000002,1.247005,-2.5178599999999998,-0.282825,-0.9480360000000001,-0.14569400000000002,0.35339499999999996,-1.2665030000000002,0.219625,-0.038937,-0.082741,0.08546799999999999
768,-1.16667,1.250948,-2.470884,-0.289078,-0.949283,-0.123629,0.927909,-1.2606,0.110399,-0.019989,0.584598,0.039385
769,-1.234747,1.253685,-2.416586,-0.294364,-0.95014,-0.10282100000000001,0.6692229999999999,-0.527293,0.23905700000000002,-0.086358,0.712896,-0.090432
770,-1.2491139999999998,1.248381,-2.402647,-0.300588,-0.948473,-0.100173,-0.225329,0.191219,0.352597,-0.10405999999999999,0.6198899999999999,-0.185609
771,-1.209771,1.23911,-2.434084,-0.304629,-0.9454950000000001,-0.11502000000000001,-0.788187,0.615645,0.196434,-0.109662,0.46388199999999996,-0.177842
772,-1.158571,1.232344,-2.472928,-0.304199,-0.94327,-0.13302,-0.600841,0.782034,-0.017183,-0.105149,0.450304,-0.143347
773,-1.12236,1.2333530000000001,-2.4939419999999997,-0.298327,-0.9436040000000001,-0.143533,-0.098083,0.809052,-0.282898,0.032869,0.455323,-0.08595900000000001
774,-1.114768,1.2434209999999999,-2.4879330000000004,-0.288684,-0.946889,-0.141603,0.572695,0.541209,-0.482968,0.14485399999999998,0.329458,-0.006759
775,-1.144091,1.261366,-2.4496,-0.27719499999999997,-0.952507,-0.126024,1.078654,0.266049,-0.575221,0.15776500000000002,0.0053479999999999995,0.049638
776,-1.195957,1.2793219999999998,-2.3914869999999997,-0.267394,-0.9578209999999999,-0.10520399999999999,1.14029,0.146894,-0.401586,0.267074,-0.24844699999999997,0.17063299999999998
777,-1.261399,1.2911290000000002,-2.3216,-0.26291,-0.961147,-0.08404299999999999,1.093962,0.066125,-0.143296,0.38000500000000004,-0.351002,0.305829
778,-1.318926,1.298757,-2.26012,-0.26019899999999996,-0.963225,-0.066958,0.7314350000000001,0.084551,-0.17469400000000002,0.395102,-0.265901,0.414126
779,-1.331599,1.306402,-2.246252,-0.253864,-0.965251,-0.061909000000000006,-0.053047000000000004,0.024283000000000002,-0.406559,0.272571,-0.11211099999999999,0.366398
780,-1.2825389999999999,1.311903,-2.295633,-0.245427,-0.966674,-0.072773,-0.755783,0.072653,-0.43823599999999996,0.005834000000000001,0.015090000000000001,0.221867
781,-1.209731,1.3144959999999999,-2.3686409999999998,-0.23713800000000002,-0.967334,-0.089548,-0.8547040000000001,0.184669,-0.393137,-0.261947,-0.114193,0.20386700000000002
782,-1.13499,1.314165,-2.4392080000000003,-0.23008,-0.967251,-0.10714100000000001,-0.81466,0.41209300000000004,-0.291667,-0.6097640000000001,-0.617604,0.12378800000000001
783,-1.0686200000000001,1.31166,-2.497107,-0.22459099999999999,-0.966612,-0.12333,-0.615161,0.530224,-0.169716,-0.7434270000000001,-0.7824270000000001,-0.072761
784,-1.04934,1.3105069999999999,-2.515151,-0.223138,-0.966316,-0.128192,0.063657,-0.134578,0.058067999999999995,-0.227546,-0.347771,-0.143323
785,-1.082011,1.311883,-2.479959,-0.22603099999999998,-0.966669,-0.12021,0.573964,0.225642,0.109241,-0.027325,-0.008291,-0.16009400000000001
786,-1.12671,1.316794,-2.42785,-0.226888,-0.967915,-0.107949,0.763043,0.263396,0.09449,0.078984,0.116703,-0.214515
787,-1.190359,1.319898,-2.358981,-0.230503,-0.9686899999999999,-0.092183,0.891518,0.08107400000000001,0.28896900000000003,0.24637199999999998,0.396592,-0.140285
788,-1.263787,1.317277,-2.282709,-0.239064,-0.968036,-0.075791,0.774935,0.009179999999999999,0.520051,0.137639,0.410846,-0.069061
