,attitude.roll,attitude.pitch,attitude.yaw,gravity.x,gravity.y,gravity.z,rotationRate.x,rotationRate.y,rotationRate.z,userAcceleration.x,userAcceleration.y,userAcceleration.z
0,-2.751667,-0.42285,-0.576425,-0.346632,0.410361,0.8434520000000001,0.271187,-0.028607,0.014677,0.040404,-0.025869999999999997,-0.05622100000000001
1,-2.75185,-0.427684,-0.5753199999999999,-0.34571999999999997,0.414764,0.841671,0.21000700000000003,-0.064796,0.06023,0.029176,0.006546,-0.0065569999999999995
2,-2.753344,-0.43184799999999995,-0.574997,-0.343805,0.418549,0.8405799999999999,0.200256,-0.09035900000000001,0.067672,0.024515000000000002,0.018767,0.042813
3,-2.755211,-0.435596,-0.574444,-0.341641,0.421951,0.8397600000000001,0.186358,-0.12004400000000001,0.044112,0.022549,0.023254,0.055763
4,-2.758035,-0.43841899999999995,-0.5736939999999999,-0.338821,0.424508,0.839614,0.132929,-0.174046,0.008556,0.021285,0.037725999999999996,0.038682
5,-2.761908,-0.440237,-0.573001,-0.335279,0.426154,0.8402,0.089063,-0.207956,0.001884,0.044752,0.010339,0.011759
6,-2.7661189999999998,-0.441658,-0.573133,-0.331516,0.427439,0.84104,0.046221,-0.195224,0.051775,0.035220999999999995,-0.004343,0.024408000000000003
7,-2.771354,-0.44221400000000005,-0.574979,-0.327022,0.427942,0.842543,-0.027708999999999998,-0.21964499999999998,0.09828200000000001,0.006603,-0.055840999999999995,0.009478
8,-2.777525,-0.442296,-0.578163,-0.321804,0.428016,0.844511,-0.056879,-0.24320999999999998,0.15579300000000001,0.003964,-0.060508000000000006,-0.006911
9,-2.784056,-0.44320600000000004,-0.582701,-0.316145,0.428838,0.8462299999999999,-0.034561,-0.196681,0.222119,0.010466,-0.034581,-0.024498
10,-2.789169,-0.443021,-0.5888979999999999,-0.311842,0.428671,0.847909,-0.17816600000000002,-0.056811,0.26687,-0.011904000000000001,0.007059,0.037436000000000004
11,-2.790798,-0.439166,-0.596001,-0.311026,0.42518500000000004,0.8499629999999999,-0.275454,0.11618099999999999,0.246741,-0.047296,0.027818,0.133772
12,-2.792278,-0.438611,-0.602309,-0.309849,0.424683,0.850643,-0.016633000000000002,0.021528,0.24973800000000002,0.034992,0.08140599999999999,-0.010845
13,-2.793273,-0.441004,-0.60524,-0.308654,0.42684799999999995,0.849993,0.104449,0.004599,0.11600999999999999,0.084609,0.1411,-0.060397
14,-2.7941130000000003,-0.442058,-0.6064470000000001,-0.307787,0.42780100000000004,0.8498290000000001,-0.024607,-0.034177,0.068156,0.074785,0.06518,-0.0038060000000000004
15,-2.796159,-0.440488,-0.609428,-0.306275,0.42638100000000007,0.851088,-0.13915,-0.048977,0.13894600000000001,0.025970999999999998,-0.013966,-0.028852999999999997
16,-2.7999650000000003,-0.440425,-0.6145189999999999,-0.30304200000000003,0.426324,0.8522719999999999,-0.102289,-0.078181,0.217221,-0.012326,-0.04696,-0.06352999999999999
17,-2.804969,-0.44200100000000003,-0.620326,-0.298551,0.427749,0.853143,-0.058864,-0.11575,0.250687,2.8000000000000003e-05,-0.036544,-0.002939
18,-2.810132,-0.4429,-0.626052,-0.29401700000000003,0.42856099999999997,0.854309,-0.062002,-0.116745,0.23571199999999998,-0.008015999999999999,-0.033298,0.030060000000000003
19,-2.814216,-0.443208,-0.630741,-0.290483,0.42883999999999994,0.855377,-0.04253,-0.100658,0.19203,-0.028105,-0.053579999999999996,0.001221
20,-2.817206,-0.444213,-0.634368,-0.287787,0.42974700000000005,0.855833,0.023788,-0.078455,0.17644100000000001,-0.043161,-0.071425,-0.017485
21,-2.819738,-0.44603999999999994,-0.637731,-0.28536999999999996,0.431396,0.8558120000000001,0.043149,-0.043368000000000004,0.176532,-0.045929000000000005,-0.0681,-0.00396
22,-2.8216810000000003,-0.447229,-0.641219,-0.283545,0.432468,0.855877,0.012329999999999999,-0.01875,0.174148,-0.045481,-0.026936,0.035099
23,-2.8234209999999997,-0.44776000000000005,-0.6446390000000001,-0.281983,0.43294799999999994,0.856151,-0.010064,-0.030335,0.16012,-0.041472,0.011678000000000001,0.022557
24,-2.825377,-0.44779300000000005,-0.647629,-0.280304,0.43297700000000006,0.8566879999999999,-0.019724000000000002,-0.067487,0.13553099999999998,-0.023438,0.049185,-0.0048200000000000005
25,-2.827741,-0.44772,-0.650029,-0.27828800000000004,0.432911,0.8573780000000001,-0.010107,-0.094033,0.105722,-0.029604000000000002,0.024868,-0.013781
26,-2.829613,-0.447718,-0.651671,-0.276683,0.432909,0.8578979999999999,-0.004418,-0.047052,0.073655,-0.027822000000000003,-0.022067,-0.007083
27,-2.8301369999999997,-0.448093,-0.6534479999999999,-0.276183,0.43324799999999997,0.8578879999999999,-0.003198,0.019924,0.10669200000000001,-0.022157,-0.010244,-0.035699
28,-2.8310299999999997,-0.44901899999999995,-0.65666,-0.275294,0.43408199999999997,0.8577530000000001,-0.022876,-0.005895,0.18670499999999998,-0.01798,0.035996,-0.060374000000000004
29,-2.833841,-0.44969799999999993,-0.660864,-0.27279200000000003,0.43469300000000005,0.8582420000000001,-0.047879000000000005,-0.102774,0.193063,-0.007909000000000001,0.063292,-0.04649
30,-2.8387119999999997,-0.449417,-0.664736,-0.26864499999999997,0.43443999999999994,0.859677,-0.06840800000000001,-0.200546,0.152453,-0.006517,0.003334,0.012317
31,-2.843368,-0.449042,-0.6676270000000001,-0.264687,0.43410299999999996,0.861073,-0.042482,-0.163215,0.118403,0.023003,-0.032568,0.044765
32,-2.846854,-0.449974,-0.670095,-0.26156599999999997,0.434942,0.8616030000000001,0.014147999999999999,-0.133627,0.129443,0.050812,-0.047002999999999996,0.005768
33,-2.850514,-0.451876,-0.672867,-0.258173,0.436654,0.8617600000000001,0.022591,-0.131616,0.15193199999999998,0.038431,-0.048348,-0.006109000000000001
34,-2.854087,-0.452751,-0.676265,-0.254984,0.43744099999999997,0.862311,-0.029594,-0.0974,0.16541,0.018106,-0.031419,0.015405
35,-2.857557,-0.452147,-0.680285,-0.252064,0.43689799999999995,0.8634430000000001,-0.080693,-0.07272,0.165022,-0.004299,-0.010262,0.027792
36,-2.860431,-0.45094700000000004,-0.684156,-0.249727,0.43581800000000004,0.864667,-0.09104,-0.032079,0.133919,-0.0040880000000000005,0.013065,0.022479
37,-2.86232,-0.449615,-0.68698,-0.24825300000000003,0.434618,0.8656940000000001,-0.079041,-0.023398,0.083785,-0.002022,0.019926,0.0058579999999999995
38,-2.863728,-0.448353,-0.6885760000000001,-0.24718299999999999,0.433482,0.866569,-0.06179400000000001,-0.032849,0.03478,-0.0026030000000000003,0.034154000000000004,0.002205
39,-2.8646380000000002,-0.447222,-0.689104,-0.246529,0.432462,0.867266,-0.055215999999999994,-0.032714,-0.004699,-0.00106,0.036837,-0.0018780000000000001
40,-2.865113,-0.446122,-0.688956,-0.246247,0.43146999999999996,0.86784,-0.044422,-0.026274000000000002,-0.025996,0.003693,0.009997,-0.011761
41,-2.86545,-0.445402,-0.688519,-0.24603899999999998,0.430821,0.8682209999999999,-0.027348,-0.030574,-0.031212,0.016257,0.0031850000000000003,-0.010433
42,-2.86591,-0.44505,-0.687947,-0.24568099999999998,0.43050299999999997,0.8684799999999999,-0.017784,-0.039129000000000004,-0.031135000000000003,0.028426,0.000634,-0.004924
43,-2.866504,-0.444588,-0.687477,-0.245219,0.43008599999999997,0.868818,-0.02742,-0.040187,-0.024791,0.032876999999999997,0.0023940000000000003,-0.003385
44,-2.867163,-0.443985,-0.687357,-0.244716,0.42954200000000003,0.8692290000000001,-0.047719,-0.032714,-0.011056,0.036295999999999995,-0.014091,-0.0008820000000000001
45,-2.867893,-0.442917,-0.687661,-0.244206,0.428576,0.869849,-0.06267400000000001,-0.024191,0.001648,0.036519,-0.015643,0.001565
46,-2.8684849999999997,-0.441644,-0.6881520000000001,-0.243838,0.42742700000000006,0.870518,-0.072228,-0.013505000000000001,0.001567,0.037233999999999996,-0.014646000000000001,0.001048
47,-2.869252,-0.44031000000000003,-0.688773,-0.24332399999999998,0.42622,0.8712540000000001,-0.076414,-0.0017469999999999999,-0.004886,0.025016,-0.004788000000000001,0.008202
48,-2.869326,-0.438675,-0.689087,-0.243446,0.42473999999999995,0.871942,-0.084843,0.01217,-0.014577000000000001,0.020363,-0.005642,0.008047
49,-2.8693299999999997,-0.436787,-0.689365,-0.24365799999999999,0.42303100000000005,0.872714,-0.09439700000000001,0.017551,-0.019992,0.016012000000000002,-0.010647,0.007718000000000001
50,-2.869224,-0.43476899999999996,-0.689546,-0.24398000000000003,0.42120100000000005,0.873508,-0.096492,0.020776,-0.025352,0.01139,-0.017941,0.005581
51,-2.868811,-0.432939,-0.689545,-0.24454800000000002,0.41953999999999997,0.8741479999999999,-0.08039400000000001,0.035658999999999996,-0.031668,0.011531,-0.017943999999999998,0.0030489999999999996
52,-2.868026,-0.431399,-0.689285,-0.245408,0.418142,0.874577,-0.064328,0.044147000000000006,-0.036907999999999996,0.01355,-0.016394,-0.002583
53,-2.867054,-0.429954,-0.6888810000000001,-0.246421,0.416829,0.874919,-0.061094,0.047348,-0.041162,0.014213,-0.015493,-0.004313
54,-2.86597,-0.428464,-0.6884100000000001,-0.24753899999999998,0.41547399999999995,0.8752489999999999,-0.060023,0.04841,-0.041156,0.009165999999999999,-0.016457,-0.003515
55,-2.864961,-0.42710299999999995,-0.687952,-0.24857600000000002,0.414236,0.8755430000000001,-0.052583000000000005,0.044114,-0.038962000000000004,0.005809,-0.015127000000000002,-0.000893
56,-2.864005,-0.425908,-0.6874979999999999,-0.24954899999999997,0.41314799999999996,0.8757799999999999,-0.046196,0.043018,-0.036779,0.000541,-0.012269,-0.000337
57,-2.8630970000000002,-0.42485900000000004,-0.687005,-0.250463,0.41219300000000003,0.875969,-0.037681,0.038727,-0.036714,-0.002482,-0.011588,0.00428
58,-2.862294,-0.424008,-0.686483,-0.251262,0.411416,0.8761049999999999,-0.023841,0.033354,-0.034484,-0.0009199999999999999,-0.017358000000000002,0.005075
59,-2.8614290000000002,-0.423454,-0.685909,-0.252083,0.410912,0.876107,-0.014249000000000001,0.033312,-0.03228,-0.001106,-0.015557,0.0016710000000000002
60,-2.860554,-0.422967,-0.685355,-0.252905,0.41046800000000006,0.876078,-0.011048,0.035422,-0.030124,0.002127,-0.011634,0.00028
61,-2.8596150000000002,-0.422558,-0.6848069999999999,-0.253775,0.41009399999999996,0.876001,-0.008919,0.036472000000000004,-0.027974000000000002,0.002432,-0.009840999999999999,-0.0017640000000000002
62,-2.8586549999999997,-0.422108,-0.6842520000000001,-0.25466700000000003,0.409684,0.875935,-0.011029,0.038622000000000004,-0.031195999999999998,0.00337,-0.006913,-0.001041
63,-2.8577310000000002,-0.42163900000000004,-0.683679,-0.25553000000000003,0.409256,0.875883,-0.01212,0.0333,-0.031197000000000003,0.0026309999999999997,-0.006836,-0.000395
64,-2.856963,-0.421152,-0.6831510000000001,-0.256259,0.408812,0.875878,-0.012158,0.027961,-0.027986,-0.001172,-0.008269,5.3e-05
65,-2.85637,-0.42073999999999995,-0.682724,-0.256826,0.408436,0.8758870000000001,-0.011149,0.019418,-0.023694999999999997,-0.0016129999999999999,-0.009633,0.0007610000000000001
66,-2.855984,-0.420425,-0.682422,-0.2572,0.408148,0.8759110000000001,-0.010149,0.012988,-0.015134,-0.002306,-0.007573999999999999,-0.0014759999999999999
67,-2.855739,-0.42014399999999996,-0.6822560000000001,-0.257447,0.40789200000000003,0.875958,-0.012334999999999999,0.007644,-0.008733,-0.002014,-0.0073939999999999995,-0.003278
68,-2.855602,-0.41984899999999997,-0.682235,-0.2576,0.407622,0.8760389999999999,-0.011307,0.005484,-0.002314,-0.001158,-0.008117000000000001,-0.001588
69,-2.855546,-0.41957700000000003,-0.682272,-0.257681,0.40737399999999996,0.876131,-0.009197,0.0022719999999999997,-0.00015800000000000002,-0.004496,-0.007319,-0.0019089999999999999
70,-2.8555599999999997,-0.419376,-0.682331,-0.257691,0.40719099999999997,0.8762120000000001,-0.008145,-0.000927,-0.000147,-0.001861,-0.006831,-0.000144
71,-2.855672,-0.419245,-0.682392,-0.25760900000000003,0.407071,0.876293,-0.004973,-0.006268999999999999,0.00095,-0.0018670000000000002,-0.005353,0.000248
72,-2.855877,-0.41918999999999995,-0.682431,-0.257436,0.407021,0.876368,0.00139,-0.012691,0.003139,-0.000331,-0.010674,0.00118
73,-2.856036,-0.419329,-0.682373,-0.25728,0.407148,0.8763549999999999,0.012092,-0.009516,-0.0010630000000000001,0.00583,-0.0041329999999999995,0.001437
74,-2.856209,-0.41943400000000003,-0.682276,-0.257117,0.40724299999999997,0.876359,0.0046240000000000005,-0.011612,-0.003249,0.009635,-0.011064000000000001,-0.003617
75,-2.856335,-0.41933000000000004,-0.682198,-0.25701799999999997,0.407149,0.876431,-0.004949,-0.006248,-0.004391,0.011352,-0.013059999999999999,-0.003507
76,-2.856433,-0.41918500000000003,-0.682141,-0.256949,0.407016,0.8765129999999999,-0.0017629999999999998,-0.007333,-0.002231,0.010015999999999999,-0.017215,0.001996
77,-2.856577,-0.41916000000000003,-0.68214,-0.256826,0.406993,0.876561,0.000366,-0.0062829999999999995,-8.1e-05,0.010198,-0.015575,0.009304
78,-2.8566740000000004,-0.419187,-0.6821689999999999,-0.256737,0.407018,0.876574,0.0035859999999999998,8.9e-05,0.00207,0.009667,-0.014669,0.005353
79,-2.856712,-0.419199,-0.68218,-0.256702,0.407029,0.8765799999999999,0.002538,0.00117,-0.001143,0.014972999999999998,-0.01024,-0.000176
80,-2.8567259999999997,-0.419072,-0.682136,-0.256705,0.406913,0.876633,-0.000638,0.002264,-0.0054399999999999995,0.012487999999999999,-0.009406999999999999,0.0017699999999999999
81,-2.856707,-0.418942,-0.6820970000000001,-0.256737,0.406794,0.8766780000000001,-0.003853,0.001201,-0.003324,0.010231,-0.010325,0.001084
82,-2.856743,-0.418788,-0.6820579999999999,-0.256722,0.406654,0.876748,-0.0049299999999999995,-0.001986,-0.004396,0.010186,-0.008689,0.000205
83,-2.856919,-0.41861099999999996,-0.682075,-0.256589,0.406491,0.876863,-0.002801,-0.001998,-0.0033130000000000004,0.006177,-0.009916,-0.000932
84,-2.856985,-0.41854600000000003,-0.682106,-0.256538,0.406432,0.8769049999999999,-0.002815,-0.00095,0.000959,0.004875,-0.009612,-0.0024850000000000002
85,-2.857082,-0.41848,-0.6821689999999999,-0.256461,0.40637199999999996,0.876956,-0.00282,-0.0009539999999999999,0.002027,0.003622,-0.009231999999999999,-0.001864
86,-2.857255,-0.41835600000000006,-0.682308,-0.256323,0.40625900000000004,0.8770479999999999,-0.000696,-0.0009699999999999999,0.004178,0.003256,-0.012323,-4.9e-05
87,-2.857398,-0.418354,-0.682449,-0.25619899999999995,0.40625700000000003,0.877086,-0.0007099999999999999,-0.003105,0.005249,0.002048,-0.010245,0.00066
88,-2.857523,-0.418362,-0.682535,-0.256087,0.406264,0.877115,0.001424,-0.005234,0.00313,0.004409000000000001,-0.009017,0.00044800000000000005
89,-2.85765,-0.41833400000000004,-0.6825939999999999,-0.255979,0.40623899999999996,0.877158,0.003572,-0.003107,0.002074,0.005338,-0.012546999999999999,-0.001655
90,-2.857702,-0.41841999999999996,-0.682582,-0.255924,0.406317,0.877138,0.005715,-0.003106,-4.7e-05,0.0036810000000000002,-0.012137,-0.0021379999999999997
91,-2.8577939999999997,-0.418541,-0.682561,-0.255829,0.406428,0.877114,0.008896,-0.005256,0.002114,0.005661,-0.013406999999999999,0.000205
92,-2.857875,-0.41861400000000004,-0.682573,-0.25575,0.406495,0.8771059999999999,0.008916,-0.000995,0.002109,0.0074129999999999995,-0.010987,0.0007769999999999999
93,-2.857904,-0.41881,-0.6825979999999999,-0.255702,0.406674,0.8770370000000001,0.011049,5.7999999999999994e-05,0.003191,0.008845,-0.009549,3.8e-05
94,-2.857905,-0.41898500000000005,-0.682605,-0.255681,0.406833,0.876969,0.007858,0.001139,0.0020989999999999997,0.008855,-0.010318,-0.001405
95,-2.857982,-0.41901099999999997,-0.682678,-0.25561100000000003,0.406857,0.8769790000000001,0.006772,-0.0009960000000000001,0.004229999999999999,0.010478,-0.009564,0.0015609999999999999
96,-2.858037,-0.41911800000000005,-0.682759,-0.25555100000000003,0.406955,0.876951,0.005705,6.8e-05,0.0052899999999999996,0.009976,-0.008304,0.001208
97,-2.8580669999999997,-0.41922,-0.682822,-0.25551199999999996,0.407048,0.876918,0.004647999999999999,0.001142,0.004213000000000001,0.008518000000000001,-0.009008,0.000553
98,-2.858164,-0.419249,-0.682905,-0.255424,0.407075,0.8769319999999999,0.004647999999999999,8.1e-05,0.003146,0.007591,-0.009323999999999999,0.001883
99,-2.85818,-0.419311,-0.682922,-0.25540300000000005,0.407131,0.8769110000000001,0.0035960000000000002,0.001158,0.001001,0.008424,-0.010647,0.002315
100,-2.858218,-0.419365,-0.682932,-0.255363,0.407181,0.876899,0.004658,0.00115,0.002076,0.00898,-0.010498,0.0013050000000000002
101,-2.8582229999999997,-0.41939,-0.682949,-0.25535599999999997,0.40720300000000004,0.876891,0.002529,0.002223,0.00206,0.008256,-0.010841,-0.0014789999999999998
102,-2.8582400000000003,-0.419386,-0.683005,-0.255341,0.4072,0.8768969999999999,0.001471,0.003296,0.000983,0.008347,-0.010853,5.6000000000000006e-05
103,-2.858232,-0.41935100000000003,-0.68306,-0.255352,0.407168,0.876909,0.000405,0.004361,0.002042,0.008145,-0.010653,0.002165
104,-2.8582259999999997,-0.419353,-0.683117,-0.255358,0.40717,0.876906,0.002529,0.0032840000000000005,0.003127,0.007234999999999999,-0.010456,0.0026260000000000003
105,-2.858203,-0.41939799999999994,-0.683176,-0.255373,0.407211,0.876883,0.0035960000000000002,0.00328,0.003134,0.006701,-0.008743,0.002435
106,-2.8581849999999998,-0.419462,-0.683246,-0.25538099999999997,0.407269,0.8768540000000001,0.004667,0.005403,0.004207,0.004588,-0.009198,0.000206
107,-2.858164,-0.41950299999999996,-0.6833199999999999,-0.255395,0.40730700000000003,0.876833,0.0035960000000000002,0.00328,0.003134,0.006295,-0.008395999999999999,0.001463
108,-2.858129,-0.419547,-0.683433,-0.255421,0.40734699999999996,0.876807,0.001452,0.00434,0.006323,0.007252,-0.00865,0.001702
109,-2.858206,-0.41956499999999997,-0.6835859999999999,-0.255351,0.40736300000000003,0.87682,0.0025050000000000003,0.001143,0.007396,0.005107,-0.008987,0.000286
110,-2.858248,-0.419612,-0.683728,-0.255309,0.407406,0.876812,0.001443,0.002212,0.007387,0.005752,-0.007992,-0.001385
111,-2.8583060000000002,-0.419678,-0.683882,-0.255251,0.407467,0.8768,0.0025,0.001139,0.008464,0.0049310000000000005,-0.009197,-0.0012050000000000001
112,-2.858441,-0.419688,-0.68406,-0.255131,0.407476,0.8768309999999999,0.001419,-0.002053,0.008459999999999999,0.0036509999999999997,-0.01122,-0.00042699999999999997
113,-2.858559,-0.41973999999999995,-0.684228,-0.25502199999999997,0.407523,0.876841,0.0035479999999999995,-0.0031260000000000003,0.008477,0.0036030000000000003,-0.009238,0.000585
114,-2.858685,-0.41981499999999994,-0.684348,-0.25490300000000005,0.407591,0.876843,0.004634,-0.003113,0.004211,0.005605,-0.010787,0.0004
115,-2.858766,-0.419912,-0.684416,-0.25482,0.407681,0.876826,0.007839,-0.000998,0.005299,0.004256,-0.012707,0.0018059999999999999
116,-2.858818,-0.420203,-0.6844819999999999,-0.254742,0.40794600000000003,0.876726,0.020632,-0.001051,0.007525,0.005902,-0.000536,0.006895999999999999
117,-2.858803,-0.42053,-0.684433,-0.254718,0.408244,0.8765940000000001,0.017475,0.001121,2.3e-05,0.009861,-0.008676999999999999,0.0024649999999999997
118,-2.8587029999999998,-0.42065699999999995,-0.68437,-0.254792,0.40836,0.876519,0.0036149999999999997,0.002239,-0.001144,0.010346,-0.010091,-0.007912
119,-2.8586419999999997,-0.420628,-0.684295,-0.254848,0.40833400000000003,0.8765149999999999,0.001486,0.001189,-0.0032939999999999996,0.00996,-0.012902,-0.001042
120,-2.858651,-0.42067899999999997,-0.684248,-0.254834,0.408381,0.876497,0.00573,-0.0009689999999999999,-5.6999999999999996e-05,0.008556999999999999,-0.012445999999999999,0.005705
121,-2.858683,-0.42076199999999997,-0.684277,-0.254797,0.408456,0.8764719999999999,0.006792,0.002206,0.004220000000000001,0.006033,-0.013741999999999999,0.001213
122,-2.858633,-0.42086899999999994,-0.6843319999999999,-0.25482899999999997,0.408554,0.876418,0.006806,0.004340999999999999,0.003149,0.008415,-0.010223000000000001,-0.0021809999999999998
123,-2.858613,-0.420911,-0.6843670000000001,-0.254842,0.408592,0.876397,0.001472,0.0032979999999999997,0.002045,0.012959,-0.007683,5.3e-05
124,-2.8586400000000003,-0.420858,-0.684389,-0.254823,0.408544,0.876424,-0.001734,0.000122,-0.00011,0.010301000000000001,-0.008459,0.0031079999999999997
125,-2.8586560000000003,-0.420786,-0.684398,-0.254818,0.408478,0.8764559999999999,-0.000657,0.001188,-0.001172,0.008144,-0.008652,0.000512
126,-2.8586400000000003,-0.420783,-0.684384,-0.254832,0.408476,0.876453,0.001472,0.00011499999999999999,-0.0011560000000000001,0.007059,-0.010374,-0.000293
127,-2.85871,-0.42075200000000007,-0.6844140000000001,-0.254774,0.408447,0.876483,0.000395,0.00011100000000000001,0.000973,0.005415,-0.012054,-0.000156
128,-2.858749,-0.420716,-0.684466,-0.254744,0.408414,0.8765069999999999,-0.000633,0.001194,0.002002,0.007872,-0.011167,-0.000164
129,-2.858768,-0.420691,-0.684502,-0.25473,0.408391,0.8765209999999999,0.00044800000000000005,0.002264,-0.000128,0.006790000000000001,-0.008993000000000001,0.002904
130,-2.858767,-0.42070100000000005,-0.684517,-0.25473,0.4084,0.876517,0.002573,0.001187,0.0009570000000000001,0.007278,-0.011412,0.002191
131,-2.858762,-0.420707,-0.684497,-0.254734,0.408406,0.8765139999999999,0.001515,0.001199,-0.001187,0.006794,-0.009434,0.001675
132,-2.858717,-0.420696,-0.684463,-0.254775,0.408396,0.8765069999999999,0.0015300000000000001,0.0043950000000000005,-0.001191,0.0058579999999999995,-0.009623,0.0009960000000000001
133,-2.858662,-0.420709,-0.684446,-0.254821,0.408407,0.8764879999999999,0.002587,0.003322,-0.00011399999999999999,0.006972,-0.012426000000000001,0.001075
134,-2.858679,-0.420677,-0.684476,-0.25481,0.408378,0.876505,0.00044400000000000006,0.0022600000000000003,0.0009400000000000001,0.005573,-0.0102,-0.00034500000000000004
135,-2.858652,-0.420699,-0.684497,-0.254831,0.40839899999999996,0.876489,0.0036490000000000003,0.003314,0.0009609999999999999,0.008509000000000001,-0.009214,-0.0011220000000000002
136,-2.858578,-0.420741,-0.6844859999999999,-0.254891,0.408437,0.876453,0.004945000000000001,0.004477,-0.000298,0.008171,-0.009572,5.7999999999999994e-05
137,-2.858539,-0.420784,-0.684448,-0.25492,0.408477,0.876426,0.006002,0.002343,-0.000288,0.008506,-0.009001,0.00271
138,-2.8585,-0.420846,-0.684391,-0.254947,0.408533,0.876391,0.0038740000000000003,0.001294,-0.002438,0.007739,-0.009805,0.004789
139,-2.8584680000000002,-0.420893,-0.684362,-0.25497,0.408576,0.8763639999999999,0.002802,0.0023539999999999998,-0.00031,0.009044,-0.010199,0.0040219999999999995
140,-2.858503,-0.420839,-0.684377,-0.254946,0.408526,0.876395,0.000668,0.002362,-0.000325,0.008822,-0.009234000000000001,-0.001364
141,-2.858473,-0.42080500000000004,-0.6843819999999999,-0.254975,0.408495,0.876401,-0.001466,0.001308,-0.001407,0.007295,-0.010209999999999999,-0.000302
142,-2.858447,-0.42075799999999997,-0.684392,-0.255004,0.408452,0.8764120000000001,-0.000399,0.002365,-0.000333,0.007353,-0.011495,9.8e-05
143,-2.858479,-0.420704,-0.684404,-0.25498200000000004,0.408403,0.876441,0.001847,0.001328,0.000563,0.0053479999999999995,-0.011095,0.0018390000000000001
144,-2.858469,-0.420729,-0.6844060000000001,-0.254988,0.408426,0.8764290000000001,0.001852,0.001332,-0.000505,0.006620999999999999,-0.010064,0.000509
145,-2.85846,-0.42076099999999994,-0.6844,-0.254992,0.408455,0.8764149999999999,0.002914,0.001324,0.00057,0.006762000000000001,-0.010094,0.002339
146,-2.85847,-0.420741,-0.684409,-0.254986,0.408437,0.876425,0.003991,0.0023899999999999998,-0.000492,0.006344,-0.009512,0.0004980000000000001
147,-2.858452,-0.420759,-0.684397,-0.254999,0.408454,0.8764129999999999,0.003981,0.00132,0.0005780000000000001,0.0069370000000000005,-0.010856000000000001,0.0016690000000000001
148,-2.8584509999999996,-0.420782,-0.684385,-0.254998,0.408475,0.8764040000000001,0.002919,0.001328,-0.0004980000000000001,0.007134000000000001,-0.009457,0.001084
149,-2.858462,-0.420799,-0.684375,-0.254985,0.40849,0.8764,0.003981,0.00132,0.0005780000000000001,0.008739,-0.0108,-0.001934
150,-2.858444,-0.42083000000000004,-0.684376,-0.254998,0.408518,0.876383,0.002914,0.000263,-0.0004969999999999999,0.008813,-0.009272,-0.000193
151,-2.8584650000000003,-0.420817,-0.684383,-0.254981,0.408507,0.876394,0.001846,0.000291,0.00039,0.006965000000000001,-0.009337,0.000178
152,-2.858485,-0.420792,-0.6844140000000001,-0.25496599999999997,0.408484,0.876409,-0.00135,0.001368,0.000367,0.008995,-0.009161,0.002802
153,-2.858527,-0.420759,-0.684505,-0.254934,0.408454,0.876433,-0.003508,0.000293,0.004626,0.008993000000000001,-0.008551000000000001,0.0007030000000000001
154,-2.858604,-0.420613,-0.684603,-0.25488299999999997,0.40831999999999996,0.87651,-0.006698999999999999,-0.0007480000000000001,0.0014,0.006439,-0.01234,0.000504
155,-2.858659,-0.42050600000000005,-0.68465,-0.254847,0.408223,0.876566,-0.003493,-0.001816,-0.000712,0.0076549999999999995,-0.013111000000000001,0.002097
156,-2.858691,-0.420451,-0.684659,-0.254825,0.408173,0.8765950000000001,-0.000288,-0.000762,-0.000691,0.007784999999999999,-0.012955000000000001,0.000785
157,-2.858734,-0.420437,-0.684657,-0.254789,0.408159,0.8766120000000001,0.0029219999999999997,0.0013570000000000001,-0.000672,0.00572,-0.012697,-0.00123
158,-2.858771,-0.42051400000000005,-0.6846399999999999,-0.254748,0.40823000000000004,0.876591,0.008242,-0.000796,0.000437,0.007174,-0.011792,0.000789
159,-2.8587759999999998,-0.42062200000000005,-0.684609,-0.254731,0.408329,0.87655,0.00718,0.000273,0.00042800000000000005,0.006212,-0.012516,-0.000833
160,-2.858828,-0.420667,-0.684611,-0.25468,0.408369,0.876547,0.005002,0.00028,0.002421,0.008357999999999999,-0.009871,0.001902
161,-2.858877,-0.420705,-0.684632,-0.254633,0.408405,0.8765440000000001,0.001796,-0.0007740000000000001,0.0024,0.010675,-0.010759999999999999,0.000654
162,-2.858957,-0.42071000000000003,-0.684696,-0.254562,0.408409,0.8765620000000001,0.00072,-0.0018399999999999998,0.0034630000000000004,0.01091,-0.012459,0.001779
163,-2.859045,-0.420687,-0.68477,-0.254488,0.40838800000000003,0.8765940000000001,0.00072,-0.0018399999999999998,0.0034630000000000004,0.007967,-0.010773999999999999,0.0037159999999999997
164,-2.859124,-0.420662,-0.684864,-0.254422,0.40836500000000003,0.876624,-0.000337,0.000294,0.003452,0.0062369999999999995,-0.011101999999999999,0.001291
165,-2.859168,-0.420681,-0.684949,-0.25438099999999997,0.408382,0.8766280000000001,0.001796,0.00028700000000000004,0.003467,0.006212,-0.013012000000000001,2e-05
166,-2.8592169999999997,-0.420716,-0.6849970000000001,-0.254334,0.408414,0.876627,0.003935,-0.0007769999999999999,0.001347,0.004365,-0.009534,0.0008
167,-2.8592470000000003,-0.42073999999999995,-0.685003,-0.254305,0.408436,0.876625,0.002878,-0.0007650000000000001,-0.000797,0.007571,-0.010121,-0.0016239999999999998
168,-2.859252,-0.420782,-0.684983,-0.254296,0.408475,0.876609,0.002882,0.0003,-0.000798,0.006142,-0.011182,-0.000877
169,-2.859271,-0.420771,-0.6849850000000001,-0.25428,0.408464,0.876618,0.0017760000000000002,0.0013449999999999998,-0.0008849999999999999,0.0075,-0.005922,0.00209
170,-2.859241,-0.420746,-0.684951,-0.25431,0.408441,0.8766209999999999,-0.00035800000000000003,0.001353,-0.0009,0.008704,-0.006265,0.000256
171,-2.85921,-0.42065600000000003,-0.684921,-0.254347,0.40836,0.876648,-0.004621,0.001372,-0.001998,0.007215000000000001,-0.009068000000000001,0.000244
172,-2.859257,-0.42047799999999996,-0.684966,-0.254326,0.408197,0.8767299999999999,-0.006778,-0.0007639999999999999,0.001194,0.005072999999999999,-0.015663999999999997,0.002207
173,-2.859343,-0.42048800000000003,-0.685036,-0.254249,0.408206,0.876748,0.006019,-0.0018739999999999998,0.001285,0.005256,-0.004444,0.006232
174,-2.859342,-0.420567,-0.68496,-0.254241,0.40827800000000003,0.876718,0.0028469999999999997,0.000285,-0.003013,0.0064849999999999994,-0.005934,0.000998
175,-2.859285,-0.420554,-0.684908,-0.254293,0.40826599999999996,0.876709,0.0018,0.00561,-0.001959,0.008352,-0.013796000000000001,-0.002121
176,-2.859193,-0.42050299999999996,-0.684904,-0.25438,0.408219,0.876705,-0.0004,0.004507,-0.0009480000000000001,0.006684000000000001,-0.011613,0.000767
177,-2.8591330000000004,-0.420497,-0.684867,-0.254433,0.408215,0.876692,0.002801,0.003435,-0.001993,0.0068590000000000005,-0.013729,0.004565
178,-2.8590560000000003,-0.42053,-0.6848420000000001,-0.254497,0.408244,0.876659,0.004949,0.006623,-0.001982,0.006968000000000001,-0.011545999999999999,-0.000576
179,-2.858936,-0.420537,-0.684804,-0.254601,0.40825100000000003,0.876626,0.001744,0.00663,-0.000936,0.010796,-0.011309,2.2e-05
180,-2.858883,-0.42050699999999996,-0.684804,-0.254651,0.408223,0.876625,-0.002548,0.00238,0.00010800000000000001,0.010022,-0.010747,-0.001609
181,-2.858935,-0.420368,-0.684862,-0.254621,0.408096,0.876692,-0.004691,0.001318,0.0011619999999999998,0.009626000000000001,-0.012985,-0.000197
182,-2.8589900000000004,-0.42028699999999997,-0.6849270000000001,-0.25458200000000003,0.408023,0.8767379999999999,-0.0015,0.00023700000000000001,0.002254,0.008579999999999999,-0.011355,0.002672
183,-2.859029,-0.420292,-0.684978,-0.25454699999999997,0.408027,0.8767459999999999,0.003778,0.001241,0.002262,0.007309,-0.012916,0.001825
184,-2.859063,-0.420346,-0.685006,-0.254511,0.408076,0.876733,0.004845,0.0012380000000000002,0.002269,0.008952,-0.012645,0.0015630000000000002
185,-2.85908,-0.420371,-0.685064,-0.25449299999999997,0.408099,0.876727,0.002721,0.004437,0.0033179999999999998,0.00811,-0.013766,0.000607
186,-2.8590459999999998,-0.420375,-0.6851520000000001,-0.25452199999999997,0.408102,0.876717,-0.000475,0.0055130000000000005,0.003295,0.007742,-0.011373999999999999,0.003761
187,-2.85901,-0.420392,-0.685184,-0.25455300000000003,0.408119,0.8767010000000001,0.002716,0.00231,0.0022530000000000002,0.007436,-0.009223,0.002861
188,-2.8590419999999996,-0.42035600000000006,-0.685183,-0.25452800000000003,0.408086,0.8767229999999999,0.002726,0.000197,-0.002017,0.0068319999999999995,-0.011815,0.000322
189,-2.859033,-0.420368,-0.685164,-0.254535,0.408097,0.8767149999999999,0.0016489999999999999,0.000192,0.00011200000000000001,0.0054659999999999995,-0.012314,-6.7e-05
190,-2.859091,-0.420371,-0.68521,-0.254483,0.408099,0.8767290000000001,0.003759,-0.001959,0.003334,0.005384000000000001,-0.010013,8.6e-05
191,-2.859172,-0.42043500000000006,-0.685285,-0.254406,0.40815799999999997,0.876725,0.003754,-0.0009019999999999999,0.005469,0.007961,-0.010620000000000001,0.0037530000000000003
192,-2.859257,-0.42051000000000005,-0.685384,-0.254323,0.40822600000000003,0.876717,0.0047740000000000005,0.000129,0.006519,0.008,-0.011315,-0.00019099999999999998
193,-2.859342,-0.42058100000000004,-0.685495,-0.25424,0.40829099999999996,0.876712,0.003698,-0.001998,0.006514,0.008131000000000001,-0.009167,0.001966
194,-2.859425,-0.420654,-0.685606,-0.254159,0.408358,0.876704,0.003708,-0.0009289999999999999,0.005444,0.009362,-0.010103000000000001,0.001668
195,-2.859506,-0.42073299999999997,-0.685722,-0.254079,0.40843,0.8766940000000001,0.00477,-0.0009369999999999999,0.006520000000000001,0.007863,-0.009885,0.000198
196,-2.859613,-0.42077600000000004,-0.6858270000000001,-0.25398000000000004,0.408469,0.876705,0.002636,-0.00199,0.005438,0.007536,-0.01139,0.001912
197,-2.859709,-0.42081999999999997,-0.685922,-0.253891,0.408509,0.876712,0.003703,-0.001994,0.005446,0.008973,-0.011033,0.00337
198,-2.8597740000000003,-0.420867,-0.685996,-0.25382899999999997,0.40855199999999997,0.87671,0.002646,-0.000921,0.004369,0.00949,-0.013563,0.001189
199,-2.859871,-0.420893,-0.6860970000000001,-0.253741,0.408576,0.876725,0.0015789999999999999,-0.000917,0.004361,0.010912999999999999,-0.01113,0.003326
200,-2.859934,-0.42093800000000003,-0.686159,-0.253681,0.408617,0.8767229999999999,0.0036710000000000002,0.00013700000000000002,0.002203,0.011249,-0.011934,0.004425999999999999
201,-2.859953,-0.42101700000000003,-0.6861970000000001,-0.253655,0.40868899999999997,0.876697,0.004738,0.000133,0.002211,0.010887,-0.012281,0.001889
202,-2.859957,-0.42105,-0.686198,-0.253648,0.408719,0.876685,0.005824,0.002268,7.900000000000001e-05,0.008118,-0.012052,0.002038
203,-2.8599650000000003,-0.421133,-0.6861970000000001,-0.253631,0.40879499999999996,0.876655,0.005814,0.001199,0.001149,0.006729000000000001,-0.010052,0.003442
204,-2.859941,-0.421231,-0.686183,-0.253641,0.408884,0.87661,0.005829,0.003334,7.8e-05,0.008128,-0.009913,0.0038979999999999996
205,-2.8599069999999998,-0.42131499999999994,-0.68618,-0.253661,0.408961,0.876569,0.007972,0.006518,0.001157,0.008971,-0.011393,0.0013460000000000002
206,-2.8598060000000003,-0.421436,-0.686146,-0.253737,0.409071,0.8764959999999999,0.007986,0.007591,-0.000981,0.009535,-0.008909,0.002532
207,-2.859646,-0.42158500000000004,-0.686095,-0.25386,0.40920700000000004,0.876397,0.01013,0.008654,-0.002036,0.009826,-0.010373,0.001227
208,-2.859434,-0.421724,-0.686032,-0.25403000000000003,0.40933400000000003,0.876289,0.009040000000000001,0.0129,-0.002065,0.011797,-0.010027,-0.000526
209,-2.859159,-0.42185500000000004,-0.6859770000000001,-0.254256,0.409453,0.8761680000000001,0.007968000000000001,0.01396,6.3e-05,0.015105,-0.011306,0.000267
210,-2.8587860000000003,-0.421939,-0.6858920000000001,-0.254573,0.40953,0.8760389999999999,0.003744,0.019319,-0.004247,0.014750999999999998,-0.009826,0.00067
211,-2.858393,-0.421892,-0.6858,-0.254923,0.409487,0.875957,-0.000504,0.021473,-0.0064150000000000006,0.016596,-0.011797,0.002491
212,-2.857942,-0.421696,-0.6857,-0.25534,0.409308,0.875919,-0.007953,0.023638,-0.008607,0.015212999999999999,-0.011344,0.003796
213,-2.857353,-0.42144,-0.6855479999999999,-0.255885,0.409075,0.875869,-0.01113,0.025792000000000002,-0.011836,0.015757,-0.011111,0.003846
214,-2.856814,-0.42111099999999996,-0.685312,-0.256395,0.408775,0.8758600000000001,-0.010029000000000001,0.025818,-0.019306,0.016252000000000003,-0.009483,0.007166
215,-2.8561900000000002,-0.420857,-0.6849,-0.256971,0.408543,0.8758,-0.002577,0.025773,-0.02461,0.008893,-0.01273,-0.000128
216,-2.8554720000000002,-0.420688,-0.6843670000000001,-0.257619,0.408389,0.8756809999999999,-0.002582,0.023647,-0.025675,0.009541,-0.012576,-1e-05
217,-2.854939,-0.42045600000000005,-0.6838930000000001,-0.25811300000000004,0.408177,0.875634,-0.005816,0.019384000000000002,-0.022488,0.007441,-0.008778,-0.000634
218,-2.854498,-0.420041,-0.683592,-0.258546,0.407798,0.875683,-0.01969,0.02155,-0.019383,0.003572,-0.007987000000000001,-0.00034700000000000003
219,-2.854037,-0.41949200000000003,-0.6834359999999999,-0.259013,0.40729699999999996,0.8757780000000001,-0.02292,0.020475,-0.014062999999999999,0.000392,-0.01066,0.0008089999999999999
220,-2.8536900000000003,-0.419062,-0.683381,-0.259368,0.406904,0.875856,-0.015509,0.015093,-0.006527,0.003386,-0.008161,0.00099
221,-2.853398,-0.41869700000000004,-0.683384,-0.25966500000000003,0.40657,0.875923,-0.019777,0.015108000000000002,-0.0065569999999999995,0.005393,-0.001541,0.0022199999999999998
222,-2.853205,-0.418156,-0.683391,-0.259897,0.40607600000000005,0.876083,-0.028339999999999997,0.008745999999999999,-0.006608,0.0038090000000000003,-0.011544,-0.003311
223,-2.853063,-0.41753100000000004,-0.68345,-0.260094,0.405505,0.876289,-0.02839,0.009762,-0.005574,0.000145,-0.013003,0.001274
224,-2.852966,-0.41697799999999996,-0.683534,-0.26024200000000003,0.405,0.8764790000000001,-0.024161000000000002,0.0033469999999999997,-0.0034,-0.00256,-0.014329,0.004457
225,-2.852969,-0.41659399999999996,-0.683617,-0.260284,0.404648,0.8766290000000001,-0.016712,0.000121,-0.002275,0.00151,-0.016709,0.005253
226,-2.852966,-0.41634799999999994,-0.6836369999999999,-0.260314,0.404423,0.8767229999999999,-0.008167,0.002221,-0.002218,0.005797999999999999,-0.017979,0.00044400000000000006
227,-2.852953,-0.416213,-0.683636,-0.260342,0.4043,0.8767719999999999,-0.003914,-0.000989,-0.0021850000000000003,0.007168000000000001,-0.015857,-0.003389
228,-2.853022,-0.41609399999999996,-0.683652,-0.260295,0.40419099999999997,0.8768360000000001,-0.0050100000000000006,-0.005255,-5e-05,0.004924,-0.013474000000000002,-0.000173
229,-2.853238,-0.415862,-0.683765,-0.26013200000000003,0.403979,0.8769819999999999,-0.012511,-0.009503,0.003107,0.007996,-0.008166,0.003618
230,-2.8535209999999998,-0.41557200000000005,-0.68393,-0.259917,0.40371399999999996,0.877167,-0.013588,-0.010569,0.004169,0.00479,-0.00845,0.0021809999999999998
231,-2.853856,-0.415343,-0.6841119999999999,-0.25964899999999996,0.403504,0.877343,-0.010411,-0.014844999999999999,0.005265,0.004888,-0.008773999999999999,-0.000161
232,-2.854301,-0.415225,-0.684343,-0.259273,0.403396,0.8775040000000001,-0.006253,-0.018097,0.010565999999999999,0.0039020000000000005,-0.012298,0.002729
233,-2.854852,-0.41516800000000004,-0.6846939999999999,-0.258795,0.403343,0.877669,-0.006287,-0.018126,0.018043,0.003393,-0.015250999999999999,-0.0017530000000000002
234,-2.855527,-0.415178,-0.685232,-0.258202,0.403353,0.8778389999999999,-0.004215,-0.023494,0.026611000000000003,0.0035020000000000003,-0.015596,-0.001375
235,-2.856304,-0.41521099999999994,-0.685895,-0.25751599999999997,0.403383,0.878027,-0.0053159999999999995,-0.026702999999999998,0.03088,0.005242,-0.014741999999999998,0.00474
236,-2.857093,-0.415229,-0.686551,-0.256821,0.40339899999999995,0.878223,-0.006378,-0.025633999999999997,0.030871,0.007736,-0.014284999999999999,0.004452
237,-2.8579,-0.415259,-0.687222,-0.25610900000000003,0.403427,0.878418,-0.003182,-0.027772,0.029827999999999997,0.011602,-0.011948,0.003647
238,-2.858706,-0.41529399999999994,-0.687866,-0.255396,0.403459,0.87861,-0.005306,-0.027756,0.027676999999999997,0.011713,-0.008241,0.0022489999999999997
239,-2.8595,-0.415288,-0.6884170000000001,-0.25469899999999995,0.403454,0.878815,-0.005282,-0.026674,0.023403,0.012466,-0.007275,0.003341
240,-2.8601810000000003,-0.415278,-0.6889069999999999,-0.254102,0.403445,0.878992,-0.004293,-0.021398,0.021207,0.014936000000000001,-0.008395,0.0021260000000000003
241,-2.860732,-0.41528100000000007,-0.6894239999999999,-0.253617,0.403447,0.879131,-0.004274,-0.016075,0.022269,0.013123,-0.009572,0.002262
242,-2.861263,-0.415278,-0.6899430000000001,-0.253151,0.403444,0.879268,-0.005331,-0.013941,0.022259,0.01133,-0.013307,0.0009199999999999999
243,-2.861714,-0.415258,-0.690423,-0.252757,0.403426,0.87939,-0.006374,-0.010733,0.020111,0.011775,-0.015059999999999999,0.00118
244,-2.862102,-0.41527,-0.6908489999999999,-0.25241399999999997,0.403437,0.879483,-0.000997,-0.004347,0.016936,0.013477000000000001,-0.015772,0.00365
245,-2.862314,-0.41535900000000003,-0.691105,-0.252218,0.403519,0.879502,0.004381,-0.0032670000000000004,0.008426000000000001,0.014928,-0.015427000000000001,0.0053549999999999995
246,-2.862352,-0.415513,-0.691131,-0.25216700000000003,0.40365999999999996,0.879452,0.009773,0.00101,-8.8e-05,0.015472999999999999,-0.016269,0.0059700000000000005
247,-2.862278,-0.41564300000000004,-0.691006,-0.252218,0.403778,0.879383,0.011949,0.004224,-0.006486,0.014928,-0.011398,0.004376
248,-2.8621220000000003,-0.415716,-0.690749,-0.252348,0.403845,0.879316,0.007639,0.0040149999999999995,-0.011795,0.013837,-0.010061,0.00281
249,-2.861927,-0.41566099999999995,-0.690493,-0.252525,0.40379499999999996,0.879287,0.002329,0.008298999999999999,-0.012906,0.012794,-0.008882,0.003693
250,-2.8616900000000003,-0.415533,-0.690264,-0.252747,0.40367800000000004,0.8792770000000001,-0.0019379999999999998,0.010435999999999999,-0.010801999999999999,0.011476,-0.010901000000000001,0.0012460000000000001
251,-2.8614,-0.415396,-0.690055,-0.25301799999999997,0.403552,0.879258,-0.0019140000000000001,0.013641,-0.012941999999999999,0.012417000000000001,-0.007648,0.0021969999999999997
252,-2.86108,-0.41532399999999997,-0.689785,-0.253307,0.403486,0.8792040000000001,0.002353,0.012565,-0.013978999999999998,0.010586,-0.00746,0.002082
253,-2.860758,-0.41529099999999997,-0.689496,-0.253594,0.403456,0.879136,0.004482,0.011492,-0.013963,0.009498999999999999,-0.008666,0.001037
254,-2.860443,-0.415268,-0.689225,-0.253874,0.403435,0.879066,0.002339,0.012551999999999999,-0.010775,0.009764,-0.008598999999999999,-0.001334
255,-2.860185,-0.41519700000000004,-0.689079,-0.254108,0.403371,0.879027,-0.00302,0.010426999999999999,-0.007605,0.0065650000000000005,-0.009648,0.0014810000000000001
256,-2.860033,-0.415071,-0.689049,-0.254256,0.40325500000000003,0.8790370000000001,-0.0061189999999999994,0.007941,-0.0021,0.005538,-0.011699,0.0018679999999999999
257,-2.859882,-0.414897,-0.689081,-0.25440799999999997,0.403096,0.879066,-0.008248,0.010075,-0.00105,0.008024,-0.012943999999999999,0.0014119999999999998
258,-2.859716,-0.41472299999999995,-0.6890970000000001,-0.25457399999999997,0.402936,0.879091,-0.008248,0.009014,-0.002117,0.006542,-0.014081,-0.000231
259,-2.859568,-0.414547,-0.689062,-0.25472399999999995,0.402775,0.879122,-0.006104,0.007954000000000001,-0.005305,0.0063869999999999994,-0.014149,0.002607
260,-2.859387,-0.414387,-0.68893,-0.2549,0.402629,0.879138,-0.005023,0.006901999999999999,-0.009569,0.005053,-0.01266,0.00314
261,-2.859154,-0.414267,-0.688641,-0.255119,0.402519,0.879124,-0.001794,0.005855,-0.017023,0.0052710000000000005,-0.01255,0.003154
262,-2.858905,-0.41408100000000003,-0.688299,-0.255358,0.40234899999999996,0.8791329999999999,0.001416,0.007975,-0.017003,0.005693999999999999,-0.015294,0.0048850000000000005
263,-2.858651,-0.41413199999999994,-0.687968,-0.255576,0.402395,0.879049,0.014195,0.006848000000000001,-0.012639,0.004767,-0.006567,0.008143000000000001
264,-2.8583979999999998,-0.414275,-0.687587,-0.255783,0.402526,0.8789290000000001,0.011216,0.003482,-0.014681,0.007232,-0.0028829999999999997,0.00663
265,-2.858189,-0.414233,-0.687305,-0.255971,0.402488,0.878891,0.000547,0.007763,-0.010489,0.01064,-0.015709,-0.0052640000000000004
266,-2.857962,-0.41409300000000004,-0.687186,-0.256186,0.402359,0.8788879999999999,-0.00373,0.010952,-0.005181,0.012778,-0.011840999999999999,0.000248
267,-2.8577630000000003,-0.413971,-0.687116,-0.256375,0.402248,0.878884,-0.001611,0.00881,-0.004096,0.0135,-0.014216999999999999,0.009498000000000001
268,-2.857543,-0.413946,-0.68702,-0.256571,0.402225,0.8788370000000001,0.002676,0.011995,-0.005138,0.012461,-0.012897,0.005684000000000001
269,-2.857259,-0.413963,-0.6869,-0.256819,0.40224099999999996,0.878757,0.003752,0.013061000000000001,-0.0062,0.016874,-0.012562,0.000638
270,-2.856999,-0.413954,-0.6867340000000001,-0.257048,0.40223200000000003,0.8786940000000001,0.002676,0.008812,-0.008339,0.016356,-0.014262,-0.001131
271,-2.856884,-0.413869,-0.686588,-0.257159,0.40215500000000004,0.878697,0.000523,0.0045590000000000006,-0.008348000000000001,0.011720999999999999,-0.016824000000000002,0.004298
272,-2.8567970000000003,-0.41383400000000004,-0.6864279999999999,-0.257239,0.402123,0.8786889999999999,0.003927,0.002517,-0.006347,0.004828,-0.021644999999999998,0.004154
273,-2.856788,-0.41395299999999996,-0.686322,-0.257234,0.40223200000000003,0.87864,0.010294,-0.000718,-0.002025,0.000551,-0.020091,0.003699
274,-2.8568290000000003,-0.414214,-0.686271,-0.257169,0.40247,0.87855,0.016681,-0.000753,0.001224,-0.0017579999999999998,-0.017476,0.00324
275,-2.8568119999999997,-0.414584,-0.686247,-0.257142,0.40280900000000003,0.878403,0.022019999999999998,0.003476,0.004461,-0.0009,-0.012032,0.00013700000000000002
276,-2.856731,-0.41498999999999997,-0.6862520000000001,-0.25716700000000003,0.403181,0.878225,0.020953,0.005602,0.006587000000000001,0.002299,-0.007704000000000001,0.001322
277,-2.856652,-0.41529499999999997,-0.6863319999999999,-0.257201,0.40346,0.8780870000000001,0.013471,0.004554,0.008673,0.004928,-0.0049770000000000005,-0.0009050000000000001
278,-2.856622,-0.415391,-0.6864680000000001,-0.25721700000000003,0.403548,0.878042,0.00173,0.0035299999999999997,0.008592,0.008819,-0.003493,-0.001104
279,-2.856621,-0.415366,-0.686634,-0.257221,0.403525,0.878051,-0.004671,0.001431,0.006414,0.011142,-0.003195,-0.00028900000000000003
280,-2.85664,-0.415274,-0.686763,-0.257214,0.40344,0.878091,-0.005575,0.0005650000000000001,0.002948,0.010464,-0.00572,-0.001535
281,-2.8566580000000004,-0.415233,-0.686756,-0.257203,0.403403,0.8781110000000001,0.0019079999999999998,-0.00157,-0.002338,0.015580000000000002,-0.013341999999999998,0.004533
282,-2.856667,-0.415271,-0.686639,-0.257191,0.403438,0.878099,0.002984,-0.002627,-0.005533,0.0163,-0.014750999999999998,0.0061329999999999996
283,-2.8566759999999998,-0.41530100000000003,-0.686466,-0.257179,0.403465,0.8780899999999999,0.004056000000000001,-0.0036869999999999997,-0.007661,0.015907,-0.016655,0.006508
284,-2.8567400000000003,-0.41527600000000003,-0.6863279999999999,-0.257126,0.403442,0.878116,0.00086,-0.002611,-0.007684999999999999,0.017106,-0.018050999999999998,0.008374
285,-2.856743,-0.41525100000000004,-0.686222,-0.257126,0.40342,0.878127,-0.000207,0.000576,-0.004492,0.015441999999999999,-0.019280000000000002,0.009966
286,-2.856687,-0.41521899999999995,-0.686141,-0.257179,0.40339,0.878125,0.0008699999999999999,0.003764,-0.0034200000000000003,0.017097,-0.018121,0.007404000000000001
287,-2.8566759999999998,-0.415174,-0.686154,-0.257194,0.40334899999999996,0.8781399999999999,0.002016,0.005909,-0.000288,0.008537000000000001,-0.015425,0.0033
288,-2.856625,-0.41514799999999996,-0.686187,-0.257242,0.403325,0.8781370000000001,0.00093,0.003774,0.0018440000000000002,0.0046630000000000005,-0.017919,0.00202
289,-2.856614,-0.41511000000000003,-0.686253,-0.257256,0.40329,0.878149,-0.000152,0.002704,0.003974,-0.000542,-0.016784999999999998,-0.0016989999999999998
290,-2.85665,-0.415203,-0.686359,-0.257214,0.403376,0.878122,0.007306999999999999,0.002669,0.006163,-0.001041,-0.014749000000000002,-0.000436
291,-2.85663,-0.41548999999999997,-0.686366,-0.25719899999999996,0.40363899999999997,0.8780049999999999,0.019052,0.001576,0.003042,0.001523,-0.01605,-0.0026089999999999998
292,-2.8565490000000002,-0.415904,-0.686293,-0.257223,0.404017,0.8778239999999999,0.026529,0.0047409999999999996,0.004158,0.002996,-0.012034,0.000304
293,-2.856419,-0.416397,-0.686189,-0.257281,0.404468,0.877599,0.026534,0.0036850000000000003,0.002023,0.0022760000000000002,-0.007968000000000001,0.0005740000000000001
294,-2.8562990000000004,-0.416812,-0.6860930000000001,-0.257339,0.404848,0.8774069999999999,0.020133,0.0037070000000000002,0.001978,0.006103,-0.007295,-0.001766
295,-2.85622,-0.417066,-0.6860109999999999,-0.25737899999999997,0.40508,0.877289,0.012651,-0.000524,0.000863,0.013086000000000002,-0.007268000000000001,0.00035099999999999997
296,-2.856221,-0.41721,-0.685959,-0.257362,0.405211,0.877233,0.007388,-0.001633,-0.000196,0.013465999999999999,-0.010313,0.002863
297,-2.856273,-0.41735200000000006,-0.685924,-0.2573,0.405341,0.877192,0.007373,-0.003768,0.000875,0.012793,-0.010337,0.004553
298,-2.856376,-0.41747799999999996,-0.685905,-0.257195,0.405456,0.8771690000000001,0.008435,-0.004837,0.000884,0.016671000000000002,-0.016281,0.004224
299,-2.856529,-0.417612,-0.68595,-0.257046,0.405579,0.877157,0.006282,-0.005907,0.004075,0.010112999999999999,-0.018844999999999997,0.006037
300,-2.856681,-0.41772600000000004,-0.686048,-0.2569,0.405683,0.877152,0.004144,-0.0059039999999999995,0.005128,0.010348,-0.016675,0.008056
301,-2.856837,-0.41780900000000004,-0.6861619999999999,-0.256754,0.40575900000000004,0.877159,0.004163,-0.000582,0.00619,0.012384000000000001,-0.020246,0.006141
302,-2.856815,-0.41793,-0.686248,-0.256759,0.40587,0.8771059999999999,0.009531,0.005795000000000001,0.005151,0.007095000000000001,-0.019609,0.007598000000000001
303,-2.856664,-0.418199,-0.686239,-0.25686,0.406116,0.8769629999999999,0.018113999999999998,0.011113,-0.00013700000000000002,0.005869,-0.016208,0.008093000000000001
304,-2.8563389999999997,-0.41845600000000005,-0.686049,-0.257117,0.406351,0.8767790000000001,0.01818,0.016331000000000002,-0.006431999999999999,0.006399,-0.014596000000000001,0.0030269999999999997
305,-2.8559240000000004,-0.418658,-0.68575,-0.257457,0.406534,0.8765950000000001,0.016061000000000002,0.01529,-0.010719,0.006328,-0.014902,-0.006798
306,-2.8555,-0.41880100000000003,-0.6853739999999999,-0.257813,0.40666599999999997,0.8764290000000001,0.013946,0.014253,-0.016073,0.011826,-0.007511,-0.002451
307,-2.855172,-0.418946,-0.684928,-0.25808400000000004,0.406798,0.876288,0.013916999999999999,0.0057399999999999994,-0.018199,0.009212999999999999,-0.006331,0.00686
308,-2.854914,-0.419029,-0.6845289999999999,-0.2583,0.406873,0.8761899999999999,0.007502,0.005749,-0.015038999999999999,0.013030000000000002,-0.004423,-0.000733
309,-2.8547,-0.41891300000000004,-0.684279,-0.25850100000000004,0.40676799999999996,0.87618,-0.0053289999999999995,0.005768,-0.008719,0.01317,-0.0034170000000000003,-0.007528
310,-2.854663,-0.418562,-0.68423,-0.25857399999999997,0.406447,0.876308,-0.020304,0.000481,-0.005613,0.013121,-0.001768,0.000218
311,-2.854699,-0.418062,-0.684241,-0.2586,0.40599,0.8765120000000001,-0.024562,0.000505,-0.007779,0.015344,-0.0031739999999999997,0.006972
312,-2.8546560000000003,-0.417613,-0.684215,-0.258689,0.40558,0.876676,-0.017079,0.003675,-0.007731,0.014503,-0.00731,0.004061
313,-2.854581,-0.41735,-0.684222,-0.258785,0.405339,0.8767590000000001,-0.010791,0.00457,-0.002278,0.017116,-0.015202,0.005062
314,-2.854596,-0.41711099999999995,-0.684365,-0.258799,0.405121,0.876856,-0.015092,0.002433,0.003035,0.012629000000000001,-0.024063,0.0031190000000000002
315,-2.854636,-0.416817,-0.684624,-0.25879800000000003,0.404852,0.87698,-0.017231,0.006679999999999999,0.008356,0.010462,-0.025366,0.0022
316,-2.854646,-0.41653100000000004,-0.684987,-0.258822,0.404591,0.877094,-0.01725,0.008785,0.014763,0.012149,-0.027302,0.003124
317,-2.854778,-0.41631599999999996,-0.6853859999999999,-0.258731,0.40439400000000003,0.8772120000000001,-0.009792,0.004507,0.012684,0.005007999999999999,-0.030552999999999997,0.009659000000000001
318,-2.854833,-0.416257,-0.685665,-0.25869000000000003,0.40434000000000003,0.877249,-0.0023190000000000003,0.0034240000000000004,0.010601000000000001,0.00135,-0.030255,0.009285999999999999
319,-2.85489,-0.41640299999999997,-0.685913,-0.258623,0.404473,0.877207,0.00834,0.004439,0.013878999999999999,0.000734,-0.029367,0.00614
320,-2.8548810000000002,-0.41657299999999997,-0.6861109999999999,-0.25861100000000004,0.404629,0.8771389999999999,0.014687,0.006476000000000001,0.009712,-0.000681,-0.015790000000000002,0.002073
321,-2.854733,-0.417041,-0.686066,-0.25868800000000003,0.40505599999999997,0.876919,0.0318,0.007515999999999999,0.001284,-0.001917,-0.013088999999999998,0.001575
322,-2.8544650000000003,-0.41768900000000003,-0.685815,-0.258848,0.405649,0.876598,0.037163,0.009645,-0.002954,0.003081,-0.013483000000000002,0.000325
323,-2.854181,-0.41822299999999996,-0.685504,-0.259036,0.406138,0.876317,0.033957,0.007529999999999999,-0.0040420000000000005,0.003665,-0.009134,-0.001591
324,-2.8539689999999998,-0.41876499999999994,-0.685247,-0.25915900000000003,0.406632,0.876051,0.029675,0.00541,-0.003001,0.005954999999999999,-0.007812999999999999,0.0012230000000000001
325,-2.853772,-0.41935100000000003,-0.685005,-0.259264,0.407168,0.875771,0.033943,0.0053950000000000005,-0.002971,0.009188,-0.004397,0.0020670000000000003
326,-2.853592,-0.41985600000000006,-0.684751,-0.259363,0.407629,0.875526,0.028604,0.003288,-0.004074,0.020516999999999997,-0.005926,0.002373
327,-2.8534490000000003,-0.420167,-0.684584,-0.259452,0.407913,0.875367,0.011529000000000001,0.004404,-0.002058,0.020666999999999998,-0.004883,-0.000718
328,-2.853405,-0.420121,-0.684591,-0.259496,0.407871,0.875374,-0.008948999999999999,0.0022530000000000002,-4.1e-05,0.021932,-0.005649,-0.00043499999999999995
329,-2.853475,-0.419757,-0.6847449999999999,-0.259477,0.407538,0.8755350000000001,-0.020679,0.0033590000000000004,-0.000124,0.020219,-0.018331999999999998,0.010574
330,-2.853479,-0.41939399999999993,-0.684834,-0.259515,0.40720700000000004,0.8756780000000001,-0.014259,0.004415,-0.003285,0.011789,-0.018627,0.016443
331,-2.85338,-0.41927600000000004,-0.68475,-0.25961599999999996,0.4071,0.875698,-0.000356,0.006518,-0.008532,0.005664,-0.01652,0.011158
332,-2.8531590000000002,-0.41926499999999994,-0.684479,-0.25981,0.407089,0.8756450000000001,0.005011,0.00759,-0.014905000000000002,0.008544,-0.016113,0.000453
333,-2.852882,-0.41926599999999997,-0.684075,-0.26005300000000003,0.40709,0.8755729999999999,0.0060880000000000005,0.005473,-0.019168,0.008329000000000001,-0.016374,-0.00364
334,-2.852748,-0.419155,-0.683671,-0.260183,0.406989,0.875582,0.002863,0.00015800000000000002,-0.019184,0.006399,-0.015616,0.002271
335,-2.85265,-0.419095,-0.683315,-0.260277,0.406933,0.8755799999999999,0.004964,-0.002001,-0.013825,0.004036,-0.009869,0.003295
336,-2.852607,-0.41909799999999997,-0.68306,-0.260313,0.406937,0.875568,0.005764,-0.003153,-0.00848,0.00302,-0.007004000000000001,-0.0009339999999999999
337,-2.8527150000000003,-0.41912,-0.6830689999999999,-0.26021700000000003,0.406957,0.8755879999999999,-0.000713,-0.00426,0.007499,8.499999999999999e-05,-0.011602,-0.001336
338,-2.853031,-0.419045,-0.683539,-0.259948,0.406888,0.875699,-0.011478,-0.005369,0.027722000000000004,0.001861,-0.016294,-0.0024850000000000002
339,-2.853512,-0.41893500000000006,-0.684401,-0.25954,0.40678800000000004,0.8758670000000001,-0.019008,-0.005398,0.041556,0.00246,-0.017842,-0.0023469999999999997
340,-2.854056,-0.418775,-0.685457,-0.25908200000000003,0.406642,0.8760709999999999,-0.019027000000000002,-0.005415,0.045829,0.005848,-0.020839,0.002775
341,-2.854592,-0.418761,-0.686459,-0.258615,0.406629,0.876215,-0.006211,-0.007568999999999999,0.04058,0.012048,-0.011807,0.013281
342,-2.8549450000000003,-0.41885,-0.686991,-0.258295,0.40671,0.8762719999999999,-0.0007610000000000001,-0.006425,0.016047,0.016275,-0.011004,0.009333
343,-2.855099,-0.41877,-0.6870689999999999,-0.258169,0.40663699999999997,0.876342,-0.003,-0.006456999999999999,-0.003104,0.019552,-0.028097000000000004,0.0022129999999999997
344,-2.855172,-0.418637,-0.686858,-0.25811999999999996,0.406516,0.8764129999999999,0.000229,-0.010687,-0.013759,0.014315000000000001,-0.027259,0.007772
345,-2.855291,-0.418579,-0.686499,-0.258023,0.406463,0.876467,0.006640000000000001,-0.012823,-0.017984,0.010768999999999999,-0.023574,0.011137000000000001
346,-2.855363,-0.41869700000000004,-0.6860539999999999,-0.257946,0.40657,0.876439,0.018409000000000002,-0.006468000000000001,-0.018978000000000002,0.004696,-0.018906,0.007731
347,-2.855263,-0.418993,-0.685525,-0.258,0.406841,0.8762979999999999,0.025901,-0.001168,-0.018933000000000002,0.009678,-0.013453999999999999,-0.0027329999999999998
348,-2.855193,-0.41932600000000003,-0.6850430000000001,-0.258023,0.407145,0.876151,0.02371,-0.0075769999999999995,-0.01253,0.008191,-0.010935,-0.005683
349,-2.8553,-0.41956499999999997,-0.684851,-0.25790100000000005,0.407364,0.876085,0.011907,-0.008657,0.001275,0.005399,-0.009124,0.000212
350,-2.855512,-0.419649,-0.6850609999999999,-0.257706,0.40744,0.876107,-0.000938,-0.003346,0.016134,0.004089,-0.0035240000000000002,0.002098
351,-2.855885,-0.419579,-0.685601,-0.257388,0.407376,0.87623,-0.014874,-0.008662000000000001,0.025657,0.009661,-0.0068790000000000006,-0.000589
352,-2.856452,-0.419274,-0.686264,-0.25692600000000004,0.407097,0.876495,-0.024538,-0.016206,0.023474000000000002,0.009154,-0.00808,0.000824
353,-2.857053,-0.41891300000000004,-0.686884,-0.25644,0.40676799999999996,0.87679,-0.020261,-0.017274,0.020301,0.00792,-0.019134,0.0028179999999999998
354,-2.857683,-0.41878699999999996,-0.687317,-0.255902,0.406652,0.877001,-0.005334,-0.024761000000000002,0.015073,0.007016,-0.025,0.003508
355,-2.858305,-0.418941,-0.6875319999999999,-0.255338,0.40679299999999996,0.8771,0.01175,-0.026930000000000003,0.009854,0.011807999999999999,-0.026864999999999997,0.006171
356,-2.858917,-0.41940600000000006,-0.6875829999999999,-0.254749,0.40721799999999997,0.877073,0.029882,-0.030181,0.007849,0.013981,-0.028572000000000004,0.004351
357,-2.859423,-0.420292,-0.6874859999999999,-0.254204,0.408027,0.8768549999999999,0.054443,-0.023879,0.00908,0.011834,-0.027412,0.006261999999999999
358,-2.85986,-0.421483,-0.687449,-0.253686,0.409114,0.8765,0.064002,-0.02289,0.019828,0.004312,-0.028194,0.004451
359,-2.860303,-0.422699,-0.6875439999999999,-0.253159,0.41022299999999995,0.8761329999999999,0.060568,-0.018779,0.023005,0.0038759999999999997,-0.025122,0.0017350000000000002
360,-2.860831,-0.423967,-0.687747,-0.252553,0.411379,0.875767,0.060549,-0.019857,0.026211,0.0010119999999999999,-0.02405,-0.00014099999999999998
361,-2.861339,-0.425227,-0.687954,-0.25196399999999997,0.41252799999999995,0.875396,0.064817,-0.019872,0.026241000000000004,0.003215,-0.01705,-0.00035
362,-2.861817,-0.426601,-0.6881229999999999,-0.251389,0.413779,0.8749709999999999,0.068008,-0.020953,0.027332,0.00351,-0.009345000000000001,0.003203
363,-2.8623060000000002,-0.42790200000000006,-0.688279,-0.250813,0.414963,0.874576,0.059477999999999996,-0.02198,0.025138,0.005528,-0.004790999999999999,0.00134
364,-2.862838,-0.42891599999999996,-0.688435,-0.250231,0.41588500000000006,0.8743040000000001,0.044551,-0.025102,0.019696,0.007586,0.0035789999999999997,0.00025299999999999997
365,-2.863423,-0.429608,-0.6885439999999999,-0.24964099999999997,0.41651400000000005,0.874173,0.027496,-0.028212,0.013172,0.010306999999999998,0.005208,-0.000471
366,-2.864043,-0.42992700000000006,-0.6886899999999999,-0.24906199999999998,0.416804,0.8742,0.007234999999999999,-0.027072000000000002,0.011961,0.015481,-5.6000000000000006e-05,-0.001001
367,-2.8647150000000003,-0.42989499999999997,-0.689005,-0.248479,0.41677600000000004,0.8743799999999999,-0.012158,-0.02715,0.016176,0.012227,-0.002957,0.002191
368,-2.865479,-0.42958199999999996,-0.689485,-0.247846,0.416491,0.8746950000000001,-0.024965,-0.028170999999999998,0.016087999999999998,0.008421,-0.007891,0.0072629999999999995
369,-2.8662259999999997,-0.429192,-0.6899569999999999,-0.24723699999999998,0.41613599999999995,0.8750370000000001,-0.022817,-0.027104000000000003,0.013965,0.006072,-0.00923,0.006219
370,-2.866949,-0.42898500000000006,-0.690311,-0.24662699999999999,0.41594799999999993,0.8752979999999999,-0.00999,-0.027127999999999996,0.008714,0.008193,-0.014931999999999999,0.006797
371,-2.8675490000000003,-0.42895600000000006,-0.690449,-0.24610500000000002,0.415921,0.875458,0.000721,-0.023944,0.002375,0.013821,-0.019528999999999998,0.005691
372,-2.867984,-0.429073,-0.690451,-0.245711,0.41602799999999995,0.875518,0.006085,-0.018632,0.001338,0.012878,-0.020321000000000002,0.003312
373,-2.86833,-0.42921499999999996,-0.690449,-0.24539299999999997,0.41615699999999994,0.8755459999999999,0.008223000000000001,-0.016513,0.002418,0.013993,-0.020298,0.006229
374,-2.8686700000000003,-0.429361,-0.690488,-0.245079,0.41628999999999994,0.8755709999999999,0.011433,-0.013333000000000001,0.003505,0.012672,-0.016586,0.007287
375,-2.8688759999999998,-0.429624,-0.690481,-0.244869,0.416529,0.875517,0.013596,-0.00907,0.0013779999999999999,0.011044,-0.013727000000000001,0.007631999999999999
376,-2.868976,-0.429883,-0.690395,-0.24475300000000003,0.41676499999999994,0.8754370000000001,0.014644999999999998,-0.004828,-0.002993,0.013384,-0.014757,0.007359999999999999
377,-2.869077,-0.43000200000000005,-0.690357,-0.24465100000000004,0.41687299999999994,0.8754139999999999,0.009301,-0.002696,0.00124,0.005255,-0.019976,0.005918
378,-2.869173,-0.430309,-0.690384,-0.24453200000000003,0.417152,0.8753139999999999,0.016745,-0.003804,0.005566,0.006876,-0.014686000000000001,0.007453
379,-2.8692599999999997,-0.43060600000000004,-0.690329,-0.24442199999999997,0.417422,0.875216,0.01463,-0.004841,0.00021099999999999998,0.00875,-0.009081,0.006437000000000001
380,-2.869263,-0.43070200000000003,-0.690195,-0.24440900000000002,0.417509,0.875178,0.008291,0.002664,-0.006252000000000001,0.010324,-0.016188,-1e-05
381,-2.869047,-0.430803,-0.689952,-0.244587,0.417601,0.875085,0.009392,0.005873,-0.010520999999999999,0.009541,-0.019407,0.0008
382,-2.868871,-0.430958,-0.6896479999999999,-0.24472399999999997,0.417741,0.87498,0.012583,0.002671,-0.011563,0.012165,-0.017854,0.001424
383,-2.868696,-0.431017,-0.689311,-0.24486999999999998,0.41779499999999997,0.8749129999999999,0.010367,0.003822,-0.013777000000000001,0.0108,-0.016062,0.0031850000000000003
384,-2.868457,-0.431062,-0.688968,-0.245074,0.417836,0.8748370000000001,0.005043,0.00491,-0.014884,0.00957,-0.013569,0.0034439999999999996
385,-2.8682540000000003,-0.43103199999999997,-0.688656,-0.245254,0.41780900000000004,0.874798,0.0007700000000000001,0.00386,-0.014913,0.010513,-0.014305000000000002,0.002369
386,-2.8681400000000004,-0.43082700000000007,-0.688438,-0.245378,0.41762200000000005,0.8748520000000001,-0.0045780000000000005,0.003865,-0.011745,0.008668,-0.013478,0.006099
387,-2.867971,-0.430642,-0.688282,-0.24554600000000001,0.417454,0.874885,-0.006712,0.005995,-0.009627,0.009737,-0.014027000000000001,0.0022660000000000002
388,-2.867801,-0.430428,-0.688149,-0.245719,0.41726,0.8749299999999999,-0.007784,0.005994,-0.008565999999999999,0.010383,-0.013314,0.002344
389,-2.867649,-0.43021000000000004,-0.68802,-0.24587699999999998,0.417062,0.87498,-0.006706999999999999,0.0070599999999999994,-0.009628,0.011182,-0.015984,-0.0016579999999999998
390,-2.867476,-0.429979,-0.687909,-0.246054,0.41685200000000006,0.87503,-0.009908,0.008131999999999999,-0.008583,0.010733,-0.017377,-0.0015710000000000001
391,-2.867307,-0.42971899999999996,-0.687807,-0.246231,0.416616,0.875093,-0.008846,0.007063,-0.008575,0.009003,-0.015813,0.002868
392,-2.8671159999999998,-0.42941999999999997,-0.6876939999999999,-0.246432,0.41634399999999994,0.875166,-0.014242,0.009302,-0.010806999999999999,0.009706999999999999,-0.013496000000000001,0.009173
393,-2.866888,-0.429019,-0.687525,-0.246678,0.41597799999999996,0.8752700000000001,-0.018494999999999998,0.00933,-0.014041999999999999,0.011006,-0.012338,0.0068709999999999995
394,-2.866644,-0.42848400000000003,-0.687318,-0.246952,0.41549200000000003,0.875424,-0.022747999999999997,0.010418,-0.016209,0.00864,-0.013193999999999999,0.006137
395,-2.866351,-0.427896,-0.687112,-0.24727399999999997,0.414958,0.8755870000000001,-0.027006,0.012564,-0.016242,0.010045,-0.016459,0.006065999999999999
396,-2.866009,-0.427254,-0.686979,-0.247646,0.41437299999999994,0.875758,-0.029125,0.016828,-0.015194,0.010020999999999999,-0.018255,0.00472
397,-2.865656,-0.42658100000000004,-0.686928,-0.24803000000000003,0.41376,0.8759389999999999,-0.029135,0.018941999999999997,-0.010924,0.008757,-0.013338999999999998,0.0021899999999999997
398,-2.8652919999999997,-0.425939,-0.6868989999999999,-0.24842199999999998,0.41317600000000004,0.8761030000000001,-0.030211000000000002,0.018937,-0.008795,0.009973000000000001,-0.011565,0.0008039999999999999
399,-2.864965,-0.425278,-0.6869069999999999,-0.248783,0.412574,0.8762850000000001,-0.03235,0.017879,-0.008808,0.010456,-0.010367,0.0010949999999999998
400,-2.864693,-0.424551,-0.686929,-0.24910300000000002,0.41191099999999997,0.876505,-0.033431,0.013626,-0.009878,0.008395999999999999,-0.012009,0.0034840000000000006
401,-2.8644439999999998,-0.423896,-0.686886,-0.24939499999999998,0.411315,0.876703,-0.027035000000000003,0.011477,-0.010898999999999999,0.005621,-0.014495,-0.000802
402,-2.864213,-0.42333999999999994,-0.686789,-0.24966100000000002,0.410808,0.876865,-0.022767,0.010401,-0.011936,0.007045999999999999,-0.013637,0.0017059999999999998
403,-2.864039,-0.42285500000000004,-0.686723,-0.24986799999999998,0.410366,0.8770129999999999,-0.020653,0.008255,-0.009781999999999999,0.003667,-0.015972,0.000504
404,-2.8639099999999997,-0.422516,-0.6866720000000001,-0.250019,0.41005600000000003,0.877115,-0.01108,0.006074,-0.0054399999999999995,0.006763,-0.017203,0.003714
405,-2.863818,-0.42234499999999997,-0.686683,-0.250119,0.4099,0.87716,-0.007913,0.0039109999999999995,-7.4e-05,0.0052759999999999994,-0.013614,0.004142
406,-2.863771,-0.422216,-0.6867409999999999,-0.250175,0.409783,0.8771979999999999,-0.003692,0.005045,0.0009939999999999999,0.006690000000000001,-0.014838999999999998,0.004058
407,-2.8637610000000002,-0.422116,-0.686807,-0.250195,0.409692,0.877235,-0.0037159999999999997,0.000779,0.0020670000000000003,0.011364,-0.013725999999999999,0.002938
408,-2.8637639999999998,-0.422013,-0.686858,-0.250204,0.409598,0.8772760000000001,-0.007969,0.0018679999999999999,-0.0001,0.01621,-0.01171,0.002698
409,-2.8637479999999997,-0.421741,-0.68689,-0.250248,0.40935,0.8773790000000001,-0.014356,0.0019030000000000002,-0.00335,0.021183,-0.011706,0.007661
410,-2.863674,-0.421333,-0.686816,-0.25035799999999997,0.408977,0.8775219999999999,-0.017518000000000002,0.003009,-0.010851000000000001,0.018699,-0.014140999999999999,0.007992
411,-2.863591,-0.420904,-0.68666,-0.25048000000000004,0.408586,0.877669,-0.016446000000000002,0.0019489999999999998,-0.012978,0.01493,-0.015825,0.005998
412,-2.86353,-0.420655,-0.686473,-0.25056100000000003,0.408359,0.8777520000000001,-0.004711,0.0019079999999999998,-0.012896000000000001,0.004833,-0.013446000000000001,0.011073000000000001
413,-2.8634720000000002,-0.42053199999999996,-0.686189,-0.250626,0.408246,0.877785,-0.00044800000000000005,-0.001294,-0.014999,-0.000213,-0.022626,0.005988
414,-2.863366,-0.420491,-0.685882,-0.25072300000000003,0.408208,0.877775,0.007025,0.002928,-0.011747,-0.0013369999999999999,-0.027517000000000003,-0.001768
415,-2.8632310000000003,-0.420731,-0.685665,-0.250815,0.408428,0.877647,0.020791999999999998,0.0029219999999999997,-0.001007,-0.005715,-0.025798,-0.002189
416,-2.863184,-0.42122,-0.685593,-0.250801,0.40887399999999996,0.8774430000000001,0.027155000000000002,0.001805,0.006516,-0.005089,-0.019729,0.003981
417,-2.863177,-0.421746,-0.685701,-0.250749,0.409354,0.8772340000000001,0.024998,0.003913000000000001,0.013975999999999999,-0.001967,-0.016378999999999998,0.0011380000000000001
418,-2.863191,-0.422183,-0.685888,-0.250687,0.409753,0.877065,0.018587,0.001805,0.013934,0.001053,-0.011773,-3.6e-05
419,-2.863243,-0.42236599999999996,-0.6859970000000001,-0.250621,0.409919,0.877006,0.007896,-0.0034170000000000003,0.00639,0.012812,-0.00309,0.000893
420,-2.8633599999999997,-0.422411,-0.685987,-0.250513,0.40996099999999996,0.877017,-0.00061,-0.0065450000000000005,-0.00328,0.012705,-0.0031309999999999997,0.0008820000000000001
421,-2.863433,-0.42227,-0.685841,-0.250465,0.409832,0.877091,-0.0027199999999999998,-0.006516,-0.008634999999999999,0.015678,-0.008434,0.0034020000000000005
422,-2.863506,-0.422184,-0.6855979999999999,-0.25040999999999997,0.409754,0.877143,0.00049,-0.007579000000000001,-0.011816,0.014555000000000002,-0.013178,0.005822
423,-2.863584,-0.422129,-0.6853279999999999,-0.250348,0.409704,0.877184,0.001552,-0.009709,-0.012874000000000002,0.014493,-0.013128,0.0057810000000000005
424,-2.863664,-0.422079,-0.68505,-0.250283,0.40965799999999997,0.877224,0.0005,-0.006509999999999999,-0.012886000000000002,0.018014,-0.013662,0.004856
425,-2.863713,-0.421995,-0.684793,-0.25025,0.409582,0.8772690000000001,0.000509,-0.004379,-0.012889,0.016974,-0.012502,0.008015000000000001
426,-2.863689,-0.421878,-0.684535,-0.250284,0.409474,0.87731,-0.0037579999999999996,-0.004365,-0.012918,0.017008000000000002,-0.012395,0.007975
427,-2.863685,-0.42161899999999997,-0.684284,-0.250317,0.409238,0.87741,-0.009191,-0.003137,-0.017174000000000002,0.014385,-0.010938,0.006364
428,-2.86366,-0.42126899999999995,-0.684024,-0.25037800000000004,0.40891900000000003,0.877541,-0.013449000000000001,6.9e-05,-0.01614,0.011547,-0.018279,0.003288
429,-2.863583,-0.42093800000000003,-0.683746,-0.250483,0.408617,0.8776520000000001,-0.011315,-0.000999,-0.017192,0.010294,-0.020525,0.006259000000000001
430,-2.863585,-0.420662,-0.683538,-0.25051100000000004,0.40836500000000003,0.877761,-0.008139,-0.002093,-0.012894999999999998,0.0054859999999999996,-0.02189,0.005372
431,-2.863509,-0.42048800000000003,-0.683303,-0.250598,0.408206,0.8778100000000001,-0.001719,0.001085,-0.013923,0.005328,-0.022281,0.006451999999999999
432,-2.8633580000000003,-0.42045699999999997,-0.682988,-0.250734,0.408177,0.877784,0.008969,0.004248,-0.01492,0.007494,-0.022359,0.002495
433,-2.8631330000000004,-0.420608,-0.68257,-0.25091399999999997,0.408316,0.877669,0.016447,0.004229999999999999,-0.017004,0.0075060000000000005,-0.020727000000000002,0.0041979999999999995
434,-2.862868,-0.42084799999999994,-0.6821189999999999,-0.25111999999999995,0.408535,0.877508,0.018576,0.005279,-0.014854,0.005423,-0.022533,0.0038090000000000003
435,-2.862613,-0.42109399999999997,-0.68174,-0.251316,0.40875900000000004,0.877347,0.019628,0.005263,-0.011642,0.005222,-0.022772999999999998,0.004519
436,-2.86238,-0.42141300000000004,-0.681412,-0.25148400000000004,0.40905,0.8771629999999999,0.023013,0.005185,-0.009334,0.006291,-0.020516,0.003773
437,-2.862129,-0.421782,-0.6811020000000001,-0.251662,0.409387,0.8769540000000001,0.026219,0.0073,-0.008246,0.011108,-0.012842,0.00746
438,-2.861854,-0.42225,-0.68076,-0.25185100000000005,0.409814,0.8767010000000001,0.025152,0.007304000000000001,-0.008253,0.011295999999999999,-0.013269,0.007714
439,-2.861631,-0.422537,-0.680459,-0.25201399999999996,0.410075,0.876531,0.019813,0.006257,-0.008289,0.012665000000000001,-0.0059310000000000005,0.000254
440,-2.8614450000000002,-0.42271000000000003,-0.6802560000000001,-0.252158,0.410234,0.876416,0.008053,0.005215999999999999,-0.004097,0.012395999999999999,-0.004441,0.003406
441,-2.861426,-0.42271400000000003,-0.680197,-0.25217399999999995,0.41023699999999996,0.87641,-0.001592,-0.001155,-0.0009519999999999999,0.009512999999999999,-0.005558,0.00158
442,-2.861514,-0.42258500000000004,-0.680271,-0.25211100000000003,0.41011899999999996,0.876483,-0.011222,-0.0032689999999999998,0.003257,0.005407,-0.006111999999999999,0.000103
443,-2.861716,-0.422284,-0.680488,-0.25196799999999997,0.409844,0.876653,-0.018449,-0.004396,0.004432,0.005935,-0.010903,-0.000341
444,-2.861925,-0.421939,-0.680715,-0.251824,0.40953,0.876841,-0.018449,-0.004396,0.004432,0.004739,-0.011902,-0.001429
445,-2.86213,-0.42168599999999995,-0.680906,-0.251673,0.4093,0.876993,-0.009915,-0.004425,0.004490999999999999,0.003855,-0.019681999999999998,0.006736
446,-2.862258,-0.421588,-0.6809930000000001,-0.25157199999999996,0.40921,0.877064,-0.0034990000000000004,-0.004435000000000001,0.0013310000000000002,0.00441,-0.019729,0.004589
447,-2.862358,-0.421496,-0.6810390000000001,-0.25149499999999997,0.40912600000000005,0.8771260000000001,-0.004547,-0.002292,-0.0008150000000000001,0.006362,-0.021384999999999998,0.006648
448,-2.862409,-0.421465,-0.681075,-0.251454,0.409098,0.877151,0.0029170000000000003,-0.00020099999999999998,0.002439,0.005528,-0.02186,0.006973999999999999
449,-2.8623790000000002,-0.42168500000000003,-0.6809649999999999,-0.25145500000000004,0.40929899999999997,0.877057,0.018953,-0.000227,-0.004927,0.008107,-0.014737,0.012988
450,-2.862287,-0.42197299999999993,-0.6806909999999999,-0.25150300000000003,0.409561,0.87692,0.017915,0.001925,-0.009209,0.010598,-0.020172,0.005647999999999999
451,-2.8620810000000003,-0.42214300000000005,-0.680379,-0.251664,0.40971599999999997,0.876801,0.011616,0.0050799999999999994,-0.010199,0.018373,-0.018633,-0.001084
452,-2.861879,-0.42230200000000007,-0.68011,-0.251824,0.409861,0.8766879999999999,0.012664,0.002937,-0.008053,0.016549,-0.017695,0.004354
453,-2.86175,-0.42250299999999996,-0.679929,-0.25191399999999997,0.410045,0.876576,0.012648999999999999,0.003986,-0.003781,0.015662,-0.017986000000000002,0.009669
454,-2.861602,-0.422676,-0.679828,-0.25202399999999997,0.410203,0.8764700000000001,0.012664,0.009303,-0.001652,0.014216,-0.013932,0.007670000000000001
455,-2.8614349999999997,-0.42281899999999994,-0.679815,-0.252154,0.410333,0.8763719999999999,0.006248,0.009313,0.001508,0.014758000000000002,-0.012368,3.2e-05
456,-2.861354,-0.422818,-0.679837,-0.252226,0.410332,0.876352,-0.0012289999999999998,0.005086,-0.000675,0.009489000000000001,-0.013314,0.004019
457,-2.861267,-0.422778,-0.679823,-0.252307,0.41029499999999997,0.876346,0.0019809999999999997,0.005084,-0.0027890000000000002,0.008532,-0.015947,0.0052759999999999994
458,-2.8611400000000002,-0.42284799999999995,-0.679726,-0.25240999999999997,0.41036000000000006,0.876286,0.009473,0.00614,-0.007011,0.007705,-0.016027,0.002559
459,-2.8609560000000003,-0.42302399999999996,-0.67952,-0.252551,0.41051899999999997,0.8761709999999999,0.012669,0.005064,-0.006987,0.007205,-0.015561000000000002,0.001423
460,-2.860855,-0.423192,-0.67932,-0.25261999999999996,0.41067299999999995,0.87608,0.011639,0.0018780000000000001,-0.006809999999999999,0.004007999999999999,-0.018477,0.000858
461,-2.860759,-0.42331,-0.679157,-0.252691,0.41078100000000006,0.876008,0.008429,0.002942,-0.003629,0.004293,-0.015837,0.0017989999999999998
462,-2.860707,-0.423371,-0.67912,-0.25273,0.410836,0.8759709999999999,0.003076,0.001882,-0.00045999999999999996,0.003249,-0.013681,0.000723
463,-2.860663,-0.42337600000000003,-0.679118,-0.252768,0.410841,0.875957,-0.000125,0.002955,0.000584,0.006735,-0.014127,0.001713
464,-2.860637,-0.423307,-0.679132,-0.252798,0.410778,0.875978,-0.00011999999999999999,0.002959,-0.000484,0.008246,-0.016537,0.005477
465,-2.860583,-0.42332700000000006,-0.679133,-0.252843,0.410796,0.875956,0.003076,0.002943,0.000607,0.00829,-0.016555,0.005497999999999999
466,-2.860548,-0.42337700000000006,-0.6791590000000001,-0.252868,0.410842,0.875928,0.006267,0.0018629999999999999,0.0016989999999999998,0.008879999999999999,-0.019988,0.000446
467,-2.860558,-0.42352700000000004,-0.679179,-0.252842,0.41097799999999995,0.875871,0.008381,-0.0013449999999999998,0.002786,0.010533,-0.017805,0.003997
468,-2.860578,-0.423725,-0.6791739999999999,-0.25280199999999997,0.411159,0.875798,0.011587,-0.000291,0.002807,0.011193999999999999,-0.018413,0.006252000000000001
469,-2.860591,-0.42392399999999997,-0.679183,-0.252768,0.41134,0.8757219999999999,0.011585999999999999,0.00183,0.00201,0.010976999999999999,-0.01542,0.004755
470,-2.860575,-0.424054,-0.679194,-0.252767,0.411459,0.875667,0.006247,0.0018449999999999999,0.003041,0.013738,-0.014074000000000001,0.004139
471,-2.860606,-0.424075,-0.679267,-0.252737,0.41147799999999995,0.875667,0.000908,0.001859,0.004072,0.011694,-0.014657,0.004567
472,-2.860652,-0.424037,-0.6793710000000001,-0.252701,0.411443,0.875693,-0.001231,0.000801,0.004058,0.010025,-0.015127000000000002,0.0063560000000000005
473,-2.86069,-0.424008,-0.679431,-0.252671,0.41141700000000003,0.875714,-0.000154,0.0008060000000000001,0.001929,0.009797,-0.013147,0.002872
474,-2.8606529999999997,-0.424012,-0.679408,-0.252703,0.411421,0.8757020000000001,0.000936,0.0018850000000000002,-0.002337,0.009279,-0.012693000000000001,0.003692
475,-2.860604,-0.42399899999999996,-0.6793399999999999,-0.252747,0.411409,0.8756940000000001,0.002018,0.002955,-0.0044670000000000005,0.01265,-0.013597,0.002479
476,-2.8605549999999997,-0.42397700000000005,-0.679267,-0.252793,0.41138900000000006,0.875691,0.000831,0.001854,-0.003172,0.009659000000000001,-0.015698,0.003963
477,-2.860529,-0.42392799999999997,-0.679241,-0.252822,0.411344,0.875705,-0.002384,0.000791,-0.001056,0.010435999999999999,-0.01486,0.005475
478,-2.860579,-0.42382299999999995,-0.6792699999999999,-0.252789,0.41124799999999995,0.87576,-0.0045320000000000004,-0.001336,-0.0,0.0076879999999999995,-0.013711000000000001,0.0051
479,-2.860623,-0.42369799999999996,-0.679325,-0.252766,0.411134,0.875819,-0.004522,0.000795,-3e-06,0.007237,-0.016817,0.0036509999999999997
480,-2.860622,-0.423625,-0.679361,-0.252775,0.41106800000000004,0.875848,-0.001317,0.001849,1.8e-05,0.007825,-0.018902000000000002,0.00225
481,-2.860659,-0.423566,-0.679405,-0.252749,0.411013,0.8758799999999999,-0.001326,-0.00028199999999999997,2.1e-05,0.008563,-0.016269,0.004613
482,-2.860649,-0.423548,-0.6794399999999999,-0.25276,0.410997,0.875885,0.000807,0.0018329999999999998,0.002169,0.009412,-0.016344,0.002594
483,-2.860603,-0.42361400000000005,-0.67943,-0.252792,0.41105699999999995,0.8758469999999999,0.004018,0.002891,0.0011220000000000002,0.008453,-0.016175,0.004234
484,-2.860568,-0.42367299999999997,-0.679404,-0.252817,0.411112,0.875815,0.006062,0.001809,0.00023700000000000001,0.007776000000000001,-0.016977000000000003,0.005884
485,-2.8605150000000004,-0.42376899999999995,-0.679383,-0.25285100000000005,0.411199,0.875764,0.007137999999999999,0.002875,-0.000825,0.010145,-0.017309,0.003631
486,-2.860462,-0.42389499999999997,-0.679318,-0.252884,0.411314,0.8757010000000001,0.007134000000000001,0.0007480000000000001,-0.0018899999999999998,0.010987,-0.019254,0.006029
487,-2.8604060000000002,-0.424026,-0.679266,-0.252918,0.411434,0.875634,0.007123999999999999,0.00074,0.000246,0.011387000000000001,-0.018749000000000002,0.0025399999999999997
488,-2.860372,-0.42416899999999996,-0.679222,-0.252931,0.41156400000000004,0.875569,0.008191,0.000736,0.000254,0.008974,-0.018818,0.006603
489,-2.8603419999999997,-0.42430200000000007,-0.679172,-0.252942,0.411684,0.875509,0.008196,0.00074,-0.0008150000000000001,0.008161,-0.018847,0.0063880000000000004
490,-2.860307,-0.42447700000000005,-0.679128,-0.25295300000000004,0.41184399999999993,0.875431,0.011391,0.001786,0.001343,0.007790000000000001,-0.01835,0.00607
491,-2.860281,-0.42465699999999995,-0.679107,-0.25295500000000004,0.412008,0.875353,0.010173999999999999,0.00279,0.001483,0.005778,-0.016119,0.004057
492,-2.8602380000000003,-0.424867,-0.6791050000000001,-0.25296799999999997,0.4122,0.875259,0.011231,0.0017170000000000002,0.00256,0.0054399999999999995,-0.015013999999999998,0.00502
493,-2.860217,-0.425037,-0.679114,-0.25296799999999997,0.412355,0.875187,0.009097,0.002785,0.0036119999999999998,0.008888,-0.011903,0.004971
494,-2.860232,-0.425124,-0.679157,-0.252945,0.412434,0.8751559999999999,0.002677,-0.001454,0.003573,0.008942,-0.012074,-0.000538
495,-2.860364,-0.42503,-0.6792779999999999,-0.25284,0.41234799999999994,0.8752270000000001,-0.011211,-0.004605,0.004548,0.009539,-0.012903999999999999,-0.002867
496,-2.860547,-0.42481199999999997,-0.679457,-0.252704,0.41215,0.875359,-0.010144,-0.0035479999999999995,0.005622,0.009128,-0.011744,0.003715
497,-2.8606979999999997,-0.42466499999999996,-0.679595,-0.252589,0.41201499999999996,0.8754549999999999,-0.004804999999999999,-0.0046229999999999995,0.003525,0.009242,-0.012693000000000001,0.006411
498,-2.8607970000000003,-0.424595,-0.6796369999999999,-0.252511,0.411951,0.875508,-0.0015810000000000002,-0.002491,0.00033999999999999997,0.011162,-0.01565,0.005443
499,-2.860879,-0.424559,-0.679617,-0.252442,0.411919,0.8755430000000001,0.0014550000000000001,-0.0036340000000000005,-0.000599,0.009706000000000001,-0.020287,0.005347
500,-2.8608729999999998,-0.42475799999999997,-0.679531,-0.252425,0.4121,0.8754620000000001,0.014286000000000002,0.000591,-0.002652,0.008697,-0.011526999999999999,0.012386
501,-2.8608,-0.42491,-0.679355,-0.252471,0.412239,0.875384,0.006833,0.00063,-0.005908,0.010329999999999999,-0.01519,0.007764
502,-2.860696,-0.424833,-0.679221,-0.25257199999999996,0.41216899999999995,0.875389,-0.003812,0.004932,-0.007056000000000001,0.012567,-0.019530000000000002,0.0011220000000000002
503,-2.860622,-0.42460699999999996,-0.679177,-0.252662,0.411963,0.875459,-0.008112999999999999,0.001734,-0.002809,0.011894,-0.022009,0.006239
504,-2.860615,-0.42447799999999997,-0.6792060000000001,-0.252683,0.41184499999999996,0.875509,-0.003865,0.001702,0.001493,0.010297,-0.021129,0.009745
505,-2.860533,-0.42443100000000006,-0.679227,-0.25276,0.411803,0.8755059999999999,0.001498,0.007014,0.00045599999999999997,0.009398,-0.021086,0.004224
506,-2.860366,-0.42445200000000005,-0.679244,-0.252905,0.411821,0.8754559999999999,0.002575,0.010202,0.001527,0.012106,-0.01761,1.7e-05
507,-2.860257,-0.424432,-0.679268,-0.253002,0.411803,0.8754370000000001,-0.002779,0.004899000000000001,0.00042800000000000005,0.011516,-0.015837,-0.000788
508,-2.8602060000000002,-0.424284,-0.679285,-0.253064,0.41166800000000003,0.875483,-0.003987,0.004845,-0.000596,0.010265999999999999,-0.012695999999999999,0.0027370000000000003
509,-2.8601520000000002,-0.42417,-0.679312,-0.25312399999999996,0.41156499999999996,0.8755139999999999,-0.003991,0.0037799999999999995,-0.000595,0.008572,-0.013538999999999999,0.00028
510,-2.8601240000000003,-0.42407,-0.679312,-0.25316,0.41147399999999995,0.8755459999999999,-0.006135,0.000596,-0.001674,0.008608,-0.013447999999999998,0.00024700000000000004
511,-2.860173,-0.423888,-0.679341,-0.25313800000000003,0.411308,0.8756309999999999,-0.00935,-0.0015279999999999998,-0.000625,0.008005,-0.017509,0.0017800000000000001
512,-2.860234,-0.42368599999999995,-0.679412,-0.253108,0.41112299999999996,0.875727,-0.008288,-0.000475,0.001517,0.007227,-0.018423,0.004949
513,-2.860249,-0.42359399999999997,-0.679488,-0.253105,0.41103999999999996,0.8757659999999999,-0.004025,0.000567,0.003682,0.007225,-0.018338999999999998,0.00491
514,-2.8603080000000003,-0.42355200000000004,-0.679603,-0.253058,0.411001,0.875798,-0.001906,-0.0005139999999999999,0.005835,0.008231,-0.017447,0.006495999999999999
515,-2.860375,-0.42350200000000005,-0.679724,-0.25300500000000004,0.41095600000000004,0.875835,-0.0030600000000000002,-0.00056,0.004793,0.008071,-0.018149000000000002,0.006154
516,-2.860374,-0.42348500000000006,-0.679797,-0.253008,0.41093999999999997,0.875841,-0.0009119999999999999,0.001568,0.003737,0.008074,-0.018134,0.006148
517,-2.860407,-0.423429,-0.679916,-0.252985,0.41088900000000006,0.875872,-0.001984,0.001567,0.004797999999999999,0.009562000000000001,-0.015381,0.004728
518,-2.86043,-0.42343500000000006,-0.680031,-0.252965,0.410894,0.875875,0.000145,0.0015550000000000002,0.005881,0.0076040000000000005,-0.017813,0.0049689999999999995
519,-2.860475,-0.423467,-0.6801649999999999,-0.252921,0.41092399999999996,0.8758739999999999,0.000136,0.00048600000000000005,0.006951000000000001,0.008887,-0.016454,0.005795000000000001
520,-2.86053,-0.423451,-0.680288,-0.25287600000000005,0.410909,0.8758940000000001,0.000145,0.0004940000000000001,0.004814,0.00875,-0.014591999999999999,0.002341
521,-2.860564,-0.42346999999999996,-0.680366,-0.252843,0.410926,0.8758950000000001,0.002288,0.000495,0.002693,0.007756,-0.01432,0.00472
522,-2.8606,-0.42349499999999995,-0.680424,-0.252809,0.41094899999999995,0.8758940000000001,0.001217,0.000495,0.003754,0.010194,-0.016235,0.0051329999999999995
523,-2.8606599999999998,-0.423504,-0.680509,-0.252755,0.410958,0.875906,0.001073,-0.000615,0.003766,0.010125,-0.016365,0.003489
524,-2.860737,-0.423493,-0.680604,-0.252689,0.410948,0.8759299999999999,-0.002137,-0.002734,0.003747,0.008411,-0.016172,0.005220000000000001
525,-2.860807,-0.423437,-0.680719,-0.252634,0.410896,0.87597,-0.003195,-0.0006,0.003737,0.010445999999999999,-0.017218999999999998,0.0038060000000000004
526,-2.860893,-0.423382,-0.68087,-0.252565,0.410846,0.8760129999999999,-0.002132,0.000453,0.005879,0.008989,-0.017215,0.004236
527,-2.8609880000000003,-0.42332600000000004,-0.681009,-0.252488,0.41079499999999997,0.876059,-0.003218,-0.0027429999999999998,0.006944,0.007476999999999999,-0.015316999999999999,0.0036409999999999997
528,-2.8610849999999997,-0.42329399999999995,-0.681183,-0.252407,0.41076599999999996,0.8760959999999999,-0.002152,-0.001686,0.008018,0.008327,-0.018798,0.0017420000000000003
529,-2.8611869999999997,-0.423252,-0.681359,-0.252322,0.41072700000000006,0.876138,-0.003218,-0.0016820000000000001,0.008011,0.006899,-0.016074,0.003348
530,-2.861294,-0.42321800000000004,-0.681487,-0.252232,0.41069700000000003,0.876179,-0.0021420000000000002,-0.002738,0.004815,0.008015000000000001,-0.017005000000000003,0.00433
531,-2.861395,-0.42322600000000005,-0.681616,-0.252143,0.410704,0.876201,0.0010539999999999998,-0.001693,0.006972,0.008964,-0.018522999999999998,0.00179
532,-2.861475,-0.423254,-0.681707,-0.252069,0.41073000000000004,0.87621,0.0020280000000000003,-0.002768,0.003764,0.010140999999999999,-0.017816,0.0042840000000000005
533,-2.86159,-0.42327600000000004,-0.681843,-0.25196599999999997,0.410749,0.87623,0.0020280000000000003,-0.000646,0.0058969999999999995,0.007764,-0.019255,0.005957
534,-2.861714,-0.423303,-0.681983,-0.251855,0.410775,0.87625,0.000947,-0.002778,0.006961,0.008813,-0.017296000000000002,0.0034799999999999996
535,-2.8618419999999998,-0.423338,-0.682129,-0.251738,0.41080600000000006,0.876268,0.0020280000000000003,-0.000646,0.0058969999999999995,0.0092,-0.01629,0.005765999999999999
536,-2.861949,-0.42339099999999996,-0.6822560000000001,-0.25163800000000003,0.410854,0.876274,0.003085,-0.00172,0.006973999999999999,0.01087,-0.017879,0.005745
537,-2.862029,-0.423493,-0.682381,-0.25155700000000003,0.410947,0.8762540000000001,0.004152,-0.0017230000000000001,0.0069819999999999995,0.008773999999999999,-0.016706,0.005094
538,-2.8621630000000002,-0.423554,-0.682553,-0.251433,0.41100299999999995,0.8762629999999999,0.0020039999999999997,-0.0017289999999999999,0.010171,0.009489000000000001,-0.017753,0.0032380000000000004
539,-2.862319,-0.42361800000000005,-0.682751,-0.251288,0.41106099999999995,0.876276,0.001999,-0.002794,0.010173,0.008567,-0.015340000000000001,0.004659
540,-2.862502,-0.42366099999999995,-0.6829569999999999,-0.251123,0.411101,0.8763049999999999,0.000869,-0.004959000000000001,0.009105,0.006768000000000001,-0.012938,0.004524
541,-2.862683,-0.423677,-0.683168,-0.25096199999999996,0.41111499999999995,0.876344,-0.002327,-0.003882,0.009081,0.0070810000000000005,-0.015393,0.002257
542,-2.862797,-0.42368999999999996,-0.683344,-0.250861,0.411127,0.876368,0.000898,-0.0006889999999999999,0.006963,0.008383,-0.013529,0.004582999999999999
543,-2.862896,-0.423737,-0.683449,-0.250769,0.41117,0.876374,0.003041,-0.001749,0.003775,0.009741,-0.016318,0.002822
544,-2.8629439999999997,-0.42382200000000003,-0.683495,-0.250717,0.41124700000000003,0.876353,0.005189,0.001439,0.003785,0.009918000000000001,-0.017067,0.004171
545,-2.862935,-0.42393100000000006,-0.6835319999999999,-0.250713,0.411347,0.876307,0.006261,0.00144,0.002725,0.009470999999999999,-0.016526,0.002859
546,-2.862951,-0.424018,-0.683552,-0.250689,0.411426,0.876276,0.004122,-0.000679,0.001644,0.009401000000000001,-0.016422,0.00379
547,-2.862981,-0.42406400000000005,-0.683581,-0.250658,0.41146800000000006,0.876266,0.004137,0.001403,0.002696,0.009462,-0.015121,0.003083
548,-2.8629599999999997,-0.42412,-0.683597,-0.25066900000000003,0.41151899999999997,0.876238,0.004152,0.002477,0.000558,0.009962,-0.011845999999999999,0.006483
549,-2.8628970000000002,-0.424191,-0.68355,-0.250716,0.411584,0.876194,0.004156,0.0024809999999999997,-0.0005099999999999999,0.009170000000000001,-0.014687,0.005581
550,-2.8628430000000002,-0.424257,-0.6835399999999999,-0.250756,0.41164399999999995,0.8761540000000001,0.009491,0.004584,0.001661,0.005654,-0.01635,0.006536
551,-2.862747,-0.424567,-0.683446,-0.250805,0.41192700000000004,0.876007,0.018035,0.002441,-0.00255,0.007611,-0.010346,0.008255
552,-2.862676,-0.42481199999999997,-0.683288,-0.250839,0.412149,0.875893,0.011634,0.001402,-0.0036609999999999998,0.008026,-0.019846000000000003,0.000404
553,-2.862527,-0.424871,-0.683197,-0.250963,0.412203,0.8758319999999999,0.002066,0.008893,-0.0037380000000000004,0.008454999999999999,-0.015397999999999998,0.000343
554,-2.862372,-0.42485500000000004,-0.683117,-0.251101,0.412189,0.875799,0.00098,0.004636,-0.00374,0.008715,-0.015033000000000001,0.006631999999999999
555,-2.862247,-0.424825,-0.6829810000000001,-0.251214,0.41216099999999994,0.8757799999999999,0.000989,0.003583,-0.006943,0.0072569999999999996,-0.013296,0.00685
556,-2.862069,-0.42473500000000003,-0.682815,-0.25138,0.412079,0.875771,-0.0032479999999999996,0.005699,-0.008103,0.009223,-0.014725,0.000724
557,-2.861945,-0.42457700000000004,-0.6826840000000001,-0.25150700000000004,0.41193500000000005,0.8758030000000001,-0.007529999999999999,0.001457,-0.009196,0.009747,-0.015146000000000001,0.001639
558,-2.8619380000000003,-0.4243,-0.682597,-0.251544,0.41168299999999997,0.8759110000000001,-0.012883000000000002,-0.000663,-0.007094,0.009493999999999999,-0.016038,0.0023239999999999997
559,-2.861992,-0.423958,-0.6825720000000001,-0.25153600000000004,0.411371,0.8760600000000001,-0.015027,-0.000664,-0.004973,0.007151,-0.017405,0.001794
560,-2.862017,-0.42368599999999995,-0.68257,-0.25154499999999996,0.41112299999999996,0.876173,-0.011836,-0.001745,-0.0038810000000000003,0.0076939999999999995,-0.016271,0.000688
561,-2.8620919999999996,-0.42348900000000006,-0.682581,-0.251502,0.410944,0.8762700000000001,-0.0075829999999999995,-0.002834,-0.001713,0.006018,-0.017831,0.005961999999999999
562,-2.862173,-0.423324,-0.682619,-0.251449,0.41079399999999994,0.8763559999999999,-0.0075829999999999995,-0.001773,-0.000646,0.009307,-0.017865,0.0044729999999999995
563,-2.862207,-0.42311499999999996,-0.682668,-0.25144299999999997,0.410602,0.876447,-0.010787999999999999,-0.001766,0.000399,0.005166,-0.017658,0.003619
564,-2.8622900000000002,-0.42286599999999996,-0.682746,-0.251398,0.410376,0.876566,-0.012894999999999998,-0.0017640000000000002,0.000283,0.004603,-0.01824,0.003698
565,-2.86237,-0.422591,-0.682809,-0.25136,0.410125,0.8766950000000001,-0.010751,-0.0028239999999999997,-0.0029059999999999997,0.007875,-0.016662,0.0033710000000000003
566,-2.86237,-0.422429,-0.6827439999999999,-0.25137800000000005,0.40997700000000004,0.8767590000000001,-0.002193,-0.000711,-0.006053,0.009267000000000001,-0.018574,0.002803
567,-2.862329,-0.42237299999999994,-0.682609,-0.251421,0.409926,0.876771,0.001003,-0.0017870000000000002,-0.006029,0.008638,-0.020308,0.0020440000000000002
568,-2.862298,-0.422339,-0.682479,-0.251452,0.409895,0.876777,0.00207,-0.001791,-0.006022,0.008959,-0.013548,0.00773
569,-2.862323,-0.422309,-0.6824279999999999,-0.251433,0.409868,0.8767950000000001,-0.00115,-0.000736,-0.000705,0.007123999999999999,-0.013719,0.004324000000000001
570,-2.862366,-0.422237,-0.682445,-0.251404,0.40980200000000006,0.876834,-0.004365,-0.002859,0.000344,0.007690000000000001,-0.014782,0.002576
571,-2.862476,-0.422076,-0.68253,-0.251325,0.409656,0.876925,-0.008646,-0.002857,0.003518,0.010114,-0.012819999999999998,0.004178
572,-2.862622,-0.421922,-0.682638,-0.251214,0.409515,0.877022,-0.007579000000000001,-0.003899,0.00231,0.010568000000000001,-0.014831,0.006751000000000001
573,-2.862736,-0.42179799999999995,-0.68271,-0.251129,0.409402,0.877099,-0.006508,-0.0038979999999999996,0.0012490000000000001,0.009689,-0.012994,0.007239
574,-2.86282,-0.42168199999999995,-0.682755,-0.25106799999999996,0.409296,0.877166,-0.004364,-0.002836,0.000195,0.007476000000000001,-0.015740999999999998,0.0029
575,-2.862894,-0.42157799999999995,-0.68278,-0.251014,0.4092,0.877225,-0.003293,-0.002836,-0.000866,0.005393,-0.014791,0.003909
576,-2.862952,-0.421462,-0.682815,-0.25097600000000003,0.409095,0.877285,-0.005425999999999999,-0.0007059999999999999,0.001253,0.008621,-0.01879,0.002186
577,-2.863012,-0.421393,-0.682854,-0.25093200000000004,0.409032,0.8773270000000001,-0.003293,-0.001775,0.00020099999999999998,0.00525,-0.017629,0.0036079999999999997
578,-2.863089,-0.42135900000000004,-0.682866,-0.250868,0.409001,0.87736,0.0009699999999999999,-0.003915999999999999,-0.0008349999999999999,0.009733,-0.018650999999999997,0.005132
579,-2.863137,-0.42139,-0.682844,-0.250823,0.409029,0.87736,0.003113,-0.0017929999999999999,-0.0008230000000000001,0.009687999999999999,-0.018678999999999998,0.005132
580,-2.863152,-0.42143,-0.682791,-0.250805,0.409066,0.877347,0.007359,0.000343,-0.0009480000000000001,0.009945,-0.017724,0.007205
581,-2.86313,-0.42156400000000005,-0.6827270000000001,-0.250809,0.409188,0.87729,0.010559,0.001393,0.00014199999999999998,0.009018,-0.017541,0.002868
582,-2.863068,-0.421717,-0.682692,-0.250846,0.409328,0.8772139999999999,0.008435,0.0035310000000000003,0.000124,0.009115999999999999,-0.015987,0.002211
583,-2.863016,-0.421862,-0.682665,-0.250875,0.40946,0.877143,0.007359,0.0014039999999999999,0.00011899999999999999,0.010199,-0.015997,0.0030440000000000003
584,-2.8629990000000003,-0.421893,-0.682669,-0.25088699999999997,0.409488,0.877127,-0.00011399999999999999,0.001426,0.001135,0.011034,-0.012819999999999998,0.003946
585,-2.862987,-0.421903,-0.682708,-0.250896,0.409497,0.8771200000000001,0.00202,0.00248,0.0022170000000000002,0.009914,-0.015453999999999999,0.004746
586,-2.863009,-0.42189399999999994,-0.682752,-0.250877,0.409489,0.877129,0.0020050000000000003,-0.0007160000000000001,0.002221,0.008278,-0.01511,0.004111999999999999
587,-2.863025,-0.421879,-0.682789,-0.250865,0.409476,0.877138,-0.00020099999999999998,-0.000721,-8e-06,0.007976,-0.013266,0.002607
588,-2.863039,-0.421858,-0.682774,-0.250855,0.409456,0.87715,0.0008810000000000001,0.00141,-0.0010710000000000001,0.009492,-0.01227,0.002184
589,-2.863009,-0.421824,-0.682699,-0.250886,0.409425,0.8771549999999999,0.0008849999999999999,0.00035299999999999996,-0.003206,0.008179,-0.016984,0.004025
590,-2.862965,-0.421835,-0.682633,-0.250923,0.409436,0.8771399999999999,0.001947,0.00034500000000000004,-0.00213,0.006659999999999999,-0.015957,0.0027129999999999997
591,-2.8629119999999997,-0.421824,-0.682562,-0.250971,0.409426,0.87713,-0.000172,0.001426,-0.0042829999999999995,0.010721,-0.015138999999999998,0.002585
592,-2.8628549999999997,-0.42178000000000004,-0.6824859999999999,-0.251026,0.409385,0.8771329999999999,0.0009050000000000001,0.003553,-0.004278,0.008502,-0.01786,0.00542
593,-2.86275,-0.421868,-0.682416,-0.251107,0.409465,0.877073,0.0072959999999999995,0.004582999999999999,-0.00103,0.007698999999999999,-0.018290999999999998,0.007006
594,-2.8626150000000004,-0.42206499999999997,-0.682299,-0.251203,0.409645,0.8769610000000001,0.01264,0.003512,-0.004196,0.009,-0.007103,0.008842000000000001
595,-2.862484,-0.42210299999999995,-0.682117,-0.251314,0.409679,0.876914,0.001995,0.004632,-0.008545,0.009417,-0.017834,-0.0009220000000000001
596,-2.8623,-0.421962,-0.681964,-0.251492,0.409551,0.876923,-0.006490999999999999,0.007842,-0.008611,0.007672,-0.018713,-0.001236
597,-2.862168,-0.42177,-0.681869,-0.251629,0.409376,0.876966,-0.006529999999999999,0.002502,-0.0054,0.007626000000000001,-0.020353,0.000811
598,-2.862126,-0.42164799999999997,-0.681773,-0.25168,0.40926399999999996,0.8770040000000001,-0.0011949999999999999,0.001423,-0.006429000000000001,0.008837000000000001,-0.018425999999999998,0.004848
599,-2.861987,-0.421642,-0.681658,-0.251802,0.40926,0.876971,0.003082,0.00566,-0.004268,0.008364,-0.017414,0.00105
600,-2.861857,-0.421683,-0.6815720000000001,-0.25191199999999997,0.40929699999999997,0.876922,0.004129,0.002457,-0.003189,0.007847,-0.018352,0.000519
601,-2.8618200000000003,-0.42162299999999997,-0.681535,-0.25195100000000004,0.409242,0.8769370000000001,-0.000148,0.001402,-0.002149,0.009351,-0.013383,0.0036630000000000005
602,-2.8617790000000003,-0.42153100000000004,-0.6814600000000001,-0.25199699999999997,0.40915799999999997,0.8769620000000001,-0.00121,0.000349,-0.004291,0.007948,-0.012018000000000001,0.002982
603,-2.86174,-0.421496,-0.6813670000000001,-0.252035,0.40912600000000005,0.876967,-0.000138,0.001411,-0.004285,0.009466,-0.014915000000000001,0.0038929999999999998
604,-2.861741,-0.42142399999999997,-0.6813130000000001,-0.25204299999999996,0.40906,0.8769950000000001,-0.001152,-0.000718,-0.0010609999999999999,0.006848999999999999,-0.019046,0.002186
605,-2.8618080000000004,-0.42134099999999997,-0.681358,-0.251994,0.408984,0.877044,-0.005444,-0.001786,0.0031829999999999996,0.006449,-0.018268,0.0014039999999999999
606,-2.861899,-0.421274,-0.6814399999999999,-0.251921,0.408923,0.877094,-0.004382,-0.002855,0.003192,0.00656,-0.018756000000000002,0.002926
607,-2.862002,-0.42122200000000004,-0.681535,-0.251836,0.408876,0.8771399999999999,-0.001176,-0.001801,0.003213,0.009373999999999999,-0.018327,0.00642
608,-2.862094,-0.42120799999999997,-0.681603,-0.251758,0.40886300000000003,0.8771690000000001,-0.00011,-0.002865,0.002154,0.008334000000000001,-0.017322999999999998,0.005232
609,-2.862177,-0.42122200000000004,-0.681633,-0.251683,0.408876,0.877185,0.000962,-0.002865,0.001093,0.004811,-0.016191,0.0037049999999999995
610,-2.862248,-0.42121000000000003,-0.681667,-0.251623,0.40886500000000003,0.877207,0.000962,-0.0018039999999999998,0.00216,0.006811,-0.016744,0.004461
611,-2.862309,-0.421274,-0.681716,-0.251562,0.40892399999999995,0.8771969999999999,0.005220000000000001,-0.001827,0.004326,0.008473999999999999,-0.019214,0.0043490000000000004
612,-2.86234,-0.42140200000000005,-0.681707,-0.25151999999999997,0.40904,0.8771540000000001,0.007447,-0.001791,0.001152,0.009729,-0.018323,0.007917
613,-2.862387,-0.42151400000000006,-0.6816810000000001,-0.25146599999999997,0.409143,0.877122,0.007442,-0.002856,0.0011539999999999999,0.010804000000000001,-0.013772,0.0014789999999999998
614,-2.862437,-0.4216,-0.68167,-0.251413,0.409221,0.877101,0.003175,-0.0017800000000000001,0.002191,0.007745,-0.013484000000000001,0.000935
615,-2.862516,-0.42158100000000004,-0.6817489999999999,-0.251346,0.409204,0.877128,-0.004303,-0.0017629999999999998,0.004275,0.007678,-0.013466999999999998,0.000908
616,-2.862621,-0.421446,-0.6818850000000001,-0.251269,0.40908,0.877208,-0.006441,-0.001759,0.005328,0.006335,-0.018455000000000003,0.006794
617,-2.862721,-0.421328,-0.682046,-0.25119400000000003,0.408973,0.87728,-0.006436,-0.001755,0.00426,0.008137,-0.017387,0.006174
618,-2.862789,-0.421275,-0.68207,-0.25114000000000003,0.408925,0.877318,-1.1e-05,-0.002817,-0.0021030000000000003,0.011531999999999999,-0.019826,0.00583
619,-2.8628259999999996,-0.421342,-0.681964,-0.251101,0.408986,0.877301,0.009604999999999999,-0.003886,-0.0041670000000000006,0.010287000000000001,-0.019978,0.004565
620,-2.862778,-0.421508,-0.681771,-0.25112399999999996,0.409137,0.877224,0.011758,-0.001755,-0.006292,0.008372,-0.018115,0.003788
621,-2.862761,-0.42164799999999997,-0.68166,-0.251123,0.409265,0.877165,0.005338,-0.000688,-0.000997,0.008448,-0.016137000000000002,0.005983
622,-2.862819,-0.42160600000000004,-0.68171,-0.251077,0.40922600000000003,0.8771959999999999,-0.0032159999999999997,0.00038500000000000003,0.0042829999999999995,0.005502,-0.013306,0.001939
623,-2.862876,-0.421493,-0.681866,-0.25104,0.409123,0.8772549999999999,-0.00855,0.001465,0.005313,0.008731000000000001,-0.013737000000000001,0.0023989999999999997
624,-2.8629130000000003,-0.421372,-0.682012,-0.25102199999999997,0.409012,0.8773120000000001,-0.005345,0.001458,0.004267,0.009917,-0.016373,0.00315
625,-2.862955,-0.421321,-0.682085,-0.25099,0.408966,0.877343,-1.1e-05,-0.000682,0.002171,0.006346,-0.018524000000000002,0.005195
626,-2.862953,-0.42140299999999997,-0.68207,-0.250983,0.409041,0.87731,0.006405,0.00036899999999999997,7.8e-05,0.006308,-0.016280000000000003,0.0019010000000000001
627,-2.86293,-0.42155,-0.681984,-0.250986,0.409175,0.8772469999999999,0.008539,-0.001761,-0.002041,0.005595,-0.016872,0.003796
628,-2.8629330000000004,-0.421649,-0.6819,-0.250972,0.40926599999999996,0.877209,0.006397,-0.000704,-0.002017,0.007823,-0.013468,0.004932
629,-2.862915,-0.421688,-0.6818420000000001,-0.25098400000000004,0.409301,0.877189,0.002129,0.00037200000000000004,-0.00098,0.008156,-0.015441,0.004357
630,-2.86291,-0.42167899999999997,-0.681863,-0.25098899999999996,0.40929299999999996,0.8771909999999999,-0.0010710000000000001,0.0025050000000000003,0.001132,0.009641,-0.014777,0.005285
631,-2.8628869999999997,-0.42163,-0.681879,-0.251015,0.409248,0.8772040000000001,0.0,0.0025050000000000003,7.099999999999999e-05,0.00837,-0.016669999999999997,0.005593
632,-2.862864,-0.42162200000000005,-0.681869,-0.25103600000000004,0.40924099999999997,0.877202,0.002134,0.001437,-0.000981,0.007262,-0.01648,0.004573
633,-2.862819,-0.421688,-0.681802,-0.251069,0.409301,0.8771639999999999,0.005339,0.00143,-0.002027,0.009095,-0.01805,0.004122
634,-2.862803,-0.421755,-0.681746,-0.251075,0.409362,0.877134,0.004253,-0.001766,-0.000962,0.008124,-0.018844,0.005083
635,-2.862794,-0.421774,-0.681717,-0.25108,0.409379,0.877124,0.001048,-0.000698,0.001151,0.010570999999999999,-0.018037,0.005429
636,-2.862792,-0.421807,-0.681722,-0.251079,0.40941,0.8771110000000001,0.004242,-0.000746,0.000177,0.007594,-0.015885,0.007121
637,-2.862782,-0.42185,-0.681673,-0.251082,0.40944899999999995,0.877091,0.004257,0.000328,-0.00196,0.00772,-0.017008000000000002,0.004790999999999999
638,-2.862734,-0.42190200000000005,-0.6816270000000001,-0.251118,0.409496,0.877058,0.004257,0.001389,-0.000893,0.006108,-0.018078,0.0042899999999999995
639,-2.862693,-0.422047,-0.6816270000000001,-0.25113800000000003,0.409629,0.876991,0.012792,0.004542,0.002367,0.0029850000000000002,-0.009543000000000001,0.008217
640,-2.862605,-0.422288,-0.681505,-0.251188,0.40984899999999996,0.8768739999999999,0.012816,0.003503,-0.0040409999999999995,0.007963,-0.013669999999999998,0.003192
641,-2.862476,-0.422414,-0.681335,-0.251287,0.409963,0.876792,0.005362,0.004603,-0.006231,0.008505,-0.014730000000000002,-0.002403
642,-2.862258,-0.42233699999999996,-0.6811520000000001,-0.251487,0.409894,0.876768,-0.004215999999999999,0.006779,-0.009505,0.010352,-0.014966,-0.0016300000000000002
643,-2.862165,-0.42216499999999996,-0.681056,-0.25158800000000003,0.40973699999999996,0.876812,-0.00534,0.001426,-0.004131,0.005052,-0.019569,0.009311
644,-2.8621119999999998,-0.422075,-0.681013,-0.251645,0.409654,0.876834,-1e-05,0.002464,-0.001959,0.0033689999999999996,-0.023012,0.0037049999999999995
645,-2.862029,-0.42206099999999996,-0.6809729999999999,-0.251719,0.409642,0.876819,0.001062,0.003525,-0.001952,0.006663,-0.021824,0.000698
646,-2.8619939999999997,-0.42203199999999996,-0.680901,-0.251753,0.40961499999999995,0.8768219999999999,0.003195,0.000335,-0.005138,0.008848,-0.016,0.004556
647,-2.861964,-0.422062,-0.680746,-0.251776,0.409642,0.8768020000000001,0.0053289999999999995,-0.001795,-0.0072569999999999996,0.011206,-0.015981,0.007963
648,-2.861923,-0.42211400000000004,-0.680608,-0.251806,0.40968999999999994,0.876771,0.004257,0.000327,-0.004062,0.009328,-0.015616999999999999,0.006697
649,-2.861912,-0.42207799999999995,-0.680558,-0.25182,0.409657,0.876783,-0.003235,-0.000729,0.00015900000000000002,0.006947,-0.013081,0.003116
650,-2.861993,-0.42193800000000004,-0.680666,-0.251764,0.409529,0.876858,-0.00966,-0.001789,0.004389,0.005533,-0.014021,0.0022010000000000003
651,-2.862157,-0.421754,-0.680879,-0.251641,0.40936100000000003,0.876972,-0.009684,-0.003933,0.0075959999999999995,0.004098,-0.016493,0.00375
652,-2.862316,-0.42158,-0.681131,-0.251521,0.409202,0.877081,-0.008624,-0.000725,0.0076040000000000005,0.006495999999999999,-0.019828,0.0037630000000000003
653,-2.862418,-0.421545,-0.681279,-0.251436,0.409171,0.8771200000000001,-8.4e-05,-0.001811,0.005529,0.005953,-0.019354,0.004685
654,-2.862503,-0.421605,-0.68133,-0.251355,0.40922600000000003,0.8771180000000001,0.005255,-0.003948,0.002364,0.0069700000000000005,-0.018723,0.005999
655,-2.862566,-0.42166800000000004,-0.681316,-0.251293,0.409283,0.8771100000000001,0.005268999999999999,-0.002874,0.000227,0.006847,-0.016597999999999998,0.001811
656,-2.862609,-0.42172200000000004,-0.681255,-0.251249,0.40933200000000003,0.8771,0.003145,-0.002858,-0.001925,0.010481,-0.018112,0.002951
657,-2.86266,-0.42175100000000004,-0.6812020000000001,-0.251201,0.40935900000000003,0.877101,0.001007,-0.003915999999999999,-0.0019379999999999998,0.010431999999999999,-0.018139,0.00295
658,-2.862762,-0.421706,-0.6812159999999999,-0.251116,0.40931799999999996,0.877143,-7.5e-05,-0.004986,0.000192,0.009309999999999999,-0.016663999999999998,0.0066760000000000005
659,-2.862869,-0.42168,-0.681298,-0.251025,0.409294,0.877181,-0.0022489999999999997,-0.003915,0.004441,0.007509999999999999,-0.018425,0.005525
660,-2.862996,-0.42164799999999997,-0.681415,-0.250918,0.40926399999999996,0.8772260000000001,-0.002254,-0.00498,0.004442,0.007403,-0.018394999999999998,0.00548
661,-2.863141,-0.421583,-0.681565,-0.250798,0.40920500000000004,0.877288,-0.002254,-0.003919,0.005509,0.007069,-0.015711000000000003,0.006470999999999999
662,-2.863258,-0.42154899999999995,-0.681693,-0.250699,0.409175,0.8773299999999999,-0.0011769999999999999,-0.002853,0.0044469999999999996,0.008176000000000001,-0.016871,0.0032700000000000003
663,-2.863385,-0.421572,-0.681812,-0.250585,0.409196,0.877353,-0.00013000000000000002,-0.0049960000000000004,0.006594,0.008062,-0.016891999999999997,0.003247
664,-2.863509,-0.421541,-0.68193,-0.25048000000000004,0.409167,0.877396,-0.001173,-0.0017879999999999999,0.004446,0.007422,-0.016725999999999998,0.001846
665,-2.8636470000000003,-0.421491,-0.682055,-0.250364,0.409121,0.87745,-0.002254,-0.00498,0.004442,0.004408,-0.016848,0.00373
666,-2.863772,-0.421472,-0.682144,-0.250256,0.409104,0.8774879999999999,-0.0022489999999999997,-0.0049759999999999995,0.0033740000000000003,0.0043,-0.016832,0.003692
667,-2.863877,-0.42145200000000005,-0.6822050000000001,-0.250166,0.409086,0.8775219999999999,-0.001168,-0.002845,0.002311,0.005751,-0.017240000000000002,0.004878
668,-2.863975,-0.421442,-0.682243,-0.250081,0.409077,0.877551,0.0009130000000000001,-0.003913000000000001,0.002326,0.006809999999999999,-0.017674000000000002,0.002363
669,-2.864067,-0.421446,-0.682269,-0.25000100000000003,0.40908,0.8775719999999999,0.0009220000000000001,-0.002844,0.001256,0.006104,-0.018211,0.0064
670,-2.864144,-0.42150699999999997,-0.682285,-0.249926,0.409136,0.877567,0.004123,-0.002855,0.001279,0.0072959999999999995,-0.017,0.003094
671,-2.864218,-0.421572,-0.682331,-0.24985300000000002,0.409195,0.87756,0.004113,-0.002863,0.003415,0.008490000000000001,-0.01683,0.0035280000000000003
672,-2.8643009999999998,-0.421634,-0.682399,-0.24977399999999997,0.409252,0.8775569999999999,0.000908,-0.002856,0.004461,0.007098,-0.017315,0.005698
673,-2.864398,-0.42164799999999997,-0.6825220000000001,-0.249687,0.409265,0.877576,0.000898,-0.0018039999999999998,0.007664,0.011162,-0.016488,0.004062
674,-2.864516,-0.421674,-0.682666,-0.249581,0.409289,0.8775950000000001,0.00197,-0.0018030000000000001,0.006603,0.010827,-0.017412,0.00386
675,-2.864631,-0.421717,-0.6828,-0.24947600000000003,0.409328,0.877607,0.0008939999999999999,-0.002869,0.007665000000000001,0.008784,-0.016338,0.003832
676,-2.864734,-0.421753,-0.6829430000000001,-0.249381,0.40936,0.877619,0.001884,-0.000768,0.008762,0.005301,-0.015455000000000002,0.004309
677,-2.864834,-0.4218,-0.683042,-0.249288,0.409404,0.877625,0.001898,-0.001816,0.004490999999999999,0.0050100000000000006,-0.016916999999999998,0.004714
678,-2.8649240000000002,-0.421862,-0.683131,-0.249202,0.40946,0.8776229999999999,0.002956,-0.002889,0.005568,0.005458,-0.014563,0.004243
679,-2.865026,-0.4219,-0.683231,-0.249108,0.409495,0.877634,0.000831,-0.001812,0.004483,0.0060810000000000005,-0.015955,0.002341
680,-2.8651299999999997,-0.421942,-0.683341,-0.249013,0.409532,0.8776440000000001,0.000817,-0.002886,0.006620999999999999,0.006734,-0.016268,0.0032619999999999997
681,-2.86523,-0.421994,-0.6834560000000001,-0.248919,0.40958,0.877648,0.001889,-0.002886,0.00556,0.0047020000000000005,-0.016056,0.005804999999999999
682,-2.865313,-0.422044,-0.683539,-0.24884,0.40962600000000005,0.877649,0.005099,-0.001827,0.0045130000000000005,0.00827,-0.018238,0.003653
683,-2.8653880000000003,-0.42212799999999995,-0.683625,-0.24876500000000001,0.409703,0.877634,0.002919,-0.001838,0.0045320000000000004,0.007203,-0.018512999999999998,0.0035299999999999997
684,-2.865482,-0.42216899999999996,-0.683724,-0.248678,0.40973999999999994,0.877642,-0.00028199999999999997,-0.000766,0.005576,0.008398000000000001,-0.016078,0.004866
685,-2.865577,-0.422191,-0.68384,-0.248592,0.40976,0.877657,0.00078,-0.001835,0.0055850000000000006,0.010631,-0.014816999999999999,0.004529999999999999
686,-2.865639,-0.422231,-0.683914,-0.248534,0.409797,0.877656,0.001866,-0.0007610000000000001,0.002386,0.009184000000000001,-0.015600999999999999,0.005462
687,-2.8656610000000002,-0.422257,-0.683938,-0.248511,0.40981999999999996,0.8776510000000001,0.001876,0.000309,0.001317,0.008399,-0.017227000000000003,0.005391
688,-2.865736,-0.42235600000000006,-0.684022,-0.24843400000000002,0.40991000000000005,0.8776309999999999,0.008243,-0.0008039999999999999,0.007772,0.004034,-0.014967,0.006998000000000001
689,-2.865793,-0.422546,-0.684067,-0.248362,0.410084,0.8775700000000001,0.007195999999999999,-0.000784,0.0034920000000000003,0.006906999999999999,-0.01656,0.00213
690,-2.865831,-0.42264700000000005,-0.684133,-0.24831799999999998,0.41017600000000004,0.877539,0.002938,0.001362,0.0034590000000000003,0.006984999999999999,-0.0183,0.000772
691,-2.865793,-0.422646,-0.684197,-0.248352,0.410175,0.8775299999999999,-0.001342,0.004594,0.0034240000000000004,0.005676,-0.016941,0.000842
692,-2.865766,-0.422637,-0.684279,-0.248376,0.410167,0.8775270000000001,0.000782,0.002456,0.0034409999999999996,0.005304,-0.016153999999999998,0.006964
693,-2.865736,-0.422646,-0.684301,-0.248402,0.410175,0.877516,0.0018679999999999999,0.0035299999999999997,0.00024300000000000002,0.004185,-0.015643999999999998,0.005403
694,-2.865657,-0.422646,-0.684282,-0.248471,0.410175,0.8774959999999999,0.0018780000000000001,0.0046,-0.0008269999999999999,0.007382,-0.015796,-0.000421
695,-2.8656080000000004,-0.422649,-0.684249,-0.24851399999999998,0.41017700000000007,0.877482,-0.000271,0.00035,-0.001905,0.006082,-0.0156,0.001454
696,-2.865646,-0.422588,-0.684251,-0.24848699999999999,0.41012200000000004,0.877516,-0.00349,-0.001778,0.000212,0.007490000000000001,-0.013881999999999999,0.002779
697,-2.865708,-0.422519,-0.684284,-0.24844000000000002,0.410059,0.877558,-0.0013570000000000001,-0.000724,0.001294,0.005703,-0.017939,0.005056000000000001
698,-2.865718,-0.42250600000000005,-0.684322,-0.248433,0.41004700000000005,0.877566,0.0007769999999999999,0.00032900000000000003,0.002376,0.007161,-0.019025,0.0025
699,-2.8657529999999998,-0.42253900000000005,-0.684365,-0.248398,0.410078,0.877561,0.000763,-0.0007440000000000001,0.0045130000000000005,0.008408,-0.016538999999999998,0.002154
700,-2.865799,-0.42255299999999996,-0.684448,-0.24835700000000002,0.41008999999999995,0.877567,0.000772,0.0014470000000000002,0.003399,0.006383,-0.015544,0.004726
701,-2.865821,-0.42253199999999996,-0.684519,-0.24834,0.410071,0.8775809999999999,-0.001362,0.000393,0.002317,0.006488,-0.017096,0.0032020000000000004
702,-2.865837,-0.42249200000000003,-0.684587,-0.24833000000000002,0.41003500000000004,0.8776010000000001,-0.0013570000000000001,0.001459,0.002316,0.006692,-0.014909,0.005196
703,-2.865844,-0.422455,-0.6846220000000001,-0.24832800000000002,0.410001,0.877618,0.000786,0.000399,-0.000872,0.006828,-0.015408000000000002,0.003394
704,-2.865839,-0.422429,-0.684612,-0.248336,0.40997700000000004,0.877627,-0.001352,-0.000659,-0.000886,0.007247,-0.019703000000000002,0.002668
705,-2.865846,-0.42243100000000006,-0.684602,-0.248329,0.409979,0.8776280000000001,0.000781,0.000394,0.000196,0.0045850000000000005,-0.018118000000000002,0.002224
706,-2.865866,-0.42244,-0.6845640000000001,-0.248311,0.409987,0.8776299999999999,0.0039770000000000005,-0.001743,-0.0008470000000000001,0.0062,-0.014907,0.004649
707,-2.8658669999999997,-0.422475,-0.684519,-0.248306,0.41001899999999997,0.877617,0.002915,-0.000674,-0.0008560000000000001,0.005447,-0.015824,0.0028
708,-2.865843,-0.42247799999999996,-0.684489,-0.248327,0.41002200000000005,0.877609,-0.000294,0.001536,-0.000958,0.006246,-0.014759,0.005203
709,-2.865846,-0.422408,-0.684439,-0.24833200000000002,0.409958,0.8776379999999999,-0.001361,-0.000582,-0.0030989999999999998,0.007411,-0.014816,0.0038770000000000002
710,-2.8658259999999998,-0.422332,-0.684376,-0.248358,0.40988800000000003,0.8776639999999999,-0.001366,-0.000587,-0.002031,0.006827,-0.016212,0.00405
711,-2.865811,-0.42224799999999996,-0.684327,-0.248381,0.409812,0.8776930000000001,-0.0034850000000000003,0.001556,-0.003117,0.008024,-0.016059,0.00483
712,-2.865813,-0.42218599999999995,-0.684291,-0.24838600000000002,0.40975500000000004,0.877718,-0.001366,-0.000587,-0.002031,0.006229,-0.015590000000000001,0.0021030000000000003
713,-2.8658189999999997,-0.42206499999999997,-0.684286,-0.248394,0.409645,0.877767,-0.004562,0.00049,-0.002055,0.006039,-0.015571999999999999,0.003031
714,-2.865822,-0.42195600000000005,-0.684266,-0.24840399999999999,0.409546,0.877811,-0.0035,-0.000579,-0.002046,0.008688,-0.01709,0.005398
715,-2.8658080000000004,-0.42185900000000004,-0.68423,-0.248427,0.409457,0.8778450000000001,-0.004588,0.000563,-0.003237,0.008101,-0.015643,0.0048909999999999995
716,-2.8658040000000002,-0.421745,-0.684195,-0.248443,0.409353,0.87789,-0.004593,0.000558,-0.002168,0.006606999999999999,-0.01856,0.003855
717,-2.86575,-0.42163100000000003,-0.6841119999999999,-0.24850300000000003,0.409249,0.877922,-0.00244,0.001629,-0.005359,0.0074140000000000005,-0.018837,0.001991
718,-2.865688,-0.421548,-0.6840069999999999,-0.248567,0.409174,0.8779389999999999,-0.00031099999999999997,0.000556,-0.005343,0.006959,-0.019341999999999998,0.004843
719,-2.865615,-0.421509,-0.6838770000000001,-0.248635,0.409138,0.877936,-0.00031099999999999997,0.000556,-0.005343,0.00512,-0.015019,0.002741
720,-2.8655470000000003,-0.421484,-0.683743,-0.24869699999999997,0.409115,0.8779290000000001,-0.000307,0.0005610000000000001,-0.006411,0.008921,-0.016368999999999998,0.001558
721,-2.8654889999999997,-0.421412,-0.6836439999999999,-0.248756,0.409049,0.877943,-0.00031099999999999997,0.0016170000000000002,-0.004275999999999999,0.006554000000000001,-0.014365000000000001,0.003878
722,-2.865437,-0.421339,-0.683565,-0.248811,0.408982,0.877958,-0.00245,0.001621,-0.0032229999999999997,0.007325,-0.015657,0.0064719999999999995
723,-2.865401,-0.42128999999999994,-0.683479,-0.248848,0.408938,0.8779680000000001,0.0007509999999999999,0.0005480000000000001,-0.004267,0.00782,-0.015673,0.002876
724,-2.865379,-0.421263,-0.6834180000000001,-0.248869,0.408914,0.877973,-0.000376,0.001662,-0.002264,0.0059039999999999995,-0.017113999999999997,0.004764
725,-2.865358,-0.421232,-0.683375,-0.248892,0.408885,0.8779790000000001,-0.00037999999999999997,0.000596,-0.002263,0.005804,-0.017634,0.0014
726,-2.865341,-0.421153,-0.683357,-0.248915,0.40881300000000004,0.878006,-0.0035859999999999998,0.000603,-0.001217,0.007369,-0.015839,0.003525
727,-2.865352,-0.421073,-0.683366,-0.248915,0.40874,0.8780399999999999,-0.002519,0.0006,-0.00121,0.006758,-0.016572999999999997,0.005000999999999999
728,-2.86532,-0.42098599999999997,-0.6833140000000001,-0.248952,0.408661,0.878067,-0.0025039999999999997,0.001673,-0.0033469999999999997,0.008291,-0.013229,0.003815
729,-2.865247,-0.420911,-0.6832159999999999,-0.249025,0.408592,0.878078,-0.001418,0.002748,-0.006546,0.006074,-0.018653,0.003208
730,-2.865194,-0.420926,-0.6831079999999999,-0.249069,0.40860599999999997,0.878059,0.006021,-0.000487,-0.003285,0.0038450000000000003,-0.018713,0.006843999999999999
731,-2.865127,-0.421109,-0.682944,-0.24910700000000002,0.408773,0.87797,0.012440999999999999,0.0005690000000000001,-0.0064459999999999995,0.004814,-0.013021000000000001,0.006490000000000001
732,-2.8650189999999998,-0.421257,-0.682699,-0.24918600000000002,0.408908,0.877885,0.008154999999999999,0.001678,-0.009776,0.010111,-0.01807,-0.000687
733,-2.864834,-0.42124799999999996,-0.682481,-0.24935,0.40889899999999996,0.877842,-0.000356,0.007034,-0.009843000000000001,0.009955,-0.016489,-0.000324
734,-2.864681,-0.421141,-0.6823140000000001,-0.249496,0.408802,0.8778459999999999,-0.002523,0.002768,-0.006648,0.006712999999999999,-0.019703000000000002,0.005516
735,-2.8645970000000003,-0.42102700000000004,-0.682214,-0.24958200000000003,0.408698,0.877869,-0.002523,0.003829,-0.005581,0.006967,-0.017950999999999998,0.005187
736,-2.864467,-0.420976,-0.682145,-0.249702,0.40865100000000004,0.877857,-0.00037999999999999997,0.007012999999999999,-0.004502,0.006476999999999999,-0.017248,0.000897
737,-2.864345,-0.420936,-0.6820930000000001,-0.24981399999999998,0.408615,0.877842,-0.000399,0.0038130000000000004,-0.0034289999999999998,0.007703,-0.015305000000000001,0.00053
738,-2.864274,-0.42089099999999996,-0.682016,-0.249881,0.408574,0.877842,-0.000404,0.0016870000000000001,-0.004495,0.009342,-0.014668,0.001094
739,-2.8642060000000003,-0.42079799999999995,-0.681878,-0.24995100000000003,0.408489,0.877862,-0.000417,0.0017079999999999999,-0.0077670000000000005,0.007412,-0.015759,0.001517
740,-2.864113,-0.420775,-0.681713,-0.250035,0.408468,0.877848,0.002779,0.0006309999999999999,-0.007744,0.007893,-0.017569,0.002752
741,-2.864073,-0.42077700000000007,-0.681596,-0.25006999999999996,0.40847,0.8778379999999999,0.0006259999999999999,-0.000439,-0.004553,0.006936,-0.017464,0.004547
742,-2.864059,-0.420725,-0.68157,-0.25008800000000003,0.408422,0.8778549999999999,-0.0025800000000000003,0.0016899999999999999,-0.001373,0.005169,-0.019445,0.0021809999999999998
743,-2.864043,-0.420713,-0.6815899999999999,-0.250104,0.408412,0.8778549999999999,-0.00045099999999999996,0.002739,0.0007769999999999999,0.00549,-0.019572,0.004408
744,-2.863997,-0.420729,-0.681614,-0.250143,0.408426,0.8778370000000001,0.0016829999999999998,0.0037920000000000002,0.001859,0.005178,-0.01867,0.005189
745,-2.863963,-0.420785,-0.681628,-0.250166,0.408477,0.877808,0.005946,0.002712,0.0018899999999999998,0.005903,-0.018966,0.005508
746,-2.863909,-0.42091300000000004,-0.681575,-0.250199,0.408594,0.877743,0.009161,0.0027140000000000003,-0.001292,0.009263,-0.01835,0.002918
747,-2.8638060000000003,-0.42107700000000003,-0.68147,-0.250271,0.40874299999999997,0.877654,0.010237000000000001,0.002719,-0.003421,0.009335,-0.0185,0.003007
748,-2.863702,-0.421204,-0.681335,-0.250348,0.40886,0.8775780000000001,0.011307,0.002718,-0.003433,0.007764,-0.017991,0.004899000000000001
749,-2.863649,-0.42136599999999996,-0.681233,-0.250377,0.409007,0.877501,0.008092,0.000594,-0.002384,0.007411,-0.017527,0.004427
750,-2.863602,-0.421519,-0.681197,-0.25040100000000004,0.409147,0.8774290000000001,0.007016,0.00165,0.0008119999999999999,0.007435,-0.017667,0.004499
751,-2.8635919999999997,-0.421573,-0.681225,-0.25040300000000004,0.409196,0.8774049999999999,0.002739,0.001657,0.002918,0.005423,-0.014528,0.005011
752,-2.8635770000000003,-0.42163500000000004,-0.681245,-0.25040999999999997,0.40925300000000003,0.8773770000000001,0.00381,0.001657,0.0018579999999999998,0.00569,-0.015607,0.004871
753,-2.863529,-0.42172299999999996,-0.681236,-0.250442,0.409333,0.8773299999999999,0.0038200000000000005,0.002727,0.000788,0.005721,-0.015687,0.004918
754,-2.863527,-0.421754,-0.681241,-0.25044,0.409362,0.877317,0.0027429999999999998,0.0006,0.0007830000000000001,0.004682,-0.014616999999999998,0.001864
755,-2.863524,-0.42177700000000007,-0.681239,-0.25044099999999997,0.409383,0.877308,0.0017010000000000003,0.0006,-0.000258,0.005490999999999999,-0.015767,0.001507
756,-2.863528,-0.42181499999999994,-0.6812199999999999,-0.250433,0.40941700000000003,0.877294,0.0027670000000000004,-0.000465,-0.001317,0.004995,-0.015297999999999999,0.002649
757,-2.863521,-0.421854,-0.681198,-0.25043499999999996,0.409453,0.8772770000000001,0.003834,0.000592,-0.00024300000000000002,0.006797,-0.017866999999999997,0.005963
758,-2.8635099999999998,-0.421911,-0.6811619999999999,-0.250438,0.409505,0.877252,0.003825,-0.001538,-0.00023999999999999998,0.007365000000000001,-0.017796,0.004981
759,-2.863507,-0.42195600000000005,-0.681128,-0.25043499999999996,0.409546,0.8772340000000001,0.0017050000000000001,0.000604,-0.001326,0.005699,-0.016600999999999998,0.003137
760,-2.863521,-0.42195299999999997,-0.681143,-0.250423,0.409543,0.877239,-0.000443,0.000599,0.001864,0.0075650000000000005,-0.018598,0.004368
761,-2.863525,-0.42193500000000006,-0.681149,-0.250422,0.409526,0.8772469999999999,0.0017050000000000001,0.0016649999999999998,-0.000259,0.00683,-0.018123,0.003658
762,-2.8635040000000003,-0.42192700000000005,-0.681132,-0.25044099999999997,0.409519,0.877245,0.0017010000000000003,0.0006,-0.000258,0.007811,-0.020419999999999997,0.003889
763,-2.863512,-0.421951,-0.6811520000000001,-0.250431,0.409541,0.877237,0.0027670000000000004,0.000567,0.001954,0.0065650000000000005,-0.018001,0.005011
764,-2.863538,-0.42198,-0.681189,-0.25040500000000004,0.409568,0.877232,0.001695,-0.0004940000000000001,0.001948,0.009423,-0.017721999999999998,0.004252000000000001
765,-2.863524,-0.42206899999999997,-0.681186,-0.250408,0.409649,0.877193,0.0059770000000000005,0.0005650000000000001,-0.00016,0.009288,-0.017131999999999998,0.004566
766,-2.86349,-0.42218900000000004,-0.681153,-0.250424,0.409758,0.877138,0.008115,0.002684,0.000921,0.007611,-0.018034,0.0033090000000000003
767,-2.863414,-0.422282,-0.681098,-0.25048000000000004,0.409843,0.8770819999999999,0.0059960000000000005,0.0037649999999999997,-0.001232,0.007056999999999999,-0.016898,0.0033799999999999998
768,-2.8633669999999998,-0.422375,-0.6810390000000001,-0.25051100000000004,0.40992799999999996,0.877034,0.00492,0.001638,-0.0012369999999999998,0.006370000000000001,-0.019944,0.00381
769,-2.86335,-0.422437,-0.6809890000000001,-0.250519,0.409984,0.8770049999999999,0.004915,0.001634,-0.000169,0.004929,-0.016475999999999998,0.002206
770,-2.863289,-0.422494,-0.68094,-0.250566,0.410037,0.876967,0.004915,0.001634,-0.000169,0.004869,-0.016955,0.002443
