,attitude.roll,attitude.pitch,attitude.yaw,gravity.x,gravity.y,gravity.z,rotationRate.x,rotationRate.y,rotationRate.z,userAcceleration.x,userAcceleration.y,userAcceleration.z
0,-2.64086,-0.097951,-0.425382,-0.477768,0.097794,0.873026,-0.059186,0.080564,0.138267,0.004303,0.0009449999999999999,0.012075
1,-2.640421,-0.097889,-0.428249,-0.478154,0.097733,0.872822,-0.066717,0.050827,0.12222899999999999,-0.0037340000000000003,-0.00116,0.0064659999999999995
2,-2.6396990000000002,-0.09892100000000001,-0.43062799999999996,-0.478734,0.09876,0.8723870000000001,-0.047483,0.028502999999999997,0.09462000000000001,-0.012751,0.009761,-0.008587000000000001
3,-2.638057,-0.09864500000000001,-0.43207299999999993,-0.48018,0.098485,0.871624,-0.055715999999999995,0.04154,0.040063999999999995,-0.025268000000000002,0.0033369999999999997,-0.011242
4,-2.635989,-0.09727899999999999,-0.432641,-0.48204600000000003,0.097125,0.8707459999999999,-0.040785,0.0043630000000000006,0.002822,-0.013956999999999999,-0.017368,-0.014163
5,-2.635954,-0.09600800000000001,-0.43278599999999995,-0.48213599999999995,0.095861,0.870836,-0.021678,-0.025491999999999997,-0.006623,-0.008999,-0.021779,-0.010179
6,-2.6359630000000003,-0.094933,-0.432949,-0.482177,0.094791,0.87093,-0.014186,-0.0042710000000000005,0.008355,-0.003708,-0.026614999999999996,-0.005757
7,-2.636272,-0.093373,-0.433399,-0.48198,0.093237,0.871208,-0.003571,0.004137,0.026574,0.010422,-0.011801,-0.0045850000000000005
8,-2.636303,-0.092959,-0.43381800000000004,-0.481971,0.092825,0.8712559999999999,-0.000273,0.008438,0.016981,0.002128,-0.010153,-0.001673
9,-2.6359939999999997,-0.092779,-0.43394099999999997,-0.482249,0.092646,0.871122,-0.002293,0.015975,-0.0012029999999999999,0.001704,-0.006509999999999999,-0.003461
10,-2.6354740000000003,-0.092076,-0.433679,-0.48273299999999997,0.091946,0.870928,0.000924,-0.0009939999999999999,-0.022525,-0.005945000000000001,-0.007519,-0.008364
11,-2.635251,-0.091427,-0.43296,-0.48295600000000005,0.0913,0.870872,0.0020510000000000003,-0.01155,-0.047074,-0.011337,-0.010993000000000001,-0.006828
12,-2.635024,-0.090673,-0.432072,-0.483187,0.090549,0.870822,0.011635,-0.008411,-0.040603,0.003054,-0.016483,-0.009082
13,-2.635361,-0.089889,-0.43128299999999997,-0.48292700000000005,0.089768,0.8710469999999999,0.015812,-0.023358,-0.036284,0.000612,-0.0032049999999999995,-0.005965
14,-2.635685,-0.089668,-0.43047399999999997,-0.48265399999999997,0.089548,0.8712209999999999,0.010511,-0.021187,-0.041665,-0.000698,-0.001062,-0.0024920000000000003
15,-2.6362799999999997,-0.089706,-0.429604,-0.48213500000000004,0.089585,0.871505,0.013656,-0.036104000000000004,-0.04376,0.004626,0.004958,0.000825
16,-2.637586,-0.0898,-0.42875100000000005,-0.48099200000000003,0.08968,0.8721260000000001,0.024215,-0.052157,-0.035119,0.008473,0.0014609999999999998,0.001424
17,-2.639107,-0.090035,-0.42812,-0.479655,0.089914,0.8728379999999999,0.021991,-0.056477,-0.019104,0.011897,0.001349,-0.002294
18,-2.640563,-0.090255,-0.42774799999999996,-0.47837399999999997,0.090133,0.873518,0.026151999999999998,-0.065075,-0.004109000000000001,-0.006062,-0.0044399999999999995,0.013643
19,-2.641729,-0.090075,-0.42757799999999996,-0.47736300000000004,0.08995399999999999,0.8740899999999999,0.027306,-0.031049,0.009741,0.0041270000000000005,-0.013309,0.012568000000000001
20,-2.6432900000000004,-0.08996599999999999,-0.428,-0.47600299999999995,0.08984500000000001,0.874842,0.037829,-0.015303,0.056794000000000004,0.028584,-0.029802,0.0055439999999999994
21,-2.644441,-0.090396,-0.42955299999999996,-0.47497700000000004,0.090273,0.8753559999999999,0.022742,0.015382,0.119673,0.026613,-0.026369,0.0024519999999999998
22,-2.644539,-0.091166,-0.43236,-0.474858,0.091039,0.875341,-0.004921,0.088751,0.174932,0.022191,-0.009831999999999999,0.002802
23,-2.6433619999999998,-0.092711,-0.435883,-0.47581999999999997,0.092579,0.874657,-0.004816,0.13658299999999998,0.199441,0.011907,-0.004673,0.013572999999999998
24,-2.6415189999999997,-0.09464199999999999,-0.43992200000000004,-0.47734399999999994,0.094501,0.8736200000000001,-0.016637,0.139726,0.221788,0.024569999999999998,0.007718000000000001,0.007575
25,-2.640546,-0.097621,-0.443461,-0.47805600000000004,0.097466,0.8729049999999999,0.012417000000000001,0.144072,0.172852,0.032057,0.030799,0.018514
26,-2.6370009999999997,-0.09907,-0.445576,-0.48108,0.09890800000000001,0.87108,0.007691,0.210414,0.1033,0.0019079999999999998,0.046995999999999996,0.009658
27,-2.632714,-0.100428,-0.44677799999999995,-0.48474300000000003,0.100259,0.868891,-0.017897999999999997,0.160651,0.050844,-0.015806,0.035422,-0.021174000000000002
28,-2.63119,-0.100103,-0.447921,-0.486083,0.099936,0.86818,-0.05577000000000001,0.032987999999999996,0.041129,-0.033889999999999997,0.024317,-0.025788
29,-2.631796,-0.09930599999999999,-0.449046,-0.485595,0.099143,0.8685440000000001,-0.066736,-0.048936,0.025134,-0.039521,0.021554,-0.006025
30,-2.6333919999999997,-0.098343,-0.450379,-0.484255,0.09818500000000001,0.8694,-0.083012,-0.091563,0.043235,-0.039838,0.014974000000000001,-0.011368000000000001
31,-2.636018,-0.097289,-0.45198,-0.48202,0.097136,0.8707590000000001,-0.087491,-0.140542,0.04113,-0.012212,0.011003,-0.020478
32,-2.63843,-0.095888,-0.45300200000000007,-0.479983,0.09574099999999999,0.8720379999999999,-0.081701,-0.093471,-0.013368999999999999,0.027911000000000002,0.024513,0.0017109999999999998
33,-2.6388130000000003,-0.094059,-0.45235299999999995,-0.47973299999999997,0.09392,0.872373,-0.054166,0.004815,-0.107306,0.050107,0.014875,0.009370999999999999
34,-2.6379650000000003,-0.091831,-0.449975,-0.480572,0.09170199999999999,0.8721469999999999,-0.034479,0.037009,-0.183054,0.012356,-0.01669,-0.004929
35,-2.63656,-0.089064,-0.44659799999999994,-0.481918,0.088946,0.87169,-0.048022,0.06175,-0.23125,-0.035843,-0.005939,0.022612
36,-2.635047,-0.085386,-0.443013,-0.483392,0.08528200000000001,0.87124,-0.096026,0.04919,-0.245456,-0.024541999999999998,-0.002106,0.024955
37,-2.63426,-0.08098,-0.43988599999999994,-0.484255,0.08089099999999999,0.871179,-0.123975,0.009843000000000001,-0.23812399999999997,-0.005338,0.001827,0.008856000000000001
38,-2.634026,-0.076386,-0.437116,-0.48463500000000004,0.076312,0.871382,-0.14005499999999999,0.001342,-0.229679,0.00293,0.001813,0.003268
39,-2.63367,-0.07113799999999999,-0.43492,-0.485133,0.071078,0.871547,-0.204067,0.014297999999999998,-0.217324,-0.002461,0.004438,0.008794
40,-2.633219,-0.064981,-0.43408599999999997,-0.48573,0.064935,0.8716940000000001,-0.27149,0.021773,-0.163325,-7.900000000000001e-05,0.006644,0.014628
41,-2.633293,-0.058043,-0.43481499999999995,-0.48587299999999994,0.058011,0.872102,-0.300708,-0.005014,-0.09940399999999999,0.007540000000000001,-0.018658,-0.008454999999999999
42,-2.633812,-0.052136,-0.43655900000000003,-0.485579,0.052113,0.8726379999999999,-0.295709,-0.030795,-0.050198,0.009001,-0.026142000000000002,-0.022724
43,-2.634862,-0.047298,-0.43878599999999995,-0.484779,0.04728,0.873358,-0.241644,-0.059939,-0.001713,0.011772,-0.028756,-0.034414
44,-2.635903,-0.042578,-0.441046,-0.483972,0.042565,0.8740479999999999,-0.157596,-0.067854,0.040538,0.012536,-0.048074,-0.041925
45,-2.637227,-0.041527,-0.44316300000000003,-0.482835,0.041514999999999996,0.874726,-0.062774,-0.05769,0.080712,0.010973,-0.045422000000000004,-0.0365
46,-2.6382630000000002,-0.042258,-0.44481499999999996,-0.481915,0.042246,0.875199,0.018346,-0.03778,0.093003,0.007365999999999999,-0.040688999999999996,-0.037034
47,-2.638038,-0.042926,-0.44552700000000006,-0.482097,0.042913,0.875066,0.087984,0.00469,0.068861,-0.013691,-0.0165,-0.030033999999999998
48,-2.63745,-0.045488,-0.44530699999999995,-0.48255699999999996,0.045473,0.874684,0.137348,0.04191,0.042453,-0.018359,-0.016862000000000002,-0.031437
49,-2.634968,-0.0482,-0.44401899999999994,-0.48466499999999996,0.048181,0.8733719999999999,0.18562599999999999,0.072764,0.012837999999999999,-0.022796,-0.013619999999999998,-0.020588
50,-2.633464,-0.051971,-0.441961,-0.485887,0.051948,0.8724770000000001,0.23364899999999997,0.061999,-0.0007,-0.0013109999999999999,-0.020316,-0.023371
51,-2.63223,-0.05586699999999999,-0.439274,-0.48686,0.055838,0.871693,0.290094,0.029867,-0.0024230000000000002,0.005995,-0.02706,-0.022709
52,-2.631638,-0.058757000000000004,-0.43622,-0.487295,0.058723000000000004,0.8712610000000001,0.341169,0.020036,0.01396,0.015219,-0.028404000000000002,-0.021224
53,-2.63092,-0.06449500000000001,-0.43328999999999995,-0.48774799999999996,0.064451,0.8706020000000001,0.37400900000000004,0.004868,0.049456,0.008927,-0.016553000000000002,-0.027614999999999997
54,-2.630487,-0.071672,-0.430759,-0.487886,0.07161000000000001,0.869965,0.382361,-0.006991,0.07837100000000001,-0.011595000000000001,-0.012574,-0.008545
55,-2.6293189999999997,-0.078675,-0.42852700000000005,-0.48864399999999997,0.07859400000000001,0.868936,0.33776799999999996,0.035802,0.072663,-0.040652999999999995,0.017125,0.021093999999999998
56,-2.628132,-0.085658,-0.426637,-0.48939399999999994,0.085553,0.867856,0.27369299999999996,0.003076,0.055170000000000004,-0.032701,0.040378,0.01633
57,-2.62834,-0.090172,-0.42478299999999997,-0.489019,0.09005,0.867613,0.218288,-0.025313,0.009954000000000001,-0.039988,0.050179,0.025789
58,-2.628699,-0.09275,-0.422842,-0.488591,0.09261699999999999,0.867583,0.12135699999999999,-0.032264,-0.032375,-0.007808,0.063557,0.015656
59,-2.6296060000000003,-0.093562,-0.421683,-0.48776800000000003,0.093425,0.8679600000000001,0.033749,-0.058627,-0.02554,0.033849000000000004,0.032231,0.013753999999999999
60,-2.630534,-0.093235,-0.421652,-0.48697700000000005,0.0931,0.868439,-0.039845,-0.029705000000000002,-0.0015220000000000001,0.056877,0.002786,0.020584
61,-2.630451,-0.09209500000000001,-0.42241300000000004,-0.4871,0.09196499999999999,0.868491,-0.076984,0.024716,0.007763,0.08027000000000001,-0.007965,0.018671
62,-2.630004,-0.090961,-0.42326899999999995,-0.48753900000000006,0.090835,0.8683629999999999,-0.062086,0.020385,0.012145,0.074331,-0.000763,0.010681
63,-2.630008,-0.090376,-0.42409600000000003,-0.48756099999999997,0.090253,0.868411,-0.035606,-0.007464,0.027320999999999998,0.04614,0.013522,-0.000919
64,-2.630553,-0.090339,-0.42475,-0.48708999999999997,0.09021599999999999,0.8686799999999999,-0.0068969999999999995,-0.029931,0.026482,0.001997,0.021539,-0.004956
65,-2.631098,-0.090573,-0.425155,-0.48660600000000004,0.090449,0.868927,0.003848,-0.017168,0.022268,-0.027783,0.026463999999999998,-0.011123000000000001
66,-2.631062,-0.090798,-0.425374,-0.48662799999999995,0.090674,0.868891,0.00405,0.015902,0.010477,-0.037924,0.032114,-0.001078
67,-2.630434,-0.090725,-0.42532200000000003,-0.487176,0.090601,0.868591,-0.005282,0.032997000000000005,-0.012251999999999999,-0.033972,0.027502,-0.001297
68,-2.630145,-0.090379,-0.42502,-0.487442,0.09025599999999999,0.8684780000000001,-0.006459,-0.005294,-0.026098000000000003,-0.018265,0.016571000000000002,-0.015283000000000001
69,-2.6308290000000003,-0.089921,-0.42452399999999996,-0.486868,0.0898,0.8688469999999999,-0.007704000000000001,-0.054254,-0.035657999999999995,-0.004312,0.0037979999999999997,-0.018368000000000002
70,-2.63217,-0.089399,-0.423929,-0.48572600000000005,0.08928,0.86954,-0.009918999999999999,-0.0766,-0.039918,0.002435,-0.010194,-0.00815
71,-2.633725,-0.088864,-0.423354,-0.484396,0.088747,0.8703360000000001,-0.007819,-0.07982,-0.035626,0.010916,-0.017306000000000002,0.00022400000000000002
72,-2.6351139999999997,-0.0886,-0.42292399999999997,-0.48319799999999996,0.08848400000000001,0.871028,0.00286,-0.063933,-0.021685,0.015394,-0.013136000000000002,0.005268999999999999
73,-2.6358599999999996,-0.088495,-0.422612,-0.48255299999999995,0.088379,0.871396,-0.000188,-0.022406,-0.014282,0.010217,-0.010743,0.009188
74,-2.6365529999999997,-0.087841,-0.422521,-0.48197700000000004,0.087728,0.8717809999999999,-0.006529999999999999,-0.001113,-0.006876999999999999,0.016553000000000002,-0.0118,0.0013880000000000001
75,-2.636514,-0.087797,-0.42260200000000003,-0.482013,0.087684,0.871766,-0.000162,0.006261999999999999,0.008112999999999999,0.019397,-0.011863,0.0008230000000000001
76,-2.636246,-0.088152,-0.42280200000000007,-0.482231,0.088038,0.871609,0.003169,0.039256,0.012368,0.004173,0.0050100000000000006,0.004261
77,-2.635425,-0.088608,-0.42298100000000005,-0.48292700000000005,0.088492,0.8711770000000001,0.0032240000000000003,0.049912,0.011287,0.00281,0.011422,-0.005684000000000001
78,-2.634369,-0.089415,-0.423015,-0.48381199999999996,0.089296,0.870604,0.009857,0.047693,0.001533,0.002489,0.014266,-0.007673999999999999
79,-2.63298,-0.090933,-0.422658,-0.484954,0.090807,0.869812,0.020586,0.042401,-0.015472999999999999,-0.0077209999999999996,0.018598,-0.002915
80,-2.631755,-0.09213500000000001,-0.421942,-0.485966,0.092004,0.869122,0.022673,0.015826,-0.030376,-0.006207,0.012793,-0.004528
81,-2.63145,-0.092606,-0.42112,-0.48621000000000003,0.092474,0.868935,0.026802999999999997,-0.011895999999999999,-0.027107,-0.007534000000000001,0.003061,-0.002068
82,-2.6311259999999996,-0.093247,-0.42045,-0.486462,0.093112,0.868726,0.032096,-0.007706,-0.013188,-0.003452,0.003125,-0.006222999999999999
83,-2.631158,-0.093722,-0.420158,-0.486413,0.093585,0.8687030000000001,0.023523,-0.000283,0.0027670000000000004,0.011391,-0.001666,-0.005071
84,-2.6314919999999997,-0.094148,-0.42019300000000004,-0.48610200000000003,0.09400800000000001,0.8688309999999999,0.012749,-0.012012,0.014457,0.008182,-0.000365,-0.004007999999999999
85,-2.6320080000000003,-0.094362,-0.420465,-0.485645,0.094222,0.869064,-0.0032630000000000003,-0.013027,0.015415,0.008182,-0.000167,0.000993
86,-2.633917,-0.094419,-0.42097399999999996,-0.48398199999999997,0.094279,0.869984,-0.007445,-0.020587,0.018473,0.025883,-0.000941,0.00349
87,-2.63516,-0.094468,-0.42148599999999997,-0.48289799999999994,0.094327,0.8705809999999999,-0.006412,-0.024869,0.021691,0.02663,-0.002591,-0.000968
88,-2.636165,-0.094404,-0.421996,-0.482026,0.094263,0.8710709999999999,-0.011675,-0.012058,0.018433,0.020554,-0.003718,0.002693
89,-2.6370810000000002,-0.094226,-0.42244899999999996,-0.48123599999999994,0.094087,0.871527,-0.007345999999999999,-0.0014119999999999998,0.015244999999999998,0.003849,2.8999999999999997e-05,-0.003134
90,-2.636975,-0.094294,-0.422695,-0.481325,0.09415499999999999,0.8714709999999999,0.000165,0.004967,0.012085,-0.0005780000000000001,-0.001046,-0.004115
91,-2.636561,-0.094374,-0.422871,-0.48168199999999994,0.094234,0.871265,0.00023199999999999997,0.01882,0.010999,-0.005561,-0.001018,-0.0008880000000000001
92,-2.635948,-0.094248,-0.423059,-0.48222200000000004,0.094109,0.87098,0.008698000000000001,0.010245,0.017477,-0.000597,-0.005303,-0.008553
93,-2.635736,-0.094503,-0.423188,-0.48239499999999996,0.094362,0.870856,0.010812,-0.000388,0.011096,-0.004009,-0.0028239999999999997,-0.007162999999999999
94,-2.635586,-0.094712,-0.42323,-0.482516,0.09457,0.870767,0.010806,-0.005792,0.008856000000000001,-0.004956,-0.003109,-0.007012000000000001
95,-2.635374,-0.095046,-0.423112,-0.48268500000000003,0.094903,0.8706370000000001,0.011907,-0.008945999999999999,-0.0018149999999999998,-0.002773,0.001029,-0.007370999999999999
96,-2.6354830000000002,-0.095208,-0.422865,-0.482583,0.095064,0.870676,0.011912,-0.014246,-0.008217,0.000145,-3.3e-05,-0.007012999999999999
97,-2.6359049999999997,-0.095358,-0.422624,-0.482209,0.095213,0.8708670000000001,0.012907,-0.027045999999999997,-0.004989,0.0027170000000000002,-0.0007610000000000001,-0.007555
98,-2.636243,-0.095611,-0.42243800000000004,-0.48190200000000005,0.095466,0.871009,0.013978999999999998,-0.021738999999999998,-0.0007160000000000001,-0.001374,0.001534,-0.0032719999999999997
99,-2.636446,-0.09583799999999999,-0.42227200000000004,-0.48171499999999995,0.095691,0.871088,0.015088999999999998,-0.010033,0.0014140000000000001,-0.0020039999999999997,-0.0015140000000000002,-0.002939
100,-2.636513,-0.096077,-0.422177,-0.481645,0.095929,0.8711,0.010820999999999999,-0.007895000000000001,0.003517,-0.0021190000000000002,-0.0007599999999999999,-0.002829
101,-2.636371,-0.096321,-0.422105,-0.481758,0.09617200000000001,0.8710110000000001,0.006559000000000001,-0.009996,0.000286,-0.003135,0.001393,-0.002313
102,-2.636461,-0.096446,-0.42191999999999996,-0.48167299999999996,0.09629700000000001,0.871044,0.008669,-0.012179,-0.009424,-0.003129,0.0012369999999999998,-0.003658
103,-2.636581,-0.096472,-0.421633,-0.48156800000000005,0.096322,0.871099,0.004378,-0.022794,-0.014781,-0.003692,0.0020510000000000003,-0.00295
104,-2.637048,-0.096413,-0.42132299999999995,-0.481163,0.096264,0.8713290000000001,0.0032869999999999996,-0.029176999999999998,-0.015849000000000002,-0.000602,0.00033999999999999997,-0.004661
105,-2.637787,-0.09640599999999999,-0.42087399999999997,-0.48052,0.09625700000000001,0.871685,0.011779000000000001,-0.046221,-0.023245,0.0019440000000000002,0.005855,-0.0023769999999999998
106,-2.639175,-0.096789,-0.420361,-0.479292,0.096638,0.8723190000000001,0.005371,-0.050453,-0.025419,0.007872,0.006847,0.004146
107,-2.6403209999999997,-0.096836,-0.420092,-0.47828999999999994,0.09668500000000001,0.872864,0.002152,-0.038789,-0.009433,0.011325,0.006815000000000001,0.002167
108,-2.641254,-0.09704700000000001,-0.420063,-0.477465,0.09689500000000001,0.873292,0.00542,-0.012218000000000001,0.002307,0.007647,0.001082,0.006164
109,-2.6416470000000003,-0.097203,-0.420142,-0.47711499999999996,0.09705,0.873466,0.006573000000000001,0.010133,0.005490999999999999,0.010486,-1.9e-05,0.002449
110,-2.641906,-0.09749,-0.420206,-0.476876,0.097335,0.8735649999999999,0.010794,0.016447,0.004347,0.011833,0.0012519999999999999,0.0007639999999999999
111,-2.64204,-0.09782,-0.42026099999999994,-0.47674300000000003,0.097664,0.8736010000000001,0.010832,0.027088,0.006470999999999999,0.012692,0.00225,0.001094
112,-2.641771,-0.098183,-0.42026800000000003,-0.47696099999999997,0.098025,0.873441,0.010881,0.032434,0.001124,0.009172,0.0030489999999999996,-0.0038280000000000002
113,-2.641324,-0.098424,-0.420155,-0.47734,0.09826499999999999,0.873207,0.005595,0.033555,-0.008528,0.0073230000000000005,0.002672,-0.0038380000000000003
114,-2.640711,-0.098372,-0.41984899999999997,-0.47787700000000005,0.098213,0.872919,0.0023899999999999998,0.022952,-0.018151,0.002246,-0.002159,-0.007379000000000001
115,-2.640238,-0.09798899999999999,-0.419525,-0.47830900000000004,0.097832,0.872725,-0.00517,0.0038009999999999997,-0.017111,-0.001245,-0.005882,-0.011001
116,-2.639868,-0.097458,-0.41926199999999997,-0.478656,0.097304,0.8725940000000001,-0.004195,-0.014318,-0.014946000000000001,-0.009670999999999999,-0.006667,-0.011327
117,-2.639589,-0.09711900000000001,-0.418954,-0.478916,0.096966,0.872489,-0.000967,-0.010057,-0.017066,-0.010907,-0.001736,-0.001258
118,-2.639511,-0.096868,-0.41854399999999997,-0.478995,0.096717,0.8724729999999999,0.002219,-0.016444999999999998,-0.02024,-0.00419,-0.003013,-0.005392
119,-2.6395869999999997,-0.096586,-0.41814700000000005,-0.47894200000000003,0.09643600000000001,0.872533,0.0054329999999999995,-0.011137000000000001,-0.018088999999999997,-0.0024879999999999998,-0.004654,-0.006933
120,-2.6393470000000003,-0.096354,-0.417756,-0.479162,0.096205,0.8724379999999999,0.010839,0.006945999999999999,-0.015938,0.00037200000000000004,-0.005827000000000001,-0.0068379999999999995
121,-2.638952,-0.096215,-0.41730500000000004,-0.479513,0.096067,0.87226,0.009829000000000001,0.012306999999999998,-0.02343,-0.001596,-0.0021190000000000002,-0.004707
122,-2.638537,-0.09628300000000001,-0.416707,-0.479872,0.096135,0.8720559999999999,0.010939,0.015525,-0.029835000000000004,0.002363,0.005092,-0.004243
123,-2.63805,-0.09650399999999999,-0.415984,-0.480286,0.096355,0.8718030000000001,0.014169999999999999,0.017662,-0.034088,0.0010689999999999999,0.008015999999999999,-0.005013
124,-2.637539,-0.096477,-0.415253,-0.48073299999999997,0.096328,0.87156,0.008738,0.01867,-0.036393,-0.002116,0.005311,-0.002419
125,-2.6372299999999997,-0.09640900000000001,-0.41456899999999997,-0.48100600000000004,0.096259,0.871417,0.007575,0.0016129999999999999,-0.032106,0.001849,0.000512,-0.004961999999999999
126,-2.637468,-0.096221,-0.413979,-0.480807,0.096073,0.871547,0.0053219999999999995,-0.021828999999999998,-0.028887,0.003909,-0.000202,-0.0036119999999999998
127,-2.6381639999999997,-0.096075,-0.413541,-0.480207,0.095927,0.8718940000000001,-0.002242,-0.036742000000000004,-0.022512,0.006025,0.000508,-0.0043549999999999995
128,-2.6390540000000002,-0.095795,-0.413263,-0.479443,0.095648,0.872345,-0.004404,-0.037822,-0.017184,0.009534,-0.002326,-0.003052
129,-2.639966,-0.095555,-0.41311800000000004,-0.478659,0.09540900000000001,0.872801,-0.005490999999999999,-0.035713999999999996,-0.010785,0.009023999999999999,-0.001797,4.7e-05
130,-2.640952,-0.095325,-0.412987,-0.47780900000000004,0.09518099999999999,0.873292,-0.002334,-0.044253,-0.009684,0.009989,-0.0027890000000000002,-0.000505
131,-2.642187,-0.095138,-0.41292799999999996,-0.476738,0.09499400000000001,0.8738969999999999,-0.000196,-0.037892,-0.004336,0.005776,-0.0047079999999999995,0.00536
132,-2.6429,-0.094848,-0.412958,-0.476128,0.094706,0.8742610000000001,-0.003431,-0.019822,0.001954,0.002618,-0.005228,-0.00126
133,-2.643084,-0.094779,-0.413066,-0.47597,0.094638,0.8743549999999999,-0.00123,-0.0017329999999999997,0.005151,0.002307,-0.003527,-0.0034439999999999996
134,-2.6432130000000003,-0.094533,-0.41323999999999994,-0.475868,0.09439199999999999,0.8744370000000001,-0.0043939999999999995,0.008922,0.0072510000000000005,0.009545,-0.0036030000000000003,-0.005571
135,-2.6432330000000004,-0.09447699999999999,-0.413459,-0.47585299999999997,0.094337,0.874451,-0.00337,0.0035740000000000004,0.011538,0.009713,-0.004615,-0.0058590000000000005
136,-2.6432450000000003,-0.094462,-0.41369700000000004,-0.475843,0.094321,0.874458,-0.002294,0.00464,0.010476000000000001,0.004347,-0.004966,-0.0030280000000000003
137,-2.6431139999999997,-0.094533,-0.413839,-0.475955,0.09439199999999999,0.874389,0.0030489999999999996,0.0035689999999999997,0.00731,-4.3e-05,0.000533,-0.001648
138,-2.642957,-0.094733,-0.41385500000000003,-0.476083,0.094591,0.8742979999999999,0.004131,0.001457,0.001979,-0.0028899999999999998,0.00366,-0.0045320000000000004
139,-2.642945,-0.094942,-0.413812,-0.47608500000000004,0.094799,0.874275,0.0051600000000000005,-0.00919,-0.000136,-0.001439,0.004993,-0.007392
140,-2.6431169999999997,-0.09529299999999999,-0.41366,-0.475918,0.095149,0.8743280000000001,0.002921,-0.016631,-0.006614,0.002117,0.0035450000000000004,-0.0043630000000000006
141,-2.6436830000000002,-0.095288,-0.41354300000000005,-0.47542399999999996,0.09514299999999999,0.874597,0.0017920000000000002,-0.026232,-0.002337,0.0056359999999999995,-3.5e-05,-0.002344
142,-2.644327,-0.095333,-0.413642,-0.474858,0.095188,0.8749,-0.0014470000000000002,-0.023073,0.009387000000000001,0.006993000000000001,-0.000492,-0.001761
143,-2.645172,-0.095438,-0.413857,-0.47411400000000004,0.09529299999999999,0.875292,-0.0045899999999999995,-0.013463,0.006148,0.007195,0.0026079999999999996,0.002913
144,-2.6456470000000003,-0.095388,-0.414046,-0.47370100000000004,0.095243,0.8755209999999999,-0.009909000000000001,-0.013433,0.002907,0.010978,0.002825,-0.000551
145,-2.645997,-0.095269,-0.41416800000000004,-0.47339899999999996,0.095125,0.875697,-0.009847,-0.002768,-0.00031099999999999997,0.008342,0.002165,0.0028280000000000002
146,-2.646001,-0.095109,-0.414216,-0.47340299999999996,0.094965,0.875712,-0.010860999999999999,0.00577,-0.0035329999999999997,0.0028989999999999997,0.000234,-0.003565
147,-2.64593,-0.09487000000000001,-0.414264,-0.473476,0.09472799999999999,0.875698,-0.007689,0.00255,-0.000303,0.00198,-0.003908,-0.006542
148,-2.645644,-0.094676,-0.41435299999999997,-0.473735,0.09453500000000001,0.8755790000000001,-0.01095,0.013205000000000001,0.000681,0.001644,0.0004969999999999999,-0.00511
149,-2.645542,-0.09455,-0.414596,-0.47383000000000003,0.094409,0.875541,-0.014193,0.012116,0.009206,0.008589,-0.00011,-0.006309
150,-2.645483,-0.09445,-0.41500299999999996,-0.473887,0.09431,0.8755209999999999,-0.020632,0.007859999999999999,0.013438999999999998,0.006662,0.00324,-0.002139
151,-2.645707,-0.094407,-0.41548900000000005,-0.473692,0.09426699999999999,0.8756309999999999,-0.023899,-0.007044,0.013436000000000002,0.005629,0.0042899999999999995,-0.0004940000000000001
152,-2.646343,-0.09411699999999999,-0.41601499999999997,-0.47314799999999996,0.09397799999999999,0.875956,-0.027148000000000002,-0.016625,0.014494,0.008334000000000001,-0.000717,-0.000376
153,-2.647081,-0.093605,-0.416616,-0.472524,0.093468,0.876347,-0.026135000000000002,-0.020921000000000002,0.021984,0.007984999999999999,-0.007393,-0.002416
154,-2.647532,-0.093089,-0.417372,-0.472152,0.092955,0.876603,-0.017611,-0.007167,0.038048,0.003127,-0.010817,-0.0018620000000000002
155,-2.647552,-0.092988,-0.418371,-0.47213900000000003,0.09285399999999999,0.8766200000000001,-0.017588999999999997,0.011951999999999999,0.051910000000000005,0.004259000000000001,-0.006306,-0.004611
156,-2.64723,-0.093039,-0.41947700000000004,-0.472419,0.092905,0.8764639999999999,-0.01341,0.020451,0.054033000000000005,-0.004464,-0.0036869999999999997,0.002885
157,-2.646455,-0.093217,-0.420363,-0.47308999999999996,0.093082,0.876083,-0.004765999999999999,0.034314,0.043393,-0.007669,-0.002552,-0.0026850000000000003
158,-2.645057,-0.093507,-0.421051,-0.47430200000000006,0.09337100000000001,0.875397,-0.000398,0.051368,0.038061000000000005,-0.011096,0.000852,-0.009461
159,-2.643152,-0.09385299999999999,-0.421454,-0.47595200000000004,0.09371499999999999,0.8744639999999999,0.005033,0.055683,0.021001,-0.020477000000000002,0.00066,-0.0075049999999999995
160,-2.641088,-0.093895,-0.42143100000000006,-0.477754,0.09375700000000001,0.873476,0.00619,0.054703999999999996,-0.00035499999999999996,-0.015776,-0.004661,-0.017244
161,-2.639512,-0.093852,-0.421199,-0.479133,0.09371399999999999,0.872725,0.015739,0.039773,-0.003474,-0.0077599999999999995,-0.007487000000000001,-0.016066
162,-2.638325,-0.093993,-0.42086,-0.480162,0.09385399999999999,0.8721450000000001,0.016733,0.018489,-0.008782,-0.012117000000000001,-0.002302,-0.009916
163,-2.63787,-0.09399199999999999,-0.4205,-0.480558,0.09385399999999999,0.871926,0.009203,-0.001698,-0.015218,-0.0038929999999999998,-0.001538,-0.0038689999999999996
164,-2.638216,-0.09395099999999999,-0.42021400000000003,-0.480259,0.093813,0.8720959999999999,0.004725,-0.02192,-0.013093,0.0036049999999999997,-0.000719,-0.0015660000000000001
165,-2.638881,-0.094023,-0.420013,-0.479675,0.09388400000000001,0.872409,-0.0006190000000000001,-0.024033000000000002,-0.013127000000000002,0.004821,0.004961999999999999,0.0036130000000000003
166,-2.639704,-0.094085,-0.41980500000000004,-0.478955,0.093946,0.872798,-0.001675,-0.022961000000000002,-0.014203,0.012768,0.005938000000000001,0.000401
167,-2.6402900000000002,-0.094106,-0.419621,-0.47844200000000003,0.093967,0.873077,0.00055,-0.000609,-0.012079000000000001,0.012331,0.0030329999999999997,0.00145
168,-2.640584,-0.094108,-0.41951499999999997,-0.478185,0.09397,0.873218,0.009085,0.008908,-0.0024170000000000003,0.011251,-0.0026609999999999997,0.000348
169,-2.640475,-0.094212,-0.41939399999999993,-0.47827600000000003,0.094072,0.873157,0.01661,0.026969,0.0029530000000000003,0.00745,-0.005633,0.000897
170,-2.6395939999999998,-0.094349,-0.41931899999999994,-0.479038,0.094209,0.8727239999999999,0.020991,0.058887,0.009351,0.004734,-0.007965999999999999,-0.004941
171,-2.638169,-0.09463200000000001,-0.419328,-0.48026899999999995,0.09449099999999999,0.872017,0.024219,0.071633,0.015766,-0.002015,-0.007501000000000001,-0.001609
172,-2.6366549999999997,-0.095113,-0.41945,-0.481566,0.09497,0.8712489999999999,0.021975,0.078032,0.022159,0.001632,-0.006834999999999999,-0.0018030000000000001
173,-2.6352860000000002,-0.09560700000000001,-0.41973599999999994,-0.48273599999999994,0.095461,0.870548,0.016612000000000002,0.075902,0.026397000000000004,0.006021,-0.000826,-0.004733
174,-2.633942,-0.096118,-0.419941,-0.483882,0.09597,0.8698549999999999,0.018727,0.064207,0.01895,0.007167,-0.001335,-0.0040409999999999995
175,-2.632678,-0.096701,-0.41995200000000005,-0.48495299999999997,0.09655,0.869194,0.023023,0.061035,0.00937,0.002348,0.002602,-0.008248
176,-2.631522,-0.09743099999999999,-0.419778,-0.48592299999999994,0.097277,0.8685709999999999,0.029382,0.046120999999999995,0.004093,-0.0035329999999999997,0.004057,-0.0057020000000000005
177,-2.630506,-0.098009,-0.419418,-0.486778,0.097852,0.868028,0.029387,0.036577,-0.0065769999999999995,-0.0051649999999999995,0.00339,-0.0068980000000000005
178,-2.6297200000000003,-0.098571,-0.418971,-0.487433,0.098411,0.867597,0.029354,0.026999000000000002,-0.008701,-0.003107,0.005242,-0.007611
179,-2.6288709999999997,-0.099393,-0.418471,-0.488129,0.09923,0.8671120000000001,0.033638,0.028058999999999997,-0.010808,-0.0034479999999999997,0.004393,-0.002564
180,-2.6280799999999997,-0.100006,-0.417882,-0.488785,0.099839,0.8666719999999999,0.034638999999999996,0.031309,-0.016131,-0.000549,0.005111,-0.0059700000000000005
181,-2.627712,-0.100339,-0.417285,-0.489088,0.10017100000000001,0.8664629999999999,0.016393,-0.000556,-0.023694999999999997,0.00041,0.0062439999999999996,-0.0018239999999999999
182,-2.627854,-0.100387,-0.416728,-0.48896300000000004,0.100219,0.8665290000000001,-0.006135,-0.036661,-0.032351,-0.007497,0.007248999999999999,-0.003003
183,-2.628839,-0.099716,-0.41627299999999995,-0.488141,0.099551,0.8670680000000001,-0.019028,-0.060039,-0.035616,-0.004336,-0.000949,0.004651
184,-2.630463,-0.098666,-0.41601899999999997,-0.486784,0.098506,0.867951,-0.024484,-0.07392,-0.022818,0.0037359999999999997,-0.010509000000000001,0.004837
185,-2.632119,-0.09759,-0.41608599999999996,-0.485397,0.09743500000000001,0.868848,-0.013812999999999999,-0.049552,0.000725,0.013778,-0.016991,-0.001889
186,-2.633136,-0.097246,-0.416493,-0.484529,0.097093,0.8693700000000001,-0.011656999999999999,-0.024076,0.021003,0.017259,-0.012681,-0.0028539999999999998
187,-2.634201,-0.096835,-0.41721400000000003,-0.48362299999999997,0.096683,0.86992,-0.019146,-0.018764,0.030557,0.014171000000000001,-0.007236,0.003188
188,-2.635382,-0.096712,-0.41800699999999996,-0.482601,0.09656100000000001,0.870501,-0.016027,-0.01874,0.030588999999999998,0.016368999999999998,-0.001545,0.000867
189,-2.635798,-0.096829,-0.41861899999999996,-0.48223299999999997,0.096678,0.870692,-0.011658,-0.003812,0.023122999999999998,0.011866,0.003389,-0.005595
190,-2.6358,-0.097012,-0.41897799999999996,-0.48222299999999996,0.09686,0.8706780000000001,-0.005151,0.007931,0.011403,0.003127,9.499999999999999e-05,-0.0073349999999999995
191,-2.635002,-0.097097,-0.418994,-0.48291300000000004,0.096945,0.8702850000000001,0.006743000000000001,0.030313,-0.001361,-0.007962,0.001444,-0.008209000000000001
192,-2.634023,-0.097381,-0.418717,-0.48375200000000007,0.097228,0.8697879999999999,0.021703,0.033467000000000004,-0.003397,-0.0036439999999999997,-0.000594,-0.018897
193,-2.632539,-0.09765800000000001,-0.418346,-0.485029,0.09750299999999999,0.8690459999999999,0.023807,0.027072000000000002,-0.003375,-0.009127,-0.0031579999999999998,-0.006207
194,-2.632012,-0.097901,-0.418016,-0.485476,0.09774400000000001,0.868769,0.018416,0.010064,-0.007663,-0.006285,-0.002026,-0.004099
195,-2.6317459999999997,-0.098139,-0.41762200000000005,-0.485695,0.097982,0.8686200000000001,0.023763999999999997,0.008997,-0.011898,-0.001183,0.001475,-0.003507
196,-2.6312830000000003,-0.098767,-0.417125,-0.486067,0.098607,0.868341,0.02159,0.009061,-0.018322,0.00045599999999999997,0.005488,-0.0070739999999999996
197,-2.631264,-0.098843,-0.41656499999999996,-0.48608,0.098682,0.868325,0.010763,-0.031359,-0.023687,-0.002827,-0.0013310000000000002,-0.009193999999999999
198,-2.63197,-0.098628,-0.41602700000000004,-0.48547700000000005,0.098468,0.8686870000000001,0.003204,-0.051572,-0.023714,-0.0055509999999999995,-0.004138,-0.007145
199,-2.632916,-0.09804600000000001,-0.41567600000000005,-0.484683,0.097889,0.869195,-0.0032229999999999997,-0.048388,-0.015218,0.004672,-0.006306,-0.005654
200,-2.63377,-0.097708,-0.415541,-0.48395600000000005,0.097553,0.8696379999999999,-0.0064,-0.036683999999999994,-0.008846,0.0008939999999999999,-0.0026739999999999997,-0.000787
201,-2.634451,-0.097561,-0.41544200000000003,-0.483371,0.09740700000000001,0.8699790000000001,-0.004214,-0.028156999999999998,-0.012046,0.001377,0.002157,0.003357
202,-2.635224,-0.097527,-0.41523999999999994,-0.4827,0.097372,0.8703559999999999,-0.003146,-0.033466,-0.017373,0.004794,0.004343,-0.000666
203,-2.636063,-0.097458,-0.41489499999999996,-0.48197299999999993,0.097303,0.870767,6.500000000000001e-05,-0.037712999999999997,-0.023754,0.0038229999999999996,0.0029620000000000002,-0.001809
204,-2.636812,-0.097263,-0.414488,-0.481329,0.09711,0.871144,0.002165,-0.029189,-0.022688999999999997,0.005698,0.001675,0.000377
205,-2.637746,-0.097225,-0.414149,-0.480517,0.097072,0.8715959999999999,0.004352,-0.013237,-0.018421,0.010699,0.001179,0.004334
206,-2.638304,-0.097241,-0.41385900000000003,-0.48003,0.097088,0.8718629999999999,0.005452,-0.001542,-0.014155000000000001,0.013691,0.002598,0.000863
207,-2.638647,-0.097363,-0.41362,-0.47972600000000004,0.097209,0.872017,0.003343,0.004850999999999999,-0.013109,0.01209,0.005574,2.3e-05
208,-2.6387400000000003,-0.097469,-0.41341000000000006,-0.47963999999999996,0.097315,0.872052,0.002258,0.002715,-0.010976999999999999,0.002574,0.004490999999999999,0.003085
209,-2.638946,-0.097466,-0.413192,-0.47946000000000005,0.097312,0.872152,0.0011769999999999999,-0.001539,-0.012047,0.004194,-0.00018999999999999998,0.001963
210,-2.639055,-0.097337,-0.413059,-0.479371,0.097183,0.872215,8.6e-05,-0.001557,-0.006714,0.002076,-0.001999,-0.0033950000000000004
211,-2.6387509999999996,-0.097164,-0.413008,-0.479645,0.097011,0.872084,-0.0009720000000000001,0.005884,-0.00139,-0.005234,-0.00587,-0.008497
212,-2.638155,-0.096914,-0.41298900000000005,-0.480175,0.096763,0.871819,-0.001021,0.011181,0.001795,-0.0067480000000000005,-0.008399,-0.009056999999999999
213,-2.6377029999999997,-0.096737,-0.412999,-0.48057799999999995,0.096587,0.871617,0.00425,-0.000563,0.0039829999999999996,-0.006756999999999999,-0.006957,-0.0098
214,-2.637483,-0.09664,-0.413004,-0.480774,0.09648999999999999,0.871519,0.0031100000000000004,-0.016536000000000002,0.003995,-0.007156,-0.005899000000000001,-0.009566
215,-2.6376459999999997,-0.096553,-0.41300699999999996,-0.48063599999999995,0.09640399999999999,0.871605,0.0020280000000000003,-0.021848,0.001857,-0.000245,-0.00045599999999999997,-0.003914
216,-2.638027,-0.09661,-0.412954,-0.48030200000000006,0.09646,0.871783,0.0020570000000000002,-0.021823,-0.0045520000000000005,0.000733,0.001212,-0.0042899999999999995
217,-2.638521,-0.096598,-0.412758,-0.479871,0.096447,0.8720209999999999,-7.6e-05,-0.032425,-0.015235,0.0007599999999999999,0.0031620000000000003,-0.001325
218,-2.639216,-0.096603,-0.412441,-0.47926499999999994,0.096453,0.8723549999999999,-0.0022329999999999997,-0.041987000000000003,-0.019511,0.00081,0.005888,-0.005213000000000001
219,-2.6400259999999998,-0.09651699999999999,-0.412088,-0.478562,0.096368,0.87275,0.0009630000000000001,-0.042003,-0.01842,0.001053,0.004386,-0.0033950000000000004
220,-2.640715,-0.096458,-0.41180200000000006,-0.477963,0.096308,0.873084,0.004135,-0.027152,-0.013088999999999998,0.005338,-0.000895,-0.0018219999999999998
221,-2.64128,-0.096371,-0.411662,-0.47747399999999995,0.096222,0.873361,0.003092,-0.014394999999999998,-0.005635,0.007305,-0.0006259999999999999,0.000174
222,-2.641666,-0.096401,-0.41161400000000004,-0.47713599999999995,0.096252,0.8735430000000001,0.003102,-0.006959999999999999,-0.000303,0.009866,-0.0009449999999999999,0.0006940000000000001
223,-2.642122,-0.096523,-0.41166499999999995,-0.476731,0.096373,0.87375,0.003083,-0.006979000000000001,0.0039700000000000004,0.007447,0.002886,-0.001573
224,-2.642536,-0.096621,-0.41171199999999997,-0.476365,0.096471,0.8739389999999999,-0.002285,-0.0176,0.000742,0.002732,0.001369,-0.0014269999999999999
225,-2.64299,-0.096588,-0.41169300000000003,-0.47597,0.096438,0.874158,-0.000146,-0.021848,-0.004579,-7.3e-05,-0.000704,-0.000592
226,-2.643242,-0.096448,-0.411553,-0.47575600000000007,0.096299,0.87429,0.003087,-0.017584,-0.0077670000000000005,-0.000654,-0.003815,-0.003578
227,-2.643376,-0.09633,-0.41138800000000003,-0.475645,0.09618099999999999,0.8743639999999999,0.003125,-0.008001000000000001,-0.006711,-9.4e-05,-0.002263,-0.0035600000000000002
228,-2.643481,-0.096324,-0.411297,-0.47555299999999995,0.096176,0.8744139999999999,0.002049,-0.005883,-0.002448,0.0024850000000000002,-0.000671,-0.005029
229,-2.643592,-0.096328,-0.411293,-0.475455,0.096179,0.874467,0.003029,-0.001684,0.002879,0.002814,-0.002353,-0.001893
230,-2.643647,-0.09639500000000001,-0.411365,-0.475404,0.096246,0.8744870000000001,0.001967,0.002568,0.00607,0.001756,0.000281,0.000162
231,-2.643616,-0.096473,-0.41148199999999996,-0.47542799999999996,0.096323,0.874466,0.000915,0.005767,0.006059,0.00445,-0.000696,-0.003143
232,-2.643563,-0.09660099999999999,-0.411613,-0.475468,0.096451,0.8744299999999999,-0.001214,0.007901,0.007109999999999999,0.003483,0.00206,-0.005136
233,-2.6435299999999997,-0.096691,-0.411783,-0.47549300000000005,0.09654,0.8744059999999999,-0.00761,0.007927,0.005997,0.0068189999999999995,0.001391,-0.006593000000000001
234,-2.643425,-0.09666699999999999,-0.41190299999999996,-0.47558599999999995,0.09651699999999999,0.874358,-0.006533,0.00581,0.0017350000000000002,0.001053,0.0019030000000000002,-0.000335
235,-2.6432740000000003,-0.096572,-0.41200699999999996,-0.47572200000000003,0.09642200000000001,0.874295,-0.005447,0.012190000000000001,0.00387,-0.000688,-0.0011,-0.0011560000000000001
236,-2.642792,-0.096403,-0.412207,-0.476152,0.09625399999999999,0.874079,-0.003368,0.022774000000000003,0.012411,-0.001784,-0.002107,-0.008219
237,-2.642297,-0.096429,-0.41249600000000003,-0.476583,0.09627899999999999,0.873842,-0.004445,0.022769,0.01454,-0.001307,-0.001186,-0.005525
238,-2.64173,-0.09639099999999999,-0.41275500000000004,-0.47708,0.096242,0.873574,-0.00018700000000000002,0.019563999999999998,0.013505000000000001,-0.001207,-0.006093,-0.0063869999999999994
239,-2.641284,-0.096337,-0.41287299999999993,-0.477472,0.096188,0.873366,0.0008449999999999999,0.004677000000000001,0.0060539999999999995,-0.003744,-0.0020559999999999997,-0.005309
240,-2.641341,-0.096263,-0.412886,-0.477426,0.096114,0.8733989999999999,-0.0045130000000000005,-0.010179,-0.0035789999999999997,0.002466,1.6e-05,-0.004991
241,-2.641732,-0.096196,-0.41275200000000006,-0.477087,0.09604700000000001,0.873592,-0.002408,-0.022944,-0.009956999999999999,0.002188,0.001533,-0.004344
242,-2.642219,-0.096139,-0.412574,-0.47666400000000003,0.09599099999999999,0.8738290000000001,-0.002374,-0.016548,-0.011033,0.0028179999999999998,0.002215,-0.002689
243,-2.642456,-0.09606100000000001,-0.41243199999999997,-0.47646099999999997,0.095913,0.873948,-0.006573999999999999,-0.002681,-0.012148,0.0038659999999999996,0.00246,-0.00229
244,-2.642601,-0.095899,-0.412332,-0.476342,0.095752,0.874031,-0.005591,-0.000593,-0.008935,0.007653,-0.000949,-0.002434
245,-2.642762,-0.095791,-0.412326,-0.476206,0.09564500000000001,0.874117,-0.004576,-0.004888,-0.0014449999999999999,0.006281,-0.001696,-0.0002
246,-2.642952,-0.09565599999999999,-0.41236300000000004,-0.476046,0.09551,0.8742190000000001,-0.004562,-0.0016920000000000001,-0.001449,0.002902,-0.002294,-0.002148
247,-2.642782,-0.09553099999999999,-0.41231,-0.4762,0.095385,0.8741479999999999,-0.003457,0.002583,-0.00572,-0.003002,-0.00044500000000000003,-0.003421
248,-2.6426580000000004,-0.095319,-0.412178,-0.476318,0.095175,0.874107,-0.000266,-0.002741,-0.008896,-0.0014960000000000002,-0.003225,-0.0038829999999999997
249,-2.642583,-0.095072,-0.411967,-0.47639499999999996,0.094928,0.874092,0.00079,-0.006997,-0.01102,-0.0016170000000000002,-0.004520000000000001,-0.005850999999999999
250,-2.6426790000000002,-0.09475700000000001,-0.41176999999999997,-0.476326,0.094615,0.8741639999999999,-0.00028700000000000004,-0.009123000000000001,-0.011025,0.0019760000000000003,-0.0056560000000000004,-0.005481000000000001
251,-2.642912,-0.094465,-0.411628,-0.47613500000000003,0.094324,0.8742989999999999,-0.0024690000000000003,-0.014463,-0.005693,0.001861,-0.004664,-0.0039369999999999995
252,-2.643291,-0.094314,-0.41160699999999995,-0.47581,0.09417400000000001,0.874492,-0.0025399999999999997,-0.012354,-0.00248,0.004954,-0.0008210000000000001,-0.00175
253,-2.6435400000000002,-0.094292,-0.41164700000000004,-0.47559399999999996,0.094152,0.8746120000000001,-0.004674,-0.010223999999999999,-0.000361,0.0011220000000000002,0.001551,-0.003259
254,-2.643749,-0.09423200000000001,-0.411667,-0.47541300000000003,0.094093,0.8747159999999999,-0.004664,-0.009155,-0.00143,0.001384,3.8e-05,-0.003165
255,-2.6438509999999997,-0.094194,-0.41167200000000004,-0.475326,0.094054,0.874768,-0.002516,-0.004905,-0.000352,0.00209,7.7e-05,-0.003766
256,-2.643904,-0.094229,-0.41167299999999996,-0.475278,0.09409,0.87479,-0.002487,-0.0006360000000000001,-0.002494,0.001493,0.003078,-0.003208
257,-2.643949,-0.094167,-0.41158599999999995,-0.475242,0.094028,0.874817,-0.001405,-0.0027489999999999997,-0.007825,0.005850999999999999,-0.00044500000000000003,-0.007201999999999999
258,-2.6442810000000003,-0.094118,-0.41149399999999997,-0.47495299999999996,0.093979,0.874978,-0.001482,-0.017671,-0.0056689999999999996,0.006692,0.000991,-0.005533
259,-2.644729,-0.094026,-0.411443,-0.474566,0.093887,0.875199,-0.008935,-0.016571000000000002,-0.007859,0.004671,0.002487,-0.00084
260,-2.645219,-0.093789,-0.411366,-0.47414700000000004,0.093652,0.875451,-0.007944,-0.021881,-0.01103,0.000667,0.0008759999999999999,0.0023420000000000003
261,-2.6457669999999998,-0.09353500000000001,-0.411288,-0.473679,0.093399,0.8757309999999999,-0.003672,-0.013405000000000002,-0.0035340000000000002,0.003662,-0.004059,0.001924
262,-2.6457669999999998,-0.093442,-0.411354,-0.473682,0.093306,0.8757389999999999,-0.000429,0.006781999999999999,0.007145,0.00014099999999999998,-0.005507,-0.0017620000000000001
263,-2.6454,-0.093348,-0.411555,-0.474008,0.093212,0.8755729999999999,0.000661,0.019532,0.014613,0.0029690000000000003,-0.001003,-0.006692
264,-2.645037,-0.093458,-0.41179799999999994,-0.474321,0.093322,0.8753920000000001,0.000657,0.016345,0.012481,0.003282,-0.001113,-0.006509999999999999
265,-2.6449380000000002,-0.09362100000000001,-0.41190299999999996,-0.474401,0.093485,0.875331,0.000657,0.004674,0.000746,0.0066879999999999995,0.003592,-0.005031
266,-2.64514,-0.09372,-0.41179499999999997,-0.47421899999999995,0.093583,0.8754190000000001,-0.00045700000000000005,-0.017646000000000002,-0.010984,0.003973,0.002761,-0.0036850000000000003
267,-2.6456060000000003,-0.093687,-0.411579,-0.473812,0.09355,0.8756430000000001,0.0006,-0.021903,-0.013106999999999999,0.002651,0.002519,-0.002703
268,-2.645879,-0.093584,-0.411341,-0.473578,0.093448,0.8757799999999999,-0.0015400000000000001,-0.011217,-0.015249,0.000297,0.0021030000000000003,-0.0010400000000000001
269,-2.645957,-0.09371,-0.41112600000000005,-0.473504,0.093573,0.875807,-0.002606,-0.008029999999999999,-0.012055,0.00216,0.004922999999999999,-0.005842
270,-2.646096,-0.093675,-0.410938,-0.473384,0.093539,0.875876,-0.004749000000000001,-0.010153,-0.012067,0.001399,0.005796,-0.004706
271,-2.646254,-0.093615,-0.410782,-0.47324799999999995,0.09347799999999999,0.8759549999999999,-0.0015429999999999999,-0.006977,-0.009912,0.001859,0.003156,-0.00242
272,-2.646464,-0.093486,-0.41067299999999995,-0.47307,0.09335,0.876065,0.004867,0.001497,-0.003469,0.005358,-0.004193,9.4e-05
273,-2.646487,-0.09351,-0.41064300000000004,-0.473049,0.093373,0.876074,0.007015,0.012112000000000001,0.0040100000000000005,0.008297,-0.004659,0.002588
274,-2.6462830000000004,-0.09344,-0.410711,-0.47323000000000004,0.093304,0.875984,0.0049,0.018502,0.006123,0.002542,-0.005353,-0.0050420000000000005
275,-2.645811,-0.093338,-0.41082299999999994,-0.473649,0.093202,0.875769,0.002755,0.019563,0.009311,-0.0008539999999999999,-0.005312,-0.0048270000000000006
276,-2.645368,-0.093307,-0.41098199999999996,-0.474038,0.093172,0.875561,0.001678,0.018497,0.010373,-0.000709,-0.007692,-0.006573000000000001
277,-2.644786,-0.093193,-0.4111,-0.47455200000000003,0.093058,0.875295,0.0037409999999999995,0.016388999999999997,0.009348,-0.00259,-0.006083,-0.008
278,-2.6440919999999997,-0.093211,-0.41111499999999995,-0.475159,0.093076,0.8749629999999999,0.004822,0.013217,0.00295,-0.006363000000000001,-0.002637,-0.008051
279,-2.643748,-0.093434,-0.41101499999999996,-0.47545,0.093298,0.874782,0.00907,0.004698,-0.001282,-0.004226,0.001993,-0.007106
280,-2.643592,-0.093697,-0.410862,-0.475574,0.09356,0.8746860000000001,0.010112999999999999,-0.001693,-0.0023350000000000003,-0.00042300000000000004,0.0022649999999999997,-0.003913000000000001
281,-2.643647,-0.094015,-0.410731,-0.475512,0.093877,0.8746860000000001,0.010095,-0.004893,-0.0012619999999999999,0.002719,0.0035960000000000002,-0.002936
282,-2.643844,-0.094237,-0.410663,-0.47533000000000003,0.094097,0.874761,0.009009,-0.005967,0.001936,0.004871,0.001621,-0.0012720000000000001
283,-2.644246,-0.094735,-0.41061800000000004,-0.47495600000000004,0.094593,0.8749110000000001,0.007972,-0.001695,-0.000212,0.0049700000000000005,0.0062829999999999995,-0.0017420000000000003
284,-2.644325,-0.094954,-0.410534,-0.47487700000000005,0.09481200000000001,0.8749299999999999,0.005797999999999999,-0.002721,-0.002339,0.004906000000000001,0.003974,-0.004324000000000001
285,-2.644416,-0.095065,-0.41043100000000005,-0.474792,0.094922,0.874964,0.0036590000000000004,-0.00484,-0.0034200000000000003,0.004013,0.00011,-0.005991
286,-2.6446419999999997,-0.095049,-0.41033100000000006,-0.474595,0.09490599999999999,0.875073,0.001526,-0.006954999999999999,-0.005568,0.003083,-0.002072,-0.002499
287,-2.644874,-0.094816,-0.41021199999999997,-0.47440299999999996,0.094674,0.875202,0.005783,-0.006978,-0.0034020000000000005,0.001518,-0.005792,0.0027429999999999998
288,-2.644986,-0.094611,-0.41011899999999996,-0.474314,0.09447,0.8752719999999999,0.007939,0.0036450000000000002,0.0019399999999999999,0.000147,-0.00838,0.0033439999999999998
289,-2.6445939999999997,-0.094606,-0.410132,-0.474657,0.094465,0.8750870000000001,0.012244,0.020641,0.010493,-0.002576,-0.005872,-0.0033060000000000003
290,-2.643995,-0.094765,-0.410224,-0.475175,0.094623,0.8747889999999999,0.01121,0.031285,0.013677000000000002,0.001191,-0.004961999999999999,-0.003771
291,-2.643409,-0.095013,-0.41039799999999993,-0.475675,0.09487000000000001,0.87449,0.0101,0.024885,0.016881999999999998,0.002592,-0.0026920000000000004,-0.00744
292,-2.6431310000000003,-0.095324,-0.410584,-0.475904,0.095179,0.874332,0.007843000000000001,0.00576,0.014785,0.001158,0.00020299999999999997,-0.007129000000000001
293,-2.643119,-0.09572699999999999,-0.410663,-0.475897,0.095581,0.874292,0.008905,-0.002735,0.007326000000000001,-0.000101,0.00322,-0.0036869999999999997
294,-2.6431459999999998,-0.09614400000000001,-0.4106,-0.475854,0.095996,0.8742700000000001,0.009987000000000001,-0.005909,0.0009279999999999999,0.0006490000000000001,0.005078,-0.004809000000000001
295,-2.643208,-0.096577,-0.410498,-0.47578000000000004,0.096427,0.8742629999999999,0.008931,-0.004835,-0.000148,0.001857,0.00657,-0.004832
296,-2.643178,-0.096968,-0.41039,-0.475788,0.096816,0.874215,0.007884,-0.0016309999999999999,-0.001227,-0.000591,0.005861,-0.003839
297,-2.643173,-0.097272,-0.410304,-0.475779,0.09711900000000001,0.874187,0.0046890000000000005,-0.000554,-0.001251,0.0021,0.004535,-0.002605
298,-2.643194,-0.097488,-0.410278,-0.47575,0.097334,0.874179,0.007885,0.003674,0.004107,0.003246,9.300000000000001e-05,-0.0021079999999999996
299,-2.643153,-0.097601,-0.41031000000000006,-0.47578100000000006,0.097446,0.874149,0.004728,0.013271999999999999,0.004072999999999999,0.006756,-0.002018,-0.003879
300,-2.642861,-0.097606,-0.41034,-0.47603500000000004,0.097451,0.8740100000000001,0.002579,0.017583,0.003016,0.0041259999999999995,-0.001565,-0.0050219999999999996
301,-2.642577,-0.097553,-0.41036000000000006,-0.476286,0.097398,0.8738790000000001,0.001478,0.009068999999999999,0.00195,0.002104,-0.004457,-0.005914
302,-2.642426,-0.097362,-0.410437,-0.47642700000000004,0.097209,0.8738239999999999,-0.002848,0.000545,0.006204,7.8e-05,-0.006998999999999999,-0.0053549999999999995
303,-2.642447,-0.097187,-0.41061000000000003,-0.47641700000000003,0.09703400000000001,0.873849,-0.003934,-0.000529,0.009401999999999999,0.003348,-0.005007999999999999,-0.0047539999999999995
304,-2.6424830000000004,-0.097092,-0.410854,-0.47639,0.09694,0.8738739999999999,-0.008202,-0.0005139999999999999,0.009372,0.002742,-0.0007639999999999999,-0.003985
305,-2.642536,-0.09715800000000001,-0.41100699999999996,-0.47634,0.097005,0.8738940000000001,-0.007148999999999999,-0.01114,0.0019149999999999998,-0.000985,0.0031379999999999997,-0.0063549999999999995
306,-2.6428599999999998,-0.097098,-0.410969,-0.47606000000000004,0.096946,0.8740530000000001,-0.003944,-0.020696,-0.008732,0.001023,0.0038840000000000003,-0.002898
307,-2.643322,-0.097063,-0.410733,-0.475657,0.096911,0.874276,0.000348,-0.02175,-0.01511,0.002986,0.005033,-0.000481
308,-2.643775,-0.097136,-0.410369,-0.475259,0.096983,0.8744850000000001,0.0046240000000000005,-0.016390000000000002,-0.019325,0.00657,0.001268,-0.0055119999999999995
309,-2.644231,-0.097094,-0.410001,-0.474861,0.096941,0.874705,0.0056630000000000005,-0.021724,-0.018243000000000002,0.006157,0.002287,-0.002986
310,-2.644634,-0.097014,-0.409738,-0.474513,0.096862,0.8749030000000001,0.0014,-0.012157,-0.009739,0.006663,-9.1e-05,0.000921
311,-2.6449279999999997,-0.096977,-0.409602,-0.474257,0.096825,0.8750459999999999,0.000357,-0.004705,-0.007619,0.003783,0.00037400000000000004,-0.004837
312,-2.645093,-0.096885,-0.409508,-0.474117,0.096734,0.875132,-0.003949,-0.011090000000000001,-0.0055049999999999995,0.003643,0.000465,-0.004922999999999999
313,-2.645359,-0.096695,-0.40946,-0.473893,0.096545,0.875274,-0.008235,-0.016397,-0.006595999999999999,0.00116,-0.002261,-0.00447
314,-2.645581,-0.096263,-0.409353,-0.47371800000000003,0.09611499999999999,0.875416,-0.005026,-0.018521,-0.010844,-0.0049960000000000004,-0.005416,-0.001301
315,-2.645679,-0.095935,-0.40921599999999997,-0.47364799999999996,0.095788,0.87549,-0.003921,-0.0068189999999999995,-0.007647,-0.005661,-0.007073,-0.003922999999999999
316,-2.645416,-0.095748,-0.409152,-0.473886,0.09560199999999999,0.875381,0.001425,0.010213,-0.000123,-0.006323,-0.007223,-0.003906
317,-2.644488,-0.095635,-0.409074,-0.474704,0.095489,0.87495,0.006778,0.01658,0.002042,-0.005155,-0.002151,-0.005779
318,-2.6440360000000003,-0.095759,-0.409013,-0.47509300000000004,0.095613,0.874725,0.009988,0.015517,-0.001139,-0.002659,-0.0007639999999999999,-0.004654
319,-2.643752,-0.095979,-0.408846,-0.47533100000000006,0.095832,0.8745719999999999,0.01316,0.005932,-0.004309,-0.001155,0.000863,-0.005111
320,-2.643828,-0.096573,-0.40860799999999997,-0.475238,0.09642300000000001,0.874558,0.013156999999999999,-0.0015,-0.010708,0.009509,0.007703,-0.003113
321,-2.644127,-0.09679299999999999,-0.408306,-0.474966,0.09664099999999999,0.8746809999999999,0.009937,-0.007872,-0.012859,0.012747,0.006142,-0.001314
322,-2.644619,-0.096862,-0.407976,-0.474533,0.09671,0.874909,0.002436,-0.020609,-0.018236000000000002,0.011627,0.00441,-0.004181
323,-2.6457040000000003,-0.096689,-0.40774299999999997,-0.473591,0.096538,0.8754379999999999,-0.008323,-0.039751999999999996,-0.017218,0.013309999999999999,0.00044699999999999997,-0.003475
324,-2.646703,-0.096231,-0.40763299999999997,-0.47273699999999996,0.096082,0.87595,-0.011590999999999999,-0.047228,-0.009754,0.005711,-0.006634999999999999,-0.003147
325,-2.647496,-0.095486,-0.40770300000000004,-0.472076,0.095341,0.876387,-0.007364,-0.033427,0.004178,-0.0015869999999999999,-0.015216999999999998,-0.001936
326,-2.647643,-0.094835,-0.407983,-0.47197700000000004,0.094693,0.876511,-0.000898,-0.001559,0.021273,-0.005409000000000001,-0.016553000000000002,0.0023350000000000003
327,-2.6471299999999998,-0.094952,-0.408367,-0.472421,0.094809,0.876259,0.007751000000000001,0.030344,0.027701999999999997,-0.007529000000000001,-0.009833,-0.000877
328,-2.645844,-0.095318,-0.408652,-0.47353100000000004,0.095174,0.8756200000000001,0.015276,0.040982,0.025604000000000002,-0.005763,0.002223,-0.0075780000000000005
329,-2.644704,-0.09603300000000001,-0.4088,-0.47449600000000003,0.095885,0.87502,0.016397,0.041026,0.013861000000000002,-0.0032869999999999996,0.006684000000000001,-0.006595999999999999
330,-2.643815,-0.096573,-0.408754,-0.475249,0.09642300000000001,0.874552,0.013244999999999998,0.037897,-4.3e-05,-0.001771,0.010587000000000001,-0.005838
331,-2.6430689999999997,-0.097302,-0.408495,-0.475868,0.097149,0.874135,0.007922,0.026254000000000003,-0.013951,0.003257,0.015522,-0.005391
332,-2.642891,-0.097986,-0.40812800000000005,-0.475992,0.097829,0.873992,-0.000666,0.011434,-0.023582,0.008325,0.019083000000000003,-0.004882
333,-2.642947,-0.098058,-0.40765100000000004,-0.47593900000000006,0.097901,0.8740120000000001,-0.007084999999999999,-0.0023539999999999998,-0.033222,0.010759999999999999,0.019835,-0.0045049999999999995
334,-2.6437060000000003,-0.098249,-0.407105,-0.475267,0.098091,0.8743559999999999,-0.011379,-0.017221,-0.041777,0.016893000000000002,0.015144,0.0034049999999999996
335,-2.645045,-0.097929,-0.406507,-0.47411000000000003,0.097773,0.87502,-0.016789,-0.040615,-0.048193,0.017994,0.006109000000000001,0.002238
336,-2.646573,-0.09722,-0.405942,-0.47280600000000006,0.097067,0.8758040000000001,-0.015775,-0.045974,-0.04177,0.014691,-0.001974,0.005162
337,-2.6478509999999997,-0.096243,-0.405579,-0.47173100000000007,0.096094,0.876491,-0.014713999999999998,-0.031129,-0.025758,0.012731000000000001,-0.01153,0.002904
338,-2.648638,-0.095218,-0.405486,-0.471087,0.095075,0.876948,-0.010454000000000001,-0.013113,-0.006525,0.007081999999999999,-0.017484,0.001058
339,-2.648873,-0.094417,-0.405638,-0.47091700000000003,0.094276,0.877125,-0.008328,0.000668,0.008426000000000001,0.006089,-0.018074,-0.00385
340,-2.648782,-0.09350499999999999,-0.40595,-0.471037,0.09336900000000001,0.877158,-0.007334,0.002782,0.017,-0.003191,-0.023972,-0.001075
341,-2.648352,-0.092423,-0.406351,-0.471462,0.092291,0.877044,9.6e-05,0.008033,0.029861000000000002,-0.009159,-0.034201,-0.003829
342,-2.647383,-0.091644,-0.406945,-0.47234499999999996,0.091516,0.87665,0.014,0.034546,0.048082,-0.014273,-0.029976999999999997,-0.005037
343,-2.6456020000000002,-0.091852,-0.407658,-0.473897,0.091723,0.87579,0.02259,0.057913,0.058793,-0.019633,-0.012376999999999999,-0.011578
344,-2.6434729999999997,-0.092754,-0.408331,-0.475721,0.09262100000000001,0.874706,0.025838,0.065375,0.055601,-0.016299,0.0008539999999999999,-0.014385
345,-2.641714,-0.094084,-0.408946,-0.477199,0.093945,0.8737590000000001,0.027906,0.049395999999999995,0.054568,-0.006000999999999999,0.007541,-0.018046
346,-2.640504,-0.095584,-0.409606,-0.478188,0.095438,0.873057,0.019349,0.037735000000000005,0.048115,-0.003059,0.016577,-0.012796
347,-2.640029,-0.097178,-0.41013599999999995,-0.478529,0.097026,0.8726950000000001,0.012912999999999999,0.014381999999999999,0.033147,0.005933,0.024999,-0.009551
348,-2.639739,-0.09767999999999999,-0.410504,-0.478758,0.097525,0.8725129999999999,0.01296,0.022969,0.023544,0.014081999999999999,0.026957,-0.0021219999999999998
349,-2.639078,-0.09871100000000001,-0.410684,-0.479286,0.098551,0.872108,0.009007,0.074188,0.005293,0.016228,0.035086,0.009224
350,-2.637454,-0.098688,-0.41040699999999997,-0.480703,0.09852799999999999,0.8713299999999999,0.0026920000000000004,0.065799,-0.022515,0.019659,0.033216,8e-06
351,-2.637818,-0.098303,-0.409908,-0.480404,0.09814500000000001,0.871539,-0.007509,-0.074752,-0.029883,0.019954,0.029891,-0.010714
352,-2.6399880000000002,-0.09834,-0.409742,-0.47851000000000005,0.098182,0.872576,-0.022635,-0.096091,-0.008596,-0.002188,-0.024116,0.000608
353,-2.640534,-0.097866,-0.41009700000000004,-0.47805600000000004,0.097709,0.872878,-0.030767000000000003,0.010398000000000001,0.008302,-0.004336,-0.046058,0.010713
354,-2.640641,-0.096648,-0.41062600000000005,-0.47801899999999997,0.096498,0.873033,-0.023422,-0.009895000000000001,0.014787,0.010643000000000001,-0.024583,0.001037
355,-2.641614,-0.096502,-0.41093199999999996,-0.47717600000000004,0.096353,0.87351,-0.007601,-0.061041,0.004281,0.012012,-0.021721999999999998,-0.002538
356,-2.6431299999999998,-0.096025,-0.410886,-0.47587299999999993,0.09587799999999999,0.8742719999999999,-0.005383,-0.049253,-0.011715,0.016568,-0.009986,0.004863
357,-2.643318,-0.09587799999999999,-0.41061899999999996,-0.47571599999999997,0.095731,0.874374,0.004529999999999999,0.015711000000000003,-0.016002000000000002,0.008202,-0.005826,0.009095
358,-2.64193,-0.096122,-0.41018699999999997,-0.476918,0.095974,0.873693,0.03047,0.097618,-0.008448,-0.003978,-0.003003,0.003276
359,-2.639294,-0.096736,-0.409818,-0.47918999999999995,0.096586,0.872381,0.034815,0.12738,0.0043630000000000006,-0.000851,0.0017879999999999999,-0.012151
360,-2.637268,-0.097289,-0.40964799999999996,-0.48093100000000005,0.097136,0.871361,0.023916,0.075223,0.003286,-0.010387,0.011705,-0.016106
361,-2.63548,-0.098243,-0.409275,-0.482443,0.098085,0.870418,0.015101,-0.000324,-0.009497,-0.018228,0.012389,-0.015178
362,-2.6361310000000002,-0.098274,-0.408954,-0.481875,0.098115,0.8707290000000001,0.0042450000000000005,-0.048198000000000005,-0.015921,-0.019223,0.009032,-0.012331
363,-2.636757,-0.09813,-0.40865,-0.481337,0.097973,0.871043,-0.003247,-0.051375,-0.013833000000000002,-0.014528,0.0006450000000000001,-0.007365000000000001
364,-2.6369830000000003,-0.09788200000000001,-0.408502,-0.481151,0.097726,0.871173,-0.004305,-0.035387,-0.007435,-0.008168,-0.001214,-0.00185
365,-2.6371450000000003,-0.09793500000000001,-0.408302,-0.481008,0.09777899999999999,0.871246,0.005336,-0.031141000000000002,-0.011645,-0.002878,0.002991,-0.011643
366,-2.63767,-0.09813200000000001,-0.407939,-0.480541,0.097974,0.871482,0.011747,-0.033276,-0.015871,-0.0007509999999999999,0.005023,-0.009773
367,-2.638197,-0.098724,-0.407562,-0.480054,0.098564,0.871684,0.006458,-0.02367,-0.015919,0.0040409999999999995,0.010933,-0.004787
368,-2.639034,-0.09913200000000001,-0.40725500000000003,-0.47930500000000004,0.09897,0.87205,0.005392,-0.023668,-0.015925,0.007670999999999999,0.009963,0.004947999999999999
369,-2.640053,-0.09944299999999999,-0.407061,-0.478401,0.09927899999999999,0.8725120000000001,0.00103,-0.037531999999999996,-0.008459999999999999,0.015892,0.013834,0.004136
370,-2.641999,-0.09991599999999999,-0.40713,-0.47668,0.09975,0.8733989999999999,-0.008675,-0.055633,-0.0031620000000000003,0.022059,0.010647,-0.002016
371,-2.644228,-0.099923,-0.407428,-0.474731,0.099756,0.874459,-0.024735,-0.059876,0.005278,0.022369,0.004141,-0.0017629999999999998
372,-2.646284,-0.099324,-0.408027,-0.47296099999999996,0.099161,0.8754860000000001,-0.031223,-0.065238,0.019127,0.030577999999999998,-0.009454,0.003207
373,-2.649233,-0.09818500000000001,-0.40889200000000003,-0.47043,0.098027,0.876976,-0.029179000000000004,-0.068439,0.02665,0.026445,-0.018361000000000002,0.008048999999999999
374,-2.6512279999999997,-0.09729,-0.40965,-0.468721,0.097136,0.8779899999999999,-0.015174000000000002,-0.037598,0.026706999999999998,0.012391,-0.016615,0.008454999999999999
375,-2.651779,-0.096953,-0.410137,-0.46825200000000006,0.096801,0.8782760000000001,-0.005372,-0.001379,0.018183,0.007894,-0.015823,0.004521
376,-2.651177,-0.096221,-0.41025,-0.468814,0.096073,0.878056,0.009762999999999999,0.031639999999999995,0.006494,-0.007977,-0.018940000000000002,-0.003926
377,-2.6494880000000003,-0.095527,-0.41008500000000003,-0.47032799999999997,0.09538200000000001,0.8773219999999999,0.02051,0.047593,0.00441,-0.014352,-0.022613,-0.014621
378,-2.647873,-0.095699,-0.40985,-0.471736,0.095553,0.876547,0.024815,0.051859,0.000162,-0.017064,-0.011996,-0.019461000000000003
379,-2.6457,-0.096105,-0.409467,-0.473621,0.095957,0.8754860000000001,0.031181999999999998,0.045445,0.001282,-0.016109000000000002,-0.000941,-0.020383000000000002
380,-2.643954,-0.097058,-0.409115,-0.47510600000000003,0.09690499999999999,0.874577,0.031056,0.027344999999999998,0.004529999999999999,-0.01342,0.011156999999999999,-0.009418000000000001
381,-2.643786,-0.09753200000000001,-0.408856,-0.475231,0.09737699999999999,0.8744559999999999,0.022406,-0.005619,-0.0029649999999999998,-0.008595,0.013218,-0.007894
382,-2.644171,-0.09819299999999999,-0.408537,-0.47486300000000004,0.098036,0.874583,0.012695999999999999,-0.037513,-0.010469,-0.0018679999999999999,0.017473,-0.005961
383,-2.645264,-0.098995,-0.408248,-0.473869,0.098834,0.8750319999999999,-0.000171,-0.058748,-0.01694,0.006889,0.017377,-0.0036479999999999998
384,-2.647034,-0.09930399999999999,-0.408065,-0.47230500000000003,0.09914099999999999,0.875842,-0.009771,-0.058716,-0.017006,0.015487,0.009593,0.000989
385,-2.649239,-0.09930900000000001,-0.408024,-0.470372,0.099146,0.8768809999999999,-0.006589,-0.054504,-0.008442,0.025472,0.003851,0.00465
386,-2.651275,-0.099366,-0.408088,-0.46858299999999997,0.099203,0.877832,-0.006541,-0.040673,-0.005254,0.022096,0.004847,0.0073
387,-2.652617,-0.099455,-0.408075,-0.467401,0.09929099999999999,0.878452,-0.00432,-0.024691,-0.008463,0.013666,0.004866,0.005871
388,-2.65342,-0.09948,-0.407977,-0.46669399999999994,0.099316,0.878825,-0.004252000000000001,-0.004425,-0.011675,0.012043,0.004902,0.005651
389,-2.6535290000000002,-0.099467,-0.407787,-0.466599,0.099303,0.878877,-0.001983,0.020087999999999998,-0.017032,0.008805,0.003739,0.001449
390,-2.653086,-0.099362,-0.407448,-0.46699300000000005,0.099199,0.8786799999999999,-0.002959,0.033964999999999995,-0.023465,0.00485,0.0032479999999999996,-0.00044500000000000003
391,-2.652364,-0.099115,-0.407042,-0.467639,0.098953,0.8783629999999999,-0.0018579999999999998,0.040357,-0.024534,0.004001,0.000489,-0.003196
392,-2.6514279999999997,-0.098888,-0.406684,-0.468471,0.098727,0.8779450000000001,0.001309,0.040317,-0.017034,-0.001057,-0.001971,-0.003952000000000001
393,-2.65044,-0.09877999999999999,-0.406465,-0.469344,0.09862,0.877491,0.003418,0.046654,-0.0052770000000000004,-0.0017109999999999998,-0.003145,-0.0036200000000000004
394,-2.6489979999999997,-0.09841,-0.406432,-0.47062600000000004,0.09825199999999999,0.8768459999999999,0.001235,0.048743,0.007523,-0.003618,-0.008376999999999999,-0.009444
395,-2.647784,-0.098212,-0.40669299999999997,-0.471699,0.098054,0.8762909999999999,-0.004177,0.044451,0.020308,-0.0032920000000000002,-0.007873999999999999,-0.007515999999999999
396,-2.64652,-0.098162,-0.407121,-0.472808,0.098004,0.875698,-2.6000000000000002e-05,0.033757999999999996,0.027839,-0.014740999999999999,-0.0066040000000000005,-0.005795000000000001
397,-2.645363,-0.098234,-0.407551,-0.473818,0.098077,0.875144,0.004246,0.034811,0.027867000000000003,-0.011807999999999999,-0.007943,-0.004554
398,-2.644099,-0.098273,-0.407879,-0.474922,0.098115,0.874541,0.009656,0.045472000000000005,0.021481,-0.010231,-0.010041,-0.007461
399,-2.642461,-0.098352,-0.40789899999999996,-0.47635,0.09819299999999999,0.873756,0.018305000000000002,0.057218,0.007639,-0.012754999999999999,-0.009004999999999999,-0.007102
400,-2.6406240000000003,-0.09852799999999999,-0.407638,-0.477946,0.098368,0.872864,0.023719999999999998,0.064702,-0.003016,-0.009008,-0.005534000000000001,-0.00975
401,-2.639015,-0.098888,-0.407209,-0.479333,0.098727,0.8720629999999999,0.025814999999999998,0.049808,-0.009391,-0.004691,-0.00014,-0.012978
402,-2.637988,-0.099509,-0.406775,-0.48019799999999996,0.099344,0.871516,0.021458,0.027462,-0.011529000000000001,0.000828,0.009725,-0.01031
403,-2.6376720000000002,-0.100143,-0.40633600000000003,-0.480444,0.099976,0.871309,0.016000999999999998,-0.002338,-0.013665,0.004308,0.009429,-0.010773999999999999
404,-2.6381799999999997,-0.100613,-0.405978,-0.47997799999999996,0.100444,0.8715120000000001,0.007268999999999999,-0.038518000000000004,-0.013666,0.0064670000000000005,0.008748,-0.00707
405,-2.639284,-0.100709,-0.405778,-0.47901099999999996,0.100539,0.8720319999999999,-0.0035240000000000002,-0.061934,-0.009438,0.0051649999999999995,0.00847,-0.006476999999999999
406,-2.640688,-0.1006,-0.405816,-0.477792,0.10042999999999999,0.872714,-0.015326,-0.068319,-0.000967,0.004586,0.006885,-0.004778
407,-2.642456,-0.100111,-0.40608299999999997,-0.476271,0.099944,0.8736,-0.023823,-0.058707,2.9999999999999997e-05,0.013274000000000001,-0.005248,0.001614
408,-2.643509,-0.099613,-0.406319,-0.47537399999999996,0.09944800000000001,0.8741450000000001,-0.028027999999999997,-0.049088,-0.004285,0.012376999999999999,-0.004752,0.0010689999999999999
409,-2.64527,-0.098767,-0.40654,-0.47387399999999996,0.098607,0.8750540000000001,-0.028010000000000004,-0.050135,-0.009625,0.016888999999999998,-0.0047799999999999995,0.002921
410,-2.647139,-0.098069,-0.406669,-0.472271,0.097912,0.875999,-0.023758,-0.054409000000000006,-0.010657999999999999,0.01762,-0.006115,-0.00035800000000000003
411,-2.64859,-0.09754299999999999,-0.406717,-0.47102299999999997,0.097389,0.8767290000000001,-0.01629,-0.051253,-0.007405,0.017562,-0.006004,-0.0015
412,-2.6495849999999996,-0.097107,-0.406814,-0.470171,0.096955,0.8772340000000001,-0.012991999999999998,-0.016117,-0.002078,0.011629,-0.003952000000000001,0.004953
413,-2.650003,-0.096944,-0.406914,-0.469812,0.09679299999999999,0.877444,-0.005409000000000001,0.010483,-0.00099,0.006326,0.002023,0.005674
414,-2.6499200000000003,-0.097044,-0.407005,-0.46988,0.09689199999999999,0.877397,-0.004375,0.008327,0.004361,0.006638,0.006104999999999999,-0.000199
415,-2.650019,-0.097203,-0.40720100000000004,-0.469786,0.09705,0.8774290000000001,-0.007599,0.007254999999999999,0.008612999999999999,0.005614,0.003154,-0.005405
416,-2.649546,-0.097366,-0.407481,-0.470193,0.097212,0.877193,-0.004335,0.02852,0.016087,-0.001441,0.00255,-0.0052450000000000005
417,-2.6486419999999997,-0.09756799999999999,-0.407816,-0.47097700000000003,0.097414,0.87675,0.0042380000000000004,0.043379,0.022537,-0.005051,0.000304,-0.000789
418,-2.647642,-0.097815,-0.408117,-0.471842,0.09765900000000001,0.876258,0.008448,0.031643,0.023649,-0.003668,-0.004992,-0.004264
419,-2.6469240000000003,-0.097898,-0.40844899999999995,-0.472467,0.097742,0.8759120000000001,0.003084,0.023149,0.021486,0.00011499999999999999,-0.006326,-0.013271999999999999
420,-2.646286,-0.098012,-0.408752,-0.47302,0.097855,0.8756,-0.006494,0.021083,0.013944,-0.002581,-0.0016179999999999999,-0.015066
421,-2.64549,-0.098013,-0.408997,-0.473717,0.097856,0.875224,-0.012985,0.006243,0.009654000000000001,-0.008858,0.0019210000000000002,-0.010493
422,-2.645464,-0.09793400000000001,-0.409271,-0.473743,0.097778,0.875218,-0.019572,-0.0374,0.007528,-0.0060079999999999995,0.002045,-0.009602
423,-2.64645,-0.097577,-0.409542,-0.472897,0.097423,0.8757149999999999,-0.019702,-0.06828300000000001,0.00543,-0.006488,-0.003322,-0.012281
424,-2.647168,-0.09713200000000001,-0.409796,-0.472288,0.09698,0.876093,-0.025998,-0.044824,0.0053560000000000005,-0.009264,-0.001444,-0.00503
425,-2.647503,-0.096725,-0.410208,-0.47201400000000004,0.09657400000000001,0.876286,-0.024859,-0.020359,0.013878,-0.004961,-0.000245,0.001354
426,-2.64816,-0.096524,-0.41072600000000004,-0.471447,0.096374,0.8766120000000001,-0.016415,-0.035324,0.019296999999999998,-4e-06,-0.00151,0.0013779999999999999
427,-2.648719,-0.09678099999999999,-0.411077,-0.47094600000000003,0.09663,0.8768540000000001,-0.007836,-0.032132,0.012943999999999999,-0.005831,0.0064730000000000005,-0.0071790000000000005
428,-2.648717,-0.096885,-0.411267,-0.470942,0.096734,0.8768440000000001,-0.005522999999999999,0.00732,0.0054399999999999995,-0.0065969999999999996,0.004966,-0.006940999999999999
429,-2.648096,-0.096679,-0.411262,-0.471496,0.096528,0.876569,-0.012809000000000001,0.029789999999999997,-0.0128,0.000183,0.001265,-0.001997
430,-2.6475419999999996,-0.096486,-0.411016,-0.471991,0.096336,0.876324,-0.007369,0.039414,-0.026660000000000003,0.009222,0.0043560000000000005,-0.000805
431,-2.647328,-0.09641799999999999,-0.410405,-0.472181,0.09626900000000001,0.876229,0.000153,0.032006,-0.045826,0.015425,0.006179,0.002448
432,-2.647606,-0.096076,-0.409488,-0.47195299999999996,0.095928,0.876389,0.010865000000000001,0.029882,-0.057498,0.027693000000000002,-0.0035060000000000004,0.01184
433,-2.648482,-0.095278,-0.408342,-0.47122200000000003,0.095134,0.876869,0.020364,0.0011070000000000001,-0.063805,0.021544999999999998,-0.008052,0.0017170000000000002
434,-2.647745,-0.095577,-0.407181,-0.471854,0.095432,0.876497,0.025651,0.012718,-0.04135,-0.014108,0.013744999999999999,-0.007219
435,-2.646309,-0.096096,-0.406439,-0.47308900000000004,0.095948,0.875775,0.013769,0.008388,-0.012584999999999999,-0.027018,0.0071400000000000005,-0.014263
436,-2.644911,-0.096219,-0.406383,-0.47430600000000006,0.096071,0.875102,-0.007672,0.015849000000000002,0.008631999999999999,-0.019087,-0.0005200000000000001,-0.014247
437,-2.644604,-0.09549400000000001,-0.406832,-0.474608,0.095349,0.8750180000000001,-0.028231,-0.034201,0.022438,-0.008088,-0.018261000000000003,-0.011248000000000001
438,-2.645494,-0.094458,-0.407459,-0.473876,0.094318,0.875526,-0.025287,-0.092791,0.020396,-0.013900999999999998,-0.016513,-0.015815
439,-2.646684,-0.09407,-0.407767,-0.472851,0.093932,0.8761209999999999,-0.006964,-0.06191699999999999,0.009801,-0.024952000000000002,-0.016798,-0.0093
440,-2.646873,-0.094013,-0.40799,-0.472689,0.093874,0.876215,-0.0098,0.019055000000000002,0.009678,-0.0027140000000000003,-0.015153999999999999,-0.0035039999999999997
441,-2.646636,-0.093672,-0.408152,-0.47291099999999997,0.09353500000000001,0.876131,0.000891,0.014794,0.000144,0.021480000000000003,-0.007598000000000001,-0.0034659999999999995
442,-2.646902,-0.093665,-0.407844,-0.472679,0.093528,0.876258,0.009321,-0.033075,-0.024305,0.021415,0.00628,-0.00040300000000000004
443,-2.649012,-0.093973,-0.407213,-0.470815,0.093834,0.8772280000000001,0.012494,-0.05751900000000001,-0.04241,0.026737999999999998,0.011939,0.008652
444,-2.649994,-0.093864,-0.406263,-0.469958,0.093727,0.877698,0.019981,-0.046868,-0.044494,0.028658999999999997,0.009667,0.019824
445,-2.651354,-0.093911,-0.405486,-0.468762,0.093773,0.878333,0.020044,-0.01923,-0.030642000000000003,0.032238,0.001503,0.018975
446,-2.651447,-0.09407599999999999,-0.405033,-0.46867299999999995,0.093938,0.8783629999999999,0.014695,-0.000126,-0.008270999999999999,0.020141,0.001491,-0.00046399999999999995
447,-2.6513169999999997,-0.094243,-0.40504,-0.468779,0.094104,0.878288,0.003993,0.011553,0.010867,0.020247,0.001325,-0.000389
448,-2.651177,-0.095014,-0.405326,-0.468868,0.094871,0.878158,0.013605,0.02532,0.022668,0.005321,0.008355,-0.004242
449,-2.6507,-0.095913,-0.40563699999999997,-0.469246,0.09576599999999999,0.8778590000000001,0.008296,0.031726,0.023691,-9.9e-05,0.001768,-0.0027370000000000003
450,-2.649562,-0.096101,-0.406026,-0.470237,0.095954,0.877309,-0.004281,0.07865599999999999,0.020339,0.000571,-0.001883,-0.003468
451,-2.647256,-0.09592300000000001,-0.40660300000000005,-0.472267,0.095776,0.876237,-0.013658000000000002,0.13830599999999998,0.029810000000000003,0.002968,-0.009457,-0.000718
452,-2.643432,-0.096089,-0.40713299999999997,-0.47560600000000003,0.095941,0.874411,-0.005215999999999999,0.124447,0.029897000000000003,-0.01768,0.003653,-0.017172
453,-2.641048,-0.096274,-0.407377,-0.477682,0.096125,0.873258,-0.00324,0.06700700000000001,0.007552,-0.018733,0.003118,-0.01544
454,-2.639853,-0.096211,-0.407328,-0.47872700000000007,0.096063,0.872693,-0.00237,0.010597,-0.005188,-0.016390000000000002,-0.000482,-0.014903999999999999
455,-2.639704,-0.09601599999999999,-0.40719,-0.47886599999999996,0.09586900000000001,0.8726379999999999,-0.0035859999999999998,-0.024543000000000002,-0.007287999999999999,-0.012421,-0.0031260000000000003,-0.007784999999999999
456,-2.6398200000000003,-0.095778,-0.407168,-0.47877600000000003,0.095631,0.872713,-0.005787,-0.030958999999999997,0.00125,-0.00476,-0.002614,-0.005556
457,-2.6404970000000003,-0.095821,-0.407353,-0.47818299999999997,0.095674,0.873033,-0.000539,-0.03742,0.014113999999999998,0.010348999999999999,-0.0011,-0.004717
458,-2.6419759999999997,-0.096122,-0.407752,-0.47687799999999997,0.095974,0.873714,-0.002687,-0.035306,0.019437,0.016322,0.003453,-0.0016589999999999999
459,-2.643023,-0.096249,-0.408086,-0.47595600000000005,0.096101,0.8742030000000001,-0.011116,-0.023512,0.007613,0.017979,0.005386,0.000721
460,-2.6441470000000002,-0.096229,-0.408292,-0.474975,0.09608,0.8747379999999999,-0.011044,-0.012804,-0.002009,0.016753999999999998,0.0009960000000000001,-0.001508
461,-2.645117,-0.096013,-0.40838,-0.47413599999999995,0.09586499999999999,0.875217,-0.008901000000000001,-0.013866,-0.005197,0.012664,-0.000925,0.003124
462,-2.6457650000000004,-0.095613,-0.408404,-0.473587,0.095468,0.875558,-0.014279,-0.025558,-0.0073560000000000006,0.012253,-0.005044,0.0035159999999999996
463,-2.646183,-0.09505599999999999,-0.408464,-0.473246,0.094913,0.8758020000000001,-0.005692,-0.003259,0.003357,-0.0010279999999999998,-0.009295999999999999,0.005667
464,-2.646322,-0.094537,-0.40875500000000003,-0.47314799999999996,0.09439700000000001,0.8759110000000001,-0.012052,0.014837000000000001,0.011835,0.006778,-0.005758,-0.00027
465,-2.646188,-0.094618,-0.409141,-0.473261,0.09447699999999999,0.875841,-0.00787,0.002014,0.01829,0.000849,0.004308,-0.003924
466,-2.646027,-0.09500499999999999,-0.409535,-0.473384,0.094862,0.875733,-0.006783,0.006272,0.018292,-0.001027,0.007234999999999999,-0.003464
467,-2.645575,-0.095388,-0.409825,-0.473763,0.09524400000000001,0.8754870000000001,-0.006672,0.023346000000000002,0.010794,0.001962,0.007951,-0.001982
468,-2.645222,-0.095604,-0.40994899999999995,-0.474062,0.095459,0.875301,-0.002414,0.01593,0.002298,0.004046,0.008438,-0.003307
469,-2.6449689999999997,-0.09575,-0.41001000000000004,-0.47427700000000006,0.095603,0.8751690000000001,-0.002418,0.015926,0.0033659999999999996,0.004275999999999999,0.005837,-0.005372
470,-2.644418,-0.09568,-0.410179,-0.474763,0.09553400000000001,0.8749129999999999,-0.007772,0.018050999999999998,0.009734999999999999,0.000642,-0.002135,-0.002553
471,-2.6438599999999997,-0.095478,-0.410393,-0.47526,0.095333,0.8746649999999999,-0.009877,0.020207,0.005445,-0.002782,-0.0010949999999999998,-0.0048530000000000005
472,-2.643313,-0.09533,-0.410467,-0.475745,0.095186,0.874418,-0.002362,0.023407,-0.001984,0.0011359999999999999,-0.001146,-0.003904
473,-2.64276,-0.095354,-0.41035900000000003,-0.476228,0.095209,0.874152,-0.0013130000000000001,0.012777,-0.008373,-0.002731,0.001852,-0.006781999999999999
474,-2.642299,-0.095185,-0.41011899999999996,-0.476638,0.095041,0.8739469999999999,-0.001314,0.006412,-0.014774,-0.0031899999999999997,-0.00271,-0.007492
475,-2.642069,-0.094885,-0.40989,-0.47685299999999997,0.09474199999999999,0.873862,-0.004529,0.004289,-0.013725999999999999,0.001603,-0.002991,-0.004645000000000001
476,-2.6418880000000002,-0.094412,-0.40970500000000004,-0.47703199999999996,0.09427200000000001,0.873815,-0.00672,-0.006327,-0.013713,-0.002506,-0.0062439999999999996,-0.005117
477,-2.641957,-0.09387000000000001,-0.409453,-0.47699600000000003,0.09373300000000001,0.873893,0.000709,-0.015934999999999998,-0.014718,-0.003488,-0.008619,0.000375
478,-2.642152,-0.093448,-0.40921399999999997,-0.47684499999999996,0.093313,0.87402,0.005033,0.0021379999999999997,-0.00937,0.003167,-0.009267000000000001,0.0030399999999999997
479,-2.642109,-0.093309,-0.409059,-0.47688800000000003,0.093173,0.8740120000000001,0.010381,0.011681,-0.002936,0.004675,-0.005252000000000001,-0.000705
480,-2.641946,-0.09341100000000001,-0.408918,-0.47702700000000003,0.093275,0.873925,0.011433,0.009542,-0.0018579999999999998,0.003333,-0.004469,-0.000726
481,-2.6419759999999997,-0.09349600000000001,-0.408736,-0.476997,0.09336,0.873933,0.013552000000000002,0.002094,-0.0061070000000000004,0.0043100000000000005,-0.0020670000000000003,-0.0043490000000000004
482,-2.642232,-0.093623,-0.408427,-0.476768,0.093486,0.874044,0.013522999999999999,-0.008542000000000001,-0.010366,0.009147,-0.001537,-0.007116
483,-2.6423959999999997,-0.093955,-0.408071,-0.476609,0.093817,0.8740950000000001,0.013548,-0.009581000000000001,-0.016773,0.0005200000000000001,0.008126999999999999,-0.003474
484,-2.642736,-0.0944,-0.407551,-0.476292,0.09426,0.8742200000000001,0.011436,-0.012721,-0.026378,0.009983,0.009729,-0.000212
485,-2.6436900000000003,-0.094555,-0.407048,-0.475451,0.094414,0.874661,0.002868,-0.023333,-0.029627999999999998,0.017016,0.006386,0.0028870000000000002
486,-2.644562,-0.09466000000000001,-0.406612,-0.47468299999999997,0.094519,0.875067,0.000688,-0.026552999999999997,-0.022161,0.011594,0.007287999999999999,-0.00318
487,-2.6451849999999997,-0.094803,-0.406371,-0.474131,0.094661,0.875351,-0.00035,-0.009548000000000001,-0.011507,0.00677,0.006856,0.00035099999999999997
488,-2.6453849999999997,-0.09477100000000001,-0.40627800000000003,-0.47395699999999996,0.09462999999999999,0.875448,-0.00031099999999999997,0.008522,-0.001916,0.006108,-0.0017800000000000001,0.002405
489,-2.645311,-0.09450700000000001,-0.406426,-0.474034,0.09436599999999999,0.8754350000000001,-0.001374,0.021262,0.009811,0.008565000000000001,-0.008902,-0.001213
490,-2.645165,-0.09427100000000001,-0.40667600000000004,-0.47417200000000004,0.09413099999999999,0.8753850000000001,-0.004595,0.018072,0.01086,0.006993999999999999,-0.007126,-0.003849
491,-2.6448240000000003,-0.094013,-0.406858,-0.474483,0.093874,0.875245,-0.00462,0.008502,0.006599,-0.001423,-0.0058460000000000005,-0.009766
492,-2.644454,-0.093794,-0.406958,-0.474817,0.093657,0.8750870000000001,-0.0057399999999999994,-0.004249,0.0044859999999999995,-0.004416,-0.006483,-0.011104000000000001
493,-2.6442069999999998,-0.09357,-0.407077,-0.47504300000000005,0.093434,0.8749879999999999,-0.00685,-0.012768999999999999,0.005557,-0.008081,-0.005253,-0.012012
494,-2.644048,-0.093346,-0.40717600000000004,-0.475191,0.09321,0.8749319999999999,-0.013247,-0.018046,-0.000891,-0.015394,-0.001459,-0.0078049999999999994
495,-2.644501,-0.093047,-0.407136,-0.47480900000000004,0.092913,0.8751709999999999,-0.012156,-0.024394,-0.012625,-0.015777,-0.0011619999999999998,-0.008043999999999999
496,-2.644527,-0.092642,-0.406812,-0.474804,0.09250900000000001,0.875216,-0.008912,-0.027548000000000003,-0.025417,-0.007069,-0.001643,-0.009448
497,-2.645003,-0.092145,-0.406378,-0.474409,0.092014,0.875482,-0.008874,-0.024331000000000002,-0.030762,0.003157,-0.000172,-0.003732
498,-2.6454020000000003,-0.09173300000000001,-0.405888,-0.474078,0.09160399999999999,0.875705,-0.006731,-0.023268,-0.031817000000000005,0.002825,0.00023799999999999998,-0.003954999999999999
499,-2.64615,-0.091462,-0.405489,-0.473434,0.091334,0.876081,-0.012103000000000001,-0.026467,-0.026508999999999998,0.007675,0.0045520000000000005,-0.0012640000000000001
500,-2.646859,-0.091154,-0.405312,-0.472826,0.091028,0.876441,-0.017475,-0.024347999999999998,-0.015855,0.007586,0.002096,-0.0046
501,-2.647487,-0.090802,-0.405331,-0.47229099999999996,0.090677,0.8767659999999999,-0.018613,-0.030774,-0.006241,0.004228,0.002447,-0.003963
502,-2.648155,-0.090443,-0.40549,-0.47172,0.09032000000000001,0.8771100000000001,-0.021871,-0.03718,0.000154,0.0012,0.004193,-0.003026
503,-2.64907,-0.090309,-0.405724,-0.47092399999999995,0.090186,0.877552,-0.024047,-0.04676,0.000151,0.0019140000000000001,0.007241,-0.002582
504,-2.649971,-0.090048,-0.405901,-0.47014300000000003,0.089926,0.8779969999999999,-0.018688999999999997,-0.043574,-0.001952,-0.002787,0.005731,0.0021449999999999998
505,-2.650543,-0.08995700000000001,-0.405996,-0.469646,0.089835,0.878273,-0.0069099999999999995,-0.030844,0.0013189999999999999,-0.0038799999999999998,0.003457,3.9e-05
506,-2.6510540000000002,-0.08996799999999999,-0.406005,-0.469196,0.089847,0.878511,0.003754,-0.031945999999999995,0.001395,0.002689,-0.001468,-0.002382
507,-2.651881,-0.090013,-0.405985,-0.46846800000000005,0.089891,0.8788959999999999,0.009059000000000001,-0.037295,0.002507,0.005531,-0.00403,-0.000646
508,-2.652806,-0.090159,-0.406019,-0.46764799999999995,0.090036,0.879317,0.013322,-0.032008,0.010017,0.009488,-0.006205,0.00345
509,-2.65447,-0.09038,-0.406192,-0.466174,0.090257,0.880077,0.013369999999999998,-0.020298,0.01107,0.017535,-0.000643,0.007495999999999999
510,-2.655188,-0.090893,-0.406319,-0.465521,0.090768,0.8803700000000001,0.015571000000000002,-0.0032719999999999997,0.013201,0.021338,0.005256,0.007798
511,-2.655563,-0.091494,-0.406499,-0.46516599999999997,0.091366,0.880496,0.014586000000000002,0.016962,0.015305000000000001,0.023607,0.00806,0.006299
512,-2.656524,-0.092706,-0.40675900000000004,-0.464267,0.092573,0.8808440000000001,0.012517,0.028691,0.013141,0.019747999999999998,0.011873,0.003708
513,-2.6562,-0.093291,-0.406893,-0.464527,0.09315599999999999,0.8806459999999999,0.007227,0.036174,0.010957999999999999,0.015766,0.012877000000000001,0.0016640000000000001
514,-2.655574,-0.093828,-0.40697,-0.465055,0.093691,0.88031,0.010495,0.046832,0.006695,0.01077,0.012846000000000002,0.002212
515,-2.654846,-0.094717,-0.407011,-0.465656,0.094575,0.8798969999999999,0.013755000000000002,0.060663999999999996,0.007769,0.007831999999999999,0.005415,-0.002075
516,-2.653663,-0.095067,-0.407083,-0.466681,0.094924,0.879317,0.010605,0.073446,0.010947,0.008002,-0.0008380000000000001,-0.005171
517,-2.65213,-0.095061,-0.40722600000000003,-0.468029,0.09491799999999999,0.8786010000000001,0.007422,0.07984,0.013053,0.005397,-0.012765,-0.008606
518,-2.650487,-0.09497,-0.4074,-0.469476,0.094827,0.8778379999999999,0.005268,0.075587,0.013043,-0.005393,-0.017480000000000002,-0.013000999999999999
519,-2.648402,-0.09424600000000001,-0.40741,-0.471337,0.094106,0.876918,0.005175,0.047923,0.005598,-0.015493999999999999,-0.020712,-0.015788
520,-2.646474,-0.093415,-0.40729,-0.47306400000000004,0.093279,0.8760760000000001,0.000814,0.022397999999999998,0.000258,-0.023762000000000002,-0.01961,-0.018974
521,-2.646122,-0.093382,-0.407296,-0.47337399999999996,0.09324600000000001,0.8759120000000001,-0.001344,0.016018,-0.000817,-0.034102999999999994,-0.017105000000000002,-0.019543
522,-2.64584,-0.09338400000000001,-0.407301,-0.473621,0.093248,0.8757780000000001,0.0018329999999999998,0.011742,0.000279,-0.034756,-0.009569,-0.020386
523,-2.644664,-0.093279,-0.4071,-0.474655,0.093144,0.87523,0.007123999999999999,-0.004226,-0.006074,-0.032684,0.003856,-0.023072
524,-2.6444970000000003,-0.093546,-0.40671999999999997,-0.474789,0.09341,0.875128,0.007045,-0.037193000000000004,-0.019903999999999998,-0.020145,0.011006,-0.016944
525,-2.645437,-0.093597,-0.40612800000000004,-0.47396499999999997,0.09346,0.8755700000000001,0.0005009999999999999,-0.085043,-0.035911,-0.009525,0.010727,-0.014959
526,-2.647659,-0.093825,-0.405393,-0.472008,0.093687,0.876602,-0.0070799999999999995,-0.12331500000000001,-0.048733,0.006218,0.008302,-0.000976
527,-2.6506529999999997,-0.093375,-0.404624,-0.469401,0.09324,0.8780479999999999,-0.008185,-0.13183499999999998,-0.048729,0.011042,0.001884,0.000537
528,-2.653167,-0.092817,-0.40399,-0.46721599999999996,0.092683,0.8792719999999999,-0.010352,-0.12549100000000002,-0.034865,0.0158,-0.001405,0.0034189999999999997
529,-2.656029,-0.09224700000000001,-0.403723,-0.464722,0.092116,0.880652,-0.016725,-0.103164,-0.018915,0.026292000000000003,-0.004393,0.008295
530,-2.6578939999999998,-0.09182799999999999,-0.403702,-0.46309700000000004,0.091699,0.881551,-0.017778,-0.08511,-0.00399,0.025155,-0.001718,0.017558
531,-2.659904,-0.09150900000000001,-0.403973,-0.461338,0.091382,0.8825059999999999,-0.014458000000000002,-0.045761,0.008801,0.025776,-0.001782,0.015153
532,-2.660086,-0.09147899999999999,-0.404327,-0.461179,0.091351,0.882592,-0.005672,0.017026,0.01842,0.021024,-0.001294,0.011939
533,-2.6595590000000002,-0.09158200000000001,-0.40474899999999997,-0.461639,0.091454,0.8823409999999999,0.001954,0.057458,0.023762000000000002,0.013031000000000001,-0.0032119999999999996,0.003173
534,-2.658344,-0.091905,-0.40513699999999997,-0.462697,0.091776,0.8817530000000001,0.009493999999999999,0.074472,0.024861,0.004079,0.000296,-0.0063869999999999994
535,-2.656717,-0.092494,-0.405397,-0.464106,0.092362,0.880951,0.008413,0.064914,0.018456999999999998,-0.00173,0.005431,-0.006958
536,-2.655665,-0.092963,-0.405543,-0.465013,0.092829,0.880424,0.000826,0.028761000000000002,0.008837000000000001,0.000672,0.0050409999999999995,-0.009254
537,-2.655332,-0.09329,-0.405632,-0.465291,0.093155,0.880242,-0.00565,0.003252,0.000279,0.0008900000000000001,0.007187000000000001,-0.008598999999999999
538,-2.6552279999999997,-0.093314,-0.40560100000000004,-0.46538199999999996,0.093179,0.880192,-0.004564,0.002204,-0.005053,0.001789,0.003714,-0.005222
539,-2.654877,-0.093377,-0.40554,-0.465688,0.09324099999999999,0.880023,-0.004535,0.01178,-0.00186,-0.001857,0.002202,-0.004565
540,-2.654732,-0.093321,-0.405594,-0.465818,0.093185,0.8799600000000001,-0.004587,0.004306,0.0024219999999999997,-0.002459,-0.000488,-0.006135
541,-2.654277,-0.093066,-0.405634,-0.466229,0.092932,0.879769,-0.004567,0.004333,0.001381,-0.005679,-0.0056359999999999995,-0.003747
542,-2.653813,-0.092691,-0.405623,-0.466654,0.092558,0.879584,-0.0066489999999999995,0.009693,-0.00505,-0.004217,-0.004652,-0.003439
543,-2.653787,-0.092513,-0.405537,-0.466684,0.09238099999999999,0.8795860000000001,-0.005649,-0.008407,-0.008223999999999999,0.000223,-0.002964,-0.004311
544,-2.6540060000000003,-0.092075,-0.4054,-0.46651099999999995,0.091945,0.879724,-0.0025210000000000002,-0.024397,-0.008183,0.0004,-0.006633,-0.010064
545,-2.654146,-0.091738,-0.40529299999999996,-0.46640200000000004,0.09161,0.8798159999999999,-0.002507,-0.018017,-0.004986,-0.0008990000000000001,-0.005169,-0.008402
546,-2.6543099999999997,-0.091576,-0.40527399999999997,-0.466265,0.091448,0.879906,-0.00036,-0.009523,0.000359,-0.0010199999999999999,-0.005861,-0.004784
547,-2.654139,-0.09139800000000001,-0.405289,-0.466423,0.09127,0.879841,0.000721,-0.004208,0.002495,-0.005593,-0.003822,-0.004383
548,-2.653901,-0.091379,-0.405225,-0.466633,0.091252,0.8797309999999999,0.0039829999999999996,9e-05,-0.0038740000000000003,-0.004574,0.0003,-0.00229
549,-2.6539919999999997,-0.091472,-0.405035,-0.466549,0.09134500000000001,0.8797659999999999,0.006117,-0.0062829999999999995,-0.01026,0.004894,0.002802,-0.003088
550,-2.654705,-0.09170199999999999,-0.404767,-0.465912,0.091573,0.88008,0.006065,-0.022247,-0.014512,0.013138,0.003915999999999999,-0.002944
551,-2.655319,-0.091897,-0.404489,-0.465363,0.091767,0.88035,0.007123,-0.021197999999999998,-0.011301,0.004227000000000001,0.003936,-0.002268
552,-2.6559470000000003,-0.09188400000000001,-0.404318,-0.464811,0.09175499999999999,0.8806430000000001,-0.0024649999999999997,-0.013725999999999999,-0.007104000000000001,0.012784,0.001797,0.002475
553,-2.656834,-0.091654,-0.404562,-0.46403900000000003,0.091526,0.881074,-0.012081,0.002208,0.012036,0.014575999999999999,-0.002231,0.004164999999999999
554,-2.6569279999999997,-0.091539,-0.405069,-0.46396099999999996,0.09141200000000001,0.881127,-0.011962,0.040507999999999995,0.023738,0.012865999999999999,-0.001629,0.0046159999999999994
555,-2.655998,-0.091713,-0.40566399999999997,-0.46477299999999994,0.091584,0.8806809999999999,-0.008694,0.05859400000000001,0.026943,0.006872,0.004562,-0.002781
556,-2.655536,-0.092188,-0.40618899999999997,-0.465159,0.092058,0.8804280000000001,-0.009833,0.032010000000000004,0.019517,0.015482,0.0075060000000000005,-0.0052439999999999995
557,-2.655771,-0.09240599999999999,-0.406516,-0.46494300000000005,0.092274,0.880519,-0.0024649999999999997,0.001124,0.011063,0.001457,-0.000462,0.00121
558,-2.655415,-0.092346,-0.406719,-0.46525900000000003,0.09221499999999999,0.880358,-0.001283,0.029869999999999997,0.014238999999999998,-0.005047,-0.005331,0.002668
559,-2.654095,-0.092326,-0.407035,-0.46642100000000003,0.092195,0.8797450000000001,0.0052759999999999994,0.072429,0.021707,-0.0077,-0.009203,0.0023350000000000003
560,-2.6515560000000002,-0.092203,-0.407276,-0.468659,0.092072,0.878568,0.006340999999999999,0.071368,0.020647,-0.0063159999999999996,-0.007691,-0.01341
561,-2.649946,-0.092237,-0.40755399999999997,-0.470071,0.092106,0.8778100000000001,0.003073,0.055406,0.019576,-0.001303,-0.006275,-0.012987
562,-2.649003,-0.092172,-0.407844,-0.47090200000000004,0.092041,0.8773709999999999,-0.004511,0.023500999999999998,0.013153999999999999,0.00058,-0.00586,-0.011937999999999999
563,-2.64875,-0.09211799999999999,-0.40808,-0.47112600000000004,0.091988,0.8772559999999999,-0.006712,0.004351,0.00889,0.002513,-5.3e-05,-0.0029579999999999997
564,-2.648873,-0.092173,-0.408287,-0.471016,0.092043,0.87731,-0.002416,0.007568000000000001,0.008948000000000001,0.006966,0.0016460000000000001,-0.0007070000000000001
565,-2.649082,-0.09239299999999999,-0.408476,-0.47082299999999994,0.092262,0.87739,-0.0034579999999999997,0.010775,0.0068,0.010771,0.004357,-0.00048300000000000003
566,-2.6493849999999997,-0.092532,-0.408722,-0.470551,0.0924,0.8775219999999999,-0.01095,0.005473,0.006755,0.012268000000000001,0.005378,7.2e-05
567,-2.649707,-0.092693,-0.408976,-0.470261,0.09256,0.87766,-0.007773,0.003317,0.009984999999999999,0.009476,0.004837,-0.000661
568,-2.6498470000000003,-0.092913,-0.409249,-0.470129,0.092779,0.877708,-0.003486,0.011807,0.014278,0.004461,0.003732,0.000359
569,-2.64931,-0.093074,-0.409537,-0.47059300000000004,0.09294,0.877442,0.004069,0.036261,0.01964,-0.0025670000000000003,-0.001418,-0.0015869999999999999
570,-2.64827,-0.09337000000000001,-0.40979899999999997,-0.471492,0.093235,0.876928,0.008418,0.052234,0.017514,-0.0024920000000000003,-0.000263,-0.003225
571,-2.64693,-0.093679,-0.409864,-0.472653,0.093542,0.8762700000000001,0.012623,0.027763,0.0068920000000000006,-0.006534000000000001,0.0015660000000000001,-0.01192
572,-2.646091,-0.094058,-0.409546,-0.473371,0.09392,0.875842,0.01256,-0.012581,-0.016528,-0.015184999999999999,0.00511,-0.015277
573,-2.646188,-0.094163,-0.408815,-0.473282,0.094024,0.8758790000000001,0.017881,-0.035952,-0.036757,-0.016738999999999997,0.004472,-0.016779
574,-2.645972,-0.093997,-0.407666,-0.47347799999999995,0.093859,0.87579,0.025349,-0.05189,-0.052708000000000005,-0.007753,-0.002779,-0.010907
575,-2.646613,-0.093909,-0.40628400000000003,-0.472921,0.09377100000000001,0.876101,0.033912,-0.055076,-0.062258,-0.005167000000000001,-0.0005549999999999999,-0.0018329999999999998
576,-2.647752,-0.09375499999999999,-0.404968,-0.471929,0.09361699999999999,0.8766520000000001,0.02531,-0.06359400000000001,-0.055898,0.004476,-0.0039570000000000004,-0.001423
577,-2.64941,-0.093402,-0.403991,-0.470491,0.093267,0.8774620000000001,0.019916999999999997,-0.060445000000000006,-0.039917,0.007951,-0.005056000000000001,-0.000128
578,-2.6507959999999997,-0.09324400000000001,-0.403366,-0.46928100000000006,0.093109,0.8781260000000001,0.014625,-0.032804,-0.021830000000000002,0.01518,-0.00505,0.005724
579,-2.651826,-0.09338099999999999,-0.403181,-0.46837,0.09324500000000001,0.878598,0.01684,0.009698,0.0027,0.020647,-0.001403,0.012042
580,-2.652144,-0.09377100000000001,-0.403334,-0.46807299999999996,0.09363400000000001,0.8787149999999999,0.009484000000000001,0.042748,0.014391999999999999,0.024073,0.003046,0.005715
581,-2.651854,-0.094427,-0.40363699999999997,-0.4683,0.094286,0.878525,0.008437,0.052315,0.019714,0.015541,0.008436,0.0009460000000000001
582,-2.650905,-0.09511599999999999,-0.403905,-0.469103,0.094972,0.878022,0.007405,0.058713999999999995,0.018631,0.004808,0.006789,-0.004075
583,-2.649927,-0.095489,-0.403978,-0.469944,0.09534400000000001,0.877532,0.0031100000000000004,0.036423000000000004,0.002606,0.001209,0.010018,-0.006926000000000001
584,-2.650121,-0.095605,-0.4041,-0.46976899999999994,0.095459,0.8776129999999999,-0.008879000000000001,-0.019996,0.002595,0.008846,-0.0030670000000000003,-0.006412999999999999
585,-2.650787,-0.095338,-0.404325,-0.469196,0.095193,0.877948,-0.008976000000000001,-0.035996,0.007956,-0.000256,-0.009256,-0.007022
586,-2.65044,-0.09508,-0.404489,-0.469512,0.094937,0.877807,-0.000245,0.011897,0.012228,-0.015427000000000001,-0.006573000000000001,-0.001006
587,-2.648904,-0.095179,-0.404605,-0.47085600000000005,0.095036,0.877077,0.012734,0.055514,0.016535,-0.011231,-0.005543,-0.010759000000000001
588,-2.647971,-0.095303,-0.404823,-0.47166800000000003,0.095158,0.876626,-0.001235,0.02792,0.014365000000000001,0.001225,-0.005208,-0.010995
589,-2.647981,-0.095226,-0.405124,-0.471663,0.095082,0.8766379999999999,-0.006737999999999999,-0.011467,0.012241,0.005431,-0.0066879999999999995,-0.012105
590,-2.648432,-0.09500900000000001,-0.405389,-0.47127700000000006,0.09486599999999999,0.876868,-0.010990999999999999,-0.013562000000000001,0.006873000000000001,0.009104000000000001,-0.005496,-0.004935
591,-2.648487,-0.094958,-0.405531,-0.47123100000000007,0.094816,0.876899,0.001955,0.016229,0.004788000000000001,0.008142,-0.003629,-0.006217
592,-2.647836,-0.095223,-0.405591,-0.47179,0.095079,0.876569,-0.004364,0.031177999999999997,0.001521,0.000294,0.006743000000000001,-0.004194
593,-2.647744,-0.095346,-0.405634,-0.471865,0.095202,0.876516,-0.010961,-0.019902,-0.005937,0.004504,0.007139,-0.008184
594,-2.648719,-0.09528500000000001,-0.405488,-0.471013,0.095141,0.87698,-0.007947,-0.073129,-0.017598,-0.003565,0.009031,-0.009289
595,-2.650173,-0.09543099999999999,-0.40517800000000004,-0.46973100000000007,0.095287,0.8776520000000001,-0.004711,-0.068866,-0.020784999999999998,0.001149,0.008214,-0.0008820000000000001
596,-2.651414,-0.095402,-0.405018,-0.468642,0.09525800000000001,0.878237,-0.00458,-0.030537,-0.007993,0.009994,0.000644,0.00305
597,-2.651942,-0.095234,-0.405121,-0.46818699999999996,0.09509,0.878498,-0.006631999999999999,0.00031099999999999997,0.004772,0.015474000000000002,-0.0030489999999999996,0.003307
598,-2.6523529999999997,-0.095178,-0.405406,-0.46782799999999997,0.09503400000000001,0.8786950000000001,-0.008761,0.005626,0.009023999999999999,0.011956999999999999,0.0009130000000000001,0.000867
599,-2.65271,-0.095097,-0.405658,-0.46751800000000004,0.094954,0.878869,-0.013138999999999998,-0.023104,0.004757,0.0042,0.001085,-0.006173
600,-2.653546,-0.094877,-0.405839,-0.466793,0.094735,0.8792780000000001,-0.012134,-0.041201,0.0005139999999999999,0.005672,-0.001809,-0.006124
601,-2.654093,-0.094536,-0.405866,-0.46632700000000005,0.094395,0.8795620000000001,-0.010967,-0.025199,-0.005907,-0.002728,-0.003193,-0.004592000000000001
602,-2.65421,-0.094098,-0.40581100000000003,-0.466243,0.093959,0.879653,-0.005562,-0.008177,-0.004824,-0.0006450000000000001,-0.006572,-0.003386
603,-2.6541639999999997,-0.093885,-0.405764,-0.466293,0.093747,0.879649,-0.002318,0.000338,-0.00588,-0.001999,-0.004315,-0.005
604,-2.653486,-0.093782,-0.405417,-0.466894,0.093645,0.879341,0.007416,0.011028,-0.020766999999999997,-0.010157,0.000136,-0.011543000000000001
605,-2.652425,-0.093821,-0.40460799999999997,-0.46782399999999996,0.093684,0.878842,0.019281,0.018531,-0.042058,-0.003932,0.003286,-0.006055
606,-2.652125,-0.09386599999999999,-0.403594,-0.468087,0.09372799999999999,0.878698,0.017075999999999997,-0.001684,-0.04632,0.0019920000000000003,0.002677,-0.003698
607,-2.652618,-0.093524,-0.402846,-0.46766800000000003,0.093388,0.878957,0.0019760000000000003,-0.02512,-0.033576999999999996,0.012315999999999999,-0.00565,-0.0036520000000000003
608,-2.6533700000000002,-0.09312899999999999,-0.402563,-0.467025,0.09299400000000001,0.879341,-0.005582999999999999,-0.023053,-0.0112,0.006408,-0.0020210000000000002,-3.8e-05
609,-2.654049,-0.09300900000000001,-0.40265700000000004,-0.46643199999999996,0.092875,0.879668,-0.003493,-0.013550999999999999,0.008029999999999999,0.007540000000000001,-0.0003,0.004595
610,-2.6545970000000003,-0.093046,-0.402929,-0.465949,0.092912,0.87992,-0.008851000000000001,-0.015676,0.0112,0.012092,0.001067,-0.00109
611,-2.655513,-0.093043,-0.40331500000000003,-0.46514300000000003,0.092909,0.8803469999999999,-0.013175999999999998,-0.027385000000000003,0.012254000000000001,0.011148,0.001741,-0.0057740000000000005
612,-2.65611,-0.092933,-0.403619,-0.464621,0.0928,0.880633,-0.010984,-0.020967,0.008006999999999998,0.002707,0.001347,0.00015
613,-2.656195,-0.092754,-0.40379899999999996,-0.464555,0.09262100000000001,0.8806870000000001,-0.006606,0.001398,0.005872,-0.002669,-0.003037,0.002888
614,-2.655628,-0.092685,-0.403933,-0.465057,0.092552,0.8804299999999999,0.006296,0.029029000000000003,0.011268,-0.004639,-0.004065999999999999,-0.0032170000000000002
615,-2.654564,-0.09286599999999999,-0.404016,-0.46598500000000004,0.09273300000000001,0.879919,0.01064,0.046058999999999996,0.011276000000000001,-0.008929000000000001,-0.004461,-0.008520999999999999
616,-2.652949,-0.092972,-0.40401,-0.467401,0.092838,0.879157,0.010602,0.034357,0.008086,-0.003989,-0.003254,-0.010276
617,-2.6523220000000003,-0.093238,-0.403999,-0.467941,0.09310299999999999,0.878842,0.008357999999999999,0.005621,0.003834,-0.002029,6e-06,-0.008572
618,-2.6523939999999997,-0.09339700000000001,-0.403922,-0.467871,0.093261,0.878863,0.000842,-0.012431999999999999,-0.0036729999999999996,0.002294,0.001847,-0.003252
619,-2.652907,-0.093456,-0.403831,-0.467417,0.09332,0.8790969999999999,0.0008380000000000001,-0.016681,-0.006872,0.008219,0.002734,-0.00245
620,-2.653475,-0.093557,-0.403702,-0.466913,0.09342,0.8793549999999999,0.000865,-0.013472,-0.008999,0.007502,0.004785,0.0007570000000000001
621,-2.65403,-0.09364,-0.403546,-0.46642100000000003,0.093503,0.8796069999999999,0.0008560000000000001,-0.014543,-0.007929,0.008902,0.0037869999999999996,0.0016489999999999999
622,-2.65457,-0.09377100000000001,-0.403439,-0.465941,0.09363400000000001,0.879848,0.0019140000000000001,-0.013494999999999998,-0.004718,0.008284,0.0038090000000000003,0.0010119999999999999
623,-2.65501,-0.09383999999999999,-0.40339400000000003,-0.46555100000000005,0.093702,0.8800469999999999,0.002995,-0.006059,-0.000446,0.007161,0.0006580000000000001,3.4e-05
624,-2.655214,-0.093947,-0.403437,-0.46536700000000003,0.093809,0.8801329999999999,0.007315,0.010948000000000001,0.004903,0.0077859999999999995,-0.00128,-0.000357
625,-2.655262,-0.09411599999999999,-0.40355100000000005,-0.465317,0.093977,0.880141,0.008392,0.018378,0.010242,0.008988,-0.0019210000000000002,-0.000518
626,-2.655024,-0.094231,-0.40369,-0.465521,0.094092,0.8800209999999999,0.005171,0.014128,0.010225,0.001196,-0.004981,-0.004425999999999999
627,-2.654788,-0.09426799999999999,-0.40379299999999996,-0.46572700000000006,0.094128,0.879908,0.003013,0.0066879999999999995,0.008083,-0.002107,-0.005353,-0.0037939999999999996
628,-2.654517,-0.09427100000000001,-0.403862,-0.465966,0.09413099999999999,0.8797809999999999,0.006229,0.008817,0.007051000000000001,-0.005027,-0.007217,-0.007848
629,-2.653839,-0.09414700000000001,-0.40391,-0.466567,0.09400800000000001,0.879476,0.009428,0.013050999999999998,0.011340000000000001,-0.007370999999999999,-0.008695999999999999,-0.010442
630,-2.653509,-0.094423,-0.404027,-0.46684499999999995,0.094282,0.8792989999999999,0.009457,0.019443000000000002,0.011332,-0.009046,-0.007109000000000001,-0.0069689999999999995
631,-2.652861,-0.09473200000000001,-0.404077,-0.467401,0.09459,0.87897,0.006305,0.023742,0.004896,0.002008,0.004454,-0.0017579999999999998
632,-2.652217,-0.094999,-0.404046,-0.467955,0.094856,0.878647,0.004272,0.040815,-0.000481,-0.001146,0.002861,-0.0007019999999999999
633,-2.651363,-0.09499500000000001,-0.403934,-0.46870500000000004,0.09485199999999999,0.8782469999999999,0.003215,0.035522000000000005,-0.007959,-9e-05,0.0030329999999999997,-0.002957
634,-2.651224,-0.095403,-0.403683,-0.46880900000000003,0.09525800000000001,0.8781479999999999,0.008381999999999999,-0.0039030000000000002,-0.010009,0.007384,0.00577,-0.006901999999999999
635,-2.651821,-0.095537,-0.403532,-0.46828000000000003,0.095391,0.878416,0.000852,-0.014543,-0.006843000000000001,0.007663,0.0017,0.00045999999999999996
636,-2.6522330000000003,-0.095537,-0.403458,-0.46791800000000006,0.09539199999999999,0.878609,-0.0023239999999999997,-0.007084,-0.004738,0.010169,0.002951,0.002861
637,-2.6531439999999997,-0.095597,-0.403479,-0.46711400000000003,0.095452,0.87903,-0.000285,-0.025204,-0.0014789999999999998,0.012631,0.000587,-0.0026260000000000003
638,-2.6539490000000003,-0.09565599999999999,-0.403618,-0.466404,0.09551,0.879401,-0.005561,-0.006038,0.004869,0.012638,-0.00015800000000000002,0.001504
639,-2.653638,-0.095572,-0.403785,-0.466681,0.095426,0.8792629999999999,-0.007532,0.029127999999999998,0.003742,0.011404000000000001,-0.0026829999999999996,-0.001058
640,-2.653151,-0.095617,-0.40378600000000003,-0.467107,0.095471,0.8790309999999999,0.0011560000000000001,0.050453,-0.009043,0.004018,0.0039700000000000004,0.005109000000000001
641,-2.6524959999999997,-0.095279,-0.403672,-0.46769799999999995,0.095135,0.878754,-0.004227000000000001,0.044063,-0.0048,0.012757,-0.007962,0.002228
642,-2.651807,-0.094997,-0.403831,-0.468316,0.094855,0.8784549999999999,0.001001,0.040767000000000005,0.015536000000000001,0.005593,-0.013784999999999999,0.00036
643,-2.649793,-0.094376,-0.404088,-0.470112,0.094236,0.8775620000000001,0.004185,0.046051999999999996,0.024096,-0.018719,-0.014402000000000002,-0.010556999999999999
644,-2.6486509999999996,-0.094706,-0.40438,-0.471099,0.094564,0.8769969999999999,0.010506,0.026876,0.023116,-0.009294,-0.002721,-0.014981999999999999
645,-2.647656,-0.09510199999999999,-0.404491,-0.471954,0.094959,0.8764940000000001,0.002991,0.000337,0.0070739999999999996,-0.011063,0.004147,-0.015562999999999999
646,-2.647506,-0.09514299999999999,-0.404442,-0.472083,0.095,0.8764200000000001,-0.005515,-0.008095,-0.00793,0.002113,0.005525,-0.008561
647,-2.6482580000000002,-0.095242,-0.404312,-0.47142,0.095099,0.876767,-0.010801,-0.010157,-0.020782,0.017287,0.007379999999999999,-0.000149
648,-2.6488169999999998,-0.095019,-0.40394,-0.47093900000000005,0.094877,0.877049,-0.004365,-0.011211,-0.029281,0.013496000000000001,0.006121,0.003993
649,-2.649348,-0.094796,-0.40358,-0.470483,0.094654,0.877318,0.002031,-0.000629,-0.017499,0.0078060000000000004,-0.002659,0.000231
650,-2.648891,-0.094695,-0.403467,-0.47088900000000006,0.094554,0.8771110000000001,-0.0032600000000000003,0.028075,0.001655,-0.004591,0.0013779999999999999,-0.000753
651,-2.648368,-0.09464,-0.40361199999999997,-0.47135,0.094499,0.876869,-0.010743,0.025966000000000003,0.0026739999999999997,0.0048590000000000005,0.0017989999999999998,0.002129
652,-2.648915,-0.094551,-0.403807,-0.47087399999999996,0.09441000000000001,0.877134,-0.016368,-0.04004,0.001674,0.014454,0.00491,-0.003721
653,-2.6510580000000004,-0.09389199999999999,-0.40417800000000004,-0.46902200000000005,0.09375399999999999,0.8781959999999999,-0.024025,-0.074134,0.009141,0.009961,-0.015888,-0.004142
654,-2.652428,-0.093151,-0.40471999999999997,-0.467851,0.093017,0.878899,-0.026035000000000003,-0.03582,0.01976,0.009523,-0.016646,0.002434
655,-2.652914,-0.092663,-0.405443,-0.46744600000000003,0.09253099999999999,0.879166,-0.013119,0.004555,0.034753,0.008065000000000001,-0.018587,0.005768
656,-2.652368,-0.092231,-0.406184,-0.46794399999999997,0.092101,0.8789459999999999,-0.003365,0.046037,0.042245,-0.006268999999999999,-0.008711,0.004553
657,-2.650665,-0.09253,-0.40692,-0.46942799999999996,0.09239800000000001,0.878123,7e-05,0.095042,0.039001,-0.00715,-0.003714,-0.0012
658,-2.648429,-0.093087,-0.407544,-0.471365,0.092953,0.877026,-0.000977,0.094003,0.033654,-0.003061,0.007984,-0.00491
659,-2.646522,-0.093875,-0.408026,-0.47300200000000003,0.093737,0.8760610000000001,-0.005339,0.06104299999999999,0.021915999999999998,-0.0036060000000000003,0.013638999999999998,-0.012154
660,-2.646001,-0.094211,-0.408252,-0.473443,0.094071,0.8757870000000001,-0.004478,-0.002786,0.00387,0.003137,0.013183000000000002,-0.012643000000000001
661,-2.646375,-0.094526,-0.408109,-0.473102,0.094385,0.8759370000000001,-0.0002,-0.018706999999999998,-0.014238999999999998,0.008624,0.002707,-0.003974
662,-2.646514,-0.094221,-0.407855,-0.47299399999999997,0.094082,0.876028,-0.004372,0.001552,-0.015363,-0.0030039999999999997,-0.002514,-0.001349
663,-2.645501,-0.093761,-0.407787,-0.473901,0.093624,0.8755870000000001,-0.0075060000000000005,0.035577,0.0037990000000000003,-0.014532,-0.006924,-0.0020670000000000003
664,-2.644187,-0.093691,-0.407859,-0.475055,0.093554,0.874969,-0.004382,0.018524000000000002,0.003843,-0.008969,-4.8e-05,-0.012816999999999999
665,-2.6442669999999997,-0.093553,-0.407905,-0.474991,0.093417,0.8750180000000001,0.001755,-0.037964,0.006094,-0.00499,-0.005328,-0.008884
666,-2.644615,-0.093449,-0.408096,-0.474691,0.093313,0.875192,-0.002298,0.014231,0.010270999999999999,0.007253,-0.005331,0.002494
667,-2.6445819999999998,-0.09332,-0.408377,-0.47472600000000004,0.093184,0.875187,-0.008445000000000001,0.066465,0.005889,0.026331,-0.001876,0.011974
668,-2.644771,-0.093045,-0.40884000000000004,-0.47457200000000005,0.09291100000000001,0.8753,-0.021481999999999998,0.024937,0.015487,0.021141999999999998,-0.002502,0.001684
669,-2.644925,-0.092808,-0.40944200000000003,-0.474448,0.092675,0.8753920000000001,-0.018459,-0.0028179999999999998,0.027294,0.000617,-0.004479,-0.003001
670,-2.64425,-0.09269,-0.410113,-0.47504399999999997,0.092557,0.875081,-0.008618,0.056777999999999995,0.033694999999999996,-0.004357,-0.0033539999999999998,0.003322
671,-2.642044,-0.093057,-0.410732,-0.47695699999999996,0.092923,0.874001,-0.00203,0.098303,0.033688,-0.013155000000000002,0.004138,-0.004921
672,-2.639437,-0.09386,-0.411008,-0.47919700000000004,0.093723,0.8726889999999999,0.01828,0.094025,0.021016999999999997,-0.014165,0.008206,-0.010354
673,-2.637109,-0.09473,-0.410973,-0.481188,0.09458899999999999,0.871499,0.012856,0.054709,0.001802,-0.010159999999999999,0.012711,-0.020959000000000002
674,-2.636289,-0.095062,-0.410637,-0.481887,0.094919,0.871077,0.005164,-0.017611,-0.020590999999999998,-0.007492,0.005957,-0.017561
675,-2.636776,-0.094996,-0.410042,-0.48146700000000003,0.094854,0.871317,0.006016,-0.077221,-0.032258999999999996,-0.010232999999999999,0.0024059999999999997,-0.011621
676,-2.637987,-0.09503099999999999,-0.40914,-0.48040900000000003,0.094888,0.8718959999999999,0.014602,-0.079317,-0.047131,-0.008223000000000001,0.00527,-0.002038
677,-2.639137,-0.094746,-0.408171,-0.479419,0.094604,0.8724719999999999,0.010426000000000001,-0.058001,-0.046119,-0.0005,-0.001663,-0.005849
678,-2.640155,-0.094582,-0.407223,-0.47853900000000005,0.094441,0.872973,0.011545999999999999,-0.048409,-0.048260000000000004,0.006462000000000001,0.0034289999999999998,-0.000781
679,-2.641501,-0.094449,-0.406265,-0.47736899999999993,0.094309,0.873627,0.012603,-0.052666,-0.050383,0.013685,0.003393,0.0016010000000000002
680,-2.643196,-0.09425800000000001,-0.405353,-0.47589499999999996,0.09411900000000001,0.874451,0.015780000000000002,-0.052701,-0.04502,0.019154,-0.0017879999999999999,0.004516
681,-2.6450099999999996,-0.093861,-0.40468899999999997,-0.474326,0.093724,0.875346,0.010464,-0.033571,-0.030126,0.026251999999999998,-0.008198,0.012563
682,-2.645963,-0.09368,-0.404316,-0.473501,0.093543,0.875812,0.013654,-0.015556,-0.009831,0.021337000000000002,-0.012473,0.0052
683,-2.646546,-0.09347899999999999,-0.40421999999999997,-0.472998,0.093342,0.8761049999999999,0.014734,0.001428,0.0040409999999999995,0.009925,-0.010853,0.0016420000000000002
684,-2.64652,-0.093791,-0.404246,-0.47300699999999996,0.093653,0.876067,0.012561,-0.001782,0.009370999999999999,0.006378,-0.01034,0.000657
685,-2.646697,-0.093877,-0.404275,-0.47284799999999994,0.09374,0.876143,0.010343999999999999,-0.022007,0.006197,-0.001593,-0.004399,-0.007873
686,-2.64698,-0.094013,-0.404177,-0.47259399999999996,0.093874,0.876266,0.010325,-0.033694,-0.001266,-0.007402,0.001005,-0.0058130000000000005
687,-2.6474580000000003,-0.094102,-0.403979,-0.47217200000000004,0.093963,0.876484,0.008234,-0.030463999999999998,-0.0076939999999999995,-0.004757,-0.0010220000000000001,-0.007878
688,-2.647836,-0.094164,-0.40375900000000003,-0.471837,0.094025,0.8766579999999999,0.008258,-0.025137,-0.007701,-0.005,-3.1e-05,-0.004633
689,-2.648091,-0.09435299999999999,-0.403515,-0.471606,0.09421399999999999,0.876762,0.012531,-0.023025,-0.006606,0.0013599999999999999,0.00028399999999999996,-0.006111
690,-2.648589,-0.094559,-0.403289,-0.47116,0.094419,0.87698,0.012497,-0.028360000000000003,-0.004463,0.0017989999999999998,0.0004,-0.005886
691,-2.6490099999999996,-0.094766,-0.403134,-0.470782,0.094625,0.8771610000000001,0.011454,-0.019847,-0.001276,0.001848,0.000193,-0.006784
692,-2.6495290000000002,-0.094933,-0.403077,-0.470318,0.09479,0.877391,0.008256999999999999,-0.014543,0.002977,0.008206,0.0012029999999999999,-0.000667
693,-2.650049,-0.095137,-0.403172,-0.46985299999999997,0.09499400000000001,0.877618,0.005018,-0.014565999999999999,0.011501,0.011387000000000001,0.000373,0.000204
694,-2.6505360000000002,-0.0953,-0.403386,-0.469418,0.09515599999999999,0.877834,0.0018170000000000003,-0.012434,0.013612,0.009961,-0.000414,-0.00043799999999999997
695,-2.651536,-0.095623,-0.40370300000000003,-0.468525,0.09547699999999999,0.8782760000000001,-0.0067599999999999995,-0.023053999999999998,0.012498,0.013142,0.0032170000000000002,-0.005351
696,-2.6522959999999998,-0.095657,-0.404032,-0.46785699999999997,0.095511,0.8786280000000001,-0.011037,-0.026231,0.011404000000000001,0.014228,0.0033049999999999998,-0.0055049999999999995
697,-2.653029,-0.09562799999999999,-0.40431500000000004,-0.467214,0.095483,0.878973,-0.009955,-0.025162,0.009274,0.010579,0.002128,-0.003638
698,-2.65369,-0.09537799999999999,-0.404595,-0.46664399999999995,0.095234,0.8793030000000001,-0.009918000000000001,-0.015578999999999999,0.010329999999999999,0.0022429999999999998,-0.004169,0.000305
699,-2.653956,-0.09525700000000001,-0.404904,-0.46641499999999997,0.095113,0.8794370000000001,-0.00566,-0.01242,0.015697,0.001816,-0.0053,-0.003766
700,-2.654228,-0.095203,-0.40528000000000003,-0.466178,0.09506,0.879569,-0.009949,-0.015639,0.017809000000000002,-0.0018390000000000001,-0.0030800000000000003,-0.004676
701,-2.65416,-0.095016,-0.40562,-0.466247,0.094873,0.879553,-0.006744,-0.016705,0.015696,-0.004334,-0.002207,-0.007268999999999999
702,-2.6542950000000003,-0.09503500000000001,-0.405803,-0.46612700000000007,0.09489199999999999,0.8796139999999999,-0.000333,-0.023084,0.007203,-0.005751,-0.000989,-0.0060490000000000006
703,-2.654678,-0.095108,-0.405748,-0.465787,0.094965,0.8797860000000001,0.003982,-0.026239,-0.00665,-0.0023989999999999997,0.001165,-0.006633
704,-2.655188,-0.095236,-0.405511,-0.46533199999999997,0.095092,0.8800129999999999,0.005074,-0.026220999999999998,-0.011983,0.003922,0.002412,-0.003014
705,-2.6556319999999998,-0.095226,-0.405252,-0.464942,0.095082,0.8802209999999999,0.004036,-0.020887,-0.013065,0.003058,0.00056,-0.005129
706,-2.655989,-0.095478,-0.404984,-0.464617,0.095333,0.880365,0.001927,-0.015553,-0.013086000000000002,-0.000563,0.004917,-5.5e-05
707,-2.656196,-0.095559,-0.404733,-0.46443,0.095414,0.8804549999999999,0.000875,-0.012353,-0.013097999999999999,0.0008380000000000001,0.004196,-0.002769
708,-2.656344,-0.095532,-0.404498,-0.46430200000000005,0.095387,0.880526,0.003005,-0.011361,-0.009886,-0.001641,0.001369,-0.0056170000000000005
709,-2.656086,-0.095455,-0.404291,-0.46453199999999994,0.09531,0.8804120000000001,0.003058,0.0035409999999999994,-0.0067,-0.003669,-0.002552,-0.0037340000000000003
710,-2.6557060000000003,-0.095269,-0.404175,-0.464875,0.095125,0.880252,-0.002234,0.014208000000000002,-0.005683,-0.001419,-0.0047469999999999995,-0.002886
711,-2.6553150000000003,-0.09511900000000001,-0.40408499999999997,-0.46522600000000003,0.094976,0.8800819999999999,-0.004343,0.017419999999999998,-0.007838,0.0014810000000000001,-0.001607,-0.005799
712,-2.655271,-0.094903,-0.404068,-0.46527399999999997,0.094761,0.88008,-0.011855,0.00892,-0.006812,0.014225,0.0010949999999999998,-0.006468000000000001
713,-2.655573,-0.09469,-0.404145,-0.46501800000000004,0.094549,0.880238,-0.011888,0.005706,-0.002535,0.009329,-0.000661,0.000637
714,-2.655461,-0.094434,-0.40425700000000003,-0.46512700000000007,0.094294,0.880207,-0.011864,0.013153999999999999,-0.000408,0.004647999999999999,-0.001017,0.002025
715,-2.655627,-0.094105,-0.404366,-0.464996,0.093966,0.8803120000000001,-0.011956,-0.009209,-0.002516,0.005294,0.000974,-0.001864
716,-2.656478,-0.09400599999999999,-0.404433,-0.464251,0.093868,0.8807149999999999,-0.008905,-0.043358999999999995,-0.002451,0.006533,0.002293,-0.001657
717,-2.65762,-0.093783,-0.404523,-0.463254,0.09364600000000001,0.8812639999999999,-0.013206,-0.048679,-0.000338,0.006589,0.000166,-0.002571
718,-2.658803,-0.093464,-0.404771,-0.462226,0.093328,0.8818379999999999,-0.008856999999999999,-0.022098,0.008204000000000001,0.008887,-0.003667,0.002409
719,-2.659033,-0.093438,-0.40502,-0.462024,0.093302,0.8819459999999999,-0.00126,0.008759000000000001,0.010354,0.009021,-0.00236,0.0030789999999999997
720,-2.6589139999999998,-0.09351799999999999,-0.40514,-0.462125,0.093382,0.881885,0.004136,0.016222999999999998,0.003973,0.009641,-0.001448,-9.4e-05
721,-2.658488,-0.093802,-0.405051,-0.46248900000000004,0.093664,0.8816639999999999,0.008404,0.008782,-0.0034649999999999998,-0.00414,0.00448,-0.004375
722,-2.658102,-0.09400499999999999,-0.40478200000000003,-0.46282,0.09386699999999999,0.881468,0.00728,-0.012484,-0.011992000000000001,-0.009545999999999999,0.002675,-0.009566
723,-2.658138,-0.09407,-0.404402,-0.46278500000000006,0.093931,0.8814799999999999,0.00187,-0.035874,-0.018409000000000002,-0.005568,0.003832,-0.011698
724,-2.65889,-0.093934,-0.404018,-0.462128,0.093796,0.8818389999999999,-0.002491,-0.05931,-0.021609,0.000184,0.001419,-0.007739
725,-2.6603310000000002,-0.09369,-0.403634,-0.46086800000000006,0.093553,0.882524,-0.0004,-0.069967,-0.022649000000000002,0.005698,-0.000276,0.0021190000000000002
726,-2.6613439999999997,-0.093612,-0.40331300000000003,-0.459977,0.093475,0.8829969999999999,0.00504,-0.034878,-0.010906,0.005982,-0.00264,0.001707
727,-2.661299,-0.093359,-0.40319099999999997,-0.460027,0.093224,0.8829969999999999,0.010584,0.025768,0.002942,-0.0017800000000000001,-0.010704,0.0016309999999999999
728,-2.660312,-0.093428,-0.403278,-0.46089600000000003,0.093292,0.8825370000000001,0.00855,0.058755999999999996,0.013567,0.002614,-0.009216,-0.0008230000000000001
729,-2.659543,-0.093562,-0.403494,-0.46156800000000003,0.093426,0.8821709999999999,0.005234,0.033201,0.013577,0.008459,-0.002545,-0.007187000000000001
730,-2.659596,-0.09367,-0.40366399999999997,-0.46151800000000004,0.093533,0.882187,-0.003483,-0.014677,0.0061,0.007523,0.001376,-0.009872
731,-2.660029,-0.09361900000000001,-0.403735,-0.46113699999999996,0.09348200000000001,0.882391,-0.003512,-0.026373,0.000773,0.00010800000000000001,-0.0017010000000000003,-0.005194
732,-2.660407,-0.093552,-0.403733,-0.46080699999999997,0.093415,0.8825709999999999,-0.002368,-0.012515,-0.002441,-0.001016,-0.002977,-0.003252
733,-2.660421,-0.09365599999999999,-0.40370300000000003,-0.46079,0.093519,0.882568,-0.002322,-0.001884,-0.003518,8.2e-05,0.0033439999999999998,-0.003113
734,-2.660676,-0.093763,-0.403631,-0.46056,0.093625,0.882677,-0.004483,-0.014634000000000001,-0.009925,0.004261,0.009112,-0.003252
735,-2.66126,-0.094085,-0.403493,-0.46003,0.093947,0.882919,-0.004516,-0.024213,-0.012048999999999999,0.007165,0.010865999999999999,-0.0026089999999999998
736,-2.6617990000000002,-0.09415499999999999,-0.403308,-0.45955100000000004,0.094016,0.8831610000000001,0.002991,-0.014657,-0.01094,0.005907,0.0026030000000000003,0.002016
737,-2.662168,-0.094043,-0.403145,-0.45923100000000006,0.093905,0.88334,0.006273,0.007684999999999999,-0.006673,0.009569,-0.005266,0.000129
738,-2.662012,-0.09396399999999999,-0.403096,-0.459372,0.09382599999999999,0.883275,0.003082,0.018313999999999997,0.001837,0.005911,-0.0053549999999999995,0.001186
739,-2.661773,-0.093843,-0.403199,-0.459588,0.093706,0.883175,-0.002287,0.016181,0.007143000000000001,0.002634,-0.00432,-0.004864
740,-2.661553,-0.093601,-0.403412,-0.459793,0.093464,0.883094,-0.007666,0.009797,0.009253,0.001968,-0.008641,-0.006324000000000001
741,-2.661433,-0.093385,-0.40370300000000003,-0.459908,0.093249,0.883057,-0.006629,0.007645999999999999,0.013536000000000001,0.0044329999999999994,-0.009021,-0.005981
742,-2.6612430000000002,-0.09322000000000001,-0.403965,-0.460083,0.093085,0.882983,-0.004462,0.012972999999999998,0.011406999999999999,0.0031739999999999997,-0.0076359999999999996,-0.005465
743,-2.660778,-0.093071,-0.404105,-0.4605,0.092936,0.8827809999999999,-0.00229,0.016184,0.006077,-0.0017649999999999999,-0.000148,-0.0035090000000000004
744,-2.660412,-0.093091,-0.404158,-0.460822,0.09295700000000001,0.882611,-0.000161,0.010867,0.0018260000000000001,-0.001946,-0.00021400000000000002,-0.005520000000000001
745,-2.660174,-0.09314800000000001,-0.40412800000000004,-0.46103,0.093013,0.882497,0.0008960000000000001,0.00555,-0.0013650000000000001,-0.002014,0.001973,-0.004231
746,-2.6600509999999997,-0.093356,-0.404067,-0.461129,0.093221,0.882423,-0.000165,0.005559000000000001,-0.00244,0.001168,0.002986,-0.0029059999999999997
747,-2.659983,-0.093439,-0.404,-0.461185,0.093303,0.8823840000000001,0.001973,0.005556,-0.003493,0.0030399999999999997,0.003361,-0.002654
748,-2.660022,-0.093664,-0.403939,-0.461142,0.093527,0.8823840000000001,0.005158,0.00554,-0.001327,0.007437,0.002374,-0.002241
749,-2.660201,-0.093907,-0.403929,-0.46097299999999997,0.093769,0.882446,0.004077,0.005529999999999999,0.00187,0.006520999999999999,0.0035369999999999998,7.7e-05
750,-2.660392,-0.094028,-0.403972,-0.46079899999999996,0.09389,0.882524,0.000839,-0.0019210000000000002,0.002925,0.006591,0.00105,-0.002885
751,-2.660572,-0.094039,-0.404055,-0.46063999999999994,0.093901,0.882606,-0.005577,-0.005094,0.002885,0.003075,0.000429,-0.0053170000000000005
752,-2.660741,-0.093891,-0.40415300000000004,-0.46049700000000005,0.093753,0.8826959999999999,-0.007696,-0.005074,-0.000335,0.004107,-0.001483,-0.005514
753,-2.660875,-0.0936,-0.404152,-0.460392,0.093464,0.882782,-0.0034340000000000004,-0.009337,-0.0035039999999999997,-0.001019,-0.0038640000000000002,0.000504
754,-2.660872,-0.093292,-0.404098,-0.46040699999999996,0.093157,0.882806,-0.000196,0.000236,-0.002426,-0.003994,-0.005922,-0.000147
755,-2.660358,-0.093137,-0.404063,-0.46086800000000006,0.093002,0.882582,0.006291,0.024694,0.002928,-0.0024649999999999997,-0.004013,-0.0038590000000000005
756,-2.659608,-0.093291,-0.404086,-0.46152299999999996,0.09315599999999999,0.882224,0.008439,0.034249,0.009340000000000001,-0.0036409999999999997,-0.003068,-0.005362
757,-2.659001,-0.09337000000000001,-0.404208,-0.462055,0.093235,0.8819370000000001,0.00628,0.032144,0.011475,0.0067480000000000005,-0.0030399999999999997,-0.005425999999999999
758,-2.658547,-0.093632,-0.40431500000000004,-0.46244399999999997,0.09349500000000001,0.881705,0.008381,0.021497,0.008298,0.005581,0.000865,-0.008002
759,-2.658244,-0.093814,-0.404334,-0.462703,0.093676,0.88155,0.003042,0.013022999999999998,0.000794,0.002727,0.002774,-0.003819
760,-2.658303,-0.093985,-0.404303,-0.462643,0.093846,0.8815629999999999,-0.000192,0.001333,-0.003486,0.00755,0.002665,-0.004442
761,-2.658534,-0.094062,-0.404254,-0.462437,0.093923,0.8816639999999999,-0.002339,-0.003978,-0.00563,0.005024,0.0033520000000000004,-0.002971
762,-2.658651,-0.09400499999999999,-0.40420300000000003,-0.46233599999999997,0.09386699999999999,0.8817219999999999,-0.005549,-0.007157999999999999,-0.006717,0.002513,0.004064,-0.005013
763,-2.658748,-0.093976,-0.404125,-0.462251,0.093838,0.88177,-0.004477,-0.006096,-0.00671,0.001924,0.00359,-0.003428
764,-2.6589240000000003,-0.093952,-0.40405399999999997,-0.46209799999999995,0.093814,0.8818530000000001,-0.002352,-0.0050149999999999995,-0.00455,0.002518,0.0012029999999999999,-0.00197
765,-2.658948,-0.093919,-0.403984,-0.462078,0.09378099999999999,0.881867,-0.000175,0.005626,-0.0034799999999999996,0.003704,0.001068,-0.001633
766,-2.658845,-0.09388200000000001,-0.403937,-0.46216999999999997,0.09374400000000001,0.8818219999999999,0.001973,0.009875,-0.002402,0.003003,-0.001749,-0.004091
