,attitude.roll,attitude.pitch,attitude.yaw,gravity.x,gravity.y,gravity.z,rotationRate.x,rotationRate.y,rotationRate.z,userAcceleration.x,userAcceleration.y,userAcceleration.z
0,-2.5351049999999997,-0.117747,0.288382,-0.566034,0.117475,0.81596,0.082743,-0.072047,0.09260499999999999,0.128717,0.07737899999999999,0.120121
1,-2.53513,-0.119992,0.287983,-0.565861,0.11970399999999999,0.815755,0.084486,0.062237,0.076422,0.158909,0.080872,0.13012200000000002
2,-2.533076,-0.12238099999999999,0.28839499999999996,-0.567371,0.122075,0.814354,0.127577,0.105959,0.027529,0.196521,0.115184,0.047493
3,-2.532317,-0.1248,0.290167,-0.567818,0.124476,0.813679,0.147766,0.029424000000000002,-0.030983999999999998,0.17488900000000002,0.118047,0.020214
4,-2.532625,-0.126375,0.292161,-0.567455,0.126039,0.813692,0.09793500000000001,0.06595,-0.06449400000000001,0.089992,0.120848,0.027769
5,-2.533359,-0.127834,0.294746,-0.566752,0.127486,0.813956,0.137697,0.079861,-0.11444000000000001,0.07853099999999999,0.08963099999999999,0.021036000000000003
6,-2.5332049999999997,-0.128861,0.298299,-0.566802,0.128505,0.813761,0.117263,0.015066,-0.143342,0.081481,0.064443,0.010824
7,-2.535403,-0.13028199999999998,0.301518,-0.5649069999999999,0.129914,0.8148529999999999,0.09472,-0.010444,-0.138126,0.059337,0.045867000000000005,0.008694
8,-2.535686,-0.132132,0.30438899999999997,-0.564539,0.131748,0.814814,0.07382899999999999,0.10143300000000001,-0.125596,0.04986,0.002575,0.038793
9,-2.5333069999999998,-0.132519,0.306915,-0.566447,0.132132,0.813427,0.064246,0.131191,-0.100064,0.051737,-0.017034999999999998,0.031895
10,-2.531555,-0.13334100000000002,0.30864,-0.567808,0.132947,0.812344,0.046985,0.127898,-0.060655999999999995,0.030363,-0.041226,0.010227
11,-2.529251,-0.13408699999999998,0.30968,-0.569621,0.133685,0.810952,0.03113,0.182197,-0.039472,0.008509000000000001,-0.067218,-0.012338
12,-2.525353,-0.134478,0.310434,-0.5727479999999999,0.134073,0.8086840000000001,0.029044999999999998,0.21301599999999998,-0.01923,-0.0018679999999999999,-0.076227,-0.018309
13,-2.521881,-0.13447,0.310734,-0.575553,0.13406500000000002,0.8066909999999999,0.009755,0.204518,-0.008672,-0.02041,-0.081956,-0.009664
14,-2.518438,-0.134107,0.311054,-0.5783550000000001,0.133705,0.804744,0.03646,0.20976,-0.010628,-0.012374,-0.065331,0.025532
15,-2.514169,-0.13480599999999998,0.31176,-0.58173,0.134398,0.802192,0.076986,0.226581,0.009929,-0.012783,-0.049772000000000004,0.032586000000000004
16,-2.5091799999999997,-0.13547,0.312619,-0.585672,0.13505599999999998,0.799207,0.094243,0.262762,0.0046630000000000005,0.002054,-0.029464999999999998,0.013187
17,-2.503908,-0.136052,0.31382600000000005,-0.58983,0.135632,0.796045,0.120814,0.24984699999999999,0.014478999999999999,-0.001768,-0.003186,-0.00065
18,-2.499563,-0.137317,0.31466,-0.59318,0.13688599999999998,0.793337,0.086435,0.208375,0.026042000000000003,-0.013311000000000002,0.035172,-0.020388
19,-2.496172,-0.13808099999999998,0.31508800000000003,-0.595804,0.13764300000000002,0.791237,0.059658,0.176544,0.01735,-0.038077,0.06462799999999999,-0.045357
20,-2.492516,-0.138878,0.31561500000000003,-0.598627,0.138432,0.788966,0.046966,0.187297,0.003361,-0.035101,0.057888,-0.059001
21,-2.490322,-0.139284,0.31575,-0.600322,0.13883399999999999,0.787606,0.013409,0.087248,0.010731999999999998,-0.027089,0.06377200000000001,-0.057458
22,-2.489039,-0.1396,0.315362,-0.601305,0.139147,0.7868,-0.038079,0.032007,0.016853,0.015276,0.029844,-0.018947
23,-2.489586,-0.139351,0.314225,-0.600896,0.138901,0.787157,-0.066344,-0.067038,0.034942,0.008687,0.028092000000000002,0.012801
24,-2.491205,-0.13936199999999999,0.312904,-0.5996199999999999,0.13891099999999998,0.788127,-0.061211,-0.11179800000000001,0.035035000000000004,-0.002034,0.024342,0.041768
25,-2.492096,-0.1399,0.31201999999999996,-0.598873,0.139444,0.788602,-0.031066000000000003,-0.06073099999999999,0.025566,0.030147000000000004,0.021138999999999998,0.011127
26,-2.4921759999999997,-0.13997300000000001,0.311592,-0.598803,0.139516,0.788642,-0.011431,0.014916999999999998,0.0053100000000000005,0.043108999999999995,0.028589999999999997,-0.002616
27,-2.491673,-0.139956,0.31168,-0.599202,0.1395,0.788342,-0.002748,0.021384999999999998,-0.021343,0.054310000000000004,-0.021671,-0.010081999999999999
28,-2.492597,-0.140001,0.312058,-0.5984689999999999,0.139544,0.78889,0.004366,-0.061715,-0.02546,0.036838,-0.00963,0.046223
29,-2.493583,-0.140061,0.31277699999999997,-0.5976859999999999,0.139604,0.789473,0.030137999999999998,-0.036191,-0.037063,0.032454000000000004,0.010985,0.045610000000000005
30,-2.4935709999999998,-0.140269,0.314136,-0.597677,0.139809,0.789443,0.054084,0.03948,-0.066903,0.031682999999999996,0.00872,0.051254999999999995
31,-2.492064,-0.140289,0.316281,-0.598865,0.139829,0.788539,0.07581399999999999,0.104476,-0.089267,0.045718,-0.005124,0.006229999999999999
32,-2.489527,-0.140276,0.318616,-0.6008640000000001,0.139816,0.7870189999999999,0.074805,0.12256800000000001,-0.08395599999999999,0.046008999999999994,0.019272,-0.015472999999999999
33,-2.488157,-0.140266,0.320452,-0.601942,0.13980599999999999,0.786196,0.047845,0.073599,-0.06912599999999999,0.038619,-0.010702,-0.009507999999999999
34,-2.4876669999999996,-0.14039400000000002,0.321734,-0.602317,0.139933,0.785887,0.029345,0.017106,-0.044614,0.004233,0.019048,0.003542
35,-2.4876709999999997,-0.140145,0.322475,-0.6023350000000001,0.13968699999999998,0.785917,0.004797,0.020366,-0.039449,-0.007559000000000001,0.025841000000000003,0.014086000000000001
36,-2.487295,-0.139747,0.32300100000000004,-0.602665,0.139293,0.785734,-0.005843,0.0321,-0.034197000000000005,-0.0034909999999999997,0.015828000000000002,-0.001066
37,-2.4868650000000003,-0.139268,0.323565,-0.603043,0.138818,0.785528,-0.001604,0.025693,-0.034158999999999995,0.027756,0.024298,0.0076549999999999995
38,-2.4864509999999997,-0.138732,0.324218,-0.603413,0.138287,0.785337,-0.004757,0.023625,-0.046997000000000004,0.033009,0.007601999999999999,0.013704
39,-2.485582,-0.138183,0.324992,-0.604142,0.137743,0.7848729999999999,-0.001489,0.036406,-0.049127,0.029542000000000002,-0.032869999999999996,0.02131
40,-2.485155,-0.138093,0.325639,-0.604485,0.137655,0.784625,0.013274000000000001,0.020285,-0.026570999999999997,0.023812,-0.019413999999999997,0.041074
41,-2.484413,-0.13863499999999998,0.326218,-0.605021,0.138192,0.784117,0.041214,0.078722,-0.012564,0.016184999999999998,0.011283,0.032655
42,-2.482494,-0.139463,0.326917,-0.606455,0.139011,0.782863,0.05628,0.11592000000000001,-0.00396,0.022058,0.033855,0.032109
43,-2.480218,-0.140222,0.327594,-0.608169,0.139763,0.7813979999999999,0.063724,0.120117,0.0057,0.028213,-0.002861,-0.000605
44,-2.4790650000000003,-0.14091900000000002,0.327876,-0.60901,0.140453,0.780618,0.038903,0.071145,0.019477,0.013887,0.015141,-0.01011
45,-2.4780349999999998,-0.141595,0.3278,-0.609755,0.141123,0.7799159999999999,0.021733000000000002,0.058383000000000004,0.028987,0.009215000000000001,0.020880000000000003,-0.004220000000000001
46,-2.4771650000000003,-0.142463,0.327358,-0.6103569999999999,0.141982,0.779289,0.013155000000000002,0.06368,0.043875,0.0018059999999999999,0.028581,-0.00164
47,-2.476266,-0.143163,0.326522,-0.610997,0.142674,0.778662,-0.006097,0.066887,0.057624,-0.008876,0.006312,-0.0091
48,-2.4752099999999997,-0.14366800000000002,0.325071,-0.6117739999999999,0.143174,0.7779590000000001,-0.037141,0.067963,0.081975,-0.018353,-0.0037549999999999997,-0.008352
49,-2.4740759999999997,-0.14436300000000002,0.322762,-0.612594,0.143862,0.777187,-0.054301999999999996,0.085978,0.120288,-0.037933999999999996,-0.013506,-0.002727
50,-2.47234,-0.145335,0.31992800000000005,-0.6138560000000001,0.144823,0.7760130000000001,-0.061646000000000006,0.12431099999999999,0.130869,0.009134999999999999,0.006940000000000001,-0.015316
51,-2.470336,-0.146174,0.3173,-0.615334,0.145654,0.7746850000000001,-0.042437,0.11682100000000001,0.122467,0.018456,-0.0020989999999999997,0.0027660000000000002
52,-2.468229,-0.14724600000000002,0.31503600000000004,-0.616866,0.146715,0.7732640000000001,-0.018966,0.118861,0.12476500000000001,0.019788999999999998,-0.013536000000000001,0.040655000000000004
53,-2.465594,-0.148544,0.313079,-0.6187819999999999,0.147999,0.771486,0.006781999999999999,0.147547,0.12170399999999999,0.014122,0.000668,0.023253
54,-2.462134,-0.150332,0.31130599999999997,-0.62128,0.149767,0.769133,0.012361,0.20504,0.124874,0.016986,0.004713,0.005159
55,-2.458072,-0.15195,0.309542,-0.624246,0.151366,0.766415,0.00275,0.192333,0.114141,0.014459,0.022874000000000002,-0.042324
56,-2.456456,-0.152507,0.308062,-0.62543,0.151917,0.7653399999999999,-0.023171,0.06588200000000001,0.057505999999999995,0.053912,0.025817000000000003,-0.006931999999999999
57,-2.4562,-0.152523,0.307399,-0.625624,0.15193199999999998,0.765177,-0.002911,0.019118,0.012842,0.054518,0.017623,0.011236
58,-2.4569259999999997,-0.152563,0.30775399999999997,-0.625065,0.151972,0.765626,0.024784999999999998,-0.034067,-0.030694,0.041248,0.027395,0.008986
59,-2.4573169999999998,-0.15268900000000002,0.308958,-0.624753,0.152097,0.7658560000000001,0.04319,-0.003123,-0.059447,0.007016,0.040546,0.012449
60,-2.4569650000000003,-0.152698,0.31051599999999996,-0.6250220000000001,0.152105,0.7656350000000001,0.037961,0.009720999999999999,-0.07018200000000001,0.007682,0.045908,0.009679
61,-2.457398,-0.152858,0.312017,-0.624675,0.152264,0.765887,0.036788999999999995,-0.015833,-0.07229400000000001,0.002132,0.024235,-0.011262999999999999
62,-2.4583209999999998,-0.152579,0.313596,-0.6239939999999999,0.15198699999999998,0.766496,0.032291,-0.070134,-0.07546,0.001955,0.019597999999999997,-0.00937
63,-2.459901,-0.15232300000000001,0.31511,-0.6228060000000001,0.15173499999999998,0.7675109999999999,0.026889999999999997,-0.083968,-0.074412,-0.000851,0.019743,-0.002038
64,-2.461429,-0.152257,0.31653400000000004,-0.621639,0.151669,0.768469,0.024722,-0.086112,-0.069083,-0.003926,-0.002545,-0.010412000000000001
65,-2.463085,-0.15191,0.31779,-0.620398,0.151327,0.769538,0.01823,-0.09678099999999999,-0.059501,-0.007318000000000001,-0.011556,-0.007559999999999999
66,-2.464788,-0.15163800000000002,0.318687,-0.619112,0.151058,0.770624,0.005361,-0.091491,-0.039300999999999996,-0.008115,-0.020839,0.003759
67,-2.4661419999999996,-0.151515,0.319027,-0.61808,0.150936,0.7714770000000001,-0.008513,-0.065982,-0.012726000000000001,0.002006,-0.019603,0.008643999999999999
68,-2.46707,-0.151387,0.31879,-0.617376,0.15081,0.772065,-0.017034,-0.036232,0.013881999999999999,0.008504000000000001,-0.015678,0.009033
69,-2.467584,-0.151302,0.318151,-0.616987,0.150725,0.772393,-0.024512,-0.022421,0.029836,0.022428,-0.012556999999999999,0.00547
70,-2.468075,-0.151053,0.317305,-0.616631,0.150479,0.772725,-0.028803,-0.023488,0.03408,0.026955,-0.00604,0.012004
71,-2.468666,-0.150943,0.316452,-0.6161840000000001,0.15037,0.7731020000000001,-0.025578,-0.021356,0.030895,0.024128,-0.001643,0.015396
72,-2.469097,-0.1509,0.315789,-0.615855,0.150328,0.7733720000000001,-0.013766,-0.009658,0.025622000000000002,0.02621,0.00963,0.020055
73,-2.469305,-0.15096600000000002,0.315337,-0.615687,0.150393,0.773493,-0.001916,0.008440000000000001,0.018203999999999998,0.026331999999999998,0.019208000000000003,0.01293
74,-2.4691330000000002,-0.151107,0.315128,-0.615808,0.150533,0.77337,0.0035,0.016982,0.008617,0.025918,0.021937,0.011281999999999999
75,-2.469036,-0.151224,0.315106,-0.615872,0.150648,0.773297,0.00671,0.011674,0.001168,0.018414,0.027375999999999998,0.009692000000000001
76,-2.469209,-0.151398,0.315284,-0.615722,0.15082,0.773383,0.00992,0.002123,-0.010548,0.005569,0.015074,-0.000388
77,-2.469276,-0.151437,0.315664,-0.615667,0.150859,0.773419,0.012069,-0.002116,-0.018005,0.003286,0.011890999999999999,6.4e-05
78,-2.4694529999999997,-0.151594,0.316128,-0.6155149999999999,0.151014,0.77351,0.017408,-0.00213,-0.019036,0.000342,0.0058920000000000005,-0.0032
79,-2.469622,-0.1519,0.31653400000000004,-0.615356,0.151317,0.773578,0.014174,-0.00321,-0.012647,-0.007722,0.009526,-0.0032530000000000002
80,-2.46963,-0.152009,0.316756,-0.6153390000000001,0.151424,0.77357,0.007739,-0.0010949999999999998,-0.003081,-0.005693999999999999,0.009937999999999999,-0.00561
81,-2.469609,-0.15215599999999999,0.316833,-0.615341,0.15157,0.7735390000000001,0.003471,0.003164,0.0011560000000000001,-0.000519,0.0012619999999999999,-0.0059310000000000005
82,-2.469678,-0.15221099999999999,0.316783,-0.615282,0.151624,0.773575,-0.005111,-0.006398,0.002177,0.00728,-0.003019,0.000672
83,-2.4698599999999997,-0.152231,0.316671,-0.615139,0.151644,0.773684,-0.0019399999999999999,-0.01174,0.003274,0.016171,0.001661,0.007398
84,-2.470027,-0.152292,0.316669,-0.615004,0.151704,0.773779,0.003433,-0.008542000000000001,-0.0020329999999999997,0.02017,0.000884,0.007227
85,-2.470109,-0.152318,0.316795,-0.614938,0.15173,0.773826,0.004529,-0.004275999999999999,-0.004168,0.022851,0.000782,0.011986
86,-2.470094,-0.152353,0.316916,-0.614946,0.151765,0.7738119999999999,0.006691,0.004229999999999999,-0.002027,0.015184,0.017059,0.010169
87,-2.469895,-0.15243800000000002,0.316947,-0.615092,0.151848,0.77368,0.0024519999999999998,0.014881,0.002203,0.015253999999999998,0.020423,0.005220000000000001
88,-2.469677,-0.152475,0.316869,-0.6152569999999999,0.151885,0.773541,-0.003954,0.017021,0.00536,0.015174000000000002,0.016038,-0.001355
89,-2.469716,-0.152429,0.316628,-0.6152310000000001,0.151839,0.77357,-0.011479000000000001,0.005325,0.00639,0.016385,0.009720999999999999,0.005452
90,-2.4698290000000003,-0.15233,0.316355,-0.615153,0.15174200000000002,0.773651,-0.013646,-0.002124,0.006385,0.014322999999999999,0.006278,0.007812
91,-2.469994,-0.15233,0.31613,-0.615025,0.15174200000000002,0.773753,-0.008293,-0.001065,0.0032159999999999997,0.014575999999999999,-0.005898,0.009267000000000001
92,-2.470026,-0.15249300000000002,0.31602800000000003,-0.614985,0.151903,0.773753,0.001347,0.006363000000000001,0.002206,0.015025,-0.013765000000000001,0.012242
93,-2.469854,-0.152651,0.316133,-0.615103,0.152059,0.773629,0.012064,0.012734,-0.002,0.016043,-0.012990999999999999,0.010032
94,-2.469564,-0.152973,0.31644,-0.615297,0.15237699999999998,0.773412,0.023852,0.021228,-0.0051340000000000005,0.015199,0.000607,0.009547
95,-2.46912,-0.15326099999999998,0.31687,-0.615613,0.152662,0.773104,0.028176999999999997,0.029751999999999997,-0.009387000000000001,0.009747,0.006701,-0.002001
96,-2.468555,-0.153542,0.317327,-0.616023,0.15293900000000002,0.7727229999999999,0.023886,0.025502,-0.008343999999999999,0.007228,0.007553,-0.003512
97,-2.4681889999999997,-0.153643,0.317626,-0.616296,0.153039,0.7724850000000001,0.013179,0.019139,-0.006274,0.005790999999999999,0.012244,-0.008187999999999999
98,-2.468048,-0.153684,0.317726,-0.6164,0.15308,0.7723939999999999,0.001381,0.009575,-0.002071,0.002036,0.021206,-0.001413
99,-2.467946,-0.153644,0.31763,-0.616483,0.15304,0.772335,-0.009326000000000001,0.007456999999999999,0.004266,0.002164,0.022466,-0.0027429999999999998
100,-2.467925,-0.15353499999999998,0.317331,-0.61651,0.15293199999999998,0.772336,-0.020038,0.00215,0.008471,0.004389,0.01905,-0.00108
101,-2.467991,-0.15343199999999999,0.316865,-0.6164689999999999,0.152831,0.772389,-0.022186,0.0021449999999999998,0.011661,0.006942,0.007692,0.002285
102,-2.4680779999999998,-0.153276,0.316388,-0.616417,0.152677,0.772461,-0.0222,-0.002112,0.010598,0.007469,-0.0016760000000000002,-0.000183
103,-2.46829,-0.153273,0.315942,-0.6162529999999999,0.152674,0.7725920000000001,-0.017976,-0.008531,0.01384,0.00346,-0.012629000000000001,0.006811
104,-2.468541,-0.153415,0.31548400000000004,-0.616046,0.152814,0.77273,-0.013722999999999999,-0.007498,0.018142,-0.0020109999999999998,-0.015057,0.0024920000000000003
105,-2.468691,-0.153557,0.314973,-0.615917,0.152954,0.772805,-0.010522,-0.001143,0.024565,-0.003117,-0.015319999999999999,0.000556
106,-2.468872,-0.153695,0.31445500000000004,-0.615764,0.153091,0.7729,-0.007326999999999999,-0.00328,0.023522,0.0051979999999999995,0.002503,0.001132
107,-2.4691520000000002,-0.153873,0.31416700000000003,-0.61553,0.15326700000000001,0.773051,0.005452,-0.016078,0.01615,0.006552,0.010216,0.0062
108,-2.4696439999999997,-0.154006,0.31412399999999996,-0.6151369999999999,0.153398,0.773338,0.009724,-0.027760000000000003,0.0033759999999999997,0.015390000000000001,0.022093,0.002999
109,-2.470072,-0.154029,0.314443,-0.614804,0.153421,0.773598,0.016231,-0.024506,-0.016878999999999998,0.021771000000000002,-0.0026030000000000003,0.006096
110,-2.4705880000000002,-0.15399300000000002,0.315077,-0.614408,0.153385,0.7739199999999999,0.019441,-0.034057,-0.028594,0.019895,0.004101,0.011725
111,-2.4712,-0.15396400000000002,0.315849,-0.613937,0.153357,0.7743,0.024799,-0.032994,-0.032831,0.015151,0.013102,0.015494999999999998
112,-2.4716299999999998,-0.154086,0.31665,-0.613592,0.153477,0.7745489999999999,0.023794,-0.017019,-0.030722000000000003,0.020437,0.011592,0.004351
113,-2.471691,-0.154157,0.317377,-0.613538,0.153547,0.774578,0.023837999999999998,-0.002127,-0.0254,0.025006999999999998,0.006182,0.004109000000000001
114,-2.4717540000000002,-0.154143,0.317942,-0.61349,0.153534,0.774618,0.014202000000000001,-0.006367,-0.022257,0.023265,-0.0025629999999999997,0.010920000000000001
115,-2.472136,-0.154218,0.318292,-0.613187,0.153607,0.7748430000000001,0.008791,-0.011722,-0.010537999999999999,0.011304,-0.001492,0.007368
116,-2.472172,-0.154306,0.318362,-0.613152,0.153694,0.774854,0.002428,0.010616,0.003276,0.009331,-9.9e-05,0.0036340000000000005
117,-2.4718430000000002,-0.15446500000000002,0.318211,-0.613391,0.153852,0.774633,-0.001796,0.026583999999999997,0.009635,0.020709,-0.000669,0.003443
118,-2.471579,-0.15454400000000001,0.31798699999999996,-0.613588,0.15392999999999998,0.774462,-0.002896,0.020191999999999998,0.010704,0.023348,0.000886,0.006742000000000001
119,-2.4712959999999997,-0.15456,0.317812,-0.613805,0.153945,0.774287,-0.002891,0.017013,0.006435,0.018499,-0.001906,0.00765
120,-2.470773,-0.15453,0.31771,-0.614213,0.153915,0.7739689999999999,-0.0059770000000000005,0.035164,-0.0010869999999999999,0.022493,-0.0046689999999999995,0.0024739999999999996
121,-2.470201,-0.154447,0.3176,-0.614664,0.153834,0.7736270000000001,-0.0048909999999999995,0.043664999999999995,0.0031829999999999996,-0.013722999999999999,-0.000849,0.006249
122,-2.4695549999999997,-0.154551,0.317332,-0.615154,0.153936,0.7732180000000001,-0.0049960000000000004,0.035082999999999996,0.018147999999999997,-0.018559,-0.001959,0.00315
123,-2.4690529999999997,-0.154729,0.316879,-0.615525,0.154113,0.772888,-0.010364,0.034011,0.024521,-0.008163,0.014237,-0.012709999999999999
124,-2.468825,-0.15482100000000001,0.316397,-0.615693,0.154204,0.772736,-0.007226000000000001,0.014846000000000002,0.019227,0.012879,0.026552,-0.003006
125,-2.468747,-0.154946,0.316198,-0.615741,0.154326,0.7726729999999999,0.0045049999999999995,0.001008,0.006508,0.012958,0.022065,0.000124
126,-2.4687740000000002,-0.15500799999999998,0.31627,-0.615714,0.154388,0.772683,0.006658,-0.004287,-0.003085,-0.001184,0.009018,-0.0031969999999999998
127,-2.468766,-0.155032,0.316423,-0.615718,0.154412,0.772675,0.001338,-0.004256,-0.006326,-0.006536,-0.0012439999999999999,-0.0077209999999999996
128,-2.468976,-0.155104,0.31650500000000004,-0.615549,0.15448299999999998,0.772796,-0.005111,-0.014886000000000002,-0.006358,-0.0006320000000000001,-0.014957,-0.0038439999999999998
129,-2.46949,-0.15500999999999998,0.316512,-0.615161,0.15439,0.773123,-0.004107,-0.027676999999999997,-0.005266,0.0032990000000000003,-0.010469,0.0017640000000000002
130,-2.4700279999999997,-0.15504500000000002,0.316531,-0.614741,0.154425,0.77345,0.0022890000000000002,-0.023459999999999998,0.00011399999999999999,0.004572,0.002191,0.007098
131,-2.470334,-0.15512,0.316643,-0.6144970000000001,0.154498,0.77363,0.006586,-0.020266,-0.003065,0.019252000000000002,0.002454,0.004965
132,-2.47074,-0.155128,0.316882,-0.614183,0.154506,0.773878,0.009791,-0.025578,-0.009445,0.019716,0.00124,0.008822
133,-2.471147,-0.155083,0.31717,-0.613872,0.154462,0.774133,0.008758,-0.019178999999999998,-0.010528000000000001,0.015483000000000002,-0.001035,0.009223
134,-2.471439,-0.155134,0.317358,-0.613641,0.15451199999999998,0.774306,0.0066430000000000005,-0.008544,-0.004147,0.016046,0.003325,0.009797
135,-2.471521,-0.15524300000000002,0.317471,-0.613567,0.15462,0.774343,0.007723999999999999,-0.001108,0.000123,0.020016,0.00662,0.008723
136,-2.471639,-0.155297,0.31758200000000003,-0.61347,0.154674,0.774409,0.003471,-0.004263,-0.006312,0.024481,0.010045,0.007481999999999999
137,-2.471962,-0.15523699999999999,0.317728,-0.613226,0.154614,0.774614,0.002385,-0.012765,-0.010581,0.016806,-0.001035,0.013609
138,-2.47214,-0.155142,0.317932,-0.613097,0.15452,0.7747350000000001,0.004562,-0.004246,-0.011645,0.015531999999999999,-0.000742,0.015059000000000001
139,-2.47205,-0.155184,0.318166,-0.613163,0.15456199999999998,0.774675,0.009964,0.013831999999999999,-0.008426000000000001,0.012074,-0.001501,0.009215000000000001
140,-2.471829,-0.155386,0.31840599999999997,-0.6133149999999999,0.15476199999999998,0.774515,0.014241,0.019131,-0.0051979999999999995,0.01012,-0.002082,-0.000177
141,-2.471488,-0.155527,0.318619,-0.613566,0.154901,0.774288,0.012097,0.018068999999999998,-0.004143,0.007136,-0.001855,6.500000000000001e-05
142,-2.4712080000000003,-0.155644,0.31877300000000003,-0.613771,0.15501600000000001,0.7741020000000001,0.007816,0.018071,-0.0009689999999999999,0.001726,0.005308,0.001075
143,-2.47099,-0.155763,0.318764,-0.613928,0.155134,0.773954,0.00351,0.01593,0.005413,0.000784,0.005388,-0.009015
144,-2.4707689999999998,-0.155831,0.318648,-0.614092,0.155201,0.77381,-0.003992,0.007437999999999999,0.004304,0.005038,0.0035659999999999997,-0.009665
145,-2.4708360000000003,-0.15574100000000002,0.318575,-0.614049,0.155113,0.7738619999999999,-0.005078,-0.005307,-0.004233,0.010426999999999999,-0.002509,-0.002225
146,-2.4710330000000003,-0.155704,0.318684,-0.6139,0.155076,0.773988,0.004529,-0.007459,-0.007368,0.0038079999999999998,0.002364,0.009567
147,-2.470908,-0.15583,0.318879,-0.613984,0.1552,0.773895,0.011002,0.013803,-0.002009,0.004106,0.002164,0.005173
148,-2.470452,-0.155993,0.318981,-0.614322,0.155362,0.773595,0.006758,0.024449000000000002,0.0032890000000000003,0.003879,-0.0032770000000000004,-0.006215
149,-2.470212,-0.156021,0.318793,-0.614505,0.155389,0.7734449999999999,-0.010426999999999999,0.00743,0.011736,-0.0032479999999999996,-0.00023700000000000001,-0.002724
150,-2.470297,-0.15600999999999998,0.318281,-0.61444,0.155378,0.7734979999999999,-0.017991,-0.003239,0.022379,-0.006867,-0.002759,-0.005843
151,-2.470659,-0.15600799999999998,0.31761100000000003,-0.61416,0.155376,0.77372,-0.020201,-0.017092,0.025586,0.005518,-0.004787,0.0023420000000000003
152,-2.4712240000000003,-0.15598599999999999,0.317012,-0.613725,0.155354,0.77407,-0.015967,-0.027747000000000004,0.022425,0.010223999999999999,0.001155,0.005013
153,-2.471893,-0.156038,0.316632,-0.613202,0.155406,0.774475,-0.0041979999999999995,-0.02988,0.012896000000000001,0.01817,0.007863,0.010879999999999999
154,-2.47231,-0.156118,0.316703,-0.612872,0.15548399999999998,0.77472,0.013011000000000002,-0.018144999999999998,-0.006227,0.027316000000000003,0.006854000000000001,0.015304
155,-2.472397,-0.15629400000000002,0.317226,-0.612787,0.155658,0.774752,0.028067,-0.003237,-0.017891999999999998,0.023859,0.009304999999999999,0.0119
156,-2.472381,-0.15648199999999998,0.31793000000000005,-0.612781,0.155844,0.7747189999999999,0.029148,-0.003228,-0.021089,0.014728,0.009393,0.006256
157,-2.4725490000000003,-0.156596,0.318483,-0.61264,0.15595699999999998,0.774809,0.014188,-0.007441,-0.02012,0.012161,0.007006999999999999,0.002398
158,-2.472754,-0.156513,0.318914,-0.61249,0.155875,0.774944,0.006696,-0.01168,-0.019098,0.011675,0.005166,0.006794
159,-2.4730689999999997,-0.156454,0.31919000000000003,-0.612251,0.155817,0.775145,0.0024,-0.01063,-0.011652,0.011391,0.0008150000000000001,0.00519
160,-2.473363,-0.156419,0.319245,-0.6120270000000001,0.155782,0.775329,-0.004025,-0.0074459999999999995,-0.0031550000000000003,0.008038,-0.002522,0.005921
161,-2.473403,-0.156354,0.319154,-0.612002,0.155718,0.775362,-0.005072999999999999,0.002124,0.002166,0.010623,-0.003389,0.003157
162,-2.473386,-0.156346,0.319024,-0.612016,0.15571,0.775353,-0.006135,0.003193,0.0021579999999999998,0.008195000000000001,-0.006920999999999999,0.00018999999999999998
163,-2.473393,-0.156317,0.31890599999999997,-0.6120140000000001,0.15568099999999999,0.775361,-0.003992,0.0053159999999999995,0.00217,0.002975,-0.006723999999999999,-0.000687
164,-2.47332,-0.156301,0.318859,-0.6120720000000001,0.155665,0.7753180000000001,-0.000796,0.004239,0.002194,0.002957,-0.00648,0.002301
165,-2.473235,-0.156333,0.31885,-0.612135,0.155697,0.775262,0.002409,0.0063549999999999995,0.003281,0.0012029999999999999,0.003696,-0.0018859999999999999
166,-2.473148,-0.156384,0.318829,-0.612197,0.155747,0.7752020000000001,0.002409,0.0063549999999999995,0.003281,0.005981,0.006972,-0.000544
167,-2.4731349999999996,-0.15642899999999998,0.318885,-0.6122029999999999,0.155792,0.775189,0.004524,-0.0032189999999999996,-0.0020329999999999997,0.007344,0.0072180000000000005,0.0022010000000000003
168,-2.473249,-0.156421,0.319021,-0.612116,0.15578399999999998,0.7752600000000001,0.006653,-0.007475,-0.005217,0.011789,0.001198,0.0046170000000000004
169,-2.4733490000000002,-0.156505,0.31927300000000003,-0.61203,0.155866,0.775311,0.010939,-0.006412,-0.008393000000000001,0.010437,0.006518,0.003742
170,-2.473425,-0.156593,0.319495,-0.611963,0.155954,0.775346,0.007739,-0.005339,-0.007349,0.008295,0.0030280000000000003,0.0013109999999999999
171,-2.473468,-0.156617,0.31959899999999997,-0.611927,0.155977,0.77537,-0.000801,-0.00107,-0.002073,0.006046,-0.001802,-0.000376
172,-2.473614,-0.15656199999999998,0.319488,-0.611819,0.155923,0.775466,-0.008312,-0.004265,0.004288,0.00426,0.000128,-2.8999999999999997e-05
173,-2.473847,-0.15648800000000002,0.31922399999999995,-0.611645,0.15585,0.775617,-0.013675,-0.007455,0.00746,0.0038729999999999997,-0.005933,0.00078
174,-2.4740889999999998,-0.156395,0.318852,-0.611466,0.15575799999999998,0.775777,-0.016904,-0.00853,0.01278,0.001634,-0.005383,0.002941
175,-2.4742990000000002,-0.156363,0.318467,-0.611306,0.155727,0.775909,-0.010484,-0.004292,0.012819,0.006540000000000001,-0.003261,0.005783
176,-2.474431,-0.15637,0.318228,-0.611204,0.15573399999999998,0.775989,-0.005121,-0.004285,0.006447,0.015333000000000001,-0.008654,0.0062380000000000005
177,-2.474541,-0.156397,0.31819000000000003,-0.611116,0.15575999999999998,0.776053,0.002376,-0.004285,9e-05,0.014558000000000001,-0.006926000000000001,0.013147
178,-2.474544,-0.15648900000000002,0.318346,-0.611105,0.155851,0.776044,0.010948999999999999,0.001024,-0.003061,0.010061,-0.003431,0.010104
179,-2.474479,-0.156634,0.31859299999999996,-0.6111409999999999,0.155994,0.775986,0.014188,0.005291,-0.007317000000000001,0.01701,0.001873,0.004562
180,-2.474407,-0.156743,0.318968,-0.611187,0.156102,0.775929,0.016322,-2.2e-05,-0.012637,0.018657,-0.0024920000000000003,0.002468
181,-2.47453,-0.156769,0.319364,-0.611089,0.156128,0.776001,0.015216,-0.00854,-0.012633,0.012898,-0.000733,0.007659999999999999
182,-2.4746349999999997,-0.15683,0.319628,-0.611002,0.15618800000000002,0.776058,0.009887,0.001032,-0.004137,-0.002768,0.002702,0.0023539999999999998
183,-2.474413,-0.156969,0.319735,-0.61116,0.156325,0.7759050000000001,0.008863,0.015928,0.001178,0.006668,0.007737000000000001,0.002095
184,-2.474222,-0.15709800000000002,0.319863,-0.611296,0.156453,0.775772,0.010978,0.008477,-0.002003,0.014738,0.008998,0.003296
185,-2.47421,-0.15725999999999998,0.320152,-0.6112890000000001,0.156612,0.775745,0.017365000000000002,-0.001108,-0.008355,0.01583,0.008625,0.010403
186,-2.474006,-0.157467,0.32058600000000004,-0.611427,0.156817,0.775595,0.022765999999999998,0.008482,-0.013671,0.015999,0.008191,0.009958
187,-2.473706,-0.15763,0.321162,-0.611644,0.156978,0.7753909999999999,0.024933,0.009566,-0.020066,0.015193,-0.002803,0.008376999999999999
188,-2.47342,-0.157796,0.321743,-0.61185,0.157142,0.775196,0.019618,0.014906,-0.019042,0.012941999999999999,-0.011068999999999999,0.004711
189,-2.472971,-0.15791,0.322204,-0.612187,0.157254,0.774907,0.015369999999999998,0.024487000000000002,-0.013743,0.012821,-0.005246,0.005732
190,-2.472479,-0.15799000000000002,0.32248699999999997,-0.61256,0.157333,0.774596,0.006825,0.027692,-0.008466,0.007365999999999999,0.0075379999999999996,0.00345
191,-2.471941,-0.157999,0.322504,-0.6129760000000001,0.157343,0.774265,-0.0038770000000000002,0.034065,0.005338,-0.009461,0.002111,-0.011951
192,-2.4713830000000003,-0.157926,0.32203899999999996,-0.6134149999999999,0.15727,0.773932,-0.023176,0.029802999999999996,0.022300999999999998,-0.014667,-0.002104,-0.018241
193,-2.471245,-0.1577,0.32107199999999997,-0.613544,0.157048,0.773875,-0.044648,0.011720999999999999,0.033924,-0.016385,-0.008778,-0.012569
194,-2.471431,-0.15746300000000002,0.319824,-0.613424,0.156813,0.774018,-0.047963,-0.005346,0.042469,-0.015208000000000001,-0.008162,-0.012620000000000001
195,-2.471704,-0.157327,0.31863,-0.613225,0.15667899999999998,0.774203,-0.039424,-0.006431999999999999,0.040393,-0.011042,-0.014574,-0.013827
196,-2.4719919999999997,-0.157198,0.317587,-0.613015,0.156552,0.774396,-0.036266,-0.018153,0.038294,-0.024741,-0.014157,-0.006055
197,-2.472682,-0.157118,0.316483,-0.612488,0.156472,0.774828,-0.035295,-0.034157,0.043662,-0.022094,-0.0076230000000000004,-0.005801
198,-2.473632,-0.157164,0.315431,-0.611747,0.15651800000000002,0.775404,-0.023622,-0.049107,0.042695,-0.0031969999999999998,-0.000314,-0.003035
199,-2.474905,-0.157271,0.314899,-0.61075,0.156623,0.776169,-0.00013700000000000002,-0.07357999999999999,0.015116999999999998,0.032885000000000005,0.001168,0.017578
200,-2.47649,-0.157434,0.315285,-0.609504,0.15678399999999998,0.7771170000000001,0.030913,-0.087383,-0.023105,0.039115,0.002884,0.021330000000000002
201,-2.477786,-0.157625,0.316564,-0.608477,0.156974,0.777882,0.05778099999999999,-0.071386,-0.050712,0.043214999999999996,0.004953,0.024898
202,-2.4785169999999996,-0.157945,0.3184,-0.607876,0.157289,0.778287,0.072918,-0.041551,-0.065599,0.049222,0.010161,0.027025999999999998
203,-2.478759,-0.15824100000000002,0.320432,-0.6076590000000001,0.157582,0.778397,0.073043,-0.020221,-0.072035,0.04818,0.015621000000000001,0.028717000000000003
204,-2.478711,-0.158585,0.32251599999999997,-0.6076630000000001,0.157921,0.778324,0.078468,1e-06,-0.072023,0.045422000000000004,0.021401,0.028332
205,-2.478296,-0.158996,0.32456599999999997,-0.607946,0.158327,0.7780199999999999,0.076435,0.025562,-0.068865,0.045766,0.023604,0.014933000000000002
206,-2.4774700000000003,-0.159218,0.326442,-0.608567,0.158547,0.77749,0.056179,0.032011000000000005,-0.06581000000000001,0.042359,0.020850999999999998,0.013175
207,-2.476588,-0.159176,0.327776,-0.609256,0.158505,0.776958,0.026312000000000002,0.052279,-0.046817000000000004,0.023807,0.008411,0.008381
208,-2.475505,-0.159048,0.328113,-0.610109,0.158379,0.7763140000000001,-0.014311,0.073568,-0.0076040000000000005,-0.003752,-0.008217,-0.005776
209,-2.47407,-0.158762,0.327317,-0.611251,0.15809600000000001,0.775473,-0.053909000000000006,0.087389,0.033763,-0.010651,-0.015075,-0.014075
210,-2.4729200000000002,-0.158392,0.32556199999999996,-0.612178,0.15773,0.774816,-0.079706,0.07245399999999999,0.061375,-0.022831,-0.029480000000000003,-0.016515000000000002
211,-2.472134,-0.15799100000000002,0.323267,-0.612827,0.157335,0.774384,-0.09261799999999999,0.064973,0.078386,-0.027051,-0.033037000000000004,-0.015366
212,-2.471475,-0.15766,0.320909,-0.6133689999999999,0.15700699999999998,0.7740199999999999,-0.083103,0.047887,0.080611,-0.026187000000000002,-0.028742,-0.016803
213,-2.47097,-0.15742799999999998,0.318756,-0.613783,0.156778,0.7737390000000001,-0.068205,0.032947000000000004,0.074325,-0.027407,-0.025583,-0.019894
214,-2.470686,-0.157165,0.31696799999999997,-0.614028,0.15651900000000002,0.773597,-0.054363999999999996,0.013775,0.061627999999999995,-0.035905,-0.023737,-0.023536
215,-2.470716,-0.157108,0.31556100000000004,-0.614011,0.156462,0.773623,-0.032008,-0.004383,0.054328999999999995,-0.038577,-0.014066999999999998,-0.019258
216,-2.471486,-0.15723099999999998,0.314678,-0.6134029999999999,0.156584,0.77408,-0.011824,-0.04591,0.032091,-0.034714,-0.001509,-0.017122
217,-2.472591,-0.157409,0.31451399999999996,-0.612529,0.15675999999999998,0.774736,0.015948,-0.066136,0.004536999999999999,-0.016942,0.007959,-0.008759999999999999
218,-2.473821,-0.157546,0.315281,-0.611563,0.156895,0.775472,0.044835,-0.087384,-0.034758,0.020621,0.028133,0.007379999999999999
219,-2.475469,-0.157756,0.316985,-0.610264,0.157102,0.776452,0.07053,-0.10543,-0.073011,0.030079,0.032701999999999995,0.012809000000000001
220,-2.4769930000000002,-0.157882,0.319468,-0.609067,0.157227,0.777366,0.08561,-0.100049,-0.099619,0.047208,0.032135000000000004,0.022545
221,-2.478196,-0.15798900000000002,0.322369,-0.608122,0.157333,0.778085,0.091098,-0.080834,-0.11456,0.052976,0.026169,0.033347
222,-2.479045,-0.158047,0.325289,-0.607456,0.15739,0.778594,0.087988,-0.055277,-0.109273,0.048618,0.020589,0.032091
223,-2.479509,-0.158196,0.327831,-0.607079,0.15753699999999998,0.778857,0.073076,-0.030801,-0.090181,0.038948,0.005961,0.023847
224,-2.479816,-0.158383,0.329718,-0.606822,0.157722,0.7790199999999999,0.048519,-0.010573,-0.065809,0.028727,-0.012320999999999999,0.009004999999999999
225,-2.479811,-0.158254,0.330842,-0.606838,0.157594,0.779033,0.013241,-0.000965,-0.040431,0.026302,-0.017335,0.005162
226,-2.47986,-0.157977,0.331036,-0.606827,0.15732100000000002,0.779097,-0.019937,0.010728,-0.005425999999999999,0.018356,-0.023898,0.007112
227,-2.479755,-0.157673,0.330318,-0.606938,0.15702,0.779071,-0.040275,0.029837,0.028591000000000002,0.0070079999999999995,-0.010870999999999999,0.007428
228,-2.479142,-0.157416,0.329075,-0.607441,0.15676600000000002,0.7787310000000001,-0.050934,0.050042,0.04665,0.006336,-0.010084000000000001,0.008287000000000001
229,-2.4782509999999998,-0.157228,0.327502,-0.6081529999999999,0.156581,0.778213,-0.053052999999999996,0.068099,0.061567,-0.002809,-0.004833,0.002412
230,-2.477158,-0.157115,0.325787,-0.609014,0.15647,0.777561,-0.051990999999999996,0.072335,0.06691,-0.004435000000000001,0.0142,-0.004154
231,-2.476177,-0.157126,0.32414,-0.609775,0.15648,0.776962,-0.045633,0.058482000000000006,0.062699,-0.003857,0.015653999999999998,-0.003464
232,-2.475402,-0.157126,0.322774,-0.6103770000000001,0.15648,0.776489,-0.037089,0.046789,0.048887,-0.0039570000000000004,0.013075,-0.006638
233,-2.474841,-0.157116,0.321849,-0.6108140000000001,0.15647,0.776148,-0.023219,0.027643,0.029781000000000002,-0.004268,-0.002997,-0.010218000000000001
234,-2.474679,-0.157148,0.321378,-0.6109359999999999,0.156502,0.776046,-0.008322,0.003153,0.013893,-0.006587000000000001,-0.002571,-0.004561
235,-2.474631,-0.157328,0.32132,-0.610956,0.15667899999999998,0.775994,0.010939,0.0041979999999999995,0.0022760000000000002,-0.007711,-0.0015890000000000001,0.001289
236,-2.474459,-0.157666,0.321625,-0.611057,0.157013,0.7758470000000001,0.022723,0.0042,-0.008324,0.002918,-0.014496,-0.006743000000000001
237,-2.4744200000000003,-0.157854,0.32214699999999996,-0.611069,0.157199,0.7758,0.021637,-0.008545,-0.016861,0.000458,-0.026187000000000002,-0.004346
238,-2.474598,-0.15792899999999999,0.322619,-0.610923,0.157273,0.7759,0.015178,-0.017062,-0.012623,0.000617,-0.017731999999999998,-0.004186
239,-2.474911,-0.15798199999999998,0.322936,-0.610676,0.157326,0.776084,0.011954000000000001,-0.019194,-0.009438,0.006504,-0.017738999999999998,-0.001472
240,-2.475299,-0.158031,0.32325,-0.6103689999999999,0.157374,0.776315,0.014072999999999999,-0.024519,-0.011553,0.017016,-0.013682,0.005484
241,-2.475677,-0.157973,0.323703,-0.610082,0.157317,0.7765529999999999,0.017317,-0.020248,-0.016877,0.017736000000000002,-0.006698000000000001,0.012281
242,-2.475902,-0.15802,0.324211,-0.609902,0.157363,0.7766850000000001,0.019484,-0.012799,-0.016871,0.012642,-0.004668,0.010577
243,-2.475892,-0.15806900000000002,0.324677,-0.609905,0.157411,0.776672,0.01846,0.001036,-0.012623,0.011013,0.005461,0.003418
244,-2.475828,-0.158154,0.32503899999999997,-0.609947,0.157495,0.776622,0.01526,0.004229999999999999,-0.009445,0.012107,0.010992,0.001271
245,-2.4757740000000004,-0.15825899999999998,0.325318,-0.609978,0.157599,0.7765770000000001,0.012029999999999999,-2.8000000000000003e-05,-0.007325,0.014031,0.010675,0.0040479999999999995
246,-2.475812,-0.158327,0.325546,-0.609942,0.157667,0.7765920000000001,0.010962999999999999,0.001037,-0.006266,0.013475999999999998,0.014559,0.007573000000000001
247,-2.47582,-0.158424,0.32571500000000003,-0.609927,0.15776199999999999,0.776584,0.0056240000000000005,0.002112,-0.004168,0.013338999999999998,-0.001695,0.002392
248,-2.475724,-0.15848199999999998,0.325798,-0.609995,0.15782000000000002,0.776519,0.001362,0.006375,-0.000999,0.009623,-0.006346,6.2e-05
249,-2.4756709999999997,-0.158474,0.325698,-0.610038,0.15781099999999998,0.776488,-0.008269,0.0053219999999999995,0.004275999999999999,0.0048130000000000004,-0.010823000000000001,0.002046
250,-2.475709,-0.15848099999999998,0.32545100000000005,-0.610008,0.157818,0.776511,-0.010435999999999999,0.0031780000000000003,0.009604999999999999,0.002448,-0.01199,0.000375
251,-2.475696,-0.15848299999999998,0.325167,-0.6100180000000001,0.15782100000000002,0.776502,-0.008302,0.004231,0.010687,0.0034200000000000003,-0.012466,-0.00010400000000000001
252,-2.475634,-0.158493,0.324909,-0.610065,0.15783,0.776463,-0.006145,0.008489,0.009628,0.001957,-0.007012999999999999,-0.00063
253,-2.475548,-0.15851300000000001,0.32467399999999996,-0.6101300000000001,0.15785,0.776409,-0.004025,0.006347,0.010714,-0.000634,0.004046,-0.001873
254,-2.475489,-0.158563,0.324464,-0.610171,0.157899,0.776366,-0.002963,0.004217,0.009656,-0.001325,0.004347,-0.0037380000000000004
255,-2.475462,-0.15857000000000002,0.324348,-0.610191,0.157907,0.776349,-0.0008150000000000001,0.001039,0.003266,0.006996,0.005378,-0.001629
256,-2.47558,-0.158559,0.324361,-0.610101,0.157896,0.7764220000000001,0.003428,-0.009607,-0.002032,0.012933000000000002,0.005404,0.009436
257,-2.475797,-0.158577,0.32456,-0.60993,0.157913,0.776552,0.008772,-0.0128,-0.007331999999999999,0.014363999999999998,0.008102,0.008756
258,-2.475946,-0.15862,0.324849,-0.6098100000000001,0.15795599999999999,0.776638,0.008825,-0.0063869999999999994,-0.012681,0.013663999999999999,-0.002911,0.005085
259,-2.476048,-0.15858,0.325092,-0.609735,0.157916,0.776705,0.002409,-0.007437999999999999,-0.010588,0.010416,-0.005023,0.006712
260,-2.476249,-0.158523,0.325204,-0.609584,0.157859,0.776835,0.000242,-0.008522,-0.004192,0.00674,-0.005012,0.002447
261,-2.476354,-0.158486,0.32521500000000003,-0.609506,0.157824,0.776903,-0.0008300000000000001,-0.004278,0.0011359999999999999,0.006662,-0.0049759999999999995,0.002379
262,-2.476489,-0.15848800000000002,0.32516,-0.609402,0.157825,0.776985,-0.002949,-0.004258,-0.002084,0.011852,-0.004398,-0.000251
263,-2.476658,-0.158419,0.32518600000000003,-0.609276,0.15775799999999998,0.777096,0.002376,-0.0064069999999999995,-0.0020440000000000002,0.006539,-0.0027129999999999997,0.006305
264,-2.476823,-0.158399,0.325253,-0.60915,0.15773800000000002,0.777199,0.001309,-0.007465,-0.003118,0.004749000000000001,-0.002892,0.003914
265,-2.476814,-0.15842799999999999,0.325317,-0.609155,0.15776700000000002,0.7771899999999999,0.004553,0.004234,-0.000974,0.004479,-0.002859,0.000962
266,-2.476697,-0.15845599999999999,0.3254,-0.6092420000000001,0.15779300000000002,0.777116,0.004567,0.006368,-0.002045,0.003743,-0.004809000000000001,0.000915
267,-2.4766939999999997,-0.158468,0.325452,-0.609244,0.157806,0.777112,0.001314,-0.0032159999999999997,8.1e-05,0.00527,-0.004318,0.001986
268,-2.476748,-0.15847999999999998,0.325422,-0.609201,0.157817,0.777144,-0.0008150000000000001,-2.2e-05,0.002199,0.005884,0.000951,0.002337
269,-2.476681,-0.15851300000000001,0.325366,-0.6092489999999999,0.15785,0.777099,0.001342,0.006358,0.003274,0.008144,-0.009275,0.0017100000000000001
270,-2.476614,-0.158548,0.325278,-0.609298,0.157884,0.777053,0.000252,0.004219,0.006474,0.007354,-0.0061200000000000004,0.004197
271,-2.476583,-0.158627,0.325155,-0.609314,0.157962,0.777025,0.00023700000000000001,0.003145,0.008611,0.004776,-0.001376,0.003218
272,-2.476523,-0.15873800000000002,0.32502,-0.60935,0.158073,0.7769739999999999,0.000252,0.006340999999999999,0.008607,0.007193000000000001,-0.009589,0.00014099999999999998
273,-2.4763919999999997,-0.158835,0.32487699999999997,-0.6094430000000001,0.158168,0.776882,0.001323,0.007402,0.008614,0.006965000000000001,-0.01028,0.00033999999999999997
274,-2.476373,-0.158903,0.324807,-0.6094510000000001,0.158235,0.7768619999999999,0.003443,-0.001106,0.0032979999999999997,0.011398,-0.006166,0.0049369999999999995
275,-2.476481,-0.158975,0.324857,-0.60936,0.158306,0.7769189999999999,0.006638,-0.005365,0.000121,0.007599,-0.005016,0.0043619999999999996
276,-2.476474,-0.159083,0.324975,-0.609354,0.158413,0.7769010000000001,0.0077480000000000005,0.003157,-0.00095,0.007258,-0.002911,0.007476999999999999
277,-2.476338,-0.159173,0.32506399999999996,-0.609452,0.158501,0.7768079999999999,0.007758,0.007409999999999999,0.001181,0.0074930000000000005,-0.005959000000000001,0.0026260000000000003
278,-2.47626,-0.159271,0.325117,-0.609502,0.158599,0.776748,0.006667,0.001026,0.000113,0.008596,-0.007903,0.0008849999999999999
279,-2.4763290000000002,-0.159341,0.32516100000000003,-0.609442,0.158668,0.776781,0.0045049999999999995,-0.004297,0.001173,0.004828,-0.006934,0.003401
280,-2.476453,-0.15946,0.325198,-0.609334,0.15878499999999998,0.776842,0.007696,-0.005378,0.0022649999999999997,0.006520000000000001,-0.004625,0.004667
281,-2.476531,-0.15958699999999998,0.325313,-0.6092609999999999,0.15891,0.776874,0.010925,-0.00218,-0.000921,0.012628,-0.007298999999999999,0.0055049999999999995
282,-2.476481,-0.159744,0.32559299999999997,-0.6092850000000001,0.159066,0.776824,0.017369,0.001019,-0.007289,0.014847999999999998,-0.0038229999999999996,0.00557
283,-2.476408,-0.159882,0.32599,-0.609329,0.159202,0.776762,0.019527000000000003,0.002093,-0.011549,0.009643,0.007988,0.0029010000000000004
284,-2.4762419999999996,-0.160004,0.326368,-0.609445,0.159322,0.7766460000000001,0.016346,0.007427,-0.010509000000000001,0.009409,0.0029850000000000002,-0.001973
285,-2.4761729999999997,-0.159972,0.32662199999999997,-0.609503,0.15929000000000001,0.776608,0.002424,-0.00106,-0.007391,0.003836,0.001263,0.007541
286,-2.476267,-0.159965,0.326621,-0.60943,0.15928399999999998,0.776666,-0.001882,-1.8e-05,0.002191,0.006296,0.005267,-0.0011539999999999999
287,-2.476225,-0.159935,0.3265,-0.609466,0.159254,0.776645,-0.007197,0.004262,0.002149,0.006729000000000001,0.003512,0.001691
288,-2.476269,-0.159828,0.326359,-0.609442,0.159149,0.7766850000000001,-0.00935,-0.002114,5e-06,0.009115,0.003144,0.0034659999999999995
289,-2.476411,-0.159726,0.326248,-0.609342,0.159048,0.7767850000000001,-0.006174,-0.00639,0.001101,0.002774,-0.002477,0.002054
290,-2.4765900000000003,-0.159669,0.326119,-0.609209,0.158992,0.7769,-0.006178,-0.0063950000000000005,0.00217,0.0015119999999999999,-0.002742,-0.001449
291,-2.476607,-0.159649,0.325998,-0.609197,0.158972,0.776913,-0.005068,0.00425,0.003232,0.004751,-0.007909999999999999,-0.0018280000000000002
292,-2.476654,-0.159619,0.325881,-0.609163,0.158942,0.776946,-0.006169,-0.004264,0.002167,0.002092,-0.011221,-0.000213
293,-2.47689,-0.1595,0.32574699999999995,-0.608992,0.158824,0.777104,-0.008336,-0.011713,0.0021609999999999997,-0.001024,-0.00584,0.001216
294,-2.477099,-0.159391,0.325623,-0.6088399999999999,0.158716,0.777246,-0.006183,-0.008520999999999999,0.001104,0.001739,-0.008005,0.000113
295,-2.4772529999999997,-0.159314,0.325561,-0.608729,0.158641,0.777349,-0.001916,-0.008536,0.001134,0.009791,-0.006053,0.003397
296,-2.477439,-0.159282,0.325561,-0.608587,0.15861,0.777466,0.000223,-0.0096,-0.000986,0.008901000000000001,-0.002467,0.0060880000000000005
297,-2.477619,-0.159301,0.3256,-0.608445,0.158628,0.777573,0.003428,-0.006423999999999999,0.001168,0.010804000000000001,-0.001463,0.008453
298,-2.4776290000000003,-0.159361,0.32560900000000004,-0.608431,0.15868800000000002,0.777572,0.004533,0.004217,0.0032990000000000003,0.01462,-0.0013390000000000001,0.006043
299,-2.4774849999999997,-0.159492,0.32559299999999997,-0.60853,0.158817,0.777468,0.005605,0.0074,0.005439,0.015116,-0.00046100000000000004,0.006498
300,-2.4774380000000003,-0.159585,0.32559299999999997,-0.608558,0.158909,0.777428,0.004524,0.001025,0.002235,0.021232,-0.0038640000000000002,0.008995
301,-2.4775009999999997,-0.159653,0.32567399999999996,-0.6085020000000001,0.158976,0.777458,0.007739,-0.0010949999999999998,-0.003081,0.020123,-0.009882,0.010918
302,-2.477491,-0.15975799999999998,0.325867,-0.6085,0.159079,0.777438,0.012029999999999999,0.002094,-0.0051920000000000004,0.015986,-0.014182,0.012097
303,-2.477224,-0.15993800000000002,0.32613000000000003,-0.60869,0.15925699999999998,0.777254,0.016374,0.019122999999999998,-0.005183,0.010209000000000001,-0.014846999999999999,0.0060409999999999995
304,-2.476743,-0.160162,0.326357,-0.6090409999999999,0.159478,0.776933,0.015327,0.027632,-0.0009289999999999999,0.003725,-0.010705,-0.0005809999999999999
305,-2.476281,-0.16033699999999998,0.326489,-0.609383,0.159651,0.776629,0.009973000000000001,0.025512,0.001173,0.0018690000000000002,0.003725,-0.0076170000000000005
306,-2.4758310000000003,-0.160441,0.32658200000000004,-0.609722,0.159754,0.776342,0.004625,0.021274,7.3e-05,-0.0010869999999999999,-0.000421,-0.00646
307,-2.475597,-0.160401,0.32659,-0.609908,0.15971400000000002,0.776204,0.0003,0.008505,5.9e-05,-0.005738,0.00502,-0.000356
308,-2.4753950000000002,-0.16037200000000001,0.326575,-0.610068,0.159685,0.776085,-0.005078,-0.0010630000000000001,3.4e-05,-0.0048460000000000005,0.014081999999999999,-0.002052
309,-2.475463,-0.160303,0.326479,-0.610021,0.159618,0.776135,-0.005083,-7.000000000000001e-06,0.002169,-0.004893,0.014149,-0.002102
310,-2.475444,-0.160247,0.326292,-0.610042,0.15956199999999998,0.77613,-0.010426999999999999,0.001064,0.005335,-0.0018210000000000001,-0.007004000000000001,-0.009833
311,-2.475591,-0.16012300000000002,0.326058,-0.6099399999999999,0.15944,0.776235,-0.01369,-0.012773,0.00533,-0.0043490000000000004,-0.012559,0.004282
312,-2.476034,-0.160082,0.325805,-0.6096,0.159399,0.776511,-0.006268999999999999,-0.020269,0.008596,-0.003804,-0.008017,0.004327
313,-2.476238,-0.160211,0.32566999999999996,-0.609429,0.159527,0.776619,0.001271,-0.0043159999999999995,0.008628,0.005577,-0.01083,0.0012289999999999998
314,-2.476289,-0.16026500000000002,0.325621,-0.609384,0.15958,0.776642,0.001295,-0.006416,0.0011539999999999999,0.015085,-0.010364,0.003997
315,-2.476607,-0.160255,0.325687,-0.609137,0.15957000000000002,0.776838,0.0033799999999999998,-0.02132,-0.0030859999999999998,0.011817,-0.009347,0.006959999999999999
316,-2.47697,-0.16025799999999998,0.325761,-0.608855,0.159573,0.777058,0.004471,-0.014937,-0.002018,0.011413,-0.007245000000000001,0.010631
317,-2.477086,-0.160349,0.325906,-0.6087560000000001,0.159663,0.7771170000000001,0.012001000000000001,-0.001115,-0.001983,0.021598,-0.0039770000000000005,0.010740000000000001
318,-2.4769959999999998,-0.16054100000000002,0.326162,-0.608807,0.159852,0.777039,0.016307,0.00421,-0.0051649999999999995,0.023343,-0.005997,0.009353
319,-2.476934,-0.160572,0.326391,-0.6088520000000001,0.159882,0.776998,0.007776999999999999,0.0031829999999999996,-0.007359,0.021190999999999998,-0.0047009999999999994,0.005549
320,-2.476877,-0.16053199999999998,0.326556,-0.608901,0.159844,0.776968,0.004581,0.004259000000000001,-0.007383,0.014571,-0.002663,0.010828
321,-2.476771,-0.16053499999999998,0.326777,-0.6089829999999999,0.15984600000000002,0.776903,0.008858,0.005314,-0.008423,0.015538,0.000204,0.011015
322,-2.476597,-0.160591,0.327043,-0.609113,0.159902,0.77679,0.011021,0.011698,-0.008416,0.011044,0.00031600000000000004,0.006139
323,-2.476375,-0.160664,0.327308,-0.609278,0.159973,0.776645,0.009959,0.013828,-0.007358,0.004069,-0.002823,-0.0008730000000000001
324,-2.476106,-0.1607,0.327506,-0.609483,0.16000999999999999,0.7764770000000001,0.004605,0.011708,-0.005256,0.000978,-0.006125,-0.0004
325,-2.4759740000000003,-0.160724,0.327585,-0.609583,0.16003199999999998,0.7763939999999999,0.0035,0.0074329999999999995,-0.000985,-0.001531,-0.0008529999999999999,-0.00436
326,-2.475848,-0.16075899999999999,0.32762399999999997,-0.6096779999999999,0.16006800000000002,0.776312,0.002414,0.005298,0.001146,-0.0011769999999999999,0.000989,-0.005118
327,-2.475748,-0.16079100000000002,0.32766100000000004,-0.6097520000000001,0.160099,0.776247,0.002414,0.0042369999999999994,7.900000000000001e-05,0.001598,0.002834,-0.004122
328,-2.475727,-0.160779,0.327685,-0.609769,0.16008699999999998,0.7762359999999999,-0.0008060000000000001,-1.3000000000000001e-05,6.2e-05,-0.001239,-0.003486,-0.004141
329,-2.475768,-0.16073199999999999,0.32758200000000004,-0.609742,0.16004100000000002,0.776266,-0.008298,-0.0010689999999999999,0.0042840000000000005,0.000322,-0.0073620000000000005,-0.00469
330,-2.475877,-0.160617,0.327339,-0.6096689999999999,0.15992699999999999,0.7763479999999999,-0.012598999999999999,-0.005328,0.007464,0.000721,-0.009765000000000001,-0.001155
331,-2.476118,-0.160521,0.32700999999999997,-0.609491,0.159832,0.776506,-0.014771000000000001,-0.011720999999999999,0.009594,0.007258,-0.008389,0.009718000000000001
332,-2.476396,-0.160474,0.326733,-0.6092810000000001,0.15978599999999998,0.776682,-0.007287999999999999,-0.009612,0.008575,0.007732999999999999,-0.0054280000000000005,0.008719
333,-2.476524,-0.160494,0.326575,-0.609179,0.159806,0.7767569999999999,-0.0008439999999999999,-0.00323,0.005407,0.012957,-0.008362999999999999,0.008962999999999999
334,-2.476522,-0.160544,0.32659699999999997,-0.609176,0.159855,0.77675,0.0056,0.00103,0.000106,0.014419,-0.011661,0.00215
335,-2.4765650000000003,-0.16059600000000002,0.326795,-0.609137,0.159906,0.77677,0.009868,-0.0074730000000000005,-0.008399,0.011511,-0.010294,0.004556
336,-2.476762,-0.160641,0.327065,-0.60898,0.159951,0.776884,0.01093,-0.009603,-0.009457,0.007295,-0.0071189999999999995,0.006273
337,-2.476861,-0.160674,0.32734800000000003,-0.608899,0.159984,0.77694,0.009892,-0.003208,-0.009473,0.008648999999999999,-0.007731999999999999,0.003379
338,-2.476902,-0.160705,0.327608,-0.6088640000000001,0.16001400000000002,0.776961,0.009882,-0.004277,-0.008403,0.007271,-0.004847,0.007509
339,-2.476892,-0.160774,0.327813,-0.608865,0.160082,0.776946,0.010962999999999999,0.004220000000000001,-0.003065,0.004983,0.000364,0.004838
340,-2.476722,-0.16092599999999999,0.32796,-0.608982,0.16023199999999999,0.7768229999999999,0.012048999999999999,0.01166,0.00013700000000000002,0.012318,0.000733,-0.000837
341,-2.476545,-0.16103399999999998,0.3281,-0.609109,0.160338,0.776702,0.007772,0.006361,-0.00309,0.010156,-0.002334,0.000489
342,-2.476539,-0.16108599999999998,0.328252,-0.609109,0.160391,0.776692,0.005605,-0.002149,-0.004163,0.005334,-0.000356,0.005138
343,-2.476584,-0.16109500000000002,0.328288,-0.609073,0.160399,0.776718,-0.000801,0.002113,0.0011279999999999999,0.00722,-0.000136,0.000534
344,-2.476479,-0.16111099999999998,0.328254,-0.609152,0.160415,0.776652,0.00029,0.007436,0.001129,0.009574,-0.004592000000000001,0.001866
345,-2.476436,-0.161133,0.328258,-0.6091840000000001,0.160437,0.776623,0.00024700000000000004,-0.002152,0.001141,0.009986,-0.011496,0.003483
346,-2.476571,-0.16112100000000001,0.328173,-0.6090800000000001,0.160424,0.7767069999999999,-0.004045,-0.005340999999999999,0.003251,0.0018260000000000001,-0.009622,0.0008960000000000001
347,-2.476661,-0.161117,0.328056,-0.609011,0.160421,0.776762,-0.00403,-2.3e-05,0.005381,0.0022600000000000003,-0.010473,0.00049
348,-2.4766220000000003,-0.161123,0.327909,-0.6090399999999999,0.160427,0.776738,-0.002939,0.005299,0.005382,0.008485,-0.012539,0.002254
349,-2.476528,-0.161154,0.32784,-0.609111,0.160458,0.776676,0.002395,0.005281,0.005419,0.005854,-0.005291,0.002682
350,-2.4764470000000003,-0.161234,0.327802,-0.609165,0.16053599999999998,0.776617,0.004524,0.003147,0.004369,0.004001,0.002275,0.002313
351,-2.4763759999999997,-0.16131600000000001,0.32776500000000003,-0.609212,0.160617,0.776563,0.001328,0.004222999999999999,0.004345,0.0032700000000000003,0.001889,0.00252
352,-2.4763439999999997,-0.16136,0.327706,-0.609232,0.160661,0.7765380000000001,0.00024700000000000004,0.001031,0.004340999999999999,0.007319,-0.0011,0.001599
353,-2.476375,-0.161369,0.32760100000000003,-0.6092069999999999,0.160669,0.776556,-0.002968,-3.1e-05,0.006456999999999999,0.0070799999999999995,-0.011484000000000001,0.005564
354,-2.476412,-0.161402,0.32744,-0.609175,0.160702,0.776574,-0.002973,-3.5e-05,0.007525,0.0050030000000000005,-0.012051000000000001,0.0035619999999999996
355,-2.476451,-0.161456,0.32726900000000003,-0.60914,0.16075599999999998,0.77659,-0.004045,-0.001097,0.007519,0.006021,-0.011401999999999999,0.001425
356,-2.476603,-0.161455,0.32712199999999997,-0.6090220000000001,0.160754,0.776683,-0.004059,-0.0064150000000000006,0.005389,0.002653,-0.0026579999999999998,0.002507
357,-2.476741,-0.161451,0.327002,-0.608915,0.160751,0.776768,-0.001906,-0.003222,0.004332,0.003324,-0.0008849999999999999,0.001675
358,-2.476799,-0.16145299999999999,0.326975,-0.60887,0.160753,0.776803,0.002385,-0.0021550000000000002,8.7e-05,0.006483,0.000105,0.000984
359,-2.476887,-0.161504,0.327056,-0.608796,0.160803,0.77685,0.00771,-0.005365,-0.0009390000000000001,0.011918000000000002,-0.0035759999999999998,0.002843
360,-2.47696,-0.16159300000000001,0.32718400000000003,-0.60873,0.160891,0.776883,0.007723999999999999,-0.004291,-0.003077,0.012036,-0.008028,0.003619
361,-2.4769959999999998,-0.161673,0.32727399999999995,-0.608694,0.16097,0.776895,0.005591,-0.001101,0.000109,0.014624000000000002,-0.012288,0.009984999999999999
362,-2.4769639999999997,-0.161771,0.327334,-0.6087100000000001,0.16106700000000002,0.7768619999999999,0.006677,0.004218,0.001178,0.012656,-0.010936,0.010537000000000001
363,-2.476826,-0.161935,0.327414,-0.608801,0.16122899999999998,0.776758,0.009901,0.008472,0.000126,0.016744,-0.011493999999999999,0.008826
364,-2.476669,-0.162046,0.32759299999999997,-0.608912,0.161338,0.776648,0.009916,0.006363000000000001,-0.005212,0.015696,-0.013312000000000001,0.003793
365,-2.476603,-0.162083,0.327754,-0.608959,0.161375,0.776604,0.008834,0.005292,-0.003082,0.004954999999999999,-0.003629,0.004799
366,-2.476338,-0.162227,0.327896,-0.60915,0.161517,0.776424,0.011011,0.016994,-0.0009449999999999999,0.0036969999999999998,-0.003222,0.004475
367,-2.475927,-0.162421,0.32806199999999996,-0.6094510000000001,0.161708,0.776149,0.015297999999999999,0.021241,-0.000921,0.004867,-0.000285,0.0034840000000000006
368,-2.475602,-0.16256700000000002,0.328303,-0.609688,0.161852,0.775932,0.015288,0.013805000000000001,-0.006252000000000001,0.001564,0.00337,-0.003945000000000001
369,-2.475435,-0.162617,0.328518,-0.609812,0.161901,0.775824,0.005643,0.004251,-0.006307,-0.002477,0.00242,-0.00611
370,-2.475436,-0.162545,0.32858699999999996,-0.609819,0.16183,0.775834,-0.001853,8e-06,-0.004218,0.0038009999999999997,-0.008235,-0.006714
371,-2.475502,-0.162455,0.328644,-0.609777,0.161741,0.775885,-0.002935,-0.006367,-0.007422,0.004018,-0.015257,-0.00228
372,-2.475737,-0.162433,0.32874200000000003,-0.609596,0.16172,0.776031,0.003423,-0.011733,-0.003098,-0.0023120000000000003,-0.014793,0.009415
373,-2.4757990000000003,-0.16254000000000002,0.328789,-0.609538,0.161825,0.776055,0.005586,0.001017,0.00331,-0.001363,-0.0129,-0.003258
374,-2.475693,-0.162677,0.328734,-0.6096060000000001,0.16196,0.7759739999999999,0.000252,0.006340999999999999,0.008607,0.000551,-0.012501,-0.005908
375,-2.475629,-0.162695,0.32850799999999997,-0.609654,0.161978,0.775932,-0.009373999999999999,0.00317,0.010681,-0.000117,-0.010336,-0.007056999999999999
376,-2.475779,-0.16256600000000002,0.32809499999999997,-0.6095510000000001,0.161851,0.77604,-0.017976,-0.008531,0.01384,0.001351,-0.004838,0.000983
377,-2.4761580000000003,-0.16247799999999998,0.32762399999999997,-0.609265,0.16176400000000002,0.7762819999999999,-0.016957,-0.017065,0.015995,0.002072,-0.002859,0.001428
378,-2.476528,-0.162417,0.327223,-0.608984,0.161704,0.776516,-0.011609,-0.014949,0.014961000000000002,0.009466,-0.00046399999999999995,0.006840000000000001
379,-2.476834,-0.162401,0.326944,-0.608748,0.161688,0.776704,-0.0062450000000000006,-0.013881000000000001,0.009656,0.019728,0.0040219999999999995,0.016066
380,-2.477088,-0.16245,0.32685,-0.608546,0.161736,0.776853,0.003404,-0.010689,0.002242,0.026698000000000003,0.003944,0.013994999999999999
381,-2.4771970000000003,-0.16256099999999998,0.32711399999999996,-0.60845,0.161846,0.776904,0.015216,-0.007479,-0.011567000000000001,0.035864,0.009784000000000001,0.012753
382,-2.477379,-0.162605,0.327716,-0.608304,0.161889,0.7770100000000001,0.020589,-0.014891,-0.027543,0.021177,-0.006402,0.015715
383,-2.477618,-0.162473,0.32846,-0.608132,0.161759,0.777172,0.015284,-0.014846000000000002,-0.033989,0.012612,-0.01204,0.016011
384,-2.477652,-0.162348,0.32903699999999997,-0.608118,0.161636,0.777208,0.012117000000000001,0.004293,-0.022285,0.007456,-0.024246,0.0066359999999999995
385,-2.477486,-0.162386,0.329323,-0.608244,0.161673,0.777103,0.006749,0.013831,-0.0052439999999999995,-0.005647999999999999,-0.033575,-0.00041500000000000006
386,-2.477146,-0.162511,0.329226,-0.608495,0.161796,0.77688,-0.000767,0.022302000000000002,0.013921000000000001,-0.011362,-0.033333,-0.004647999999999999
387,-2.476775,-0.162688,0.328777,-0.608766,0.161971,0.776632,-0.00935,0.024411000000000002,0.026677,-0.00981,-0.029891,-0.015538999999999999
388,-2.4765200000000003,-0.162642,0.32816999999999996,-0.6089680000000001,0.161926,0.776483,-0.018976,0.016996999999999998,0.024483,-0.004603,-0.003906,-0.0015660000000000001
389,-2.476324,-0.162652,0.327629,-0.60912,0.161936,0.776362,-0.011508,0.012726000000000001,0.020268,-0.0029100000000000003,0.0053159999999999995,-0.000132
390,-2.47611,-0.162664,0.327392,-0.6092850000000001,0.161948,0.77623,0.002409,0.010598999999999999,0.007548999999999999,0.004945000000000001,0.009836,0.0064849999999999994
391,-2.475922,-0.162689,0.327565,-0.609428,0.161972,0.776113,0.014174,0.002095,-0.007312999999999999,0.01873,0.031525,0.008006000000000001
392,-2.475857,-0.16278199999999998,0.328117,-0.6094689999999999,0.162064,0.776062,0.024881,-0.005335,-0.023252000000000002,0.019656,0.028305,0.003113
393,-2.475914,-0.162866,0.328949,-0.609417,0.162147,0.776085,0.031282,-0.013846,-0.031742,0.01762,0.008461,0.012809000000000001
394,-2.4760400000000002,-0.16300599999999998,0.329827,-0.609305,0.16228499999999998,0.776145,0.030229000000000002,-0.007462999999999999,-0.028553,0.004782,-0.013115,0.006723000000000001
395,-2.475942,-0.163176,0.330418,-0.609364,0.162453,0.7760630000000001,0.01635,0.006370000000000001,-0.012645,0.001576,-0.020943,-0.001725
396,-2.475847,-0.16325499999999998,0.330417,-0.60943,0.16253099999999998,0.775995,-0.007206999999999999,0.006375,0.006418999999999999,-0.002447,-0.030282999999999997,-0.008783
397,-2.4759,-0.163262,0.329936,-0.609388,0.162537,0.776026,-0.019033,0.003152,0.023431999999999998,-0.001268,-0.022111000000000002,-0.000956
398,-2.476039,-0.163163,0.32914699999999997,-0.60929,0.16244,0.7761239999999999,-0.029731,0.0021030000000000003,0.0287,-0.000481,-0.020716,-0.000123
399,-2.476107,-0.162959,0.328346,-0.609258,0.16223900000000002,0.776191,-0.029702,0.004251,0.024424,0.007573999999999999,-0.014213,-0.001457
400,-2.476154,-0.162731,0.327784,-0.609245,0.16201400000000002,0.776249,-0.020072,-0.002123,0.011681,0.012519,-0.005474000000000001,0.002071
401,-2.476362,-0.16248900000000002,0.32760900000000004,-0.609107,0.161775,0.776407,-0.006178,-0.012761,-0.004232,0.017051,-0.002137,0.011633
402,-2.476451,-0.162441,0.327903,-0.609043,0.161727,0.776467,0.016331000000000002,-0.003196,-0.017974,0.015568,0.00116,0.017432
403,-2.476318,-0.162579,0.32861399999999996,-0.609133,0.161864,0.776369,0.034520999999999996,0.003153,-0.023196,0.015000999999999999,0.004,0.013090000000000001
404,-2.4761509999999998,-0.16281800000000002,0.329444,-0.6092380000000001,0.1621,0.776237,0.033458999999999996,0.0031609999999999997,-0.024271,0.0071719999999999996,0.002924,-0.002494
405,-2.476044,-0.162964,0.330084,-0.6093069999999999,0.162243,0.776153,0.020613,-1.4999999999999999e-05,-0.017948,0.00451,-0.001004,-0.004653
406,-2.476097,-0.16298900000000002,0.330403,-0.609263,0.162269,0.7761819999999999,0.004533,-0.006393,-0.007370000000000001,0.002314,-0.00962,-0.003385
407,-2.4763900000000003,-0.162883,0.330426,-0.609047,0.162164,0.776374,-0.009408,-0.017019,-0.002112,-0.004036,-0.019265,-0.004371
408,-2.476773,-0.162706,0.330176,-0.608766,0.16198900000000002,0.77663,-0.016914,-0.017027,0.006381,-0.004149,-0.020983,-0.004413
409,-2.477148,-0.162512,0.329729,-0.608495,0.161797,0.776883,-0.022262999999999998,-0.012777,0.013816,-0.006159,-0.023049,-0.002637
410,-2.47745,-0.162331,0.329252,-0.608278,0.161619,0.77709,-0.017991,-0.010666,0.014911,-0.000334,-0.011228,0.0013830000000000001
411,-2.4776689999999997,-0.162298,0.328938,-0.608111,0.16158599999999998,0.777227,-0.0040880000000000005,-0.009623,0.008598,0.003817,-0.004543,0.0033520000000000004
412,-2.477864,-0.16238699999999998,0.32895599999999997,-0.607951,0.161674,0.777334,0.009815,-0.009642,0.001217,0.009654000000000001,0.000741,0.0041600000000000005
413,-2.4779880000000003,-0.162443,0.329179,-0.607849,0.16172999999999998,0.777402,0.013054,-0.008558,-0.006239,0.013336,0.002165,0.008136
414,-2.478049,-0.162551,0.32950300000000005,-0.607791,0.16183599999999998,0.7774260000000001,0.016283000000000002,-0.005361,-0.009425,0.015338,0.001525,0.0064340000000000005
415,-2.478137,-0.16269,0.329842,-0.607708,0.161973,0.777462,0.018407,-0.006437999999999999,-0.008341,0.018094,0.0034170000000000003,0.013188
416,-2.478221,-0.162868,0.330205,-0.607625,0.162149,0.77749,0.018422,-0.003242,-0.008345,0.025823000000000002,0.003073,0.014685
417,-2.478218,-0.16303399999999998,0.33058000000000004,-0.60761,0.16231199999999998,0.777467,0.01524,-0.001092,-0.010506,0.025823000000000002,0.000819,0.015853
418,-2.478143,-0.163136,0.330847,-0.607658,0.162413,0.777408,0.00992,0.007428,-0.005213000000000001,0.018791,-0.004027,0.013364
419,-2.477897,-0.16322799999999998,0.330941,-0.607841,0.162504,0.777246,0.003553,0.019150999999999998,-0.001,0.016456000000000002,-0.012022,0.005072
420,-2.4775080000000003,-0.163253,0.33092699999999997,-0.60814,0.162528,0.777007,-0.0007099999999999999,0.022353,0.001103,0.017075999999999997,-0.014944999999999998,0.002794
421,-2.4771229999999997,-0.16327,0.33079899999999995,-0.608438,0.162546,0.77677,-0.00391,0.027669,0.0064150000000000006,-0.0016239999999999998,-0.011758,0.000742
422,-2.476553,-0.16330899999999998,0.330522,-0.608877,0.16258399999999998,0.776418,-0.007111,0.035108,0.013859999999999999,-0.003825,-0.009385,0.000148
423,-2.47586,-0.163339,0.33013000000000003,-0.6094109999999999,0.162614,0.775992,-0.010302,0.042554,0.01917,-0.004908,-0.010148,-0.004599
424,-2.4751689999999997,-0.16331800000000002,0.32965500000000003,-0.609949,0.16259300000000002,0.775573,-0.014603,0.037233999999999996,0.021283,-0.016073,-0.010616,-0.014219999999999998
425,-2.474687,-0.163261,0.329041,-0.610328,0.16253599999999999,0.7752859999999999,-0.022152,0.021273,0.023387,-0.01838,-0.014358000000000001,-0.015413999999999999
426,-2.474601,-0.163149,0.32839,-0.610406,0.162427,0.775247,-0.02222,0.003176,0.020205,-0.01644,-0.012952000000000002,-0.011713
427,-2.474789,-0.163018,0.327931,-0.610274,0.162297,0.775378,-0.013713,-0.011733,0.011738,-0.000475,0.002101,0.001172
428,-2.475076,-0.16304100000000002,0.327842,-0.610049,0.16231900000000002,0.775551,0.005519,-0.01708,0.000128,-5.9e-05,0.0034219999999999997,0.00045
429,-2.475316,-0.163133,0.32810900000000004,-0.609853,0.162411,0.775686,0.014102000000000002,-0.016006,-0.009427,-0.001857,-0.001431,-0.000799
430,-2.475531,-0.16319,0.328492,-0.609681,0.162467,0.775809,0.014102000000000002,-0.018128000000000002,-0.011561,0.0039369999999999995,-0.010703,-0.005256
431,-2.476018,-0.163173,0.328854,-0.609304,0.16245,0.776109,0.0076430000000000005,-0.035133,-0.015857,0.008138,-0.010183,-0.002778
432,-2.476877,-0.163102,0.329194,-0.608645,0.16238,0.776641,0.007576,-0.050046,-0.015837999999999998,0.010546,-0.013836000000000001,0.004761
433,-2.477757,-0.163037,0.329522,-0.6079680000000001,0.16231500000000001,0.777185,0.008667,-0.042602,-0.013704,0.015057,-0.013374,0.014212
434,-2.478376,-0.16304000000000002,0.329818,-0.607486,0.16231800000000002,0.777561,0.008719,-0.027701,-0.010518000000000001,0.019809,-0.016582,0.012631
435,-2.478745,-0.16303800000000002,0.330029,-0.6072,0.16231600000000002,0.7777850000000001,0.0055520000000000005,-0.015989,-0.006282,0.017554,-0.017938,0.012315000000000001
436,-2.478952,-0.163008,0.330098,-0.6070409999999999,0.162287,0.777914,0.0023710000000000003,-0.006412,-0.000975,0.011796,-0.017512,0.008249
437,-2.479059,-0.163051,0.33011,-0.606953,0.162329,0.7779729999999999,0.0023710000000000003,-0.003229,0.002225,0.011493999999999999,-0.010687,0.009182
438,-2.4790919999999996,-0.163114,0.330121,-0.606921,0.162392,0.777985,0.004533,0.002095,0.001165,0.014407,0.00041900000000000005,0.009368000000000001
439,-2.4790229999999998,-0.163205,0.33019499999999996,-0.606965,0.162481,0.777931,0.009897,0.007406,0.000128,0.016023,-0.002218,0.008888
440,-2.4788419999999998,-0.163363,0.330335,-0.6070909999999999,0.16263699999999998,0.7778010000000001,0.012048999999999999,0.010598999999999999,-0.00093,0.015386000000000002,-0.003839,0.009613
441,-2.4786259999999998,-0.16353,0.330524,-0.6072420000000001,0.162802,0.7776489999999999,0.014193,0.011661,-0.001984,0.012119,-0.000921,0.008865999999999999
442,-2.47835,-0.163743,0.33074899999999996,-0.6074350000000001,0.16301300000000002,0.777454,0.016346,0.014854,-0.003041,0.015028,-0.004352,0.001462
443,-2.4780290000000003,-0.163913,0.331041,-0.607668,0.16318,0.777237,0.014231,0.014878,-0.0073290000000000004,0.007692,-0.005068,0.004059
444,-2.477747,-0.16404100000000002,0.331283,-0.607874,0.163306,0.777049,0.011007,0.012745999999999999,-0.004144,0.005808,-0.004645000000000001,0.005452
445,-2.4774580000000004,-0.164163,0.331365,-0.608086,0.163426,0.7768579999999999,0.0035189999999999996,0.016999,0.004344,-0.0022649999999999997,-0.005268999999999999,-0.001391
446,-2.477154,-0.164222,0.33125,-0.608317,0.163485,0.7766649999999999,-0.003958,0.018078,0.007495,-0.001379,-0.009829000000000001,-0.0066
447,-2.476912,-0.164195,0.330997,-0.608507,0.163458,0.776521,-0.010393000000000001,0.011704,0.008526,-0.0036,-0.011572,-0.0032670000000000004
448,-2.476874,-0.164133,0.330658,-0.6085430000000001,0.16339700000000001,0.776506,-0.013646,0.004242,0.012786,-0.007012000000000001,-0.011603,-0.003999
449,-2.476865,-0.164069,0.330282,-0.608556,0.16333399999999998,0.776509,-0.012584,0.003173,0.012795,-0.0016579999999999998,-0.011783,-0.00044699999999999997
450,-2.47681,-0.164056,0.33000999999999997,-0.6086,0.163321,0.7764770000000001,-0.0050869999999999995,0.005294,0.008572,0.0036049999999999997,-0.009848,0.000134
451,-2.476804,-0.164075,0.329886,-0.608603,0.16334,0.776471,-0.000825,-2.9999999999999997e-05,0.004335,0.0037600000000000003,-0.007929,0.0015140000000000002
452,-2.476788,-0.16408599999999998,0.329885,-0.608614,0.163351,0.77646,0.003457,-0.001093,9.4e-05,0.003725,-0.00704,-0.000322
453,-2.47683,-0.16413599999999998,0.329989,-0.608576,0.1634,0.776479,0.005591,-0.0042840000000000005,-0.003092,0.005854,-0.009683,0.004007999999999999
454,-2.476901,-0.164186,0.330112,-0.608516,0.163449,0.776515,0.006653,-0.005353,-0.003083,0.009655,-0.002606,0.005483
455,-2.4770380000000003,-0.164211,0.330257,-0.608408,0.163474,0.776595,0.006648,-0.00854,-0.005215999999999999,0.014124000000000001,-0.0051340000000000005,0.008409
456,-2.47715,-0.16426,0.330401,-0.6083149999999999,0.163523,0.776658,0.006662,-0.005344,-0.005220000000000001,0.016244,-0.007012999999999999,0.007293000000000001
457,-2.4772119999999997,-0.164275,0.33055999999999996,-0.608266,0.163537,0.7766930000000001,0.006667,-0.004279,-0.005221,0.013615,-0.011224,0.008173
458,-2.477304,-0.16430899999999998,0.330676,-0.608191,0.163571,0.776745,0.003462,-0.00215,-0.002041,0.010001000000000001,-0.014218000000000001,0.006672
459,-2.477277,-0.16433499999999998,0.330743,-0.608209,0.163596,0.776725,0.002414,0.003176,-0.000987,0.008829,-0.015189,0.00396
460,-2.477221,-0.16431700000000002,0.330757,-0.608255,0.163579,0.7766930000000001,-0.0018440000000000002,0.00426,-0.0020870000000000003,0.007989,-0.016316,0.000666
461,-2.477249,-0.164266,0.330755,-0.6082390000000001,0.163528,0.776717,0.000261,-1.7e-05,7e-05,0.00364,-0.016921000000000002,0.0038770000000000002
462,-2.477207,-0.16428199999999998,0.330783,-0.608269,0.163544,0.77669,0.003486,0.005298,8.6e-05,0.001458,-0.011674,0.0022719999999999997
463,-2.4770119999999998,-0.164355,0.330859,-0.608414,0.163616,0.776561,0.0077870000000000005,0.012740000000000001,0.000106,0.002914,-0.006878,-0.0008960000000000001
464,-2.476798,-0.164413,0.330965,-0.6085729999999999,0.163673,0.776424,0.006706,0.008487,-0.000964,0.0032270000000000003,-0.002113,-0.000362
465,-2.476713,-0.16446,0.331068,-0.608635,0.163719,0.776366,0.006682,0.0021,-0.0020239999999999998,0.000725,5.3e-05,0.001222
466,-2.476728,-0.164474,0.33118000000000003,-0.608622,0.163733,0.776373,0.005596,-0.003218,-0.003093,0.002802,-0.0018219999999999998,0.003611
467,-2.476818,-0.164501,0.33129000000000003,-0.608549,0.16376,0.776424,0.004514,-0.006411,-0.003097,0.006178,-0.002475,0.003285
468,-2.476959,-0.16454000000000002,0.331359,-0.6084350000000001,0.163799,0.776505,0.003433,-0.007481,-0.000967,0.0055450000000000004,-0.006801000000000001,0.002853
469,-2.4771,-0.164543,0.331407,-0.608325,0.163802,0.776591,0.00023700000000000001,-0.007465,-0.0020570000000000002,0.008594,-0.014616999999999998,0.003469
470,-2.477284,-0.16452,0.3314,-0.6081850000000001,0.163779,0.776706,-0.000849,-0.0096,7.4e-05,0.006836,-0.014761000000000002,0.004102000000000001
471,-2.477437,-0.164536,0.331344,-0.608065,0.163795,0.776796,-0.000849,-0.0053560000000000005,0.004342,0.004092,-0.011634,0.0035229999999999997
472,-2.477494,-0.164573,0.331221,-0.608017,0.163831,0.776826,-0.0018960000000000001,0.002091,0.007529999999999999,0.008927,-0.008268000000000001,0.003081
473,-2.477445,-0.16461199999999998,0.331104,-0.608051,0.16387000000000002,0.776791,-0.00081,0.003166,0.004331000000000001,0.012699,-0.010565,0.003711
474,-2.477463,-0.16461800000000001,0.331046,-0.608036,0.163876,0.7768010000000001,-0.001887,-0.001083,0.002193,0.009876000000000001,-0.009427,0.006249
475,-2.477497,-0.16456400000000002,0.33098299999999997,-0.608015,0.163822,0.776829,-0.002944,-1e-05,0.001116,0.010588,-0.010075,0.005581
476,-2.477447,-0.164553,0.330966,-0.608055,0.16381099999999998,0.7768,0.00028,0.0031829999999999996,-0.0010019999999999999,0.009773,-0.007912,0.006006
477,-2.477404,-0.164552,0.331022,-0.608089,0.16380999999999998,0.776774,0.003481,0.00105,-0.003114,0.011654000000000001,-0.009590000000000001,0.004354
478,-2.4774130000000003,-0.16456199999999999,0.33113400000000004,-0.6080810000000001,0.16382,0.776778,0.006686,0.002104,-0.003093,0.005984000000000001,-0.007189,0.003632
479,-2.477348,-0.164597,0.331261,-0.608128,0.163854,0.776734,0.005619,0.0021079999999999996,-0.0031,0.0043219999999999995,-0.008703,0.001403
480,-2.477334,-0.16459200000000002,0.331375,-0.608139,0.16385,0.776726,0.002414,-7.000000000000001e-06,-0.004188,0.005111999999999999,-0.006989,0.000587
481,-2.47738,-0.164577,0.33146,-0.608104,0.16383499999999998,0.776756,0.002409,-0.001072,-0.004187,0.0044210000000000005,-0.008394,0.0009689999999999999
482,-2.477403,-0.164574,0.331557,-0.608087,0.163832,0.776771,0.004538,-0.0021449999999999998,-0.00417,0.004312,-0.008482,0.0014269999999999999
483,-2.477405,-0.164582,0.331701,-0.608085,0.16384,0.776771,0.005619,-0.001075,-0.006301,0.006263,-0.009940000000000001,0.004602
484,-2.477418,-0.164599,0.33184,-0.608073,0.163857,0.776776,0.0056,-0.003214,-0.004162,0.0068920000000000006,-0.011803,0.0033909999999999995
485,-2.477452,-0.16461199999999998,0.331943,-0.608045,0.16386900000000001,0.776795,0.003471,-0.002141,-0.004178,0.0053219999999999995,-0.012334,0.007537
486,-2.47745,-0.16461800000000001,0.33202600000000004,-0.608045,0.163876,0.7767930000000001,0.0024,-2e-05,-0.000983,0.005628,-0.006848000000000001,0.003679
487,-2.477436,-0.164662,0.332092,-0.608052,0.163919,0.776778,0.004538,0.001038,-0.0009699999999999999,0.006536,-0.0071189999999999995,-0.0009449999999999999
488,-2.47748,-0.164654,0.332135,-0.608019,0.163911,0.776807,0.0023899999999999998,-0.002151,-0.000981,0.0058920000000000005,-0.0076,0.000583
489,-2.4775400000000003,-0.16464700000000002,0.33216999999999997,-0.607973,0.163904,0.776844,0.000252,-0.003208,-0.0009939999999999999,0.005571,-0.005823,0.003124
490,-2.477605,-0.16463,0.332187,-0.607925,0.16388699999999998,0.776886,0.001314,-0.0032159999999999997,8.1e-05,0.005492,-0.004174000000000001,0.003112
491,-2.4776439999999997,-0.16464,0.332214,-0.6078939999999999,0.16389700000000001,0.776908,0.003457,-0.001093,9.4e-05,0.006255,-0.006548999999999999,0.002022
492,-2.4776759999999998,-0.164661,0.332248,-0.607867,0.163917,0.776926,0.002381,-0.00322,8.9e-05,0.006228,-0.006569,0.0020050000000000003
493,-2.47777,-0.164638,0.332283,-0.607796,0.16389600000000001,0.776986,0.00023700000000000001,-0.006404000000000001,-0.00099,0.0075,-0.009263,0.0035009999999999998
494,-2.477898,-0.164609,0.332281,-0.6077,0.163867,0.777068,0.00024700000000000004,-0.003213,7.4e-05,0.0068390000000000005,-0.011508,0.003907
495,-2.477948,-0.164634,0.332309,-0.6076590000000001,0.163891,0.777095,0.003452,-0.002159,9.499999999999999e-05,0.006843999999999999,-0.013547,0.003987
496,-2.477998,-0.164654,0.332325,-0.607618,0.163911,0.777123,0.001309,-0.003221,0.00115,0.006666,-0.011536,0.004875
497,-2.478051,-0.164661,0.33235,-0.607576,0.163918,0.777154,0.002385,-0.001094,0.0011539999999999999,0.006853,-0.006936,0.00315
498,-2.4780349999999998,-0.164733,0.33238,-0.60758,0.16398900000000002,0.777135,0.004533,0.002095,0.001165,0.004278,-0.009341,0.004939
499,-2.477984,-0.164794,0.332408,-0.607613,0.164049,0.777096,0.005605,0.002095,0.000105,0.007836,-0.007845,0.000858
500,-2.478005,-0.16481500000000002,0.332452,-0.607595,0.164069,0.7771060000000001,0.0023899999999999998,-0.00109,8.6e-05,0.007666,-0.007712999999999999,0.004526
501,-2.478061,-0.16483699999999998,0.332507,-0.60755,0.16409100000000001,0.777137,0.001323,-0.003208,-0.002055,0.006552,-0.008634999999999999,0.00335
502,-2.478093,-0.164846,0.332543,-0.607524,0.1641,0.7771560000000001,0.003462,-2.8000000000000003e-05,9.2e-05,0.007076000000000001,-0.009544,0.0075120000000000004
503,-2.478067,-0.164876,0.33264499999999997,-0.607541,0.16413,0.7771359999999999,0.004553,0.002112,-0.0031079999999999997,0.008298,-0.0129,0.003092
504,-2.478066,-0.164891,0.332728,-0.60754,0.164145,0.777133,0.002409,-1.1e-05,-0.00312,0.007213,-0.011969,0.0030489999999999996
505,-2.478082,-0.1649,0.332783,-0.607528,0.164154,0.777142,0.003467,-2.4e-05,-0.000976,0.003554,-0.009567,0.0022010000000000003
506,-2.4780889999999998,-0.164906,0.332858,-0.607521,0.16416,0.777145,0.003481,0.00105,-0.003114,0.006843000000000001,-0.009039,0.001282
507,-2.478078,-0.164928,0.332968,-0.607527,0.164181,0.777135,0.004543,-0.00108,-0.0041719999999999995,0.006895999999999999,-0.008999,0.0003
508,-2.478094,-0.164942,0.333056,-0.607513,0.164195,0.777143,0.004529,-0.001093,-0.000967,0.003372,-0.005779,0.0042899999999999995
509,-2.478079,-0.165012,0.33311399999999997,-0.607518,0.16426400000000002,0.777125,0.003462,0.001033,0.001159,0.004704,-0.006595,0.0025989999999999997
510,-2.4780439999999997,-0.165045,0.33311599999999997,-0.607541,0.164297,0.777099,0.0023899999999999998,0.001032,0.0022199999999999998,0.008298,-0.00765,0.002457
511,-2.478078,-0.165042,0.333079,-0.6075149999999999,0.164294,0.77712,0.000242,-0.002156,0.002209,0.006822,-0.009616,0.004221
512,-2.478149,-0.16502,0.333036,-0.607462,0.164272,0.777166,-0.002954,-0.003201,5.2000000000000004e-05,0.005854,-0.010509000000000001,0.004542
513,-2.478201,-0.16500399999999998,0.332996,-0.6074229999999999,0.16425599999999999,0.7772,0.00024700000000000004,-0.001091,0.002208,0.006196,-0.012324,0.003104
514,-2.47823,-0.165019,0.332991,-0.607399,0.164271,0.777215,0.0023899999999999998,-0.00109,8.6e-05,0.004479,-0.012598,0.0013189999999999999
515,-2.4782439999999997,-0.165074,0.332988,-0.607383,0.164325,0.777217,0.001318,0.001032,0.003281,0.004539,-0.011417,0.00063
516,-2.478181,-0.16514500000000001,0.332993,-0.607425,0.164395,0.77717,0.003467,0.004220000000000001,0.0032920000000000002,0.006289,-0.009976,0.002783
517,-2.4781400000000002,-0.16518,0.332996,-0.607453,0.16443,0.7771399999999999,0.003462,0.002094,0.002226,0.006776000000000001,-0.009538,0.00263
518,-2.478106,-0.165245,0.332999,-0.6074729999999999,0.164494,0.777111,0.003457,0.001029,0.002227,0.008458,-0.008794,0.003498
519,-2.478094,-0.16529000000000002,0.333015,-0.607478,0.16453900000000002,0.777097,0.003462,0.001033,0.001159,0.009043,-0.008823000000000001,0.0052060000000000006
520,-2.478121,-0.16531300000000002,0.333009,-0.607454,0.16456099999999999,0.777111,0.00024700000000000004,-0.001091,0.002208,0.009112,-0.008617,0.0076950000000000005
521,-2.4780900000000003,-0.16538,0.333009,-0.607472,0.164627,0.777083,0.003467,0.003159,0.002225,0.008793,-0.011536,0.002046
522,-2.478047,-0.165381,0.333019,-0.607504,0.164628,0.777057,0.001338,0.001049,-0.000992,0.008795,-0.010606,0.002591
523,-2.478107,-0.16539600000000002,0.333075,-0.607457,0.164643,0.777092,0.005586,-0.0032270000000000003,-0.0009570000000000001,0.000584,-0.006745,0.005013
524,-2.478105,-0.16548,0.33317199999999997,-0.60745,0.164726,0.777079,0.006672,0.002091,0.00011200000000000001,0.002576,-0.008156,0.003927
525,-2.478006,-0.16557,0.33322399999999996,-0.607517,0.16481400000000002,0.777007,0.0056240000000000005,0.0063560000000000005,9.9e-05,0.005009,-0.007527,0.00038199999999999996
526,-2.4779720000000003,-0.16560999999999998,0.333307,-0.60754,0.164854,0.776981,0.005605,-2.7000000000000002e-05,-0.002029,0.007809,-0.011351,0.003841
527,-2.478072,-0.165656,0.333393,-0.6074579999999999,0.164899,0.777036,0.002366,-0.007476999999999999,-0.000974,0.0055899999999999995,-0.011975,0.004427
528,-2.478127,-0.165649,0.33345199999999997,-0.607416,0.164892,0.777071,0.003467,-2.4e-05,-0.000976,0.004693999999999999,-0.013144,0.004927
529,-2.4780729999999997,-0.165663,0.333467,-0.607456,0.164906,0.777036,0.001347,0.004241,7.2e-05,0.009448999999999999,-0.010594,0.001925
530,-2.478063,-0.165677,0.33347,-0.607463,0.164921,0.777029,0.000252,-0.002147,7.3e-05,0.010112000000000001,-0.010685,0.000529
531,-2.478141,-0.165648,0.333487,-0.607405,0.164892,0.77708,0.000242,-0.005339,-0.000992,0.005507,-0.010274,0.002873
532,-2.4781869999999997,-0.165649,0.33355100000000004,-0.6073689999999999,0.164893,0.777108,0.004533,-0.001088,-0.0020350000000000004,0.006692,-0.008246,0.006125
533,-2.4781470000000003,-0.165682,0.333635,-0.6073970000000001,0.164925,0.77708,0.004553,0.003173,-0.002041,0.006735,-0.009758,0.000295
534,-2.47811,-0.165729,0.33373800000000003,-0.607421,0.164971,0.777051,0.004538,-2.3e-05,-0.002037,0.007109000000000001,-0.006814,0.002826
535,-2.478141,-0.165767,0.333835,-0.6073930000000001,0.165008,0.777065,0.005596,-0.002157,-0.002027,0.005922,-0.004883,0.005558
536,-2.478145,-0.16578199999999998,0.333903,-0.607388,0.165024,0.777065,0.0024,-2e-05,-0.000983,0.006726,-0.011627,0.002629
537,-2.478113,-0.165801,0.333909,-0.6074109999999999,0.165043,0.777043,0.000261,0.001044,0.001137,0.007436,-0.012516,0.001323
538,-2.478133,-0.165804,0.333851,-0.607396,0.165045,0.777055,-0.0018920000000000002,-0.0010869999999999999,0.003261,0.005406,-0.014837999999999999,0.0035229999999999997
539,-2.478173,-0.165819,0.333746,-0.607363,0.16505999999999998,0.7770779999999999,-0.0018920000000000002,0.001035,0.0053950000000000005,0.005388,-0.013159,0.0034700000000000004
540,-2.478155,-0.165866,0.333671,-0.6073729999999999,0.165107,0.7770600000000001,0.000252,0.002097,0.00434,0.00494,-0.012946000000000001,0.005777
541,-2.4781009999999997,-0.165918,0.333671,-0.607409,0.165158,0.777021,0.004538,0.00316,0.001164,0.006991,-0.010205,0.002719
542,-2.478022,-0.165961,0.33371100000000004,-0.607466,0.1652,0.776967,0.004543,0.004225,0.001163,0.002928,-0.009332,0.002025
543,-2.4779419999999996,-0.16606300000000002,0.333737,-0.607518,0.165301,0.7769050000000001,0.004533,0.004217,0.0032990000000000003,0.004155,-0.0096,0.002163
544,-2.477863,-0.166123,0.33373200000000003,-0.6075729999999999,0.16535999999999998,0.77685,0.0024,0.003163,0.0022170000000000002,0.007155,-0.009248000000000001,0.0038659999999999996
545,-2.47784,-0.166177,0.33371,-0.607586,0.165413,0.776829,0.002381,0.001024,0.0043560000000000005,0.009746,-0.008385,0.00317
546,-2.477822,-0.166214,0.333683,-0.607596,0.16545,0.776814,0.000256,0.002101,0.0032719999999999997,0.008062999999999999,-0.010298,0.005657
547,-2.477802,-0.166259,0.333654,-0.607608,0.165494,0.776796,0.002395,0.003159,0.003285,0.006716,-0.008313,0.00566
548,-2.4777419999999997,-0.166303,0.333649,-0.607649,0.16553800000000002,0.776754,0.0024,0.004224,0.0032840000000000005,0.008315000000000001,-0.011042,0.0033060000000000003
549,-2.4776860000000003,-0.166366,0.333688,-0.607687,0.1656,0.776712,0.00561,0.00316,0.000103,0.008276,-0.0126,0.002494
550,-2.477656,-0.166415,0.33373400000000003,-0.607705,0.165648,0.776687,0.004538,-2.3e-05,-0.002037,0.005746,-0.019178999999999998,0.003739
551,-2.4776540000000002,-0.166466,0.333781,-0.607701,0.165699,0.776679,0.006667,0.003148,0.002247,0.00507,-0.009784000000000001,0.005136
552,-2.477502,-0.166629,0.333828,-0.6078020000000001,0.16585899999999998,0.776565,0.009887,0.010581,0.005465,0.005370000000000001,-0.008495,9.2e-05
553,-2.477263,-0.166777,0.33382399999999995,-0.607973,0.16600499999999999,0.7764,0.005634,0.012731000000000001,0.004364,0.010057,-0.009022,0.000638
554,-2.4770939999999997,-0.166871,0.333813,-0.6080939999999999,0.166097,0.7762859999999999,0.003467,0.004220000000000001,0.0032920000000000002,0.008714,-0.007849,0.001943
555,-2.4770689999999997,-0.16691199999999998,0.333805,-0.60811,0.166138,0.776265,0.001323,0.001036,0.002212,0.004228,-0.0094,0.003169
556,-2.477067,-0.166927,0.333783,-0.608109,0.166153,0.776262,-0.0008060000000000001,0.002109,0.002196,0.007751999999999999,-0.012589,0.006422
557,-2.476966,-0.166959,0.333784,-0.6081850000000001,0.166184,0.776196,0.002424,0.006367,7.7e-05,0.010727,-0.014283,0.0035280000000000003
558,-2.476917,-0.16698,0.333834,-0.608221,0.166205,0.7761640000000001,0.003471,-1.9e-05,-0.0020440000000000002,0.008031,-0.014502000000000001,0.004964
559,-2.4769509999999997,-0.166975,0.33387100000000003,-0.6081949999999999,0.1662,0.776185,0.002405,-1.6e-05,-0.002052,0.004131,-0.012163,0.00418
560,-2.4769099999999997,-0.167015,0.333928,-0.608223,0.166239,0.7761560000000001,0.004548,0.003168,-0.0009720000000000001,0.005471,-0.011164,0.002287
561,-2.476845,-0.167044,0.333999,-0.608271,0.166268,0.776112,0.005615,0.002104,-0.002032,0.008997,-0.009256,0.002361
562,-2.476864,-0.16703900000000002,0.334095,-0.6082569999999999,0.16626400000000002,0.776125,0.004533,-0.001088,-0.0020350000000000004,0.007045,-0.004291,0.004575
563,-2.476859,-0.16708699999999999,0.33420900000000003,-0.608256,0.166311,0.776116,0.006677,0.001035,-0.002023,0.008112000000000001,-0.006246,0.0037909999999999997
564,-2.4768380000000003,-0.16711199999999998,0.334289,-0.60827,0.16633499999999998,0.7761,0.003471,0.001042,-0.000977,0.00805,-0.010329999999999999,0.002663
565,-2.476858,-0.16706600000000002,0.3343,-0.608259,0.16629000000000002,0.776119,-0.002939,-0.001067,-0.001019,0.00604,-0.009245999999999999,0.002064
566,-2.4769330000000003,-0.166988,0.33421799999999996,-0.608209,0.166213,0.776174,-0.008298,-0.004252000000000001,0.001084,0.006920999999999999,-0.011198999999999999,0.003718
567,-2.477059,-0.16691199999999998,0.334146,-0.608119,0.166138,0.7762600000000001,-0.002959,-0.004267,5.3e-05,0.007151,-0.01207,0.004867
568,-2.477182,-0.166863,0.334165,-0.608029,0.16609000000000002,0.776342,0.001309,-0.006404000000000001,-0.0020510000000000003,0.006679999999999999,-0.012694,0.0042369999999999994
569,-2.477261,-0.16686600000000001,0.334258,-0.607967,0.16609200000000002,0.7763899999999999,0.003457,-0.004275999999999999,-0.003107,0.005672,-0.014359,0.003166
570,-2.477284,-0.16686800000000002,0.334372,-0.607949,0.166095,0.776403,0.004553,-1e-05,-0.005241,0.004678,-0.01311,0.002238
571,-2.477274,-0.16688499999999998,0.33450799999999997,-0.607955,0.16611099999999998,0.776395,0.005615,0.0010429999999999999,-0.0030989999999999998,0.0058130000000000005,-0.013477000000000001,0.0019100000000000002
572,-2.477272,-0.166947,0.334597,-0.60795,0.16617300000000002,0.776386,0.0056,-3.1e-05,-0.0009609999999999999,0.004389,-0.014271,0.002774
573,-2.477288,-0.166992,0.33462,-0.6079319999999999,0.166217,0.776389,0.002381,-3.7e-05,0.0032890000000000003,0.00225,-0.016681,0.0036710000000000002
574,-2.477357,-0.167026,0.334544,-0.607876,0.166251,0.7764270000000001,-0.000849,-0.0032340000000000003,0.006476000000000001,-0.002598,-0.009222,0.001253
575,-2.47745,-0.167012,0.334358,-0.607805,0.166236,0.7764850000000001,-0.007254999999999999,-0.0021550000000000002,0.008565999999999999,-0.003279,-0.018607,-0.002102
576,-2.477608,-0.167048,0.334072,-0.607679,0.166272,0.776576,-0.005164,-0.006445,0.013927000000000002,-0.0033439999999999998,-0.013531,-0.000285
577,-2.4778729999999998,-0.167192,0.333878,-0.6074579999999999,0.166414,0.7767189999999999,0.005485,-0.013926,0.010806,0.00411,-0.0036490000000000003,0.002731
578,-2.4781619999999998,-0.167392,0.333969,-0.607213,0.16661099999999998,0.776868,0.015130000000000001,-0.017105000000000002,-0.001941,0.028997000000000002,0.004074,0.009875
579,-2.4783310000000003,-0.16755799999999998,0.334419,-0.607065,0.166775,0.776949,0.022699,-0.010675,-0.017919,0.034311,0.008625,0.010847
580,-2.478377,-0.167579,0.33516399999999996,-0.6070270000000001,0.166796,0.7769739999999999,0.023828,-0.009563,-0.030732,0.038225,0.004011,0.018375
581,-2.478402,-0.167544,0.335856,-0.607011,0.166761,0.776994,0.015293000000000001,-0.003167,-0.024390000000000002,0.016084,-0.007383,0.020766
582,-2.478088,-0.167535,0.33621100000000004,-0.607256,0.16675299999999998,0.776804,0.006811,0.024496,-0.008462,0.014803,-0.0072829999999999995,0.013616
583,-2.477564,-0.167527,0.33619099999999996,-0.607664,0.166744,0.776487,-0.007097,0.028754000000000002,0.004255,0.014158,-0.020519,0.0013449999999999998
584,-2.477229,-0.167453,0.335764,-0.607931,0.166671,0.7762939999999999,-0.022124,0.022359999999999998,0.018045,-0.004175,-0.03102,-0.004443
585,-2.476999,-0.167239,0.334924,-0.608132,0.16646,0.776181,-0.039264999999999994,0.018111000000000002,0.029681,-0.012061,-0.034456,-0.006986
586,-2.476841,-0.166992,0.333793,-0.60828,0.166217,0.776118,-0.043562000000000003,0.020222999999999998,0.038194,-0.029491000000000003,-0.038852,-0.00912
587,-2.476673,-0.166768,0.332715,-0.608434,0.165996,0.776045,-0.03395,0.017015,0.032924,-0.013636,-0.023357,-0.010985
588,-2.476651,-0.166747,0.332013,-0.608453,0.165975,0.776035,-0.011561,0.00207,0.021349,-0.009635,-0.018102,-0.004581
589,-2.47663,-0.16692,0.331986,-0.6084510000000001,0.16614600000000002,0.776,0.019474,-7.5e-05,-0.0019320000000000001,0.0020210000000000002,-0.001077,0.0028239999999999997
590,-2.476516,-0.167099,0.332696,-0.608522,0.166323,0.775907,0.037683,-0.008563,-0.026363,0.00432,-0.006075,-0.000165
591,-2.476597,-0.16733299999999998,0.333654,-0.6084350000000001,0.166553,0.775926,0.039807,-0.013884,-0.029546,0.003668,0.004071,0.006881
592,-2.476584,-0.16758499999999998,0.33463200000000004,-0.6084189999999999,0.166801,0.775885,0.041964999999999995,-0.007504,-0.028470999999999996,0.009939,0.018379,0.011163
593,-2.476583,-0.16786099999999998,0.335617,-0.608392,0.167074,0.775849,0.038758999999999995,-0.009618999999999999,-0.029559,0.030892000000000003,7.099999999999999e-05,0.008667
594,-2.476693,-0.167961,0.33636900000000003,-0.6082960000000001,0.16717200000000002,0.7759020000000001,0.017374,-0.01277,-0.022227,0.026997000000000004,-0.007962,0.007469
595,-2.4769650000000003,-0.167879,0.336633,-0.6080939999999999,0.16709200000000002,0.7760779999999999,-0.004045,-0.01489,-0.00635,0.014984,-0.019219,0.012206
596,-2.477233,-0.167729,0.336481,-0.607901,0.166943,0.7762600000000001,-0.013661000000000001,-0.007442,0.004255,0.018195,-0.020687999999999998,0.013809
597,-2.477304,-0.16761500000000001,0.336223,-0.607858,0.166831,0.7763180000000001,-0.010412000000000001,0.005321,0.006398,0.021417,-0.017097,0.013858
598,-2.4771669999999997,-0.167528,0.336086,-0.607973,0.166745,0.776247,-0.003958,0.012773,0.00216,0.004259000000000001,-0.016553000000000002,0.003721
599,-2.4768380000000003,-0.16751,0.336015,-0.60823,0.166728,0.776049,-0.002872,0.019152000000000002,0.004296,0.000167,-0.015269,-0.000643
600,-2.476518,-0.167466,0.335978,-0.608482,0.166684,0.77586,-0.000734,0.015966,4.2e-05,-0.004997,-0.008298,-0.007382
601,-2.476339,-0.16742,0.335981,-0.608626,0.166639,0.7757569999999999,0.000309,0.008514,-0.002077,-0.008851000000000001,-0.005522,-0.007859
602,-2.47625,-0.167375,0.33600599999999997,-0.6087,0.166594,0.775709,0.00028,0.0031829999999999996,-0.0010019999999999999,-0.010609,-0.007872,-0.002165
603,-2.476234,-0.16733499999999998,0.335987,-0.608716,0.166555,0.775704,-0.00081,-1.7e-05,0.001131,-0.009708,-0.011739,-0.0053939999999999995
604,-2.4762880000000003,-0.16733599999999998,0.335932,-0.6086739999999999,0.16655599999999998,0.775737,-0.000839,-0.0032259999999999997,0.004339,-0.00392,-0.014625,-0.0054280000000000005
605,-2.4764369999999998,-0.167352,0.335767,-0.608558,0.166572,0.775826,-0.006221,-0.009616,0.008583,-0.005059,-0.0102,-3.9e-05
606,-2.476691,-0.167382,0.335543,-0.608358,0.166602,0.775977,-0.00303,-0.011758,0.008608,0.006078,-0.0015630000000000002,0.001184
607,-2.4769810000000003,-0.16735899999999998,0.33547899999999997,-0.608135,0.166579,0.776157,-0.0008869999999999999,-0.019184,-0.000982,0.020534999999999998,-0.017974,0.012341
608,-2.4774580000000004,-0.167301,0.335572,-0.607771,0.166521,0.776454,0.0033710000000000003,-0.026633999999999998,-0.0062840000000000005,0.018537,-0.015948,0.015965
609,-2.477816,-0.167318,0.335713,-0.607491,0.16653800000000002,0.7766689999999999,0.006614,-0.011753,-0.0009390000000000001,0.011054999999999999,-0.014775,0.014178999999999999
610,-2.4778599999999997,-0.167431,0.335751,-0.607445,0.16665,0.7766810000000001,0.006662,0.003144,0.003315,0.019051,-0.016077,0.009055
611,-2.477697,-0.16756300000000002,0.335784,-0.607558,0.16677999999999998,0.776565,0.006686,0.007409000000000001,0.002242,0.021178,-0.014969999999999999,0.009323999999999999
612,-2.477709,-0.167624,0.335789,-0.607542,0.16684000000000002,0.776564,0.0013039999999999998,-0.002164,0.003285,0.014464,-0.014191,0.0054789999999999995
613,-2.477793,-0.16755599999999998,0.335674,-0.607485,0.166773,0.776624,-0.007215999999999999,0.002123,0.004288,0.006562999999999999,-0.016871,0.005481000000000001
614,-2.477671,-0.167526,0.335547,-0.607582,0.166744,0.776554,-0.0018440000000000002,0.009565,0.0032479999999999996,0.0067670000000000004,-0.014094999999999998,0.004436
615,-2.477582,-0.167536,0.335537,-0.60765,0.16675399999999999,0.7764989999999999,0.003481,0.003172,-0.00098,0.010909,-0.015631,0.001059
616,-2.477544,-0.167532,0.33563899999999997,-0.60768,0.166749,0.7764770000000001,0.005634,0.003182,-0.0052380000000000005,0.001296,-0.016786000000000002,0.002942
617,-2.477366,-0.167613,0.335814,-0.6078100000000001,0.16683,0.776358,0.012064,0.009551,-0.005201,0.004188,-0.013356999999999999,0.002802
618,-2.477164,-0.16774,0.336039,-0.607954,0.166954,0.7762180000000001,0.013121,0.008478,-0.004124,0.002378,-0.009484000000000001,-0.002796
619,-2.477011,-0.167837,0.336267,-0.608062,0.167051,0.776112,0.010973,0.004228,-0.005202,0.002029,-0.003827,-0.000874
620,-2.476959,-0.167871,0.336478,-0.6081,0.16708299999999998,0.776076,0.008815,-0.001091,-0.00521,0.006736,-0.005462,0.006822
621,-2.476989,-0.167907,0.336698,-0.6080720000000001,0.16711900000000002,0.77609,0.006677,-0.00427,-0.007356999999999999,0.00828,-0.005132,0.003909
622,-2.477001,-0.167931,0.336857,-0.608061,0.167142,0.776094,0.004548,-1.4999999999999999e-05,-0.004173,0.0075060000000000005,-0.008527,0.005187
623,-2.4769810000000003,-0.167943,0.336907,-0.608075,0.167155,0.77608,0.000271,0.001053,-0.001,0.006559000000000001,-0.012568000000000001,0.005536
624,-2.477001,-0.167916,0.33685,-0.608062,0.167128,0.776096,-0.004025,-0.00108,0.003246,0.00621,-0.01277,0.002209
625,-2.477057,-0.167864,0.33672199999999997,-0.608024,0.167076,0.776137,-0.006159,-0.001072,0.0032310000000000004,0.0084,-0.012931999999999999,0.002702
626,-2.477134,-0.16778800000000002,0.336602,-0.6079720000000001,0.167001,0.7761939999999999,-0.007226000000000001,-0.0010689999999999999,0.0032240000000000003,0.007798,-0.015772,0.005209
627,-2.4772,-0.167718,0.336496,-0.607928,0.166932,0.776243,-0.002963,-0.00321,0.002188,0.005435,-0.014497,0.004549
628,-2.477263,-0.167687,0.336456,-0.6078819999999999,0.166902,0.7762859999999999,-0.0008060000000000001,-0.001074,-0.001004,0.003146,-0.015397,0.004995
629,-2.4772990000000004,-0.167667,0.336496,-0.607857,0.166883,0.7763100000000001,0.002405,-1.6e-05,-0.002052,0.003639,-0.011563,0.001675
630,-2.477309,-0.167704,0.3366,-0.607845,0.166919,0.776312,0.006672,-0.001092,-0.003089,0.005535,-0.010425,0.0016579999999999998
631,-2.477372,-0.167736,0.33676300000000003,-0.607794,0.16695,0.776345,0.006667,-0.00534,-0.006288,0.005697,-0.010639000000000001,-0.000192
632,-2.47753,-0.167714,0.336932,-0.6076729999999999,0.166929,0.7764449999999999,0.005586,-0.009593,-0.007358,0.005622,-0.009656999999999999,0.003081
633,-2.477704,-0.167702,0.337084,-0.607539,0.166917,0.776551,0.003438,-0.010659,-0.005235,0.006282,-0.010895,0.003081
634,-2.4778759999999997,-0.167703,0.337198,-0.607405,0.166918,0.776656,0.0045049999999999995,-0.008541,-0.003094,0.0071400000000000005,-0.014147,0.005403
635,-2.4779869999999997,-0.167727,0.337255,-0.607317,0.166942,0.77672,0.003443,-0.004289,9.8e-05,0.00757,-0.010433,0.004454
636,-2.478048,-0.167761,0.337306,-0.607266,0.166975,0.776753,0.002381,-0.00322,8.9e-05,0.009304,-0.014418,0.0008960000000000001
637,-2.4781560000000002,-0.167786,0.337348,-0.60718,0.167,0.7768149999999999,0.003438,-0.0064150000000000006,-0.000968,0.009951,-0.014137,0.004465
638,-2.478264,-0.167824,0.337392,-0.6070909999999999,0.16703800000000002,0.776876,0.005576,-0.0021739999999999997,0.002246,0.007741,-0.013656,0.008189
639,-2.478202,-0.167949,0.337385,-0.6071270000000001,0.16716099999999998,0.776822,0.004533,0.0074,0.0065,0.0068920000000000006,-0.010499,0.006793
640,-2.478042,-0.16801,0.337329,-0.607244,0.167221,0.776717,0.003476,0.009534,0.006489,0.011251,-0.013122,0.005601
641,-2.477967,-0.1681,0.337287,-0.607294,0.16730899999999999,0.77666,0.002385,0.002089,0.0043549999999999995,0.007929,-0.012921,0.0068790000000000006
642,-2.477966,-0.168157,0.337262,-0.60729,0.167365,0.776652,0.001323,0.002097,0.003279,0.008581,-0.011878,0.0060479999999999996
643,-2.477882,-0.168202,0.33727199999999996,-0.60735,0.16741,0.776595,0.004562,0.007425,9e-05,0.01125,-0.014365000000000001,0.005632
644,-2.4777299999999998,-0.168266,0.337361,-0.607462,0.167473,0.7764939999999999,0.005639,0.00743,-0.002039,0.008142,-0.015128999999999998,0.004328
645,-2.477688,-0.168266,0.337447,-0.607494,0.167473,0.776469,0.002419,0.0021190000000000002,-0.0031219999999999998,0.0023,-0.016822999999999998,0.002584
646,-2.477619,-0.168277,0.337512,-0.6075470000000001,0.167484,0.776425,0.0034909999999999997,0.005303,-0.000983,0.001666,-0.012394,0.001407
647,-2.477506,-0.168331,0.337571,-0.607628,0.167537,0.77635,0.0034909999999999997,0.004242,-0.002049,0.004311,-0.010631,0.000139
648,-2.477446,-0.16833800000000002,0.33763699999999996,-0.607675,0.167544,0.776312,0.002414,0.0021149999999999997,-0.002054,0.004159,-0.008715,0.002832
649,-2.477419,-0.168357,0.33770100000000003,-0.607693,0.16756300000000002,0.776293,0.00561,0.0020989999999999997,-0.000964,0.0016300000000000002,-0.007162000000000001,0.0022559999999999998
650,-2.477393,-0.168455,0.337805,-0.607704,0.16766,0.7762640000000001,0.007734,0.0010220000000000001,0.000121,0.0026320000000000002,-0.008144,0.0016129999999999999
651,-2.47737,-0.16855499999999998,0.337861,-0.607711,0.167758,0.776237,0.004524,-3.6e-05,0.001168,0.005294,-0.01073,-0.000572
652,-2.4774529999999997,-0.168605,0.337892,-0.607641,0.16780699999999998,0.776281,0.002361,-0.007481,9.4e-05,0.008901000000000001,-0.015112,0.000956
653,-2.4776860000000003,-0.16859200000000002,0.337917,-0.607462,0.167795,0.776425,0.000199,-0.015987,-0.0020469999999999998,0.009012000000000001,-0.018091,0.005039
654,-2.477967,-0.168496,0.33791,-0.607254,0.16769900000000001,0.776608,-0.004059,-0.012781,-0.0010119999999999999,0.00705,-0.02384,0.003406
655,-2.478169,-0.168404,0.33787399999999995,-0.607106,0.16760899999999998,0.776742,-0.00404,-0.006398,0.001116,0.006108,-0.023337,0.010077
656,-2.478222,-0.16843699999999998,0.337843,-0.607061,0.167642,0.77677,0.003452,0.001024,0.003296,0.005209,-0.015649,0.010583
657,-2.478091,-0.168607,0.337835,-0.607146,0.16781,0.776668,0.00881,0.009515000000000001,0.006527,0.005263,-0.006340999999999999,0.005589
658,-2.4779009999999997,-0.168773,0.33789600000000003,-0.607276,0.167973,0.7765310000000001,0.009892,0.008463,0.002263,0.011176,-0.000782,0.001927
659,-2.477795,-0.168873,0.337953,-0.607348,0.168071,0.776453,0.004533,0.002095,0.001165,0.013003,0.00020299999999999997,0.003286
660,-2.477877,-0.16886900000000002,0.33792300000000003,-0.6072850000000001,0.168068,0.776504,-0.000839,-0.004287,0.0032719999999999997,0.010178,-0.0022960000000000003,0.007402
661,-2.477977,-0.16888,0.33778800000000003,-0.6072069999999999,0.168078,0.776563,-0.00404,-3.2e-05,0.007517,0.002241,-0.010333,0.00339
662,-2.477977,-0.16889300000000002,0.337507,-0.607204,0.16809200000000002,0.776562,-0.009355,0.009553,0.012809000000000001,0.009945,-0.018403,0.004109000000000001
663,-2.477989,-0.16887,0.33715900000000004,-0.6071979999999999,0.168068,0.776571,-0.012603,-0.002149,0.011733,0.007665000000000001,-0.018775999999999998,-0.0029809999999999997
664,-2.478272,-0.168825,0.336879,-0.6069829999999999,0.168024,0.776749,-0.008384,-0.014939,0.009643,0.007663,-0.032892000000000005,0.004272
665,-2.478486,-0.16881500000000002,0.3367,-0.606817,0.168015,0.77688,0.00022799999999999999,-0.001108,0.00648,0.008108,-0.027161,0.011191
666,-2.478304,-0.168981,0.336775,-0.606942,0.168178,0.776748,0.014188,0.012718,0.000151,0.011391,-0.029704,0.009826999999999999
667,-2.4778599999999997,-0.169238,0.33710100000000004,-0.60726,0.168431,0.7764439999999999,0.024928,0.023355,-0.005129,0.013602000000000001,-0.022008,0.0071400000000000005
668,-2.4771400000000003,-0.169598,0.337549,-0.607781,0.168786,0.7759590000000001,0.032454000000000004,0.037173000000000005,-0.004026,0.005914,-0.00213,0.000118
669,-2.476371,-0.170024,0.337989,-0.608334,0.169206,0.775435,0.029225,0.031853,-0.002973,0.004574,-0.0009480000000000001,0.003922999999999999
670,-2.4758169999999997,-0.17030599999999999,0.338357,-0.608734,0.169484,0.7750600000000001,0.020651,0.0223,-0.004089,0.010589,-0.0009199999999999999,0.004999
671,-2.475521,-0.17042000000000002,0.338594,-0.608951,0.169596,0.7748649999999999,0.009925,0.009554,-0.004148,0.008212,-0.004313,0.00402
672,-2.47545,-0.17043599999999998,0.33865500000000004,-0.609004,0.16961199999999999,0.7748189999999999,-0.0018579999999999998,0.002125,-0.001016,0.005138,-0.003368,0.001838
673,-2.475379,-0.17034100000000002,0.33852899999999997,-0.609069,0.169518,0.7747890000000001,-0.010388,0.007465,0.003191,0.004745,-0.008919,0.001181
674,-2.4753950000000002,-0.170218,0.33834699999999995,-0.609069,0.169397,0.774816,-0.007279000000000001,-0.009604000000000001,0.006439,0.010543,-0.020288,-0.012624
675,-2.476283,-0.170236,0.338227,-0.60838,0.169415,0.775353,-0.002016,-0.034089,-0.002039,-0.011875,-0.017223,-0.000375
676,-2.476223,-0.170103,0.338129,-0.60844,0.169284,0.775334,-0.006135,0.004254,0.0032240000000000003,-0.015369999999999998,-0.025027,0.0044659999999999995
677,-2.476363,-0.170178,0.33805,-0.608324,0.16935799999999998,0.77541,0.0023420000000000003,-0.006437000000000001,0.0054340000000000005,-0.004775,-0.01703,-0.011341
678,-2.476465,-0.170352,0.338038,-0.6082270000000001,0.16952899999999999,0.7754489999999999,0.010834,-0.014993000000000001,0.006572,0.001873,-0.015568,-0.011151000000000001
679,-2.476978,-0.170502,0.33805599999999997,-0.607812,0.169677,0.775741,0.0033280000000000002,-0.025611000000000002,0.004397,0.002664,-0.010391,0.0063490000000000005
680,-2.477394,-0.170524,0.338086,-0.607488,0.169699,0.77599,0.007629,-0.022413,0.00015,0.013433,-0.002508,0.012492
681,-2.4776439999999997,-0.17060799999999998,0.338258,-0.6072850000000001,0.169781,0.776131,0.008777,-0.008551999999999999,-0.0041329999999999995,0.020309999999999998,-0.0030329999999999997,0.012535
682,-2.477799,-0.170652,0.338431,-0.607159,0.169825,0.776219,0.005567,-0.011732,-0.005219,0.026822000000000002,-0.0037329999999999998,0.012355
683,-2.4780189999999997,-0.170551,0.338483,-0.607,0.169725,0.776367,-0.00403,-0.009572,-0.004221,0.019430000000000003,-0.010378,0.017197
684,-2.478174,-0.170396,0.338426,-0.606895,0.169572,0.7764810000000001,-0.009355,-0.00424,-0.00106,0.019691,-0.011918999999999999,0.011773
685,-2.4782990000000003,-0.170284,0.33828600000000003,-0.6068100000000001,0.169463,0.776572,-0.009373999999999999,-0.004257,0.003213,0.019148,-0.015165999999999999,0.007608
686,-2.47854,-0.170181,0.33813000000000004,-0.606634,0.16936099999999998,0.776732,-0.009393,-0.009579,0.002151,0.008962000000000001,-0.02016,0.005449
687,-2.478714,-0.17007,0.337958,-0.60651,0.169251,0.7768520000000001,-0.009379,-0.0032,0.0053479999999999995,0.005573,-0.025422,0.00249
688,-2.478714,-0.169973,0.33777399999999996,-0.60652,0.169155,0.7768649999999999,-0.007206999999999999,0.005314,0.005352,0.000121,-0.033337,0.001898
689,-2.478669,-0.169969,0.337645,-0.6065560000000001,0.169151,0.776838,-0.0008060000000000001,0.005292,0.005397,-0.008816,-0.029914999999999997,-0.002928
690,-2.478558,-0.170129,0.337659,-0.606625,0.16931,0.77675,0.009873,0.005263,0.0033350000000000003,-0.009951999999999999,-0.025541,-0.004091
691,-2.478339,-0.17034000000000002,0.337806,-0.606773,0.169517,0.7765890000000001,0.015269,0.01591,0.000154,-0.006966,-0.017082,-0.0026320000000000002
692,-2.477801,-0.170466,0.338033,-0.607178,0.16964100000000001,0.776245,0.013212,0.029779000000000003,-0.003082,-0.001846,-0.009104000000000001,1.4999999999999999e-05
693,-2.477049,-0.170518,0.338294,-0.6077560000000001,0.169693,0.775782,0.011131,0.036199,-0.008445999999999999,0.004072,-0.002777,0.002462
694,-2.4762720000000003,-0.170527,0.338565,-0.6083569999999999,0.169701,0.775308,0.008969,0.030876,-0.007386,0.011967,-0.002999,0.002478
695,-2.4759349999999998,-0.170537,0.338725,-0.608618,0.169712,0.775101,0.004567,0.006368,-0.002045,0.011175,-0.00023199999999999997,0.005157
696,-2.476082,-0.170546,0.33872399999999997,-0.608503,0.16972,0.775189,0.000194,-0.012808000000000002,0.002222,0.011090000000000001,-0.007428,0.009493999999999999
697,-2.476252,-0.170512,0.33864299999999997,-0.608374,0.16968699999999998,0.7752979999999999,-0.006174,-0.004268,0.003235,0.01792,-0.009653,0.012666
698,-2.476409,-0.17045,0.338478,-0.608259,0.169626,0.775401,-0.007268999999999999,-0.0074730000000000005,0.006436,0.015271999999999999,-0.011590999999999999,0.010503
699,-2.476594,-0.1704,0.338303,-0.608121,0.169577,0.77552,-0.006193,-0.005346,0.006441,0.008497,-0.013600999999999999,0.007331999999999999
700,-2.476706,-0.17035899999999998,0.33813499999999996,-0.608038,0.169537,0.775594,-0.006159,-1.1e-05,0.004298,0.008307,-0.018032,-0.00031099999999999997
701,-2.476734,-0.170309,0.338014,-0.6080220000000001,0.169487,0.775618,-0.004025,-0.00108,0.003246,0.005132,-0.019768,0.000154
702,-2.4768369999999997,-0.170256,0.33794,-0.6079479999999999,0.169435,0.775688,-0.004035,-0.005332,0.001115,0.003166,-0.020585,0.000389
703,-2.4770119999999998,-0.17014400000000002,0.337838,-0.607824,0.169324,0.775809,-0.006169,-0.005325,0.0011,0.005696,-0.024701,0.006249
704,-2.477031,-0.170099,0.337802,-0.607813,0.16927999999999999,0.775827,0.000271,0.002114,6.7e-05,0.007258,-0.023635,0.004874
705,-2.4769229999999998,-0.170119,0.337864,-0.607895,0.1693,0.775758,0.004553,0.005295,9.300000000000001e-05,0.00972,-0.02161,0.004912
706,-2.47676,-0.170165,0.337956,-0.608017,0.169345,0.7756529999999999,0.007776999999999999,0.009549,-0.000958,0.010254000000000001,-0.013338999999999998,0.007474
707,-2.476562,-0.170273,0.33810100000000004,-0.608159,0.169452,0.775518,0.010978,0.008477,-0.002003,0.010289,-0.013262999999999999,0.005396
708,-2.476355,-0.170405,0.338332,-0.608305,0.16958099999999998,0.775374,0.014193,0.008478,-0.005185,0.009611,-0.007670000000000001,0.006196
709,-2.476139,-0.170526,0.33857,-0.60846,0.1697,0.775226,0.014197999999999999,0.010604,-0.004118999999999999,0.00882,-0.0037,0.0038729999999999997
710,-2.475949,-0.170658,0.33884699999999995,-0.608594,0.16983,0.775092,0.013121,0.0063560000000000005,-0.006258,0.006696,-0.006195,0.0029230000000000003
711,-2.475864,-0.170714,0.339092,-0.608653,0.16988599999999998,0.775034,0.007763,-1.3000000000000001e-05,-0.0073549999999999996,0.007167,-0.010828,0.0026
712,-2.475875,-0.170731,0.33924099999999996,-0.608643,0.169903,0.775037,0.004543,-1.9e-05,-0.003105,0.001526,-0.018032,0.000277
713,-2.475898,-0.170714,0.339302,-0.608627,0.16988599999999998,0.775054,-0.000801,-0.00107,-0.002073,0.0019219999999999999,-0.017159999999999998,-9.1e-05
714,-2.475957,-0.170672,0.339242,-0.608586,0.169844,0.775096,-0.002963,-0.00321,0.002188,-0.004116,-0.018385,-0.00016299999999999998
715,-2.476041,-0.170657,0.339147,-0.6085229999999999,0.16983,0.775149,-0.000849,-0.004295,0.005409000000000001,0.000811,-0.018341,0.002012
716,-2.476159,-0.170702,0.339117,-0.608426,0.169874,0.775215,0.003433,-0.004298,0.002234,0.002744,-0.018477,6.9e-05
717,-2.476249,-0.170775,0.339173,-0.608349,0.169946,0.7752600000000001,0.0066430000000000005,-0.0043,0.00011999999999999999,0.0043289999999999995,-0.013604,0.0016710000000000002
718,-2.4763479999999998,-0.170849,0.339302,-0.608265,0.170019,0.77531,0.0077,-0.008556,-0.0020039999999999997,0.006962,-0.0118,0.003025
719,-2.476536,-0.170872,0.339388,-0.608117,0.170042,0.775423,0.00449,-0.009615,-0.000956,0.010506,-0.008711,0.0038740000000000003
720,-2.476681,-0.170896,0.339382,-0.608002,0.170066,0.775507,0.00022799999999999999,-0.005352,0.0022129999999999997,0.011109,-0.008185,0.005804
721,-2.476797,-0.17089300000000002,0.339305,-0.607912,0.17006300000000002,0.775578,-0.001906,-0.0042829999999999995,0.0032649999999999997,0.015246000000000001,-0.012439,0.008648000000000001
722,-2.476944,-0.17084000000000002,0.33915500000000004,-0.607804,0.170011,0.775674,-0.007268999999999999,-0.0074730000000000005,0.006436,0.01149,-0.015607,0.010443000000000001
723,-2.4770659999999998,-0.170821,0.338905,-0.607711,0.169992,0.775751,-0.008331,-0.001099,0.011762,0.011397,-0.015588,0.010366
724,-2.47704,-0.170856,0.338644,-0.607727,0.170026,0.7757310000000001,-0.005092,0.007412,0.011773,0.014328,-0.018826,0.009181
725,-2.4769740000000002,-0.17088399999999998,0.338381,-0.607776,0.170053,0.775687,-0.0050869999999999995,0.007416,0.010705,0.006137,-0.018824,0.001809
726,-2.476909,-0.17091900000000002,0.338145,-0.607823,0.17008800000000002,0.7756430000000001,-0.006164,0.005289,0.0107,0.004704,-0.020597999999999998,0.006309
727,-2.47689,-0.17099,0.337964,-0.60783,0.170158,0.775622,0.000242,0.00421,0.00861,0.00043799999999999997,-0.018378,0.0029579999999999997
728,-2.4768,-0.17111099999999999,0.337881,-0.607887,0.170277,0.775551,0.006672,0.009518,0.00758,0.002434,-0.012852,0.002495
729,-2.476555,-0.17136400000000002,0.337861,-0.60805,0.170527,0.7753680000000001,0.010944,0.012691,0.009742,0.006884,-0.012034,-0.000267
730,-2.476384,-0.17158199999999998,0.337812,-0.60816,0.170742,0.775234,0.006658,0.008445000000000001,0.009718000000000001,0.001165,-0.009548000000000001,5e-05
731,-2.476292,-0.17175,0.337776,-0.608213,0.170906,0.775155,0.006658,0.005261999999999999,0.006517,0.004835,-0.007866,-0.005121
732,-2.476321,-0.171855,0.337748,-0.60818,0.17101,0.775159,0.000218,-0.006421,0.003282,0.005763,-0.013158000000000001,-0.000546
733,-2.476573,-0.171847,0.337636,-0.607985,0.171002,0.7753140000000001,-0.005159,-0.013868,0.005391,0.004866,-0.021953999999999998,0.005845
734,-2.476839,-0.17183800000000002,0.337463,-0.607779,0.170994,0.7754770000000001,-0.004078,-0.008554,0.007528,0.010015999999999999,-0.029194,0.007634999999999999
735,-2.476929,-0.171933,0.33738,-0.6077,0.171087,0.775518,0.00449,-0.002188,0.006512,0.011509,-0.031225,0.010690999999999999
736,-2.476966,-0.172077,0.337435,-0.6076560000000001,0.171229,0.775521,0.011978,-7.5e-05,0.004425,0.010137,-0.015009,0.009498000000000001
737,-2.476845,-0.17230299999999998,0.337537,-0.607726,0.171452,0.775417,0.01415,0.007379000000000001,0.0033619999999999995,0.013808,-0.011493999999999999,0.006534999999999999
738,-2.476616,-0.172523,0.33769,-0.60788,0.17166800000000002,0.775249,0.015244999999999998,0.011645,0.001228,0.015747999999999998,-0.004554,0.006032
739,-2.4763919999999997,-0.172663,0.337857,-0.608039,0.171806,0.775094,0.010983,0.010603,-0.0009369999999999999,0.013237,0.002754,0.005332
740,-2.476197,-0.172758,0.338008,-0.60818,0.1719,0.774962,0.007772,0.006361,-0.00309,0.011867,0.005940999999999999,0.011170000000000001
741,-2.4761279999999997,-0.172764,0.338055,-0.608233,0.171906,0.7749189999999999,-0.000782,0.005313,5.6000000000000006e-05,0.013491,0.006027,0.004759
742,-2.476093,-0.172663,0.337995,-0.608271,0.171806,0.7749119999999999,-0.009307,0.004291,-0.003207,0.009531,-0.025490000000000002,-0.0021
743,-2.476163,-0.17235,0.337864,-0.60825,0.171498,0.774997,-0.021081,-0.005252000000000001,-0.004345,0.002919,-0.039448000000000004,0.005094
744,-2.476362,-0.172049,0.337606,-0.608128,0.171201,0.775158,-0.018994999999999998,-0.006363000000000001,0.005285,-0.004222999999999999,-0.054746,0.006687
745,-2.47646,-0.172026,0.337215,-0.608054,0.171179,0.775221,-0.009398,0.0052710000000000005,0.018155,-0.009072,-0.041922,0.0005200000000000001
746,-2.476265,-0.172245,0.336773,-0.608182,0.171395,0.7750729999999999,-0.001906,0.019059,0.026736000000000003,-0.005572,-0.032998,-0.00542
747,-2.475911,-0.172521,0.336277,-0.608428,0.171666,0.774821,-0.0029920000000000003,0.019046,0.031001,-0.002809,-0.007711,0.005743
748,-2.475654,-0.172808,0.335846,-0.608596,0.171949,0.774626,0.007686,0.016895,0.026806,0.013472,0.012819999999999998,0.0013449999999999998
749,-2.475288,-0.17316700000000002,0.33582399999999996,-0.608841,0.17230299999999998,0.774354,0.020575,0.014805,0.005534000000000001,0.012497,0.011489,-0.000398
750,-2.475022,-0.17338199999999998,0.33621999999999996,-0.609024,0.172515,0.774163,0.02168,0.004225,-0.013673,0.013869999999999999,0.010011,0.002891
751,-2.475105,-0.173346,0.33674699999999996,-0.6089640000000001,0.172479,0.7742180000000001,0.010978,-0.014865999999999999,-0.025474,0.013366999999999999,0.010626,0.012159
752,-2.4755540000000003,-0.173148,0.33729699999999996,-0.608637,0.172284,0.774518,0.009858,-0.030824,-0.029733999999999997,0.017206,0.002948,0.011248000000000001
753,-2.476,-0.172925,0.337901,-0.6083149999999999,0.17206400000000002,0.77482,0.00883,-0.023359,-0.030819,0.018029,-0.010412000000000001,0.012213
754,-2.476298,-0.172739,0.338415,-0.608104,0.171881,0.775027,0.004557,-0.015921,-0.022312000000000002,0.009212,-0.02178,0.006712
755,-2.476557,-0.172546,0.338622,-0.607924,0.171691,0.7752100000000001,-0.0050869999999999995,-0.013803999999999999,-0.010631999999999999,0.007963,-0.027160000000000004,-0.000262
756,-2.476873,-0.172352,0.338553,-0.6077,0.1715,0.775428,-0.014728,-0.013805000000000001,-0.002154,-0.001843,-0.034064,-0.002815
757,-2.477146,-0.172149,0.338276,-0.607509,0.1713,0.775621,-0.014731999999999999,-0.006382,0.006383,-0.006123,-0.035848000000000005,0.002486
758,-2.4773080000000003,-0.172036,0.337941,-0.607395,0.171189,0.7757350000000001,-0.012613,-0.00428,0.011736,-0.0019190000000000001,-0.034455,0.002845
759,-2.477452,-0.172026,0.33766399999999996,-0.607284,0.171179,0.775824,-0.005135,-0.005359,0.008584999999999999,0.0018920000000000002,-0.034109,-0.0009519999999999999
760,-2.477493,-0.172042,0.337591,-0.607251,0.171194,0.775846,0.004519,-4e-05,0.002236,0.001263,-0.028952,0.002535
761,-2.477376,-0.172175,0.337708,-0.607328,0.171326,0.7757569999999999,0.015236000000000001,0.008453,0.000164,0.002042,-0.022812,0.005462
762,-2.477089,-0.172432,0.337913,-0.6075229999999999,0.171579,0.7755489999999999,0.020594,0.013761,0.000194,0.006861,-0.016092,0.007502
763,-2.476667,-0.17271199999999998,0.33819899999999997,-0.6078210000000001,0.171855,0.775254,0.022752,0.018019,-0.0008640000000000001,0.012881,-0.010523999999999999,0.006546
764,-2.47624,-0.172958,0.33850399999999997,-0.608126,0.172097,0.774961,0.022752,0.016958,-0.0019309999999999998,0.015444,-0.001031,0.009219
765,-2.475906,-0.17322200000000001,0.33869499999999997,-0.608356,0.17235699999999998,0.774722,0.01525,0.013771,0.002293,0.016803,0.004722,0.007214
766,-2.475649,-0.17338299999999998,0.33876999999999996,-0.608538,0.172515,0.774544,0.006701,0.010605,0.002238,0.0161,0.0043950000000000005,0.006873000000000001
767,-2.475529,-0.17335699999999998,0.338769,-0.608634,0.17249,0.774475,-0.002915,0.00426,-0.001026,0.014273,-0.009999,0.008865999999999999
768,-2.4755439999999997,-0.17325,0.338683,-0.608634,0.17238399999999998,0.7744989999999999,-0.00935,-0.001053,0.001072,0.009023999999999999,-0.015646,0.005928
769,-2.475619,-0.17310599999999998,0.338523,-0.608591,0.172243,0.774564,-0.011493000000000001,-0.0021149999999999997,0.002127,0.001001,-0.022112,0.003375
770,-2.475748,-0.173007,0.338287,-0.6085010000000001,0.172145,0.774655,-0.010440999999999999,-0.00107,0.006406,-0.000217,-0.017009,-0.004224
771,-2.475768,-0.172992,0.338055,-0.608488,0.172131,0.7746689999999999,-0.007240000000000001,0.0010400000000000001,0.008562,-0.000704,-0.019466999999999998,-0.0007440000000000001
772,-2.4758310000000003,-0.172965,0.337875,-0.608442,0.172104,0.7747109999999999,-0.005107,-0.00215,0.005376,0.002149,-0.022491,0.000848
773,-2.47592,-0.172932,0.337783,-0.608376,0.172071,0.77477,0.00023199999999999997,-0.003225,0.003278,0.0014880000000000002,-0.017881,0.00648
774,-2.475993,-0.172963,0.33781100000000003,-0.608316,0.172101,0.77481,0.004509,-0.004293,0.000105,0.00297,-0.016447,0.002931
775,-2.476003,-0.173035,0.337929,-0.608301,0.172173,0.774806,0.00881,-3.4e-05,-0.003075,0.006647,-0.011773,0.004659
776,-2.475979,-0.173075,0.338107,-0.6083149999999999,0.17221199999999998,0.7747850000000001,0.008815,-0.001091,-0.00521,0.013741,-0.011399,0.008967000000000001
777,-2.4760310000000003,-0.17310699999999998,0.338265,-0.60827,0.172244,0.774812,0.006658,-0.004287,-0.003085,0.013375999999999999,-0.014025999999999999,0.009733
778,-2.476102,-0.173146,0.33839400000000003,-0.608212,0.172282,0.77485,0.006662,-0.0021609999999999997,-0.002019,0.012447,-0.013438,0.010886
779,-2.476123,-0.173171,0.338469,-0.608192,0.172307,0.77486,0.003471,0.001042,-0.000977,0.011711,-0.014958,0.005887
780,-2.476152,-0.173175,0.338498,-0.60817,0.172311,0.774876,0.000252,-0.003208,-0.0009939999999999999,0.008209000000000001,-0.013924,0.007427
781,-2.476184,-0.17316600000000001,0.338448,-0.608146,0.172302,0.7748970000000001,-0.001877,0.0021079999999999996,0.003257,0.00817,-0.016952000000000002,0.0031030000000000003
782,-2.476126,-0.17316600000000001,0.338402,-0.60819,0.172301,0.7748619999999999,-0.000796,0.004239,0.002194,0.008322,-0.018783,0.001902
783,-2.476091,-0.17314100000000002,0.338426,-0.60822,0.17227699999999999,0.774844,0.001342,-8e-06,-0.003127,0.005071,-0.017309,0.005949
784,-2.476184,-0.173085,0.338521,-0.608154,0.17222200000000001,0.774908,0.004524,-0.006402,-0.005233,0.0017239999999999998,-0.010296,0.004664
785,-2.47625,-0.173105,0.338631,-0.6081,0.172241,0.774945,0.0056,-0.002153,-0.003095,0.002219,-0.009033,0.0032380000000000004
786,-2.4762150000000003,-0.173144,0.33878600000000003,-0.608123,0.17228,0.774918,0.007758,0.001044,-0.005220000000000001,0.01007,-0.011468,0.003082
787,-2.4762310000000003,-0.173131,0.338996,-0.608112,0.172267,0.77493,0.007744,-0.005335,-0.008417000000000001,0.007511,-0.015727,0.005527000000000001
788,-2.4764180000000002,-0.173094,0.33921799999999996,-0.607971,0.172231,0.775048,0.004514,-0.013838,-0.010565,0.004684000000000001,-0.015371000000000001,0.005378
789,-2.476613,-0.173009,0.339398,-0.607829,0.172147,0.7751779999999999,0.001318,-0.009578,-0.007388,0.006221,-0.017942,0.004622
790,-2.476744,-0.172929,0.339541,-0.607735,0.172069,0.775269,0.001323,-0.008513,-0.007389,0.007348,-0.022655,0.006027
791,-2.47693,-0.172879,0.339663,-0.607597,0.172019,0.775388,0.00023700000000000001,-0.010648000000000001,-0.005258,0.008018,-0.021919,0.0054659999999999995
792,-2.477112,-0.172784,0.33972399999999997,-0.607466,0.171926,0.775512,-0.0018920000000000002,-0.007453,-0.00314,0.0055520000000000005,-0.022725,0.006790999999999999
793,-2.477182,-0.172731,0.33976300000000004,-0.607417,0.171873,0.775562,0.000256,-0.003204,-0.002062,0.008449,-0.019865,0.003536
794,-2.477265,-0.17271199999999998,0.339777,-0.607356,0.171854,0.7756149999999999,0.001318,-0.0032119999999999996,-0.000987,0.007670000000000001,-0.017909,0.0038950000000000005
795,-2.4773259999999997,-0.172699,0.339834,-0.60731,0.171842,0.775655,0.003462,-0.00215,-0.002041,0.007807,-0.0137,0.006389
796,-2.477328,-0.172706,0.339933,-0.6073069999999999,0.171849,0.775654,0.005619,0.0021079999999999996,-0.0031,0.010811,-0.016499,0.005321
797,-2.477245,-0.172756,0.340028,-0.607366,0.171898,0.775598,0.006682,0.0031609999999999997,-0.000958,0.008367,-0.018744999999999998,0.0041259999999999995
798,-2.477184,-0.172802,0.34012,-0.607409,0.171943,0.775554,0.00561,0.0020989999999999997,-0.000964,0.008959,-0.01696,0.008473
799,-2.477158,-0.17286500000000002,0.340221,-0.607422,0.172005,0.77553,0.007734,-3.9e-05,-0.0009460000000000001,0.010666,-0.019173,0.0066359999999999995
800,-2.477109,-0.172961,0.340382,-0.60745,0.1721,0.775487,0.009887,0.001032,-0.004137,0.006361,-0.018841,0.006465
801,-2.477028,-0.17302599999999999,0.340577,-0.607506,0.172164,0.775429,0.008834,0.00317,-0.005215,0.003853,-0.019149,0.005089
802,-2.4769740000000002,-0.17307999999999998,0.340742,-0.607542,0.172217,0.775389,0.006691,0.003169,-0.003094,0.0038130000000000004,-0.014624000000000002,0.004396
803,-2.476861,-0.173154,0.34085,-0.607622,0.17229,0.77531,0.007763,0.0074140000000000005,0.000113,0.006288,-0.014391999999999999,0.0034219999999999997
804,-2.4766939999999997,-0.173255,0.340924,-0.607741,0.17239000000000002,0.775195,0.00883,0.009531999999999999,0.002254,0.006392,-0.011349,0.007062000000000001
805,-2.476506,-0.17337,0.340982,-0.607874,0.172503,0.775065,0.006686,0.0063479999999999995,0.001175,0.010752,-0.011126,0.005575
806,-2.4764369999999998,-0.173404,0.341015,-0.607924,0.172537,0.775019,0.001338,0.0021100000000000003,7.5e-05,0.007735,-0.009085,0.0069180000000000005
807,-2.476428,-0.173399,0.340954,-0.6079319999999999,0.172532,0.775014,-0.002949,0.001047,0.003251,0.003836,-0.010621,0.0047409999999999996
808,-2.476382,-0.17339000000000002,0.340812,-0.607969,0.172523,0.774987,-0.005078,0.005303,0.006435,0.007825,-0.012855000000000002,0.006781000000000001
809,-2.476408,-0.17333199999999999,0.340624,-0.607955,0.172466,0.775011,-0.007236,-0.0021379999999999997,0.004293,0.007887,-0.02325,-7.8e-05
810,-2.4765900000000003,-0.17321,0.340528,-0.607826,0.172345,0.775138,-0.008326,-0.014888,-0.003176,0.0028,-0.023099,0.005929
811,-2.476958,-0.173076,0.340498,-0.6075550000000001,0.172213,0.7753800000000001,-0.001935,-0.017041,-0.003128,-0.000401,-0.013247,0.012980000000000002
