,attitude.roll,attitude.pitch,attitude.yaw,gravity.x,gravity.y,gravity.z,rotationRate.x,rotationRate.y,rotationRate.z,userAcceleration.x,userAcceleration.y,userAcceleration.z
0,-2.059807,-0.410103,0.057425,-0.809584,0.39870300000000003,0.43079399999999995,-0.014509999999999999,-0.0006490000000000001,0.002779,0.006346,0.009576000000000001,0.004081
1,-2.060025,-0.410155,0.056965999999999996,-0.809471,0.398751,0.430961,-0.019902,-0.002804,0.013425999999999999,0.009468,0.008033,0.0031969999999999998
2,-2.060352,-0.41046800000000006,0.056340999999999995,-0.8092199999999999,0.399039,0.431167,-0.025284,-0.0017670000000000001,0.025137,0.006867,0.018442,-0.000686
3,-2.060717,-0.41082399999999997,0.055387,-0.808937,0.399365,0.431395,-0.037044,0.000375,0.03253,0.001702,0.019596000000000002,-0.002989
4,-2.06129,-0.41115100000000004,0.05430700000000001,-0.808575,0.399665,0.43179700000000004,-0.039245,-0.012409,0.034668,0.003735,0.015038,-0.002323
5,-2.062226,-0.411497,0.053121,-0.808049,0.399982,0.432489,-0.043555,-0.021981999999999998,0.03465,0.004887,0.007504,0.002325
6,-2.063165,-0.411861,0.051976,-0.8075140000000001,0.40031500000000003,0.43317799999999995,-0.04035,-0.024111,0.03147,0.0016059999999999998,0.009704,0.002307
7,-2.063909,-0.41208599999999995,0.051014,-0.807113,0.400521,0.43373599999999995,-0.03069,-0.016666,0.026187000000000002,0.003341,0.008002,0.0032600000000000003
8,-2.064412,-0.412475,0.05033,-0.806757,0.400878,0.434068,-0.018923,-0.01243,0.023056999999999998,0.014780000000000001,0.008729,0.004606
9,-2.06486,-0.41280100000000003,0.049838,-0.806447,0.401177,0.43436800000000003,-0.010378,-0.011391,0.022047,0.011890999999999999,0.0053479999999999995,0.006016
10,-2.0651639999999998,-0.413199,0.049492,-0.806174,0.401542,0.434537,-0.0018149999999999998,-0.005029,0.022099,0.0091,0.008493,0.007662
11,-2.065233,-0.413645,0.049363,-0.805987,0.40195,0.434508,0.007845,0.0034770000000000005,0.017882,0.008974,0.012723,0.0056619999999999995
12,-2.065249,-0.414174,0.049372000000000006,-0.805793,0.402434,0.43442,0.015297999999999999,0.0013160000000000001,0.019005,0.014150999999999999,0.00908,0.005765999999999999
13,-2.0652939999999997,-0.414733,0.049479,-0.805575,0.402946,0.43435,0.019537,-0.00403,0.02011,0.013231999999999999,0.009728,0.004569
14,-2.065481,-0.415354,0.049625999999999997,-0.8052739999999999,0.403514,0.434382,0.021671,-0.006159,0.017991,0.010886,0.009053,0.0026149999999999997
15,-2.065502,-0.415896,0.049863,-0.805072,0.40401,0.43429399999999996,0.021713999999999997,-0.000816,0.013712,0.009677,0.009641,0.004548
16,-2.065366,-0.416308,0.050123,-0.8049850000000001,0.404386,0.43410600000000005,0.019628,0.0056,0.009415999999999999,0.008934000000000001,0.0071129999999999995,0.0050420000000000005
17,-2.065297,-0.416779,0.050366,-0.804847,0.404817,0.43396,0.018557,0.003478,0.008343000000000001,0.008551999999999999,0.007277,0.000641
18,-2.065318,-0.41721899999999995,0.050553,-0.8046810000000001,0.40521999999999997,0.433892,0.014256,-0.003964,0.008323,0.008111,0.006157,0.0021579999999999998
19,-2.065435,-0.41755,0.050681,-0.804513,0.405522,0.43392299999999995,0.011031000000000001,-0.008218000000000001,0.009373999999999999,0.009164,0.006984000000000001,0.002677
20,-2.065594,-0.417824,0.050743,-0.804346,0.40577199999999997,0.43399799999999994,0.008907,-0.0060799999999999995,0.009356,0.008249,0.008504000000000001,0.004448
21,-2.06573,-0.41813900000000004,0.050733999999999994,-0.8041739999999999,0.406061,0.434047,0.003597,-0.000735,0.009312,0.010334999999999999,0.009894,0.004704
22,-2.065764,-0.418347,0.050654000000000005,-0.804085,0.40625,0.43403400000000003,0.000396,0.000337,0.010357,0.012078,0.008789,0.005251
23,-2.065865,-0.41856400000000005,0.050486,-0.803964,0.406448,0.43407399999999996,-0.003872,-0.000709,0.00926,0.015512,0.010787999999999999,0.006142
24,-2.0660130000000003,-0.41873299999999997,0.050316,-0.8038390000000001,0.40660300000000005,0.43416000000000005,-0.0027949999999999997,-0.0017649999999999999,0.006064,0.014411000000000002,0.015271999999999999,0.004545
25,-2.066158,-0.418857,0.050195,-0.803732,0.40671599999999997,0.434252,-0.000647,-0.00176,0.002875,0.015356,0.012473,0.005201
26,-2.06636,-0.418976,0.050055,-0.803602,0.406826,0.43439099999999997,-0.004929,-0.0038799999999999998,0.003915999999999999,0.010907,0.010273000000000001,0.0043289999999999995
27,-2.066518,-0.419101,0.049996,-0.803488,0.40694,0.43449399999999994,0.001492,-0.003885,-0.000312,0.010031,0.008023,0.001755
28,-2.066709,-0.419228,0.049957,-0.8033600000000001,0.407055,0.434623,0.00041500000000000006,-0.004951,0.00075,0.00914,0.001163,0.004418
29,-2.066884,-0.41940500000000003,0.049956,-0.8032199999999999,0.407217,0.43473,0.004678,-0.003909,0.002915,0.0057810000000000005,0.009241,0.0028309999999999997
30,-2.066805,-0.419608,0.050029000000000004,-0.803182,0.407402,0.43462700000000004,0.006869,0.008867,0.002914,0.0014089999999999999,0.007744,0.006154
31,-2.06657,-0.41979799999999995,0.050158999999999995,-0.8032159999999999,0.40757600000000005,0.43440200000000007,0.006893000000000001,0.012071,0.000773,0.0055320000000000005,0.006502,0.006409999999999999
32,-2.066415,-0.419915,0.050265,-0.803241,0.407683,0.434254,0.0068590000000000005,0.005675,0.001849,0.008258,0.002519,0.001568
33,-2.066423,-0.42003,0.05036,-0.803197,0.407787,0.434238,0.005783,-0.000696,-0.0024230000000000002,0.007558,0.0034219999999999997,0.005154
34,-2.066424,-0.42007799999999995,0.050481,-0.803179,0.40783200000000003,0.43423,0.005783,-0.000696,-0.0024230000000000002,0.009370999999999999,0.002798,0.005086
35,-2.066366,-0.42013199999999995,0.050601,-0.803185,0.407881,0.434173,0.0068790000000000006,0.004631000000000001,-0.00349,0.010094,0.007189,0.005753
36,-2.0662529999999997,-0.42022299999999996,0.05076,-0.8032020000000001,0.407964,0.434065,0.007945,0.005688,-0.002416,0.010537999999999999,0.009593,0.001497
37,-2.066093,-0.420282,0.050899,-0.80325,0.408018,0.433925,0.006874,0.006749,-0.000288,0.009976,0.009904999999999999,0.001088
38,-2.0660380000000003,-0.420425,0.050974,-0.8032229999999999,0.408148,0.43385200000000007,0.005788000000000001,0.004613,0.001843,0.008392,0.011331,-0.000365
39,-2.066041,-0.420579,0.051036,-0.803165,0.408289,0.433825,0.005764,-0.000713,0.00185,0.007297,0.010503,0.00025699999999999996
40,-2.0661099999999997,-0.42066000000000003,0.051088999999999996,-0.803107,0.40836300000000003,0.433864,0.002554,-0.0060149999999999995,-0.00137,0.007651000000000001,0.011040000000000001,-0.000164
41,-2.066294,-0.420775,0.051118000000000004,-0.802986,0.408468,0.43399,0.001472,-0.008145999999999999,-0.000307,0.010551000000000001,0.005488,0.002625
42,-2.066434,-0.420892,0.051144999999999996,-0.802883,0.408574,0.43408,0.001468,-0.006029,0.002895,0.006252000000000001,0.002589,0.006594
43,-2.0665,-0.421099,0.051125,-0.802779,0.40876399999999996,0.434093,0.0025440000000000003,-0.000719,0.0061,0.002654,0.00217,0.006534999999999999
44,-2.066575,-0.421328,0.051019999999999996,-0.802664,0.408973,0.434108,-0.000671,-0.00072,0.009281999999999999,0.003607,0.0030600000000000002,0.002781
45,-2.066735,-0.42154899999999995,0.050871,-0.802516,0.409174,0.43419399999999997,-0.0017670000000000001,-0.006047,0.01035,0.007684999999999999,0.001379,0.001399
46,-2.0670040000000003,-0.421774,0.0507,-0.802318,0.40938,0.43436499999999995,-0.000719,-0.008190000000000001,0.012496,0.00642,0.001189,0.0043100000000000005
47,-2.067291,-0.42199799999999993,0.050535000000000004,-0.8021119999999999,0.409584,0.43455200000000005,-0.002867,-0.011378000000000001,0.012485,0.002262,0.004845,0.003817
48,-2.067802,-0.42215600000000003,0.050256999999999996,-0.801833,0.409728,0.43493100000000007,-0.009307,-0.022,0.010318,0.002258,0.013474000000000002,-0.002802
49,-2.0684080000000002,-0.42220100000000005,0.050017,-0.801553,0.40976899999999994,0.435408,-0.006092,-0.02412,0.005002,0.006586,0.01763,-0.003935
50,-2.068732,-0.422204,0.049937,-0.801411,0.409772,0.435667,0.000434,-0.004934,-0.0035229999999999997,0.021488999999999998,0.004672,0.0068379999999999995
51,-2.068695,-0.42213599999999996,0.050076999999999997,-0.801452,0.40971,0.435651,0.0036880000000000003,-0.000654,-0.010983,0.010879,0.012134,0.0038929999999999998
52,-2.068603,-0.421814,0.050308,-0.801608,0.409416,0.43563999999999997,0.000549,-0.00271,-0.027025999999999998,0.008471,0.019829,0.002577
53,-2.068649,-0.421285,0.050817,-0.801778,0.408933,0.43578100000000003,0.004836,-0.020745,-0.049406,0.021062,0.010576,0.010554000000000001
54,-2.068967,-0.420525,0.051455999999999995,-0.801913,0.40824,0.436184,0.01017,-0.025006999999999998,-0.053636,0.015353,0.002664,0.012943999999999999
55,-2.0689349999999997,-0.41995600000000005,0.052453,-0.80213,0.40771999999999997,0.43626899999999996,0.030469,-0.012320999999999999,-0.047101,0.002585,0.006052,0.009409
56,-2.068588,-0.419691,0.053574000000000004,-0.802377,0.407478,0.436042,0.035828,-0.000647,-0.040669,0.008218000000000001,-0.002709,0.011666
57,-2.068116,-0.41963900000000004,0.054478,-0.802601,0.407431,0.435674,0.031599,0.022744,-0.025774000000000002,0.009479000000000001,-0.0022789999999999998,0.012172
58,-2.067432,-0.419628,0.055105999999999995,-0.8029029999999999,0.407421,0.43512700000000004,0.018753,0.028056,-0.010915000000000001,0.003998,0.005268,0.009163
59,-2.0668889999999998,-0.41956400000000005,0.055357,-0.803162,0.40736300000000003,0.43470299999999995,0.0038179999999999998,0.027045,-0.012085,0.001816,-0.00028900000000000003,-0.008464
60,-2.06679,-0.41934499999999997,0.05538200000000001,-0.803283,0.407163,0.434666,-0.008042,0.001511,-0.009999,0.001693,-0.009412,-0.017796
61,-2.066982,-0.41919399999999996,0.05521,-0.803254,0.407024,0.43485,-0.010258,-0.0038590000000000005,0.002811,-0.000625,-0.013256,-0.015142
62,-2.067215,-0.41926899999999995,0.054899,-0.803126,0.407093,0.435022,-0.007051999999999999,0.0046229999999999995,0.0103,-0.012182,-0.003757,-0.006876
63,-2.0669779999999998,-0.419421,0.05471,-0.8031739999999999,0.407231,0.434803,-0.0037890000000000003,0.019521,0.011372,-0.000124,0.002025,-0.00043099999999999996
64,-2.066423,-0.419595,0.054523,-0.803353,0.407391,0.43432299999999996,-0.003737,0.033361,0.013491,0.00686,0.0015140000000000002,0.007006999999999999
65,-2.065594,-0.419783,0.054438,-0.803646,0.407562,0.43362,0.001622,0.04079,0.015656,0.012783,0.003357,0.011646
66,-2.064691,-0.420023,0.054365,-0.803951,0.40778200000000003,0.43284799999999996,0.0027170000000000002,0.046117,0.014588,0.010570999999999999,0.004587,0.012022
67,-2.0638650000000003,-0.42029799999999995,0.054425,-0.8042090000000001,0.408033,0.43213100000000004,0.011228,0.033333999999999996,0.007187000000000001,0.017054,0.012881,0.004102000000000001
68,-2.063495,-0.42049899999999996,0.054549,-0.804297,0.40821599999999997,0.431795,0.007951,0.012057,0.002918,0.016257,0.01285,0.0029579999999999997
69,-2.0635689999999998,-0.420522,0.054584,-0.804258,0.408237,0.43185,0.001511,-0.00387,-0.004584,0.010099,0.020276,0.0045969999999999995
70,-2.063713,-0.420379,0.054678,-0.804247,0.40810599999999997,0.431993,0.003679,-0.004908,-0.013113,6.3e-05,0.023977000000000002,-0.0011
71,-2.0640240000000003,-0.420149,0.055053,-0.804194,0.40789699999999995,0.432288,0.010009,-0.032549,-0.029085000000000003,0.010829,0.019837999999999998,-0.005393
72,-2.0647889999999998,-0.41972299999999996,0.055537,-0.804017,0.407507,0.432985,0.006756,-0.050622,-0.035494,0.016252000000000003,0.002908,0.004698
73,-2.065645,-0.41920100000000005,0.056098,-0.803833,0.40703,0.433774,0.011062,-0.051664,-0.045076,0.009461,0.008634000000000001,0.009555
74,-2.066153,-0.418574,0.056934000000000005,-0.803837,0.406458,0.434304,0.01865,-0.034607,-0.054659000000000006,0.006915999999999999,0.011084,0.011054000000000001
75,-2.066123,-0.41789,0.057878,-0.804094,0.405833,0.43441199999999996,0.015578999999999999,-0.007956,-0.056851,0.009081,0.00011200000000000001,0.013281
76,-2.065974,-0.41721499999999995,0.058717,-0.8044,0.40521599999999997,0.43442200000000003,0.017679,-0.005871,-0.047225,0.005099,-0.008884,0.008479
77,-2.065873,-0.41673699999999997,0.05939,-0.804614,0.404779,0.434433,0.014406,-0.008046,-0.033359,-0.003628,-0.010477,0.007125
78,-2.065889,-0.416495,0.059838,-0.8046939999999999,0.404558,0.434493,0.012234,-0.002768,-0.019494,-0.005472,-0.016281999999999998,-0.000563
79,-2.065848,-0.41649899999999995,0.060205999999999996,-0.804711,0.404561,0.434458,0.018568,0.000333,-0.001294,-0.007529999999999999,-0.000615,-0.00352
80,-2.0657389999999998,-0.41676,0.06035700000000001,-0.804664,0.4048,0.434321,0.009865,0.003633,0.015491999999999999,-0.009895000000000001,0.005997,-0.007304000000000001
81,-2.065975,-0.41699200000000003,0.060066999999999995,-0.80448,0.405012,0.43446599999999996,-0.008372,-0.011247,0.022861000000000003,-0.002451,0.012468,-0.021075
82,-2.066713,-0.41717,0.05957899999999999,-0.804096,0.405175,0.435025,-0.01807,-0.035702,0.01962,0.0078,0.011664,-0.019086000000000002
83,-2.067772,-0.417156,0.058984,-0.803639,0.40516199999999997,0.43588000000000005,-0.023419,-0.042062,0.016386,0.015676,0.005132,-0.000135
84,-2.0685439999999997,-0.417337,0.058398,-0.803238,0.405328,0.43646499999999994,-0.021208,-0.020782,0.020648,-0.0035090000000000004,0.006187,0.010556999999999999
85,-2.068757,-0.417596,0.057898000000000005,-0.803053,0.405564,0.436586,-0.013619999999999998,0.004763,0.0196,-0.009554,0.008712000000000001,0.013488
86,-2.0687349999999998,-0.417894,0.057573,-0.802956,0.405837,0.43651,-0.010425,-0.0016179999999999999,0.014288999999999998,0.005883,-0.00392,0.004896
87,-2.069207,-0.41806400000000005,0.057250999999999996,-0.802689,0.405992,0.436856,-0.009579,-0.026964,0.007943,0.009904000000000001,0.00041,0.005603
88,-2.070061,-0.418087,0.057093,-0.802308,0.406013,0.437537,-0.0042829999999999995,-0.040809,0.002657,0.012284,2.4e-05,0.006905
89,-2.0707470000000003,-0.41811800000000005,0.057003,-0.801996,0.406041,0.43808199999999997,-0.002068,-0.021646000000000002,0.0037159999999999997,0.01034,0.002787,0.016173
90,-2.070958,-0.41818900000000003,0.057013999999999995,-0.801879,0.406107,0.438237,0.005477,-0.00675,0.0016129999999999999,0.013106,0.010687,0.002773
91,-2.071141,-0.41817,0.057014999999999996,-0.801805,0.406089,0.43838699999999997,-0.005197,-0.013083000000000001,-0.0037939999999999996,0.015153,0.0056689999999999996,-0.000628
92,-2.071711,-0.417998,0.056858000000000006,-0.801616,0.405931,0.438878,-0.008436,-0.025838,-0.008073,0.013697999999999998,-0.0011,0.005
93,-2.072326,-0.41787399999999997,0.05681900000000001,-0.801391,0.405819,0.439395,0.00010400000000000001,-0.020559,-0.0037479999999999996,0.006437999999999999,0.0026739999999999997,0.010496
94,-2.07245,-0.41790600000000006,0.057012,-0.801325,0.40584699999999996,0.439488,0.011921,-0.004612,-0.005822,0.001505,0.012549,0.007181999999999999
95,-2.072526,-0.41798,0.057315,-0.801265,0.405915,0.439535,0.011745,-0.008849,-0.008870000000000001,0.019816999999999998,0.000869,0.007411
96,-2.072686,-0.4179,0.057526999999999995,-0.8012229999999999,0.405842,0.43967799999999996,0.0074730000000000005,-0.008839,-0.007831999999999999,0.021285,-0.000233,0.01247
97,-2.0726970000000002,-0.417803,0.057727999999999995,-0.801253,0.40575300000000003,0.43970600000000004,0.006459,0.0007610000000000001,-0.009988,0.020079,-0.001517,0.014303999999999999
98,-2.072371,-0.41784799999999994,0.057920000000000006,-0.80138,0.40579499999999996,0.439436,0.008655,0.022029,-0.002522,0.0011330000000000001,-0.00044500000000000003,0.00432
99,-2.071862,-0.41796000000000005,0.058112,-0.801564,0.405896,0.43900600000000006,0.011845999999999999,0.022009,-0.000363,0.003621,0.001422,0.000584
100,-2.071541,-0.418072,0.058299000000000004,-0.801665,0.406,0.43872700000000003,0.009669,0.012429,-0.000366,0.009092,0.001578,0.003229
101,-2.071447,-0.418125,0.058352999999999995,-0.801687,0.406048,0.43864200000000003,0.009687999999999999,0.01669,-0.00037200000000000004,-0.003214,0.002094,-0.001248
102,-2.070953,-0.418239,0.058612,-0.801864,0.406152,0.438223,0.015047,0.020937,-0.001408,-0.0016640000000000001,0.006904,-0.002478
103,-2.070467,-0.41837799999999997,0.058870000000000006,-0.802028,0.406279,0.43780600000000003,0.012884,0.017736000000000002,0.001786,-0.00147,0.008684,-0.006211
104,-2.0703169999999997,-0.418529,0.058985,-0.8020390000000001,0.406416,0.43765699999999996,0.00839,0.0027329999999999998,0.002968,0.007316,0.007097,-0.011036
105,-2.070338,-0.418566,0.05911,-0.802017,0.40645,0.437666,0.005175,-0.005756,-0.002384,0.016189,0.0034460000000000003,-0.003081
106,-2.070416,-0.418491,0.059187000000000003,-0.802009,0.406382,0.43774300000000005,-0.001207,-0.003595,-0.004568,0.00373,0.00205,0.003297
107,-2.070398,-0.41846400000000006,0.059317999999999996,-0.802027,0.406358,0.437734,0.0051990000000000005,-0.0057350000000000005,-0.007725,-0.00031099999999999997,0.008651,0.005961
108,-2.070491,-0.418425,0.059601,-0.802,0.406321,0.437817,0.010504000000000001,-0.015328,-0.010881,0.009184000000000001,0.000753,0.013568
109,-2.07064,-0.41840900000000003,0.059989,-0.80194,0.40630700000000003,0.437939,0.014791,-0.012143000000000001,-0.011923,0.009521,0.005619,0.012943000000000001
110,-2.070591,-0.418361,0.060396000000000005,-0.801979,0.406263,0.437909,0.014853,0.0017050000000000001,-0.011940000000000001,0.0076370000000000006,0.007234999999999999,0.009479000000000001
111,-2.070163,-0.41828699999999996,0.060834000000000006,-0.802192,0.406196,0.43758,0.013881999999999999,0.01877,-0.016242,0.022667,-0.0021579999999999998,0.0033079999999999997
112,-2.0696369999999997,-0.418038,0.061136,-0.802511,0.405968,0.43720600000000004,0.0019510000000000003,0.024262,-0.018057,0.018606,-0.0044020000000000005,0.0038179999999999998
113,-2.069245,-0.417808,0.061225999999999996,-0.802764,0.405758,0.436936,-0.00236,0.021056000000000002,-0.011674,0.007812,-5.7999999999999994e-05,0.004302
114,-2.068931,-0.417679,0.061224,-0.8029470000000001,0.40564,0.436709,-0.006675,0.017845,-0.004222,-0.003037,0.010025,0.002774
115,-2.068772,-0.41768299999999997,0.060891999999999995,-0.8030149999999999,0.405644,0.43658100000000005,-0.017421000000000002,0.015691999999999998,0.010661,-0.003946,0.013087999999999999,0.002109
116,-2.068712,-0.41777700000000006,0.060364999999999995,-0.8030079999999999,0.40573000000000004,0.436514,-0.015272999999999998,0.022064,0.013872,0.015334,-0.010115,0.009409
117,-2.06829,-0.417917,0.060085,-0.803142,0.405858,0.436148,-0.001341,0.032681,0.010751,0.026744999999999998,-0.01595,0.019205
118,-2.0675619999999997,-0.41803999999999997,0.060152,-0.803415,0.40597,0.43554,0.010471,0.038013,-0.000924,0.029459,-0.013011000000000002,0.020988
119,-2.066509,-0.418152,0.060514,-0.803834,0.406072,0.434672,0.019031,0.051058,-0.008198,0.013169,-0.000921,0.021199000000000003
120,-2.065123,-0.418117,0.061188,-0.8044479999999999,0.406041,0.43356400000000006,0.033006,0.063835,-0.018799,0.012318,-0.0032240000000000003,0.017242
121,-2.063528,-0.41799899999999995,0.062074000000000004,-0.80518,0.405933,0.432303,0.038403,0.07236000000000001,-0.024113,0.007206999999999999,-0.008395,0.015038
122,-2.061887,-0.417965,0.063052,-0.805901,0.405901,0.43098800000000004,0.043699,0.06700199999999999,-0.020865,0.002435,-0.004686999999999999,0.002637
123,-2.06046,-0.41802,0.06408,-0.806496,0.405952,0.42982700000000007,0.043632,0.05315,-0.019778999999999998,-0.000801,-0.0018989999999999999,-0.0049
124,-2.059372,-0.418062,0.06492300000000001,-0.806948,0.40599,0.42894099999999996,0.03392,0.035048,-0.013415,-0.018064,-0.010787,-0.007814
125,-2.0586849999999997,-0.41818500000000003,0.065585,-0.807198,0.40610300000000005,0.428364,0.033809,0.019035,-0.004849,-0.013891999999999998,0.008586,-0.017689
126,-2.058292,-0.418443,0.066227,-0.8072739999999999,0.406339,0.427997,0.030527,0.005181,-0.0005809999999999999,-0.010734,0.0038179999999999998,-0.010669
127,-2.058014,-0.418759,0.066737,-0.80728,0.406627,0.427713,0.026226,0.004105,0.005799,-0.005907,0.005452,-0.014993000000000001
128,-2.057795,-0.419042,0.06704700000000001,-0.807271,0.406886,0.427482,0.017624,0.0002,0.009063,-0.004862,0.010228000000000001,-0.017799000000000002
129,-2.057712,-0.41934799999999994,0.06716699999999999,-0.807197,0.407165,0.427356,0.005850999999999999,-0.004037,0.013259,-0.0026030000000000003,0.007201999999999999,-0.012668
130,-2.057856,-0.419695,0.06704199999999999,-0.80701,0.407482,0.427407,-0.002732,-0.008293,0.019614,-0.008466,0.002537,-0.006706999999999999
131,-2.0580439999999998,-0.420062,0.066721,-0.8067979999999999,0.407817,0.42748800000000003,-0.007014,-0.006169,0.024923,-0.009304,0.010533,-0.009229000000000001
132,-2.058364,-0.42047799999999996,0.066316,-0.806511,0.408197,0.427666,-0.014530000000000001,-0.018918,0.02275,-0.003334,0.017218,-0.009148
133,-2.059112,-0.420677,0.06569,-0.8061189999999999,0.408378,0.42823199999999995,-0.026318,-0.031656000000000004,0.021616,-0.001361,0.021706,-0.009134
134,-2.060155,-0.42078000000000004,0.06500700000000001,-0.805635,0.408473,0.42905200000000004,-0.0285,-0.046544999999999996,0.017347,-0.003447,0.009542,-0.0031940000000000002
135,-2.061448,-0.420784,0.06415499999999999,-0.805078,0.408476,0.430093,-0.039188,-0.050769,0.017278,0.000848,0.01404,-0.002816
136,-2.062791,-0.42086999999999997,0.063276,-0.804469,0.408555,0.431158,-0.035077,-0.055987,0.02062,0.004404,0.013641,0.004282
137,-2.064221,-0.420984,0.06241,-0.8038109999999999,0.40865799999999997,0.43228500000000003,-0.034005,-0.054925,0.020626,0.00512,0.002825,0.010433
138,-2.065589,-0.42105699999999996,0.061551,-0.803192,0.40872600000000003,0.43337,-0.033991,-0.053850999999999996,0.018488,0.00911,-0.0051,0.002955
139,-2.067,-0.421058,0.060736,-0.8025800000000001,0.40872600000000003,0.434503,-0.031838,-0.052780999999999995,0.015297,0.009505,-0.002339,0.001212
140,-2.068345,-0.42115,0.060077,-0.801962,0.40881,0.435565,-0.024380000000000002,-0.057059000000000006,0.013218,0.010733,-0.005612,0.015851
141,-2.069689,-0.421137,0.059489,-0.801381,0.40879899999999997,0.436645,-0.021131,-0.051723000000000005,0.007893,0.023686000000000002,-0.013687999999999999,0.021683
142,-2.070641,-0.42111000000000004,0.059167,-0.800975,0.408773,0.437413,-0.010357,-0.030445999999999997,0.005804999999999999,0.022487,-0.020727000000000002,0.024578
143,-2.0708759999999997,-0.421221,0.059,-0.800832,0.408875,0.437579,0.000291,0.005783,0.010248,0.009373000000000001,-0.013503999999999999,0.01759
144,-2.070637,-0.421491,0.058882000000000004,-0.8008390000000001,0.409122,0.43733500000000003,0.0035159999999999996,0.019586000000000003,0.018798,0.0032159999999999997,-0.004809000000000001,0.010419
145,-2.070498,-0.421846,0.058636,-0.800772,0.409446,0.437154,-0.000814,0.008936,0.021987,0.004995,-0.009559,0.004939
146,-2.070852,-0.422091,0.058294000000000006,-0.800529,0.40966899999999995,0.43738900000000003,-0.001948,-0.005974,0.021998,0.006874,-0.017700999999999998,-0.000286
147,-2.071139,-0.422472,0.057984,-0.800266,0.410017,0.43754399999999993,-0.0008960000000000001,-0.0049299999999999995,0.026277,0.0037579999999999996,-0.009,-0.001982
148,-2.07139,-0.422887,0.057648000000000005,-0.8000079999999999,0.410394,0.437663,-0.000886,-0.000677,0.028408,-0.0036420000000000003,0.0030269999999999997,-0.000651
149,-2.07158,-0.423375,0.057322000000000005,-0.7997489999999999,0.41084,0.43771899999999997,0.002305,0.000364,0.031633,0.00823,-0.007932,0.004802000000000001
150,-2.0716799999999997,-0.42397299999999993,0.05706699999999999,-0.799489,0.41138500000000006,0.43768100000000004,0.009762999999999999,0.003513,0.037022,0.011632,-0.0068590000000000005,0.012057
151,-2.071507,-0.42473900000000003,0.056994,-0.799288,0.412083,0.437391,0.019423,0.015201,0.036007,0.015566,-0.005528,0.013475
152,-2.071065,-0.425543,0.05709500000000001,-0.79919,0.41281599999999996,0.436879,0.026818,0.022407,0.027636,0.020946,0.005718,0.017467
153,-2.070467,-0.42604,0.057567999999999994,-0.799271,0.413268,0.436302,0.035463,0.019293,-7.4e-05,0.031678,0.0021219999999999998,0.017388
154,-2.0698369999999997,-0.42608,0.058409,-0.799531,0.413304,0.435791,0.036621,0.016187,-0.023563,0.031358,-0.006093,0.016175
155,-2.069008,-0.42593400000000003,0.059442999999999996,-0.799945,0.41317200000000004,0.43515600000000004,0.042051,0.027924,-0.033154,0.014941999999999999,0.015309999999999999,0.013406
156,-2.067327,-0.425551,0.06098200000000001,-0.8008149999999999,0.41282299999999994,0.433886,0.06912,0.08653999999999999,-0.06295,0.033632999999999996,0.016909999999999998,0.012998
157,-2.062886,-0.425046,0.063687,-0.802917,0.41236300000000004,0.430424,0.11575799999999999,0.228171,-0.09057899999999999,0.04425,0.01145,0.026256
158,-2.058584,-0.42449899999999996,0.06545,-0.8049609999999999,0.411864,0.427071,0.017983000000000002,0.127101,-0.03879,-0.046693,0.030167000000000003,-0.053689
159,-2.058266,-0.424692,0.064801,-0.805026,0.41203999999999996,0.426779,-0.023488,0.0033399999999999997,0.0444,-0.081387,0.050575999999999996,-0.024511
160,-2.059246,-0.425388,0.063981,-0.804355,0.412674,0.427433,-0.021985,-0.049427,0.040386,-0.045834,0.024109000000000002,-0.011493999999999999
161,-2.0607849999999996,-0.42581099999999994,0.063052,-0.803542,0.413059,0.428588,-0.021851,-0.032332,0.027547000000000002,0.0036149999999999997,-0.032169,0.0007030000000000001
162,-2.060607,-0.426125,0.062696,-0.803504,0.41334499999999996,0.428384,-0.007640999999999999,0.031582,0.015813999999999998,0.007437999999999999,-0.019043,-0.004816
163,-2.059504,-0.42627299999999996,0.062581,-0.8039229999999999,0.41348,0.42746899999999993,-0.0042829999999999995,0.055054,0.004056000000000001,0.007490000000000001,-0.009152,-0.011408
164,-2.058442,-0.42623500000000003,0.06251699999999999,-0.8043899999999999,0.413446,0.426623,-0.011818,0.0338,-0.002378,-0.0056229999999999995,-0.004922,-0.007784
165,-2.058216,-0.42596300000000004,0.062278999999999994,-0.8045859999999999,0.41319799999999995,0.426493,-0.010879999999999999,0.007156,-0.00020099999999999998,-0.008418,-0.000921,-0.008173999999999999
166,-2.0584290000000003,-0.42594799999999994,0.06201,-0.804501,0.413184,0.42666800000000005,-0.009951999999999999,-0.012069,0.01158,-0.011036,-0.003394,-0.00044400000000000006
167,-2.059152,-0.426203,0.061527,-0.804099,0.413416,0.4272,-0.014597,-0.036808,0.027543,-0.00927,-0.003626,-0.00029
168,-2.0604270000000002,-0.426659,0.06089,-0.803388,0.41383100000000006,0.428137,-0.015818000000000002,-0.060282,0.038245999999999995,-0.00278,-0.000776,0.002436
169,-2.06192,-0.427212,0.060229,-0.802546,0.414335,0.429227,-0.012631,-0.062428,0.03934,0.007409999999999999,-0.0007610000000000001,0.009356
170,-2.063275,-0.427771,0.059580999999999995,-0.80176,0.41484399999999994,0.430205,-0.012593,-0.052845,0.040396,0.016603,-0.004535,0.013290999999999999
171,-2.064388,-0.428335,0.059016,-0.801075,0.41535600000000006,0.430987,-0.008258,-0.04219,0.03614,0.01633,-0.002499,0.011747
172,-2.065277,-0.428864,0.058675,-0.800497,0.415838,0.431594,0.002482,-0.034737,0.027658999999999996,0.019202,-0.000524,0.016953
173,-2.0659400000000003,-0.429307,0.058526999999999996,-0.800049,0.41623999999999994,0.432037,0.005769,-0.024061000000000003,0.019122999999999998,0.021973,-0.000637,0.020874
174,-2.066329,-0.42958999999999997,0.058507,-0.7997770000000001,0.416498,0.432292,0.008008,-0.010182,0.009507,0.024234000000000002,0.00032599999999999996,0.016102
175,-2.066335,-0.429742,0.058548,-0.799719,0.41663599999999995,0.432267,0.004913,0.006899,0.003054,0.019033,0.001058,0.01892
176,-2.066127,-0.429807,0.058516,-0.7997850000000001,0.416695,0.432088,0.001916,0.024259,0.001732,0.011165000000000001,0.0015789999999999999,0.00703
177,-2.06557,-0.429858,0.058548,-0.800007,0.416742,0.43163199999999996,0.005179,0.034914,-0.001464,0.006352,0.000891,0.002404
178,-2.064804,-0.429912,0.058627,-0.800318,0.41679099999999997,0.431008,0.005193,0.040231,0.000666,0.001779,-0.000379,-0.000436
179,-2.064077,-0.42997299999999994,0.058677,-0.800608,0.416847,0.43041499999999994,0.00627,0.041297,-0.000396,-0.0062,0.0001,-0.004893
180,-2.063366,-0.430065,0.05876900000000001,-0.80088,0.41693,0.42982700000000007,0.0051649999999999995,0.033839999999999995,0.000674,-0.007927,-0.000258,-0.007631999999999999
181,-2.06283,-0.430141,0.058829,-0.801083,0.41699899999999995,0.429383,0.002964,0.021056000000000002,0.002811,-0.006961,-0.000205,-0.009049
182,-2.062624,-0.43018500000000004,0.05885,-0.8011560000000001,0.41703900000000005,0.42921000000000004,0.000768,0.005093,0.0006799999999999999,-0.004325,-0.003312,-0.00999
183,-2.062668,-0.430176,0.058841,-0.80114,0.41703100000000004,0.42924700000000005,-0.001366,-0.006411,-0.000782,-0.005028,-0.0011220000000000002,-0.003832
184,-2.062879,-0.430176,0.058806,-0.80105,0.41703100000000004,0.42941599999999996,-0.001395,-0.01068,0.001359,-0.005164,-0.001168,-0.005618
185,-2.063057,-0.43024799999999996,0.058787,-0.8009470000000001,0.417096,0.42954499999999995,-0.000348,-0.011762,0.004573,-0.003512,-0.00037799999999999997,-0.003367
186,-2.063303,-0.43034700000000004,0.058753,-0.800805,0.41718599999999995,0.42972200000000005,0.000686,-0.016038999999999998,0.007790000000000001,0.0047539999999999995,-0.000758,0.000134
187,-2.063729,-0.430491,0.058681,-0.800569,0.417317,0.430034,-0.00041500000000000006,-0.022432,0.008859,0.006669,-0.001393,0.004246
188,-2.064221,-0.430597,0.058544000000000006,-0.800318,0.41741300000000003,0.430408,-0.0036009999999999996,-0.021347,0.006698999999999999,0.007258,-0.0029690000000000003,0.008374
189,-2.064578,-0.430645,0.058411000000000005,-0.800147,0.41745699999999997,0.430683,-0.0024809999999999997,-0.011754,0.0045579999999999996,0.007209,-0.001884,0.012005
190,-2.06481,-0.43073500000000003,0.058271,-0.800014,0.41753900000000005,0.43085100000000004,-0.003543,-0.006441,0.008816,0.008906,0.002948,0.011516
191,-2.064914,-0.430921,0.058092,-0.799901,0.417707,0.43089799999999995,-0.004581,0.003137,0.012001000000000001,0.003148,0.002764,0.007823
192,-2.064966,-0.431083,0.05786,-0.799819,0.41785500000000003,0.430908,-0.00489,0.002757,0.010798,0.007201000000000001,-0.001031,0.0024879999999999998
193,-2.065147,-0.431184,0.057596,-0.799704,0.417947,0.43103199999999997,-0.009172,-0.001485,0.009706000000000001,0.005896,-0.006417,0.007337000000000001
194,-2.0653189999999997,-0.43129700000000004,0.057347,-0.799588,0.418049,0.431148,-0.0049,-0.0014960000000000002,0.008667,0.003232,-0.005589,0.008336
195,-2.0653189999999997,-0.431403,0.057225,-0.799549,0.418146,0.431126,-0.001661,0.004893,0.0065450000000000005,0.004444,-0.004343,0.005077
196,-2.0652459999999997,-0.431472,0.05715599999999999,-0.799555,0.418209,0.431054,-0.00057,0.007033,0.0033450000000000003,0.004267,-0.004604,0.0038369999999999997
197,-2.0651669999999998,-0.431566,0.057134000000000004,-0.799554,0.41829399999999994,0.430972,0.002616,0.005947999999999999,0.0055049999999999995,0.004327,-0.003621,-0.0020629999999999997
198,-2.0650779999999997,-0.43168900000000004,0.05712999999999999,-0.799547,0.418405,0.43087700000000007,0.0036780000000000003,0.00594,0.006581,0.002428,-0.003015,-0.004668
199,-2.065013,-0.43183299999999997,0.05714299999999999,-0.7995220000000001,0.41853599999999996,0.430795,0.003664,0.0016829999999999998,0.005518,0.003013,-0.001544,-0.002496
200,-2.065089,-0.43198800000000004,0.057127,-0.7994319999999999,0.418677,0.43082600000000004,0.004554,-0.004047,0.008523000000000001,0.0017629999999999998,0.000925,-0.00091
201,-2.0652169999999996,-0.43216400000000005,0.057109,-0.799312,0.418837,0.430892,0.002411,-0.00617,0.008511,0.00352,0.002595,0.00264
202,-2.0653580000000002,-0.432327,0.057053999999999994,-0.79919,0.41898500000000005,0.43097299999999994,0.00028700000000000004,-0.005093,0.007426,0.006542,0.001975,0.002254
203,-2.065467,-0.43242600000000003,0.056955,-0.799107,0.419075,0.43104,-0.002895,-0.002943,0.005265,0.0069310000000000005,-0.002281,0.003515
204,-2.065624,-0.432489,0.056858000000000006,-0.799016,0.41913199999999995,0.43115299999999995,-0.0029,-0.005069,0.0042,0.005711,-0.002017,0.005386
205,-2.065741,-0.43248400000000004,0.056794000000000004,-0.798967,0.419128,0.43124700000000005,-0.0028710000000000003,-0.0029219999999999997,-7.6e-05,0.005388,7.7e-05,0.006481000000000001
206,-2.065746,-0.43244499999999997,0.05678,-0.798979,0.419092,0.43126000000000003,-0.000704,0.0013449999999999998,-0.003271,0.003553,-0.0009400000000000001,0.005188
207,-2.065706,-0.43235100000000004,0.05680399999999999,-0.799031,0.41900600000000005,0.431246,0.000338,0.0034990000000000004,-0.0068579999999999995,0.006000999999999999,-0.0006259999999999999,0.001493
208,-2.065658,-0.43223500000000004,0.056874,-0.799094,0.41890200000000005,0.43123100000000003,0.000319,-0.000762,-0.006853,0.008292,-0.00045999999999999996,0.0016309999999999999
209,-2.065659,-0.432123,0.056949,-0.799135,0.4188,0.431253,0.00031,-0.001832,-0.005784,0.004824,-0.002799,0.0010429999999999999
210,-2.0656689999999998,-0.43205699999999997,0.057022,-0.7991550000000001,0.41873999999999995,0.431275,0.00352,0.001348,-0.004697,0.001853,-0.000878,0.005294
211,-2.0655959999999998,-0.432026,0.057137,-0.799198,0.418712,0.43122299999999997,0.003515,0.002405,-0.002562,0.00098,-0.002131,0.0036829999999999996
212,-2.065525,-0.43201300000000004,0.057271,-0.799234,0.4187,0.43116800000000005,0.004587,0.0013449999999999998,-0.0046890000000000005,0.001779,-5.9999999999999995e-05,0.001403
213,-2.0655509999999997,-0.431983,0.057399,-0.799233,0.41867299999999996,0.431195,0.0045579999999999996,-0.003986,-0.0036149999999999997,0.004372,-0.005389,0.003711
214,-2.065641,-0.43197399999999997,0.057504999999999994,-0.799198,0.41866400000000004,0.43126899999999996,0.004539,-0.006125,-0.0014759999999999999,0.005542,-0.00512,0.0040950000000000005
215,-2.06566,-0.43193400000000004,0.057616999999999995,-0.799204,0.418628,0.431292,0.003515,-0.0018390000000000001,-0.006829000000000001,0.00419,-0.004321,0.003614
216,-2.065613,-0.43182200000000004,0.05775,-0.799265,0.41852700000000004,0.431277,0.0013289999999999999,0.001188,-0.00713,0.001475,-0.000634,0.0055060000000000005
217,-2.065528,-0.43176400000000004,0.057871000000000006,-0.799323,0.41847399999999996,0.43122,0.004516,0.002225,-0.002836,0.002235,0.002501,0.003244
218,-2.0653610000000002,-0.431755,0.057953,-0.799399,0.418465,0.431088,0.0034729999999999995,0.009677,-0.0007160000000000001,-0.0035340000000000002,0.00402,0.002002
219,-2.065127,-0.43176499999999995,0.058003,-0.799496,0.418475,0.430899,0.003482,0.011807999999999999,-0.000719,0.003857,-0.004397,-0.0037600000000000003
220,-2.0649669999999998,-0.43178500000000003,0.058036000000000004,-0.799558,0.418493,0.430767,0.002372,0.004346,0.001419,0.003781,-0.00504,0.00043099999999999996
221,-2.064968,-0.431771,0.058067999999999995,-0.799562,0.41848,0.430771,0.001301,-0.000959,-0.0028539999999999998,0.005845,-0.003273,0.0015869999999999999
222,-2.0649889999999997,-0.431663,0.058161000000000004,-0.799593,0.418382,0.43081,0.00025299999999999997,-0.003061,-0.009268,0.006807,-0.005021,0.004173
223,-2.064971,-0.43152700000000005,0.058303,-0.799651,0.418259,0.43082200000000004,0.004525,-0.00201,-0.00924,0.005019,-0.003906,0.006784999999999999
224,-2.064885,-0.43141599999999997,0.058492999999999996,-0.799729,0.41815699999999995,0.430775,0.005581,0.002226,-0.0073549999999999996,0.0035409999999999994,-0.001348,0.002407
225,-2.064723,-0.43133299999999997,0.058664,-0.799829,0.41808199999999995,0.430662,0.004524,0.0054210000000000005,-0.006298,0.001367,-0.001059,0.000368
226,-2.064539,-0.43132,0.058836,-0.799913,0.41807,0.430518,0.006648,0.005405,-0.004147,0.0008560000000000001,-0.002055,0.0017329999999999997
227,-2.064437,-0.431288,0.059008000000000005,-0.7999689999999999,0.418042,0.430442,0.007705,0.00221,-0.005204,0.004376,-0.0007599999999999999,0.002587
228,-2.064404,-0.43123999999999996,0.059186,-0.8000010000000001,0.417997,0.43042600000000003,0.005548,-0.00417,-0.006279,0.006285,0.000567,0.000925
229,-2.064407,-0.431174,0.059321000000000006,-0.800024,0.41793800000000003,0.43044099999999996,0.002352,-0.003094,-0.0063030000000000004,0.008367,0.000611,0.003992
230,-2.0643569999999998,-0.431116,0.059427999999999995,-0.800067,0.41788500000000006,0.430413,0.002362,0.0022199999999999998,-0.003105,0.002582,-0.0035020000000000003,0.002693
231,-2.064305,-0.431076,0.05948200000000001,-0.800104,0.41784899999999997,0.430378,0.000227,0.001145,-0.0033619999999999995,-8.2e-05,-0.00044500000000000003,0.003658
232,-2.06429,-0.43104799999999993,0.059501,-0.8001199999999999,0.41782299999999994,0.43037299999999995,0.000212,-0.000989,-0.002292,0.001155,-0.0020670000000000003,0.003023
233,-2.0643380000000002,-0.43101300000000003,0.05954500000000001,-0.800113,0.41779099999999997,0.430418,0.002356,-0.0009880000000000002,-0.004413,0.0013160000000000001,-0.005132,0.0008869999999999999
234,-2.064316,-0.430967,0.059649,-0.800139,0.417749,0.43040900000000004,0.004485,-0.001,-0.0033299999999999996,0.0014939999999999999,-0.004372999999999999,0.002925
235,-2.064276,-0.43092700000000006,0.059786,-0.800171,0.417713,0.430386,0.004499,7.4e-05,-0.005468,0.003647,-0.0042,0.0019420000000000001
236,-2.064247,-0.43088699999999996,0.059900999999999996,-0.800199,0.417677,0.43037,0.004489,-0.0009960000000000001,-0.004398,0.0032630000000000003,-0.0034159999999999998,0.0033759999999999997
237,-2.064203,-0.430856,0.060002,-0.80023,0.417649,0.430341,0.004489,0.001126,-0.002264,0.0034920000000000003,-0.0016489999999999999,0.00020099999999999998
238,-2.064093,-0.43082600000000004,0.060132000000000005,-0.800288,0.417621,0.430259,0.005571,0.003257,-0.0033280000000000002,0.002009,-0.000309,0.0031969999999999998
239,-2.064025,-0.43077600000000005,0.060251,-0.800335,0.417576,0.43021400000000004,0.00343,8.3e-05,-0.004594,0.003018,0.000728,0.001853
240,-2.064058,-0.43071099999999996,0.06035700000000001,-0.800345,0.417517,0.43025399999999997,0.003406,-0.005243,-0.004587,0.002707,-0.002173,-0.002016
241,-2.064137,-0.43066800000000005,0.060464,-0.800327,0.41747799999999996,0.43032600000000004,0.003387,-0.007382,-0.002448,0.0032840000000000005,-0.002774,0.002459
242,-2.0642400000000003,-0.43066800000000005,0.06051,-0.800283,0.41747799999999996,0.430408,0.003397,-0.004190999999999999,-0.001384,0.002416,-0.0009130000000000001,0.001691
243,-2.064286,-0.43061099999999997,0.060570000000000006,-0.800283,0.417426,0.43045600000000006,0.00021099999999999998,-0.0041670000000000006,-0.004611,0.006476000000000001,-0.004676,0.0018559999999999998
244,-2.064316,-0.430529,0.060624000000000004,-0.800301,0.41735200000000006,0.430496,0.001282,-0.0020440000000000002,-0.0035380000000000003,0.003136,-0.004602,0.002564
245,-2.064305,-0.430507,0.060690999999999995,-0.800313,0.417332,0.430491,0.002363,0.0032700000000000003,-0.001401,-0.0033520000000000004,-0.000614,0.003164
246,-2.064106,-0.430497,0.06076,-0.8004020000000001,0.41732299999999994,0.430334,0.004536,0.010723,-0.002463,-0.00105,0.001882,0.001627
247,-2.063894,-0.430475,0.060828999999999994,-0.800502,0.417303,0.43016800000000005,0.0013210000000000001,0.007539,-0.002482,0.002986,-0.002493,-0.0017629999999999998
248,-2.063789,-0.43044499999999997,0.060872,-0.800558,0.417275,0.430091,0.002338,0.0022199999999999998,-0.002542,0.001379,-0.000496,0.002572
249,-2.063731,-0.43040600000000007,0.061001,-0.800597,0.41723999999999994,0.43005200000000005,0.0055439999999999994,9.1e-05,-0.005722,0.002639,-0.004062,0.002687
250,-2.0636900000000002,-0.430324,0.061185,-0.800646,0.41716499999999995,0.43003500000000006,0.005549,-0.0009660000000000001,-0.007857,0.005159,-0.0039109999999999995,0.0031309999999999997
251,-2.063599,-0.430246,0.061413,-0.800713,0.41709399999999996,0.42997799999999997,0.008764,0.001158,-0.008905,0.005517,-0.004222,0.00325
252,-2.06346,-0.43015,0.061642999999999996,-0.800808,0.41700699999999996,0.429886,0.007706,0.004353,-0.007848,0.004268999999999999,0.000824,-0.000824
253,-2.063275,-0.430087,0.061853,-0.800912,0.41695,0.429751,0.00663,0.0032869999999999996,-0.006786,0.004372,0.0008820000000000001,-0.0006889999999999999
254,-2.063166,-0.430004,0.062029999999999995,-0.8009890000000001,0.416875,0.42968,0.005558,0.002226,-0.006793,0.0021609999999999997,0.000468,-0.000541
255,-2.063087,-0.429914,0.062189999999999995,-0.801056,0.416793,0.429634,0.005553,0.00116,-0.006790999999999999,0.003632,-2.9999999999999997e-05,-0.000221
256,-2.0630189999999997,-0.429841,0.062327999999999995,-0.801113,0.41672600000000004,0.429594,0.0033640000000000002,0.001142,-0.005741,0.003932,0.000769,0.00075
257,-2.062975,-0.42979700000000004,0.062446,-0.801147,0.41668599999999995,0.42956700000000003,0.002287,7.6e-05,-0.004679,0.0051719999999999995,9.2e-05,0.000898
258,-2.0629419999999996,-0.429745,0.06252,-0.80118,0.41663900000000004,0.429551,0.00122,0.001141,-0.0036200000000000004,0.002947,-0.004713,0.0008539999999999999
259,-2.062908,-0.42969700000000005,0.062571,-0.8012130000000001,0.416595,0.429533,0.000144,7.5e-05,-0.002558,0.001027,-0.004257,0.0011769999999999999
260,-2.062895,-0.429651,0.06261599999999999,-0.801235,0.416554,0.42953199999999997,0.001206,-0.0009939999999999999,-0.002549,0.000942,-0.0051920000000000004,0.0016510000000000001
261,-2.062921,-0.429619,0.062652,-0.801236,0.416525,0.429559,0.001196,-0.0020629999999999997,-0.0014789999999999998,0.000241,-0.003851,0.004096
262,-2.062887,-0.42960600000000004,0.06273,-0.801255,0.416513,0.429534,0.002278,0.001129,-0.0014759999999999999,0.00026000000000000003,-0.003839,0.004121
263,-2.062859,-0.429591,0.062805,-0.8012729999999999,0.41649899999999995,0.429515,0.0033490000000000004,0.001129,-0.002537,0.003894,-0.0015970000000000001,-0.001338
264,-2.062846,-0.429584,0.062876,-0.801281,0.416493,0.429505,0.002187,-0.001016,-0.001419,0.0037189999999999996,-0.001591,0.0014939999999999999
265,-2.0629,-0.42958599999999997,0.06290499999999999,-0.801257,0.416495,0.42954799999999993,0.001101,-0.004212,-0.000354,0.004443,-0.002585,0.000505
266,-2.062939,-0.42958,0.06295,-0.801243,0.41648900000000005,0.42958100000000005,0.001115,-0.002077,-0.001425,0.004688,0.000122,0.001373
267,-2.062982,-0.42955299999999996,0.06296900000000001,-0.801234,0.41646400000000006,0.42962100000000003,-0.0010140000000000001,-0.003127,-0.003575,0.003703,0.000986,0.001058
268,-2.063041,-0.429514,0.062993,-0.8012229999999999,0.416429,0.429676,0.001115,-0.0031379999999999997,-0.0024920000000000003,0.005187,-0.000795,0.00053
269,-2.06314,-0.429464,0.06303099999999999,-0.801199,0.416383,0.42976499999999995,0.001115,-0.0041990000000000005,-0.0035590000000000005,0.000921,0.000334,0.002074
270,-2.063184,-0.42943100000000006,0.063083,-0.801192,0.416353,0.429806,0.002187,-0.002077,-0.002486,0.0031579999999999998,0.0019510000000000003,0.004184
271,-2.063128,-0.42940500000000004,0.063164,-0.801226,0.41633000000000003,0.429767,0.004344,0.0021809999999999998,-0.003544,0.004183,-0.00062,0.002072
272,-2.063054,-0.429358,0.06325800000000001,-0.801275,0.41628699999999996,0.429717,0.0021100000000000003,0.0011099999999999999,-0.002404,0.003713,-0.001889,0.00081
273,-2.063005,-0.429339,0.063341,-0.801303,0.41627,0.42968199999999995,0.004239,0.001098,-0.0013210000000000001,0.003085,-0.00059,-0.000788
274,-2.063006,-0.42929799999999996,0.063441,-0.8013170000000001,0.416232,0.42968999999999996,0.002101,-0.002082,-0.003468,0.002856,-0.0032229999999999997,-0.000674
275,-2.0630490000000004,-0.42927,0.063475,-0.801309,0.416207,0.42973,0.001019,-0.003152,-0.001338,0.0034270000000000004,0.001609,9.499999999999999e-05
276,-2.063142,-0.429249,0.06350399999999999,-0.801277,0.41618900000000003,0.429809,-5.2000000000000004e-05,-0.003152,-0.000277,-0.002327,-0.0011949999999999999,0.002473
277,-2.0631009999999996,-0.42923100000000003,0.06349199999999999,-0.801301,0.41617200000000004,0.429779,-1.4000000000000001e-05,0.0032479999999999996,-0.0024219999999999997,-0.004668,0.004101,0.0018149999999999998
278,-2.063002,-0.429163,0.06354,-0.8013680000000001,0.41611000000000004,0.42971400000000004,0.0010630000000000001,0.0032530000000000002,-0.0045509999999999995,0.004555,-0.004184,-0.003932
279,-2.0629049999999998,-0.429063,0.06359,-0.801447,0.41601899999999997,0.42965600000000004,-0.001167,0.002191,-0.004471,0.00268,-0.001285,0.000719
280,-2.0628889999999998,-0.428996,0.06363300000000001,-0.801478,0.415958,0.42965600000000004,-0.00011899999999999999,-0.002073,-0.004458,0.003016,-0.0014990000000000001,-0.001464
281,-2.062926,-0.428907,0.063713,-0.801495,0.41587700000000005,0.429703,0.00201,-0.004207,-0.005509,0.004543,-0.003279,0.00296
282,-2.062998,-0.428829,0.063801,-0.801492,0.41580600000000006,0.42977600000000005,0.001996,-0.007403,-0.0055049999999999995,0.0038840000000000003,-0.004307,0.0037719999999999997
283,-2.063025,-0.428781,0.063877,-0.8014979999999999,0.415763,0.429807,0.00201,-0.001024,-0.0023079999999999997,0.004577,-0.003669,0.003314
284,-2.063015,-0.42879700000000004,0.063921,-0.801496,0.41577700000000006,0.429796,0.002,2.8000000000000003e-05,0.000895,-0.00043,0.0003,0.0015550000000000002
285,-2.063009,-0.428816,0.063935,-0.801491,0.41579399999999994,0.429787,0.002,2.8000000000000003e-05,0.000895,0.0035329999999999997,-0.000602,0.001198
286,-2.0630029999999997,-0.42882299999999995,0.063962,-0.801491,0.41580100000000003,0.42978,0.000938,3.6e-05,-0.000181,0.005959000000000001,-0.001082,-0.001008
287,-2.063017,-0.42882200000000004,0.064009,-0.801485,0.4158,0.429791,0.0020050000000000003,3.3e-05,-0.000173,0.006258,-0.001615,0.000552
288,-2.063009,-0.428831,0.06404,-0.801485,0.415808,0.42978299999999997,0.000816,-0.001056,-5.2000000000000004e-05,0.0019089999999999999,0.000528,0.002071
289,-2.063026,-0.428838,0.064047,-0.801475,0.415814,0.429795,0.000811,-0.00106,0.001017,0.002372,0.0008730000000000001,0.00064
290,-2.063043,-0.42888699999999996,0.064032,-0.80145,0.41585900000000003,0.429799,-0.00025499999999999996,5e-06,0.002076,0.0048649999999999995,-0.0008349999999999999,0.00265
291,-2.063047,-0.428904,0.064027,-0.801442,0.41587399999999997,0.429799,0.000826,0.002136,0.001013,0.001164,0.000798,-3.5e-05
292,-2.06299,-0.428868,0.064076,-0.8014789999999999,0.41584099999999996,0.42976000000000003,0.00084,0.001088,-0.003259,-0.000202,-0.000589,0.001026
293,-2.06294,-0.42881400000000003,0.06414,-0.801521,0.415792,0.42973100000000003,0.002979,0.002146,-0.0032450000000000005,-0.000252,-0.002187,-0.0016760000000000002
294,-2.0629060000000004,-0.428785,0.064214,-0.801546,0.41576599999999997,0.42971000000000004,0.002964,1.1e-05,-0.0021739999999999997,0.002321,0.000753,-0.000465
295,-2.062928,-0.42876400000000003,0.06428500000000001,-0.8015439999999999,0.41574700000000003,0.42973100000000003,0.000816,-0.004239,-0.003252,0.0018920000000000002,-0.0026,0.000399
296,-2.063012,-0.42872899999999997,0.064321,-0.801521,0.41571499999999995,0.429805,0.000709,-0.005323,-0.00313,0.0013800000000000002,-0.001592,0.0009960000000000001
297,-2.063098,-0.42869300000000005,0.06436499999999999,-0.801497,0.415682,0.429882,0.0017670000000000001,-0.005336,-0.000986,0.001387,-0.001574,0.000294
298,-2.063209,-0.42869799999999997,0.064361,-0.801447,0.415687,0.42996999999999996,-0.00038199999999999996,-0.005340999999999999,0.002204,0.003428,-0.001273,-0.00016
299,-2.063286,-0.42873199999999995,0.064335,-0.801401,0.41571800000000003,0.43002399999999996,-0.000367,-0.0021449999999999998,0.0022,0.00358,-0.000755,-0.001695
300,-2.063344,-0.42877600000000005,0.06428400000000001,-0.8013600000000001,0.415758,0.430062,0.000695,-0.002153,0.003276,0.002792,-0.0025800000000000003,-0.001366
301,-2.063417,-0.428788,0.06425399999999999,-0.8013239999999999,0.415768,0.43011800000000006,-0.000362,-0.002141,0.001132,0.003839,-0.002896,-0.000659
302,-2.063487,-0.428835,0.064239,-0.801277,0.415811,0.43016499999999996,0.0017620000000000001,-0.003218,0.002216,0.000724,0.000342,0.0034439999999999996
303,-2.063543,-0.428861,0.064274,-0.801243,0.415835,0.430204,0.0016870000000000001,-0.004265,-0.0008820000000000001,0.005116,-0.002994,0.000795
304,-2.063588,-0.42884399999999995,0.06429299999999999,-0.80123,0.41581999999999997,0.43024399999999996,0.0006349999999999999,-0.001065,-0.0008939999999999999,0.005103,-0.002978,0.0007559999999999999
305,-2.063606,-0.428825,0.064305,-0.801229,0.41580200000000006,0.430262,-0.00042699999999999997,-0.001057,-0.0019690000000000003,0.003561,-0.003296,0.001562
306,-2.063643,-0.428785,0.064326,-0.8012279999999999,0.415767,0.430299,-0.00042699999999999997,-0.001057,-0.0019690000000000003,0.004399,-0.001399,0.0022719999999999997
307,-2.063693,-0.428767,0.064343,-0.8012130000000001,0.415749,0.43034399999999995,0.0016920000000000001,-0.003199,-0.000883,0.004262,0.000678,-0.000168
308,-2.063663,-0.42882200000000004,0.064333,-0.8012060000000001,0.4158,0.43030799999999997,0.000644,0.005309,0.0033710000000000003,-0.005786,0.0049310000000000005,0.000951
309,-2.06355,-0.42886,0.064376,-0.80124,0.41583400000000004,0.43021099999999995,0.003855,0.004246,0.00018999999999999998,0.002656,-0.002657,-0.0045969999999999995
310,-2.063469,-0.4289,0.06441799999999999,-0.801261,0.415871,0.430138,0.002773,0.003176,0.002321,0.0034700000000000004,-0.00541,0.000633
311,-2.063475,-0.42891599999999996,0.064408,-0.801253,0.41588500000000006,0.43013900000000005,-0.0005009999999999999,-0.001051,-0.0008029999999999999,0.002531,-0.0032719999999999997,-0.00065
312,-2.063455,-0.42886599999999997,0.064424,-0.801279,0.41584,0.430134,-0.000487,2.3e-05,-0.002941,0.007914000000000001,-0.00489,0.001766
313,-2.063456,-0.42880799999999997,0.06445,-0.8013,0.41578699999999996,0.430145,-0.000492,-0.0021030000000000003,-0.004006,0.005082,-0.005204,0.002395
314,-2.06345,-0.428758,0.064522,-0.801321,0.41574099999999997,0.430151,0.0016469999999999998,1.6e-05,-0.002926,0.0020350000000000004,-0.0046240000000000005,0.002268
315,-2.063385,-0.42873,0.064622,-0.8013600000000001,0.415716,0.430104,0.004857,0.002135,-0.0029059999999999997,-0.0015119999999999999,0.000788,0.0017350000000000002
316,-2.0633310000000002,-0.428726,0.064714,-0.801384,0.41571199999999997,0.430062,0.003785,0.001073,-0.002912,0.00023700000000000001,-0.000429,2.2e-05
317,-2.063293,-0.42874399999999996,0.064812,-0.8013939999999999,0.415729,0.43002700000000005,0.004833,-8e-06,0.000301,0.004763,0.00021099999999999998,-0.00182
318,-2.063313,-0.428781,0.064874,-0.801372,0.41576199999999996,0.430036,0.0026899999999999997,-0.002132,0.00028900000000000003,0.0057020000000000005,-0.000357,-0.0019199999999999998
319,-2.063365,-0.42880799999999997,0.06489199999999999,-0.8013399999999999,0.41578699999999996,0.430072,-0.000525,-0.004255,0.0013369999999999999,0.005716,0.001174,-0.00023199999999999997
320,-2.063434,-0.428829,0.064853,-0.8013020000000001,0.415807,0.430123,-0.0005679999999999999,-0.001042,0.0014199999999999998,0.0027489999999999997,-0.000233,0.002418
321,-2.063455,-0.42886199999999997,0.064833,-0.801281,0.415836,0.430134,-0.0005780000000000001,-0.002111,0.00249,0.000576,-0.000537,-0.0006450000000000001
322,-2.063529,-0.42889499999999997,0.064805,-0.801237,0.41586599999999996,0.430187,0.0004940000000000001,-0.00105,0.002496,0.0009599999999999999,-0.001239,-0.00027
323,-2.06354,-0.42895900000000003,0.064795,-0.801208,0.415925,0.430183,0.0004940000000000001,-0.00105,0.002496,-0.0005650000000000001,-0.0032049999999999995,-0.002434
324,-2.063643,-0.428958,0.064786,-0.801165,0.41592399999999996,0.430266,-0.0016489999999999999,-0.005295,0.00035,0.002215,-0.003616,0.00016999999999999999
325,-2.063701,-0.42897299999999994,0.064782,-0.801135,0.415937,0.430309,0.000504,-0.002102,-0.0007070000000000001,0.0006580000000000001,-0.001508,0.0015300000000000001
326,-2.063771,-0.42898000000000003,0.06477999999999999,-0.8011020000000001,0.415943,0.430364,0.000484,-0.004241,0.0014320000000000001,6.2e-05,-0.0012699999999999999,-0.00037200000000000004
327,-2.063832,-0.428991,0.06477000000000001,-0.801072,0.415954,0.430411,-0.000628,-0.004214,0.00041900000000000005,0.001175,-0.0034630000000000004,-0.002493
328,-2.063962,-0.429033,0.064756,-0.8010010000000001,0.415991,0.430507,0.001486,-0.006361,0.002573,0.002432,-0.000891,-0.001369
329,-2.064082,-0.429075,0.06475399999999999,-0.800933,0.41603,0.430595,0.000434,-0.004222,0.001495,0.002823,-0.002303,0.00022200000000000003
330,-2.0641950000000002,-0.429146,0.064761,-0.800859,0.416095,0.430671,0.001477,-0.006369,0.00471,0.002275,0.000165,6.9e-05
331,-2.0643290000000003,-0.42924700000000005,0.064711,-0.800764,0.41618599999999994,0.430758,0.000405,-0.005309,0.006837,0.001662,-0.001117,0.00018
332,-2.064464,-0.429368,0.064608,-0.800662,0.416296,0.43084300000000003,-0.0017329999999999997,-0.005306,0.007890000000000001,0.005389,-0.0027370000000000003,0.00063
333,-2.0646299999999997,-0.429491,0.064489,-0.800545,0.416408,0.43095200000000006,-0.002791,-0.004232,0.006813,0.004265,-0.00288,0.002764
334,-2.064722,-0.429576,0.06438200000000001,-0.800475,0.41648500000000005,0.43100900000000003,-0.0027760000000000003,-0.002098,0.005743,0.004118999999999999,-0.0020109999999999998,0.0009519999999999999
335,-2.064865,-0.42965200000000003,0.06428500000000001,-0.800385,0.416554,0.431109,-0.0017640000000000002,-0.004190999999999999,0.0068590000000000005,0.002702,-0.004277,0.002577
336,-2.0649759999999997,-0.429756,0.064184,-0.8003,0.416649,0.43117700000000003,-0.000687,-0.004186,0.00473,0.0017460000000000002,-0.000557,0.00112
337,-2.065095,-0.429802,0.064125,-0.8002319999999999,0.416691,0.431263,-0.000682,-0.004182,0.0036609999999999998,0.002639,-0.005207,0.0014759999999999999
338,-2.065189,-0.429854,0.064062,-0.8001729999999999,0.416738,0.431328,-0.000678,-0.0020559999999999997,0.004727,0.0025960000000000002,0.001948,0.002082
339,-2.065225,-0.429975,0.063987,-0.800113,0.41684799999999994,0.43133299999999997,-0.000663,0.0032619999999999997,0.006856999999999999,-0.00549,0.002097,-0.000944
340,-2.0651330000000003,-0.43007,0.0639,-0.800117,0.41693500000000006,0.431241,-0.0006389999999999999,0.007527,0.005783,-0.0067670000000000004,0.004986,0.001132
341,-2.065122,-0.43017700000000003,0.063792,-0.800082,0.41703199999999996,0.43121099999999996,-0.002811,0.001135,0.007913,0.004275999999999999,-0.004404,-0.005094
342,-2.065274,-0.430277,0.06364600000000001,-0.799981,0.41712299999999997,0.431313,-0.003912,-0.007379999999999999,0.006848000000000001,0.003075,-0.0047079999999999995,-0.0013050000000000002
343,-2.065477,-0.430324,0.06354800000000001,-0.799876,0.417166,0.43146599999999996,-0.002826,-0.007365999999999999,0.002582,0.003657,-0.0050869999999999995,-0.0007559999999999999
344,-2.065625,-0.430334,0.063539,-0.799809,0.417174,0.43158199999999997,0.000368,-0.0051990000000000005,-0.001645,0.005406,-0.004409000000000001,0.003797
345,-2.06564,-0.43033599999999994,0.06363200000000001,-0.799801,0.417177,0.431594,0.003583,-0.003076,-0.002693,0.004071,-0.0021379999999999997,0.004334
346,-2.065656,-0.430341,0.063696,-0.799793,0.417181,0.43160600000000005,0.002516,-0.00095,-0.000567,0.0032229999999999997,-0.001303,-0.000286
347,-2.0656220000000003,-0.43039399999999994,0.063733,-0.799788,0.417229,0.431568,0.003578,0.002225,0.0037090000000000005,0.002471,-0.000817,-9.499999999999999e-05
348,-2.065571,-0.430483,0.063765,-0.799778,0.41731,0.43150900000000003,0.004645000000000001,0.003282,0.004784,0.005222,0.000537,-0.000875
349,-2.065556,-0.43060600000000004,0.06377100000000001,-0.7997380000000001,0.417422,0.43147299999999994,0.003563,9e-05,0.0047799999999999995,0.0028179999999999998,0.002378,-0.002076
350,-2.065623,-0.430688,0.063694,-0.7996800000000001,0.417496,0.431511,-0.00179,-0.003091,0.005815,0.002896,0.001998,-0.00344
351,-2.065719,-0.43075600000000003,0.063571,-0.799613,0.417558,0.43157399999999996,-0.002896,-0.002,0.005834000000000001,0.003089,-0.001191,-0.0022530000000000002
352,-2.065823,-0.430839,0.063408,-0.799538,0.417633,0.43163999999999997,-0.006102000000000001,-0.001994,0.00688,0.0019,-0.001419,-0.0010220000000000001
353,-2.065944,-0.430895,0.063239,-0.799465,0.417684,0.431726,-0.00503,-0.003054,0.004753,-0.001545,-0.004385,-0.001413
354,-2.066075,-0.430938,0.063127,-0.799392,0.41772299999999996,0.43182200000000004,-0.001829,-0.005187,0.002641,-0.001572,-0.004529999999999999,-0.00022799999999999999
355,-2.066233,-0.431008,0.063069,-0.799298,0.41778699999999996,0.43193400000000004,0.0013570000000000001,-0.006272,0.004801,-0.003665,-0.004289,0.0020559999999999997
356,-2.066306,-0.43113100000000004,0.06305,-0.799221,0.41789899999999996,0.431968,0.003505,-0.002023,0.005879,-0.002109,-0.003836,0.000267
357,-2.066369,-0.431249,0.063013,-0.7991520000000001,0.41800600000000004,0.43199499999999996,0.000295,-0.003081,0.006926000000000001,0.001254,-0.0036079999999999997,-0.001835
358,-2.06648,-0.43134399999999995,0.062938,-0.7990689999999999,0.418092,0.432065,-0.000782,-0.005208,0.006920999999999999,0.00079,-0.0033280000000000002,-0.001721
359,-2.0666450000000003,-0.431453,0.062837,-0.798958,0.418191,0.432175,-0.0008230000000000001,-0.006233,0.007994,0.002129,-0.00123,-0.002228
360,-2.066781,-0.431555,0.06273300000000001,-0.798862,0.418284,0.43226400000000004,-0.001876,-0.0040939999999999995,0.006915999999999999,0.003375,0.000906,0.0005059999999999999
361,-2.066906,-0.431663,0.062628,-0.798768,0.41838100000000006,0.432342,-0.0018850000000000002,-0.005164,0.007986,0.002687,7.6e-05,-0.000839
362,-2.067069,-0.43174700000000005,0.062485,-0.798667,0.418458,0.43245600000000006,-0.004019,-0.006217,0.006904,0.0041719999999999995,-0.000185,0.0008939999999999999
363,-2.067279,-0.43181499999999995,0.062317,-0.798551,0.41852,0.43261000000000005,-0.006162,-0.00834,0.0068920000000000006,0.002363,-0.003038,0.001335
364,-2.0674650000000003,-0.431913,0.062171000000000004,-0.798435,0.418609,0.43273999999999996,-0.002947,-0.0040950000000000005,0.007977,0.000797,-0.003692,0.0007469999999999999
365,-2.0676099999999997,-0.43202399999999996,0.062012,-0.798331,0.41871,0.432834,-0.002943,-0.00303,0.007975,0.002402,-0.007867,-0.001575
366,-2.067748,-0.43206300000000003,0.06188099999999999,-0.798257,0.418746,0.432936,-0.003995,-0.004074,0.0036969999999999998,0.0012289999999999998,-0.0070019999999999995,0.003557
367,-2.0678650000000003,-0.43214300000000005,0.061780999999999996,-0.798177,0.418818,0.43301300000000004,-0.001876,-0.0040939999999999995,0.006915999999999999,-0.000956,0.00038700000000000003,-0.000381
368,-2.0678919999999996,-0.432288,0.061696,-0.798112,0.41894899999999996,0.43300600000000006,0.000266,0.00343,0.009004999999999999,-0.004745,0.003078,-0.000984
369,-2.06783,-0.43239700000000003,0.061549,-0.798098,0.419049,0.43293400000000004,-0.005054,0.005584,0.007897,-0.001325,-0.001934,-0.0017510000000000002
370,-2.0678650000000003,-0.432497,0.061364999999999996,-0.7980470000000001,0.41913900000000004,0.432942,-0.0050880000000000005,-0.0008119999999999999,0.008973,0.002301,-0.006175,-0.006886
371,-2.0680389999999997,-0.43258800000000003,0.06118,-0.797938,0.41922200000000004,0.43306300000000003,-0.005102000000000001,-0.00613,0.006843999999999999,-3.6e-05,-0.003069,0.001019
372,-2.0682259999999997,-0.43261000000000005,0.061071,-0.797849,0.419242,0.433208,-0.004016,-0.007178,0.0015119999999999999,0.005964,-0.004203,0.003193
373,-2.068347,-0.43260299999999996,0.06105700000000001,-0.7977989999999999,0.419235,0.433306,0.0013369999999999999,-0.005057,-0.00059,0.007959,-0.006012,0.004911
374,-2.068343,-0.43263100000000004,0.061112,-0.797791,0.419261,0.43329700000000004,0.00349,0.001318,0.001553,0.003739,-0.0033979999999999995,0.0028899999999999998
375,-2.06827,-0.43270699999999995,0.061137000000000004,-0.797795,0.41933000000000004,0.433224,0.00349,0.00344,0.0036869999999999997,0.0009960000000000001,0.001172,-0.002758
376,-2.068222,-0.43276899999999996,0.061125,-0.797793,0.419386,0.433173,0.000285,0.00033,0.002513,0.002581,0.000276,-0.001853
377,-2.068314,-0.432813,0.061071,-0.797737,0.419426,0.433237,-0.000816,-0.006062,0.003582,0.001182,-0.00132,-0.000468
378,-2.068454,-0.432875,0.061001,-0.797653,0.41948199999999997,0.43333699999999997,-0.002954,-0.006059,0.004635,0.0023350000000000003,0.00037799999999999997,4.3e-05
379,-2.068575,-0.432942,0.060898,-0.7975760000000001,0.41954300000000005,0.43341999999999997,-0.002945,-0.0018059999999999999,0.0067659999999999994,0.003783,-0.000155,-5.6000000000000006e-05
380,-2.068661,-0.432993,0.060761,-0.79752,0.41958999999999996,0.433478,-0.005074,-0.001795,0.005683,0.001407,-0.00214,-0.0010140000000000001
381,-2.068778,-0.433016,0.060575,-0.797461,0.41961000000000004,0.433567,-0.0072120000000000005,-0.002852,0.0056689999999999996,0.00057,-0.004174000000000001,-0.001301
382,-2.068934,-0.433062,0.060378999999999995,-0.797376,0.419652,0.43368199999999996,-0.0050880000000000005,-0.003929,0.0067540000000000005,0.00131,-0.004888,-0.0024530000000000003
383,-2.069044,-0.433125,0.060239,-0.797305,0.41971,0.43375699999999995,-0.00294,-0.002863,0.004631000000000001,-0.001218,-0.004961,-0.001094
384,-2.069141,-0.433187,0.060175,-0.79724,0.419766,0.43382200000000004,-0.000814,-0.004935,0.003486,0.00044100000000000004,-0.002148,0.001023
385,-2.069249,-0.43328,0.060123,-0.7971590000000001,0.41985,0.43388999999999994,0.00132,-0.003882,0.004568,0.000925,-0.002461,-0.001731
386,-2.069359,-0.43334300000000003,0.060088,-0.797088,0.419907,0.433965,0.000248,-0.004943,0.004562,0.003143,-0.0025329999999999997,-0.00121
387,-2.069465,-0.43338699999999997,0.060041,-0.797026,0.419947,0.43404,-0.001871,-0.0038619999999999995,0.002409,0.002303,-0.001185,-0.00035499999999999996
388,-2.0695330000000003,-0.433447,0.060013,-0.796975,0.420001,0.434083,0.000263,-0.002809,0.0034909999999999997,0.002251,-0.001239,-0.000398
389,-2.069599,-0.433504,0.059987,-0.796925,0.42005299999999995,0.43412399999999995,-0.000794,-0.0017350000000000002,0.002414,0.001622,-0.001047,-0.0008810000000000001
390,-2.06968,-0.433547,0.05997,-0.796874,0.42009300000000005,0.43418,0.000263,-0.00387,0.002424,0.006499,-0.0017879999999999999,-0.0008460000000000001
391,-2.069763,-0.43357799999999996,0.059932000000000006,-0.7968270000000001,0.42012,0.43423999999999996,-0.00079,-0.001731,0.0013460000000000002,0.006451999999999999,-0.001816,-0.000906
392,-2.069819,-0.433595,0.059899,-0.796796,0.42013599999999995,0.43428100000000003,-0.001857,-0.002715,0.002282,0.003721,-0.002427,0.0009
393,-2.069868,-0.433571,0.059834000000000005,-0.796784,0.42011400000000004,0.434325,-0.003967,0.000496,0.000127,0.002869,-0.002283,-0.0007769999999999999
394,-2.069859,-0.433504,0.059835,-0.796812,0.420054,0.434331,-0.001809,0.0005099999999999999,-0.0051990000000000005,0.00598,-0.005945000000000001,-0.00147
395,-2.06984,-0.43341599999999997,0.059872,-0.7968529999999999,0.41997399999999996,0.43433299999999997,0.000324,0.001564,-0.004117,-0.001426,0.000986,0.00103
396,-2.069771,-0.433383,0.05993099999999999,-0.796895,0.419943,0.43428500000000003,0.002448,0.0026089999999999998,-0.0008990000000000001,-0.005672,0.0019010000000000001,-0.002934
397,-2.06964,-0.433385,0.059924,-0.7969510000000001,0.41994499999999996,0.43418,-0.0018,0.007946,0.000132,-0.006913,0.0011359999999999999,-0.003257
398,-2.069575,-0.43340200000000006,0.059885,-0.7969729999999999,0.419961,0.434125,-0.000771,0.0026030000000000003,0.003351,-0.001489,-0.0038380000000000003,-0.0035369999999999998
399,-2.069609,-0.433424,0.059879999999999996,-0.79695,0.41998,0.434148,0.00031800000000000003,-0.0036810000000000002,1e-06,0.002943,-0.005323,0.001277
400,-2.069748,-0.43336800000000003,0.059905999999999994,-0.79691,0.41993,0.43427,-0.000734,-0.006848000000000001,-0.006412,0.00446,-0.002419,0.001094
401,-2.069758,-0.43323599999999995,0.060029,-0.796954,0.41981,0.434304,0.0035619999999999996,-0.002593,-0.008524,0.0042450000000000005,-0.005549,0.003974
402,-2.069651,-0.433121,0.060221000000000004,-0.7970430000000001,0.419706,0.434242,0.005715,0.001661,-0.008514,0.003647,-0.006208,0.0054859999999999996
403,-2.069471,-0.43302700000000005,0.060405999999999994,-0.7971560000000001,0.419621,0.434118,0.005724,0.005913,-0.006383,0.0026,-0.002018,-2.1e-05
404,-2.069307,-0.432987,0.06054299999999999,-0.797242,0.419584,0.43399399999999994,0.004638000000000001,0.004839,-0.003184,0.0018629999999999999,0.0021379999999999997,-0.003102
405,-2.069172,-0.432946,0.060673000000000005,-0.797316,0.419547,0.433895,0.003571,0.003782,-0.004259000000000001,0.004195,-0.00018999999999999998,-0.003109
406,-2.069113,-0.432881,0.060775,-0.797366,0.419487,0.43386199999999997,0.0035619999999999996,0.0016510000000000001,-0.004256,0.002993,-0.00031299999999999996,-0.0012289999999999998
407,-2.069052,-0.43282299999999996,0.060877999999999995,-0.7974140000000001,0.41943500000000006,0.433824,0.002545,0.001745,-0.005492,0.005101,-0.001955,-0.0018629999999999999
408,-2.068966,-0.432775,0.060935,-0.797469,0.41939099999999996,0.433766,-0.0017230000000000001,0.003882,-0.0033880000000000004,0.003173,0.001034,-0.002064
409,-2.068882,-0.43269399999999997,0.060922000000000004,-0.797535,0.419318,0.433716,-0.001718,0.004947,-0.003389,-0.0006219999999999999,-0.002127,-0.003235
410,-2.068854,-0.43263,0.060912,-0.797571,0.41926,0.433705,-0.0017420000000000003,0.000682,-0.002315,-0.003256,-0.005808,-0.000417
411,-2.0688720000000003,-0.432598,0.060926999999999995,-0.797574,0.419231,0.433726,0.00144,-0.00253,-0.001221,-0.002459,-0.005688,-0.000926
412,-2.068896,-0.43257799999999996,0.060989999999999996,-0.797571,0.419213,0.43375,0.002516,-0.002525,-0.00335,-0.00041799999999999997,-0.0044329999999999994,0.00048499999999999997
413,-2.068854,-0.432551,0.061103,-0.797599,0.41918900000000003,0.433721,0.005736,0.000664,-0.0044,0.004569,-0.003066,-0.001225
414,-2.068803,-0.43250500000000003,0.061225999999999996,-0.797638,0.41914700000000005,0.43368999999999996,0.003602,0.000671,-0.004415,0.00441,-0.0021850000000000003,-0.001347
415,-2.068796,-0.432433,0.061322,-0.797668,0.41908100000000004,0.433698,0.00038700000000000003,-0.002513,-0.0044329999999999994,0.002105,-0.00215,-0.001279
416,-2.068793,-0.432399,0.061412,-0.797682,0.41905,0.43370299999999995,0.003638,-0.001381,-0.002431,0.001738,0.000826,-0.001376
417,-2.068777,-0.43240100000000004,0.061491,-0.7976880000000001,0.41905200000000004,0.43368999999999996,0.004705,-0.000323,-0.001356,0.000661,0.000778,-0.000463
418,-2.0687860000000002,-0.43241,0.061567,-0.797682,0.41906000000000004,0.433696,0.0025570000000000002,-0.002451,-0.0003,0.003706,0.000388,-0.001719
419,-2.068812,-0.432388,0.061624,-0.797679,0.41903999999999997,0.433721,0.0015,-0.002439,-0.002444,0.0028640000000000002,-0.000492,-0.00011200000000000001
420,-2.068865,-0.43233999999999995,0.061659000000000005,-0.797673,0.418997,0.43377299999999996,0.000433,-0.003496,-0.0035189999999999996,0.004994,-0.0037600000000000003,0.000874
421,-2.068916,-0.43228199999999994,0.061652,-0.797672,0.418944,0.433825,-0.001696,-0.001362,-0.002468,0.004658,-0.002791,0.000517
422,-2.06892,-0.432216,0.06166699999999999,-0.7976949999999999,0.41888400000000003,0.433841,-0.000615,0.000769,-0.0035310000000000003,0.00022400000000000002,-0.00473,-0.000629
423,-2.068916,-0.43211700000000003,0.061716999999999994,-0.797732,0.41879399999999994,0.433857,-0.000615,-0.000292,-0.004598,-7.3e-05,-0.005495,-0.0018510000000000002
424,-2.068894,-0.432084,0.061788,-0.797754,0.41876499999999994,0.433846,0.0036880000000000003,-0.000229,-0.0015,0.0021149999999999997,-0.003176,0.002861
425,-2.068775,-0.43213599999999996,0.061844,-0.797786,0.41881199999999996,0.433741,0.001583,0.009353,0.001678,-0.005833,0.002209,-0.000101
426,-2.0685599999999997,-0.432175,0.061875,-0.7978649999999999,0.418847,0.433562,0.002654,0.009354000000000001,0.000617,0.000258,8.3e-05,-0.0030800000000000003
427,-2.0684080000000002,-0.43218,0.061903,-0.79793,0.41885100000000003,0.433439,0.001573,0.005101,-0.000453,0.0014210000000000002,-0.003003,-0.007979
428,-2.068404,-0.43213900000000005,0.06194500000000001,-0.797946,0.418814,0.43344499999999997,0.002616,-0.0044729999999999995,-0.004706,0.003573,-0.001105,-0.0018039999999999998
429,-2.0684310000000004,-0.432037,0.062068,-0.797972,0.418721,0.433487,0.00263,-0.00446,-0.007911,0.00633,-0.003743,-0.00013700000000000002
430,-2.068403,-0.43189799999999995,0.062242,-0.798035,0.418595,0.433492,0.004797999999999999,0.000867,-0.010039,0.0046240000000000005,-0.001374,0.0019329999999999998
431,-2.068268,-0.43177200000000004,0.06244500000000001,-0.79814,0.41848100000000005,0.433409,0.005874,0.004055,-0.008968,0.002058,-0.003106,0.002748
432,-2.06811,-0.431687,0.06260299999999999,-0.798239,0.418404,0.4333,0.003773,0.005175,-0.006923,-5.5e-05,0.001076,-0.003933
433,-2.067989,-0.431616,0.062726,-0.7983180000000001,0.418339,0.433217,0.002687,0.003039,-0.004790999999999999,0.002068,0.001232,-0.002095
434,-2.067934,-0.43155,0.062813,-0.798366,0.418279,0.433187,0.002677,0.000909,-0.004789,0.002208,-0.003133,-0.003225
435,-2.067908,-0.431496,0.062926,-0.798397,0.41823,0.43317700000000003,0.002667,-0.001222,-0.004786,0.004116,-0.002397,-0.001811
436,-2.0678799999999997,-0.43144099999999996,0.06300800000000001,-0.7984289999999999,0.41818,0.433166,0.00161,0.0009130000000000001,-0.004796,0.000807,-0.001737,-5.9999999999999995e-05
437,-2.067803,-0.43139399999999994,0.063053,-0.79848,0.418137,0.43311400000000005,-0.0015949999999999998,0.003042,-0.001616,0.001315,-0.002762,-0.001091
438,-2.067714,-0.431378,0.063055,-0.798524,0.41812299999999997,0.43304499999999996,0.000539,0.0040950000000000005,-0.000535,-0.000152,-0.003008,-0.002015
439,-2.067662,-0.431357,0.063073,-0.798554,0.418104,0.433008,0.001596,0.0009,-0.001591,-0.000259,-0.002195,-0.0033200000000000005
440,-2.0676330000000003,-0.43132200000000004,0.06314,-0.7985800000000001,0.418072,0.43299099999999996,0.001596,-0.00014199999999999998,-0.0037240000000000003,-0.001866,-0.004497999999999999,-0.0012900000000000001
441,-2.067589,-0.43128,0.063262,-0.798614,0.418034,0.432965,0.004796,-0.000153,-0.003701,0.002029,-0.001423,-0.002438
442,-2.067559,-0.431241,0.06337899999999999,-0.798642,0.41799899999999995,0.432949,0.002667,-0.00014099999999999998,-0.004784,0.0020559999999999997,-0.0013880000000000001,-0.0024219999999999997
443,-2.067519,-0.43118500000000004,0.063485,-0.7986800000000001,0.41794799999999993,0.432928,0.0026620000000000003,-0.001206,-0.004783,0.001927,-0.001917,-0.0022489999999999997
444,-2.067502,-0.43113900000000005,0.063558,-0.798704,0.41790600000000006,0.432924,0.002648,-0.001219,-0.0015789999999999999,0.002379,4.8e-05,0.000106
445,-2.0674810000000003,-0.431113,0.063639,-0.798723,0.417882,0.43291199999999996,0.002648,-0.00228,-0.0026449999999999998,0.002397,7.099999999999999e-05,0.000117
446,-2.067475,-0.431084,0.063731,-0.798736,0.41785600000000006,0.432913,0.003729,-0.000149,-0.0037090000000000005,0.002762,0.001151,-0.002494
447,-2.067466,-0.431044,0.063821,-0.798755,0.41781899999999994,0.432914,0.002639,-0.001202,-0.0047420000000000006,0.004749000000000001,-0.001559,-0.0022199999999999998
448,-2.0674759999999996,-0.43097700000000005,0.06389299999999999,-0.798775,0.417758,0.432936,0.0005,-0.0022600000000000003,-0.004756,0.003258,-0.001178,-0.00037999999999999997
449,-2.067478,-0.430922,0.063938,-0.798795,0.41770799999999997,0.43294799999999994,0.0005,-0.001199,-0.003689,0.002545,-0.000915,0.000233
450,-2.067421,-0.430886,0.063981,-0.798833,0.41767600000000005,0.432909,0.000519,0.003062,-0.0036950000000000004,0.001637,-0.003995,-0.0031
451,-2.067376,-0.43084799999999995,0.06401799999999999,-0.798867,0.417641,0.432881,0.001572,0.000923,-0.002616,0.001503,-0.004326,-0.001119
452,-2.067333,-0.43081099999999994,0.064085,-0.798899,0.41760699999999995,0.432854,0.002639,-0.00014099999999999998,-0.003676,0.002131,-0.002431,-0.0014730000000000001
453,-2.067316,-0.43073100000000003,0.064177,-0.798936,0.41753500000000004,0.432857,0.002643,-0.001198,-0.005811,0.003571,-0.004816,-0.00027
454,-2.06732,-0.43069399999999997,0.064251,-0.7989470000000001,0.417501,0.43286800000000003,0.00262,-0.00228,-0.001537,0.004697,-0.000143,-0.00047999999999999996
455,-2.067262,-0.430704,0.06428099999999999,-0.798968,0.41751099999999997,0.43281899999999995,0.001577,0.0051719999999999995,0.000583,-0.004651,0.005646,-0.00066
456,-2.067103,-0.4307,0.064322,-0.799039,0.41750699999999996,0.43269300000000005,0.0015609999999999999,0.007320999999999999,-0.0014990000000000001,0.00073,-0.000758,-0.004790999999999999
457,-2.066961,-0.43067799999999995,0.06437799999999999,-0.7991090000000001,0.417487,0.432584,0.001557,0.005194,-0.002565,0.001883,-0.005607,-0.006086
458,-2.066929,-0.43065200000000003,0.064426,-0.799132,0.41746300000000003,0.43256300000000003,0.002595,-0.001201,-0.002549,0.006683,-0.0026829999999999996,-0.001564
459,-2.0669049999999998,-0.430595,0.064522,-0.799163,0.417412,0.43255600000000005,0.0026089999999999998,-0.001188,-0.005754,0.0070799999999999995,-0.002601,-0.000396
460,-2.066916,-0.43048500000000006,0.064661,-0.799199,0.417312,0.43258599999999997,0.0026089999999999998,-0.00331,-0.007887,0.006856,-0.0039049999999999996,0.001984
461,-2.066862,-0.430386,0.064833,-0.799259,0.417221,0.43256300000000003,0.004762,0.0009429999999999999,-0.007878,0.000263,-0.0029760000000000003,0.000741
462,-2.066738,-0.430306,0.064999,-0.799341,0.417149,0.43248000000000003,0.0037,0.0041340000000000005,-0.005753,-0.001348,-0.000523,-0.000534
463,-2.066624,-0.430252,0.06512899999999999,-0.7994100000000001,0.4171,0.432399,0.003686,0.002,-0.004682,-0.002195,0.000106,-0.00043799999999999997
464,-2.066565,-0.43021099999999995,0.065239,-0.799451,0.417062,0.43236,0.003626,-0.000149,-0.004599,0.004118,-0.0015199999999999999,-0.002672
465,-2.066536,-0.430187,0.065325,-0.7994720000000001,0.417041,0.432342,0.003616,-0.000157,-0.002462,0.004413,-0.0010400000000000001,-0.0008539999999999999
466,-2.066511,-0.430183,0.06537000000000001,-0.799485,0.417038,0.43232200000000004,0.00041600000000000003,0.000915,-0.001418,0.006028,0.000504,-0.0008039999999999999
467,-2.066431,-0.43015600000000004,0.065397,-0.79953,0.417012,0.43226400000000004,0.00043499999999999995,0.005176,-0.001423,0.002746,-0.00057,-0.004911
468,-2.066339,-0.430116,0.06540599999999999,-0.799584,0.41697700000000004,0.432199,-0.000642,0.0030489999999999996,-0.001428,-0.0005110000000000001,0.000412,-0.002801
469,-2.066289,-0.43011499999999997,0.06541799999999999,-0.799606,0.416975,0.432159,0.00042,0.00198,-0.001419,0.00148,7.8e-05,-0.0034020000000000005
470,-2.066303,-0.430095,0.065467,-0.799608,0.41695699999999997,0.432174,0.0014730000000000001,-0.003341,-0.0035409999999999994,0.0024579999999999997,-0.003184,-0.003066
471,-2.0663560000000003,-0.42999,0.065551,-0.799623,0.416862,0.432237,0.001482,-0.0043939999999999995,-0.006745,0.0036490000000000003,-0.004951,0.000869
472,-2.0663650000000002,-0.429854,0.06567,-0.799669,0.416738,0.432271,0.001443,-0.002281,-0.008782,-0.000304,-0.003133,0.002345
473,-2.066313,-0.42976000000000003,0.065827,-0.799726,0.416652,0.43224799999999997,0.0035810000000000004,-0.00016299999999999998,-0.007701,0.000791,-4.2e-05,-0.000714
474,-2.0662409999999998,-0.429692,0.065964,-0.799782,0.41658999999999996,0.432204,0.0046429999999999996,0.0008900000000000001,-0.005559000000000001,0.0038840000000000003,-0.0034590000000000003,-0.0016769999999999999
475,-2.066191,-0.42970600000000003,0.06605599999999999,-0.799798,0.416603,0.43216099999999996,0.003553,0.0008730000000000001,-0.000225,0.001367,-0.003945000000000001,-0.0013599999999999999
476,-2.066141,-0.429775,0.06611,-0.799794,0.416667,0.43210699999999996,0.0035380000000000003,0.0019210000000000002,0.004046,-0.001155,-0.000178,0.000236
477,-2.06613,-0.429913,0.066115,-0.7997489999999999,0.416792,0.432071,0.0035189999999999996,-0.000218,0.006185,0.000768,0.000734,-0.00307
478,-2.066163,-0.430029,0.066058,-0.799692,0.416897,0.432075,-0.000753,-0.000207,0.0072239999999999995,0.002801,0.001118,-0.003867
479,-2.066206,-0.43008199999999996,0.065952,-0.799653,0.416946,0.432098,-0.002863,0.0008820000000000001,0.002935,0.003053,0.001344,-0.004562
480,-2.0662119999999997,-0.43005,0.06584,-0.799663,0.416916,0.43211000000000005,-0.006118,-0.000174,-0.000185,0.0036119999999999998,0.001144,-0.005886
481,-2.066279,-0.429947,0.06579700000000001,-0.799672,0.416822,0.432184,-0.003975,-0.003356,-0.005507,0.0013779999999999999,0.002275,-0.0029850000000000002
482,-2.066344,-0.429774,0.065839,-0.799707,0.41666499999999995,0.43227,-0.001827,-0.004411,-0.009764,0.002222,-0.000192,-0.001239
483,-2.0664119999999997,-0.42960200000000004,0.065942,-0.79974,0.416509,0.432358,0.000307,-0.00548,-0.010816,0.002926,-0.001989,0.000229
484,-2.066447,-0.42946999999999996,0.066061,-0.799773,0.416389,0.432413,0.001364,-0.004431,-0.007605,0.0016010000000000002,-0.000938,0.000265
485,-2.066506,-0.429354,0.066176,-0.799791,0.416283,0.432482,0.001355,-0.006562,-0.007601999999999999,0.003282,-0.001962,-0.000964
486,-2.066565,-0.429217,0.066295,-0.799816,0.416159,0.43255699999999997,0.0013599999999999999,-0.005496,-0.0076040000000000005,0.005748,-0.004263,0.002959
487,-2.066665,-0.42913199999999996,0.06639,-0.799804,0.41608199999999995,0.432654,0.0013449999999999998,-0.005509,-0.004399,0.004790999999999999,-0.0029649999999999998,0.0008179999999999999
488,-2.06663,-0.429095,0.066424,-0.799832,0.416048,0.432633,0.000245,0.0029920000000000003,-0.002176,-0.003925,0.001188,0.004012
489,-2.066493,-0.42908500000000005,0.06651900000000001,-0.799895,0.41603900000000005,0.432526,0.0034549999999999997,0.0061719999999999995,-0.00109,0.0036299999999999995,-0.006905,-0.001801
490,-2.0663259999999997,-0.42912700000000004,0.066583,-0.799952,0.41607700000000003,0.432383,0.002379,0.007229000000000001,0.002106,0.002771,-0.00734,0.002202
491,-2.066221,-0.42918599999999996,0.06663,-0.799975,0.41613100000000003,0.432288,0.004508,0.005095000000000001,0.001056,0.006213000000000001,-0.004586,0.001032
492,-2.066066,-0.42921000000000004,0.066677,-0.800033,0.416152,0.432159,0.002393,0.007241,-0.001098,0.003418,-0.003783,-0.000808
493,-2.065888,-0.42919799999999997,0.066748,-0.8001149999999999,0.416142,0.432019,0.0034840000000000006,0.009381,-0.004298,0.002752,-0.0018960000000000001,-0.002392
494,-2.065681,-0.429203,0.066808,-0.800203,0.416146,0.43185200000000007,0.002393,0.008302,-3.2e-05,-0.002379,0.000709,-0.004164
495,-2.065527,-0.42922200000000005,0.06683,-0.800262,0.41616400000000003,0.431726,0.002318,0.007215000000000001,8.499999999999999e-05,-0.001801,0.002034,-0.005319
496,-2.065424,-0.42924399999999996,0.066838,-0.800299,0.41618299999999997,0.43163900000000005,0.00016999999999999999,0.004027,7.5e-05,-0.001016,0.004379999999999999,-0.0063159999999999996
497,-2.065414,-0.42924300000000004,0.066853,-0.800304,0.41618299999999997,0.43163100000000004,-0.000921,-0.001296,7.4e-05,0.001644,0.003571,-0.006018
498,-2.065491,-0.429238,0.066853,-0.8002729999999999,0.416178,0.43169399999999997,0.000126,-0.005561,8.7e-05,0.00262,0.0031190000000000002,-0.004921
499,-2.065635,-0.42922299999999997,0.066822,-0.800216,0.41616400000000003,0.431812,-0.004151,-0.0076760000000000005,5.9e-05,0.002746,0.0045509999999999995,-0.0017579999999999998
500,-2.065769,-0.429199,0.06677999999999999,-0.800167,0.416142,0.431924,-0.003074,-0.006611,-0.001003,0.002987,5.6000000000000006e-05,-0.002038
501,-2.06593,-0.42912,0.066749,-0.800126,0.416071,0.432069,-0.003065,-0.006601999999999999,-0.003139,0.00586,-0.000941,-0.001679
502,-2.066081,-0.42900200000000005,0.066725,-0.800104,0.41596400000000006,0.432213,-0.003055,-0.006594,-0.005275,0.0046170000000000004,-0.005853,0.000465
503,-2.0661959999999997,-0.428907,0.06673,-0.800089,0.41587700000000005,0.432324,-0.002048,-0.005556,-0.005155,0.002421,-0.00627,0.002704
504,-2.066271,-0.428845,0.066777,-0.800079,0.41581999999999997,0.432396,0.002219,-0.0034490000000000002,-0.002991,0.001449,-0.006122,0.001351
505,-2.066284,-0.428831,0.066834,-0.800078,0.415808,0.432409,0.002224,-0.000261,-0.000859,0.0015550000000000002,-0.005667,0.0032600000000000003
506,-2.066261,-0.42884799999999995,0.066886,-0.800082,0.41582299999999994,0.43238699999999997,0.002219,0.000795,0.001276,0.0024129999999999998,-0.0055450000000000004,0.001604
507,-2.06622,-0.428917,0.066898,-0.800074,0.415886,0.432341,0.003281,0.001848,0.0034189999999999997,-0.000234,-0.0028,0.000292
508,-2.066191,-0.429021,0.066887,-0.800049,0.41598100000000005,0.43229700000000004,0.0022,0.000778,0.005549,0.003479,0.000782,-0.001297
509,-2.066176,-0.42913900000000005,0.066893,-0.800012,0.416088,0.43226099999999995,0.0022,0.000778,0.005549,0.004679,0.0016359999999999999,-0.0038399999999999997
510,-2.0661650000000003,-0.429241,0.06689400000000001,-0.79998,0.41618,0.43223199999999995,0.002205,0.0018440000000000002,0.005548,0.003822,0.0031309999999999997,-0.006207
511,-2.066136,-0.42931899999999995,0.066875,-0.799964,0.41625100000000004,0.43219399999999997,0.001143,0.001852,0.004472,0.002418,0.0030600000000000002,-0.005726
512,-2.066134,-0.429363,0.066843,-0.799949,0.416292,0.432183,-0.002111,-0.000268,0.001335,0.002814,0.002516,-0.0063869999999999994
513,-2.066202,-0.429378,0.06680499999999999,-0.799914,0.41630600000000006,0.432234,-0.0031829999999999996,-0.0023899999999999998,0.000262,-0.000242,0.0017239999999999998,-0.005873
514,-2.066282,-0.429335,0.066738,-0.799895,0.41626599999999997,0.43230799999999997,-0.00424,-0.002378,-0.001882,0.001051,0.000131,-0.005092
515,-2.066337,-0.429259,0.066702,-0.799899,0.41619700000000004,0.432367,-0.002107,-0.003447,-0.002934,-0.00105,-0.002837,-0.002282
516,-2.066406,-0.429183,0.066679,-0.7998970000000001,0.416128,0.432436,-0.0031780000000000003,-0.004508,-0.00294,-2.9999999999999997e-05,-0.000982,-0.000628
517,-2.066523,-0.42913900000000005,0.066652,-0.799862,0.416088,0.432539,-0.0021260000000000003,-0.006647,-0.0018620000000000002,-6.500000000000001e-05,-0.0009429999999999999,-0.000731
518,-2.066649,-0.429116,0.06666,-0.799816,0.416067,0.432645,3e-06,-0.006658,-0.000779,0.004543,-0.002722,0.001178
519,-2.0667590000000002,-0.42908500000000005,0.06669299999999999,-0.79978,0.416038,0.43273900000000004,0.001048,-0.0045,-0.001738,0.003927,-0.00028199999999999997,0.0034340000000000004
520,-2.066806,-0.42905200000000004,0.066733,-0.799771,0.416009,0.43278199999999994,5e-06,-0.001292,-0.003886,0.003919,-0.00025299999999999997,0.00339
521,-2.066818,-0.42903900000000006,0.066772,-0.799771,0.415997,0.43279399999999996,0.002129,-0.00024700000000000004,-0.000667,0.003674,0.002627,-0.00046699999999999997
522,-2.066834,-0.429069,0.066839,-0.799752,0.416025,0.43280100000000005,0.003187,-0.00132,0.00041,0.0029230000000000003,0.001013,-0.0011300000000000001
523,-2.066778,-0.429101,0.066825,-0.799765,0.416054,0.432749,1e-05,0.005078,0.0014470000000000002,-0.00213,-0.001854,0.001333
524,-2.066665,-0.42913,0.066841,-0.7998029999999999,0.41608,0.43265299999999995,0.001086,0.006144,0.00038500000000000003,0.001036,-0.0015140000000000002,-0.004079999999999999
525,-2.066525,-0.42913199999999996,0.06683,-0.799863,0.41608199999999995,0.432541,-0.002109,0.008281,0.001429,0.004911,-0.003865,-0.000549
526,-2.066452,-0.42911800000000005,0.066814,-0.7999,0.41606899999999997,0.432486,-0.001057,0.00296,-0.0006940000000000001,0.002247,-0.003547,-0.002997
527,-2.0663810000000002,-0.42908,0.066804,-0.799944,0.416034,0.432437,-3.6e-05,0.002925,-0.000601,0.0022600000000000003,-0.004169,-0.0034659999999999995
528,-2.066339,-0.429047,0.066811,-0.799974,0.416005,0.432409,-0.001103,0.000807,-0.002742,0.00229,-0.006047,-0.0040490000000000005
529,-2.066307,-0.42899899999999996,0.066865,-0.800005,0.41596099999999997,0.432393,0.003169,0.000796,-0.003781,-0.000593,-0.0028899999999999998,-0.003636
530,-2.066256,-0.428968,0.066942,-0.8000390000000001,0.415933,0.432359,0.002093,0.000791,-0.001652,-0.0033060000000000003,0.001426,-0.003968
531,-2.066203,-0.428972,0.06703200000000001,-0.800061,0.415936,0.43231499999999995,0.00316,-0.000273,-0.002711,-0.000583,0.000156,-0.002704
532,-2.066188,-0.429011,0.067115,-0.800053,0.415971,0.432296,0.004208,-0.001355,0.000502,0.000767,0.001143,-0.00418
533,-2.066218,-0.429026,0.067175,-0.800035,0.41598500000000005,0.432316,0.002059,-0.004543,0.000491,0.007386,0.001327,-0.000462
534,-2.066287,-0.42901999999999996,0.06718099999999999,-0.800007,0.41598,0.43237299999999995,-0.001132,-0.0034630000000000004,-0.000601,0.003757,0.0015609999999999999,-4.6e-05
535,-2.0663110000000002,-0.42900200000000005,0.06717200000000001,-0.800003,0.41596400000000006,0.432396,-4.5e-05,0.000795,-0.000599,0.0018920000000000002,0.0013800000000000002,-0.000633
536,-2.0663150000000003,-0.429016,0.06713200000000001,-0.7999970000000001,0.415976,0.432396,-0.0011359999999999999,0.0018629999999999999,0.0016,0.001443,-0.0006320000000000001,0.000831
537,-2.066332,-0.429034,0.067076,-0.799983,0.41599200000000003,0.432406,-0.001141,0.000798,0.0016010000000000002,0.001124,-0.001686,0.000241
538,-2.0663400000000003,-0.42902299999999993,0.067035,-0.799983,0.415983,0.43241499999999994,-0.002193,0.0008150000000000001,-0.001611,0.002849,-0.003934,-0.002742
539,-2.066357,-0.42899799999999993,0.067036,-0.7999850000000001,0.41596000000000005,0.432433,-5.9999999999999995e-05,-0.000254,-0.002663,-0.00014,-0.004019,-0.0019219999999999999
540,-2.06637,-0.428979,0.06704500000000001,-0.799986,0.415943,0.43244799999999994,-0.0011359999999999999,-0.000259,-0.000534,-0.000917,-0.001361,-0.001005
541,-2.066368,-0.42898100000000006,0.067049,-0.799986,0.415944,0.432446,-7.4e-05,-0.000267,0.000542,-0.000154,-0.00179,-0.0027429999999999998
542,-2.066375,-0.429004,0.067044,-0.799976,0.415965,0.432447,0.0009880000000000002,-0.000275,0.0016179999999999999,7.900000000000001e-05,-0.000819,-0.0055520000000000005
543,-2.066384,-0.42903100000000005,0.067084,-0.799962,0.41598999999999997,0.432449,0.003094,-0.002397,0.000595,0.000463,-0.000676,-0.002914
544,-2.066424,-0.429051,0.06714099999999999,-0.799938,0.416008,0.43247700000000006,0.002027,-0.003454,-0.000479,0.001857,0.001274,-0.003278
545,-2.0664849999999997,-0.429083,0.0672,-0.7999,0.416037,0.43251999999999996,0.002018,-0.004524,0.00059,0.0037259999999999997,-0.00040300000000000004,-0.000773
546,-2.066555,-0.429105,0.067208,-0.7998609999999999,0.41605699999999995,0.432571,-0.00011100000000000001,-0.0023899999999999998,0.001641,0.0032920000000000002,3.5e-05,-0.001373
547,-2.0665970000000002,-0.429113,0.067175,-0.79984,0.41606400000000004,0.43260299999999996,-0.001164,-0.000251,0.000563,0.003011,-0.000323,-0.0008560000000000001
548,-2.066607,-0.429123,0.067151,-0.799832,0.416074,0.432609,-9.7e-05,-0.00025499999999999996,0.00057,0.002911,-0.0009429999999999999,0.000298
549,-2.06662,-0.42913100000000004,0.067159,-0.799824,0.41608100000000003,0.432618,0.000975,0.0008060000000000001,0.000576,0.004520000000000001,-0.0035600000000000002,-0.001588
550,-2.066632,-0.429126,0.067159,-0.79982,0.416076,0.432629,-9.2e-05,-0.001312,-0.001565,0.0025329999999999997,-0.004028,-0.001721
551,-2.06664,-0.42912100000000003,0.067128,-0.799819,0.41607200000000005,0.43263599999999997,-0.001165,0.000848,0.0016530000000000002,0.003157,-0.003016,0.001431
552,-2.066632,-0.429137,0.067082,-0.799816,0.41608599999999996,0.43262700000000004,-0.002227,0.0008560000000000001,0.0005780000000000001,-0.00066,-0.005167000000000001,-0.002405
553,-2.06664,-0.42917299999999997,0.067065,-0.7998,0.41611899999999996,0.432626,-0.00010800000000000001,-0.001286,0.001663,-0.001836,-0.001217,-0.00126
554,-2.0666900000000004,-0.42920200000000003,0.06704700000000001,-0.799768,0.416145,0.43266000000000004,-0.00011200000000000001,-0.002352,0.0016649999999999998,0.00039,-0.0017010000000000003,-0.003018
555,-2.0667419999999996,-0.429253,0.067052,-0.799726,0.416192,0.432692,0.002012,-0.002368,0.0038159999999999995,0.000974,-0.002801,-0.002943
556,-2.0668130000000002,-0.42931499999999995,0.067018,-0.799673,0.41624799999999995,0.43273599999999995,-0.000127,-0.002364,0.004869,0.002447,0.0005610000000000001,-0.004025
557,-2.0668729999999997,-0.429399,0.06699,-0.799616,0.416325,0.432767,0.0009400000000000001,-0.00449,0.0027429999999999998,0.0016879999999999998,-0.001972,-0.003095
558,-2.06698,-0.429435,0.066966,-0.799557,0.416357,0.432846,-0.0012029999999999999,-0.006613,0.002731,0.0032,-0.003394,-7.6e-05
559,-2.067097,-0.429489,0.06693099999999999,-0.7994859999999999,0.41640699999999997,0.432929,0.00093,-0.00556,0.0038130000000000004,0.000597,0.0008449999999999999,-0.0009220000000000001
560,-2.067136,-0.42959899999999995,0.066852,-0.799429,0.41650600000000004,0.432938,-0.00225,0.004031,0.008071,-0.005915,0.00427,-0.0038759999999999997
561,-2.067111,-0.429658,0.066736,-0.7994180000000001,0.416559,0.432907,-0.004375,0.002986,0.0048530000000000005,0.000102,0.000646,-0.004028
562,-2.06713,-0.429724,0.0666,-0.7993859999999999,0.41662,0.432908,-0.004398,0.000842,0.008061,0.003106,-0.002862,-0.00609
563,-2.0672509999999997,-0.429796,0.066425,-0.799307,0.41668599999999995,0.43299099999999996,-0.004413,-0.004476,0.0059310000000000005,0.000906,-0.0016309999999999999,-0.001289
564,-2.0673630000000003,-0.42982200000000004,0.066304,-0.799249,0.416709,0.433075,-0.0043939999999999995,-0.0033979999999999995,0.002725,0.004159,-0.004508,-0.0027010000000000003
565,-2.0675169999999996,-0.429821,0.06624400000000001,-0.799183,0.41670799999999997,0.43319799999999997,-0.00227,-0.007658,0.000609,0.007587999999999999,-0.006155,-0.0008710000000000001
566,-2.067632,-0.429829,0.06625199999999999,-0.79913,0.416716,0.43328900000000004,0.000941,-0.005538,0.000628,0.002148,-0.004225,0.002669
567,-2.067645,-0.429884,0.066264,-0.799104,0.41676499999999994,0.43328900000000004,0.002007,0.0008410000000000001,0.003855,-4.4e-05,-0.001726,-0.000183
568,-2.067582,-0.42995900000000004,0.06626900000000001,-0.799104,0.41683400000000004,0.43322299999999997,0.0020210000000000002,0.004037,0.003851,-0.002791,0.0007379999999999999,-0.000789
569,-2.067539,-0.430042,0.066265,-0.799093,0.41690900000000003,0.433172,0.0009449999999999999,0.0019100000000000002,0.0038469999999999997,0.004903,0.001045,-0.0038200000000000005
570,-2.067628,-0.43014300000000005,0.066228,-0.799017,0.417001,0.43322299999999997,0.0009019999999999999,-0.005555,0.005992,0.004934,0.0013800000000000002,-0.0034289999999999998
571,-2.0678,-0.43023500000000003,0.06614600000000001,-0.798908,0.417084,0.43334300000000003,-0.0012460000000000001,-0.007682,0.0070480000000000004,0.004246,7.6e-05,-0.002236
572,-2.067955,-0.430328,0.066013,-0.7988069999999999,0.41716899999999996,0.433447,-0.0044280000000000005,-0.0034100000000000003,0.0070209999999999995,0.0034729999999999995,-0.000452,0.000909
573,-2.06805,-0.430417,0.065826,-0.798732,0.41725,0.43350600000000006,-0.005485,-0.000215,0.008076999999999999,0.002376,-0.000746,-0.002781
574,-2.068131,-0.43052799999999997,0.065647,-0.798657,0.41735,0.43354799999999993,-0.003356,-0.001288,0.008094,0.002606,-0.001274,-0.001129
575,-2.068235,-0.430598,0.065509,-0.798585,0.417415,0.43361700000000003,-0.003356,-0.0034100000000000003,0.00596,-0.00128,-0.00294,-0.002663
576,-2.0683540000000002,-0.43064600000000003,0.065416,-0.798516,0.417458,0.43370200000000003,-0.0012230000000000001,-0.004459,0.002786,-7.000000000000001e-06,-0.0028309999999999997,-0.002382
577,-2.068437,-0.43070699999999995,0.065371,-0.798457,0.417513,0.43375699999999995,-0.000151,-0.002336,0.0038590000000000005,-0.000188,-0.0016190000000000002,-0.004832
578,-2.068527,-0.43078299999999997,0.065289,-0.7983899999999999,0.417583,0.433813,-0.0023,-0.0023420000000000003,0.007049,-0.00172,-0.004725,-0.0034840000000000006
579,-2.068637,-0.430867,0.065174,-0.798311,0.417659,0.433884,-0.0033759999999999997,-0.003408,0.008111,0.000322,0.0008439999999999999,-0.002807
580,-2.068797,-0.43094499999999997,0.06504299999999999,-0.7982130000000001,0.417729,0.43399499999999996,-0.0033810000000000003,-0.005534000000000001,0.007045,0.00022400000000000002,0.000773,-0.002919
581,-2.06897,-0.431016,0.064911,-0.798111,0.41779399999999994,0.434119,-0.0033759999999999997,-0.005529999999999999,0.0059770000000000005,0.003708,0.000236,-0.002173
582,-2.069152,-0.431116,0.064785,-0.797996,0.41788500000000006,0.434245,-0.0033950000000000004,-0.007669,0.008116,0.002372,-8.4e-05,-0.0014140000000000001
583,-2.0693610000000002,-0.431241,0.06461900000000001,-0.797859,0.417998,0.43438699999999997,-0.004457,-0.005539,0.009174,0.00251,0.000947,-0.002014
584,-2.069559,-0.431342,0.06445,-0.797736,0.418091,0.43452399999999997,-0.0044659999999999995,-0.006581999999999999,0.008111,0.001929,-0.002212,0.000321
585,-2.069746,-0.431454,0.064286,-0.797613,0.418192,0.434651,-0.004461,-0.005517,0.00811,0.0028280000000000002,-0.001307,-0.002797
586,-2.06988,-0.431547,0.06414700000000001,-0.797521,0.41827600000000004,0.43473999999999996,-0.003375,-0.0033810000000000003,0.005978,0.0020800000000000003,-0.0009630000000000001,-0.001771
587,-2.069984,-0.431621,0.06400700000000001,-0.7974479999999999,0.418343,0.43480699999999994,-0.0033710000000000003,-0.002316,0.0059770000000000005,0.001778,-0.002587,-0.001808
588,-2.070089,-0.431687,0.063855,-0.7973779999999999,0.418404,0.434878,-0.0044329999999999994,-0.001247,0.005968,0.002273,-0.0025109999999999998,-0.0041979999999999995
589,-2.070201,-0.431751,0.063737,-0.797305,0.418462,0.434953,-0.002309,-0.004446,0.004919,0.00249,-0.002736,-0.004488000000000001
590,-2.070335,-0.43182,0.063626,-0.797222,0.41852399999999995,0.435047,-0.002313,-0.00445,0.005987,0.00027,-0.00040300000000000004,-0.001652
591,-2.070434,-0.431885,0.06353500000000001,-0.7971550000000001,0.418583,0.435113,-0.001235,-0.003348,0.003827,0.002431,-0.005679999999999999,-0.001702
592,-2.070519,-0.431929,0.06347,-0.7971010000000001,0.41862299999999997,0.43517100000000003,-0.001235,-0.002287,0.004894,0.00105,-0.0027600000000000003,-0.000814
593,-2.070575,-0.43206300000000003,0.063399,-0.797027,0.418745,0.43518900000000005,0.001947,-0.002315,0.009189,0.0024100000000000002,0.005403,-0.002999
594,-2.070608,-0.4322,0.06325900000000001,-0.796962,0.41886999999999996,0.435187,-0.004435000000000001,0.003029,0.010206,-0.001057,0.0050810000000000004,-0.003333
595,-2.070664,-0.43231499999999995,0.063016,-0.796895,0.41897399999999996,0.435209,-0.0065840000000000004,0.0009019999999999999,0.011262000000000001,-0.000239,-0.001661,-0.006346
596,-2.070826,-0.43245100000000003,0.06276699999999999,-0.796774,0.41909799999999997,0.43531000000000003,-0.007679000000000001,-0.004425,0.012329999999999999,-5.5e-05,-0.002136,0.00016
597,-2.071093,-0.432537,0.062512,-0.7966260000000001,0.41917600000000005,0.43550600000000006,-0.007679000000000001,-0.009729999999999999,0.006995,0.000834,-0.002702,-0.001088
598,-2.0713220000000003,-0.432587,0.062386000000000004,-0.796508,0.419221,0.43567799999999995,-0.004455,-0.008659,0.0027429999999999998,0.002761,-0.0021219999999999998,0.0009519999999999999
599,-2.071455,-0.43259899999999996,0.062341999999999995,-0.796445,0.419232,0.43578199999999995,-0.000145,-0.005425999999999999,0.000567,0.005079,-0.006115,0.00028399999999999996
600,-2.0714490000000003,-0.43262700000000004,0.062348,-0.796437,0.419258,0.435771,0.002023,0.003085,0.001639,0.0032240000000000003,-0.003089,0.000462
601,-2.071351,-0.43268,0.062347,-0.796461,0.41930600000000007,0.43568199999999996,0.002032,0.0062759999999999995,0.002704,0.003324,-0.001245,-0.0019809999999999997
602,-2.071282,-0.43276000000000003,0.062318,-0.796461,0.419378,0.43561099999999997,0.002008,0.0020109999999999998,0.0037770000000000004,0.0013109999999999999,0.002558,-0.003848
603,-2.071309,-0.432834,0.062252999999999996,-0.7964220000000001,0.41944499999999996,0.435618,-0.001216,-0.0022429999999999998,0.004828,0.003575,-7.2e-05,0.000127
604,-2.071395,-0.4329,0.062204999999999996,-0.7963600000000001,0.419505,0.435673,0.0009029999999999999,-0.005447,0.004847,0.004338,0.001149,-0.002704
605,-2.071504,-0.432957,0.062121,-0.796291,0.41955699999999996,0.43574799999999997,-0.003355,-0.0033009999999999997,0.004815,0.0039020000000000005,0.001036,-0.001056
606,-2.071586,-0.43303100000000005,0.061958000000000006,-0.7962279999999999,0.419624,0.435799,-0.004412,-0.000106,0.005871,0.000299,0.000465,-0.003899
607,-2.071695,-0.433097,0.061780999999999996,-0.796157,0.419684,0.435871,-0.00657,-0.003303,0.007997,0.001052,-0.002539,-0.001912
608,-2.07183,-0.433184,0.061586,-0.7960649999999999,0.419763,0.435962,-0.005474000000000001,-0.003249,0.0079,-0.001466,-0.004358,-0.001376
609,-2.0719939999999997,-0.43328199999999994,0.0614,-0.7959579999999999,0.41985100000000003,0.43607299999999993,-0.004412,-0.004318,0.007909000000000001,0.0007160000000000001,-0.005514,-0.00373
610,-2.07213,-0.43337,0.061251,-0.795866,0.41993199999999997,0.436163,-0.002269,-0.003256,0.006854000000000001,0.00044100000000000004,-0.002696,-0.001394
611,-2.072219,-0.433467,0.061149,-0.795792,0.42002,0.43621400000000005,-0.002269,-0.003256,0.006854000000000001,0.000381,-0.0043549999999999995,-0.004452
612,-2.072309,-0.433558,0.061042,-0.795719,0.42010200000000003,0.43626800000000004,-0.0011970000000000001,-0.003256,0.0057929999999999995,0.002506,-0.000714,-0.0055119999999999995
613,-2.072392,-0.433651,0.060940999999999995,-0.7956479999999999,0.420187,0.43631499999999995,-0.002274,-0.004321,0.006855,0.002664,-0.0021260000000000003,-0.0047350000000000005
614,-2.072525,-0.433741,0.060828,-0.795557,0.42026800000000003,0.43640200000000007,-0.002269,-0.0043170000000000005,0.005787,0.002314,0.0013779999999999999,-0.001359
615,-2.072645,-0.43383,0.060709000000000006,-0.7954720000000001,0.420349,0.43648000000000003,-0.002216,-0.003172,0.00671,0.002442,0.000977,0.0008210000000000001
616,-2.072753,-0.433903,0.060611,-0.7953979999999999,0.420416,0.436551,-0.001145,-0.004232,0.004582999999999999,0.002368,0.002039,-0.001401
617,-2.072835,-0.43396899999999994,0.060497,-0.795338,0.420475,0.43660200000000005,-0.0021969999999999997,-0.001033,0.004571,0.004002,-0.000981,-0.0037719999999999997
618,-2.072885,-0.43399899999999997,0.060435,-0.795305,0.42050200000000004,0.43663599999999997,-0.0021780000000000002,4.5e-05,0.0013650000000000001,0.005037,-0.003022,-0.0010429999999999999
619,-2.072848,-0.433972,0.060452,-0.795331,0.42047799999999996,0.436612,0.001047,5.6000000000000006e-05,-0.003953,0.005368,-0.0017460000000000002,0.001178
620,-2.072778,-0.43390500000000004,0.060554,-0.795385,0.420417,0.43656999999999996,0.002133,0.002191,-0.006085,0.005346,-0.002388,0.001098
621,-2.072644,-0.43380799999999997,0.06069,-0.79548,0.420329,0.436483,0.003214,0.0043219999999999995,-0.007148000000000001,0.003137,0.00057,-0.002752
622,-2.07254,-0.43365,0.060859,-0.795583,0.42018599999999995,0.436432,0.002147,8.2e-05,-0.011423,0.00411,-0.0037579999999999996,-0.002869
623,-2.072495,-0.433508,0.060997,-0.795655,0.42005699999999996,0.436425,0.003195,-0.001,-0.00821,-0.00028900000000000003,-0.001661,-0.001702
624,-2.072413,-0.433458,0.061126,-0.795709,0.420012,0.43637,0.005404,0.0043939999999999995,-0.004092,-0.0035,0.000978,-0.005492
625,-2.072235,-0.43341599999999997,0.061188,-0.795802,0.41997299999999993,0.436237,-0.000992,0.006543000000000001,-0.003071,-0.003743,0.002909,-0.003467
626,-2.072133,-0.433359,0.061208000000000005,-0.795868,0.419922,0.436167,0.001127,0.0033399999999999997,-0.003052,0.001098,-0.005966,-0.002909
627,-2.072089,-0.43328,0.061286,-0.795916,0.41985,0.436148,0.002179,-0.003043,-0.006241,0.001482,-0.0027660000000000002,-0.000525
628,-2.072127,-0.43317700000000003,0.061360000000000005,-0.795938,0.419756,0.436199,0.001127,-0.0019649999999999997,-0.008386,0.002999,-0.002367,-0.002362
629,-2.072059,-0.43304,0.061505,-0.796018,0.41963199999999995,0.436173,0.00328,0.001227,-0.009444,0.004453,-0.006684000000000001,-0.002762
630,-2.0718919999999996,-0.432913,0.061698,-0.796137,0.41951700000000003,0.436065,0.005423,0.004412,-0.008365000000000001,0.001292,-0.00225,-0.00064
631,-2.071708,-0.432859,0.061872,-0.796238,0.419468,0.43593000000000004,0.005409000000000001,0.0054600000000000004,-0.004093,-0.00048499999999999997,-0.002003,-0.003358
632,-2.071564,-0.432804,0.061970000000000004,-0.7963210000000001,0.419418,0.43582600000000005,0.002285,0.004497999999999999,-0.0043,0.004603,0.0023350000000000003,-0.002949
633,-2.07145,-0.43277,0.062067,-0.796383,0.419387,0.435742,0.0033420000000000004,0.003425,-0.0032229999999999997,0.004086,0.001832,-0.003201
634,-2.0713630000000003,-0.432755,0.062199000000000004,-0.796426,0.41937399999999997,0.435676,0.0054659999999999995,0.000226,-0.004272,0.005898,-0.0016179999999999999,-0.000938
635,-2.071323,-0.43268199999999996,0.062314,-0.79647,0.419307,0.435658,0.0022660000000000002,-0.000824,-0.005361,0.0053479999999999995,0.0011330000000000001,-0.002415
636,-2.0712639999999998,-0.43260200000000004,0.062417999999999994,-0.7965260000000001,0.419235,0.43562799999999996,0.001213,0.001315,-0.00644,0.003542,0.000962,-0.001118
637,-2.071156,-0.43252299999999994,0.062498000000000005,-0.796602,0.419163,0.435558,0.001227,0.005572,-0.005377000000000001,0.0027170000000000002,0.00172,-0.002361
638,-2.071027,-0.432479,0.062558,-0.796674,0.41912299999999997,0.435464,0.00228,0.005555,-0.002165,-0.000475,-0.001108,-0.0033810000000000003
639,-2.070933,-0.43245900000000004,0.062609,-0.796723,0.419105,0.43539300000000003,0.001266,0.001379,-0.002341,-0.002151,-0.001807,-0.00392
640,-2.070868,-0.432417,0.062688,-0.796767,0.419067,0.43535,0.001271,0.000322,-0.004476,-0.002184,-0.000793,-0.004975
641,-2.0708330000000004,-0.43233999999999995,0.06279,-0.79681,0.418997,0.435337,0.0023420000000000003,0.000322,-0.005536999999999999,0.000728,-0.005407,-0.003071
642,-2.0707299999999997,-0.43226800000000004,0.062913,-0.7968810000000001,0.41893100000000005,0.43526899999999996,0.0034240000000000004,0.0024530000000000003,-0.0066,0.001959,-0.002565,-0.002301
643,-2.070642,-0.43221000000000004,0.063027,-0.79694,0.418878,0.43521099999999996,0.0023420000000000003,0.0013830000000000001,-0.00447,0.001408,-0.0027559999999999998,-0.003433
644,-2.070566,-0.432137,0.06313300000000001,-0.797,0.41881199999999996,0.43516499999999997,0.003404,0.000314,-0.004461,0.000918,-0.00011100000000000001,-0.00061
645,-2.070557,-0.43206700000000003,0.063226,-0.797029,0.418749,0.43517100000000003,0.00339,-0.00182,-0.00339,0.0013289999999999999,0.001097,-0.002066
646,-2.070547,-0.43202700000000005,0.063321,-0.797048,0.418713,0.435172,0.002328,-0.0007509999999999999,-0.003399,0.0016690000000000001,0.00037,-0.002326
647,-2.0705419999999997,-0.43202799999999997,0.063399,-0.79705,0.41871400000000003,0.43516800000000005,0.0034630000000000004,-0.000675,-0.001439,0.003822,-2.8000000000000003e-05,-0.002016
648,-2.070558,-0.432021,0.06346,-0.797046,0.418707,0.43518199999999996,0.002386,-0.003863,-0.00251,0.0036200000000000004,-0.001181,-0.000688
649,-2.07062,-0.43196999999999997,0.063498,-0.797038,0.41866099999999995,0.435241,0.00025699999999999996,-0.003851,-0.003593,0.003947,-0.0006,-0.003326
650,-2.0705869999999997,-0.43192299999999995,0.06355,-0.79707,0.41861800000000005,0.435224,0.00242,0.0025329999999999997,-0.0035859999999999998,0.003796,-0.00126,-0.001097
651,-2.070503,-0.431883,0.06362999999999999,-0.797122,0.41858199999999995,0.435166,0.002425,0.002537,-0.004654999999999999,0.001254,-0.003375,0.000808
652,-2.070421,-0.431821,0.063703,-0.797181,0.418525,0.435113,0.002425,0.0014759999999999999,-0.005721,0.002884,-0.000388,-0.0018399999999999998
653,-2.070346,-0.43171899999999996,0.06384,-0.797251,0.41843199999999997,0.43507399999999996,0.001358,0.00041900000000000005,-0.006795999999999999,0.003672,-0.006186,-0.00047300000000000006
654,-2.070306,-0.43165200000000004,0.063919,-0.797293,0.418372,0.43505600000000005,0.0034770000000000005,0.000399,-0.0035759999999999998,-0.0010630000000000001,0.002984,-0.003324
655,-2.070163,-0.431633,0.064015,-0.797362,0.41835500000000003,0.434946,0.001372,0.007859,-0.002532,-0.001527,0.001918,-0.0021
656,-2.069947,-0.43159200000000003,0.064063,-0.797471,0.418318,0.43478100000000003,0.001437,0.011115,-0.003704,-0.001144,0.000628,-0.0040100000000000005
657,-2.069758,-0.431566,0.064139,-0.797563,0.41829399999999994,0.43463599999999997,0.001408,0.006845,-0.001562,0.000154,-0.004705,-0.0032090000000000005
658,-2.069701,-0.431546,0.064192,-0.7975949999999999,0.418275,0.434595,0.002451,0.000454,-0.0026149999999999997,0.001208,-0.0034340000000000004,-0.001611
659,-2.069658,-0.43146999999999996,0.064325,-0.7976409999999999,0.418207,0.434575,0.0035369999999999998,-0.001655,-0.009014,0.005771,-0.003153,-0.001973
660,-2.069631,-0.43135200000000007,0.06449500000000001,-0.797696,0.418099,0.43457799999999996,0.004609,-0.0016539999999999999,-0.010075,0.005704,-0.005029,0.0012439999999999999
661,-2.069546,-0.43120600000000003,0.064699,-0.797786,0.41796700000000003,0.434539,0.006751999999999999,0.000469,-0.010062,0.0028640000000000002,-0.002745,-0.00045700000000000005
662,-2.0693580000000003,-0.43111000000000005,0.064933,-0.797904,0.417879,0.434408,0.007843000000000001,0.006852,-0.008995,0.0022489999999999997,0.000303,0.000254
663,-2.069123,-0.43104,0.065118,-0.798031,0.41781599999999997,0.434234,0.005699,0.007927,-0.005803,-0.000965,0.0008089999999999999,-0.004013
664,-2.068965,-0.43100600000000006,0.06524400000000001,-0.798113,0.417785,0.434115,0.0035409999999999994,0.00473,-0.003677,0.0009630000000000001,0.0037700000000000003,-0.004107
665,-2.06886,-0.43096999999999996,0.06539099999999999,-0.798171,0.417753,0.43403800000000003,0.004599,0.00047300000000000006,-0.005801,0.004912,0.00016999999999999999,-0.004564
666,-2.068826,-0.43093400000000004,0.06549400000000001,-0.798199,0.41772,0.434018,0.00245,-0.000593,-0.0036780000000000003,0.004482,-0.002605,-0.000592
667,-2.068743,-0.430871,0.065584,-0.798258,0.417663,0.433964,0.0014119999999999998,0.0047409999999999996,-0.00476,0.002832,-0.000426,-0.001652
668,-2.06861,-0.43080100000000005,0.06564,-0.798341,0.417599,0.43387200000000004,-0.000726,0.005806,-0.00264,-0.00186,-0.000241,-0.001285
669,-2.06848,-0.43077,0.065691,-0.798409,0.417571,0.433774,0.0024649999999999997,0.004725,-0.0015480000000000001,-0.0013650000000000001,-0.000701,-0.003858
670,-2.068422,-0.430755,0.065734,-0.798439,0.41755699999999996,0.43373100000000003,0.000312,0.000471,-0.001558,-0.00031299999999999996,-0.0018620000000000002,-0.004028
671,-2.068409,-0.43071000000000004,0.065795,-0.798461,0.417516,0.433729,0.001374,-0.0027199999999999998,-0.0036829999999999996,0.001449,-0.002553,-0.004011
672,-2.068437,-0.43064600000000003,0.065862,-0.7984720000000001,0.417458,0.43376499999999996,0.0013460000000000002,-0.0016699999999999998,-0.0036270000000000004,0.001704,-0.003686,-0.00307
673,-2.068409,-0.430576,0.065926,-0.798509,0.41739499999999996,0.43375600000000003,0.001356,-0.0006,-0.004697,0.0012380000000000002,-0.00025,-0.001353
674,-2.0683830000000003,-0.43052700000000005,0.065971,-0.798539,0.41735,0.43374399999999996,0.00028399999999999996,0.00045999999999999996,-0.002569,0.0014199999999999998,-0.000953,-0.0027600000000000003
675,-2.0683439999999997,-0.430489,0.06602999999999999,-0.79857,0.41731499999999994,0.43372200000000005,0.001356,0.00046100000000000004,-0.0036299999999999995,0.004075,0.001066,-0.000586
676,-2.068323,-0.43044399999999994,0.066131,-0.798596,0.417274,0.43371400000000004,0.002418,-0.0016690000000000001,-0.004688,0.0035979999999999996,-0.000709,-0.0037359999999999997
677,-2.068314,-0.430421,0.066219,-0.798609,0.417254,0.43371099999999996,0.0034799999999999996,-0.002738,-0.004679,0.0019010000000000001,-9.4e-05,-0.000133
678,-2.068326,-0.430392,0.066304,-0.798614,0.41722700000000007,0.43372700000000003,0.002408,-0.002739,-0.003618,0.003311,0.000773,-0.0016129999999999999
679,-2.068342,-0.43036,0.066383,-0.798619,0.41719799999999996,0.433746,0.002418,-0.000608,-0.003621,0.003118,0.00022200000000000003,-0.0020440000000000002
680,-2.068303,-0.43034300000000003,0.066455,-0.798642,0.41718299999999997,0.43371800000000005,0.001306,0.001503,-0.0024760000000000003,0.0048189999999999995,0.001458,0.00044
681,-2.0681990000000003,-0.430284,0.066544,-0.798709,0.41712899999999997,0.433647,0.002397,0.003643,-0.005675,0.002856,-0.001403,-0.001289
682,-2.068084,-0.430224,0.066633,-0.7987810000000001,0.417075,0.433567,0.00133,0.0047079999999999995,-0.0046159999999999994,0.0038740000000000003,-0.002997,-0.000218
683,-2.067989,-0.43016499999999996,0.066717,-0.798845,0.41702100000000003,0.43350299999999997,0.0023870000000000002,0.002573,-0.004606,0.001405,-0.0017989999999999998,-0.002518
684,-2.067872,-0.43010600000000004,0.066853,-0.798917,0.41696700000000003,0.43342200000000003,0.005598,0.003632,-0.005653,0.004727,-0.006689,-0.000499
685,-2.0678349999999996,-0.43001300000000003,0.06693500000000001,-0.798967,0.416883,0.43341,-0.0018800000000000002,0.001527,-0.005703,0.001161,0.001361,-0.000198
686,-2.067652,-0.429933,0.067061,-0.799075,0.41681,0.43328,0.003478,0.006834999999999999,-0.005672,0.000919,-0.003206,-0.0036079999999999997
687,-2.067581,-0.429841,0.06721,-0.79914,0.41672600000000004,0.433241,0.0034490000000000002,-0.001679,-0.007798,0.003867,-0.00032900000000000003,-0.002501
688,-2.067533,-0.42974399999999996,0.06733,-0.799196,0.416638,0.43322299999999997,0.003392,0.000414,-0.005562,0.002535,0.003146,-0.00233
689,-2.0674580000000002,-0.42974300000000004,0.06742999999999999,-0.799229,0.416637,0.433163,0.0033829999999999997,0.003589,-0.000225,-0.0034130000000000002,0.005406,-8.8e-05
690,-2.0673169999999996,-0.42971000000000004,0.067501,-0.7993020000000001,0.41660699999999995,0.43305600000000005,0.00234,0.005736,-0.003439,-0.001052,0.0005679999999999999,-0.005765
691,-2.067192,-0.42968100000000004,0.067524,-0.799366,0.41658,0.432963,0.001254,0.004661,-0.000241,0.002613,-0.0022890000000000002,-0.006342
692,-2.06714,-0.429684,0.067549,-0.799388,0.416583,0.43291999999999997,0.001239,0.000405,-0.0013039999999999998,0.001323,-0.0016359999999999999,-0.00305
693,-2.067136,-0.429641,0.067569,-0.799405,0.416545,0.432925,-0.0008900000000000001,-0.0006450000000000001,-0.003454,0.005475,-0.004557,-0.004077
694,-2.067139,-0.42955699999999997,0.067639,-0.799434,0.416468,0.43294399999999994,0.001254,-0.0017050000000000001,-0.006642,0.0052450000000000005,-0.004069,-3.7e-05
695,-2.067087,-0.42945600000000006,0.067767,-0.7994939999999999,0.416376,0.43292299999999995,0.003322,0.0014320000000000001,-0.006497,0.002726,-0.0029850000000000002,0.00116
696,-2.067007,-0.42940900000000004,0.067886,-0.799545,0.41633400000000004,0.43286800000000003,0.003317,0.002489,-0.0043619999999999996,0.000321,-0.000242,-0.001609
697,-2.0668900000000003,-0.429375,0.067982,-0.799608,0.416303,0.432781,0.003322,0.004615,-0.003296,0.0014060000000000001,0.001422,-0.0024530000000000003
698,-2.0668279999999997,-0.42937200000000003,0.06807,-0.799636,0.416299,0.43273199999999995,0.002231,0.00035299999999999996,-0.00223,0.0008849999999999999,0.001059,-0.003594
699,-2.066798,-0.42934300000000003,0.068146,-0.79966,0.416274,0.432713,0.002231,-0.000708,-0.003297,0.005638000000000001,-0.001204,-0.003636
700,-2.066838,-0.4293,0.068187,-0.799658,0.416234,0.43275399999999997,0.00115,-0.002839,-0.002234,0.004752,-0.000692,-0.000686
701,-2.066872,-0.429292,0.068196,-0.799646,0.41622700000000007,0.432783,8.3e-05,-0.000713,-0.00010700000000000001,0.0009400000000000001,0.003054,-0.0010199999999999999
702,-2.066857,-0.429284,0.06816799999999999,-0.799656,0.41621899999999995,0.43277200000000005,-0.002041,0.002486,0.000942,0.002903,-0.00324,-0.001529
703,-2.066814,-0.429291,0.068152,-0.799672,0.41622700000000007,0.43273599999999995,8.8e-05,0.001413,0.000958,0.002919,-0.003247,-0.001493
704,-2.0668040000000003,-0.429287,0.068152,-0.799678,0.41622299999999995,0.43273,9e-06,-0.000771,-0.001042,0.00043799999999999997,-0.002191,-0.003058
705,-2.06681,-0.429252,0.068161,-0.7996880000000001,0.416191,0.432742,1.4000000000000001e-05,-0.000766,-0.0021100000000000003,0.000692,-0.003822,-0.00016999999999999999
706,-2.066801,-0.429221,0.068207,-0.799704,0.416162,0.432741,0.00109,0.0013599999999999999,-0.002105,0.0016539999999999999,-0.003,-0.001146
707,-2.066763,-0.429183,0.06823,-0.7997340000000001,0.416128,0.43271800000000005,2.8000000000000003e-05,0.001368,-0.003181,-5.5e-05,-0.001165,-0.0036710000000000002
708,-2.0667400000000002,-0.42916099999999996,0.068271,-0.799752,0.416108,0.432704,0.001085,0.000295,-0.002104,0.00022200000000000003,2.8999999999999997e-05,-0.003367
709,-2.066704,-0.429151,0.068316,-0.799771,0.416099,0.43267700000000003,0.00108,0.000291,-0.001036,0.001477,0.0007559999999999999,-0.0041340000000000005
710,-2.066682,-0.429119,0.068354,-0.799793,0.41607,0.432666,0.00109,0.000299,-0.003172,0.001178,0.001929,-0.00278
711,-2.0666849999999997,-0.429072,0.068382,-0.799809,0.41602700000000004,0.43267799999999995,-6.2e-05,-0.0018690000000000002,-0.00198,0.002843,0.0028120000000000003,-0.001342
712,-2.066709,-0.429063,0.06839400000000001,-0.799802,0.41601899999999997,0.43269799999999997,-6.7e-05,-0.001873,-0.0009119999999999999,0.003095,-0.00072,-0.000127
713,-2.066802,-0.42904899999999996,0.068382,-0.799767,0.41600699999999996,0.43277600000000005,-0.0011480000000000001,-0.004004,0.000151,0.0017929999999999999,0.001947,-0.002402
714,-2.066868,-0.429033,0.06836,-0.799744,0.41599200000000003,0.432832,-7.2e-05,-0.001877,0.000156,0.001603,0.00028399999999999996,0.000152
715,-2.0668830000000002,-0.42902399999999996,0.068387,-0.799742,0.415983,0.432846,-6.7e-05,-0.001873,-0.0009119999999999999,0.000425,-0.001295,-0.0026089999999999998
716,-2.066923,-0.429021,0.068369,-0.799726,0.41598,0.432879,-0.001134,-0.000808,0.000147,0.0018440000000000002,6.6e-05,-0.000628
717,-2.0669299999999997,-0.42902299999999993,0.068388,-0.799723,0.415983,0.432884,-6.2e-05,-0.000808,-0.0009130000000000001,0.0022530000000000002,-0.002912,-0.0008
718,-2.066944,-0.429005,0.06837,-0.799723,0.41596700000000003,0.432899,-0.001129,0.00025699999999999996,0.000146,0.0035810000000000004,-0.004222999999999999,-0.00286
719,-2.066944,-0.428996,0.068368,-0.7997270000000001,0.415958,0.43290100000000004,0.00101,0.001315,0.00016,0.000731,-0.001468,-0.001215
720,-2.066921,-0.428991,0.068375,-0.799739,0.41595299999999996,0.432884,-0.000125,0.001275,-0.00078,0.001918,0.00084,-0.0036229999999999995
721,-2.066929,-0.42899,0.068385,-0.799736,0.41595200000000004,0.43289099999999997,0.000923,-0.001929,0.0003,0.0008619999999999999,-0.000684,-0.0034630000000000004
722,-2.066944,-0.429001,0.068379,-0.799726,0.415963,0.4329,0.0009279999999999999,-0.0008640000000000001,0.000299,0.00456,-0.0007559999999999999,-0.0008619999999999999
723,-2.066957,-0.429017,0.068373,-0.799714,0.41597700000000004,0.432908,-0.001206,0.000205,0.001351,0.003266,0.000557,-0.002427
724,-2.066968,-0.429,0.068396,-0.799716,0.415962,0.43291899999999994,-0.000139,-0.0019210000000000002,-0.000776,0.0034659999999999995,-0.000312,-0.001141
725,-2.066979,-0.428982,0.068392,-0.799717,0.415945,0.432932,-0.000139,-0.00086,0.000291,0.000676,-0.00054,-0.002787
726,-2.066998,-0.42899,0.068391,-0.799707,0.41595299999999996,0.43294499999999997,-0.000144,0.000197,0.002426,0.0018399999999999998,-0.0014320000000000001,-0.001091
727,-2.0670290000000002,-0.42899899999999996,0.068369,-0.79969,0.41596099999999997,0.432968,-0.000149,-0.00193,0.001361,0.001838,-0.000128,-0.0015869999999999999
728,-2.0670580000000003,-0.42900900000000003,0.068366,-0.799674,0.41597,0.43299,-0.00021,-0.000909,0.00041600000000000003,0.003836,-0.000153,-0.002479
729,-2.067052,-0.428986,0.068362,-0.7996850000000001,0.41594899999999996,0.43299,-0.001263,0.000168,-0.0017289999999999999,0.004611,-0.001291,-0.0020210000000000002
730,-2.067022,-0.428958,0.068361,-0.799709,0.41592399999999996,0.432972,-0.00019099999999999998,0.002291,-0.000656,0.001125,-0.000808,-0.00041600000000000003
731,-2.06701,-0.428961,0.068347,-0.799713,0.415926,0.432962,-0.000205,-0.0009050000000000001,-0.0006519999999999999,0.001038,0.00044,-0.002359
732,-2.067012,-0.428942,0.068348,-0.79972,0.41590900000000003,0.432967,0.0008710000000000001,0.000161,-0.001714,0.002616,-0.001709,-0.003432
733,-2.067022,-0.428918,0.068352,-0.799724,0.415887,0.43298000000000003,-0.000205,-0.0009050000000000001,-0.0006519999999999999,0.0037649999999999997,-0.0021449999999999998,-0.001645
734,-2.067046,-0.428914,0.068375,-0.799716,0.41588400000000003,0.433,0.000857,-0.0009130000000000001,0.00042300000000000004,0.0049310000000000005,0.0031079999999999997,-0.000688
735,-2.067063,-0.4289,0.068374,-0.799714,0.41586999999999996,0.433017,-0.00021,-0.00197,-0.000651,0.00055,-0.00283,-0.001163
736,-2.067135,-0.42891,0.068356,-0.799679,0.415879,0.43307299999999993,-0.000283,-0.003084,0.0015949999999999998,0.002163,-0.000398,-8.9e-05
737,-2.0671779999999997,-0.42894399999999994,0.06837599999999999,-0.7996479999999999,0.41591000000000006,0.4331,0.00186,-0.002022,0.000541,0.004177,0.000502,-0.003
738,-2.06714,-0.428993,0.068348,-0.799646,0.41595600000000005,0.43306000000000006,-0.00345,0.004384000000000001,0.001564,-0.004797,0.004439,0.002304
739,-2.067041,-0.42898500000000006,0.068334,-0.799692,0.41594799999999993,0.432982,0.0008269999999999999,0.005439,0.000524,0.003046,0.000983,-0.001525
740,-2.066933,-0.42897799999999997,0.068332,-0.799741,0.41594200000000003,0.43289700000000003,-0.002369,0.006515000000000001,0.0005,0.001675,0.0008060000000000001,-0.00324
741,-2.066847,-0.42895200000000006,0.068302,-0.799787,0.415918,0.43283299999999997,-0.001297,0.005455,-0.001627,0.003324,-0.001871,-0.004183
742,-2.066779,-0.42888000000000004,0.06830599999999999,-0.7998430000000001,0.415853,0.43279300000000004,-0.002374,0.001206,-0.003766,0.005135,-0.001333,-0.005364
743,-2.066739,-0.428805,0.068328,-0.799888,0.415784,0.432777,0.000785,0.001169,-0.0036560000000000004,0.0029519999999999998,-0.004224,5.4000000000000005e-05
744,-2.066758,-0.428733,0.068364,-0.799906,0.41571800000000003,0.432806,0.000771,-0.002027,-0.0036520000000000003,0.002131,-0.000771,-0.001684
745,-2.066727,-0.428696,0.06842000000000001,-0.799933,0.415685,0.432788,0.001847,0.001161,-0.0025800000000000003,0.0006320000000000001,-0.0014550000000000001,-1.8e-05
746,-2.066671,-0.428688,0.068506,-0.7999609999999999,0.415678,0.432745,0.003981,0.001153,-0.002565,0.005222,0.001467,-0.000891
747,-2.066612,-0.428691,0.068602,-0.7999850000000001,0.415681,0.43269799999999997,0.002909,0.001153,-0.001504,0.002759,-0.0007030000000000001,-0.0029649999999999998
748,-2.066625,-0.42869700000000005,0.068645,-0.799978,0.41568599999999994,0.43270699999999995,0.001823,-0.0020440000000000002,-0.00044,0.004490999999999999,0.001474,-0.00073
749,-2.066669,-0.428733,0.068676,-0.799945,0.41571899999999995,0.432734,0.0018039999999999998,-0.0031219999999999998,0.0027660000000000002,0.001666,-0.000665,-0.000849
750,-2.066711,-0.42877299999999996,0.068634,-0.799913,0.41575500000000004,0.43276099999999995,-0.001382,-0.000976,0.001673,-0.0005480000000000001,-0.002578,-0.0023870000000000002
751,-2.066751,-0.428792,0.06854299999999999,-0.7998890000000001,0.41577200000000003,0.43278900000000003,-0.002454,-0.000976,0.002734,0.001457,-0.002275,-0.004688
752,-2.0667619999999998,-0.428817,0.068481,-0.799875,0.41579499999999997,0.43279300000000004,-0.0024690000000000003,8.8e-05,0.001726,0.0013369999999999999,-0.004067,-0.000633
753,-2.066786,-0.428834,0.06844299999999999,-0.799858,0.415811,0.432809,-0.001407,-0.000981,0.0017350000000000002,-0.0017469999999999999,-0.00271,-0.00216
754,-2.066784,-0.42885,0.06841900000000001,-0.799854,0.415825,0.432804,-0.000321,0.001155,-0.000397,-0.0017519999999999999,-0.002724,-0.0021550000000000002
755,-2.066727,-0.42887200000000003,0.068439,-0.79987,0.41584499999999996,0.43275399999999997,0.0018219999999999998,0.003278,-0.000384,0.002979,-0.0012029999999999999,-0.002136
756,-2.0666900000000004,-0.428884,0.068483,-0.7998810000000001,0.41585600000000006,0.43272200000000005,0.000736,-0.00098,-0.00038700000000000003,0.004944,-0.000909,-0.0033090000000000003
757,-2.0667299999999997,-0.428879,0.068484,-0.799866,0.415851,0.432755,0.000736,-0.00098,-0.00038700000000000003,-0.000579,0.000576,-0.002869
758,-2.066728,-0.428896,0.068518,-0.79986,0.415867,0.432749,0.0018030000000000001,-0.000983,-0.000379,0.000559,0.000499,-0.000987
759,-2.066736,-0.42893100000000006,0.06854299999999999,-0.799844,0.41589899999999996,0.432749,0.001775,-0.002054,0.001794,0.00361,0.002131,-0.002421
760,-2.0667619999999998,-0.42895900000000003,0.068552,-0.799823,0.41592399999999996,0.43276400000000004,0.000722,-0.000976,-0.00035099999999999997,0.0026579999999999998,0.00116,-0.004221
761,-2.066763,-0.428951,0.068577,-0.799825,0.415917,0.432767,0.000727,-0.0009720000000000001,-0.001419,0.0040490000000000005,-0.00023799999999999998,-0.0025
762,-2.066776,-0.428938,0.06856,-0.799824,0.415905,0.43278,-0.001407,9.7e-05,-0.000367,0.001545,-0.001583,-0.000499
