,attitude.roll,attitude.pitch,attitude.yaw,gravity.x,gravity.y,gravity.z,rotationRate.x,rotationRate.y,rotationRate.z,userAcceleration.x,userAcceleration.y,userAcceleration.z
0,-2.552464,-1.477107,2.213149,-0.051904,0.9956139999999999,0.077667,-2.741125,-0.808084,-1.348144,1.031244,0.8870610000000001,0.046403
1,-2.645323,-1.4248889999999999,2.133941,-0.06918200000000001,0.989374,0.127768,-2.169474,-0.27974699999999997,-0.7690560000000001,0.629455,0.5570430000000001,-0.215613
2,-2.646481,-1.395882,2.120303,-0.082646,0.984742,0.153056,-0.869423,1.007061,-0.553321,0.39684,0.528579,-0.453716
3,-2.590544,-1.3808340000000001,2.156994,-0.098826,0.9820110000000001,0.16080999999999998,-0.335944,0.787734,-0.778982,0.154673,0.29391300000000004,-0.49830399999999997
4,-2.5047759999999997,-1.366072,2.240925,-0.120848,0.979117,0.163395,-0.034858,-0.151882,-1.29483,-0.051408,-0.279929,-0.398625
5,-2.3908490000000002,-1.350542,2.365548,-0.148998,0.975842,0.1597,0.432447,-0.435725,-1.5796219999999999,-0.100513,-0.656064,-0.381685
6,-2.264337,-1.3389719999999998,2.503964,-0.17663199999999998,0.973249,0.146835,0.889249,-0.42749899999999996,-1.369207,-0.04665,-0.7629670000000001,-0.27562
7,-2.1511720000000003,-1.335796,2.629852,-0.194669,0.972514,0.127646,1.1519700000000002,-0.441647,-0.725349,0.059202,-0.898998,-0.11443099999999999
8,-2.061577,-1.34174,2.727316,-0.200207,0.973881,0.10698900000000001,1.043793,-0.143396,-0.09303099999999999,0.307309,-1.235325,-0.060587
9,-2.0022029999999997,-1.354978,2.787802,-0.194471,0.9768020000000001,0.08952,0.828829,0.129674,0.535369,0.35012600000000005,-1.310633,0.13837
10,-1.937122,-1.379874,2.851532,-0.177111,0.98183,0.06794700000000001,1.3125040000000001,0.051202,1.091118,0.16968,-0.9195129999999999,-0.001114
11,-1.794725,-1.416528,2.993929,-0.14974400000000002,0.988124,0.034104,1.9596939999999998,0.23012800000000003,1.604951,0.21528000000000003,-0.572307,-0.567109
12,-1.292377,-1.456805,-2.790877,-0.109267,0.99351,-0.031232999999999997,4.440840000000001,0.638205,2.364174,0.792281,1.031865,-0.48758100000000004
13,-0.252733,-1.4378360000000001,-1.752271,-0.033129,0.991174,-0.128281,4.157076,0.425983,4.529886,-0.13456500000000002,2.2173529999999997,0.111863
14,0.269794,-1.3674709999999999,-1.2314209999999999,0.053808,0.9794010000000001,-0.194578,3.413007,0.6897989999999999,3.9368279999999998,-0.686681,1.825668,0.13613599999999998
15,0.383657,-1.291212,-1.150003,0.103282,0.9611700000000001,-0.255866,3.078665,2.14126,1.427653,-0.848857,0.77113,-0.040063
16,0.44354499999999997,-1.2305059999999999,-1.138215,0.14322100000000001,0.942658,-0.301442,2.407934,2.622189,1.353985,-0.829775,0.526794,0.12126700000000001
17,0.497749,-1.183133,-1.1175760000000001,0.180478,0.925795,-0.332138,1.679655,1.178634,1.478934,0.47507,0.554399,-0.233002
18,0.542724,-1.1448690000000001,-1.08293,0.213378,0.9106559999999999,-0.35378000000000004,1.035374,0.482104,1.464644,0.491212,0.725696,-0.46273400000000003
19,0.567058,-1.12652,-1.057484,0.23086199999999998,0.9029219999999999,-0.362519,0.159998,-0.3653,0.487534,0.853107,0.7544270000000001,-0.545714
20,0.551517,-1.124633,-1.053559,0.22609200000000002,0.902109,-0.367514,0.074973,-1.448732,0.040743,0.784436,0.033743,-0.371729
21,0.5111479999999999,-1.1216620000000002,-1.053959,0.212387,0.9008229999999999,-0.378676,0.151896,-2.083056,0.09550499999999999,0.540512,-0.061803,-0.325579
22,0.47416099999999994,-1.1174540000000002,-1.049717,0.199968,0.8989879999999999,-0.38964,0.157918,-2.001718,0.262085,0.610442,-0.358323,0.035331
23,0.449596,-1.1114110000000001,-1.04043,0.192694,0.896325,-0.39932,0.170506,-1.318994,0.280526,-0.14566700000000002,-1.0025110000000002,0.437589
24,0.44291,-1.1107200000000002,-1.0321049999999998,0.19028599999999998,0.896019,-0.401158,-0.23457600000000003,-0.433909,0.138762,-0.258386,-1.112373,0.553212
25,0.457032,-1.1234680000000001,-1.0115239999999999,0.190875,0.9016059999999999,-0.38814899999999997,-1.217809,-0.093873,0.13893599999999998,-0.395083,-1.279612,0.690852
26,0.5054069999999999,-1.159505,-0.958993,0.193556,0.9166049999999999,-0.34979299999999997,-2.548409,0.074924,0.105924,-0.593901,-1.3865299999999998,0.523912
27,0.57845,-1.209242,-0.88241,0.19338,0.935348,-0.296161,-2.9373709999999997,0.154023,-0.156472,-0.635733,-1.322586,0.47394200000000003
28,0.653205,-1.254779,-0.809463,0.188857,0.9504809999999999,-0.246783,-2.218287,0.371998,-0.41130600000000006,-0.549163,-1.058482,0.20067100000000002
29,0.702793,-1.283955,-0.769487,0.182847,0.959142,-0.21585700000000002,-1.097289,0.717749,-0.468013,-0.573716,-0.9424030000000001,0.050483
30,0.728704,-1.299221,-0.760714,0.17860499999999999,0.96335,-0.200098,-0.44740699999999994,0.9140309999999999,-0.30028699999999997,-0.854844,-0.749223,-0.035986000000000004
31,0.779374,-1.3049629999999999,-0.7232689999999999,0.184619,0.964874,-0.186856,-0.712385,0.712387,0.5377430000000001,-1.258746,2.5859229999999997,0.7101109999999999
32,0.8972389999999999,-1.3129549999999999,-0.620795,0.199275,0.966943,-0.15903399999999998,-1.078215,1.4443540000000001,0.29176399999999997,-1.0013530000000002,4.916205000000001,0.815696
33,0.876825,-1.317067,-0.663355,0.192928,0.967983,-0.160523,1.061748,0.8308969999999999,-0.266138,0.3969,1.413044,0.2836
34,0.8132689999999999,-1.2911780000000002,-0.7396149999999999,0.200491,0.961161,-0.189615,1.5753540000000001,0.202991,0.20186300000000001,0.42540900000000004,-1.129541,0.667567
35,0.810584,-1.2895,-0.7379720000000001,0.20115,0.9606959999999999,-0.19126400000000002,-0.876916,-0.5506840000000001,-0.204202,0.746452,-1.096973,0.520076
36,0.860598,-1.320028,-0.678569,0.188124,0.968722,-0.16176300000000002,-1.816744,0.009151000000000001,-0.862031,0.234438,-0.6623560000000001,0.382878
37,0.921326,-1.3563969999999999,-0.625871,0.169405,0.9771040000000001,-0.128641,-1.462787,0.6831229999999999,-1.081544,-0.32004,-0.013207,-0.137427
38,1.0128700000000002,-1.399858,-0.5528609999999999,0.144257,0.985426,-0.090026,-2.257766,1.167964,-1.758562,-0.006501000000000001,0.997042,0.191863
39,1.235355,-1.471307,-0.353477,0.093681,0.9950549999999999,-0.032659,-2.7870340000000002,1.021696,-3.081325,0.255318,1.1323860000000001,0.012348999999999999
40,2.117226,-1.528553,0.5192220000000001,0.035835000000000006,0.999108,0.021795,-2.735042,0.21968800000000002,-2.630213,0.8712540000000001,1.061821,-0.342993
41,-3.0308900000000003,-1.492586,1.6629580000000002,-0.008614,0.996943,0.07749,-2.66836,-0.706621,-2.0100599999999997,1.0104899999999999,0.719106,-0.340307
42,-2.8639810000000003,-1.448268,1.8390119999999999,-0.033466,0.992503,0.11743800000000001,-1.485552,0.10177699999999999,-0.86945,0.591663,0.419652,-0.36016
43,-2.7966509999999998,-1.430057,1.889013,-0.0474,0.9901129999999999,0.131921,-0.482321,1.25796,-0.49752399999999997,0.308341,0.5378569999999999,-0.296624
44,-2.7153400000000003,-1.420856,1.951459,-0.061725,0.9887799999999999,0.13593,-0.089212,0.6280789999999999,-0.762095,-0.10259700000000001,0.18040899999999999,-0.375569
45,-2.565534,-1.413792,2.106026,-0.085125,0.9877,0.131053,0.466236,-0.528362,-1.354937,-0.099659,-0.33317399999999997,-0.31132
46,-2.392959,-1.4092870000000002,2.293984,-0.109395,0.986986,0.11775,0.904632,-0.659302,-1.224589,-0.146022,-0.668184,-0.385511
47,-2.218298,-1.411203,2.483798,-0.126685,0.9872920000000001,0.095808,1.348745,-0.589283,-0.73874,-0.0142,-0.883242,-0.087065
48,-2.046414,-1.42069,2.664921,-0.132868,0.9887549999999999,0.06843400000000001,1.414042,-0.156318,-0.11286099999999999,0.200801,-1.146729,-0.139922
49,-1.888516,-1.4365860000000001,2.82007,-0.127022,0.991007,0.041772000000000004,1.277052,0.415656,0.557361,0.24088299999999999,-1.231364,-0.096109
50,-1.680204,-1.460343,3.019308,-0.10945899999999999,0.993906,0.012024,1.655081,0.519914,1.063,0.116844,-0.982065,0.33224499999999996
51,-1.212286,-1.480699,-2.798216,-0.084133,0.995944,-0.031525,2.345903,0.02507,1.401745,0.022838999999999998,-0.769,-0.27981500000000004
52,-0.493953,-1.469905,-2.077914,-0.047701,0.994915,-0.088585,3.551964,0.095904,2.0884,0.457812,0.292317,-0.86895
53,0.061212,-1.373875,-1.5143790000000001,0.011966,0.9806739999999999,-0.195236,5.460807,-0.392123,4.192869,1.021344,2.166512,0.43551599999999996
54,0.39176300000000003,-1.276073,-1.175094,0.11089700000000001,0.956883,-0.26844,3.358276,0.111159,5.097276,-0.29635300000000003,1.985348,0.253868
55,0.502586,-1.181411,-1.061848,0.18285,0.925142,-0.332658,3.048709,0.583765,2.266925,-0.981358,1.4132209999999998,-0.251921
56,0.5168470000000001,-1.124001,-1.063187,0.21349899999999997,0.9018360000000001,-0.375626,2.457491,0.832343,1.356625,-0.20837199999999997,0.401753,-0.10371400000000001
57,0.523502,-1.074718,-1.067857,0.237943,0.8794559999999999,-0.41222200000000003,1.939107,0.052512,1.01965,0.13228099999999998,0.353958,-0.23471999999999998
58,0.5172899999999999,-1.044268,-1.063713,0.248511,0.864557,-0.436774,0.7480399999999999,-0.635387,0.654355,0.313898,0.42526899999999995,-0.458933
59,0.527116,-1.0413270000000001,-1.0474780000000001,0.25406799999999996,0.863075,-0.43650600000000006,-0.384868,0.031352,0.335803,0.622641,0.64788,-0.5963609999999999
60,0.5298930000000001,-1.050701,-1.0388629999999999,0.251179,0.867772,-0.428799,-0.54573,-0.46336400000000005,-0.215889,0.9358790000000001,0.29241500000000004,-0.189136
61,0.518744,-1.059236,-1.02518,0.242702,0.8719819999999999,-0.425125,-0.45829,-1.597159,0.325626,0.953465,-0.081912,-0.302643
62,0.504674,-1.057993,-0.9981399999999999,0.23722,0.871373,-0.429446,-0.14724500000000001,-1.788375,0.72115,0.216302,-0.7399789999999999,0.30086
63,0.5079319999999999,-1.050669,-0.973139,0.241716,0.867756,-0.43423599999999996,0.025436,-0.488976,0.6309600000000001,-0.11499200000000001,-0.9744149999999999,0.32348699999999997
64,0.524266,-1.052507,-0.9488530000000001,0.247977,0.868668,-0.42884799999999995,-0.736911,-0.08718200000000001,0.44672700000000004,-0.463325,-1.348542,0.552933
65,0.56434,-1.076584,-0.9011530000000001,0.253696,0.880343,-0.400776,-2.163745,-0.069964,0.308552,-0.7998689999999999,-1.2672450000000002,0.6413770000000001
66,0.620283,-1.1173110000000002,-0.8307620000000001,0.254643,0.898926,-0.356476,-2.691662,-0.463604,0.105611,-0.730168,-1.230316,0.553162
67,0.676028,-1.1587610000000002,-0.760526,0.250565,0.916308,-0.312381,-2.3854580000000003,-0.278143,-0.18517999999999998,-0.552994,-1.103991,0.471088
68,0.724216,-1.192561,-0.708587,0.244652,0.929318,-0.276582,-1.621564,0.22709899999999997,-0.389863,-0.584771,-1.04443,0.214311
69,0.754365,-1.2171290000000001,-0.688692,0.23716700000000002,0.938109,-0.252363,-0.9277569999999999,0.7636470000000001,-0.636737,-0.666046,-0.9553510000000001,0.20586999999999997
70,0.779069,-1.236415,-0.6824520000000001,0.23056999999999997,0.944614,-0.23350700000000002,-0.6908850000000001,0.9389719999999999,-0.464391,-1.084497,-0.6789430000000001,-0.131133
71,0.839674,-1.2488290000000002,-0.635363,0.23554,0.948615,-0.21126599999999998,-1.134226,0.753691,0.432192,-2.217016,4.1212860000000004,2.1064529999999997
72,0.9301370000000001,-1.2685870000000001,-0.580376,0.238585,0.954681,-0.17788199999999998,-0.209048,2.1774459999999998,-1.037316,-1.104003,6.726761,0.21470100000000003
73,0.89112,-1.2675969999999999,-0.647518,0.232202,0.9543860000000001,-0.187648,1.456595,1.2371510000000001,0.361007,0.492408,-0.6983590000000001,0.728237
74,0.880317,-1.247666,-0.6755399999999999,0.244781,0.9482459999999999,-0.202224,0.142401,0.60563,0.387888,0.819932,-1.115604,0.657516
75,0.9668040000000001,-1.268457,-0.587349,0.245049,0.954643,-0.169087,-2.330709,0.07506499999999999,-0.382872,0.908684,-1.1896579999999999,0.43898400000000004
76,1.075395,-1.30798,-0.491804,0.228535,0.9656620000000001,-0.12348800000000001,-1.928288,1.104273,-1.3011190000000001,-0.169514,-0.393412,-0.085115
77,1.156523,-1.353014,-0.430838,0.197746,0.9763790000000001,-0.086953,-1.707973,1.083609,-1.9180540000000001,-0.046791,0.556916,-0.019888999999999997
78,1.3626459999999998,-1.4131799999999999,-0.24241100000000002,0.15351099999999998,0.987604,-0.032423,-3.1051509999999998,0.984663,-2.601734,0.293633,1.082342,0.018171
79,1.8900270000000001,-1.474129,0.282033,0.091528,0.995331,0.030253,-3.05251,0.038607,-3.156698,0.455561,1.255783,-0.140986
80,2.769894,-1.467416,1.179482,0.037438,0.994661,0.09604,-3.3237019999999995,-0.872441,-2.5966080000000002,0.955024,0.957411,-0.31056300000000003
81,-3.140666,-1.425037,1.563708,-0.000135,0.9893959999999999,0.14515699999999998,-1.86473,-0.07045,-1.425219,0.986798,0.765044,-0.541626
82,-3.006625,-1.409218,1.681586,-0.021637,0.986975,0.159335,-0.16550499999999999,1.307639,-0.67377,0.300781,0.03422,-0.48587299999999994
83,-2.907111,-1.410616,1.758219,-0.037038999999999996,0.9871989999999999,0.155055,0.32772199999999996,0.938265,-0.6378050000000001,-0.14011600000000002,0.149505,-0.361674
84,-2.760855,-1.416543,1.900739,-0.057064,0.9881270000000001,0.142565,0.7872859999999999,-0.0904,-1.133205,-0.1133,-0.065107,-0.350482
85,-2.585753,-1.422782,2.0841119999999997,-0.07777200000000001,0.989066,0.125203,0.9582959999999999,-0.366363,-1.001333,-0.180055,-0.646964,-0.23222800000000002
86,-2.41233,-1.433131,2.267488,-0.091382,0.990539,0.102264,1.359451,-0.399363,-0.556245,0.109509,-1.090286,-0.11370799999999999
87,-2.234188,-1.451458,2.449912,-0.093727,0.9928879999999999,0.073253,1.464963,0.058634000000000006,0.168159,0.211312,-1.333418,-0.10868399999999999
88,-2.112272,-1.478991,2.565728,-0.078456,0.9957889999999999,0.047186,1.205462,0.48605600000000004,1.129335,0.21902,-1.1312870000000002,-0.045126
89,-1.8399560000000001,-1.519566,2.826894,-0.049158,0.9986879999999999,0.01356,2.097244,0.510641,1.666439,0.000925,-0.8312229999999999,0.069783
90,-0.287405,-1.5307819999999999,-1.903397,-0.011266,0.9992,-0.038114,2.73386,-0.111042,2.070129,-0.102503,-0.693062,-0.342013
91,0.30025,-1.4418959999999998,-1.310602,0.037995999999999995,0.9917040000000001,-0.122721,5.868217,-0.403863,2.78247,1.495833,1.5683850000000001,0.024668
92,0.500849,-1.303974,-1.089358,0.12659,0.964614,-0.231254,4.065014,-0.31590999999999997,5.523638,-0.253116,2.0153209999999997,0.315071
93,0.638311,-1.19228,-0.935939,0.220176,0.929214,-0.296764,3.6724940000000004,-0.802741,4.533414,-0.170966,1.64737,0.11443699999999998
94,0.633523,-1.117705,-0.9363379999999999,0.259131,0.899098,-0.352788,2.6083790000000002,-0.035233999999999994,1.337424,-1.090766,1.258708,0.336675
95,0.624599,-1.066674,-0.96278,0.28246,0.875599,-0.391829,2.336652,0.77076,0.8794299999999999,-0.13861500000000002,0.203274,0.149016
96,0.615321,-1.025643,-0.97982,0.29930999999999996,0.8550479999999999,-0.423432,1.592515,-0.022542,0.909432,0.233283,0.11329000000000002,-0.093704
97,0.604517,-0.9982700000000001,-0.974931,0.30791,0.840535,-0.44573599999999997,0.6594720000000001,-0.9712139999999999,0.797308,0.358808,0.525081,-0.570697
98,0.606024,-0.9897790000000001,-0.9590200000000001,0.312635,0.8359040000000001,-0.451122,-0.088529,-0.487457,0.350288,0.664324,0.21104699999999998,-0.101674
99,0.6108020000000001,-0.9968379999999999,-0.9487120000000001,0.311395,0.839758,-0.44477799999999995,-0.741366,-0.154395,-0.05635,0.8731450000000001,-0.018164,-0.22334299999999999
100,0.612073,-1.008348,-0.922309,0.306386,0.845952,-0.43644099999999997,-0.839889,-1.576316,0.5056,0.72639,-0.367299,-0.181311
101,0.611105,-1.010356,-0.8947200000000001,0.30498800000000004,0.8470209999999999,-0.435345,-0.323787,-0.7268020000000001,0.468592,0.051976999999999995,-0.7821100000000001,0.025906000000000002
102,0.6101260000000001,-1.012625,-0.8833770000000001,0.30345900000000003,0.848225,-0.434068,-0.299087,-0.681338,0.000825,-0.409294,-1.334095,0.593949
103,0.6087600000000001,-1.028377,-0.866655,0.295188,0.8564620000000001,-0.423467,-1.492206,-0.626677,-0.11333299999999999,-0.759269,-1.520464,1.000692
104,0.6381319999999999,-1.0690979999999999,-0.8208209999999999,0.28647100000000003,0.876767,-0.386265,-2.6321,-0.48116899999999996,-0.34794400000000003,-0.737796,-1.139432,0.781208
105,0.681876,-1.1172030000000002,-0.7616569999999999,0.276165,0.8988780000000001,-0.34020100000000003,-2.650843,-0.411728,-0.381279,-0.631832,-1.098753,0.648246
106,0.72444,-1.1539190000000001,-0.706205,0.268326,0.914358,-0.303209,-1.806185,-0.348102,-0.24193299999999998,-0.653275,-1.100927,0.363802
107,0.7577020000000001,-1.175812,-0.671773,0.264437,0.923002,-0.279506,-0.952565,0.382919,-0.243317,-1.244875,-0.705488,-0.092244
108,0.786096,-1.183281,-0.6550199999999999,0.26738,0.925851,-0.267007,-0.334187,0.701883,0.173996,-0.8929290000000001,-0.693627,-1.2423620000000002
109,0.842824,-1.179075,-0.6258819999999999,0.284993,0.9242530000000001,-0.254006,-0.725433,2.2053529999999997,0.42250200000000004,-2.2008400000000004,4.640078,1.7766810000000002
110,0.873334,-1.192495,-0.665276,0.283074,0.9292940000000001,-0.23720500000000003,0.6698649999999999,2.744711,-1.1333879999999998,0.9252239999999999,-0.645312,0.398231
111,0.845985,-1.159023,-0.7394729999999999,0.299611,0.9164129999999999,-0.26534,2.597283,1.555796,0.407019,0.361431,-1.057999,0.8108569999999999
112,0.8401860000000001,-1.151874,-0.777591,0.302939,0.9135280000000001,-0.271439,-0.9575389999999999,1.400221,-0.494622,1.012659,-1.7256310000000001,0.88823
113,0.924618,-1.202709,-0.705485,0.287267,0.933017,-0.21665399999999999,-2.996028,0.838793,-1.383016,0.384791,-0.669712,0.21461
114,1.022823,-1.2646389999999998,-0.620373,0.257241,0.953499,-0.156999,-2.77976,0.9000370000000001,-1.966969,0.006706,-0.598518,-0.035657999999999995
115,1.1113870000000001,-1.327645,-0.547691,0.21576199999999998,0.970584,-0.10674000000000002,-2.122703,0.8921020000000001,-2.416363,0.227002,0.790601,-0.512141
116,1.286817,-1.3987209999999999,-0.379158,0.16430999999999998,0.985232,-0.047957,-3.2956809999999996,-0.071767,-3.048231,0.5769,1.021208,-0.045305
117,1.714748,-1.467228,0.074678,0.102207,0.994642,0.014815,-3.3928279999999997,-1.3428639999999998,-2.642425,0.682492,0.8225120000000001,-0.126632
118,2.466657,-1.473072,0.8508959999999999,0.060889,0.9952290000000001,0.076081,-2.753828,-0.933364,-1.9740520000000001,0.854607,0.655589,-0.399034
119,2.8484529999999997,-1.45241,1.237871,0.034099000000000004,0.993,0.112971,-1.26999,0.461607,-0.9955299999999999,0.151616,0.30094499999999996,-0.427363
120,2.974855,-1.446983,1.349138,0.02048,0.992345,0.12168699999999999,-0.111948,0.8464389999999999,-0.468778,-0.03464,0.17516600000000002,-0.34091
121,3.1072439999999997,-1.449336,1.4737069999999999,0.004157,0.992633,0.12098800000000001,0.149373,0.06680499999999999,-0.997928,-0.203025,0.047879000000000005,-0.288163
122,-2.967496,-1.457681,1.6935669999999998,-0.019533000000000002,0.993609,0.11106099999999999,0.730876,-0.729645,-1.329336,-0.17079,-0.505984,-0.293739
123,-2.70913,-1.470621,1.970502,-0.041863,0.9949870000000001,0.09068999999999999,1.228428,-0.8560129999999999,-1.061848,-0.189002,-0.642051,-0.152855
124,-2.4020599999999996,-1.486795,2.291255,-0.05645,0.996474,0.06188099999999999,1.611417,-0.405377,-0.601483,0.16108,-1.31761,-0.126685
125,-2.0224900000000003,-1.504893,2.66994,-0.059096,0.9978290000000001,0.028669999999999998,1.616631,0.367969,0.203002,0.23062,-1.417492,-0.078856
126,-1.509248,-1.526117,-3.110471,-0.044331999999999996,0.9990020000000001,-0.002732,1.5895190000000001,0.608737,1.0207620000000002,0.159597,-1.117715,0.127244
127,-0.364703,-1.5212290000000002,-1.972331,-0.017595,0.9987719999999999,-0.046087,2.47282,0.109481,1.496521,0.168627,-0.586296,-0.526926
128,0.192255,-1.469333,-1.410534,0.019334,0.994857,-0.099325,2.921836,-0.23553600000000002,2.138896,0.554671,0.12439000000000001,-0.8846379999999999
129,0.35246500000000003,-1.358529,-1.230404,0.072713,0.977556,-0.197684,6.051836,-1.583248,3.719954,1.436595,1.492476,-0.110207
130,0.5246569999999999,-1.234705,-1.034508,0.165189,0.944051,-0.285419,3.494768,-0.201193,5.037736,-0.571607,1.6658279999999999,0.17377
131,0.590209,-1.128434,-0.957456,0.238229,0.9037430000000001,-0.355641,3.80177,-0.114349,3.036853,-0.661569,1.626652,0.027377999999999996
132,0.581791,-1.0567389999999999,-0.97951,0.2702,0.870757,-0.41080600000000006,2.9877029999999998,0.9948299999999999,1.2906799999999998,-0.806531,1.09366,0.11791300000000002
133,0.603811,-1.007488,-0.990553,0.303182,0.845493,-0.43955600000000006,1.747644,1.240529,1.128947,0.00854,0.126919,-0.19603399999999999
134,0.6148680000000001,-0.973498,-0.9780049999999999,0.32442,0.826858,-0.459396,0.916175,-0.781382,1.321215,0.40873400000000004,0.347916,-0.447755
135,0.6080909999999999,-0.9554809999999999,-0.9567190000000001,0.329759,0.816591,-0.473736,0.07022300000000001,-0.989613,0.8487600000000001,0.247054,0.466413,-0.403004
136,0.607901,-0.956518,-0.941673,0.329185,0.81719,-0.473103,-0.5165489999999999,-0.459833,-0.057597,1.057,0.106669,-0.079235
137,0.6165,-0.968827,-0.9308780000000001,0.3274,0.8242219999999999,-0.462013,-0.78401,-0.21988600000000003,0.10900699999999999,1.119073,-0.29547399999999996,-0.066704
138,0.6184850000000001,-0.9721040000000001,-0.905222,0.326748,0.826073,-0.45915900000000004,-0.28675500000000004,-1.103638,0.635973,0.8313940000000001,-0.47863,0.155799
139,0.6205149999999999,-0.9659120000000001,-0.887445,0.33064699999999997,0.8225680000000001,-0.46264700000000003,-0.08140700000000001,-0.45807700000000007,0.45711899999999994,-0.30136599999999997,-1.0395020000000001,0.32988
140,0.62524,-0.9723879999999999,-0.867489,0.329705,0.826233,-0.456751,-0.988072,-0.644678,0.222425,-0.70202,-1.318878,0.738016
141,0.6532319999999999,-1.001074,-0.822255,0.327815,0.842051,-0.428339,-2.378612,-0.37303600000000003,0.096996,-0.789821,-1.290827,0.800165
142,0.707241,-1.0440180000000001,-0.751988,0.326648,0.864431,-0.382159,-2.9585529999999998,-0.30272,0.065082,-0.7299680000000001,-1.017691,0.6117739999999999
143,0.765075,-1.083283,-0.676934,0.32442,0.8835,-0.337882,-2.3839080000000004,-0.457863,0.003064,-0.676761,-1.0427110000000002,0.458426
144,0.8032060000000001,-1.110283,-0.624178,0.319778,0.895824,-0.308586,-1.5020639999999998,-0.281195,-0.18648699999999999,-0.72673,-1.092175,0.348534
145,0.8344440000000001,-1.130168,-0.5959300000000001,0.315996,0.9044840000000001,-0.286426,-0.8809969999999999,0.583174,-0.299692,-1.2854780000000001,-0.653629,-0.031445
146,0.8713639999999999,-1.138641,-0.573965,0.32047600000000004,0.908065,-0.269622,-0.527478,1.175386,0.212628,-1.206417,0.867585,-0.632065
147,0.936104,-1.152733,-0.560728,0.326909,0.913877,-0.24071199999999998,-0.24418099999999998,4.053684,-1.077357,-2.0989430000000002,3.942278,1.787205
148,0.928681,-1.155405,-0.620088,0.323157,0.914959,-0.241669,1.522405,1.8864779999999999,-0.104045,0.896234,0.299,0.355469
149,0.8823129999999999,-1.131941,-0.69531,0.32810100000000003,0.9052379999999999,-0.269958,1.581481,0.834548,-0.295633,1.018899,-1.6801099999999998,0.977508
150,0.905264,-1.151793,-0.686189,0.320008,0.9134950000000001,-0.251209,-2.240238,0.44972399999999996,-0.9125610000000001,0.9191889999999999,-1.606992,0.578601
151,0.981556,-1.203441,-0.619622,0.298563,0.9332799999999999,-0.199576,-2.4744669999999998,1.125225,-1.5367680000000001,-0.051797,-0.33097,0.10369
152,1.05985,-1.261479,-0.5554100000000001,0.26550300000000004,0.952542,-0.148842,-2.387165,0.723591,-2.138121,0.227081,0.968174,-0.140816
153,1.182303,-1.3287440000000001,-0.445597,0.221795,0.9708479999999999,-0.09078,-3.261108,0.876927,-2.429637,0.365195,1.673729,0.01264
154,1.44535,-1.4054,-0.182603,0.163286,0.986353,-0.020592,-3.4376889999999998,-0.330259,-3.283901,0.587873,1.176244,-0.127724
155,1.9289889999999998,-1.452617,0.327154,0.11033399999999999,0.993025,0.041303,-3.0669,-1.119546,-2.295399,1.0845049999999998,0.722032,-0.465772
156,2.430918,-1.457451,0.8429030000000001,0.073716,0.993583,0.085647,-1.743267,-0.22167199999999998,-1.540617,1.108275,0.41687799999999997,-0.764587
157,2.669364,-1.458991,1.072873,0.050704,0.993756,0.09926900000000001,-0.023581,0.843627,-0.9071959999999999,0.368821,-0.271756,-0.5741069999999999
158,2.77906,-1.47583,1.1683290000000002,0.033586000000000005,0.9954940000000001,0.088547,0.764003,0.503908,-0.81687,-0.262193,0.076939,-0.172257
159,2.950355,-1.4946110000000001,1.341634,0.014438999999999999,0.997099,0.07458,0.627376,-0.446008,-1.042002,-0.326893,-0.042128,-0.18299400000000002
160,-3.0690720000000002,-1.508527,1.6221379999999999,-0.004496,0.9980620000000001,0.061887,0.684329,-0.933566,-0.907458,-0.291448,-0.40408299999999997,-0.061872
161,-2.756513,-1.524242,1.9506279999999998,-0.017391999999999998,0.998917,0.042910000000000004,1.1751719999999999,-0.565976,-0.551987,0.020718,-1.102814,-0.121813
162,-2.130941,-1.544028,2.577686,-0.022327,0.999642,0.014002,1.522866,0.171066,-0.022801,0.15326199999999998,-1.291375,-0.085062
163,-0.6936180000000001,-1.550914,-2.274973,-0.012364,0.9998020000000001,-0.014871,1.4253360000000002,0.439662,0.8232729999999999,0.23053400000000002,-1.2425540000000002,0.304894
164,0.27157800000000004,-1.520109,-1.313899,0.013536000000000001,0.9987159999999999,-0.048611,1.8131709999999999,0.10301700000000001,1.556009,0.010313,-0.683439,-0.452259
165,0.5434979999999999,-1.463571,-1.038766,0.055295000000000004,0.994257,-0.091519,2.60688,-0.429638,2.469157,0.446246,-0.297586,-0.5916170000000001
166,0.611159,-1.3499079999999999,-0.947602,0.125698,0.9757030000000001,-0.179402,4.993158,-1.776543,5.024578,1.1572,1.608479,0.272954
167,0.7121430000000001,-1.218488,-0.811228,0.22546999999999998,0.938579,-0.261184,3.492104,-1.23558,5.309297,0.004342,1.815007,0.249939
168,0.716125,-1.108215,-0.778933,0.292944,0.894904,-0.33662600000000004,3.552366,-1.063584,2.741492,-0.69071,2.095422,0.275377
169,0.670547,-1.039117,-0.818239,0.315037,0.861957,-0.3972,3.34562,-0.347464,1.2607110000000001,-0.55721,0.8895540000000001,0.353011
170,0.642731,-0.9769059999999999,-0.854685,0.335402,0.8287700000000001,-0.44792200000000004,2.7617220000000002,0.16005899999999998,1.121386,0.05291900000000001,0.061367,0.104599
171,0.640338,-0.933241,-0.863281,0.355626,0.803553,-0.47730600000000006,1.360994,0.280659,1.213997,0.301189,0.188833,-0.16776
172,0.652559,-0.910601,-0.8490549999999999,0.372386,0.789872,-0.487256,0.230273,-0.046285,0.8390489999999999,0.22813899999999998,0.578368,-0.687029
173,0.665449,-0.909877,-0.8325870000000001,0.37898899999999996,0.789428,-0.48286599999999996,-0.407659,0.22610999999999998,0.1399,0.93168,0.746598,-0.42414700000000005
174,0.675956,-0.918826,-0.822023,0.379606,0.79489,-0.473326,-0.846115,-0.27503299999999997,0.103297,0.986926,0.443086,-0.277086
175,0.6792159999999999,-0.929515,-0.792665,0.375787,0.80133,-0.465449,-0.8403709999999999,-1.1769479999999999,0.537122,0.401938,-0.48664799999999997,0.028879000000000002
176,0.688262,-0.9266969999999999,-0.768796,0.381415,0.7996409999999999,-0.463772,-0.061520000000000005,-0.17105399999999998,0.592548,-0.09853300000000001,-0.935948,0.371701
177,0.681396,-0.923991,-0.758612,0.379583,0.798013,-0.468059,-0.383841,-1.064251,0.197268,-0.309866,-1.350198,0.7198899999999999
178,0.687373,-0.946262,-0.724003,0.371003,0.811236,-0.451931,-2.173279,-1.076419,-0.0032229999999999997,-0.860917,-1.3542809999999998,0.8578600000000001
179,0.717499,-0.988957,-0.667921,0.36133000000000004,0.8354530000000001,-0.414059,-2.799525,-0.562092,-0.20908200000000002,-0.720247,-1.047108,0.6453369999999999
180,0.768022,-1.031902,-0.603826,0.356509,0.8582770000000001,-0.36911900000000003,-2.608419,-0.025986000000000002,-0.17638800000000002,-0.65552,-0.9619139999999999,0.5371640000000001
181,0.81682,-1.0658530000000002,-0.54943,0.352635,0.875202,-0.331142,-1.8377150000000002,0.149843,-0.32612199999999997,-0.76302,-0.8814280000000001,0.271481
182,0.8507399999999999,-1.089879,-0.519728,0.34775,0.8865709999999999,-0.305035,-1.023772,0.503213,-0.423439,-1.2332020000000001,-0.440709,-0.074634
183,0.88502,-1.104848,-0.49537299999999995,0.34768899999999997,0.893396,-0.2845,-0.946039,0.849757,-0.040916,-0.9377459999999999,-0.431101,-0.596909
184,0.949312,-1.113312,-0.479235,0.359087,0.897167,-0.25716100000000003,-0.039457,3.294805,-0.619898,-1.3893149999999999,4.86353,0.103627
185,0.962518,-1.118449,-0.527696,0.358665,0.899423,-0.24975999999999998,0.8627530000000001,2.792989,-0.31919200000000003,0.613366,0.36859699999999995,0.133122
186,0.9716809999999999,-1.107713,-0.563587,0.368892,0.8946799999999999,-0.251894,0.668331,1.840037,-0.268054,0.348988,-0.034602999999999995,0.205675
187,0.984157,-1.122268,-0.5829300000000001,0.361121,0.901086,-0.240037,-0.8354209999999999,1.450958,-1.031156,0.7045680000000001,-1.29368,0.683686
188,1.0372299999999999,-1.167403,-0.547691,0.337957,0.919734,-0.19963699999999998,-2.133876,0.868577,-1.8502599999999998,0.400248,-0.725154,0.507026
189,1.113228,-1.2301950000000001,-0.478812,0.299663,0.9425540000000001,-0.147561,-2.793962,0.47009399999999996,-2.325446,0.21796100000000002,-0.343479,0.32297600000000004
190,1.2373809999999998,-1.297507,-0.359642,0.25500100000000003,0.962888,-0.088318,-2.948597,0.623363,-2.424999,0.44067799999999996,0.810671,-0.23663299999999998
191,1.4407780000000001,-1.356213,-0.158524,0.21109,0.977065,-0.027601,-3.220491,0.024252000000000003,-2.349218,0.494613,1.0442209999999998,-0.127199
192,1.816243,-1.40329,0.233783,0.161657,0.9860040000000001,0.040494999999999996,-3.601022,-0.69421,-2.435345,0.936579,0.879704,-0.187086
193,2.227966,-1.407475,0.662822,0.128669,0.986693,0.09927799999999999,-2.621553,-0.343912,-1.376754,0.903283,0.919328,-0.506749
194,2.4364049999999997,-1.401343,0.868894,0.10926,0.985677,0.12836,-0.723646,0.560711,-0.676721,0.20517800000000003,0.382777,-0.690662
195,2.514102,-1.408614,0.9304379999999999,0.09475399999999999,0.986877,0.130645,0.227233,0.812192,-0.720608,-0.21828899999999998,0.194504,-0.272323
196,2.6173830000000002,-1.427612,1.028405,0.071378,0.989767,0.123456,0.5314260000000001,-0.018345,-1.344465,-0.255704,0.05184400000000001,-0.232098
197,2.7429259999999998,-1.4563409999999999,1.1624299999999999,0.044289999999999996,0.9934569999999999,0.105146,1.103609,-0.455891,-1.378363,-0.11528900000000002,-0.643543,-0.12266300000000001
198,2.859808,-1.490045,1.287082,0.022387,0.996741,0.077333,1.51112,-0.29277800000000004,-0.964461,-0.007677,-0.8991459999999999,-0.088548
199,2.933775,-1.523908,1.36311,0.009617,0.998901,0.045609,1.562308,0.059386,-0.36635,0.222286,-1.541534,-0.061036
200,2.4353540000000002,-1.543495,0.856618,0.017434,0.999627,0.020437999999999998,1.072708,0.622775,0.891078,0.369773,-1.319955,-0.068686
201,1.424041,-1.524281,-0.172282,0.045751,0.9989180000000001,-0.006763,1.817918,0.79074,1.663052,-0.066335,-1.005968,0.205554
202,1.035183,-1.471096,-0.564919,0.085501,0.995034,-0.050743,2.303054,-0.139996,2.22845,-0.134771,-0.6433949999999999,-0.502861
203,0.86661,-1.387594,-0.722665,0.138802,0.983265,-0.11790899999999999,4.550251,-1.086683,3.123438,1.076575,0.75671,-0.7278560000000001
204,0.768266,-1.23815,-0.78151,0.226894,0.945182,-0.234805,5.174435,-1.962496,5.814430000000001,0.195134,2.166848,0.371111
205,0.788307,-1.1080969999999999,-0.730996,0.31653200000000004,0.8948510000000001,-0.31469600000000003,4.104305,-1.343135,4.769986,-0.410801,1.712235,0.320921
206,0.7444810000000001,-1.012738,-0.764356,0.358802,0.8482850000000001,-0.389435,3.662411,-0.29324,1.8108520000000001,-0.72538,0.8764930000000001,0.10235599999999999
207,0.724584,-0.937591,-0.803441,0.39220700000000003,0.806135,-0.44306599999999996,3.2631509999999997,1.424712,1.442667,-0.713496,0.828234,0.37936
208,0.737284,-0.882042,-0.823633,0.427278,0.772038,-0.470508,2.1042080000000003,0.970332,1.524884,0.22682,0.11693900000000002,-0.20896599999999999
209,0.729631,-0.8430280000000001,-0.82783,0.443416,0.746661,-0.49585,1.1669889999999998,-0.8979159999999999,0.94496,0.384083,0.49650299999999997,-0.559753
210,0.708175,-0.823742,-0.8281229999999999,0.44196199999999997,0.733693,-0.516093,0.588569,-0.73511,0.426897,0.6398560000000001,0.682826,-0.48860600000000004
211,0.7020350000000001,-0.8196040000000001,-0.826258,0.440741,0.730876,-0.521111,-0.317843,-0.4729,0.109377,1.087548,0.649755,-0.071663
212,0.690652,-0.830034,-0.8056180000000001,0.42990100000000003,0.737954,-0.520189,-1.004735,-1.8605630000000002,0.340298,0.658539,-0.165933,-0.481184
213,0.6694640000000001,-0.8373450000000001,-0.77963,0.415425,0.742869,-0.524936,-0.702364,-1.9109779999999998,0.431137,0.519695,-0.275584,-0.295926
214,0.633416,-0.8448680000000001,-0.766677,0.392918,0.747883,-0.535047,-0.524778,-2.56145,-0.091286,-0.490696,-1.272175,0.725416
215,0.58886,-0.8596280000000001,-0.762468,0.362525,0.7576,-0.542778,-0.953219,-2.020899,-0.3663,-0.665274,-1.5930030000000002,1.084358
216,0.593418,-0.894275,-0.736921,0.3501,0.779755,-0.519038,-2.4935110000000003,0.099482,-0.21740700000000002,-0.786883,-1.54416,0.997569
217,0.658254,-0.9470129999999999,-0.681846,0.357315,0.811674,-0.46205799999999997,-3.314349,1.262168,-0.15626400000000001,-0.9116360000000001,-1.037169,0.689918
218,0.736869,-0.995358,-0.612974,0.365681,0.8389540000000001,-0.403014,-2.832719,1.0001200000000001,-0.043605,-0.837024,-1.025965,0.49482600000000004
219,0.804286,-1.0293299999999999,-0.556567,0.371245,0.8569540000000001,-0.35748,-1.9202119999999998,0.956917,-0.153612,-0.883391,-0.992742,0.357937
220,0.847891,-1.0489899999999999,-0.526275,0.373767,0.86692,-0.32974499999999995,-0.807021,0.766803,-0.195799,-0.9910760000000001,-0.5107189999999999,-0.26818600000000004
221,0.8821760000000001,-1.05541,-0.509815,0.380544,0.8701030000000001,-0.313195,-0.41849899999999995,1.427567,0.19276400000000002,-0.752309,0.273437,-0.127066
222,0.922998,-1.065051,-0.518876,0.386302,0.874813,-0.292329,0.58923,2.281852,-1.461308,-0.8968149999999999,6.250247,0.052994000000000006
223,0.923444,-1.0641559999999999,-0.565982,0.387056,0.8743799999999999,-0.292628,1.611485,2.322723,0.216479,-0.058977,-0.476782,0.178965
224,0.9350620000000001,-1.0496889999999999,-0.610113,0.400568,0.867268,-0.295593,0.9150530000000001,2.595481,-0.522604,-0.16683399999999998,-0.194997,0.44523599999999997
225,0.956677,-1.0675940000000002,-0.632854,0.394106,0.876043,-0.27787199999999995,-0.8562620000000001,1.6582599999999998,-1.172572,0.7850779999999999,-1.330632,0.5701390000000001
226,1.001533,-1.112732,-0.614023,0.372458,0.89691,-0.23834699999999998,-2.017586,1.492776,-1.937841,0.47715100000000005,-0.462416,0.43958
227,1.079748,-1.178299,-0.555249,0.337278,0.9239569999999999,-0.180355,-2.849617,0.932509,-2.298653,0.240954,-0.081214,0.301845
228,1.17005,-1.244717,-0.47124399999999994,0.29492199999999996,0.947306,-0.12495099999999999,-2.760841,0.42227600000000004,-2.383905,0.24334699999999998,0.538687,-0.135074
229,1.30988,-1.31921,-0.3292,0.24047399999999997,0.968519,-0.064207,-3.3619839999999996,-0.083446,-3.264466,0.54572,1.0526,0.151335
230,1.588425,-1.396335,-0.031335,0.173484,0.98482,0.003059,-3.563016,-0.752322,-3.119735,0.8889549999999999,0.760495,-0.113578
231,2.036901,-1.424956,0.42115,0.129746,0.989384,0.065272,-2.7595650000000003,0.309258,-1.8282759999999998,1.036789,0.494838,-0.414286
232,2.359801,-1.42679,0.743794,0.101046,0.989649,0.101778,-1.306471,0.21752800000000003,-1.195235,0.581144,0.312612,-0.685732
233,2.50813,-1.424962,0.888534,0.085967,0.9893850000000001,0.11705299999999999,-0.520392,0.09716,-0.547589,-0.2769,0.199351,-0.326373
234,2.629937,-1.42646,1.016062,0.07038,0.9896020000000001,0.125334,-0.350842,-0.378835,-1.006198,-0.26114499999999996,0.097801,-0.181014
235,2.777273,-1.4368020000000001,1.179742,0.047566000000000004,0.991036,0.124733,0.25296599999999997,-0.989884,-1.3675979999999999,-0.269063,-0.24297399999999997,-0.357048
236,2.937959,-1.455774,1.365168,0.023186000000000002,0.993392,0.112284,0.7585850000000001,-1.159247,-1.277323,-0.203957,-0.527725,-0.154566
237,3.0774630000000003,-1.478212,1.52484,0.005915999999999999,0.995717,0.092119,1.123843,-0.820544,-0.781687,0.036473,-0.967443,-0.114427
238,-3.12522,-1.503472,1.6147200000000002,-0.001098,0.997735,0.067072,1.270758,-0.21231999999999998,-0.098846,0.21495,-1.394249,-0.068704
239,2.889123,-1.523949,1.34297,0.01163,0.9989030000000001,0.045082,1.034095,0.309948,1.099513,0.185422,-1.150575,-0.079964
240,1.897991,-1.52674,0.33987399999999995,0.041443,0.99903,0.014066,2.052009,0.6312800000000001,1.643527,-0.080506,-0.9998379999999999,0.18074300000000001
241,1.073524,-1.482823,-0.49275399999999997,0.077106,0.996133,-0.041851,3.115573,0.12276600000000001,1.881275,-0.200001,-0.68612,0.037243
242,0.809534,-1.403242,-0.759834,0.12069200000000001,0.9859959999999999,-0.115002,4.490647,-0.075977,2.4369959999999997,1.3993120000000001,1.6753810000000002,-0.7957489999999999
243,0.642422,-1.257264,-0.904169,0.18476900000000002,0.95125,-0.24691300000000002,5.991873,-1.733341,4.810377,1.561707,2.769041,0.78918
244,0.753791,-1.136024,-0.781506,0.28826199999999996,0.9069659999999999,-0.307085,2.962376,-0.171652,5.306369999999999,-0.608925,1.619508,0.075625
245,0.749734,-1.0377049999999999,-0.772556,0.34629899999999997,0.86124,-0.371924,3.169193,-0.384008,2.026509,-0.678193,1.2905389999999999,-0.24949000000000002
246,0.7259800000000001,-0.971934,-0.8046399999999999,0.374217,0.8259780000000001,-0.42155600000000004,3.008896,0.6723100000000001,1.476038,-0.49476099999999995,1.178814,0.403031
247,0.698492,-0.912017,-0.8434370000000001,0.393646,0.79074,-0.468786,2.863182,-0.19234300000000001,0.98261,0.306656,0.138245,-0.148753
248,0.662308,-0.873173,-0.866705,0.39503,0.766371,-0.506572,1.28403,-1.361312,0.311848,0.383992,0.082887,-0.6103109999999999
249,0.630628,-0.869935,-0.872395,0.380247,0.7642869999999999,-0.520832,-0.175573,-0.8549129999999999,-0.118808,0.321687,0.44039399999999995,-0.406521
250,0.628775,-0.872842,-0.868294,0.377973,0.766158,-0.519736,-0.257396,-0.121402,0.067688,0.984926,0.144013,0.118735
251,0.6348729999999999,-0.8837299999999999,-0.8497450000000001,0.376165,0.7731100000000001,-0.510675,-1.055188,-0.801266,0.280904,0.7781319999999999,-0.343453,-0.40235
252,0.6403760000000001,-0.8916440000000001,-0.8200149999999999,0.375302,0.7781060000000001,-0.503674,-0.639677,-0.626035,0.588025,0.31595100000000004,-0.422408,-0.08266
253,0.6442939999999999,-0.894151,-0.803323,0.3761,0.779678,-0.5006390000000001,-0.36178499999999997,-0.45807200000000003,0.168871,-0.762666,-1.101073,0.520826
254,0.6392979999999999,-0.904267,-0.794347,0.368869,0.785972,-0.49615600000000004,-0.8530139999999999,-0.651049,-0.163325,-0.787341,-1.4478520000000001,0.694048
255,0.6708850000000001,-0.933263,-0.7564270000000001,0.370026,0.803566,-0.466207,-2.6611700000000003,0.662147,0.143897,-0.836152,-1.58236,0.9537399999999999
256,0.764642,-0.9848309999999999,-0.67171,0.382823,0.8331790000000001,-0.399054,-3.72926,1.32217,0.116362,-0.951152,-1.088184,0.653418
257,0.863764,-1.0290350000000001,-0.581616,0.39203000000000005,0.8568020000000001,-0.334943,-2.870896,1.0619969999999999,-0.033269,-0.731263,-1.189871,0.33038
258,0.936969,-1.059523,-0.524016,0.39423800000000003,0.872122,-0.28976199999999996,-1.6080459999999999,1.271299,-0.45520900000000003,-0.759472,-1.232565,0.10706900000000001
259,0.9851219999999999,-1.0829090000000001,-0.504603,0.390621,0.883325,-0.259102,-0.79809,1.710765,-0.7673770000000001,-0.9649620000000001,-0.890848,0.035164
260,1.025796,-1.096683,-0.49262100000000003,0.39039,0.889698,-0.236673,-0.647107,1.316584,-0.092837,-0.9985139999999999,1.7346150000000002,0.540903
261,1.114696,-1.1068360000000002,-0.437395,0.401729,0.894287,-0.19708900000000001,-1.526713,3.5175730000000005,-0.16162200000000002,-1.2031209999999999,5.549346,1.736213
262,1.107308,-1.1183,-0.452775,0.391065,0.899359,-0.195455,0.336397,-0.47517600000000004,-0.420163,0.620821,-0.016531,0.540425
263,1.057976,-1.104,-0.495436,0.392119,0.893015,-0.22078899999999999,1.3403969999999998,-0.383965,0.14114100000000002,0.5704199999999999,-1.7751560000000002,0.772211
264,1.075807,-1.1114620000000002,-0.486462,0.39011799999999996,0.8963479999999999,-0.21059099999999997,-1.870209,1.19831,-0.356535,0.9348479999999999,-1.9292150000000001,0.48387600000000003
265,1.180751,-1.157932,-0.405075,0.37107399999999996,0.915975,-0.152552,-2.35922,1.7122169999999999,-1.906327,-0.089519,-0.46187399999999995,-0.054280999999999996
266,1.2527620000000002,-1.20966,-0.362241,0.335588,0.9354959999999999,-0.110479,-1.277906,1.422597,-2.077864,-0.233537,0.371251,-0.386317
267,1.327787,-1.258675,-0.308272,0.298019,0.951684,-0.073882,-2.360879,1.2659639999999999,-2.461242,0.118592,1.21659,0.23731799999999997
268,1.5566200000000001,-1.332589,-0.080374,0.235884,0.9717629999999999,-0.0033439999999999998,-3.645513,-0.377075,-3.381439,0.40973100000000007,0.43643999999999994,-0.117154
269,1.8849029999999998,-1.378019,0.280457,0.182145,0.981476,0.059172,-3.432054,-1.696651,-2.577091,0.54309,0.876892,-0.43264600000000003
270,2.265142,-1.390201,0.696851,0.137969,0.9837370000000001,0.114882,-2.664146,-0.9092040000000001,-1.96385,0.9592299999999999,0.854733,-0.459685
271,2.468164,-1.3862290000000002,0.894453,0.114407,0.983016,0.143394,-0.656849,1.115748,-0.74106,0.342746,-0.095229,-0.509315
272,2.5370060000000003,-1.393227,0.9352370000000001,0.100357,0.984276,0.145257,0.334357,1.356396,-0.50905,-0.034575999999999996,0.297676,-0.317711
273,2.60323,-1.411769,0.9865780000000001,0.081147,0.987382,0.135877,0.6712100000000001,0.444741,-1.121893,-0.17286700000000002,-0.109681,-0.32710100000000003
274,2.687869,-1.437339,1.068737,0.058275,0.991108,0.119499,0.935167,0.11657999999999999,-1.07049,-0.21074,-0.49612799999999996,-0.31555900000000003
275,2.734077,-1.466193,1.1154620000000002,0.041326999999999996,0.994534,0.095734,1.36658,-0.141006,-0.6986100000000001,-0.06229199999999999,-0.915143,-0.134812
276,2.658215,-1.496157,1.042761,0.03457,0.997216,0.065858,1.5038799999999999,-0.08214199999999999,-0.087772,0.22810999999999998,-1.2376639999999999,-0.06350900000000001
277,2.285102,-1.512889,0.663145,0.043548,0.998324,0.037758,1.399359,0.552841,0.781285,0.11445699999999999,-0.976366,0.222435
278,1.5918649999999999,-1.503384,-0.046774,0.06715,0.9977290000000001,0.001415,2.3138810000000003,0.737857,1.404868,-0.072827,-0.845065,0.22528499999999999
279,1.092171,-1.4577069999999999,-0.553662,0.10007,0.993612,-0.051923000000000004,2.747319,0.039007,1.8350119999999999,-0.198657,-0.706961,-0.17257999999999998
280,0.857031,-1.377921,-0.7840590000000001,0.144847,0.981457,-0.125452,4.8589839999999995,-0.792763,2.614607,1.666463,1.098575,-0.29393600000000003
281,0.7670640000000001,-1.239544,-0.837727,0.225694,0.945636,-0.23412600000000003,4.504411,-1.717432,5.58404,0.105055,2.0847290000000003,0.391245
282,0.781554,-1.114401,-0.786774,0.31041799999999997,0.897647,-0.312814,4.048301,-1.6733810000000002,4.555305000000001,-0.39901,1.6919830000000002,0.31093699999999996
283,0.7447699999999999,-1.030196,-0.814739,0.348821,0.8574,-0.378382,3.1709509999999996,-0.125898,1.415167,-0.7155050000000001,1.150168,0.313868
284,0.723276,-0.9667959999999999,-0.8631530000000001,0.375879,0.8230700000000001,-0.425741,3.184902,1.524067,0.9078809999999999,0.018119,0.061924,0.06665599999999999
285,0.7135520000000001,-0.914652,-0.902233,0.39929499999999996,0.79235,-0.461226,2.400507,0.836198,0.980195,0.2095,0.099877,-0.180009
286,0.7049890000000001,-0.873359,-0.914417,0.416191,0.76649,-0.489146,1.375834,-0.541536,0.886141,0.066536,0.280888,-0.5095270000000001
287,0.68998,-0.858826,-0.914626,0.41585,0.757076,-0.503876,0.149064,-0.45046499999999995,0.22156700000000001,0.908933,0.32021,-0.066452
288,0.690859,-0.865246,-0.913968,0.41318699999999997,0.761255,-0.499754,-0.5164340000000001,0.089554,-0.24738200000000002,1.022924,0.151633,-0.090075
289,0.697708,-0.8856360000000001,-0.889544,0.406541,0.7743180000000001,-0.484914,-1.7275150000000001,-0.787535,0.094591,0.80284,-0.43659499999999996,-0.334055
290,0.704537,-0.8963479999999999,-0.863101,0.404448,0.7810520000000001,-0.475779,-0.35581799999999997,-0.16256800000000002,0.324493,-0.271269,-0.750397,0.136546
291,0.700905,-0.894457,-0.8620909999999999,0.403669,0.77987,-0.47837299999999994,0.05612,-0.519328,-0.058868,-0.548215,-1.00776,0.36233000000000004
292,0.693546,-0.905175,-0.8539399999999999,0.394771,0.786533,-0.474876,-1.1468120000000002,-0.484979,-0.14636300000000002,-0.750637,-1.6044200000000002,0.7849649999999999
293,0.735214,-0.9435549999999999,-0.8054399999999999,0.39366100000000004,0.809649,-0.43529700000000005,-3.051831,0.524245,-0.19514600000000001,-0.8696290000000001,-1.337695,0.8777860000000001
294,0.812823,-0.995984,-0.729929,0.39482399999999995,0.8392940000000001,-0.373741,-3.333651,0.810271,-0.35023699999999997,-0.806689,-1.0260770000000001,0.6579510000000001
295,0.883656,-1.0403149999999999,-0.660065,0.39111599999999996,0.8625639999999999,-0.32092600000000004,-2.475949,0.403092,-0.49968500000000005,-0.651019,-0.9551540000000001,0.392963
296,0.928271,-1.0715370000000002,-0.617057,0.383284,0.8779370000000001,-0.286879,-1.374558,0.384735,-0.593449,-0.866042,-0.834633,0.075164
297,0.945673,-1.084668,-0.607484,0.378836,0.8841479999999999,-0.27339600000000003,-0.175494,0.49198000000000003,-0.214538,-0.742408,-0.562554,-1.196346
298,0.994218,-1.084716,-0.587458,0.391621,0.8841709999999999,-0.25466700000000003,-0.7839550000000001,2.645808,0.352087,-1.1003610000000001,4.60527,1.12309
299,1.008976,-1.0848799999999998,-0.615595,0.395214,0.8842469999999999,-0.248782,0.866374,1.495449,-0.047245,0.22526999999999997,3.3417660000000002,0.42329700000000003
300,0.986072,-1.055311,-0.675717,0.411042,0.8700540000000001,-0.272086,2.25431,1.420743,0.381289,-0.324891,-0.475812,0.369361
301,0.9570129999999999,-1.049115,-0.738941,0.40736300000000003,0.8669819999999999,-0.287014,0.6918989999999999,1.254261,-1.117445,0.195969,-1.2724540000000002,0.792233
302,0.983044,-1.085591,-0.733963,0.38810700000000004,0.8845790000000001,-0.258598,-1.7976869999999998,0.854894,-1.6502740000000002,0.24571300000000001,-0.53027,0.8250190000000001
303,1.04314,-1.149102,-0.683728,0.353614,0.9123969999999999,-0.206077,-3.001921,0.7498279999999999,-2.302689,0.025735,-0.265439,0.5381229999999999
304,1.1306129999999999,-1.217757,-0.608347,0.312762,0.938326,-0.147312,-2.600868,1.083408,-2.421024,0.271925,0.469938,-0.10751
305,1.253517,-1.287319,-0.509187,0.26569299999999996,0.960089,-0.087246,-3.163019,1.580501,-2.900946,0.081353,1.070627,-0.021106
306,1.484121,-1.366511,-0.281575,0.20204,0.9792059999999999,-0.017556,-3.384959,-0.317294,-3.3722190000000003,0.48779399999999995,0.686962,-0.297721
307,1.8629330000000002,-1.414988,0.111324,0.148516,0.987886,0.044664999999999996,-3.208127,-0.260421,-2.298562,1.2782879999999999,0.49308599999999997,-0.45167799999999997
308,2.254159,-1.4256229999999999,0.51652,0.11210099999999999,0.9894809999999999,0.091277,-1.712073,-0.42302399999999996,-1.561512,0.632177,0.099966,-0.815657
309,2.395084,-1.430884,0.657788,0.09462899999999999,0.9902280000000001,0.10229099999999999,0.023854,0.341434,-0.567602,0.185889,0.175513,-0.515041
310,2.4753939999999997,-1.442137,0.730167,0.079222,0.991735,0.10078,0.015231999999999999,0.365571,-1.001391,-0.293837,0.390818,0.056979999999999996
311,2.655743,-1.455547,0.91507,0.053638,0.993366,0.101573,0.088587,-0.536551,-1.3725319999999999,-0.14519100000000001,-0.148792,-0.15163800000000002
312,2.83445,-1.476208,1.109939,0.028508,0.9955299999999999,0.08988099999999999,0.78614,-0.705613,-1.257416,-0.026372000000000003,-0.412293,-0.307593
313,2.995387,-1.501703,1.2783719999999998,0.010028,0.9976139999999999,0.068098,1.245154,-0.159499,-0.762463,0.076017,-1.093149,-0.128644
314,3.082464,-1.529798,1.363046,0.002402,0.99916,0.040575,1.431088,0.32510700000000003,-0.101624,0.32656199999999996,-1.3369739999999999,-0.142397
315,2.35576,-1.5548680000000001,0.6220359999999999,0.010651,0.999873,0.010642,1.546422,0.951966,0.7433420000000001,0.34436,-1.2769270000000001,-0.099372
316,0.8892629999999999,-1.528278,-0.864677,0.032769,0.9990959999999999,-0.026583,2.183831,0.868808,1.272397,-0.124521,-0.8435940000000001,0.08694600000000001
317,0.732539,-1.473795,-1.027734,0.064682,0.9952989999999999,-0.071909,2.229832,0.016366,1.8196729999999999,-0.008270999999999999,-0.6410359999999999,-0.5595600000000001
318,0.706138,-1.398722,-1.0466,0.11106400000000001,0.985232,-0.13022899999999998,3.9190650000000002,-0.8371200000000001,2.801443,0.548192,-0.240542,-0.7773329999999999
319,0.681757,-1.263795,-1.025536,0.190413,0.9532440000000001,-0.23462199999999997,4.563783,-2.31414,5.30641,0.059190999999999994,1.84975,0.483997
320,0.734212,-1.1531200000000001,-0.930167,0.27176300000000003,0.914034,-0.301111,3.136625,-1.796962,4.55016,-0.265857,1.7484419999999998,0.439478
321,0.718155,-1.070645,-0.928458,0.31553600000000004,0.87751,-0.361104,2.717918,-0.203324,1.724019,-0.5942069999999999,1.749641,0.063542
322,0.7043,-1.01015,-0.9557889999999999,0.34428800000000004,0.8469110000000001,-0.405204,2.6463240000000003,0.940884,1.228534,-0.32854099999999997,0.21606199999999998,0.14899400000000002
323,0.704159,-0.9616520000000001,-0.9720270000000001,0.37040700000000004,0.8201379999999999,-0.436069,1.891099,-0.014977,1.427446,0.329941,0.06034,-0.275356
324,0.696495,-0.927142,-0.9594469999999999,0.38499,0.799908,-0.46034200000000003,0.383386,-1.030278,1.159706,0.46707600000000005,-0.042752,-0.404435
325,0.712329,-0.920286,-0.935362,0.395806,0.795775,-0.458329,-0.16326400000000002,0.515101,0.652911,0.732093,0.454363,-0.47789
326,0.74303,-0.908697,-0.921899,0.4159,0.7887029999999999,-0.45272399999999996,0.05810800000000001,0.789602,0.8122020000000001,1.095712,0.451775,-0.129124
327,0.764528,-0.902667,-0.89187,0.42882,0.784982,-0.447103,-0.6140899999999999,-0.425494,1.032322,1.066648,-0.009363,-0.10057999999999999
328,0.785462,-0.900173,-0.8548030000000001,0.43946899999999994,0.783434,-0.43941199999999997,-0.719815,-0.323581,0.680008,-0.509415,-1.001177,0.320378
329,0.782283,-0.9085030000000001,-0.8337870000000001,0.433453,0.7885840000000001,-0.436162,-0.8734860000000001,-1.55575,-0.073651,-0.8889739999999999,-1.559641,0.723669
330,0.763121,-0.933751,-0.807138,0.411121,0.8038569999999999,-0.429858,-1.9504009999999998,-1.9438990000000003,-0.37443699999999996,-0.86449,-1.565728,0.8666719999999999
331,0.782452,-0.9813040000000001,-0.75459,0.391938,0.8312229999999999,-0.394255,-3.116797,-0.642199,-0.678013,-0.8382120000000001,-1.155243,0.82765
332,0.8429139999999999,-1.034992,-0.683293,0.381143,0.859858,-0.33964099999999997,-3.132549,0.241569,-0.561751,-0.816416,-1.013728,0.5849260000000001
333,0.913905,-1.0758290000000001,-0.611533,0.376136,0.879984,-0.290052,-2.3415630000000003,0.506571,-0.38565,-0.791618,-1.009608,0.246549
334,0.973274,-1.102542,-0.559091,0.37311,0.892357,-0.25390300000000005,-1.3921350000000001,0.7333109999999999,-0.368627,-1.032015,-0.776299,-0.107821
335,1.00845,-1.1142370000000001,-0.538976,0.37295300000000003,0.897575,-0.23504299999999997,-0.286691,0.8411190000000001,-0.049123,-1.2951629999999998,-0.48513,-0.702289
336,1.035577,-1.107515,-0.528559,0.384372,0.894591,-0.227913,0.07816000000000001,1.246302,0.604522,-1.797885,3.065553,1.9349290000000001
337,1.0820450000000001,-1.118307,-0.547016,0.385996,0.8993620000000001,-0.205267,0.976915,2.2746180000000003,-1.3186579999999999,1.302343,1.616599,0.736395
338,1.0461989999999999,-1.088856,-0.618438,0.40115100000000004,0.8860969999999999,-0.23213899999999998,2.675455,0.9538049999999999,1.1689,0.64226,-0.737843,1.285164
339,1.028456,-1.070501,-0.656076,0.410833,0.877441,-0.247574,-0.492209,1.075493,-0.14058900000000002,0.794687,-1.9941400000000002,0.966843
340,1.143402,-1.117041,-0.562013,0.398892,0.898807,-0.18168399999999998,-3.542407,1.590175,-1.794798,0.8861120000000001,-0.978718,0.267728
341,1.259836,-1.181482,-0.46949799999999997,0.361321,0.925169,-0.116124,-2.419436,1.445484,-2.547342,-0.09089,-0.139037,-0.341213
342,1.3326120000000001,-1.245735,-0.41752700000000004,0.310313,0.947631,-0.07534199999999999,-1.454896,1.0379559999999999,-2.96844,0.13541199999999998,0.5387890000000001,-0.42571099999999995
343,1.482064,-1.315784,-0.274698,0.251213,0.9676600000000001,-0.022349,-3.446383,0.20618899999999998,-3.425665,0.320228,1.161994,-0.206304
344,1.7861080000000003,-1.378239,0.067243,0.18688,0.981518,0.040871,-3.5156099999999997,-2.0764970000000003,-2.883771,0.415522,0.431309,0.045845
345,2.207718,-1.396798,0.5345489999999999,0.13911099999999998,0.9849,0.10290999999999999,-3.254167,-1.578683,-2.394406,0.9304540000000001,0.621347,-0.190663
346,2.509477,-1.386364,0.84804,0.108307,0.9830409999999999,0.147887,-1.6434689999999998,0.395909,-1.2875530000000002,0.317139,-0.029656000000000002,-0.719146
347,2.65283,-1.3861729999999999,0.9737950000000001,0.086156,0.9830059999999999,0.162009,-0.130002,1.05115,-0.759733,-0.109838,0.149883,-0.46672700000000006
348,2.732016,-1.3998059999999999,1.04528,0.067726,0.985417,0.156004,0.54375,-0.033552,-1.014283,-0.320732,0.343441,-0.311506
349,2.8212599999999997,-1.422909,1.1493200000000001,0.046366000000000004,0.989085,0.139759,0.9299959999999999,-0.90456,-1.1792479999999999,-0.308848,-0.08558099999999999,-0.296192
350,2.8956150000000003,-1.451028,1.238185,0.029064999999999997,0.992836,0.11576900000000001,1.349675,-0.454741,-0.812629,-0.190854,-0.876656,-0.174973
351,2.920773,-1.4845059999999999,1.2637459999999998,0.018841,0.9962790000000001,0.08393300000000001,1.708894,0.234327,-0.28436999999999996,0.092487,-1.370074,-0.192866
352,2.686261,-1.5134610000000002,1.017775,0.025095,0.9983569999999999,0.051251,1.572832,0.684377,0.7716430000000001,0.072988,-0.881108,0.30386599999999997
353,1.869376,-1.51737,0.18662,0.050799000000000004,0.9985729999999999,0.015635,2.110805,0.586627,1.572419,-0.06288400000000001,-0.708214,0.052252
354,1.218228,-1.473482,-0.47371599999999997,0.091063,0.9952690000000001,-0.033506,2.720241,0.23195700000000002,2.358001,0.078249,-0.43521000000000004,-0.439547
355,0.9052469999999999,-1.3736700000000002,-0.768687,0.154006,0.980633,-0.1209,5.387821,-1.871677,4.233763,1.176667,1.961353,0.7799119999999999
356,0.8801479999999999,-1.2244030000000001,-0.762757,0.26168,0.9406030000000001,-0.21625999999999998,3.991532,-1.284614,5.950572,-0.470909,1.357218,0.13131400000000001
357,0.8502280000000001,-1.102894,-0.7592479999999999,0.338891,0.892516,-0.29757100000000003,3.648933,-1.826583,3.522942,-0.42000699999999996,1.566651,0.157801
358,0.780208,-1.036741,-0.804642,0.358053,0.86075,-0.36178899999999997,3.141856,-1.024392,1.292198,-0.520559,1.01216,0.418704
359,0.734328,-0.976233,-0.861075,0.375339,0.828393,-0.41577700000000006,3.043096,0.539409,0.851533,-0.54874,0.5705020000000001,0.340841
360,0.716498,-0.928291,-0.889207,0.393517,0.800597,-0.45185600000000004,1.886309,0.013002000000000001,1.095159,0.07419500000000001,0.030045,-0.011309
361,0.700687,-0.900584,-0.895157,0.40047699999999997,0.78369,-0.4748,0.796127,-0.811588,0.45941800000000005,-0.004557,-0.014998,-0.492424
362,0.694521,-0.8924989999999999,-0.893192,0.401584,0.7786420000000001,-0.482113,0.047622000000000005,0.188212,0.166625,0.6057859999999999,0.632017,-0.36056900000000003
363,0.711108,-0.890027,-0.8922200000000001,0.41078000000000003,0.777089,-0.476843,-0.131048,0.604082,0.218255,0.875094,0.562755,-0.147593
364,0.7260310000000001,-0.897078,-0.863138,0.41420100000000004,0.781507,-0.46655100000000005,-1.1813790000000002,-0.776566,0.610062,0.465804,-0.418775,0.043012
365,0.750396,-0.9055290000000001,-0.8258110000000001,0.420926,0.786752,-0.451474,-0.9110309999999999,0.335323,0.44067799999999996,-0.23016,-0.47922600000000004,-0.003665
366,0.768161,-0.9136190000000001,-0.811678,0.424442,0.79172,-0.439333,-0.477012,-0.079207,-0.16678199999999999,-0.474491,-0.792788,0.142062
367,0.763211,-0.9275370000000001,-0.803687,0.414605,0.800145,-0.43342299999999995,-0.989669,-0.6051270000000001,-0.336331,-0.9029010000000001,-1.7057240000000002,0.836622
368,0.7915810000000001,-0.962511,-0.763875,0.406565,0.820629,-0.401568,-2.642194,0.011498999999999999,-0.45976000000000006,-0.942026,-1.255368,0.902407
369,0.8514379999999999,-1.008939,-0.697923,0.40074499999999996,0.846267,-0.351025,-2.911715,0.372365,-0.426853,-0.8697389999999999,-1.158447,0.727826
370,0.917242,-1.047708,-0.631112,0.396599,0.8662799999999999,-0.303726,-2.2597709999999998,0.405181,-0.407386,-0.748436,-1.0873959999999998,0.273316
371,0.9647309999999999,-1.0745770000000001,-0.589101,0.391291,0.879389,-0.27119499999999996,-1.192307,0.6628850000000001,-0.5102869999999999,-1.229884,-0.708201,-0.096557
372,0.9859049999999999,-1.084378,-0.582554,0.38974000000000003,0.8840129999999999,-0.258079,0.066322,0.980792,-0.117343,-1.1032110000000002,-0.49242600000000003,-0.9792870000000001
373,1.027202,-1.091136,-0.5807899999999999,0.39494,0.887152,-0.238673,-0.8543940000000001,3.6477120000000003,-0.784148,-0.45673800000000003,6.75857,0.21221399999999999
374,1.065024,-1.094026,-0.5987140000000001,0.401438,0.888482,-0.222325,0.7944,2.10078,-0.045327,0.29596500000000003,0.771354,0.240956
375,1.037147,-1.079065,-0.661381,0.406485,0.881517,-0.240164,1.7125110000000001,1.26014,-0.5399010000000001,-0.128027,-0.762498,0.793692
376,1.031493,-1.096377,-0.698204,0.391965,0.889558,-0.234585,-1.2511809999999999,1.541725,-1.2542389999999999,0.626742,-1.227678,0.594128
377,1.118576,-1.151263,-0.630252,0.366365,0.9132790000000001,-0.177979,-2.898047,1.333269,-2.041004,0.11518699999999998,-0.356959,0.16680899999999999
378,1.239931,-1.218957,-0.5224310000000001,0.325902,0.93874,-0.111945,-3.278635,0.965622,-2.477958,0.125224,-0.07019500000000001,-0.04133
379,1.4107370000000001,-1.2860969999999998,-0.365078,0.27723600000000004,0.9597459999999999,-0.044757,-3.143222,1.051971,-2.610651,0.7999890000000001,1.315675,-0.470059
380,1.6660419999999998,-1.344309,-0.114157,0.22348200000000001,0.974461,0.02135,-3.3092949999999997,0.039938999999999995,-2.994005,0.634779,1.4442549999999998,0.064541
381,2.010889,-1.378574,0.26167199999999996,0.172774,0.981582,0.081358,-3.166978,-1.585608,-2.3350400000000002,0.73401,0.6077279999999999,-0.303435
382,2.324736,-1.384212,0.599201,0.135177,0.982643,0.126929,-1.8304900000000002,-0.30599,-1.685343,0.872711,0.441475,-0.710258
383,2.462882,-1.392654,0.7306739999999999,0.111196,0.984175,0.13786900000000002,0.249282,0.792607,-0.899899,0.051051,-0.100096,-0.54978
384,2.506175,-1.415637,0.7583310000000001,0.091667,0.9879870000000001,0.124304,0.879333,0.643571,-0.939104,-0.20058499999999999,-0.011791,-0.234854
385,2.554903,-1.4417799999999998,0.805944,0.071168,0.9916889999999999,0.107056,0.913193,-0.278481,-1.087237,-0.294221,-0.06264199999999999,-0.192475
386,2.594489,-1.469641,0.8573709999999999,0.052464,0.9948879999999999,0.08613,1.0656299999999999,-0.59933,-0.9030950000000001,-0.211247,-0.466949,-0.029138
387,2.5678360000000002,-1.498799,0.835451,0.038948,0.997409,0.060265,1.4681030000000002,0.033872,-0.560333,-0.058005999999999995,-0.921802,-0.15770699999999999
388,2.2565310000000003,-1.525276,0.51664,0.035002,0.998964,0.028638,1.604678,0.48550600000000005,0.130114,0.194276,-1.324816,-0.085371
389,1.476675,-1.519867,-0.27710500000000005,0.050442,0.9987030000000001,-0.004762,1.8874330000000001,0.757555,1.1145049999999999,0.155643,-1.079117,0.363038
390,1.019034,-1.4744549999999998,-0.747004,0.081815,0.9953629999999999,-0.05036,2.387218,0.376954,1.8203049999999998,-0.081464,-0.615083,-0.316233
391,0.875341,-1.402965,-0.8892760000000001,0.1282,0.985949,-0.10698900000000001,3.638669,-0.6875319999999999,2.667897,0.85793,0.283582,-0.597997
392,0.7675,-1.263829,-0.959592,0.209785,0.953254,-0.217433,5.661251,-2.5747009999999997,5.84638,0.150536,1.638985,0.278208
393,0.781263,-1.1208280000000002,-0.9039860000000001,0.306259,0.9004610000000001,-0.308802,4.0991040000000005,-1.624774,5.411235,-0.054716999999999995,1.503378,-0.022115
394,0.762671,-1.0305870000000001,-0.8971610000000001,0.35530700000000004,0.8576010000000001,-0.37183499999999997,2.2184049999999997,-0.628073,1.8182770000000001,-0.743628,2.0919689999999997,0.164819
395,0.742888,-0.9778030000000001,-0.92691,0.378004,0.8292719999999999,-0.41158999999999996,2.635781,0.9069799999999999,0.9272600000000001,-0.315336,0.089063,0.24494899999999997
396,0.731703,-0.9315450000000001,-0.956206,0.398599,0.802543,-0.44388,2.0134630000000002,0.23438299999999998,1.035939,0.060583000000000005,-0.18417999999999998,0.057634000000000005
397,0.706596,-0.890573,-0.964775,0.40834899999999996,0.777432,-0.47836899999999993,1.5007110000000001,-1.45595,1.148823,0.065207,-0.169446,-0.179544
398,0.6758609999999999,-0.870505,-0.967686,0.403136,0.764654,-0.502765,0.302708,-1.474515,-0.094386,0.695634,-0.034216,-0.392743
399,0.660913,-0.8757459999999999,-0.9764950000000001,0.393111,0.768022,-0.505563,-0.077668,0.598414,-0.272751,1.271074,0.301726,-0.074713
400,0.670354,-0.8884879999999999,-0.9576899999999999,0.391754,0.776119,-0.494121,-1.238791,-0.9280209999999999,0.17402,0.48126199999999997,-0.457363,-0.036992000000000004
401,0.673078,-0.900123,-0.92911,0.387442,0.783404,-0.485957,-0.719579,-0.8601209999999999,0.32604299999999997,-0.368247,-0.641466,0.06985
402,0.662941,-0.910602,-0.914653,0.377423,0.7898729999999999,-0.483362,-0.827414,-1.351061,-0.150508,-0.604154,-1.034792,0.279002
403,0.6461399999999999,-0.935433,-0.8959799999999999,0.35732600000000003,0.804856,-0.473826,-1.720579,-1.534856,-0.299653,-0.885601,-1.523957,0.9952639999999999
404,0.6631729999999999,-0.975295,-0.8551190000000001,0.345308,0.827867,-0.442022,-2.6387389999999997,-0.20981799999999998,-0.261831,-0.81299,-1.308916,1.092077
405,0.725386,-1.020649,-0.792562,0.346837,0.852448,-0.39118,-2.767736,0.693303,-0.091905,-0.676091,-0.945542,0.8917440000000001
406,0.791291,-1.054338,-0.73127,0.351211,0.8695729999999999,-0.347096,-1.9566689999999998,0.609105,0.014281,-0.603225,-0.834081,0.206075
407,0.844384,-1.071913,-0.6885180000000001,0.357653,0.8781180000000001,-0.317767,-0.9695370000000001,0.9909450000000001,0.106144,-1.1664299999999999,-0.435018,-0.198957
408,0.89066,-1.06914,-0.664483,0.37386199999999997,0.8767870000000001,-0.302412,-0.188351,1.47554,0.786096,-0.77642,-0.525866,-2.039888
409,0.984118,-1.063748,-0.6321869999999999,0.404382,0.874182,-0.268816,0.178371,3.4290839999999996,-0.28634,-0.126047,6.731714,0.257021
410,0.978798,-1.0433139999999999,-0.680179,0.41768599999999995,0.8640770000000001,-0.280875,2.61452,1.181923,1.186338,0.683754,1.452589,0.45082700000000003
411,0.936363,-1.0042799999999998,-0.743985,0.432245,0.843776,-0.318101,1.700971,0.536234,-0.118174,-0.273539,-1.209956,0.9221659999999999
412,0.959773,-1.026814,-0.7358319999999999,0.423888,0.8556549999999999,-0.29691,-2.317311,0.701029,-1.0811469999999999,0.704286,-1.4256010000000001,0.626896
413,1.025723,-1.0888280000000001,-0.6731189999999999,0.396336,0.886084,-0.240317,-3.232054,0.9196219999999999,-2.204109,0.025844,-0.659247,0.544211
414,1.1127049999999998,-1.164399,-0.602217,0.35452100000000003,0.918551,-0.174805,-2.90939,1.185961,-2.754467,-0.10586400000000001,-0.363894,0.23863299999999998
415,1.195681,-1.236581,-0.540158,0.305186,0.9446680000000001,-0.12017,-2.5351790000000003,1.220393,-2.897178,0.28745,1.7473029999999998,0.183173
416,1.367758,-1.3217219999999998,-0.37514000000000003,0.24139499999999997,0.969141,-0.049697000000000005,-3.7603150000000003,-0.005148,-3.580349,0.23530500000000001,0.619391,-0.15501500000000001
417,1.6488470000000002,-1.386539,-0.065263,0.182588,0.983073,0.014280000000000001,-3.352215,-1.2771290000000002,-2.593105,0.537642,0.332418,-0.395262
418,2.048006,-1.412319,0.34963,0.140106,0.987469,0.07244400000000001,-2.635397,-0.191255,-1.707138,1.346283,0.34274699999999997,-0.652065
419,2.253632,-1.413538,0.547962,0.121427,0.98766,0.098764,-0.45330600000000004,0.857246,-0.47119399999999995,-0.10668699999999999,0.211452,-0.364114
420,2.272348,-1.418772,0.5516800000000001,0.115605,0.988467,0.09767999999999999,0.258469,0.5432,-0.341906,-0.209263,0.41496099999999997,-0.08857000000000001
421,2.337601,-1.4312850000000001,0.6207189999999999,0.10006799999999999,0.990284,0.096415,-0.040242,-0.606718,-1.026181,-0.317766,0.172741,-0.07598300000000001
422,2.413744,-1.451247,0.7202390000000001,0.079266,0.9928620000000001,0.08895800000000001,0.49511700000000003,-1.2610709999999998,-1.15513,-0.21819699999999997,-0.677692,-0.195922
423,2.4224740000000002,-1.477111,0.749401,0.061526,0.9956149999999999,0.070274,1.113224,-0.8565159999999999,-0.8297959999999999,-0.110568,-0.8715459999999999,-0.159065
424,2.247092,-1.5055530000000001,0.58392,0.050691,0.997872,0.040681999999999996,1.610163,-0.235748,-0.390218,0.144011,-1.237557,-0.175875
425,1.728046,-1.517743,0.058462,0.052139,0.9985930000000001,0.008267,1.599475,0.549415,0.403458,0.251053,-1.172833,0.083301
426,1.229464,-1.495474,-0.45123199999999997,0.070755,0.997165,-0.025135,1.8178189999999999,0.325953,1.217119,-0.028229,-0.8287530000000001,0.098011
427,1.028103,-1.447525,-0.653718,0.10520999999999998,0.9924120000000001,-0.063452,2.084699,-0.186644,2.099854,0.38716100000000003,-0.457545,-0.54693
428,0.8752709999999999,-1.356082,-0.785509,0.163537,0.977037,-0.136499,4.585781,-1.7722060000000002,4.032541999999999,1.420447,1.295683,0.12281199999999999
429,0.834518,-1.215034,-0.78145,0.25806399999999996,0.9373809999999999,-0.23388,4.2055,-1.8937259999999998,5.445435,0.001335,1.9689599999999998,0.183542
430,0.812303,-1.093418,-0.7730319999999999,0.33349,0.8882030000000001,-0.316012,3.989706,-1.45177,3.8036410000000003,-0.202585,1.823895,0.19989200000000001
431,0.7544350000000001,-1.0198260000000001,-0.8112779999999999,0.358533,0.852017,-0.381452,3.026868,-1.152994,1.586381,-0.617688,1.031024,0.45835600000000004
432,0.717808,-0.95258,-0.8455030000000001,0.381204,0.814914,-0.436561,3.144531,0.030405,1.515184,-0.45883999999999997,0.971722,0.45525299999999996
433,0.710191,-0.9037,-0.8635719999999999,0.403377,0.785622,-0.46911899999999995,1.6559270000000001,0.15498699999999999,1.2215479999999999,0.160603,0.13536800000000002,-0.147672
434,0.707338,-0.875072,-0.858958,0.41648500000000005,0.76759,-0.48716800000000005,0.5754229999999999,-0.535882,0.7032069999999999,0.23897100000000002,0.11804500000000001,-0.471434
435,0.700853,-0.8700700000000001,-0.853663,0.415789,0.764374,-0.492788,0.017772,-0.27403,0.17341199999999998,0.63986,0.362121,-0.473963
436,0.7019880000000001,-0.863223,-0.851808,0.419717,0.759942,-0.4963,0.120277,-0.014366,0.41628100000000007,0.955023,0.356132,-0.091926
437,0.702021,-0.8650040000000001,-0.829168,0.41885900000000004,0.7610979999999999,-0.495252,-0.802041,-1.415748,0.5526399999999999,0.514612,-0.380986,0.084119
438,0.700292,-0.8684120000000001,-0.800982,0.416328,0.763304,-0.493989,-0.583098,-0.693025,0.512651,-0.10550599999999999,-0.557066,0.181535
439,0.700381,-0.8726719999999999,-0.786556,0.41427200000000003,0.766049,-0.491462,-0.505323,-0.711646,0.041063999999999996,-0.655926,-1.028897,0.336417
440,0.693537,-0.890497,-0.7686529999999999,0.40210500000000005,0.777384,-0.483707,-1.5399040000000002,-1.075843,-0.15904400000000002,-0.889791,-1.5293370000000002,1.000415
441,0.724032,-0.932892,-0.716367,0.394466,0.803346,-0.446115,-3.212908,-0.167665,-0.181508,-0.870556,-1.275025,1.047525
442,0.791044,-0.9855149999999999,-0.640161,0.39281900000000003,0.833557,-0.388408,-3.31889,0.417729,-0.22893200000000002,-0.707684,-0.985458,0.654918
443,0.8602850000000001,-1.028424,-0.570731,0.391259,0.8564870000000001,-0.336646,-2.4684209999999998,0.527274,-0.388706,-0.697228,-1.005886,0.45253699999999997
444,0.907309,-1.057669,-0.528341,0.386745,0.8712129999999999,-0.302321,-1.214609,0.504017,-0.454694,-1.252437,-0.355115,-0.588334
445,0.906616,-1.060268,-0.53696,0.38475,0.8724870000000001,-0.301192,1.004789,0.311201,0.018254,-1.085968,2.2787889999999997,0.44277799999999995
446,0.936861,-1.0521790000000002,-0.5628479999999999,0.399357,0.868505,-0.293591,0.43573900000000004,4.591791000000001,-0.365083,-1.04549,5.62295,1.109234
447,0.966506,-1.041358,-0.5890270000000001,0.41559399999999996,0.8630909999999999,-0.286948,1.416942,2.028239,0.24005500000000002,0.296336,1.725761,0.43144899999999997
448,0.950666,-1.012257,-0.639547,0.43126099999999995,0.84803,-0.30796599999999996,1.58935,1.155441,0.17507999999999999,-0.105485,-1.043663,0.878217
449,0.9741,-1.0301209999999998,-0.647007,0.425756,0.857361,-0.289215,-1.7861310000000001,1.882498,-1.293666,0.917322,-1.470505,0.516617
450,1.061508,-1.094021,-0.5850069999999999,0.400658,0.8884790000000001,-0.223737,-3.2789949999999997,1.596384,-2.240558,0.708671,-0.898443,0.592939
451,1.176057,-1.169478,-0.492281,0.360567,0.9205469999999999,-0.15021400000000001,-3.308343,1.4918069999999999,-2.702101,0.038085,0.286774,-0.048684
452,1.294758,-1.238162,-0.40016399999999996,0.314139,0.945185,-0.088986,-2.42867,1.504211,-2.57099,0.506479,1.276952,-0.055728
453,1.461908,-1.30208,-0.23481999999999997,0.263876,0.9641120000000001,-0.028847,-3.361648,-0.337441,-2.8795900000000003,0.47828100000000007,1.2821639999999999,0.085457
454,1.733691,-1.354636,0.073133,0.21158200000000002,0.976728,0.034774,-3.6656489999999997,-1.6457970000000002,-2.3010610000000002,0.723843,0.49817100000000003,-0.092223
455,2.051229,-1.372747,0.416832,0.174422,0.980452,0.090902,-2.558211,-0.393735,-1.754409,1.0794540000000001,0.587114,-0.5949300000000001
456,2.2606189999999997,-1.37627,0.619416,0.14905,0.981139,0.122972,-0.871339,0.9106360000000001,-0.938859,0.9177379999999999,0.45369,-0.781007
457,2.330775,-1.387573,0.671218,0.13201300000000002,0.9832620000000001,0.12546600000000002,0.279269,0.852024,-0.865585,-0.311303,0.024916999999999998,-0.278039
458,2.428235,-1.408984,0.764558,0.105368,0.9869370000000001,0.12175899999999999,0.147357,-0.160216,-1.4922549999999999,-0.42806099999999997,0.091539,-0.116006
459,2.5562080000000003,-1.4328239999999999,0.9104120000000001,0.075935,0.990497,0.114551,0.443162,-1.129257,-1.5722690000000001,-0.344841,-0.174808,-0.18074400000000002
460,2.650226,-1.459317,1.025669,0.052432000000000006,0.993793,0.097977,0.9684780000000001,-0.804882,-1.095793,-0.06363200000000001,-0.750262,-0.115784
461,2.665629,-1.487743,1.047376,0.037937,0.996553,0.073594,1.302273,-0.033864,-0.526155,0.128094,-1.3084120000000001,-0.116852
462,2.457459,-1.507724,0.8310069999999999,0.039705000000000004,0.9980120000000001,0.048686,1.235349,0.646948,0.570637,0.294051,-1.375941,-0.08164500000000001
463,1.8650779999999998,-1.505177,0.21756799999999998,0.062569,0.997848,0.018963,1.91298,1.058743,1.430489,-0.05201,-0.848449,0.146152
464,1.2950110000000001,-1.4704959999999998,-0.362709,0.096231,0.994974,-0.027232999999999997,2.466602,0.063231,1.8853529999999998,0.546667,-0.144953,-1.04575
465,0.9754510000000001,-1.3960549999999998,-0.677048,0.14388900000000002,0.984771,-0.09746,4.659009999999999,-0.8920899999999999,2.855813,1.583634,1.19046,-0.475523
466,0.8236959999999999,-1.2563520000000001,-0.78803,0.22689,0.9509690000000001,-0.210144,4.951474,-2.135799,5.395408,0.378243,1.9945419999999998,0.29232800000000003
467,0.799876,-1.1273879999999998,-0.770559,0.307709,0.9032950000000001,-0.298925,4.2958419999999995,-2.130325,4.330078,-0.005035,1.7706400000000002,0.175298
468,0.751564,-1.047783,-0.795976,0.341034,0.866318,-0.364929,2.629086,-0.750622,1.474129,-0.746537,1.803467,0.223892
469,0.716761,-0.985933,-0.837709,0.362682,0.833788,-0.416228,3.258521,0.500509,1.070998,-0.562145,1.057493,0.487486
470,0.6905819999999999,-0.92932,-0.8800790000000001,0.381152,0.8012130000000001,-0.461267,2.687237,0.287725,0.965799,0.344953,0.033656,0.06759
471,0.678656,-0.881199,-0.893616,0.399383,0.771502,-0.495242,1.680885,-0.407792,1.2779909999999999,0.268463,-0.14827200000000001,-0.334851
472,0.6652279999999999,-0.8563270000000001,-0.8917219999999999,0.40442,0.755441,-0.515502,0.573079,-0.721738,0.563492,0.59082,0.113685,-0.247896
473,0.667138,-0.846432,-0.887724,0.410009,0.7489210000000001,-0.520576,0.08175,0.29737800000000003,0.27888,0.770839,0.285335,-0.06437000000000001
474,0.681315,-0.853384,-0.867074,0.414058,0.75351,-0.5106539999999999,-1.022938,-0.376849,0.414101,0.690053,-0.33049,-0.351071
475,0.692329,-0.8587389999999999,-0.837551,0.417075,0.757019,-0.502949,-0.6493369999999999,-0.386356,0.602594,-0.19538,-0.55574,0.134694
476,0.6986979999999999,-0.861548,-0.8223809999999999,0.4189,0.758851,-0.49865299999999996,-0.34025,-0.522671,0.059065999999999994,-0.759812,-1.219438,0.655803
477,0.6787810000000001,-0.873886,-0.814339,0.402977,0.766829,-0.49956999999999996,-1.031923,-1.627924,-0.265884,-0.794304,-1.6891009999999997,0.8554510000000001
478,0.681016,-0.910273,-0.777299,0.386261,0.789671,-0.47666400000000003,-2.794148,-0.8547799999999999,-0.274911,-0.737839,-1.116133,1.0950870000000001
479,0.729356,-0.963358,-0.716504,0.380344,0.8211129999999999,-0.42555600000000005,-3.162773,0.370816,-0.35383200000000004,-0.725727,-1.059134,0.839298
480,0.7927029999999999,-1.006874,-0.6555270000000001,0.380693,0.8451649999999999,-0.375171,-2.467258,0.705604,-0.23083,-0.6523909999999999,-1.0314139999999998,0.423465
481,0.850878,-1.037004,-0.606464,0.382535,0.860884,-0.335454,-1.627707,0.9210659999999999,-0.228446,-1.310376,-0.541578,-0.1244
482,0.896193,-1.048953,-0.57835,0.389276,0.8669020000000001,-0.31133299999999997,-0.5693199999999999,1.1095709999999999,0.197448,-0.683602,0.22703099999999998,-0.73455
483,0.967159,-1.0469549999999999,-0.551383,0.411796,0.8659040000000001,-0.283929,-0.6300899999999999,3.346604,0.527442,-0.986564,4.67624,1.7167599999999998
484,0.998503,-1.049777,-0.576846,0.418436,0.8673120000000001,-0.26955999999999997,0.7177939999999999,2.21996,-0.21159099999999997,0.324362,4.170819,0.514997
485,0.971184,-1.0178969999999998,-0.639437,0.433532,0.8510059999999999,-0.296348,2.438556,0.976441,0.246402,-0.234069,-1.167473,0.724068
486,0.966677,-1.020376,-0.676702,0.430454,0.852305,-0.2971,-0.773649,1.7487,-0.946728,0.404888,-1.975352,0.766781
487,1.033306,-1.068288,-0.631827,0.41369799999999995,0.8763770000000001,-0.246574,-2.531524,1.190561,-1.8353009999999998,0.478835,-0.585957,0.542579
488,1.10994,-1.135068,-0.576713,0.378015,0.9065629999999999,-0.187691,-2.7520759999999997,1.306912,-2.501425,0.022482,0.08333600000000001,-0.022164
489,1.196659,-1.203276,-0.5100180000000001,0.334419,0.933221,-0.131303,-2.4971099999999997,1.274178,-2.528444,0.32666799999999996,0.797003,-0.080565
490,1.361256,-1.272092,-0.364708,0.287806,0.9557190000000001,-0.061204999999999996,-3.5770690000000003,0.790798,-2.7212389999999997,0.253607,0.580292,-0.166883
491,1.566274,-1.331281,-0.134251,0.237177,0.971453,-0.001073,-3.29809,-1.419638,-2.433379,0.748953,0.404188,0.087865
492,1.870643,-1.3653790000000001,0.195737,0.19481099999999998,0.9789760000000001,0.06023,-3.2349639999999997,-0.561563,-2.087934,1.120862,0.486677,-0.050388
493,2.1412970000000002,-1.3720940000000001,0.468508,0.166075,0.980324,0.10656600000000001,-1.651043,0.902904,-0.993433,0.585527,0.519737,-0.775649
494,2.24288,-1.369004,0.547736,0.156783,0.979709,0.12474500000000001,-0.387409,1.212229,-0.057786000000000004,-0.349258,0.694226,-0.28584699999999996
495,2.309259,-1.372737,0.599288,0.145457,0.98045,0.132406,-0.2192,0.369949,-0.823584,-0.29087399999999997,0.7174560000000001,-0.175787
496,2.388288,-1.390716,0.688246,0.122466,0.9838290000000001,0.13059,0.29634699999999997,-0.8366,-1.371775,-0.222579,-0.139667,-0.203329
497,2.423975,-1.420668,0.746263,0.09829199999999999,0.9887520000000001,0.11260899999999999,1.0951899999999999,-1.027292,-1.2634020000000001,-0.10535699999999999,-0.59332,-0.20114100000000001
498,2.360579,-1.457093,0.696492,0.07979299999999999,0.9935430000000001,0.080496,1.7935029999999998,-0.462635,-0.81914,0.020168000000000002,-1.056577,-0.091619
499,2.111186,-1.489168,0.444953,0.069785,0.9966700000000001,0.041868,1.944292,0.393281,-0.276527,0.187448,-1.327511,-0.039854
500,1.667448,-1.496146,-0.018430000000000002,0.07406900000000001,0.997215,0.007181,1.7531700000000001,1.190626,0.557534,0.174557,-1.1624370000000002,0.228384
501,1.246856,-1.470491,-0.46375500000000003,0.094817,0.994974,-0.031837,2.264208,0.9526819999999999,1.276049,-0.113067,-0.816995,0.011634
502,1.0271549999999998,-1.418798,-0.6957979999999999,0.12952,0.9884700000000001,-0.07828099999999999,2.56606,0.28378600000000004,2.054544,0.8155640000000001,0.276956,-0.5687989999999999
503,0.8486389999999999,-1.3246639999999998,-0.860109,0.182802,0.9698620000000001,-0.161029,5.326022,-1.63415,3.4991519999999996,1.467542,1.213442,0.003192
504,0.7991020000000001,-1.176606,-0.87369,0.275251,0.923308,-0.267809,4.3746599999999995,-1.237132,5.735264,0.677111,1.764802,0.179048
505,0.816708,-1.051051,-0.8321620000000001,0.362001,0.8679459999999999,-0.340014,3.8382169999999998,-1.363798,4.843987,0.066695,2.4994099999999997,-0.22933800000000001
506,0.776003,-0.9709209999999999,-0.855666,0.395412,0.825406,-0.402913,2.8822330000000003,-0.8254,1.573201,-0.730175,1.431002,0.431187
507,0.7484,-0.91715,-0.890592,0.413774,0.793872,-0.44558400000000004,2.5227459999999997,0.048449,1.005549,-0.5048239999999999,0.785367,0.373837
508,0.716303,-0.868693,-0.908558,0.424043,0.7634850000000001,-0.487099,1.8907459999999998,-1.3600860000000001,1.346907,0.1837,-0.161145,-0.365425
509,0.6735140000000001,-0.8408370000000001,-0.907666,0.415926,0.745202,-0.5212180000000001,0.41351400000000005,-2.428219,0.41287700000000005,0.387312,0.147529,-0.196174
510,0.653985,-0.84386,-0.9056360000000001,0.40429699999999996,0.747214,-0.52745,-0.28572800000000004,0.024388999999999997,-0.13139800000000001,0.735962,0.368738,-0.222504
511,0.677534,-0.850142,-0.896516,0.413654,0.751374,-0.514116,-0.638997,1.022517,0.183186,0.7973140000000001,-0.012833,-0.076826
512,0.703811,-0.8595219999999999,-0.871027,0.422439,0.75753,-0.497675,-0.886335,-0.090924,0.45421300000000003,0.038575,-0.589852,0.11792899999999999
513,0.718951,-0.8629180000000001,-0.846584,0.428228,0.7597430000000001,-0.48928299999999997,-0.581126,-0.154513,0.37417399999999995,-0.276708,-0.734047,0.133494
514,0.720753,-0.8742489999999999,-0.8298409999999999,0.4234,0.767062,-0.482012,-0.964829,-0.821167,-0.143603,-0.796828,-1.247683,0.402804
515,0.721912,-0.898206,-0.805473,0.41169399999999995,0.7822100000000001,-0.467591,-1.8166959999999999,-0.6850689999999999,-0.14011400000000002,-0.9766809999999999,-1.613967,0.8555459999999999
516,0.769977,-0.941249,-0.745776,0.409851,0.808294,-0.422691,-3.257501,0.382065,-0.15475,-0.884109,-1.025168,0.941581
517,0.8497290000000001,-0.988217,-0.665751,0.41323000000000004,0.835046,-0.363211,-3.101326,0.749957,-0.11461199999999999,-0.7408359999999999,-0.881006,0.639197
518,0.9214370000000001,-1.022192,-0.59549,0.41534399999999994,0.853253,-0.315327,-2.158968,0.5666869999999999,-0.121682,-0.767257,-0.966001,0.237781
519,0.971442,-1.041242,-0.553066,0.417087,0.863032,-0.28494899999999995,-0.954607,0.764907,-0.119933,-1.307742,-0.500315,-0.179635
520,1.0007139999999999,-1.040773,-0.538092,0.425588,0.8627950000000001,-0.272838,-0.060640999999999994,1.2074559999999999,0.587566,-0.776708,0.8480200000000001,-0.3904
521,1.092247,-1.043066,-0.518354,0.44698699999999997,0.863952,-0.231883,0.170938,4.023942,-0.6514260000000001,-0.431774,6.997361,-0.12236500000000002
522,1.114767,-1.033385,-0.544968,0.459583,0.859037,-0.225431,1.641514,1.5795709999999998,0.626753,0.556561,0.084216,0.385588
523,1.082424,-1.0136479999999999,-0.608589,0.466938,0.848767,-0.24808400000000003,1.470969,0.8957379999999999,-0.574244,0.028576,-1.038616,0.606162
524,1.099815,-1.040629,-0.616833,0.450604,0.8627229999999999,-0.229448,-1.689011,1.404858,-1.542345,0.759586,-1.060873,0.525804
525,1.1589459999999998,-1.0962120000000002,-0.569527,0.41873699999999997,0.889483,-0.182918,-2.284376,0.892193,-2.290397,0.38172399999999995,-0.611132,0.473629
526,1.234567,-1.159991,-0.508794,0.37696,0.9168,-0.131747,-2.3785819999999998,1.061778,-2.526282,0.24253200000000003,0.44521499999999997,-0.204907
527,1.331996,-1.2236989999999999,-0.42323999999999995,0.33048299999999997,0.940364,-0.080454,-2.705485,1.011487,-2.719712,0.716667,1.2913709999999998,0.1831
528,1.5341989999999999,-1.293305,-0.223095,0.273715,0.9617459999999999,-0.010022,-3.822513,-0.326363,-3.1167700000000003,0.754132,1.094681,-0.07696900000000001
529,1.839665,-1.339197,0.120776,0.22123,0.973301,0.060958000000000005,-3.9856550000000004,-1.615022,-2.524463,0.8828959999999999,0.6309779999999999,-0.31995999999999997
530,2.156796,-1.353491,0.47256400000000004,0.179572,0.976482,0.11919600000000001,-2.623065,-0.977693,-1.9154209999999998,0.9721920000000001,0.521534,-0.552729
531,2.316137,-1.355689,0.638178,0.156805,0.9769530000000001,0.14472100000000002,-0.593404,0.27081700000000003,-0.748096,0.311136,0.27736500000000003,-0.594321
532,2.366018,-1.36257,0.678693,0.144682,0.978399,0.147553,0.066411,0.493884,-0.627337,-0.448805,0.549021,-0.14436400000000002
533,2.431598,-1.3796110000000001,0.746315,0.12380999999999999,0.9817799999999999,0.144046,0.307313,-0.43435100000000004,-1.272875,-0.44542,0.300996,-0.22900700000000002
534,2.473947,-1.406191,0.807771,0.101397,0.986483,0.128606,0.896632,-1.001232,-1.212485,-0.323366,-0.316775,-0.329625
535,2.460755,-1.438307,0.8114399999999999,0.08308,0.991236,0.10256199999999999,1.435345,-0.712447,-0.9046489999999999,-0.075161,-1.0706579999999999,-0.170021
536,2.325825,-1.470305,0.6823779999999999,0.072956,0.9949549999999999,0.06865399999999999,1.789634,-0.030318,-0.235409,0.033474000000000004,-1.2826600000000001,-0.16159500000000002
537,1.955509,-1.483509,0.299818,0.080657,0.996193,0.032657,1.8764889999999999,0.842024,0.783163,0.07775900000000001,-1.0371629999999998,0.11028699999999998
538,1.45594,-1.4659149999999999,-0.22022199999999997,0.10387300000000001,0.994505,-0.011983,2.749535,0.766406,1.353379,-0.103369,-0.830275,0.229848
539,1.082498,-1.414052,-0.6036239999999999,0.13779,0.987741,-0.07319400000000001,3.256279,0.171004,1.956954,0.114728,-0.434564,-0.775881
540,0.8568520000000001,-1.322397,-0.8279049999999999,0.185777,0.9693069999999999,-0.160959,5.730019,-0.92564,2.860127,1.759795,1.37754,0.100641
541,0.7820229999999999,-1.176962,-0.872373,0.270404,0.923444,-0.27223600000000003,4.424646,-0.9776,5.7929580000000005,0.078671,2.118548,0.539555
542,0.803103,-1.054168,-0.831197,0.355392,0.869489,-0.343026,3.8726949999999998,-1.150562,4.5053220000000005,-0.2854,1.5511190000000001,0.22004
543,0.758549,-0.9737870000000001,-0.8578030000000001,0.386691,0.8270200000000001,-0.408034,2.916697,-0.9514799999999999,1.37384,-0.468905,1.388464,-0.20872600000000002
544,0.727017,-0.915309,-0.894914,0.405123,0.792751,-0.45542,2.862421,0.344613,0.97549,0.012998,0.235859,0.170828
545,0.706509,-0.86925,-0.922444,0.418975,0.763845,-0.490904,1.920406,-0.192967,0.8969590000000001,0.461503,-0.12396800000000001,-0.24154899999999999
546,0.681631,-0.842864,-0.9343309999999999,0.41918999999999995,0.7465510000000001,-0.51665,0.824507,-1.032733,0.331701,0.347136,-0.096985,-0.340131
547,0.6691239999999999,-0.8350549999999999,-0.9347540000000001,0.4163,0.741333,-0.526409,0.188852,-0.189397,0.174492,0.496069,0.279876,-0.21817399999999998
548,0.673758,-0.833992,-0.9307469999999999,0.41922600000000004,0.7406189999999999,-0.52509,-0.403019,0.08226900000000001,0.149714,0.6225069999999999,-0.125919,0.084615
549,0.691246,-0.8458370000000001,-0.897285,0.42272200000000004,0.748526,-0.510883,-1.43839,-0.622777,0.7383850000000001,0.640465,-0.49089700000000003,-0.10743399999999999
550,0.7140810000000001,-0.859243,-0.854561,0.42766499999999996,0.7573479999999999,-0.49346999999999996,-1.342884,-0.38410700000000003,0.377687,-0.291267,-0.532235,-0.011871
551,0.713519,-0.8805799999999999,-0.832752,0.41671400000000003,0.771109,-0.48138000000000003,-1.223678,-1.254799,-0.43328199999999994,-0.46662600000000004,-0.8272,0.246959
552,0.700635,-0.9089,-0.8131729999999999,0.39623600000000003,0.788828,-0.469822,-1.8361619999999998,-1.1774209999999998,-0.338314,-0.8247030000000001,-1.669931,1.038822
553,0.736137,-0.9523940000000001,-0.763548,0.38924200000000003,0.814806,-0.429613,-2.920182,0.2686,-0.308215,-0.877295,-1.135149,0.941926
554,0.801673,-0.995924,-0.697076,0.39066799999999996,0.8392620000000001,-0.378155,-2.675655,0.5353100000000001,-0.085727,-0.84303,-0.9314399999999999,0.664242
555,0.858592,-1.024601,-0.6401979999999999,0.393163,0.854507,-0.339445,-1.7281919999999997,0.381525,-0.011614,-0.793523,-0.9541780000000001,0.42730500000000005
556,0.8999530000000001,-1.038592,-0.605456,0.397458,0.861691,-0.315433,-0.731798,0.6993689999999999,0.092147,-1.3531,-0.46493100000000004,-0.030910000000000003
557,0.932459,-1.034958,-0.590042,0.41001099999999996,0.859841,-0.304213,-0.067522,1.55166,0.5635760000000001,-0.848671,1.0029219999999999,-0.252046
558,1.013175,-1.044124,-0.584739,0.426497,0.8644850000000001,-0.26598099999999997,0.148839,4.538225,-1.6350040000000001,-1.602965,4.994127,1.6643270000000001
559,1.024675,-1.045477,-0.640568,0.42852799999999996,0.8651639999999999,-0.26045100000000004,2.02697,1.7460369999999998,0.488227,0.70015,-0.360602,0.660399
560,1.0038200000000002,-1.035218,-0.700531,0.43046899999999994,0.859973,-0.274084,0.562962,1.7459040000000001,-1.137151,0.37452399999999997,-1.096012,0.5322319999999999
561,1.053775,-1.073726,-0.6869609999999999,0.41450600000000004,0.878983,-0.23569400000000001,-2.16257,1.924179,-1.531363,0.9419700000000001,-1.842988,0.654776
562,1.124049,-1.132515,-0.643984,0.382709,0.905482,-0.183337,-2.0731,1.676195,-2.4629779999999997,0.178173,-0.597133,-0.041669
563,1.197471,-1.19767,-0.606614,0.339389,0.931192,-0.132936,-1.968735,1.746532,-2.826603,0.221494,-0.622842,-0.09207
564,1.2874780000000001,-1.266269,-0.53088,0.28784699999999996,0.953989,-0.083807,-2.801011,0.7365079999999999,-2.8685099999999997,0.958902,1.309515,0.092489
565,1.487242,-1.3388200000000001,-0.31494,0.229041,0.9732139999999999,-0.019181999999999998,-3.677121,-1.529128,-2.959321,0.9125909999999999,1.006675,-0.029677
566,1.8511950000000001,-1.378391,0.092362,0.183679,0.981547,0.052897,-4.020681,-1.4883709999999999,-2.199062,1.058066,0.484227,-0.3426
567,2.193352,-1.384917,0.45866899999999994,0.150071,0.9827739999999999,0.10771700000000001,-2.185937,-0.29417600000000005,-1.398361,0.803466,0.47711099999999995,-0.6772060000000001
568,2.325469,-1.3894540000000002,0.589479,0.131321,0.9836020000000001,0.12348900000000002,-0.005163,0.21405700000000003,-0.6499119999999999,-0.08797100000000001,0.000666,-0.676834
569,2.3208439999999997,-1.408169,0.583435,0.11839300000000001,0.9868049999999999,0.110305,0.888943,-0.148572,-0.783139,-0.411484,0.06907200000000001,-0.203475
570,2.3176900000000002,-1.435791,0.595106,0.09868400000000001,0.990901,0.091362,0.8703799999999999,-1.1258540000000001,-1.193282,-0.502904,0.093206,-0.140328
571,2.305414,-1.468402,0.611236,0.075744,0.994762,0.06841699999999999,1.122076,-1.418475,-1.227468,-0.352035,-0.387264,0.070133
572,2.218512,-1.5001639999999998,0.543585,0.056116,0.9975069999999999,0.042457,1.337653,-0.6225689999999999,-0.918266,-0.21235,-0.925867,-0.021537999999999998
573,1.8402669999999999,-1.523995,0.16683499999999998,0.044804000000000004,0.9989049999999999,0.012374,1.5410190000000001,0.168819,-0.268381,0.034206,-1.347797,1.6e-05
574,1.212336,-1.512577,-0.47177399999999997,0.054265999999999995,0.9983059999999999,-0.020331000000000002,1.8348360000000001,0.69476,0.883473,0.148203,-1.01918,0.347387
575,0.883007,-1.465276,-0.817005,0.08128300000000001,0.9944379999999999,-0.06678400000000001,2.612764,0.702083,1.573627,-0.06060700000000001,-0.71212,0.012661
576,0.7702720000000001,-1.389633,-0.943738,0.125414,0.983635,-0.12926600000000002,3.8960440000000003,0.397741,2.50913,0.47015200000000007,-0.075264,-0.49545900000000004
577,0.677369,-1.255093,-1.02265,0.194573,0.950578,-0.24191,6.233798999999999,-1.284622,5.080665,1.1583780000000001,1.618529,0.166044
578,0.727982,-1.106242,-0.950033,0.298086,0.894021,-0.334443,3.959725,-0.370261,5.630835,1.054865,1.675086,0.25857600000000003
579,0.740037,-0.9985120000000001,-0.917795,0.365168,0.840666,-0.399895,2.701807,-0.84141,2.537627,-0.06186900000000001,1.7510700000000001,-0.443168
580,0.733839,-0.948051,-0.9243610000000001,0.39061999999999997,0.81228,-0.433129,1.8010560000000002,0.689052,1.2742129999999998,-0.88531,1.113135,0.41654300000000005
581,0.723596,-0.908169,-0.939931,0.40729899999999997,0.7883789999999999,-0.461032,1.7961880000000001,-0.50583,0.9231969999999999,0.285938,0.029355000000000003,-0.171719
582,0.693433,-0.8728440000000001,-0.945725,0.410762,0.7661600000000001,-0.494226,1.099085,-1.7668990000000002,0.94024,0.380299,-0.07304400000000001,-0.308844
583,0.6629109999999999,-0.857353,-0.937269,0.402746,0.756113,-0.515824,0.146028,-1.5063819999999999,0.55403,0.444392,0.2096,-0.22705
584,0.659768,-0.854203,-0.9294180000000001,0.40258,0.754047,-0.518968,-0.247613,0.088838,0.237316,0.615608,0.22375100000000003,0.102357
585,0.683333,-0.861146,-0.903573,0.41138100000000005,0.75859,-0.505265,-0.87777,-0.100355,0.676469,0.798122,-0.630629,0.18431199999999998
586,0.7006720000000001,-0.8611549999999999,-0.8705350000000001,0.420076,0.758595,-0.49805200000000005,-0.710267,-0.542095,0.7102510000000001,-0.45654399999999995,-0.7965899999999999,-0.042949
587,0.69463,-0.875238,-0.843125,0.410179,0.767696,-0.49232299999999996,-1.340878,-1.8235729999999999,-0.0862,-0.672523,-1.0458479999999999,0.205717
588,0.676977,-0.9037729999999999,-0.81776,0.38753899999999997,0.785666,-0.48221,-1.8192169999999999,-1.5911629999999999,-0.249004,-0.811841,-1.594047,0.80974
589,0.700547,-0.944838,-0.77589,0.37766700000000003,0.8104020000000001,-0.447884,-2.6891580000000004,0.06471,-0.402481,-0.881726,-1.2341229999999999,1.052132
590,0.751268,-0.992007,-0.723259,0.37335999999999997,0.837126,-0.39975700000000003,-2.685202,0.39947699999999997,-0.47338500000000006,-0.74337,-0.9439219999999999,0.929069
591,0.793446,-1.031773,-0.677575,0.36585300000000004,0.85821,-0.360011,-1.950419,0.021169,-0.543612,-0.5630729999999999,-0.9352520000000001,0.526408
592,0.805455,-1.050721,-0.661195,0.35835700000000004,0.8677819999999999,-0.344262,-0.180302,-0.142717,-0.255436,-1.1374549999999999,-0.333984,-0.156134
593,0.832095,-1.047146,-0.6706,0.369691,0.866,-0.33668200000000004,-0.38767399999999996,4.547337000000001,0.012707,-0.832673,2.53494,0.7568779999999999
594,0.8952459999999999,-1.031641,-0.691866,0.40063200000000004,0.858143,-0.321038,1.1927379999999999,2.5805029999999998,0.590288,-0.628125,6.339321,-0.090827
595,0.8688879999999999,-0.9803709999999999,-0.752417,0.425101,0.8307040000000001,-0.359446,3.353364,0.644173,0.762753,-0.514792,-1.2207649999999999,0.806086
596,0.836829,-0.967175,-0.808388,0.421466,0.823285,-0.38019899999999995,0.29593800000000003,0.89066,-1.214833,-0.358752,-1.464673,0.9790760000000001
597,0.860725,-1.01962,-0.8025220000000001,0.397109,0.851909,-0.341376,-2.760345,0.83431,-2.3203549999999997,0.46068000000000003,-0.715206,1.084601
598,0.927901,-1.1139709999999998,-0.7543449999999999,0.353023,0.897457,-0.264433,-4.364939,1.1587049999999999,-3.197238,0.234578,0.044513,0.676619
599,1.021391,-1.2139309999999999,-0.680588,0.297902,0.9369959999999999,-0.182401,-3.4786839999999994,1.560419,-3.192631,0.355083,0.403534,0.11306500000000001
600,1.168395,-1.297614,-0.547535,0.24820599999999998,0.962917,-0.105643,-4.357183999999999,0.430569,-2.799941,0.318445,1.4568219999999998,0.152259
601,1.440185,-1.37579,-0.252834,0.192055,0.9810459999999999,-0.025228,-4.124144,-1.3767989999999999,-2.570602,0.974892,0.498003,-0.07786
602,1.866611,-1.416402,0.202461,0.147015,0.9881049999999999,0.044804000000000004,-3.301768,-0.837766,-2.219445,1.239444,0.37987600000000005,-0.376682
603,2.19326,-1.427718,0.549621,0.115764,0.9897819999999999,0.083076,-1.312872,-0.730517,-1.195151,0.619786,0.075038,-0.849434
604,2.2973060000000003,-1.435876,0.664301,0.100465,0.9909120000000001,0.089279,0.008391,-0.362179,-0.681125,-0.524995,-0.19744,-0.28834499999999996
605,2.3824560000000004,-1.445453,0.75049,0.085966,0.9921549999999999,0.09060399999999999,-0.19856,0.084918,-0.954472,-0.818754,0.192889,-0.063657
606,2.5432930000000002,-1.457086,0.918746,0.063835,0.993542,0.093648,0.021147,-0.60216,-1.1507459999999998,-0.48636599999999997,0.210758,-0.106313
607,2.626599,-1.477466,1.020882,0.045825,0.995648,0.080972,0.9029969999999999,-0.924783,-0.888868,-0.221606,-0.413037,-0.025583
608,2.608708,-1.5068840000000001,1.009085,0.032333,0.997958,0.054821,1.492314,0.195737,-0.563585,0.125168,-1.211017,-0.13991900000000002
609,2.218657,-1.530138,0.601089,0.032143,0.999174,0.024327,1.547393,1.154336,0.489907,0.344398,-1.464002,-0.039006
610,1.4334639999999998,-1.513249,-0.207619,0.056742999999999995,0.998345,-0.007842,1.7649650000000001,1.071302,1.6174389999999998,0.21074400000000001,-0.634117,-0.123796
611,1.0878370000000002,-1.457816,-0.574026,0.099746,0.993625,-0.052303999999999996,2.877152,0.835,2.469405,0.841996,0.17471,-0.491992
612,0.865418,-1.342958,-0.774556,0.171933,0.9741569999999999,-0.146405,5.399344999999999,-2.641625,4.699493,1.79465,0.943522,-0.198993
613,0.7998270000000001,-1.1998469999999999,-0.784755,0.25997800000000004,0.931984,-0.25258200000000003,4.489922,-2.6907349999999997,4.981624,0.118272,1.527474,0.277134
614,0.738516,-1.098574,-0.785558,0.306199,0.89056,-0.336345,2.5384740000000003,-2.989652,2.308503,0.07466,1.670537,0.18679300000000001
615,0.694763,-1.053991,-0.799447,0.316317,0.869402,-0.37956100000000004,2.315743,-0.7250489999999999,0.948472,-1.023791,1.556638,0.5832510000000001
616,0.656774,-1.0043090000000001,-0.8427530000000001,0.327664,0.843791,-0.42501400000000006,2.4062040000000002,0.279614,0.5771430000000001,-0.366375,0.19250899999999999,0.32864
617,0.652251,-0.9662950000000001,-0.8588020000000001,0.344969,0.822786,-0.45166999999999996,1.525777,0.450201,1.037588,0.089022,0.038207,-0.052908000000000004
618,0.665497,-0.930559,-0.856351,0.368848,0.801954,-0.4699,1.327292,0.546342,1.1429,0.104952,0.091967,-0.24790399999999999
619,0.673475,-0.8994219999999999,-0.855548,0.387977,0.782968,-0.486232,1.047379,0.406806,0.849499,0.298699,-0.007653,-0.42990600000000007
620,0.691459,-0.8827440000000001,-0.851892,0.40493,0.7724840000000001,-0.48916899999999996,0.23408800000000002,0.8789319999999999,0.43728900000000004,0.636437,-0.401696,0.047122000000000004
621,0.707581,-0.880358,-0.832399,0.41396000000000005,0.770967,-0.483976,-0.48864799999999997,-0.221861,0.621658,0.379314,-0.528077,0.112166
622,0.72448,-0.881697,-0.81187,0.42139499999999996,0.7718189999999999,-0.476138,-0.436783,0.032966,0.254226,-0.164391,-0.745162,0.11351300000000002
623,0.721254,-0.8919959999999999,-0.799508,0.41458500000000004,0.7783260000000001,-0.471501,-1.0140069999999999,-0.897467,-0.19833499999999998,-0.7227819999999999,-1.5088110000000001,0.7262460000000001
624,0.727312,-0.9284190000000001,-0.7615890000000001,0.398312,0.800674,-0.44749700000000003,-2.768017,-1.3178299999999998,-0.38096399999999997,-0.9456600000000001,-1.560943,0.9319639999999999
625,0.768319,-0.981627,-0.691809,0.386141,0.8314020000000001,-0.399561,-3.4716940000000003,-0.3901,-0.272768,-0.738207,-1.194485,0.9776100000000001
626,0.8352700000000001,-1.02673,-0.613081,0.383791,0.855611,-0.3473,-2.770164,0.165964,-0.07950499999999999,-0.5807359999999999,-1.096883,0.617426
627,0.89412,-1.055209,-0.549722,0.384393,0.8700030000000001,-0.308736,-1.7200080000000002,0.25810900000000003,-0.057333,-0.552484,-1.024605,0.080282
628,0.9313799999999999,-1.068019,-0.51928,0.386652,0.8762469999999999,-0.287528,-0.5459970000000001,0.677651,0.03472,-0.9680270000000001,-0.691174,-0.132393
629,0.968824,-1.060423,-0.5030789999999999,0.402618,0.8725620000000001,-0.27661399999999997,0.158496,1.9888169999999998,0.801739,-0.658508,-0.070377,-2.860594
630,1.066286,-1.064742,-0.4777,0.42432,0.874664,-0.234298,-0.480137,2.882745,-0.547691,-0.64127,7.089111999999999,1.347244
631,1.087273,-1.039915,-0.49647299999999994,0.44823599999999997,0.862361,-0.23536700000000002,2.0810400000000002,0.549715,1.5102879999999999,0.43434799999999996,-0.6567029999999999,0.689484
632,1.026987,-1.005164,-0.569695,0.458621,0.84425,-0.277291,1.650434,0.299689,0.208643,-0.752062,-2.119854,1.362069
633,1.103758,-1.030155,-0.507875,0.45954799999999996,0.8573790000000001,-0.231725,-3.441578,1.4072149999999999,-1.145462,0.5381779999999999,-1.849932,0.408422
634,1.2039790000000001,-1.099292,-0.429258,0.423986,0.8908860000000001,-0.16289800000000002,-2.706292,1.579034,-2.923409,0.435434,-0.39419699999999996,-0.078664
635,1.23961,-1.173406,-0.415621,0.365954,0.922074,-0.125834,-1.182202,1.649257,-3.68945,0.18696400000000002,0.430312,-0.053488
636,1.350732,-1.258804,-0.328873,0.29951300000000003,0.951724,-0.066997,-3.3806809999999996,0.886207,-3.8362879999999997,0.702257,1.678632,0.581936
637,1.544255,-1.335532,-0.106727,0.232961,0.972453,-0.006184,-3.571228,-1.685002,-2.698804,0.426295,0.9830530000000001,-0.064296
638,1.8619700000000001,-1.370876,0.252844,0.190165,0.980083,0.056991,-3.230682,-1.692147,-2.273401,0.194357,0.341512,-0.12258800000000002
639,2.135916,-1.379383,0.539976,0.160604,0.981736,0.101839,-1.815089,0.651303,-1.065834,1.450496,0.6365350000000001,-0.31755300000000003
640,2.274753,-1.381774,0.652911,0.143173,0.982188,0.121564,-0.289669,1.571839,-0.558567,0.058976,-0.354976,-0.723341
641,2.330907,-1.389925,0.686764,0.13031500000000001,0.9836870000000001,0.123886,0.178146,0.722309,-0.5713020000000001,-0.151281,-0.19226,-0.603576
642,2.364146,-1.40883,0.720396,0.113053,0.9869120000000001,0.11486500000000001,0.595742,-0.36700900000000003,-1.04769,-0.41906800000000005,0.201122,-0.363019
643,2.371219,-1.434825,0.738871,0.094325,0.99077,0.097202,0.993771,-0.490227,-0.9486110000000001,-0.28594400000000003,-0.533846,-0.086903
644,2.298239,-1.4632610000000001,0.668218,0.080062,0.994224,0.071281,1.448137,0.090462,-0.572304,-0.212783,-0.763053,-0.162849
645,2.073084,-1.483296,0.43629700000000005,0.076456,0.996174,0.041995,1.4470180000000001,0.33360700000000004,0.161245,0.227942,-1.325642,-0.043674
646,1.715614,-1.4768540000000001,0.068218,0.092679,0.995591,0.013516,1.6474419999999999,0.604721,1.1845860000000001,0.151233,-0.906159,0.358691
647,1.339939,-1.4433770000000001,-0.31758600000000003,0.12360399999999999,0.991893,-0.029053,2.305381,0.171809,1.7815310000000002,-0.07914,-0.7252,0.171646
648,1.1111719999999998,-1.381489,-0.54696,0.16859100000000002,0.9821350000000001,-0.083449,3.537403,-0.484543,2.612441,1.390995,0.659162,-0.614808
649,0.9160149999999999,-1.255232,-0.70721,0.246139,0.9506209999999999,-0.188979,5.119457,-2.601394,5.536041,0.616075,1.908418,0.588302
650,0.878007,-1.122575,-0.703639,0.333442,0.9012190000000001,-0.276769,3.794281,-1.818868,4.668,-0.14875,1.772197,0.361669
651,0.827569,-1.039915,-0.721042,0.372766,0.862361,-0.34258099999999997,2.411618,-1.555623,1.5783200000000002,-0.6370779999999999,2.129842,0.137045
652,0.778139,-0.9822559999999999,-0.769648,0.389679,0.831752,-0.395378,3.332057,0.391972,0.979777,-0.5489350000000001,1.1415,0.496147
653,0.748935,-0.925415,-0.822,0.409531,0.79887,-0.44054,2.772277,0.644505,0.916791,-0.313263,0.321705,0.346043
654,0.737186,-0.8772120000000001,-0.8440030000000001,0.429733,0.7689600000000001,-0.473304,1.916841,-0.020334,1.152017,0.224075,-0.074166,-0.25713400000000003
655,0.720477,-0.841815,-0.8501559999999999,0.43945500000000004,0.745854,-0.500568,1.1888100000000001,-0.8582709999999999,0.875609,0.04286,0.175762,-0.25603899999999996
656,0.708529,-0.8257110000000001,-0.8568319999999999,0.44120299999999996,0.7350300000000001,-0.514838,0.5291710000000001,0.130672,0.024771,0.193868,0.232621,-0.253152
657,0.7128399999999999,-0.8271930000000001,-0.8539129999999999,0.442705,0.736034,-0.5121060000000001,-0.657299,-0.188676,0.195285,0.691908,0.10313800000000001,0.011770000000000001
658,0.724527,-0.838518,-0.8188380000000001,0.44310600000000006,0.743653,-0.500624,-1.277471,-0.774158,0.627538,0.31878,-0.347794,-0.023165
659,0.738214,-0.848132,-0.790867,0.44508400000000004,0.750047,-0.4892,-0.7765,-0.19436900000000001,0.123958,0.012085,-0.441804,0.022616999999999998
660,0.7303029999999999,-0.8608959999999999,-0.783271,0.434778,0.7584270000000001,-0.485534,-0.6733520000000001,-1.0564559999999998,-0.42755600000000005,-0.518778,-1.026996,0.242675
661,0.724118,-0.888655,-0.766554,0.41765399999999997,0.776225,-0.47225600000000006,-2.017431,-0.6475850000000001,-0.545359,-0.7710319999999999,-1.562571,1.035839
662,0.759545,-0.9382360000000001,-0.721748,0.407094,0.806516,-0.42870699999999995,-2.9750099999999997,0.242738,-0.718763,-0.8476610000000001,-1.383772,1.088482
663,0.810724,-0.9885430000000001,-0.667853,0.398554,0.835225,-0.378861,-2.7059830000000002,0.355484,-0.642253,-0.721934,-0.967275,0.566682
664,0.855914,-1.0268760000000001,-0.621843,0.390783,0.8556860000000001,-0.339221,-1.827435,0.295693,-0.570878,-0.770254,-0.9290809999999999,0.032519
665,0.8784420000000001,-1.047535,-0.603374,0.384633,0.866194,-0.318977,-0.47513299999999997,0.39876100000000003,-0.345783,-1.187993,-0.557081,-0.076454
666,0.8957219999999999,-1.04559,-0.602615,0.391401,0.8652209999999999,-0.313335,0.202506,1.603759,0.354955,-0.667524,0.032912000000000004,-1.355793
667,0.96388,-1.042574,-0.6070399999999999,0.41397399999999995,0.8637040000000001,-0.287438,0.8957719999999999,3.770668,-0.27964,-0.360248,7.097996000000001,0.332574
668,0.989856,-1.011782,-0.64107,0.443329,0.847778,-0.291052,2.594338,1.78452,1.294374,0.172271,-0.149506,0.42319300000000004
669,0.95215,-0.9771209999999999,-0.706531,0.455719,0.82889,-0.324412,1.5939889999999999,0.738795,-0.327493,-0.44032299999999996,-1.355791,1.146128
670,0.996825,-1.009199,-0.690048,0.44718500000000005,0.846405,-0.289144,-2.695903,1.6408369999999999,-1.605233,0.9433030000000001,-1.025284,0.369908
671,1.068921,-1.077477,-0.637228,0.415134,0.8807659999999999,-0.22780100000000003,-2.817243,1.300713,-2.489064,0.731731,-0.482145,0.326876
672,1.136016,-1.147676,-0.595005,0.37238000000000004,0.9118120000000001,-0.172941,-2.083694,1.7355049999999999,-2.8978990000000002,0.186305,-0.020881999999999998,-0.14621199999999998
673,1.2098149999999999,-1.22127,-0.545942,0.320348,0.939535,-0.120939,-2.7522439999999997,0.943809,-3.068197,0.533503,1.405008,0.20945500000000003
674,1.34184,-1.3026229999999999,-0.394644,0.25800700000000004,0.9642569999999999,-0.060127,-3.450703,-1.648527,-3.131711,0.344578,0.07169299999999999,-0.021187
675,1.572706,-1.361323,-0.113444,0.207877,0.978141,0.000397,-3.714425,-1.9973759999999998,-2.245414,0.276712,0.11503,0.101242
676,1.902945,-1.3881379999999999,0.243748,0.171638,0.9833639999999999,0.059203,-2.686239,-0.343298,-1.46589,1.013939,0.382175,-0.47840699999999997
677,2.1127830000000003,-1.3932950000000002,0.435672,0.15119100000000002,0.9842879999999999,0.091037,-0.768005,1.5667010000000001,-0.7221390000000001,0.7930229999999999,0.19178299999999998,-0.687839
678,2.167106,-1.4019620000000002,0.46882799999999997,0.138958,0.9857809999999999,0.094315,0.21820100000000003,0.647472,-0.5378149999999999,-0.133663,0.025419,-0.567857
679,2.213134,-1.419483,0.516254,0.12061199999999998,0.988574,0.09024,0.18171700000000002,-0.45156999999999997,-1.118843,-0.30641799999999997,0.1078,-0.16249
680,2.268821,-1.444821,0.592904,0.096164,0.9920760000000001,0.080674,0.550608,-1.247551,-1.38337,-0.410175,-0.154933,-0.13433900000000001
681,2.261565,-1.474819,0.606891,0.073744,0.995398,0.060959000000000006,1.138857,-0.815292,-1.033711,-0.255598,-0.563971,-0.13331600000000002
682,2.061454,-1.502132,0.41427299999999995,0.060333000000000005,0.9976440000000001,0.032232,1.52654,-0.188165,-0.49128599999999994,-0.12678499999999998,-1.027123,-0.055334
683,1.572091,-1.509963,-0.079251,0.060570000000000006,0.99815,7.8e-05,1.67562,0.391541,0.394568,0.154869,-1.312619,0.010084000000000001
684,1.1455469999999999,-1.481989,-0.518147,0.08065499999999999,0.996059,-0.036527,2.0157700000000003,0.535877,1.299407,0.185,-0.9933129999999999,0.358869
685,0.981059,-1.429625,-0.690261,0.116862,0.990052,-0.07820099999999999,2.2238119999999997,0.17814000000000002,2.134531,-0.054315999999999996,-0.702882,-0.24134899999999998
686,0.849879,-1.341021,-0.808593,0.17105399999999998,0.9737180000000001,-0.150304,4.657997,-1.37211,3.55396,1.0103879999999998,0.068107,-0.244975
687,0.792531,-1.19521,-0.82086,0.261203,0.930293,-0.25750300000000004,4.739887,-2.021824,5.584987,0.696682,1.714452,0.275478
688,0.782838,-1.068325,-0.796786,0.339652,0.876395,-0.341395,3.996403,-1.8585009999999997,4.282762,0.10263900000000001,1.7922759999999998,-0.060124000000000004
689,0.734406,-0.9976709999999999,-0.817725,0.36338400000000004,0.84021,-0.402471,2.650292,-1.225907,1.502649,-0.643886,1.778503,-0.027247000000000004
690,0.707557,-0.9380940000000001,-0.8524520000000001,0.384341,0.806433,-0.44937,2.839769,0.571425,1.019902,-0.742496,1.26063,0.45407
691,0.690952,-0.885141,-0.874525,0.403501,0.774005,-0.48794499999999996,2.202813,-0.248117,1.391448,-0.016782,0.33962800000000004,0.114074
692,0.679791,-0.838784,-0.870455,0.420151,0.743831,-0.519785,1.356042,-1.026399,1.483739,0.239182,0.127584,-0.192557
693,0.670692,-0.816038,-0.8611049999999999,0.42581099999999994,0.728437,-0.536704,0.32828,-0.289688,0.62638,0.637696,0.24461599999999997,-0.279901
694,0.690381,-0.81858,-0.850526,0.43511400000000006,0.7301770000000001,-0.526787,-0.702518,1.010464,0.059902,0.792471,-0.11948900000000001,-0.21593400000000001
695,0.717683,-0.8313879999999999,-0.825944,0.44314499999999996,0.7388680000000001,-0.507626,-1.1374790000000001,-0.092644,0.30717300000000003,0.505784,-0.315436,-0.398853
696,0.7266859999999999,-0.8386020000000001,-0.797794,0.44414499999999996,0.7437090000000001,-0.499619,-0.715037,-0.729366,0.395329,0.009713,-0.669017,0.12156700000000001
697,0.716224,-0.850814,-0.783759,0.43289799999999995,0.751818,-0.49735,-0.8650760000000001,-1.3385719999999999,-0.305692,-0.628179,-1.2952139999999999,0.553929
698,0.7011850000000001,-0.876901,-0.764891,0.41257299999999997,0.7687609999999999,-0.48864799999999997,-1.8771740000000001,-1.253021,-0.309666,-0.722327,-1.662468,0.787506
699,0.737376,-0.92465,-0.714259,0.40482199999999996,0.7984100000000001,-0.445697,-3.252597,0.448308,-0.469937,-0.846915,-1.22651,1.095126
700,0.807599,-0.9784940000000001,-0.647209,0.403414,0.829658,-0.385887,-3.156213,0.794076,-0.441933,-0.749178,-0.9247049999999999,0.649269
701,0.8753610000000001,-1.0187950000000001,-0.581367,0.402602,0.851477,-0.335977,-2.333508,0.53161,-0.254252,-0.666975,-0.9510709999999999,0.194437
702,0.9256209999999999,-1.042339,-0.535461,0.402839,0.8635860000000001,-0.303185,-1.18255,0.610179,-0.121331,-1.1257549999999998,-0.61531,-0.103691
703,0.950947,-1.0434370000000002,-0.5197430000000001,0.40961499999999995,0.864139,-0.292335,0.014738,0.735896,0.43486800000000003,-0.7217640000000001,-0.431324,-1.34858
704,1.028745,-1.035517,-0.503725,0.436945,0.8601260000000001,-0.263137,0.198946,4.522874,0.028582999999999997,-1.383677,3.2306939999999997,1.953552
705,1.060392,-1.021636,-0.531139,0.455427,0.8529629999999999,-0.25498899999999997,1.7215799999999999,2.1998130000000002,0.762177,0.16054000000000002,6.210376,0.31076
706,1.0352729999999999,-0.983216,-0.596915,0.476725,0.832284,-0.28286999999999995,2.4387659999999998,1.2736180000000001,0.258831,-0.553446,-0.789011,0.8954799999999999
707,1.040437,-0.992547,-0.6240319999999999,0.471459,0.8374209999999999,-0.276463,-1.148319,1.590589,-1.3038020000000001,0.6742020000000001,-1.921466,0.654149
708,1.102805,-1.0522340000000001,-0.582588,0.44232,0.868533,-0.22356700000000002,-2.529267,1.1532200000000001,-2.617187,1.008105,-1.549517,0.30735300000000004
709,1.165559,-1.1291790000000002,-0.545655,0.392761,0.904062,-0.168487,-2.254627,1.769626,-3.2901059999999998,0.321777,-0.201898,0.225692
710,1.2361719999999998,-1.20773,-0.501843,0.335411,0.9348120000000001,-0.116622,-2.279305,1.004931,-3.311731,0.650704,1.307879,0.181472
711,1.366234,-1.291435,-0.376709,0.269946,0.961232,-0.056004,-3.565914,0.049569999999999996,-3.5758669999999997,0.685987,1.317592,0.006534999999999999
712,1.640121,-1.353615,-0.068953,0.21489499999999997,0.976509,0.014922,-3.945232,-1.6522869999999998,-2.296606,0.21543400000000001,0.150383,-0.18116600000000002
713,1.965855,-1.376,0.295054,0.178584,0.981087,0.07446599999999999,-2.885816,-1.2494969999999999,-1.646653,0.26257800000000003,0.191581,-0.291736
714,2.188023,-1.373078,0.517038,0.16012300000000002,0.980517,0.11364400000000001,-1.3235299999999999,1.0790620000000002,-0.57157,0.979923,0.508634,-0.669094
715,2.245883,-1.372671,0.548793,0.153594,0.9804370000000001,0.12296199999999999,0.319285,1.099927,-0.021738,0.061265,-0.143478,-0.78466
716,2.20721,-1.387975,0.5058060000000001,0.146143,0.9833350000000001,0.107998,0.9239879999999999,-0.236787,-0.5969140000000001,-0.43407700000000005,0.12088299999999999,-0.120144
717,2.165566,-1.4161540000000001,0.478638,0.127495,0.988067,0.086248,1.040269,-1.108174,-1.231645,-0.492424,-0.14918399999999998,-0.11321099999999999
718,2.0918919999999996,-1.448992,0.427433,0.10527,0.992591,0.060427,1.263507,-0.9707889999999999,-1.150145,-0.339294,-0.525245,-0.028901999999999997
719,1.913295,-1.478787,0.258895,0.086391,0.99577,0.030802999999999997,1.528724,-0.318741,-0.872459,-0.25109499999999996,-1.020016,-0.036342
720,1.579266,-1.493811,-0.074762,0.07671900000000001,0.9970379999999999,0.00065,1.464221,0.055689999999999996,-0.148067,0.035952,-1.363005,0.037558
721,1.221049,-1.477687,-0.44088900000000003,0.087207,0.995668,-0.031807999999999996,1.9203009999999998,0.48460600000000004,0.885401,0.18205,-1.062548,0.381662
722,0.9743709999999999,-1.432718,-0.697288,0.11379600000000001,0.990482,-0.077257,2.483979,0.336988,1.613782,-0.069607,-0.642994,-0.104949
723,0.839325,-1.356571,-0.834644,0.158165,0.977141,-0.141964,4.1773940000000005,-0.443381,2.688423,0.7869189999999999,0.063569,-0.449924
724,0.772165,-1.213465,-0.873607,0.24401199999999998,0.9368340000000001,-0.25055700000000003,5.346014,-1.64715,5.934842,1.2725899999999999,1.566325,0.393517
725,0.780907,-1.0738,-0.836683,0.335608,0.8790190000000001,-0.338636,4.2489419999999996,-1.224113,4.991942,-0.280798,1.6577400000000002,0.081586
726,0.747417,-0.984916,-0.839583,0.375844,0.833225,-0.405536,2.354083,-1.333595,1.783795,-0.515904,2.224407,-0.090436
727,0.72964,-0.932702,-0.858657,0.39706199999999997,0.803233,-0.444008,2.409789,0.565474,1.016904,-0.804045,1.424489,0.49655900000000003
728,0.708314,-0.8859389999999999,-0.886956,0.411508,0.774509,-0.480397,2.2113970000000003,-0.37446799999999997,1.014586,0.14411,0.196667,0.111149
729,0.682556,-0.8439909999999999,-0.8923770000000001,0.419137,0.747301,-0.515608,1.32376,-1.582385,1.224646,0.42349899999999996,0.083845,-0.3472
730,0.6530729999999999,-0.8240700000000001,-0.88808,0.41272,0.733917,-0.539458,0.36851100000000003,-1.264836,0.43135500000000004,0.286575,0.273163,-0.201417
731,0.6555840000000001,-0.827449,-0.88195,0.412559,0.736208,-0.536451,-0.703441,0.42620399999999997,-0.0825,0.675621,0.09782300000000001,0.034727
732,0.680942,-0.8436379999999999,-0.855194,0.41847,0.747066,-0.5164880000000001,-1.382002,-0.043168,0.401539,0.5921960000000001,-0.290066,-0.068518
733,0.705696,-0.855661,-0.819014,0.42526899999999995,0.755005,-0.49909899999999996,-1.005788,0.017769999999999998,0.5536399999999999,0.151514,-0.579361,-0.08555700000000001
734,0.718919,-0.866823,-0.79875,0.426253,0.7622770000000001,-0.48706000000000005,-0.854524,-0.264349,-0.15424100000000002,-0.47779799999999994,-0.756997,0.131454
735,0.719675,-0.887445,-0.78682,0.41617,0.775461,-0.474813,-1.211444,-0.409092,-0.410786,-0.7197439999999999,-1.232752,0.487142
736,0.75226,-0.9206290000000001,-0.7524489999999999,0.4136,0.795983,-0.44196199999999997,-2.4228400000000003,0.7347229999999999,-0.35341500000000003,-0.879481,-1.3412709999999999,0.9440370000000001
737,0.814375,-0.965174,-0.698808,0.41402,0.822148,-0.39069499999999996,-2.686219,0.868282,-0.49108999999999997,-0.832355,-1.161564,0.813577
738,0.8682840000000001,-1.004904,-0.648453,0.409202,0.8441110000000001,-0.346427,-2.0786119999999997,0.406402,-0.597349,-0.648185,-0.920969,0.374625
739,0.895863,-1.032643,-0.619242,0.400159,0.858656,-0.320253,-1.114684,0.08332,-0.5581550000000001,-0.658216,-0.8518819999999999,0.074144
740,0.910602,-1.046498,-0.610221,0.395399,0.865676,-0.306994,-0.392135,0.5001439999999999,-0.19472,-0.9678629999999999,-0.59619,0.042834
741,0.961031,-1.049951,-0.580901,0.40791700000000003,0.867399,-0.284958,-1.1261139999999998,2.209448,0.5564,-0.9886510000000001,3.79233,2.827225
742,1.049617,-1.050853,-0.556782,0.430849,0.8678469999999999,-0.247363,0.439975,2.34386,0.483846,0.68579,5.488277,-0.043256
743,1.033627,-1.013935,-0.602085,0.45407,0.8489180000000001,-0.270439,2.724193,0.689287,1.2165620000000001,0.246797,0.310262,0.265876
744,0.996926,-0.995926,-0.6555270000000001,0.456608,0.8392629999999999,-0.295171,0.48752399999999996,0.606639,-0.682231,0.179729,-1.7168419999999998,0.723745
745,1.045664,-1.034658,-0.622911,0.44197299999999995,0.8596879999999999,-0.25607800000000003,-2.61205,0.893546,-1.543871,0.730269,-1.4189530000000001,0.38149
746,1.10541,-1.098341,-0.573987,0.40665300000000004,0.8904540000000001,-0.204211,-2.449059,1.0025629999999999,-2.572639,0.36271,-0.614438,0.48599499999999995
747,1.1673040000000001,-1.16665,-0.5286310000000001,0.361627,0.9194379999999999,-0.154384,-2.389801,0.9614940000000001,-2.743088,0.09134600000000001,0.435191,-0.023808000000000003
748,1.277814,-1.242802,-0.42758599999999997,0.30837800000000004,0.9466899999999999,-0.093026,-3.4821199999999997,0.9206639999999999,-3.30614,0.875994,1.6561080000000001,0.27358299999999997
749,1.4914690000000002,-1.32629,-0.20161500000000002,0.24125700000000003,0.9702569999999999,-0.019178999999999998,-3.997633,-0.847672,-3.1312189999999998,0.694351,1.5161930000000001,-0.004
750,1.814055,-1.369785,0.157789,0.193708,0.979865,0.048073000000000005,-3.441213,-1.60695,-2.348694,0.65932,0.557183,-0.368431
751,2.0974310000000003,-1.3824670000000001,0.459585,0.161777,0.982318,0.094058,-1.807798,0.254425,-1.187058,0.9967309999999999,0.534115,-0.521746
752,2.227779,-1.387051,0.568142,0.144609,0.983166,0.111535,-0.099833,1.365401,-0.511049,0.640104,0.148883,-0.72123
753,2.254922,-1.399382,0.5791229999999999,0.13211900000000001,0.985345,0.107744,0.36646999999999996,0.424125,-0.7554810000000001,-0.22997399999999998,0.076484,-0.23121799999999998
754,2.306546,-1.420591,0.635705,0.110855,0.98874,0.10036,0.406969,-0.560448,-1.258137,-0.319275,-0.018616999999999998,-0.253894
755,2.3489869999999997,-1.446285,0.694944,0.08835599999999999,0.992258,0.087092,0.72014,-0.7814949999999999,-1.129616,-0.263237,-0.270625,-0.25374800000000003
756,2.301625,-1.473403,0.659379,0.07228899999999999,0.9952610000000001,0.0648,1.292239,-0.508352,-0.668772,-0.143715,-0.9461280000000001,-0.110348
757,2.030497,-1.494046,0.391877,0.06854,0.9970559999999999,0.033932,1.628031,-0.002499,0.14263800000000001,0.11586300000000001,-1.414857,-0.16517300000000001
758,1.568977,-1.4863110000000002,-0.077189,0.084214,0.996433,-0.000153,1.863736,0.474283,1.117892,0.13121,-0.938282,0.34371999999999997
759,1.1623620000000001,-1.4470379999999998,-0.490045,0.113187,0.992352,-0.048984,2.735989,-0.06771100000000001,1.635289,-0.026882999999999997,-0.7840689999999999,0.134739
760,0.946059,-1.378966,-0.70127,0.154589,0.981657,-0.111472,3.63093,-0.749367,2.426489,0.550581,-0.418653,-0.7925810000000001
761,0.762759,-1.246773,-0.8455159999999999,0.219952,0.9479620000000001,-0.230143,6.099777,-2.90943,5.2644720000000005,0.972843,2.705175,0.31966700000000003
762,0.7927569999999999,-1.109484,-0.781025,0.317042,0.8954690000000001,-0.31240999999999997,3.1076669999999997,-0.9429629999999999,5.202596,-0.270457,2.762902,0.20547600000000002
763,0.775162,-1.0272270000000001,-0.773142,0.361937,0.8558680000000001,-0.369423,2.398389,-0.99182,1.5240879999999999,-1.083021,1.9462869999999999,0.270775
764,0.736051,-0.96804,-0.812851,0.380598,0.8237760000000001,-0.42014399999999996,3.2844519999999995,0.175331,1.386708,-0.873411,1.100754,0.750024
765,0.711562,-0.900331,-0.853592,0.405744,0.783533,-0.470566,3.054964,0.220485,1.216269,-0.143293,0.477209,0.247406
766,0.6937989999999999,-0.8470690000000001,-0.8700629999999999,0.42343400000000003,0.749343,-0.509092,1.9406970000000001,-0.530079,1.269268,0.12718,-0.191527,-0.098574
767,0.673982,-0.827944,-0.8762700000000001,0.42213100000000003,0.7365430000000001,-0.528485,0.210644,-0.64613,0.09083300000000001,0.011783,-0.139176,-0.41903999999999997
768,0.681715,-0.8299350000000001,-0.877216,0.42528,0.737887,-0.524066,0.022356,0.826926,-0.22322199999999998,0.642103,0.151578,-0.519895
769,0.689331,-0.838736,-0.876519,0.425112,0.743799,-0.51578,-0.799158,-0.259335,-0.123951,1.191083,-0.025384,-0.25192
770,0.6886720000000001,-0.8500209999999999,-0.847333,0.41941000000000006,0.7512949999999999,-0.509546,-0.9969049999999999,-1.060446,0.584994,0.692742,-0.615262,0.18651800000000002
771,0.6993520000000001,-0.858906,-0.8236110000000001,0.42051400000000005,0.757128,-0.49991,-0.760451,-0.232569,0.074975,-0.047559,-0.709612,0.268251
772,0.698162,-0.8749809999999999,-0.809283,0.412041,0.767532,-0.491021,-1.1690040000000002,-0.764668,-0.23805,-0.661065,-1.342773,0.588006
773,0.71772,-0.90805,-0.773386,0.404645,0.788305,-0.463488,-2.536887,-0.056916999999999995,-0.21966999999999998,-0.9558690000000001,-1.278936,1.0499290000000001
774,0.776942,-0.955145,-0.710017,0.404869,0.816398,-0.411775,-3.13302,0.557365,-0.140231,-0.992668,-1.068717,0.8678450000000001
775,0.850211,-0.995928,-0.6345569999999999,0.40855199999999997,0.8392639999999999,-0.35875100000000004,-2.704009,0.47121199999999996,-0.01321,-0.865202,-0.8917229999999999,0.5131399999999999
776,0.9055139999999999,-1.022348,-0.577951,0.41016400000000003,0.8533350000000001,-0.321816,-1.515702,0.37035,-0.062465,-0.853691,-0.947939,0.195122
777,0.9216989999999999,-1.02555,-0.561742,0.41313999999999995,0.855,-0.313483,0.283125,-0.21366100000000002,0.302294,-1.323677,-0.368183,-0.652216
778,0.9278129999999999,-1.012297,-0.585051,0.42408100000000004,0.848051,-0.317717,0.227888,3.933089,-0.35609,-1.602654,3.1073630000000003,1.43019
779,0.9663700000000001,-0.9945799999999999,-0.622202,0.44830699999999996,0.8385299999999999,-0.309625,1.6589669999999999,2.3179950000000002,0.5671689999999999,0.42013199999999995,6.340868,0.188058
780,0.9269639999999999,-0.966368,-0.6948529999999999,0.454506,0.8228270000000001,-0.341115,2.124775,0.6515029999999999,-0.534119,0.270515,-0.30930799999999997,0.748296
781,0.9123549999999999,-0.995991,-0.731897,0.430001,0.839298,-0.33265300000000003,-1.166541,1.073545,-2.521042,1.095222,-1.57259,0.8988
782,0.950124,-1.0607440000000001,-0.715546,0.397146,0.872719,-0.283929,-2.518948,0.658884,-2.0813040000000003,1.15951,-1.7706990000000002,0.246423
783,1.025128,-1.126326,-0.652943,0.367516,0.902839,-0.22314099999999998,-3.346798,1.365988,-2.102948,-0.216881,-0.603171,0.43291899999999994
784,1.1256680000000001,-1.1964219999999999,-0.5701189999999999,0.33002600000000004,0.930736,-0.157442,-2.932491,0.831399,-2.240374,0.326148,0.600254,-0.45194799999999996
785,1.271311,-1.25803,-0.42558900000000005,0.293955,0.951486,-0.090765,-3.922387,0.34831999999999996,-2.054389,0.641897,0.89115,-0.261438
786,1.524502,-1.320075,-0.153497,0.24778000000000003,0.968734,-0.011479000000000001,-4.219346,-0.773188,-2.386175,0.818489,0.586869,0.08504199999999999
787,1.831652,-1.350801,0.171174,0.210775,0.9758979999999999,0.056264,-3.030564,0.109922,-1.5522,0.977915,0.805107,-0.5063979999999999
788,2.039271,-1.3587200000000001,0.36638699999999996,0.187744,0.9775959999999999,0.09500800000000001,-0.99308,0.996919,-0.8276690000000001,0.7224729999999999,0.9099010000000001,-0.8378059999999999
789,2.075661,-1.373553,0.39055700000000004,0.171448,0.98061,0.094748,0.6187199999999999,0.387588,-0.8946780000000001,-0.093475,0.429195,-0.579505
790,2.088187,-1.402884,0.403485,0.145169,0.985936,0.082616,0.547269,-0.25298200000000004,-1.545971,-0.29380500000000004,0.266704,0.23911500000000002
791,2.105555,-1.4370610000000001,0.439645,0.114623,0.9910709999999999,0.06789400000000001,0.749233,-1.190887,-1.605316,-0.269301,0.022677000000000003,0.21158600000000002
792,2.053832,-1.4707860000000001,0.407087,0.088286,0.9950030000000001,0.046304000000000005,1.130256,-0.749644,-1.1919540000000002,-0.05154299999999999,-0.734841,0.0055
793,1.8240490000000003,-1.4964979999999999,0.182686,0.071671,0.9972409999999999,0.018549,1.461856,-0.002017,-0.631916,-0.025361,-1.240008,-0.100382
794,1.4277819999999999,-1.499196,-0.225994,0.07061100000000001,0.9974379999999999,-0.010168,1.511835,0.9483219999999999,0.360662,0.10282000000000001,-1.46866,-0.08117100000000001
