,attitude.roll,attitude.pitch,attitude.yaw,gravity.x,gravity.y,gravity.z,rotationRate.x,rotationRate.y,rotationRate.z,userAcceleration.x,userAcceleration.y,userAcceleration.z
0,-2.7613779999999997,-1.160449,0.143743,-0.14804900000000001,0.916982,0.370435,0.9865450000000001,0.234877,0.579805,-0.039389999999999994,-0.886007,-0.266325
1,-2.758137,-1.181193,0.131378,-0.1421,0.92506,0.352234,0.70189,1.031474,0.6173890000000001,0.32668600000000003,-1.304454,-0.555725
2,-2.756167,-1.191837,0.110952,-0.13908399999999999,0.92905,0.34280900000000003,0.129942,0.945311,0.549411,0.557678,-1.6744880000000002,-0.36235500000000004
3,-2.757851,-1.192104,0.085768,-0.138413,0.929149,0.342812,-0.28228200000000003,1.3396860000000002,0.318495,0.602738,-1.375697,-0.360085
4,-2.723157,-1.191106,0.080578,-0.150598,0.9287790000000001,0.338652,0.13359100000000002,2.355962,-0.04203,0.428903,-0.8985209999999999,-0.22239499999999998
5,-2.660557,-1.196501,0.08851,-0.169167,0.930766,0.324119,0.229436,2.8592310000000003,0.026361000000000002,0.209313,-0.09389700000000001,-0.364494
6,-2.641421,-1.182129,0.067663,-0.18173499999999998,0.925415,0.33252800000000005,-1.4434049999999998,1.179905,-0.00881,-0.199246,0.117951,-0.340097
7,-2.646968,-1.152259,0.041194,-0.192927,0.913684,0.35770799999999997,-1.4314120000000001,1.016589,-0.468921,-0.361913,-0.9448280000000001,-0.30122
8,-2.600016,-1.138583,0.069927,-0.21592600000000003,0.908041,0.35893400000000003,0.391048,0.972037,-1.0297690000000002,0.6619550000000001,-0.763342,-1.349779
9,-2.5596400000000004,-1.133409,0.11290399999999999,-0.232818,0.905861,0.353846,-0.33214099999999996,-0.753763,-0.6565949999999999,0.679656,-0.30956300000000003,0.132741
10,-2.581856,-1.138045,0.122726,-0.222667,0.907816,0.35536799999999996,1.1828379999999998,-1.089405,0.44614,0.567958,0.9354,0.554193
11,-2.604849,-1.138241,0.093098,-0.214348,0.907897,0.360241,-0.333671,2.668598,0.5012340000000001,-0.5444260000000001,2.4684150000000002,-0.848232
12,-2.515854,-1.175781,0.125623,-0.225386,0.922991,0.311907,2.517833,1.203395,0.539053,-0.40973000000000004,0.002897,0.057325
13,-2.45139,-1.235792,0.171934,-0.209326,0.944409,0.25351999999999997,2.961776,1.178099,1.6830470000000002,-0.276713,0.373813,0.141896
14,-2.397538,-1.318411,0.212997,-0.169123,0.9683200000000001,0.183719,4.116751,0.644777,2.450236,-0.377477,0.9977600000000001,0.426541
15,-2.191896,-1.4093879999999999,0.41292399999999996,-0.13069,0.987002,0.09351799999999999,4.776829,0.545315,1.710423,-0.45533900000000005,1.470899,0.735034
16,-1.492318,-1.459017,1.10261,-0.111196,0.9937590000000001,-0.008744,5.209393,0.7314890000000001,0.600119,-0.550974,1.427383,0.540208
17,-0.7876,-1.429382,1.80732,-0.099878,0.9900180000000001,-0.099439,3.968461,-0.163622,0.680192,-0.331808,0.568149,0.38209299999999996
18,-0.468537,-1.3898110000000001,2.141455,-0.08128300000000001,0.983667,-0.160599,2.647247,-0.46994300000000006,1.172352,0.040085,0.20085799999999998,0.35125700000000004
19,-0.280967,-1.3672950000000001,2.342972,-0.056039,0.9793649999999999,-0.194173,1.203047,-0.5418350000000001,1.488164,0.181344,-0.646022,0.138769
20,-0.148005,-1.358874,2.492148,-0.031018,0.977628,-0.20803899999999997,0.553673,-0.6687,1.276556,-0.022541,-0.861906,0.378617
21,-0.084589,-1.357038,2.570293,-0.017922999999999998,0.977241,-0.21137399999999998,-0.004107,-0.683886,0.49715,-0.123511,-0.8170390000000001,0.298166
22,-0.110945,-1.3558860000000001,2.560498,-0.023611,0.9769959999999999,-0.21194699999999997,0.128094,-0.975469,-0.490727,-0.288736,-1.118033,0.080752
23,-0.227792,-1.350487,2.465938,-0.04935,0.97583,-0.212885,0.017679,-1.384259,-1.26223,-0.192044,-1.114471,0.043315
24,-0.362105,-1.3478290000000002,2.363404,-0.078331,0.975246,-0.20678400000000002,-0.372832,-1.827163,-0.9866530000000001,0.197045,-0.8969530000000001,0.11130999999999999
25,-0.493867,-1.3544459999999998,2.260984,-0.101759,0.9766870000000001,-0.18901400000000002,-1.005403,-1.391041,-0.8111,0.566206,-0.721835,0.176532
26,-0.640725,-1.3723,2.133146,-0.117878,0.9803639999999999,-0.158082,-1.72705,-0.930674,-0.49412799999999996,0.597019,-0.656283,0.26915100000000003
27,-0.818871,-1.401239,1.964618,-0.12324500000000001,0.9856600000000001,-0.11525899999999999,-2.375554,-0.37337,0.026193,0.186111,-0.45512700000000006,-0.322714
28,-1.098152,-1.433334,1.6811509999999998,-0.122002,0.990567,-0.06238,-2.633563,-0.023463,-0.14056400000000002,-0.215522,1.228992,-0.173308
29,-1.63452,-1.439932,1.154316,-0.13022,0.991449,0.008309,-4.222645,-1.056773,-0.36291599999999996,-0.469908,1.60465,-0.575112
30,-2.222982,-1.400077,0.604597,-0.135019,0.9854629999999999,0.10310899999999999,-4.503307,-2.923525,-0.554764,-0.324331,1.644023,-0.6083270000000001
31,-2.464691,-1.337609,0.39712800000000004,-0.144742,0.972935,0.18012899999999998,-3.029541,-0.548491,-0.634039,0.929075,1.51054,0.647127
32,-2.5595939999999997,-1.300845,0.28459,-0.146594,0.963784,0.222777,-2.080177,0.478297,0.440567,0.42332700000000006,1.2981790000000002,0.524171
33,-2.675287,-1.270197,0.164952,-0.13312000000000002,0.955159,0.26448,-2.146346,-0.248904,0.668568,-0.41725,0.970088,0.369935
34,-2.753144,-1.2382469999999999,0.08927,-0.123646,0.945213,0.302133,-1.81302,-0.153321,0.186869,-0.813976,0.696327,0.27611399999999997
35,-2.771729,-1.210769,0.073397,-0.127352,0.9358870000000001,0.32847600000000005,-1.0299200000000002,-0.275088,-0.40998199999999996,-0.595518,0.354518,0.142929
36,-2.773682,-1.203734,0.073658,-0.129075,0.933386,0.334859,0.087677,0.099361,0.084454,0.030182999999999998,-0.919897,-0.17827300000000001
37,-2.776077,-1.220198,0.065213,-0.12276300000000001,0.939167,0.320769,1.0047979999999999,0.267808,0.587367,0.246862,-1.144795,-0.531432
38,-2.789275,-1.241333,0.04492,-0.111643,0.946216,0.303661,0.717735,0.380148,0.7144729999999999,0.324778,-1.186023,-0.39728800000000003
39,-2.816583,-1.249093,0.0075959999999999995,-0.100963,0.9486979999999999,0.299629,-0.163057,0.42287299999999994,0.650582,0.44730699999999995,-1.745482,-0.250145
40,-2.83353,-1.241133,-0.029151,-0.09815700000000001,0.946152,0.30848400000000004,-0.655658,1.317672,0.287072,0.258329,-1.331299,-0.27976599999999996
41,-2.801263,-1.236675,-0.038519,-0.109465,0.944699,0.309129,0.0367,2.420132,-0.021426,0.30940100000000004,-1.125149,-0.28163299999999997
42,-2.732325,-1.237909,-0.025478999999999998,-0.13003499999999998,0.945103,0.299784,-0.161902,2.813984,-0.306396,0.132736,-0.210896,-0.419001
43,-2.708709,-1.2092319999999999,-0.031863999999999996,-0.14838900000000002,0.9353450000000001,0.32110900000000003,-1.831382,0.679728,-0.5962649999999999,-0.377749,-0.275341,0.083707
44,-2.696874,-1.168368,-0.029448000000000002,-0.168491,0.920113,0.353558,-1.644902,0.577866,-1.12467,0.3633,-0.514595,-1.58627
45,-2.671011,-1.1283299999999998,-0.003169,-0.194134,0.903698,0.38163,-1.304308,-0.527157,-1.3366559999999998,0.49833299999999997,-0.43203400000000003,-0.593132
46,-2.661068,-1.116299,0.019822,-0.20293,0.898482,0.38929400000000003,0.088437,-0.311523,-0.26005,0.23677399999999998,0.537004,0.507861
47,-2.632711,-1.118463,0.023796,-0.212939,0.89943,0.381684,0.7788609999999999,1.8551990000000003,0.218423,-0.260847,1.424942,-0.570543
48,-2.638255,-1.157414,-0.008594,-0.19376500000000002,0.915768,0.35188800000000003,1.7298369999999998,0.644215,2.262648,-0.302253,1.031269,-0.570195
49,-2.6579330000000003,-1.224121,-0.052269,-0.158002,0.940508,0.3008,3.038948,1.5347549999999999,2.2012169999999998,-0.015567,0.849043,0.42101700000000003
50,-2.638001,-1.310289,-0.063149,-0.124297,0.966259,0.225595,4.216632,1.2197559999999998,2.164981,-0.29785300000000003,1.4427219999999998,0.416404
51,-2.53534,-1.406752,0.031427,-0.093053,0.986575,0.134206,4.814564,0.393704,1.231249,-1.2667190000000002,2.127607,0.9222969999999999
52,-1.991338,-1.476756,0.571649,-0.08572,0.9955809999999999,0.038336,4.6607959999999995,0.201638,0.113061,-0.508991,0.502084,0.569055
53,-1.048735,-1.483559,1.528298,-0.075519,0.9961969999999999,-0.043446,3.7835300000000003,-0.9618,0.9117270000000001,-0.174359,-0.144482,-0.068172
54,-0.462154,-1.454848,2.147392,-0.051582,0.9932850000000001,-0.103551,2.775081,-1.731438,1.37996,-0.13575,-0.50592,0.044881
55,-0.21716300000000002,-1.417435,2.430128,-0.032914,0.9882629999999999,-0.149172,2.10341,-1.750016,1.014233,0.390397,-0.9022040000000001,0.158083
56,-0.12474,-1.3935520000000001,2.557111,-0.021937,0.984333,-0.174947,0.899258,-1.509123,0.6914560000000001,0.412608,-0.584446,0.240011
57,-0.10940599999999999,-1.385553,2.597738,-0.020111,0.982891,-0.183083,0.26911999999999997,-1.09535,0.061614999999999996,0.211135,-0.594754,0.283517
58,-0.158855,-1.382855,2.565815,-0.029555,0.982391,-0.184482,0.06596,-0.8238610000000001,-0.520201,-0.193864,-0.9640040000000001,-0.096707
59,-0.25951599999999997,-1.38086,2.4804720000000002,-0.048447000000000004,0.982016,-0.182473,-0.188754,-0.904539,-0.902164,-0.097335,-1.050208,-0.045860000000000005
60,-0.378263,-1.385808,2.382227,-0.067928,0.9829379999999999,-0.170931,-0.749842,-1.178148,-0.7241350000000001,0.318157,-0.894575,0.061128999999999996
61,-0.5215770000000001,-1.401102,2.254886,-0.08414400000000001,0.9856360000000001,-0.146424,-1.448002,-0.699921,-0.6313479999999999,0.417442,-0.756266,0.021684000000000002
62,-0.7158439999999999,-1.425011,2.06735,-0.095333,0.989392,-0.10960999999999999,-2.023748,-0.385653,-0.401832,0.48058599999999996,-0.751584,0.127326
63,-1.018126,-1.456102,1.766182,-0.09740499999999999,0.9934299999999999,-0.060078,-2.8116630000000002,0.025077000000000002,0.130522,-0.080237,-0.316153,-0.576839
64,-1.5064540000000002,-1.469174,1.2803930000000001,-0.101237,0.994841,-0.006523,-2.676931,-0.583075,-0.548215,0.059276,1.156236,-0.119225
65,-2.142345,-1.430674,0.667538,-0.117467,0.9901989999999999,0.075549,-4.547862,-1.6877229999999999,-0.8012859999999999,0.077214,1.545461,-0.519183
66,-2.4910240000000003,-1.3687690000000001,0.347593,-0.121525,0.979662,0.15967,-3.8042239999999996,-1.614742,-0.250324,0.252796,1.141432,-0.195299
67,-2.633252,-1.3142719999999999,0.213233,-0.123493,0.9672780000000001,0.22163899999999997,-2.617101,0.348136,-0.10781400000000001,0.524464,1.303749,0.60583
68,-2.723278,-1.2771370000000002,0.103307,-0.117583,0.957191,0.264498,-2.365584,0.378227,0.938625,-0.550767,1.435524,0.323133
69,-2.843455,-1.241574,-0.010727,-0.094968,0.9462940000000001,0.309044,-2.066066,-0.943464,0.866567,-0.74483,1.118846,0.581138
70,-2.891677,-1.212038,-0.052954999999999995,-0.086838,0.936333,0.34020300000000003,-1.372511,-0.07559199999999999,-0.18403599999999998,-0.550766,1.0117260000000001,0.392448
71,-2.8642790000000002,-1.192094,-0.019071,-0.10121799999999999,0.9291450000000001,0.355589,-0.404221,-0.210181,-0.931264,-0.23092,-0.236244,0.321748
72,-2.8327419999999996,-1.195929,-0.001075,-0.111296,0.9305559999999999,0.348825,0.613278,1.2605819999999999,0.145385,0.085783,-1.149276,-0.091806
73,-2.816015,-1.217886,-0.009085,-0.110552,0.938371,0.327473,1.085208,1.0728600000000001,0.593302,0.093279,-1.2283030000000001,-0.452748
74,-2.815657,-1.237124,-0.023467,-0.104869,0.944846,0.310272,0.545475,0.323971,0.5285350000000001,0.076014,-1.574775,-0.469283
75,-2.836175,-1.238345,-0.041339999999999995,-0.098134,0.9452450000000001,0.311257,-0.383635,-0.262477,0.13930499999999998,0.16911800000000002,-1.496912,-0.291039
76,-2.832034,-1.2262170000000001,-0.044004,-0.102907,0.941217,0.321745,-0.552153,0.7751600000000001,-0.26164899999999996,0.293581,-0.9098299999999999,-0.12006900000000001
77,-2.794936,-1.219517,-0.032355,-0.11690899999999999,0.938933,0.32363000000000003,-0.087644,1.538571,-0.299975,0.309201,-0.599791,-0.02027
78,-2.7374810000000003,-1.2107700000000001,-0.010956,-0.138525,0.9358879999999999,0.323922,-0.587618,1.93609,-0.7077640000000001,0.163518,-0.007039,-0.219597
79,-2.689395,-1.184919,0.012284,-0.164453,0.9264690000000001,0.338543,-1.081524,0.966309,-0.9834360000000001,0.163767,-0.686234,-0.44901599999999997
80,-2.653876,-1.156698,0.037212,-0.188552,0.91548,0.355451,-1.14383,0.396495,-1.222423,0.437575,-0.45112399999999997,-1.27696
81,-2.645282,-1.12125,0.053944000000000006,-0.206929,0.900644,0.382125,-0.9145690000000001,-0.7984439999999999,-0.963986,0.259419,-0.012369,0.24275300000000002
82,-2.6436990000000002,-1.1152959999999998,0.05959400000000001,-0.21009099999999997,0.898041,0.38650100000000004,-0.26850599999999997,0.501586,-0.025376,0.105965,0.724853,0.228794
83,-2.605666,-1.124421,0.061764,-0.220442,0.902018,0.371172,1.267398,2.0104490000000004,0.398957,-0.08388,0.790197,-0.524325
84,-2.60207,-1.1708889999999998,0.041652,-0.20001,0.9210969999999999,0.334029,2.152521,0.680063,2.257005,-0.228381,0.485962,-0.165724
85,-2.627522,-1.2457200000000002,-0.005651,-0.157048,0.947626,0.2781,3.23752,1.1197709999999998,2.710537,-0.172649,1.521139,0.252814
86,-2.615439,-1.334799,-0.006719,-0.117423,0.972282,0.202188,4.305809,0.34607,1.863345,-0.499566,1.6372309999999999,0.47598900000000005
87,-2.435795,-1.421783,0.167285,-0.096299,0.9889180000000001,0.11299400000000001,4.511616,0.59819,0.708643,-0.791488,1.576573,0.863553
88,-1.873097,-1.48072,0.719356,-0.085873,0.9959459999999999,0.02678,4.07191,0.559267,0.70028,-0.334125,0.35936999999999997,0.522048
89,-0.944649,-1.490808,1.6511209999999998,-0.06474400000000001,0.9968030000000001,-0.046825,3.518273,-0.282646,1.265786,-0.298293,0.073281,0.39439
90,-0.363394,-1.457272,2.248782,-0.040264999999999995,0.993563,-0.10588199999999999,2.598652,-0.796971,1.21302,-0.292346,-0.26697,0.355653
91,-0.143827,-1.421768,2.491607,-0.021281,0.988916,-0.14694300000000002,1.927297,-1.287088,1.018815,-0.017506999999999998,-0.9424680000000001,0.15426700000000002
92,-0.06274500000000001,-1.393186,2.604526,-0.011078,0.9842690000000001,-0.176331,1.137523,-1.563744,0.559659,-0.039886000000000005,-0.751999,0.22065700000000002
93,-0.089894,-1.381492,2.610502,-0.016893000000000002,0.9821350000000001,-0.187415,0.298077,-1.707401,-0.348669,-0.014372,-0.46498500000000004,-0.0028309999999999997
94,-0.198941,-1.3763530000000002,2.529889,-0.038186000000000005,0.9811549999999999,-0.189409,0.07021799999999999,-1.321495,-1.018393,-0.066825,-1.01619,-0.11985599999999999
95,-0.334014,-1.378252,2.41742,-0.062734,0.9815209999999999,-0.180781,-0.7047800000000001,-1.282057,-0.8849879999999999,0.139943,-1.046965,-0.096746
96,-0.482975,-1.393462,2.2945349999999998,-0.081925,0.984317,-0.156228,-1.374795,-1.350717,-0.716529,0.519425,-0.8456450000000001,0.139458
97,-0.703068,-1.415281,2.0905720000000003,-0.100145,0.9879319999999999,-0.118158,-2.156895,-0.768022,-0.834902,0.509599,-0.732225,0.048333999999999995
98,-1.073253,-1.437171,1.72965,-0.117074,0.991085,-0.063585,-3.05724,-0.588672,-0.6833229999999999,0.18956900000000002,-0.612942,-0.5343760000000001
99,-1.6172389999999999,-1.443554,1.1861629999999999,-0.12676199999999999,0.991916,0.0058909999999999995,-3.420168,-0.26726300000000003,-0.5591520000000001,-0.063881,0.487256,-0.051255999999999996
100,-2.119359,-1.403917,0.693762,-0.141734,0.986108,0.086618,-4.567847,-0.928048,-0.817354,-0.264424,1.864585,-0.506876
101,-2.4431990000000003,-1.333711,0.386324,-0.15101900000000001,0.9720270000000001,0.179882,-4.571704,-1.255191,-0.5221319999999999,0.259479,1.546376,-0.157604
102,-2.60601,-1.262218,0.228996,-0.15499300000000002,0.952766,0.261177,-3.6633169999999997,0.18566,-0.12773299999999999,0.7360329999999999,1.139122,0.5924149999999999
103,-2.682848,-1.216149,0.12834600000000002,-0.153774,0.9377690000000001,0.311356,-2.473115,0.83895,0.634977,-0.047458999999999994,1.269323,0.45648199999999994
104,-2.765158,-1.1772479999999999,0.041995,-0.140965,0.9235540000000001,0.356618,-2.334698,-0.593588,0.45083999999999996,-0.711009,1.276748,0.5080060000000001
105,-2.813515,-1.142279,0.005184,-0.133891,0.909583,0.39336,-1.559204,-0.729245,-0.128955,-1.0972030000000002,1.087167,0.45432700000000004
106,-2.822648,-1.124257,0.009376,-0.13541199999999998,0.9019469999999999,0.410067,-0.393702,-0.391457,-0.363733,-0.413554,0.087997,0.444242
107,-2.817489,-1.126782,0.008369,-0.1368,0.903035,0.40720300000000004,0.286352,0.666412,0.364985,0.144795,-0.850514,-0.029852999999999998
108,-2.824951,-1.1450129999999998,-0.016331000000000002,-0.128609,0.910716,0.3925,0.9553299999999999,0.5360699999999999,0.944528,0.08059,-1.132456,-0.375838
109,-2.842921,-1.171705,-0.050348000000000004,-0.11434100000000001,0.921414,0.37137800000000004,1.03647,0.889034,1.049333,0.155432,-1.246793,-0.42515
110,-2.853772,-1.187395,-0.084268,-0.10618699999999999,0.927398,0.35869,0.260875,0.987029,0.65923,0.29535,-1.695327,-0.35193
111,-2.837027,-1.185524,-0.09259400000000001,-0.112698,0.926696,0.35851500000000003,-0.319826,1.501638,-0.188313,0.270702,-1.294036,-0.401987
112,-2.77989,-1.1755959999999999,-0.07244500000000001,-0.136236,0.9229200000000001,0.360082,-0.305431,2.119125,-0.6397930000000001,0.271917,-0.804038,-0.250936
113,-2.717499,-1.162099,-0.050292,-0.16353399999999998,0.917639,0.362209,-0.6419189999999999,2.011698,-0.6558930000000001,0.061834,-0.06603099999999999,-0.088939
114,-2.683218,-1.136411,-0.040757,-0.186223,0.9071290000000001,0.377409,-1.364368,0.703204,-0.7447199999999999,-0.296626,0.156805,-0.295606
115,-2.673568,-1.094062,-0.03465,-0.207011,0.888498,0.409531,-2.021239,0.16042599999999999,-1.368182,0.17509,0.151739,-1.070649
116,-2.648578,-1.067752,0.0013830000000000001,-0.228167,0.8761190000000001,0.42468100000000003,-0.011664,-0.9190780000000001,-1.150868,0.020235,0.131358,0.12413199999999999
117,-2.640146,-1.078322,0.031208999999999997,-0.227275,0.881166,0.41459799999999997,0.65193,-0.620692,0.109614,0.509761,-0.508637,0.0036149999999999997
118,-2.6457330000000003,-1.090943,0.015538999999999999,-0.219646,0.8870629999999999,0.406046,0.553349,0.630926,0.7471869999999999,0.337932,0.0326,-0.575113
119,-2.665884,-1.114157,-0.02213,-0.201933,0.897539,0.391974,1.449095,0.942867,1.880018,-0.026797,0.993452,0.049203
120,-2.701763,-1.190218,-0.09747,-0.15816,0.92845,0.33610100000000004,2.832066,1.746176,3.5860529999999997,0.033038,2.166018,0.663975
121,-2.7310950000000003,-1.279998,-0.156049,-0.114417,0.958015,0.262894,4.3450050000000005,1.237652,2.107103,-1.187478,0.9429549999999999,0.771683
122,-2.606707,-1.378602,-0.059049000000000004,-0.097365,0.9815870000000001,0.164329,4.988503,1.319791,0.723873,-1.158922,0.720942,0.680459
123,-2.267178,-1.462451,0.27628800000000003,-0.08294800000000001,0.994136,0.069355,4.612843,-0.098929,0.992259,-0.723143,0.9362379999999999,0.251553
124,-1.352637,-1.505874,1.213065,-0.063323,0.997893,-0.014038,4.006368,-1.261799,0.88269,-0.043962,0.389924,0.322128
125,-0.533768,-1.478209,2.060957,-0.047035,0.995717,-0.079586,2.878574,-1.2961610000000001,0.8631059999999999,0.033270999999999995,0.079814,0.398144
126,-0.267734,-1.444699,2.352761,-0.033269,0.99206,-0.121277,1.7991439999999999,-1.269898,0.825622,0.114156,-0.580897,0.10759
127,-0.150231,-1.421373,2.498694,-0.02228,0.988857,-0.14718499999999998,1.073258,-1.28376,0.6592680000000001,0.261187,-0.610775,0.2341
128,-0.107998,-1.408479,2.562975,-0.017419,0.9868549999999999,-0.160659,0.46518699999999996,-0.9678690000000001,0.24548699999999998,0.243752,-0.525201,0.11903299999999999
129,-0.12637,-1.404491,2.561054,-0.020863,0.986203,-0.164214,0.097193,-0.6984100000000001,-0.219969,-0.038173,-0.682813,0.021834
130,-0.21510300000000002,-1.403746,2.484454,-0.035489,0.98608,-0.162435,-0.210331,-0.7329140000000001,-0.91428,-0.33768000000000004,-0.9894209999999999,-0.079737
131,-0.403301,-1.407274,2.3142419999999997,-0.063887,0.98666,-0.149727,-0.8673069999999999,-1.1580139999999999,-1.39582,0.07897799999999999,-0.931011,0.014077000000000001
132,-0.6554939999999999,-1.417065,2.083582,-0.093334,0.988207,-0.12138499999999999,-1.601234,-1.2242389999999999,-1.248106,0.28005599999999997,-0.902467,-0.007689
133,-0.9764010000000001,-1.42924,1.785162,-0.116879,0.9899979999999999,-0.079003,-2.2658400000000003,-1.381866,-0.947034,0.415112,-0.44602200000000003,-0.211432
134,-1.430844,-1.432811,1.359404,-0.136192,0.9904950000000001,-0.019186,-3.164387,-1.880585,-0.924898,0.405738,-0.115648,-0.21494499999999997
135,-1.9518080000000002,-1.402145,0.869632,-0.155807,0.9858120000000001,0.062414,-4.2908230000000005,-1.684564,-1.0163389999999999,0.353302,0.9037139999999999,-0.20754099999999998
136,-2.310003,-1.3418700000000001,0.5254300000000001,-0.167698,0.9739110000000001,0.15288,-4.4092150000000006,-0.4261,-0.47505299999999995,0.506916,1.706616,0.154402
137,-2.491963,-1.282253,0.322867,-0.172122,0.958659,0.22658899999999998,-3.509993,0.785153,0.06805900000000001,0.286929,1.9262740000000003,0.292698
138,-2.603602,-1.233966,0.192855,-0.169347,0.943807,0.283806,-2.9863180000000003,0.333646,0.37033,-0.44283500000000003,1.808741,0.32505100000000003
139,-2.684942,-1.18499,0.12231800000000001,-0.165927,0.9264950000000001,0.337742,-2.516728,-1.156104,-0.44487600000000005,-0.977261,0.8750030000000001,0.679805
140,-2.723091,-1.141348,0.103664,-0.169207,0.9091950000000001,0.380431,-1.892534,-0.97477,-0.512319,-0.729444,0.348754,0.380021
141,-2.754689,-1.116618,0.093011,-0.16553800000000002,0.8986219999999999,0.406289,-0.712263,-1.022952,-0.142954,-0.040135000000000004,-0.160905,0.23935599999999999
142,-2.772954,-1.119852,0.085194,-0.15704300000000002,0.9000360000000001,0.406532,0.49483299999999997,-0.386962,0.403047,0.1212,-0.651455,-0.102089
143,-2.783725,-1.1449719999999999,0.079856,-0.144688,0.9106989999999999,0.386895,1.275838,-0.22518000000000002,0.559982,0.24377800000000002,-1.150521,-0.48439899999999997
144,-2.7908169999999997,-1.166431,0.068664,-0.135192,0.9193520000000001,0.36947199999999997,0.679234,0.42464700000000005,0.542164,0.560409,-1.9278060000000001,-0.5549729999999999
145,-2.788605,-1.172151,0.054417999999999994,-0.134189,0.921588,0.36423099999999997,-0.046113999999999995,1.0443559999999998,0.176312,0.6124149999999999,-1.7546259999999998,-0.5443
146,-2.742384,-1.170751,0.065572,-0.151376,0.9210430000000001,0.35883000000000004,0.158247,2.223242,-0.439067,0.393808,-1.1899030000000002,-0.560582
147,-2.660316,-1.1719620000000002,0.098352,-0.179766,0.921515,0.344224,0.363492,2.660864,-0.565312,0.305788,-0.6351220000000001,-0.082109
148,-2.587113,-1.167829,0.12273800000000001,-0.20646399999999998,0.919901,0.333391,-0.2622,2.413368,-0.46788500000000005,0.000791,0.12381500000000001,0.075514
149,-2.568866,-1.149735,0.114298,-0.221498,0.9126559999999999,0.343503,-1.2081620000000002,0.541048,-0.289427,-0.363921,-0.0053219999999999995,-0.031018
150,-2.581257,-1.120892,0.09425700000000001,-0.231123,0.900489,0.368372,-1.475537,0.31316900000000003,-0.612537,0.198241,-0.305884,-1.329875
151,-2.570478,-1.096759,0.106688,-0.246758,0.889733,0.38403400000000004,-0.217322,-0.39093,-0.9158360000000001,0.263329,-0.199364,-0.24046399999999998
152,-2.566185,-1.090786,0.125046,-0.251293,0.88699,0.387424,-0.136734,-0.347932,-0.284009,0.36256,0.093952,0.152539
153,-2.529232,-1.102857,0.155281,-0.259261,0.8925,0.369087,1.592175,0.6775220000000001,-0.083103,0.281599,0.187212,-0.45209399999999994
154,-2.505827,-1.146839,0.15776600000000002,-0.244267,0.9114680000000001,0.330993,2.362343,1.235708,2.1808509999999997,-0.13972,0.777405,-0.396163
155,-2.4756400000000003,-1.226449,0.165685,-0.20855900000000002,0.9412959999999999,0.265447,3.6961699999999995,1.268404,2.171966,-0.135176,0.636905,0.33816
156,-2.3648290000000003,-1.313962,0.248479,-0.178058,0.967199,0.18116,4.367993,1.612409,1.876048,-0.43513199999999996,1.4452459999999998,0.5775680000000001
157,-2.081474,-1.398786,0.507759,-0.149319,0.985243,0.083656,4.970161,1.526785,1.455211,-0.809558,1.486361,0.663628
158,-1.432919,-1.440246,1.134009,-0.128936,0.99149,-0.017891,4.871528,1.181764,0.9764010000000001,-0.45988500000000004,1.100917,0.380958
159,-0.788891,-1.419466,1.7786970000000002,-0.106965,0.9885709999999999,-0.10622100000000001,4.101531,-0.17686300000000002,1.210977,-0.09558,0.354233,0.422383
160,-0.44099499999999997,-1.381584,2.138009,-0.08027999999999999,0.982153,-0.170086,2.703489,-0.26881700000000003,1.443812,-0.097363,-0.053533000000000004,0.29295
161,-0.26962800000000003,-1.3531030000000002,2.3260520000000002,-0.05753,0.976398,-0.208171,1.679973,-0.869195,1.1564889999999999,-0.036236000000000004,-0.542759,0.165767
162,-0.20061600000000002,-1.334344,2.41922,-0.04668,0.972175,-0.229553,0.739342,-1.116108,0.583009,0.149326,-0.598182,0.22824
163,-0.20656300000000002,-1.334367,2.435304,-0.04804,0.972181,-0.22924899999999998,-0.232318,-1.0162639999999998,-0.099022,0.078954,-0.780927,0.11146600000000001
164,-0.284693,-1.336978,2.369868,-0.065073,0.9727889999999999,-0.222363,-0.352962,-0.604905,-1.0991790000000001,-0.074789,-0.945781,0.065427
165,-0.43842299999999995,-1.338255,2.226066,-0.097827,0.9730840000000001,-0.20865100000000003,-0.91843,-0.870439,-1.603785,-0.137876,-0.994233,0.115099
166,-0.6259520000000001,-1.3481969999999999,2.059336,-0.12933599999999998,0.975327,-0.178905,-1.5595219999999999,-1.462903,-1.272082,0.266833,-0.831528,0.250224
167,-0.8562139999999999,-1.359633,1.8554709999999999,-0.15831800000000001,0.9777879999999999,-0.137346,-2.1779830000000002,-1.544167,-1.192976,0.415261,-0.747777,0.325654
168,-1.165404,-1.374966,1.568694,-0.178804,0.980886,-0.076736,-3.264463,-1.3019049999999999,-0.6293770000000001,0.303666,-0.517798,-0.436356
169,-1.5590469999999998,-1.381368,1.194388,-0.188276,0.9821120000000001,-0.002212,-3.541989,-1.447371,-0.5082840000000001,0.17974600000000002,1.419331,-0.239975
170,-1.9931590000000001,-1.3463399999999999,0.785763,-0.20301,0.974915,0.091235,-4.928071,-1.615783,-0.879877,0.23316199999999998,1.661132,-0.181247
171,-2.297005,-1.290634,0.48534799999999995,-0.20674299999999998,0.9610110000000001,0.183611,-4.42749,-0.362275,0.0973,0.48785500000000004,1.367618,-0.234697
172,-2.455447,-1.237341,0.316486,-0.207367,0.944917,0.253233,-3.218449,0.830974,-0.18634,0.439163,1.242415,0.5089279999999999
173,-2.521684,-1.192341,0.214346,-0.21465399999999998,0.9292370000000001,0.30073099999999997,-2.767356,1.42222,0.21663600000000002,-0.046225999999999996,1.361459,0.5161479999999999
174,-2.583585,-1.147805,0.138962,-0.21735100000000002,0.9118649999999999,0.34822,-2.491766,-0.027226,-0.120344,-0.729106,1.125168,0.605043
175,-2.625353,-1.112878,0.09359400000000001,-0.21821500000000002,0.896975,0.384466,-1.659774,-0.21266100000000002,-0.023496,-0.839249,0.215315,0.291101
176,-2.6552919999999998,-1.0974899999999999,0.07115199999999999,-0.213035,0.890066,0.402982,-0.46703100000000003,-0.537042,0.142279,0.014228,-0.366491,0.160128
177,-2.670867,-1.107017,0.061679,-0.202878,0.894368,0.39867600000000003,0.839802,-0.384538,0.5646140000000001,0.183545,-0.561589,-0.22609899999999997
178,-2.678675,-1.136693,0.06209099999999999,-0.18782000000000001,0.9072479999999999,0.376327,1.442207,-0.103796,0.697717,0.308975,-0.9866389999999999,-0.413054
179,-2.671652,-1.163676,0.05505,-0.179305,0.918265,0.353037,0.8390190000000001,1.011454,0.711302,0.583052,-1.657614,-0.394663
180,-2.674936,-1.173505,0.030618,-0.174075,0.922112,0.345547,-0.110856,0.9920559999999999,0.525231,0.488467,-1.6872340000000001,-0.358105
181,-2.6604400000000004,-1.169979,0.012074,-0.180569,0.920743,0.345868,-0.3026,2.009834,0.049365,0.37403600000000004,-1.186749,-0.48502799999999996
182,-2.60396,-1.168297,0.01813,-0.200598,0.920085,0.336452,0.173823,2.822061,-0.218608,0.370871,-0.623332,-0.089061
183,-2.528247,-1.167658,0.033226,-0.22581199999999998,0.919834,0.320797,-0.077561,3.043872,-0.325334,-0.04906,0.264965,-0.34898
184,-2.50789,-1.1458540000000002,0.019118,-0.244115,0.911063,0.33221999999999996,-1.631099,0.7901779999999999,-0.417687,-0.154307,-0.03385,-0.252981
185,-2.5020029999999998,-1.116683,0.010946,-0.26182300000000003,0.89865,0.351957,-0.903159,0.747401,-1.0064790000000001,0.5678989999999999,-0.46209700000000004,-0.074475
186,-2.484036,-1.097013,0.03293,-0.278855,0.889848,0.361119,-0.23690799999999998,-0.34133,-0.7803760000000001,0.6029979999999999,-0.49510299999999996,-0.127385
187,-2.4634,-1.098903,0.043851999999999995,-0.285191,0.890709,0.353978,0.394563,1.405522,0.052873,0.38622,0.237785,0.032406
188,-2.39756,-1.123255,0.072252,-0.293082,0.9015139999999999,0.31839,1.6171360000000001,2.3029479999999998,0.7407199999999999,-0.235116,1.186377,-0.20701599999999998
189,-2.3742330000000003,-1.179426,0.057297,-0.264818,0.9243870000000001,0.274548,2.0278240000000003,1.410468,2.724148,-0.551558,0.527364,-0.09895
190,-2.319451,-1.256757,0.087234,-0.22630100000000003,0.9510940000000001,0.21025300000000002,3.753779,1.085823,2.2281459999999997,-0.41401899999999997,1.021791,0.42503199999999997
191,-2.149361,-1.341208,0.24685,-0.19053499999999998,0.9737600000000001,0.12444200000000001,4.406668,0.905156,1.8216720000000002,-0.782305,1.539958,0.7538239999999999
192,-1.7512849999999998,-1.404626,0.635216,-0.162714,0.986225,0.029691000000000002,4.740211,0.7273029999999999,1.254868,-0.727438,1.27029,0.525988
193,-1.1583219999999999,-1.414998,1.2242879999999998,-0.14215,0.9878879999999999,-0.062202,4.402302,0.302324,0.998815,-0.197572,0.613263,0.42298
194,-0.709709,-1.389247,1.6878520000000001,-0.117648,0.9835649999999999,-0.136956,3.4793879999999997,-0.820542,1.548215,-0.17680099999999999,0.319963,0.429879
195,-0.451679,-1.359676,1.967991,-0.091464,0.9777969999999999,-0.18853699999999998,2.319615,-0.8432069999999999,1.29552,0.25438299999999997,-0.48911899999999997,0.18975799999999998
196,-0.315809,-1.3360969999999999,2.1279209999999997,-0.072226,0.972584,-0.221047,1.436659,-1.085803,1.1903190000000001,0.33272399999999996,-0.773335,0.17868900000000001
197,-0.24282800000000002,-1.322331,2.225072,-0.059129999999999995,0.969291,-0.2387,0.655161,-0.969305,0.7072149999999999,0.144671,-0.5843119999999999,0.295295
198,-0.238411,-1.320785,2.244581,-0.058428999999999995,0.96891,-0.24041500000000002,-0.07141900000000001,-0.608733,-0.120853,-0.081052,-0.687843,0.086728
199,-0.313471,-1.321777,2.17856,-0.07599700000000001,0.9691549999999999,-0.234442,-0.42412,-0.5428310000000001,-1.10937,-0.270439,-0.916344,-0.054163
200,-0.4488,-1.328819,2.05744,-0.103968,0.970866,-0.21589099999999997,-1.16393,-1.219493,-1.214083,0.065485,-0.87382,0.126566
201,-0.6375310000000001,-1.3448200000000001,1.8955540000000002,-0.13336099999999998,0.974576,-0.180044,-1.953024,-1.5917700000000001,-1.205231,0.35841300000000004,-0.784177,0.186041
202,-0.90956,-1.365043,1.647071,-0.161242,0.978907,-0.12546,-3.007513,-1.357278,-1.1231659999999999,0.397005,-0.538783,-0.210157
203,-1.3130899999999999,-1.37871,1.270392,-0.184602,0.981608,-0.048655000000000004,-3.945086,-1.9211330000000002,-1.0285799999999998,0.566438,0.23824099999999998,0.07900499999999999
204,-1.778544,-1.3623,0.8234739999999999,-0.202535,0.9783430000000001,0.042692,-4.595697,-0.893041,-0.756704,0.363546,1.08791,-0.202559
205,-2.141929,-1.322478,0.449088,-0.206765,0.969327,0.13285999999999998,-4.686116999999999,0.579965,0.187221,0.202218,1.482867,0.216367
206,-2.382735,-1.271591,0.176095,-0.202821,0.955571,0.213883,-4.206241,1.194324,0.379929,0.035646,1.844127,0.30599899999999997
207,-2.530508,-1.2156790000000002,0.004619,-0.199494,0.9376059999999999,0.284773,-3.7295629999999997,0.174344,0.361065,-0.619293,1.863343,0.335206
208,-2.632597,-1.161538,-0.087262,-0.193909,0.917416,0.347483,-2.776469,-1.1556309999999999,-0.33666799999999997,-1.061736,0.405429,0.565099
209,-2.696065,-1.121689,-0.12228299999999999,-0.187094,0.900835,0.391778,-1.7299950000000002,-1.778584,0.029294,-0.9953709999999999,0.037077,0.41353500000000004
210,-2.765,-1.104954,-0.152288,-0.165185,0.893444,0.41769700000000004,-0.614455,-2.1295669999999998,0.254385,-0.20152899999999999,0.172062,0.235593
211,-2.8072470000000003,-1.110416,-0.16178499999999998,-0.145793,0.895883,0.41968500000000003,0.671867,-1.363315,0.39270700000000003,0.265438,-0.422861,-0.306297
212,-2.838462,-1.133969,-0.172784,-0.126289,0.906098,0.403776,1.052051,-0.718262,0.7214119999999999,0.25307399999999997,-0.7035680000000001,-0.48376199999999997
213,-2.868385,-1.149332,-0.205222,-0.110383,0.9124909999999999,0.393922,0.183837,0.279857,0.952282,0.599763,-1.931686,-0.540834
214,-2.895218,-1.146778,-0.251065,-0.100342,0.911443,0.399,-0.650234,1.109049,0.774478,0.631668,-1.622182,-0.529875
215,-2.8704669999999997,-1.136421,-0.272438,-0.11270799999999999,0.907133,0.405467,-0.346366,2.923059,0.017975,0.493033,-1.392485,-0.622645
216,-2.782548,-1.13996,-0.257322,-0.14674700000000002,0.908617,0.390998,0.591126,3.911978,-0.34741700000000003,0.321872,-0.42946000000000006,0.05671
217,-2.675786,-1.141441,-0.229226,-0.186971,0.909234,0.37193200000000004,-0.295209,3.975647,-0.5822890000000001,-0.331721,0.41046800000000006,0.094773
218,-2.648666,-1.110726,-0.25411100000000003,-0.210108,0.896021,0.391151,-1.888084,1.630233,-0.081936,-0.569342,-0.106349,0.29984299999999997
219,-2.6249740000000004,-1.0987,-0.253996,-0.224622,0.890617,0.395404,-0.097742,0.530539,-0.485696,0.441846,-0.619102,-0.889515
220,-2.6175490000000003,-1.08324,-0.24429099999999998,-0.23441399999999998,0.8834799999999999,0.4056,-0.36091799999999996,-0.109819,-0.492055,0.451409,-0.199673,-0.41605200000000003
221,-2.587344,-1.0961239999999999,-0.21232800000000002,-0.24054499999999998,0.889443,0.38862399999999997,1.224333,0.520931,-0.294852,0.41910299999999995,0.920631,0.41438500000000006
222,-2.5134380000000003,-1.1351280000000001,-0.176468,-0.247998,0.906588,0.341458,2.157627,1.9371029999999998,1.186135,-0.429278,2.542066,0.291538
223,-2.481239,-1.194499,-0.171074,-0.225408,0.930032,0.290224,2.672791,1.499659,1.9743689999999998,-0.6275270000000001,-0.753366,-0.332704
224,-2.437827,-1.284586,-0.136485,-0.18268399999999999,0.9593209999999999,0.21524000000000001,4.367729,-0.044013,2.656893,-0.669977,-0.247086,0.32463200000000003
225,-2.3786509999999996,-1.387308,-0.074076,-0.126085,0.9832129999999999,0.131879,4.3158970000000005,-0.331701,2.9837759999999998,-0.638471,2.71393,0.24904099999999998
226,-1.985554,-1.478687,0.335998,-0.08417100000000001,0.995761,0.037061000000000004,5.224401,-0.41255299999999995,1.105882,-0.10545,1.236783,0.655307
227,-0.8891100000000001,-1.478342,1.431702,-0.071685,0.9957290000000001,-0.058169000000000005,4.289480999999999,0.414258,0.812009,-0.121171,-0.057481,0.185305
228,-0.360815,-1.434733,1.968866,-0.047886,0.990758,-0.126907,3.030165,-0.770335,1.371956,-0.491192,-0.245869,0.13864100000000001
229,-0.146928,-1.394309,2.209451,-0.025702999999999997,0.984467,-0.173677,2.041487,-1.307504,1.231143,0.157555,-0.7654569999999999,0.081926
230,-0.054329999999999996,-1.367746,2.336538,-0.010951,0.979456,-0.20135799999999998,1.108244,-1.7760470000000002,0.9303950000000001,0.17689000000000002,-0.438334,0.163974
231,-0.029699,-1.35827,2.394254,-0.006263,0.9775010000000001,-0.21083400000000002,0.16103199999999998,-1.412287,0.295198,0.07399700000000001,-0.565987,0.190647
232,-0.09038600000000001,-1.358869,2.3536099999999998,-0.018986000000000003,0.977627,-0.209483,-0.203537,-0.843873,-0.874575,-0.21825799999999998,-0.9407770000000001,0.018962
233,-0.23961,-1.364083,2.217159,-0.048708,0.9787110000000001,-0.199377,-0.666331,-0.9112379999999999,-1.474858,0.040057,-0.990368,0.129492
234,-0.42203,-1.376471,2.0574380000000003,-0.079096,0.9811780000000001,-0.17615799999999998,-1.363756,-1.4980120000000001,-1.185216,0.24615,-0.9368059999999999,0.261836
235,-0.656594,-1.397988,1.8497240000000001,-0.104959,0.9851059999999999,-0.136193,-2.231968,-1.473458,-0.978736,0.576257,-0.726637,0.247277
236,-0.993928,-1.426053,1.53821,-0.12089100000000001,0.9895430000000001,-0.078664,-3.00277,-1.4667729999999999,-0.384856,0.45838500000000004,-0.6295270000000001,-0.20089200000000002
237,-1.482916,-1.450324,1.066263,-0.119709,0.9927520000000001,-0.010546999999999999,-3.3184120000000004,-0.699493,0.350097,-0.039455000000000004,0.051910000000000005,-0.175778
238,-2.085292,-1.439685,0.47381,-0.11380599999999999,0.991417,0.064332,-4.345122,-0.9455870000000001,0.17873499999999998,-0.357996,1.587547,-0.369721
239,-2.571215,-1.372157,0.005027,-0.106549,0.9803360000000001,0.16609300000000002,-5.031893,-1.270562,0.257675,0.005002,2.280437,-0.2502
240,-2.76307,-1.297609,-0.16963,-0.099704,0.962916,0.2507,-3.551557,-0.523386,-0.064091,0.773547,1.662679,0.584688
241,-2.812082,-1.250315,-0.231436,-0.101934,0.949084,0.298072,-2.04288,0.282911,0.25519899999999995,0.17218599999999998,1.0868200000000001,0.6317229999999999
242,-2.869618,-1.220153,-0.285522,-0.092275,0.9391520000000001,0.330872,-1.646397,-0.55775,0.217385,-0.742533,0.744167,0.5224300000000001
243,-2.897525,-1.1888,-0.295479,-0.090081,0.9279219999999999,0.361723,-1.417571,-1.038722,-0.379673,-1.248069,0.365275,0.42791899999999994
244,-2.910504,-1.1693850000000001,-0.291516,-0.089488,0.9205110000000001,0.380328,-0.566155,-0.7361840000000001,-0.31856599999999996,-0.29990100000000003,0.12338900000000001,0.027752999999999996
245,-2.923532,-1.1655010000000001,-0.290456,-0.085299,0.9189860000000001,0.384949,0.047809,-0.6623180000000001,0.123599,0.131075,-0.690455,-0.304902
246,-2.936395,-1.178801,-0.29839499999999997,-0.077843,0.924149,0.37401599999999996,0.760314,-0.0222,0.332854,0.290489,-1.065842,-0.7351
247,-2.9405930000000002,-1.190074,-0.309814,-0.074187,0.9283969999999999,0.364107,0.28175300000000003,0.546241,0.319169,0.47823999999999994,-1.537512,-0.587801
248,-2.940815,-1.1900030000000001,-0.331176,-0.07412,0.92837,0.364188,-0.154851,1.337658,0.451837,0.402565,-1.799983,-0.530234
249,-2.918229,-1.19554,-0.349998,-0.08118600000000001,0.930414,0.357404,0.48612799999999995,2.294898,0.27349,0.131555,-1.3342829999999999,-0.41332700000000006
250,-2.84383,-1.21065,-0.334397,-0.10339000000000001,0.935845,0.336901,0.900234,3.480097,-0.237882,0.23032800000000003,-0.623071,0.276746
251,-2.763347,-1.21005,-0.314576,-0.130349,0.935634,0.328021,-0.707073,2.338658,-0.310672,-0.365333,0.13692200000000002,-0.240146
252,-2.769174,-1.178225,-0.33795,-0.139204,0.9239280000000001,0.35634,-1.7452830000000001,0.23491700000000001,-0.254339,-0.44946499999999995,-0.57026,-0.169786
253,-2.743059,-1.15996,-0.319157,-0.15498499999999998,0.9167870000000001,0.368077,-0.213786,0.5383720000000001,-1.0110139999999999,0.584184,-0.28536300000000003,-1.66953
254,-2.712454,-1.135039,-0.287659,-0.175629,0.906551,0.383823,-0.54916,-0.80242,-1.084278,0.762879,0.305104,0.363675
255,-2.728298,-1.139354,-0.279144,-0.167954,0.908364,0.382972,-0.037944,-0.8243860000000001,0.7662770000000001,0.519623,1.150093,1.199059
256,-2.703255,-1.149022,-0.302666,-0.173755,0.912364,0.370676,1.0864559999999999,3.450589,0.318932,-0.661176,0.044057,-0.658319
257,-2.66568,-1.199254,-0.294831,-0.16633199999999998,0.931768,0.322708,2.9198630000000003,0.475813,1.523413,-0.677967,-0.26242600000000005,-0.48025500000000004
258,-2.690875,-1.285423,-0.323799,-0.12263099999999999,0.959557,0.25340100000000004,3.957422,0.15091300000000002,2.750986,-0.246342,1.710243,0.291978
259,-2.761181,-1.381658,-0.390788,-0.06980900000000001,0.982167,0.174569,4.314853,-0.625792,2.205412,-0.9704139999999999,2.058346,0.336173
260,-2.580276,-1.477394,-0.190417,-0.049644,0.995641,0.078953,5.161963,-0.839684,0.084773,-1.011391,1.464167,0.475369
261,-1.2622200000000001,-1.512095,1.1380379999999999,-0.055889,0.9982780000000001,-0.017815,4.413478,-0.284208,-0.181813,0.261898,-0.010957999999999999,0.291298
262,-0.486779,-1.4708370000000002,1.9276799999999998,-0.046679000000000005,0.995008,-0.088198,3.144253,-0.798596,0.882473,0.417224,-0.212904,0.276277
263,-0.16821,-1.4298629999999999,2.260338,-0.023516,0.990085,-0.138481,2.1860720000000002,-0.356116,1.348436,0.148043,-0.6931039999999999,0.07723200000000001
264,0.017659,-1.394625,2.452492,0.003095,0.9845219999999999,-0.175232,1.830157,-0.282351,1.325559,-0.017301,-0.870508,0.142975
265,0.093527,-1.362981,2.54157,0.019268,0.978484,-0.20542,1.1932129999999999,-0.730124,0.635885,-0.32497800000000004,-0.55638,0.141531
266,0.073353,-1.353141,2.5408880000000003,0.015826,0.976407,-0.21535900000000002,0.2281,-1.1595030000000002,-0.372298,-0.21608200000000002,-0.823742,-0.061664
267,-0.036462,-1.350559,2.455953,-0.007964,0.9758459999999999,-0.21831399999999998,0.006307,-1.431522,-1.1511639999999999,0.048461000000000004,-0.971878,0.034049
268,-0.16156600000000002,-1.3568559999999998,2.359381,-0.034152999999999996,0.977202,-0.209546,-0.695817,-1.595543,-0.817232,0.194569,-0.7812939999999999,-0.020831
269,-0.27741,-1.376493,2.2709349999999997,-0.052878999999999995,0.981182,-0.1857,-1.4016819999999999,-1.3073110000000001,-0.623843,0.29370799999999997,-0.7093470000000001,0.17613299999999998
270,-0.438489,-1.4069909999999999,2.128828,-0.069236,0.986614,-0.147646,-2.167375,-1.01481,-0.646658,0.421241,-0.763469,0.12031700000000001
271,-0.713386,-1.448253,1.866998,-0.07999099999999999,0.992501,-0.092428,-3.112155,-0.521975,-0.26398699999999997,0.048938999999999996,0.036704,-0.111124
272,-1.269117,-1.473898,1.319505,-0.092375,0.995309,-0.028745,-3.500939,-0.7875449999999999,-0.912637,0.016981,0.9558479999999999,-0.101687
273,-2.051428,-1.443198,0.55515,-0.11283199999999999,0.99187,0.058832,-4.415986,-1.2230969999999999,-0.9547899999999999,-0.12017,2.034451,-0.578134
274,-2.442301,-1.383453,0.169664,-0.11988299999999999,0.982503,0.142534,-3.8222370000000003,-0.032202,-0.117888,0.533991,1.4047049999999999,0.218183
275,-2.585587,-1.332763,0.0019920000000000003,-0.124449,0.9718040000000001,0.200273,-2.658626,1.6496650000000002,-0.010434,0.259108,1.483366,0.610503
276,-2.68203,-1.29531,-0.117057,-0.120653,0.9622930000000001,0.243792,-2.332015,-0.101969,0.584819,-0.69676,1.327807,0.289671
277,-2.793643,-1.262065,-0.204959,-0.103604,0.9527200000000001,0.285641,-1.7167310000000002,-1.7854189999999999,0.396858,-1.020938,0.663293,0.390933
278,-2.867657,-1.24126,-0.240644,-0.087542,0.946192,0.31153800000000004,-0.8375790000000001,-2.016556,0.160808,-0.21713000000000002,-0.105921,0.235184
279,-2.910687,-1.236586,-0.245908,-0.075071,0.9446700000000001,0.319317,0.097845,-1.541831,-0.020205,0.169248,-0.42237700000000006,0.080662
280,-2.929188,-1.249371,-0.249273,-0.066599,0.948786,0.308819,0.915112,-0.452136,0.356917,0.33726,-0.987757,-0.389202
281,-2.9538450000000003,-1.276245,-0.269148,-0.054185000000000004,0.956933,0.285208,1.300345,-0.162682,0.6305649999999999,0.314988,-1.4614639999999999,-0.594717
282,-2.980702,-1.296243,-0.301956,-0.043432,0.9625459999999999,0.26761599999999997,0.549266,0.44332,0.51772,0.23268699999999998,-1.847938,-0.46801000000000004
283,-2.979939,-1.2961850000000001,-0.31855700000000003,-0.043646,0.9625309999999999,0.267638,-0.261786,1.286665,-0.022069,0.24501599999999998,-1.407202,-0.42223999999999995
284,-2.9182810000000003,-1.2901639999999999,-0.297752,-0.061336,0.960881,0.270086,-0.135745,2.3530759999999997,-0.414592,0.190075,-1.101902,-0.18482
285,-2.847887,-1.2873649999999999,-0.27669699999999997,-0.08096,0.960101,0.267677,-0.14219400000000001,2.510084,-0.24605900000000003,0.08451499999999999,-0.152942,-0.034523000000000005
286,-2.820538,-1.2660770000000001,-0.282208,-0.094678,0.953931,0.284695,-1.730604,0.910171,-0.23374,-0.28389200000000003,0.321475,0.086322
287,-2.833934,-1.226313,-0.299406,-0.102268,0.94125,0.321853,-1.8059209999999999,0.026268,-0.503393,-0.330318,-0.67477,0.025330000000000002
288,-2.7966029999999997,-1.2088809999999999,-0.271494,-0.11974100000000001,0.93522,0.33320500000000003,0.226108,0.793908,-0.826673,-0.14591500000000002,-1.694009,-0.622221
289,-2.7387759999999997,-1.203765,-0.211275,-0.140671,0.9333969999999999,0.330123,-0.734449,-0.474891,-1.311388,0.679154,-0.555315,-1.626586
290,-2.737772,-1.1790049999999999,-0.184123,-0.150039,0.924227,0.35113,-0.41418699999999997,-1.418189,-0.39247600000000005,1.022476,1.355803,0.163396
291,-2.810616,-1.159678,-0.257577,-0.129868,0.916675,0.377944,-1.451052,2.647147,1.508257,-0.31932,3.0202299999999997,0.27931300000000003
292,-2.733741,-1.1903110000000001,-0.25207199999999996,-0.1473,0.928484,0.340909,2.833653,2.4780580000000003,0.386859,-0.6469050000000001,-0.41253900000000004,-0.676068
293,-2.6875150000000003,-1.265187,-0.231424,-0.131973,0.953664,0.270383,3.4237319999999998,1.03231,1.780454,-0.45983900000000005,-0.256337,0.5645319999999999
294,-2.728345,-1.3582040000000002,-0.287233,-0.084731,0.9774870000000001,0.19322999999999999,4.316436,0.037901,2.996123,-0.5066390000000001,1.493948,-0.020943
295,-2.7552779999999997,-1.466416,-0.298485,-0.039255,0.994557,0.09650800000000001,5.407229,-0.723493,1.184468,-0.836935,1.4900309999999999,0.73679
296,-1.287633,-1.526626,1.169406,-0.042384,0.999025,-0.012333,5.275511,0.320416,-0.282323,-0.13281800000000002,0.657241,0.5311319999999999
297,-0.299475,-1.464142,2.166913,-0.031404,0.994318,-0.10171000000000001,4.060304,-0.679063,1.09809,0.11017,-0.048181,0.46224499999999996
298,-0.023213,-1.405265,2.459048,-0.003825,0.986331,-0.16472799999999999,2.636909,-0.683599,1.6009,-0.059988,-0.46049799999999996,0.190912
299,0.110696,-1.363725,2.61321,0.022712,0.9786370000000001,-0.204333,1.706063,-1.0097399999999999,1.384376,0.09945,-0.662399,0.33166799999999996
300,0.170307,-1.340593,2.696343,0.038672000000000005,0.97362,-0.224872,0.546475,-1.0737290000000002,0.8102010000000001,0.039545,-0.45746099999999995,0.26363000000000003
301,0.171502,-1.33928,2.715935,0.039159,0.9733200000000001,-0.22608499999999998,-0.186056,-0.762601,-0.168465,-0.156468,-0.864341,0.09603400000000001
302,0.085211,-1.347177,2.63908,0.018872999999999997,0.975101,-0.220953,-0.33013200000000004,-0.515582,-1.342695,-0.27113200000000004,-1.0610540000000002,-0.050867
303,-0.07605,-1.3564530000000001,2.487963,-0.01616,0.977116,-0.212088,-0.576663,-0.851136,-1.663386,-0.003722,-1.051564,0.14818399999999998
304,-0.24487399999999998,-1.372818,2.33474,-0.047682999999999996,0.980466,-0.190816,-1.390851,-0.945838,-1.251277,0.196471,-0.837888,0.051275
305,-0.43536499999999995,-1.400709,2.161104,-0.071386,0.9855700000000001,-0.153475,-2.119475,-1.0639889999999999,-0.910111,0.138708,-0.761556,-0.240355
306,-0.7198359999999999,-1.439392,1.894912,-0.086375,0.9913790000000001,-0.09851499999999999,-3.027225,-1.020148,-0.43153500000000006,0.08488,-0.11495999999999999,-0.22623800000000002
307,-1.253662,-1.464805,1.391765,-0.100508,0.9943879999999999,-0.032987999999999996,-3.386472,-2.0984119999999997,-0.8674290000000001,0.437758,1.623257,0.169737
308,-2.044812,-1.434072,0.63164,-0.12126500000000001,0.990668,0.062212,-4.82147,-1.251457,-0.970405,0.570209,1.774209,0.068647
309,-2.462379,-1.375181,0.211827,-0.122097,0.980928,0.15123,-4.476363,0.03596,0.45215900000000003,0.37090700000000004,1.001188,-0.349746
310,-2.655202,-1.311915,-0.0057350000000000005,-0.11966199999999999,0.966677,0.226306,-3.492553,1.8056849999999998,0.057249,-0.142988,1.9237650000000002,0.38635
311,-2.727941,-1.253527,-0.108929,-0.125398,0.950091,0.28565799999999997,-3.232008,0.221663,0.08673600000000001,-0.813841,2.0202,0.26405500000000004
312,-2.801846,-1.198814,-0.155195,-0.12112200000000001,0.931609,0.342684,-2.4917529999999997,-1.823893,-0.497267,-0.9182,0.716585,0.677503
313,-2.8354369999999998,-1.1589559999999999,-0.15979300000000002,-0.120647,0.916386,0.38168,-1.545324,-1.619238,-0.547539,-0.48169399999999996,0.29829,0.392231
314,-2.854539,-1.140254,-0.146336,-0.11816700000000001,0.90874,0.400283,-0.32676900000000003,-1.218125,-0.414559,0.170916,-0.271929,0.132935
315,-2.863855,-1.148706,-0.146498,-0.112322,0.912234,0.393967,0.823325,-0.173968,0.405053,0.117556,-0.8268770000000001,-0.33139
316,-2.875604,-1.172949,-0.159798,-0.101841,0.921897,0.373807,1.012009,0.273934,0.652556,0.165501,-1.356757,-0.623364
317,-2.892728,-1.185556,-0.186278,-0.092556,0.926708,0.364202,0.175361,0.369913,0.552586,0.395092,-1.8326380000000002,-0.602666
318,-2.8900810000000003,-1.183362,-0.197665,-0.094025,0.925881,0.36592399999999997,-0.296105,1.0013299999999998,-0.030493,0.42335600000000007,-1.5217370000000001,-0.640063
319,-2.842054,-1.179029,-0.184745,-0.112667,0.9242360000000001,0.364818,0.073622,2.205213,-0.380898,0.476955,-1.000408,-0.190196
320,-2.7730360000000003,-1.1818739999999999,-0.161656,-0.13660999999999998,0.925318,0.353725,0.227861,2.5817669999999997,-0.37603000000000003,0.160673,-0.199946,0.059849
321,-2.710779,-1.169442,-0.149299,-0.163144,0.920533,0.354966,-0.905479,2.168565,-0.49023900000000004,-0.47568,0.131118,-0.322388
322,-2.693804,-1.141683,-0.154635,-0.180143,0.909335,0.37504099999999996,-1.224216,0.714864,-0.580334,-0.081041,-0.37073,-1.0587719999999998
323,-2.646861,-1.111156,-0.123147,-0.21063,0.8962120000000001,0.390431,-1.03316,0.896222,-1.608997,0.556974,-0.011477,-0.649983
324,-2.6172169999999997,-1.1007069999999999,-0.077446,-0.22678600000000002,0.8915280000000001,0.39210100000000003,1.010705,-1.04287,-0.379804,0.752115,-0.047639999999999995,0.514409
325,-2.6264220000000003,-1.110547,-0.086761,-0.218834,0.895942,0.386519,0.138355,1.850848,0.534406,-0.28925300000000004,0.49227200000000004,0.403185
326,-2.574719,-1.140015,-0.084958,-0.22423800000000002,0.90864,0.35226199999999996,1.526765,1.76405,1.3218809999999999,-0.571401,0.47647700000000004,-0.50842
327,-2.593102,-1.209799,-0.11733099999999999,-0.184161,0.9355450000000001,0.301394,3.3724809999999996,0.478207,2.664221,-0.49673199999999995,0.43854,0.315702
328,-2.6220950000000003,-1.3061209999999999,-0.160711,-0.129865,0.9651770000000001,0.227079,4.062901999999999,0.251332,3.123329,-0.396471,1.989596,0.248919
329,-2.565961,-1.410688,-0.09590800000000001,-0.086781,0.98721,0.13372699999999998,4.974762999999999,-0.423227,1.32954,-0.930492,2.016773,0.785173
330,-1.9549400000000001,-1.480173,0.515993,-0.08389400000000001,0.9958969999999999,0.033912,4.8947080000000005,0.41412,-0.207127,-0.12972899999999998,0.7178939999999999,0.372796
331,-0.947314,-1.4760659999999999,1.5291620000000001,-0.076785,0.995516,-0.055222,4.206248,-0.440191,0.910792,0.269793,-0.11931099999999999,0.32898
332,-0.376854,-1.4366709999999998,2.114284,-0.049208,0.9910190000000001,-0.12433399999999999,3.0882330000000002,-0.536702,1.505584,-0.10959100000000001,-0.312918,0.216146
333,-0.136654,-1.392947,2.367697,-0.0241,0.984226,-0.17526,2.3059849999999997,-0.589462,1.258769,-0.127252,-0.650196,0.22250100000000003
334,-0.026602999999999998,-1.360265,2.498988,-0.005559000000000001,0.9779200000000001,-0.20890300000000003,1.324633,-1.056865,0.9811850000000001,0.084752,-0.47125200000000006,0.278498
335,-0.0077870000000000005,-1.349286,2.5375080000000003,-0.0017109999999999998,0.975567,-0.21969499999999997,0.125102,-0.87955,0.037885,0.025575,-0.575924,0.20619099999999999
336,-0.07073600000000001,-1.350096,2.4873819999999998,-0.015472,0.9757440000000001,-0.218363,-0.09361799999999999,-0.60136,-0.875193,-0.281479,-0.8846799999999999,-0.12029000000000001
337,-0.19301300000000002,-1.354608,2.376503,-0.041145999999999995,0.976722,-0.21052300000000002,-0.621476,-0.853942,-1.188341,-0.014808000000000002,-1.0193860000000001,-0.06288400000000001
338,-0.336229,-1.369276,2.253536,-0.066038,0.9797629999999999,-0.18895,-1.2865520000000001,-1.217822,-0.9895579999999999,0.228071,-0.85577,0.21623299999999998
339,-0.526605,-1.39327,2.07868,-0.08875599999999999,0.984284,-0.152669,-2.088857,-0.736745,-0.9861639999999999,0.408062,-0.720154,0.306782
340,-0.81518,-1.42285,1.800053,-0.10728900000000001,0.9890760000000001,-0.10108099999999999,-2.845356,-0.7171,-0.714804,0.143559,-0.614518,-0.5018239999999999
341,-1.275716,-1.450138,1.345106,-0.11516199999999999,0.9927299999999999,-0.035004,-3.3085660000000003,-0.275335,-0.23256500000000002,0.037495,0.357032,-0.137054
342,-1.849579,-1.441427,0.775465,-0.124025,0.991643,0.035501,-4.042174,-0.505842,-0.5599970000000001,-0.12718,1.193781,-0.0738
343,-2.338315,-1.3851360000000001,0.292665,-0.13284100000000001,0.982814,0.128173,-4.662757,-0.798118,-0.457135,0.20391600000000001,1.992375,-0.20358199999999999
344,-2.561662,-1.310111,0.07861,-0.141233,0.9662139999999999,0.21560100000000001,-3.937382,-0.056347,-0.637821,0.512159,1.546146,0.39723800000000004
345,-2.6269419999999997,-1.259058,-0.012097,-0.150974,0.951802,0.26698299999999997,-2.311823,1.366515,0.169672,0.459628,1.234477,0.635544
346,-2.700016,-1.224594,-0.093544,-0.145017,0.9406680000000001,0.306778,-2.0842959999999997,-0.501582,0.139472,-0.8488190000000001,0.8318840000000001,0.42745900000000003
347,-2.74214,-1.1876799999999998,-0.119957,-0.14538099999999998,0.9275040000000001,0.344383,-1.7198630000000001,-0.880008,-0.37879,-1.214269,0.460984,0.446572
348,-2.7743599999999997,-1.162341,-0.134267,-0.14260499999999998,0.9177350000000001,0.370708,-0.9870700000000001,-1.010967,-0.232498,-0.8519469999999999,0.370106,0.320668
349,-2.794427,-1.154144,-0.135188,-0.137693,0.914449,0.38055700000000003,-0.079165,-0.771166,0.017091,0.289625,-0.512212,0.023786
350,-2.815053,-1.1624809999999999,-0.146609,-0.127365,0.917791,0.376082,0.600076,-0.339902,0.536166,0.22805799999999998,-0.8427020000000001,-0.21255300000000002
351,-2.837421,-1.17813,-0.166408,-0.114606,0.923892,0.365088,0.47985600000000006,-0.148201,0.6525850000000001,0.16134400000000002,-1.28522,-0.756292
352,-2.872414,-1.180662,-0.20183299999999998,-0.10114,0.924858,0.366618,-0.45734300000000006,-0.20053900000000002,0.700585,0.30711900000000003,-1.689598,-0.533473
353,-2.896721,-1.168856,-0.23236199999999999,-0.09484,0.9203040000000001,0.37953400000000004,-0.632497,0.6194069999999999,0.133221,0.275825,-1.229752,-0.552279
354,-2.844721,-1.172013,-0.214298,-0.11358800000000001,0.921534,0.371311,0.8428629999999999,2.553529,-0.507362,0.438433,-0.596308,0.158718
355,-2.728241,-1.1825709999999998,-0.16335999999999998,-0.152054,0.925582,0.34666399999999997,0.29654899999999995,3.3569400000000003,-0.8807450000000001,-0.131653,0.23780900000000002,-0.085189
356,-2.674264,-1.15104,-0.14591500000000002,-0.183596,0.9131879999999999,0.363838,-1.9938509999999998,1.171907,-0.9879469999999999,-0.366209,-0.647197,-0.448509
357,-2.643557,-1.1192440000000001,-0.129848,-0.20845,0.8997709999999999,0.383353,-0.829067,0.499417,-1.123159,0.583541,-0.716971,-1.025824
358,-2.647516,-1.102633,-0.117252,-0.21398899999999998,0.8923989999999999,0.397281,-0.31661300000000003,-1.197398,-0.278851,0.467728,-0.405918,-0.169665
359,-2.6680770000000003,-1.1092520000000001,-0.129055,-0.203079,0.895366,0.39633,-0.040246,-0.06846000000000001,0.609325,0.43098400000000003,0.30940700000000004,0.543428
360,-2.658019,-1.131618,-0.146701,-0.197693,0.905101,0.376442,1.630836,1.410052,1.313448,-0.393113,1.372609,-0.589225
361,-2.69041,-1.192483,-0.189595,-0.161049,0.9292889999999999,0.332392,2.665542,0.282509,2.133969,-0.302788,0.46377799999999997,-0.065042
362,-2.693293,-1.276804,-0.199739,-0.12559800000000002,0.957095,0.261139,4.283092,0.277023,2.103614,-0.200284,0.431302,0.115173
363,-2.680721,-1.38015,-0.19338,-0.084272,0.9818819999999999,0.169721,4.873043,0.29085500000000003,2.1290810000000002,-0.726458,1.83663,0.38714899999999997
364,-2.4792259999999997,-1.481675,0.010211,-0.054732,0.996031,0.07017799999999999,5.143421,0.008834999999999999,1.028922,-0.5532090000000001,1.498262,0.554013
365,-1.007559,-1.5213649999999999,1.474732,-0.041775,0.9987790000000001,-0.026379000000000003,4.41173,0.59891,0.6203350000000001,-0.016346,0.30741999999999997,0.431638
366,-0.195044,-1.467866,2.286986,-0.019913999999999998,0.994707,-0.100801,3.317565,-0.144122,1.435107,-0.2126,0.152143,0.321733
367,0.063215,-1.41906,2.5527029999999997,0.009549,0.98851,-0.15085199999999999,2.104214,-0.381975,1.495303,-0.174405,-0.659424,0.049701999999999996
368,0.18086,-1.382568,2.689483,0.033658,0.9823370000000001,-0.184067,1.446812,-1.129781,1.262001,-0.12269300000000001,-0.8464879999999999,0.273453
369,0.223092,-1.3612360000000001,2.75738,0.046026,0.9781219999999999,-0.202875,0.550246,-1.176138,0.5796140000000001,-0.030233,-0.628742,0.35029
370,0.203824,-1.358277,2.761342,0.042694,0.977503,-0.20655700000000002,0.0034799999999999996,-1.15498,-0.24035399999999998,-0.160645,-0.839075,0.033644
371,0.108091,-1.3607420000000001,2.688065,0.022494,0.9780200000000001,-0.207296,-0.069142,-1.259098,-1.045099,-0.12498800000000002,-0.9924540000000001,-0.072825
372,-0.028886000000000002,-1.36867,2.578123,-0.005797999999999999,0.979642,-0.200667,-0.599476,-1.5755290000000002,-1.10715,0.013428,-0.93852,0.019530000000000002
373,-0.179238,-1.3870559999999998,2.457309,-0.032573000000000005,0.983167,-0.179779,-1.272397,-1.482752,-1.080991,0.33169099999999996,-0.8202950000000001,0.162216
374,-0.377869,-1.414187,2.275427,-0.057543,0.987762,-0.144964,-2.013371,-0.633367,-1.061618,0.290026,-0.7666310000000001,-0.15896
375,-0.670691,-1.446385,1.9902950000000001,-0.077124,0.9922709999999999,-0.09721,-2.575859,-0.742922,-0.882741,0.231696,-0.10372100000000001,-0.13986600000000002
376,-1.261783,-1.4638229999999999,1.422579,-0.101712,0.9942840000000001,-0.03247,-3.7617830000000003,-1.571066,-1.3460940000000001,0.398816,1.479288,-0.179154
377,-1.957501,-1.433568,0.7439520000000001,-0.126694,0.990599,0.051591,-3.8812309999999997,-0.48235,-0.97765,0.349366,1.255632,-0.24133400000000002
378,-2.3430299999999997,-1.387549,0.34268699999999996,-0.13053499999999998,0.9832569999999999,0.127143,-3.8218379999999996,1.087197,0.202207,0.286938,1.211476,0.147317
379,-2.533608,-1.342112,0.124964,-0.129491,0.973966,0.18607100000000001,-2.831039,1.099367,0.295638,-0.403453,2.052127,0.391413
380,-2.679135,-1.301803,-0.021227,-0.118568,0.964039,0.237844,-2.5523569999999998,-1.222739,0.537705,-1.0479969999999998,1.469021,0.366007
381,-2.7893310000000002,-1.263776,-0.095121,-0.104272,0.9532379999999999,0.283661,-1.9134939999999998,-1.846887,-0.04135,-0.812919,0.788629,0.397796
382,-2.830333,-1.230084,-0.09827999999999999,-0.102339,0.942517,0.318101,-1.381799,-2.015186,-0.771289,-0.341021,0.43561099999999997,0.18859800000000002
383,-2.841056,-1.212159,-0.075212,-0.103907,0.936376,0.33526500000000004,-0.321873,-1.080706,-0.416842,0.114298,-0.399267,0.168977
384,-2.847127,-1.217538,-0.07472100000000001,-0.100406,0.93825,0.331065,0.542551,-0.035328,0.34522600000000003,0.172992,-1.017901,-0.094615
385,-2.865314,-1.236909,-0.095617,-0.089393,0.9447760000000001,0.315287,0.812278,0.011415,0.6760619999999999,0.117927,-1.2200440000000001,-0.5015970000000001
386,-2.885504,-1.247535,-0.119502,-0.080462,0.948204,0.307299,0.11618699999999998,0.28893800000000003,0.3429,0.253573,-1.775322,-0.41531599999999996
387,-2.872432,-1.241941,-0.12216099999999999,-0.085882,0.946413,0.311329,-0.424019,1.218108,-0.315816,0.530401,-1.821031,-0.5128520000000001
388,-2.8147279999999997,-1.236982,-0.10329200000000001,-0.105199,0.9447989999999999,0.3103,0.170177,2.3857310000000003,-0.318502,0.468099,-1.35581,-0.227627
389,-2.733511,-1.241659,-0.074146,-0.128272,0.9463219999999999,0.296683,0.304076,2.814174,-0.484759,0.084021,-0.372225,-0.042395
390,-2.6686959999999997,-1.227135,-0.050412,-0.15346300000000002,0.941527,0.299958,-1.078929,1.377335,-0.672039,-0.342997,0.22694499999999998,-0.021546
391,-2.671827,-1.1900680000000001,-0.062456,-0.168213,0.928394,0.331343,-1.875034,0.10301199999999999,-0.7176279999999999,-0.236816,-0.302082,-0.29980300000000004
392,-2.6565849999999998,-1.157848,-0.045876,-0.18709800000000001,0.915942,0.355029,-1.262912,-0.17957,-1.176598,0.43094899999999997,-0.45236400000000004,-1.2821069999999999
393,-2.64032,-1.14096,-0.009027,-0.200253,0.909034,0.36545300000000003,0.065148,-1.0580969999999998,-0.811546,0.346523,-0.481681,-0.06249
394,-2.621045,-1.139053,0.014778,-0.208121,0.9082379999999999,0.363029,0.176038,0.713741,-0.446642,0.1462,0.672573,-0.428825
395,-2.594408,-1.1662649999999999,0.028567000000000002,-0.204778,0.9192870000000001,0.336122,1.7100279999999999,0.451396,1.4893450000000001,0.012655,1.40426,-0.47001800000000005
396,-2.629584,-1.238783,-0.021595,-0.159691,0.9453879999999999,0.284148,3.365595,0.759813,2.57835,-0.044792,0.633286,-0.168975
397,-2.606872,-1.3330790000000001,-0.018341,-0.120003,0.971878,0.20261300000000002,4.20744,0.958325,2.2891470000000003,-0.53585,1.754822,0.483407
398,-2.5138,-1.435209,0.060504999999999996,-0.07939500000000001,0.990822,0.109398,4.973714,0.46581000000000006,1.9810729999999999,-0.8917200000000001,2.012245,0.5272140000000001
399,-1.677032,-1.514149,0.889441,-0.056301,0.998396,0.006004,5.09445,0.748183,0.793692,-0.761463,1.448366,0.7368859999999999
400,-0.42046400000000006,-1.476934,2.1395560000000002,-0.038256,0.995598,-0.08556,4.230005,0.09144,1.143145,0.053622,0.210472,0.214405
401,-0.05536900000000001,-1.4175799999999998,2.510222,-0.008445999999999999,0.9882850000000001,-0.152383,2.782314,-0.175814,1.5660049999999999,-0.104896,0.131496,0.086328
402,0.08615700000000001,-1.3749879999999999,2.662187,0.016742,0.980891,-0.193838,1.795145,-0.6066020000000001,1.19433,-0.19026500000000002,-0.56428,0.206197
403,0.13733099999999998,-1.35076,2.728573,0.02988,0.9758889999999999,-0.21620999999999999,0.706415,-0.648159,0.543708,-0.003849,-0.747343,0.427407
404,0.13106600000000002,-1.346013,2.734783,0.02913,0.974842,-0.22098299999999998,0.052023,-0.678391,-0.118848,0.024199000000000002,-0.699589,0.357869
405,0.075218,-1.3463049999999999,2.694709,0.016729,0.974907,-0.22198,-0.03827,-0.888976,-0.657593,-0.283071,-0.8716510000000001,0.046382
406,-0.025979000000000002,-1.352744,2.612546,-0.005619,0.9763209999999999,-0.21625500000000003,-0.46057,-1.1897280000000001,-1.004125,-0.263775,-0.8901540000000001,-0.094948
407,-0.153979,-1.367373,2.511258,-0.030985000000000002,0.979381,-0.199633,-1.067384,-1.568084,-0.96515,-0.07369099999999999,-0.8870040000000001,0.009066
408,-0.312447,-1.392484,2.379474,-0.05452100000000001,0.984144,-0.168781,-1.770689,-1.296456,-0.883885,0.49502700000000005,-0.859907,0.24014699999999997
409,-0.523825,-1.427358,2.185314,-0.071502,0.9897299999999999,-0.12378,-2.488695,-0.721121,-0.5499430000000001,0.173644,-0.700836,-0.219757
410,-0.894967,-1.466859,1.822198,-0.080944,0.994603,-0.0649,-3.099348,-0.773461,-0.517821,0.003109,0.31544,-0.18445899999999998
411,-1.6914099999999999,-1.469444,1.048805,-0.10044600000000001,0.994868,0.012173999999999999,-4.435759,-1.6288280000000002,-1.23536,-0.056750999999999996,1.7727709999999999,-0.30538699999999996
412,-2.2898400000000003,-1.408881,0.47632399999999997,-0.121299,0.98692,0.106183,-4.388247,-1.1255700000000002,-0.856454,0.422752,1.627353,-0.154584
413,-2.5280139999999998,-1.345132,0.22948400000000002,-0.12883699999999998,0.9746459999999999,0.18294000000000002,-3.4568220000000003,0.75502,-0.161218,0.62516,1.6940099999999998,0.020871999999999998
414,-2.630753,-1.29875,0.098459,-0.13137200000000002,0.9632229999999999,0.23439899999999997,-2.661834,1.121737,0.415364,0.23528400000000002,1.728961,0.38195
415,-2.740856,-1.253823,-0.010796,-0.12158900000000002,0.950183,0.28699600000000003,-2.618416,-1.026361,0.23788800000000002,-1.13395,1.05322,0.47943800000000003
416,-2.801616,-1.213007,-0.056478999999999994,-0.11678,0.936673,0.330158,-1.92815,-0.6842689999999999,-0.128402,-1.024974,0.5175810000000001,0.443524
417,-2.823043,-1.1838600000000001,-0.06463200000000001,-0.118183,0.926069,0.358367,-1.06508,-0.739402,-0.408586,-0.256405,0.09163099999999999,0.175217
418,-2.8196220000000003,-1.1750559999999999,-0.05196900000000001,-0.121983,0.9227110000000001,0.365681,0.075659,-0.118441,-0.30847800000000003,0.204273,-0.604459,-0.080006
419,-2.800617,-1.191973,-0.038945,-0.123672,0.9291,0.348535,1.388942,0.442463,0.27468000000000004,0.31205700000000003,-1.076714,-0.641992
420,-2.806244,-1.216811,-0.046001,-0.114078,0.937999,0.327327,0.845184,-0.068422,0.633663,0.359012,-1.4809219999999998,-0.481731
421,-2.833766,-1.225731,-0.078989,-0.102487,0.941053,0.322355,-0.023094,0.37059899999999996,0.555465,0.339792,-1.7855509999999999,-0.342237
422,-2.818966,-1.223341,-0.086907,-0.10795899999999999,0.940242,0.32293499999999997,-0.047456,1.621953,-0.135312,0.423282,-1.611507,-0.339643
423,-2.759809,-1.229315,-0.06817000000000001,-0.124768,0.94226,0.310768,0.566353,2.20771,-0.09866,0.357342,-1.024657,-0.060265
424,-2.696113,-1.2326270000000001,-0.050519999999999995,-0.142951,0.943364,0.29937800000000003,0.019292,2.4557700000000002,-0.385878,-0.257318,0.032558,-0.100999
425,-2.653249,-1.211927,-0.038653,-0.164776,0.9362950000000001,0.310159,-1.3686610000000001,0.659722,-0.782104,-0.5211060000000001,0.220169,-0.322488
426,-2.648562,-1.1778620000000002,-0.025854000000000002,-0.181225,0.923789,0.337296,-0.857239,-0.525357,-1.101753,-0.155995,-1.04409,-0.396927
427,-2.605213,-1.1662059999999999,0.030721,-0.20115999999999998,0.919264,0.338357,-0.18345,-0.591899,-1.29565,0.720386,-0.607008,-1.694741
428,-2.606851,-1.1494870000000001,0.065603,-0.208409,0.9125540000000001,0.351862,0.200426,-2.739794,-1.021025,0.710332,0.018705,0.31197199999999997
429,-2.5977919999999997,-1.1586530000000002,0.10077699999999999,-0.207252,0.916264,0.342787,-0.323156,-0.047911,-0.284649,0.27678600000000003,0.8953959999999999,1.06064
430,-2.5424189999999998,-1.162259,0.110918,-0.224041,0.917703,0.328061,1.465435,3.064571,0.35838000000000003,-0.283039,1.100501,-0.909665
431,-2.5186889999999997,-1.21801,0.106851,-0.201569,0.938414,0.280619,2.652519,0.761722,2.187737,-0.611297,0.29143,-0.2792
432,-2.539592,-1.2945280000000001,0.07079400000000001,-0.15446300000000002,0.9620799999999999,0.22481199999999998,3.130074,0.6093609999999999,2.8450189999999997,-0.233812,0.887301,0.11938
433,-2.519836,-1.389143,0.088604,-0.10522100000000001,0.9835459999999999,0.14684,4.465301999999999,-0.154355,2.199436,-0.581227,1.44846,0.48163900000000004
434,-2.152545,-1.4740229999999999,0.453637,-0.080716,0.9953209999999999,0.053085,4.743213,0.691905,0.787035,-0.5552699999999999,1.484888,0.74939
435,-1.034363,-1.4936049999999998,1.5594270000000001,-0.06627000000000001,0.997022,-0.039404,4.418067,0.5756,0.850075,-0.339873,0.643496,0.40329499999999996
436,-0.353448,-1.444018,2.247052,-0.043762,0.991974,-0.11861400000000001,3.683037,-0.5892,1.333542,-0.358719,0.075744,0.27277399999999996
437,-0.107358,-1.3928399999999999,2.509833,-0.018966999999999998,0.984208,-0.175994,2.521456,-0.7864140000000001,1.309658,-0.16835,-0.324906,0.236754
438,-0.00337,-1.353059,2.638553,-0.000728,0.976389,-0.21601599999999999,1.7756599999999998,-1.232557,1.1052629999999999,0.23798699999999998,-0.790628,0.261472
439,0.041319999999999996,-1.32892,2.710553,0.009894,0.9708899999999999,-0.239317,0.761179,-1.224891,0.601444,0.086572,-0.43173599999999995,0.237013
440,0.027638,-1.325264,2.717605,0.006717,0.970008,-0.24297600000000003,-0.041407,-0.927945,-0.233483,0.067258,-0.614799,0.255916
441,-0.049338,-1.327301,2.655321,-0.011890000000000001,0.9705010000000001,-0.24079899999999999,-0.148248,-0.817801,-1.044083,-0.17149,-0.972759,-0.053711
442,-0.176777,-1.332761,2.543352,-0.041466,0.9718030000000001,-0.232116,-0.669833,-1.064155,-1.321943,0.079185,-0.949601,0.094787
443,-0.328474,-1.348755,2.4145689999999997,-0.071042,0.97545,-0.208443,-1.395275,-1.387108,-1.182387,0.40980200000000006,-0.818651,0.292901
444,-0.5263180000000001,-1.374559,2.237825,-0.097947,0.980807,-0.16858800000000002,-2.292065,-1.170318,-1.072493,0.5688479999999999,-0.7335689999999999,0.16218
445,-0.806616,-1.410134,1.974476,-0.11548800000000001,0.9871219999999999,-0.11068800000000001,-3.153591,-0.942773,-0.48700699999999997,0.084848,-0.329895,-0.461059
446,-1.227485,-1.4392909999999999,1.564481,-0.12346700000000001,0.991366,-0.044135,-3.1851700000000003,-0.797985,-0.43720699999999996,-0.048317,0.9495520000000001,-0.113747
447,-1.877734,-1.431814,0.928293,-0.132052,0.9903569999999999,0.041854,-4.722549,-0.866801,-0.276942,-0.188093,1.6806020000000002,-0.053038999999999996
448,-2.37339,-1.383023,0.441921,-0.12970299999999998,0.9824219999999999,0.134242,-4.4744,-0.785184,0.142362,0.069507,2.212768,-0.30743000000000004
449,-2.551979,-1.323334,0.250078,-0.136196,0.9695370000000001,0.203583,-3.042846,1.4523709999999999,-0.417732,0.711361,1.47251,0.544983
450,-2.62718,-1.2826629999999999,0.15058,-0.139812,0.9587760000000001,0.24738200000000002,-2.242671,0.091436,0.364062,0.028437999999999998,1.236552,0.206643
451,-2.705835,-1.2475129999999999,0.08363,-0.13409000000000001,0.948197,0.287989,-1.8311819999999999,-1.0209409999999999,-0.201,-1.056416,0.7040390000000001,0.466711
452,-2.7501439999999997,-1.221451,0.061416,-0.130588,0.9395969999999999,0.316387,-0.983039,-1.1118700000000001,-0.042204000000000005,-0.844967,0.197854,0.48598199999999997
453,-2.768352,-1.21678,0.054706,-0.126405,0.9379879999999999,0.322795,0.175877,-0.278844,0.023576,0.052675,-0.161545,0.21722800000000003
454,-2.75468,-1.233226,0.060962999999999996,-0.12496900000000001,0.9435620000000001,0.306709,1.174208,0.720824,0.37964499999999995,0.213561,-0.777303,-0.195457
455,-2.735793,-1.264821,0.067082,-0.118907,0.9535540000000001,0.276756,1.480887,0.5251819999999999,0.554022,0.187908,-1.225557,-0.547615
456,-2.735953,-1.286977,0.051113,-0.110498,0.959993,0.257296,0.529281,0.906148,0.6804140000000001,0.452371,-1.8793349999999998,-0.355441
457,-2.765268,-1.2887170000000001,0.002531,-0.10229400000000001,0.9604790000000001,0.258869,-0.536608,0.923473,0.46891700000000003,0.558944,-1.7680040000000001,-0.34029
458,-2.758403,-1.277372,-0.019068,-0.108136,0.957259,0.268251,-0.512254,1.740604,-0.100255,0.388471,-1.367141,-0.365159
459,-2.706229,-1.273541,-0.008653000000000001,-0.123524,0.9561440000000001,0.265569,0.09029,2.2164759999999997,-0.279321,0.35928699999999997,-1.091734,-0.09412100000000001
460,-2.620319,-1.266745,0.025939999999999998,-0.149088,0.954131,0.259621,-0.269994,3.109666,-0.8875959999999999,-0.395498,0.337617,-0.089562
461,-2.5611580000000003,-1.230457,0.036323,-0.183053,0.942641,0.279134,-2.131325,1.71862,-1.1893719999999999,-0.448783,0.011018,-0.13428199999999998
462,-2.494939,-1.1862629999999998,0.076914,-0.226018,0.926974,0.299387,-0.857195,1.1168690000000001,-2.3248349999999998,0.316289,-0.43112399999999995,-1.384699
463,-2.454772,-1.158929,0.139786,-0.253833,0.916375,0.309551,0.058533,-1.9163970000000001,-1.1491209999999998,0.688083,-0.36186999999999997,0.178654
464,-2.482997,-1.157202,0.139681,-0.24596500000000002,0.915682,0.317843,-0.44943900000000003,0.293823,0.145593,0.034493,0.334654,0.595228
465,-2.445273,-1.178398,0.15465399999999999,-0.245272,0.9239940000000001,0.293381,1.953354,0.550137,1.095674,-0.404188,0.9153,-0.685501
466,-2.459451,-1.2437340000000001,0.141708,-0.202539,0.94699,0.24936799999999998,2.381422,-0.062351,2.575732,-0.38419200000000003,0.561128,-0.088159
467,-2.483924,-1.327612,0.117602,-0.14718699999999998,0.970576,0.190564,3.5102629999999997,-0.11267200000000001,2.991742,-0.030302999999999997,1.002156,0.345493
468,-2.425253,-1.427529,0.178704,-0.09374400000000001,0.9897549999999999,0.107676,4.524337,-0.02363,2.490237,-0.402411,1.1958229999999999,0.666768
469,-1.761829,-1.5075120000000002,0.8418469999999999,-0.062068,0.9979979999999999,0.012003,4.966791000000001,0.30790500000000004,0.984574,-0.585789,1.550815,0.5687
470,-0.545499,-1.470941,2.0556810000000003,-0.051717,0.9950190000000001,-0.085211,4.697049,0.12215799999999999,0.517183,0.028249,0.47276999999999997,0.466894
471,-0.187366,-1.4011850000000001,2.4224240000000004,-0.031441000000000004,0.98565,-0.16583900000000001,3.6250269999999998,-0.45365500000000003,1.3201450000000001,-0.302619,0.10353699999999999,0.282553
472,-0.0459,-1.349516,2.5783720000000003,-0.01007,0.975617,-0.21924200000000002,2.307577,-0.669629,1.0612549999999998,-0.34549,-0.519349,0.144032
473,0.00151,-1.311117,2.653794,0.000388,0.9664729999999999,-0.256765,1.7710540000000001,-1.6731610000000001,0.7383270000000001,0.190668,-0.931866,0.29775100000000004
474,-0.0003,-1.28896,2.687506,-8.3e-05,0.9605459999999999,-0.278116,0.58387,-1.578835,0.290875,0.300773,-0.559683,0.308573
475,-0.029602999999999997,-1.285121,2.683416,-0.008341,0.9594719999999999,-0.28167800000000004,0.17509,-1.070945,-0.357838,0.14477,-0.6295,0.191941
476,-0.112429,-1.282308,2.615389,-0.031919,0.958675,-0.282704,-0.12150599999999999,-0.8115760000000001,-1.291731,-0.14543399999999998,-0.834835,0.035939
477,-0.22384,-1.290494,2.5181880000000003,-0.061408000000000004,0.9609719999999999,-0.269741,-0.947868,-1.014959,-1.129532,0.115409,-0.8417549999999999,0.07626000000000001
478,-0.343549,-1.3112,2.415293,-0.08646000000000001,0.9664940000000001,-0.24168699999999999,-1.6362,-0.9405889999999999,-1.015863,0.418796,-0.727861,0.292163
479,-0.499594,-1.345472,2.267425,-0.10703199999999999,0.974722,-0.19610999999999998,-2.741998,-0.326276,-0.769069,0.27259,-0.5545100000000001,-0.36578
480,-0.7302810000000001,-1.390419,2.036468,-0.11967,0.983776,-0.13364600000000001,-3.2943059999999997,-0.609246,-0.6550600000000001,0.242121,0.42352700000000004,-0.022328999999999998
481,-1.2316559999999999,-1.425999,1.5517889999999999,-0.13606400000000002,0.989535,-0.048,-4.647931,-1.2692379999999999,-0.666874,-0.097425,1.845105,-0.351155
482,-1.8359419999999997,-1.420966,0.9544299999999999,-0.144045,0.9887959999999999,0.039113999999999996,-4.2693650000000005,-0.102876,-0.167933,0.14038299999999998,1.14539,-0.249822
483,-2.231919,-1.385946,0.535092,-0.145067,0.982964,0.112849,-3.560779,1.591769,0.068786,0.543154,1.279777,0.306234
484,-2.451905,-1.346122,0.27908099999999997,-0.141755,0.974867,0.17186400000000002,-3.163348,0.863683,0.648266,-0.295348,1.603823,0.295376
485,-2.633986,-1.301764,0.100326,-0.129199,0.9640290000000001,0.23227899999999999,-2.920497,-1.192979,0.341746,-0.845884,1.215308,0.25795500000000005
486,-2.72233,-1.259499,0.029269,-0.12468699999999999,0.951937,0.279762,-1.948294,-0.783822,-0.256601,-0.718163,0.60182,0.284844
487,-2.7334389999999997,-1.23032,0.03429,-0.13254200000000002,0.9425959999999999,0.306501,-0.922961,-0.614718,-0.809404,-0.2355,0.186021,0.255374
488,-2.707811,-1.219627,0.059065999999999994,-0.144581,0.9389709999999999,0.312131,0.019941,0.502958,-0.345983,0.228794,-0.5581729999999999,0.089129
489,-2.68815,-1.232677,0.06483,-0.145309,0.9433799999999999,0.298186,0.9347049999999999,0.664957,0.438933,0.269485,-1.0993709999999999,-0.39776500000000004
490,-2.693228,-1.249829,0.053577,-0.136758,0.948931,0.284296,0.44828100000000004,0.155638,0.6231260000000001,0.16072899999999998,-1.9625259999999998,-0.502329
491,-2.7105919999999997,-1.255641,0.025977999999999998,-0.129494,0.9507479999999999,0.281612,-0.037382,0.716895,0.281457,0.32703499999999996,-2.020405,-0.338009
492,-2.6772549999999997,-1.2538,0.033089,-0.139592,0.950176,0.278704,0.049483,1.6606310000000002,-0.301327,0.498342,-1.446209,0.001905
493,-2.621184,-1.254646,0.049232,-0.154593,0.9504389999999999,0.269746,0.126548,2.1527830000000003,-0.100593,0.27466399999999996,-0.536514,0.304214
494,-2.573823,-1.247318,0.048711000000000004,-0.17093,0.9481360000000001,0.267989,-0.7078439999999999,2.430186,-0.284102,0.005189,-0.077667,0.055559000000000004
495,-2.5758419999999997,-1.21712,0.020405,-0.185657,0.938106,0.292379,-1.811939,0.318311,-0.5337310000000001,-0.28233,-0.240749,-0.23245700000000002
496,-2.5634509999999997,-1.18585,0.029804,-0.20520100000000002,0.926818,0.31447800000000004,-0.900907,0.407998,-1.373514,0.37201,-0.15829400000000002,-1.4788299999999999
497,-2.521433,-1.155979,0.08079700000000001,-0.23421999999999998,0.91519,0.327971,-0.103153,-1.184921,-1.715209,0.541196,0.017534,-0.08895700000000001
498,-2.511675,-1.150307,0.120627,-0.240463,0.912889,0.329859,-0.154863,-0.5716,-0.271052,0.022659000000000002,0.41663999999999995,0.511709
499,-2.479152,-1.158379,0.119566,-0.246522,0.9161549999999999,0.316044,1.02662,1.719093,0.7469399999999999,-0.19815,0.35391100000000003,-0.954594
500,-2.475971,-1.214825,0.113819,-0.21521300000000002,0.937308,0.274104,2.796975,0.057527999999999996,2.340267,-0.37576,0.315392,-0.58285
501,-2.493652,-1.298178,0.085513,-0.162504,0.9630690000000001,0.21468,3.3969419999999997,0.731748,3.175739,0.09683,1.4050799999999999,0.126659
502,-2.4474,-1.3989639999999999,0.125674,-0.10938699999999998,0.985273,0.13141,4.646336,0.163968,2.357322,-0.7236819999999999,1.7667869999999999,0.794539
503,-1.9165189999999999,-1.482271,0.645947,-0.083164,0.996084,0.029955000000000002,5.1454949999999995,0.929182,0.774586,-0.9812129999999999,1.555109,0.815855
504,-0.814181,-1.471462,1.7404009999999999,-0.072104,0.9950700000000001,-0.068069,4.676798000000001,0.281396,0.672798,-0.112374,0.467484,0.565459
505,-0.30291,-1.4140409999999999,2.262153,-0.046567000000000004,0.9877389999999999,-0.149001,3.669975,-0.583973,1.635751,-0.2345,0.29612,0.49773999999999996
506,-0.094239,-1.362544,2.488137,-0.019455,0.9783940000000001,-0.205828,2.4627950000000003,-0.749062,1.343384,-0.27713000000000004,-0.47103900000000004,0.24861399999999997
507,-0.011873,-1.326272,2.595336,-0.002874,0.970253,-0.242073,1.602763,-1.358272,0.9920530000000001,0.155783,-0.838142,0.2342
508,0.018848,-1.3066879999999998,2.656884,0.00492,0.965326,-0.260998,0.538511,-1.421079,0.5723659999999999,0.11246600000000001,-0.511239,0.33685
509,0.000951,-1.3057809999999999,2.6618619999999997,0.00024900000000000004,0.965088,-0.261921,-0.129936,-0.9477780000000001,-0.25864499999999996,-0.016149,-0.766709,0.094959
510,-0.082675,-1.30928,2.593515,-0.021351,0.9659989999999999,-0.257658,-0.303419,-0.8708440000000001,-1.230969,-0.211056,-0.9382739999999999,-0.043779000000000005
511,-0.218176,-1.318668,2.475625,-0.053996,0.968384,-0.24354699999999999,-0.964674,-1.204585,-1.37937,0.137324,-0.959656,0.117128
512,-0.376447,-1.338395,2.337584,-0.08466599999999999,0.973116,-0.214182,-1.695652,-1.1417110000000001,-1.284144,0.41891000000000006,-0.784945,0.182916
513,-0.58748,-1.366676,2.1406009999999998,-0.112348,0.97924,-0.168714,-2.577018,-0.792975,-1.15081,0.433363,-0.641013,0.033780000000000004
514,-0.890022,-1.40276,1.843391,-0.129957,0.985915,-0.10525799999999999,-3.404617,-0.471418,-0.6613479999999999,0.22804000000000002,0.00047400000000000003,-0.247327
515,-1.362044,-1.421327,1.386236,-0.14566800000000002,0.98885,-0.030858,-4.122387000000001,-1.164397,-0.700725,-0.062111,1.488353,-0.157969
516,-1.9263970000000001,-1.406622,0.8373649999999999,-0.153201,0.986554,0.056897,-4.183326999999999,-1.074957,-0.105197,-0.141355,1.636859,-0.383862
517,-2.307696,-1.367073,0.458958,-0.149818,0.9793200000000001,0.135948,-3.5964440000000004,0.143869,0.147304,0.45902200000000004,1.360386,0.450676
518,-2.47907,-1.326946,0.26966,-0.148505,0.970416,0.190353,-2.594995,0.24723499999999998,0.336829,-0.081979,1.469434,0.488724
519,-2.628916,-1.29119,0.129938,-0.135365,0.9611639999999999,0.24048699999999998,-2.413231,-1.222833,0.442532,-0.728664,1.217242,0.380652
520,-2.7190119999999998,-1.2568219999999999,0.065098,-0.126657,0.9511139999999999,0.281665,-1.620136,-1.216963,-0.11382,-0.7388060000000001,0.762586,0.492184
521,-2.743528,-1.235528,0.062139,-0.12753699999999998,0.9443219999999999,0.303289,-0.6310020000000001,-1.057107,-0.454288,-0.313548,0.302031,0.316691
522,-2.739109,-1.2312319999999999,0.077489,-0.130464,0.9429,0.30645300000000003,0.214439,-0.010623,-0.21791999999999997,0.311525,-0.443434,0.05870499999999999
523,-2.706091,-1.247946,0.089897,-0.13384200000000002,0.948335,0.287648,1.23642,1.539675,0.41321,0.510551,-1.4227610000000002,-0.319295
524,-2.675318,-1.274805,0.092574,-0.131128,0.956513,0.26054299999999997,0.9782540000000001,1.210836,0.553902,0.43587700000000007,-1.4370129999999999,-0.687301
525,-2.672463,-1.288122,0.07873200000000001,-0.126101,0.960313,0.248783,0.308869,0.68237,0.357624,0.21493800000000002,-1.850327,-0.485843
526,-2.652331,-1.2935020000000002,0.077318,-0.128653,0.9618,0.241628,0.302894,1.407,0.036187000000000004,0.258673,-1.598091,-0.243734
527,-2.621089,-1.300722,0.07435800000000001,-0.13268,0.963751,0.23146,0.075671,1.71232,0.336515,0.339071,-0.796454,0.163742
528,-2.619891,-1.285621,0.03921,-0.14019500000000001,0.9596120000000001,0.24389299999999997,-1.268653,2.015715,-0.309924,-0.115649,0.514646,0.437046
529,-2.584689,-1.2481799999999998,0.038793,-0.167575,0.9484090000000001,0.26913400000000004,-1.873298,1.360135,-1.273639,-0.264981,0.094956,-0.10173
530,-2.535548,-1.19825,0.066835,-0.207331,0.9314030000000001,0.299158,-1.57656,1.2591709999999998,-2.121742,0.421808,-0.512672,-1.071482
531,-2.4835979999999998,-1.158251,0.11881800000000001,-0.245185,0.9161030000000001,0.317228,0.029414999999999997,-0.571029,-1.636024,0.38288,-0.6437189999999999,0.024691
532,-2.475492,-1.1553069999999999,0.149043,-0.249414,0.914919,0.31735,-0.561048,-1.2294260000000001,-0.046586,0.515664,-0.132189,0.305377
533,-2.432328,-1.163825,0.164579,-0.25779,0.918324,0.300367,1.471186,2.1846200000000002,0.096762,-0.261481,0.43264300000000006,-0.664686
534,-2.430495,-1.214588,0.156101,-0.227596,0.937226,0.264204,2.310029,-0.333418,2.76038,0.049983,0.797226,-0.035826
535,-2.4209549999999997,-1.294036,0.155829,-0.180297,0.961946,0.205303,3.379831,1.145022,2.407035,0.250502,0.996215,0.071812
536,-2.27882,-1.38542,0.285039,-0.140008,0.982867,0.11986,4.669087,0.61268,2.015071,-0.13455899999999998,1.442014,0.36604000000000003
537,-1.752586,-1.454428,0.799512,-0.114178,0.993237,0.020988,4.949342,1.076423,0.887324,-0.883884,1.8125189999999998,0.815438
538,-0.9493370000000001,-1.440395,1.584927,-0.10571099999999999,0.99151,-0.075701,4.559937000000001,1.005418,0.334561,-0.060122,0.282752,0.457766
539,-0.502949,-1.392945,2.0327580000000003,-0.085271,0.984226,-0.155,3.60393,-0.234796,1.486356,-4.1e-05,0.21101,0.466279
540,-0.246164,-1.348846,2.299768,-0.053641999999999995,0.9754700000000001,-0.21349,2.688838,-0.242914,1.6455490000000002,-0.193246,-0.44290799999999997,0.376531
541,-0.104413,-1.309123,2.456023,-0.026962,0.965959,-0.257283,2.0415,-0.662602,1.400147,0.054763,-0.696717,0.473225
542,-0.029648,-1.281919,2.547962,-0.008445000000000001,0.958564,-0.284746,0.998218,-0.65271,0.897192,0.069129,-0.474479,0.47744899999999996
543,-0.022044,-1.2737040000000002,2.570134,-0.006453,0.956192,-0.292665,0.175556,-0.6599189999999999,-0.04858,-0.116106,-0.634598,0.284746
544,-0.079209,-1.273134,2.52123,-0.023206,0.956025,-0.292362,-0.08795800000000001,-0.534343,-1.1188040000000001,-0.335345,-0.939377,-0.053326
545,-0.186979,-1.2774290000000001,2.4260080000000004,-0.053755,0.957276,-0.284132,-0.653886,-1.064258,-1.309016,0.056837,-0.9796600000000001,0.145201
546,-0.307767,-1.29455,2.328993,-0.082622,0.9620860000000001,-0.25992600000000005,-1.4731809999999999,-1.4790530000000002,-1.0311290000000002,0.272563,-0.853382,0.29343400000000003
547,-0.454063,-1.324598,2.203853,-0.106897,0.9698459999999999,-0.21901700000000002,-2.308805,-1.1443889999999999,-0.881434,0.270471,-0.621045,-0.160148
548,-0.664574,-1.3670360000000001,2.01209,-0.12479100000000001,0.9793129999999999,-0.159282,-3.2185740000000003,-1.262772,-0.5917399999999999,0.285619,0.133053,-0.010304
549,-1.056616,-1.404079,1.649377,-0.14448,0.986135,-0.081611,-4.282166,-1.7617990000000001,-0.881608,0.24325,1.7116040000000001,-0.199212
550,-1.6499720000000002,-1.412228,1.075297,-0.1574,0.987454,0.012487999999999999,-4.461512,-0.8839319999999999,-0.214211,0.290075,1.336978,-0.365989
551,-2.1398919999999997,-1.38995,0.573715,-0.151506,0.983692,0.09691799999999999,-4.086326000000001,0.825299,0.39297,0.69388,1.3713799999999998,0.25763600000000003
552,-2.379912,-1.349304,0.284469,-0.151608,0.975571,0.158975,-3.160401,2.683152,0.386374,0.507672,1.6601560000000002,0.312658
553,-2.545984,-1.3105959999999999,0.095595,-0.14432999999999999,0.9663379999999999,0.21296700000000002,-2.8193759999999997,-0.206175,0.431983,-0.8683049999999999,1.413377,0.42947399999999997
554,-2.6423520000000003,-1.268629,0.010513,-0.14247,0.954694,0.261261,-2.080139,-0.715054,-0.288592,-0.9835209999999999,0.699725,0.377548
555,-2.688971,-1.240766,-0.015581999999999999,-0.14172200000000001,0.946033,0.291433,-0.994216,-1.1633200000000001,-0.21847600000000003,-0.525667,-0.003116,0.275294
556,-2.7112979999999998,-1.235212,-0.02012,-0.13736900000000002,0.944218,0.299294,0.10453399999999999,-0.637933,0.108992,0.080362,-0.5317729999999999,0.088844
557,-2.7207689999999998,-1.249735,-0.032555,-0.128913,0.948901,0.288035,0.926617,0.527675,0.67833,0.239127,-1.1749450000000001,-0.196894
558,-2.729406,-1.273841,-0.050128,-0.117221,0.956232,0.268097,0.805074,0.31395700000000004,0.683096,0.26881700000000003,-1.362589,-0.467041
559,-2.75305,-1.281733,-0.081175,-0.10798800000000001,0.9585110000000001,0.263802,-0.179547,0.29615199999999997,0.39529899999999996,0.344102,-1.955185,-0.342598
560,-2.759233,-1.27015,-0.099001,-0.11049,0.955145,0.27474699999999996,-0.711982,0.902177,-0.178559,0.50702,-1.6641759999999999,-0.27566199999999996
561,-2.7274580000000004,-1.2619129999999998,-0.09955900000000001,-0.122325,0.952674,0.278292,-0.264304,1.875939,-0.059175,0.22857199999999997,-0.8911049999999999,-0.086382
562,-2.6888400000000003,-1.250518,-0.100748,-0.137718,0.949148,0.28310599999999997,-0.717723,2.183824,-0.469729,-0.243538,0.215128,0.12378499999999999
563,-2.6532400000000003,-1.2193969999999998,-0.097386,-0.161492,0.9388920000000001,0.30397199999999996,-1.706076,0.992525,-0.8639389999999999,-0.36099899999999996,0.017972,0.023482
564,-2.621707,-1.183334,-0.076798,-0.187701,0.9258709999999999,0.327913,-1.04881,0.6156550000000001,-1.492321,0.257815,-0.533262,-1.5802479999999999
565,-2.580658,-1.153251,-0.027670999999999998,-0.21572399999999997,0.9140870000000001,0.343371,-0.155305,-0.8981520000000001,-1.455298,0.500269,-0.376703,0.35699200000000003
566,-2.57525,-1.154306,-0.001234,-0.21706,0.9145139999999999,0.341386,0.03513,-0.632437,0.12666,0.545383,0.156103,0.40513499999999997
567,-2.535937,-1.162613,0.002121,-0.225977,0.9178440000000001,0.326334,1.287218,2.457414,0.235064,-0.171148,0.697742,-0.45046400000000003
568,-2.510038,-1.2199149999999999,0.003831,-0.202933,0.9390700000000001,0.27742100000000003,2.783879,0.424314,2.536254,-0.503015,0.86046,-0.5315409999999999
569,-2.528785,-1.299202,-0.027993999999999998,-0.15429500000000002,0.9633450000000001,0.219448,3.159809,0.8211209999999999,2.612079,-0.046755,0.9263950000000001,0.420018
570,-2.4645650000000003,-1.3935959999999998,0.027362,-0.110426,0.984341,0.13738699999999998,4.640039,0.22445500000000002,2.15637,-0.42294499999999996,0.966175,0.436312
571,-2.0296939999999997,-1.479409,0.457535,-0.081802,0.995827,0.040416,4.828857,0.561588,1.0687389999999999,-0.674622,1.491142,0.819157
572,-0.8873469999999999,-1.48676,1.588805,-0.06507,0.9964709999999999,-0.052992,4.463826999999999,0.720589,0.783975,-0.26304,1.094868,0.475599
573,-0.32961799999999997,-1.4285,2.142012,-0.0459,0.989893,-0.13417300000000001,3.768339,0.170768,1.154767,-0.187971,0.07604,0.481128
574,-0.10399100000000001,-1.376226,2.375028,-0.020069,0.981131,-0.19229300000000002,2.548449,-0.45105100000000004,1.337186,-0.512798,-0.28884,0.202837
575,-0.007973000000000001,-1.3337709999999998,2.494249,-0.001872,0.9720409999999999,-0.2348,1.963071,-1.390555,1.0287899999999999,-0.145787,-0.8571719999999999,0.17774700000000002
576,0.017371,-1.305869,2.5540220000000002,0.004548,0.965111,-0.261795,0.9674799999999999,-1.665354,0.550034,0.186629,-0.613915,0.356811
577,-0.004745,-1.298211,2.5632099999999998,-0.001277,0.9630780000000001,-0.269214,0.144774,-1.4444860000000002,-0.156749,0.174602,-0.521641,0.23752199999999998
578,-0.08539,-1.296416,2.504941,-0.023108,0.962593,-0.269959,-0.034753,-1.119046,-1.1978,-0.113397,-0.8971030000000001,0.000947
579,-0.214071,-1.300738,2.394604,-0.056675,0.9637549999999999,-0.260693,-0.720457,-1.238409,-1.389376,-0.051708000000000004,-0.983485,0.060177999999999995
580,-0.352488,-1.316928,2.2814229999999998,-0.086704,0.9679479999999999,-0.235704,-1.451368,-1.455362,-1.113261,0.302356,-0.90969,0.144472
581,-0.525034,-1.343234,2.130404,-0.113079,0.9742190000000001,-0.195212,-2.257264,-1.201567,-1.012393,0.494137,-0.743171,0.25871900000000003
582,-0.758257,-1.380383,1.913686,-0.130146,0.9819260000000001,-0.137409,-3.2007939999999997,-0.915251,-0.40085,0.42953800000000003,-0.700066,-0.13758499999999999
583,-1.102857,-1.419433,1.5791879999999998,-0.13457,0.988566,-0.068008,-3.338225,-1.0142229999999999,-0.306612,0.25313,0.24185700000000002,-0.157013
584,-1.723269,-1.4231790000000002,0.966318,-0.145367,0.989124,0.022338,-5.06077,-0.322731,-0.44344399999999995,0.153301,1.695187,-0.161528
585,-2.2624310000000003,-1.384217,0.421181,-0.14286600000000002,0.9826450000000001,0.118306,-4.767437,-0.270428,0.340477,0.26861399999999996,1.865851,-0.425511
586,-2.49268,-1.32592,0.174266,-0.146507,0.970167,0.193156,-3.269289,1.763691,-0.285121,0.64289,1.18918,0.678442
587,-2.5707400000000002,-1.28177,0.054823000000000004,-0.154008,0.958522,0.239823,-2.639677,1.336611,0.21013800000000002,-0.084411,1.403356,0.478988
588,-2.653468,-1.237968,-0.022433,-0.153219,0.9451219999999999,0.288558,-2.2601259999999996,-1.141512,-0.311737,-1.0273079999999999,1.015052,0.46667600000000004
589,-2.712265,-1.203087,-0.057589,-0.149635,0.933153,0.326851,-1.4963309999999999,-1.237511,-0.14390899999999998,-0.99334,0.27624299999999996,0.29642399999999997
590,-2.745256,-1.187182,-0.061216999999999994,-0.144485,0.927318,0.34525900000000004,-0.265421,-1.4797,-0.318735,0.09516799999999999,-0.012508,0.335801
591,-2.755824,-1.193657,-0.053679,-0.138566,0.9297219999999999,0.341197,0.653988,-0.505087,0.24405,0.499223,-0.636509,-0.057994000000000004
592,-2.765057,-1.220761,-0.05984400000000001,-0.126095,0.9393600000000001,0.318904,1.374374,0.108004,0.81125,0.220822,-1.020018,-0.5845600000000001
593,-2.783821,-1.246242,-0.091034,-0.111669,0.947793,0.298691,0.677926,0.6038859999999999,1.016189,0.188192,-1.7046290000000002,-0.48364300000000005
594,-2.8083400000000003,-1.253601,-0.13129000000000002,-0.102028,0.9501139999999999,0.29474,-0.159974,0.8924799999999999,0.435263,0.330056,-1.696391,-0.360246
595,-2.773981,-1.247451,-0.133206,-0.11419100000000001,0.9481780000000001,0.29651,-0.270726,2.311689,-0.332176,0.293833,-1.143048,-0.176316
596,-2.700895,-1.2402,-0.106906,-0.138467,0.9458489999999999,0.293591,-0.18525999999999998,2.299715,-0.608233,0.230844,-0.8552420000000001,0.06673
597,-2.633211,-1.222399,-0.077391,-0.166176,0.9399209999999999,0.298215,-0.843981,1.5473350000000001,-1.028477,-0.401451,0.092199,-0.151792
598,-2.604157,-1.189219,-0.055788,-0.190636,0.9280780000000001,0.319886,-1.3343459999999998,0.18549300000000002,-1.297212,-0.114754,-0.307763,-0.7017680000000001
599,-2.553512,-1.16246,-0.001472,-0.22028699999999998,0.917783,0.330374,-0.197629,-0.494728,-1.6056620000000001,0.530849,-0.59953,-0.41089499999999995
600,-2.532893,-1.161872,0.049855000000000003,-0.22735999999999998,0.917549,0.326205,0.751955,-1.320336,-0.294741,0.861592,-0.33220700000000003,0.019055000000000002
601,-2.5017259999999997,-1.1716,0.072243,-0.23207399999999997,0.921373,0.311787,1.2639280000000002,1.817982,-0.20972800000000003,0.202549,0.625746,-0.108952
602,-2.427937,-1.212882,0.10307000000000001,-0.22931999999999997,0.93663,0.264832,2.107883,1.896709,2.011558,-0.287175,1.106049,-0.632096
603,-2.43343,-1.288851,0.073634,-0.18096700000000002,0.960516,0.211326,3.043838,0.779587,2.975586,-0.662569,0.43622799999999995,0.05896799999999999
604,-2.358105,-1.386664,0.13133399999999998,-0.129217,0.983095,0.129712,4.352384,0.8369540000000001,2.680209,-0.787592,1.410108,0.635837
605,-1.9566709999999998,-1.4737870000000002,0.524428,-0.08972999999999999,0.9952979999999999,0.036452,4.819791,0.49027600000000005,1.593264,-0.9148790000000001,1.9095630000000001,0.8473370000000001
606,-0.8437450000000001,-1.477654,1.625803,-0.069485,0.9956649999999999,-0.061814999999999995,4.767597,0.969561,0.8626889999999999,-0.678959,1.630632,0.8460409999999999
607,-0.27619099999999996,-1.41593,2.188001,-0.042062,0.988032,-0.1484,4.002985,0.048201999999999995,1.764382,-0.296592,0.20075,0.442406
608,-0.028862,-1.356967,2.449594,-0.006124,0.977226,-0.21211300000000002,2.8681520000000003,-0.8415469999999999,1.7437080000000003,-0.627604,-0.148338,0.43216000000000004
609,0.044032,-1.309592,2.5518099999999997,0.011367,0.9660799999999999,-0.257992,1.9882919999999997,-1.560746,0.9437260000000001,0.14943,-0.903122,0.186642
610,0.050892,-1.2805,2.5960650000000003,0.014561000000000001,0.958159,-0.285864,1.100377,-1.817953,0.500951,0.331921,-0.68405,0.226904
611,0.024521,-1.270892,2.601181,0.007243,0.9553649999999999,-0.29533899999999996,0.157903,-1.3901299999999999,-0.174887,0.22739099999999998,-0.604657,0.368917
612,-0.037959,-1.273098,2.555197,-0.011131,0.9560139999999999,-0.293108,-0.252352,-0.652578,-0.9787959999999999,-0.050087,-0.798513,0.117647
613,-0.136271,-1.2814219999999998,2.464076,-0.038765,0.9584229999999999,-0.282706,-0.740268,-0.613216,-1.341177,-0.029883999999999997,-0.902224,0.07459199999999999
614,-0.254828,-1.300784,2.357957,-0.06724,0.9637680000000001,-0.258128,-1.532735,-0.898633,-1.20641,0.255289,-0.8523780000000001,0.22805300000000003
615,-0.40831100000000004,-1.333704,2.21603,-0.09326,0.972025,-0.215567,-2.528156,-0.7646850000000001,-1.073597,0.442274,-0.785868,0.320349
616,-0.629271,-1.3800350000000001,2.004746,-0.11159200000000001,0.9818600000000001,-0.15328599999999998,-3.4678269999999998,-0.6930689999999999,-0.586734,0.310933,-0.625659,-0.223545
617,-0.989812,-1.428168,1.6475650000000002,-0.11882000000000001,0.9898459999999999,-0.078014,-3.674664,-0.448196,-0.372712,-0.037491000000000003,0.33281700000000003,-0.162037
618,-1.67185,-1.436558,0.9751850000000001,-0.13314700000000002,0.9910040000000001,0.013500999999999999,-5.041861,-0.921357,-0.740578,-0.159089,1.8051240000000002,-0.14651199999999998
619,-2.2745580000000003,-1.3919540000000001,0.383267,-0.135623,0.98405,0.11510799999999999,-4.895262000000001,-0.847836,0.191842,0.28427399999999997,1.923375,-0.428188
620,-2.54541,-1.331229,0.11208800000000001,-0.13322799999999999,0.971441,0.19634400000000002,-3.562621,0.590886,-0.047452,0.7023050000000001,1.2012120000000002,0.80448
621,-2.6371279999999997,-1.2864950000000002,-0.015313,-0.135568,0.959858,0.245544,-2.54033,1.480781,0.566367,0.1988,1.194485,0.618333
622,-2.728487,-1.245706,-0.110122,-0.128221,0.947622,0.292522,-2.28303,-0.591329,0.11468800000000001,-0.919615,0.8901469999999999,0.503895
623,-2.778734,-1.212017,-0.150838,-0.12463199999999999,0.936326,0.328264,-1.478325,-0.992711,-0.106708,-1.2860129999999999,0.480025,0.274839
624,-2.813268,-1.195802,-0.15277000000000002,-0.118104,0.9305100000000001,0.346699,-0.35847399999999996,-1.7245709999999999,-0.274204,-0.415236,0.149782,0.151226
625,-2.83366,-1.198441,-0.143208,-0.110266,0.931473,0.346693,0.545333,-1.190815,-0.005792,0.383337,-0.456467,-0.016279
626,-2.844875,-1.2212530000000001,-0.138521,-0.100131,0.9395290000000001,0.327499,1.329613,-0.535721,0.391952,0.416979,-0.882141,-0.44825699999999996
627,-2.853977,-1.244248,-0.147724,-0.09099199999999999,0.947155,0.307593,0.7816310000000001,0.354271,0.478851,0.295749,-1.322338,-0.552909
628,-2.854908,-1.252585,-0.165952,-0.088469,0.9497969999999999,0.300093,0.082936,1.117105,0.26148499999999997,0.324278,-1.96623,-0.370375
629,-2.809996,-1.2526549999999999,-0.158389,-0.101832,0.949818,0.29575500000000005,0.176281,2.3122380000000002,-0.32478,0.260843,-1.601826,-0.5204409999999999
630,-2.717717,-1.260369,-0.117627,-0.125634,0.952203,0.278426,0.767245,2.6632,-0.425788,0.41829799999999995,-1.1099940000000001,-0.009673000000000001
631,-2.647063,-1.258894,-0.089768,-0.145642,0.951752,0.270098,-0.515844,1.800528,-0.42937200000000003,-0.251025,0.16301,-0.060076
632,-2.658872,-1.22831,-0.116675,-0.155886,0.941923,0.29745,-1.9012310000000001,0.07404,-0.374879,-0.411757,0.116229,-0.098063
633,-2.64282,-1.195234,-0.103745,-0.175453,0.930301,0.32210300000000003,-1.055158,0.429094,-1.452602,0.062324,-0.45969,-0.739629
634,-2.6108119999999997,-1.1615030000000002,-0.061833000000000006,-0.20144600000000001,0.917402,0.3432,-0.370396,-1.142967,-1.318686,0.40654,0.076387,0.25593699999999997
635,-2.6290139999999997,-1.157078,-0.068893,-0.197156,0.915632,0.35034299999999996,-0.9620620000000001,-0.490517,0.664307,0.499493,0.40162800000000004,0.778166
636,-2.573902,-1.187308,-0.037278,-0.201175,0.927365,0.31546199999999996,2.996998,2.3829569999999998,-0.20902800000000002,-0.733136,0.217944,-0.627627
637,-2.519399,-1.243483,-0.004286,-0.187371,0.946909,0.26124400000000003,2.916777,0.400938,2.1398349999999997,-0.676078,0.636724,-0.580763
638,-2.540393,-1.338662,-0.021428,-0.13012,0.9731780000000001,0.189708,4.157135,-0.398746,3.109855,-0.369819,1.222913,-0.046382
639,-2.408211,-1.439402,0.12038299999999999,-0.087687,0.9913799999999999,0.097319,5.045656,-0.22357,1.424842,-0.31697600000000004,1.546492,0.5931109999999999
640,-1.4664030000000001,-1.4953610000000002,1.060647,-0.074923,0.9971559999999999,-0.00785,5.276705000000001,0.7365619999999999,0.34739000000000003,-0.174924,1.2732299999999999,0.8589399999999999
641,-0.543326,-1.445724,1.963597,-0.064483,0.992189,-0.106768,4.539127,1.198109,0.6492939999999999,0.280609,0.334258,0.43281800000000004
642,-0.189175,-1.382097,2.302594,-0.035273,0.9822489999999999,-0.184225,3.4506550000000002,0.747154,1.6773759999999998,-0.43492700000000006,0.256444,0.299383
643,0.00744,-1.330331,2.49815,0.001772,0.9712270000000001,-0.238141,2.369781,-0.032842,1.8684459999999998,-0.682375,-0.372137,0.189863
644,0.10326099999999999,-1.291424,2.608979,0.028423,0.9612290000000001,-0.274278,1.524608,-0.88302,1.2921340000000001,0.009617,-0.675218,0.226579
645,0.132931,-1.276904,2.667461,0.038393000000000004,0.957124,-0.287119,0.080331,-1.439017,0.661053,0.12187,-0.522874,0.235498
646,0.11578499999999999,-1.282944,2.671401,0.032797,0.9588559999999999,-0.281987,-0.43661300000000003,-0.746827,-0.42768999999999996,-0.044683,-0.825677,0.222294
647,0.035410000000000004,-1.296451,2.5977040000000002,0.009590999999999999,0.9626030000000001,-0.270741,-0.728716,-0.41406400000000004,-1.3381459999999998,-0.186532,-1.0112780000000001,0.132099
648,-0.0745,-1.317735,2.498337,-0.018635,0.968151,-0.249667,-1.3558940000000002,-0.883569,-1.131485,-0.017345,-0.9076040000000001,0.31769000000000003
649,-0.186553,-1.349328,2.40535,-0.04074,0.975576,-0.215842,-1.8974919999999997,-1.15476,-0.775998,0.005339,-0.737386,0.164328
650,-0.34428800000000004,-1.392066,2.271703,-0.060002,0.9840700000000001,-0.16733800000000001,-2.734442,-1.402596,-0.676841,0.129857,-0.598618,0.042185
651,-0.615784,-1.446391,2.0246060000000003,-0.071663,0.9922719999999999,-0.101281,-3.40785,-1.284678,-0.277908,0.062095000000000004,-0.129875,-0.21861999999999998
652,-1.30273,-1.481048,1.363573,-0.086404,0.995975,-0.023733,-4.332103,-1.519644,-0.92286,0.298151,1.419186,-0.152399
653,-2.208024,-1.443551,0.479908,-0.101982,0.991915,0.075491,-4.754466000000001,-1.0682,-0.4991,0.328987,1.742536,-0.2284
654,-2.552168,-1.378206,0.13966900000000002,-0.10639000000000001,0.981512,0.15909500000000001,-3.6795080000000002,0.162114,-0.34575300000000003,0.621725,1.332926,0.494958
655,-2.649467,-1.326099,0.012593,-0.11446500000000001,0.970211,0.21350500000000003,-2.6720599999999997,1.6396130000000002,0.121931,-0.05561,1.587025,0.625057
656,-2.737902,-1.279217,-0.078135,-0.112918,0.957791,0.264352,-2.5214990000000004,-0.8128529999999999,-0.224252,-0.965161,1.3064149999999999,0.45792299999999997
657,-2.774308,-1.2359200000000001,-0.095189,-0.11801099999999999,0.944451,0.30672699999999997,-1.7967090000000001,-0.908515,-0.638878,-1.3245850000000001,0.555091,0.398808
658,-2.781547,-1.212309,-0.079752,-0.12361099999999998,0.9364290000000001,0.328355,-0.48208199999999995,-1.1430129999999998,-0.6785329999999999,-0.42478999999999995,0.198535,0.284224
659,-2.7838439999999998,-1.213948,-0.063525,-0.12231900000000001,0.937002,0.3272,0.448009,-0.6625270000000001,0.100741,0.329335,-0.35799200000000003,0.045862
660,-2.803648,-1.2335690000000001,-0.075752,-0.109698,0.9436760000000001,0.31215,1.041326,-0.282404,0.6961930000000001,0.24443299999999998,-0.9218860000000001,-0.39618000000000003
661,-2.831204,-1.252828,-0.10293,-0.095486,0.9498719999999999,0.29769,0.530308,0.147817,0.644003,0.265225,-1.203443,-0.487937
662,-2.8498330000000003,-1.2546979999999999,-0.13197799999999998,-0.089413,0.950456,0.297715,-0.362089,0.5977979999999999,0.244087,0.345943,-1.823579,-0.35232600000000003
663,-2.831845,-1.244866,-0.137474,-0.097597,0.9473530000000001,0.304944,-0.35965,1.6159709999999998,-0.23256,0.40489400000000003,-1.618572,-0.39671
664,-2.766396,-1.246141,-0.11534200000000001,-0.11689000000000001,0.9477610000000001,0.29678499999999997,0.427554,2.456157,-0.302913,0.40908,-1.172507,-0.238405
665,-2.686214,-1.248423,-0.08446000000000001,-0.139335,0.948486,0.284527,0.069426,2.5286880000000003,-0.547994,0.023185,-0.204498,0.072147
666,-2.643443,-1.228575,-0.07295399999999999,-0.160338,0.942011,0.29479099999999997,-1.302837,0.789708,-0.577784,-0.5124529999999999,0.06892899999999999,-0.13181199999999998
667,-2.648149,-1.194649,-0.079037,-0.173992,0.9300870000000001,0.32351399999999997,-1.416274,-0.136245,-0.954472,-0.041981,-0.367755,-0.721173
668,-2.641166,-1.1592930000000001,-0.06068,-0.191911,0.9165200000000001,0.350936,-0.9740690000000001,-1.1172540000000002,-1.098609,0.6559010000000001,-0.144319,-0.8879540000000001
669,-2.638373,-1.160686,-0.028813,-0.192275,0.917077,0.349279,0.561413,-1.133508,0.034839,0.7389060000000001,0.053778999999999993,0.412775
670,-2.618293,-1.159041,-0.033010000000000005,-0.200003,0.9164200000000001,0.346654,0.8210459999999999,2.3688,-0.10778099999999999,-0.09762,0.452553,0.085841
671,-2.573859,-1.200377,-0.011038,-0.194656,0.932176,0.305211,2.246448,0.42176099999999994,1.513413,-0.5524140000000001,0.633483,-0.42928
672,-2.594923,-1.271483,-0.035772000000000005,-0.15328,0.9555389999999999,0.25188499999999997,3.106968,0.057106,2.447108,-0.514582,0.327954,0.095313
673,-2.598461,-1.3658299999999999,-0.040456,-0.10518599999999999,0.979068,0.17423699999999998,4.456472,-0.11744,2.302934,-0.18966,1.070554,0.296665
674,-2.373512,-1.46259,0.184936,-0.075021,0.994151,0.077665,5.041574,0.373531,1.0287979999999999,-0.5741649999999999,1.512593,0.811068
675,-1.219598,-1.5019209999999998,1.328336,-0.0646,0.9976290000000001,-0.023669,4.99155,0.752154,0.427623,-0.34606,1.360998,0.6116659999999999
676,-0.400785,-1.444099,2.144368,-0.049294,0.991985,-0.116337,4.350502,-0.095756,0.970093,-0.23049099999999997,0.170979,0.45763100000000007
677,-0.14197200000000001,-1.378543,2.4144970000000003,-0.027035000000000003,0.981576,-0.189144,3.2341330000000004,-0.412444,1.213733,-0.23666700000000002,-0.197015,0.391323
678,-0.036174,-1.328147,2.533545,-0.00869,0.9707049999999999,-0.24011500000000002,2.331332,-0.676871,0.990917,0.035774,-0.750765,0.256182
679,0.011966,-1.290075,2.603734,0.003315,0.9608559999999999,-0.277026,1.516583,-1.0523959999999999,0.768858,0.103817,-0.530772,0.267443
680,0.017345,-1.275736,2.633021,0.005044,0.956785,-0.29075100000000004,0.35796999999999995,-1.155726,0.175512,-0.023781,-0.5659609999999999,0.15272
681,-0.035207,-1.273115,2.598705,-0.010324,0.9560190000000001,-0.29312,0.047166,-0.918999,-0.9443229999999999,-0.193777,-0.8116399999999999,-0.092027
682,-0.144238,-1.277731,2.50465,-0.041524,0.957363,-0.28588600000000003,-0.684474,-1.05534,-1.378684,0.052067999999999996,-0.943737,0.028607999999999998
683,-0.265398,-1.2993569999999999,2.406382,-0.070325,0.9633860000000001,-0.258728,-1.6705009999999998,-1.440114,-1.004791,0.217298,-0.893546,0.197571
684,-0.417996,-1.3320530000000002,2.275562,-0.09599400000000001,0.971636,-0.21611799999999998,-2.365868,-1.180827,-1.040959,0.41061499999999995,-0.669573,0.30555
685,-0.6340779999999999,-1.375338,2.068391,-0.115058,0.980959,-0.15646,-3.4298370000000005,-0.327737,-0.602967,0.151252,-0.270403,-0.343586
686,-1.0057989999999999,-1.417816,1.7041990000000002,-0.128697,0.9883209999999999,-0.081585,-3.844678,-0.9635819999999999,-0.806944,0.153294,1.198065,-0.13228199999999998
687,-1.639763,-1.420273,1.08735,-0.149593,0.988693,0.010333,-4.58058,-1.333106,-0.999618,0.106044,1.569413,-0.5082270000000001
688,-2.151179,-1.384269,0.5801930000000001,-0.155077,0.9826540000000001,0.101686,-4.386069,0.151816,0.180223,0.42483699999999996,0.8352780000000001,-0.055406
689,-2.421995,-1.338641,0.28896,-0.151636,0.973173,0.173031,-3.3779019999999997,1.316957,0.172954,0.480158,1.6252469999999999,0.780049
690,-2.546641,-1.296094,0.12606099999999998,-0.152031,0.962506,0.22464800000000001,-2.782985,1.0548,0.48081999999999997,-0.042778,1.7223689999999998,0.5778270000000001
691,-2.645012,-1.254069,0.024326,-0.148384,0.95026,0.273837,-2.353847,-0.367777,-0.04847,-1.0471110000000001,0.9461940000000001,0.37057199999999996
692,-2.704286,-1.220988,-0.019622,-0.14514000000000002,0.9394379999999999,0.310463,-1.392291,-1.318959,-0.10996900000000001,-0.8306899999999999,0.39859,0.240013
693,-2.737222,-1.211661,-0.028948,-0.13828,0.9362010000000001,0.32311799999999996,0.070207,-0.9890540000000001,0.036556,-0.112193,-0.090437,0.261401
694,-2.745759,-1.228257,-0.034089,-0.12950699999999998,0.9419049999999999,0.30990700000000004,1.1096700000000002,0.17874600000000002,0.668298,0.043982,-0.8845930000000001,0.205749
695,-2.765149,-1.262943,-0.059505999999999996,-0.111392,0.9529860000000001,0.281794,1.394562,0.210894,1.172311,-0.025892000000000002,-1.188658,-0.385752
696,-2.811382,-1.2846540000000002,-0.116178,-0.09151799999999999,0.95934,0.267002,0.271351,0.602043,1.032573,0.166301,-1.600758,-0.37985599999999997
697,-2.844154,-1.279864,-0.165944,-0.084066,0.9579770000000001,0.274248,-0.823694,0.8998870000000001,0.226581,0.685888,-1.979309,-0.361971
698,-2.812797,-1.264335,-0.166579,-0.097415,0.953407,0.285524,-0.44868800000000003,2.072824,-0.381189,0.6509119999999999,-1.4594799999999999,-0.515932
699,-2.747474,-1.261293,-0.147722,-0.116959,0.952485,0.281233,0.001823,2.420474,-0.331486,0.111954,-0.383836,0.039842
700,-2.668389,-1.245953,-0.116755,-0.145453,0.947701,0.284087,-0.93625,2.386022,-1.024861,-0.518731,0.325279,0.014053999999999999
701,-2.629225,-1.2062110000000001,-0.09907,-0.174801,0.9342719999999999,0.310774,-1.8106799999999998,0.5270729999999999,-1.32128,-0.538288,-0.116126,-0.16053499999999998
702,-2.591339,-1.161051,-0.061841,-0.20831100000000002,0.917222,0.339571,-1.540581,-0.394441,-1.8085259999999999,0.295195,-0.387223,-1.272402
703,-2.5896220000000003,-1.1488040000000002,-0.023298,-0.21476900000000002,0.912275,0.348752,0.442118,-1.7269599999999998,-0.36796100000000004,0.512651,-0.311735,0.023821000000000002
704,-2.613522,-1.149553,-0.031560000000000005,-0.206029,0.912581,0.353195,-0.020982,0.42872200000000005,0.141993,0.347813,-0.051131,0.56662
705,-2.573875,-1.1712280000000002,-0.019967,-0.209179,0.9212290000000001,0.327994,1.076642,1.249127,1.018141,0.205746,0.8823290000000001,-0.39174499999999995
706,-2.610484,-1.2375049999999999,-0.07256699999999999,-0.1657,0.9449709999999999,0.282086,3.12657,0.578345,2.8824110000000003,-0.129832,0.722083,-0.272916
707,-2.618132,-1.32602,-0.10311600000000001,-0.12113900000000001,0.970192,0.209887,4.093151,1.136866,2.4985459999999997,-0.07257100000000001,1.038353,0.245542
708,-2.524874,-1.4258,-0.023358,-0.083565,0.989506,0.117869,4.796647,0.615855,1.6463459999999999,-0.781883,1.5571700000000002,0.7969109999999999
709,-1.88525,-1.503339,0.60477,-0.064097,0.997726,0.020847,4.777830000000001,0.779225,0.768995,-0.726018,1.408067,0.669186
710,-0.5866,-1.486234,1.894866,-0.04675,0.9964270000000001,-0.070339,4.313231,0.256581,1.0697940000000001,-0.335147,0.5095390000000001,0.648555
711,-0.120182,-1.42402,2.372058,-0.017534,0.9892479999999999,-0.14519100000000001,3.349208,-0.724584,1.649703,-0.579543,0.295161,0.517994
712,0.025509999999999998,-1.371933,2.540162,0.005039,0.980292,-0.197489,2.356415,-1.163146,1.096401,-0.347202,-0.440985,0.269617
713,0.070887,-1.332371,2.6173610000000003,0.016728,0.9717110000000001,-0.23557899999999998,1.692963,-1.649719,0.808243,0.067531,-0.826829,0.244398
714,0.071265,-1.310349,2.651137,0.018336,0.966275,-0.256857,0.675579,-1.591911,0.28831599999999996,0.22998600000000002,-0.510846,0.256415
715,0.035849,-1.306017,2.642715,0.009379,0.96515,-0.261527,0.051895000000000004,-1.1664430000000001,-0.341495,0.12950599999999998,-0.604692,0.185629
716,-0.036552,-1.308561,2.583502,-0.009473,0.9658129999999999,-0.259065,-0.287055,-0.56818,-1.0069270000000001,-0.085772,-0.9132309999999999,0.037170999999999996
717,-0.140707,-1.320595,2.4893509999999996,-0.034724,0.9688629999999999,-0.24515,-0.9799370000000001,-0.7890050000000001,-1.126852,0.013255000000000001,-0.9663139999999999,0.024324000000000002
718,-0.275548,-1.3432979999999999,2.369175,-0.061363,0.974234,-0.21703000000000003,-1.6821439999999999,-0.908755,-1.207447,0.23754099999999997,-0.847555,0.19701
719,-0.471545,-1.3757540000000001,2.1855759999999997,-0.088038,0.981039,-0.172654,-2.548177,-0.7643840000000001,-1.129292,0.277567,-0.740775,0.015732
720,-0.77308,-1.4146239999999999,1.8966619999999998,-0.108615,0.9878299999999999,-0.111324,-3.193002,-1.094399,-0.8919549999999999,0.09274600000000001,-0.222983,-0.172535
721,-1.331544,-1.434744,1.365074,-0.13176400000000002,0.9907590000000001,-0.032139999999999995,-4.438155,-1.810357,-1.119792,0.005695,1.657663,-0.331202
722,-1.964432,-1.4104290000000002,0.760017,-0.147464,0.9871690000000001,0.06124299999999999,-4.339212,-1.427818,-0.43379300000000004,0.078097,1.5628950000000001,-0.42301400000000006
723,-2.331336,-1.368658,0.390706,-0.14544400000000002,0.9796389999999999,0.13838699999999998,-3.468177,0.561582,0.275837,0.496717,1.019887,0.285731
724,-2.516625,-1.324392,0.180727,-0.142708,0.9697959999999999,0.197811,-3.206086,1.356833,0.442223,-0.38076,1.774543,0.274937
725,-2.64489,-1.273552,0.039613999999999996,-0.139568,0.956147,0.25749099999999997,-2.982123,-0.33577399999999996,-0.046494,-0.746404,1.69728,0.069734
726,-2.69696,-1.227791,0.00445,-0.14465799999999998,0.9417479999999999,0.303615,-1.8174689999999998,-1.13804,-0.760517,-0.611338,0.371393,0.38901199999999997
727,-2.70368,-1.205864,0.016949000000000002,-0.151337,0.934148,0.323207,-0.361991,-0.8160890000000001,-0.483707,-0.035156,-0.114598,0.340412
728,-2.70995,-1.208804,0.023288999999999997,-0.14815699999999998,0.935193,0.321654,0.39123600000000003,-0.357057,0.219583,0.11207,-0.5631079999999999,0.15001099999999998
729,-2.722498,-1.2291969999999999,0.004423,-0.13632,0.9422200000000001,0.306002,1.139993,0.5291779999999999,0.920158,0.044126,-1.042424,-0.310626
730,-2.741193,-1.255272,-0.024997,-0.120956,0.950634,0.285769,0.72339,0.46756400000000004,0.971806,0.164718,-1.407222,-0.36792199999999997
731,-2.768495,-1.265167,-0.065545,-0.109675,0.953658,0.28019099999999997,-0.009133,0.613509,0.54135,0.468257,-1.8961009999999998,-0.217721
732,-2.7512689999999997,-1.261558,-0.071216,-0.11579400000000001,0.952566,0.281441,-0.18362799999999999,1.6058139999999999,-0.238806,0.487529,-1.6991779999999999,-0.383797
733,-2.682909,-1.264016,-0.046560000000000004,-0.13371,0.953311,0.270773,0.5065850000000001,2.3414919999999997,-0.19754000000000002,0.28272800000000003,-1.112033,-0.181371
734,-2.622824,-1.270966,-0.026888,-0.14644000000000001,0.9553870000000001,0.256495,0.24675100000000003,2.004586,-0.16901300000000002,-0.18141,0.021344,0.061987
735,-2.584709,-1.258965,-0.017032,-0.162156,0.951773,0.260442,-0.8793030000000001,0.803089,-0.557762,-0.554046,0.348931,-0.145025
736,-2.5802709999999998,-1.228646,-0.012606000000000001,-0.178593,0.9420350000000001,0.284026,-1.276075,-0.181949,-1.0976549999999998,-0.017909,-0.380848,-0.52394
737,-2.55228,-1.195544,0.014649,-0.203698,0.930415,0.304682,-1.414094,0.125655,-1.17913,0.787683,-0.048366,-1.244059
738,-2.567848,-1.178612,0.03259,-0.20745300000000003,0.924076,0.32100300000000004,0.164499,-1.769696,-0.36130300000000004,0.486872,-0.101017,0.30393600000000004
739,-2.582014,-1.173667,0.019372,-0.205308,0.922175,0.327778,-0.545263,1.320962,0.17991300000000002,0.16667300000000002,-0.386408,0.332958
740,-2.519797,-1.192281,0.046333,-0.215254,0.929214,0.300372,1.817348,1.6261079999999999,0.143682,0.19538699999999998,0.201767,-0.7726930000000001
741,-2.487596,-1.24974,0.059463999999999996,-0.191978,0.948903,0.25045,2.673743,0.507249,2.674238,-0.24326399999999998,1.147686,0.042319999999999997
742,-2.523654,-1.3416219999999999,0.008654,-0.13161,0.9738540000000001,0.185157,3.862688,0.535553,3.089499,-0.36382800000000004,1.8535380000000001,0.065072
743,-2.3563650000000003,-1.435944,0.164276,-0.09504299999999999,0.9909209999999999,0.095075,4.756241999999999,1.040196,1.3261180000000001,-0.88799,1.602249,0.7437159999999999
744,-1.577409,-1.492197,0.929891,-0.078498,0.9969129999999999,0.000519,4.629169999999999,0.54611,0.853709,-0.64547,1.098638,0.625747
745,-0.553433,-1.465236,1.9549869999999998,-0.055375,0.994434,-0.089626,4.372573,-0.070552,1.308838,-0.24282800000000002,0.535504,0.593349
746,-0.152943,-1.4004450000000002,2.367379,-0.025825999999999998,0.985525,-0.167544,3.660485,-0.576395,1.61857,-0.289329,0.41984,0.597002
747,-0.002758,-1.3430739999999999,2.533893,-0.0006230000000000001,0.974183,-0.225754,2.5655080000000003,-0.731103,1.2970620000000002,-0.248263,-0.426316,0.399338
748,0.061884,-1.299603,2.622557,0.016567,0.9634520000000001,-0.267365,1.86948,-1.272182,1.081386,0.017856999999999998,-0.848675,0.336518
749,0.088449,-1.277249,2.678487,0.025559000000000002,0.9572229999999999,-0.28821599999999997,0.51051,-1.37133,0.6810510000000001,0.109786,-0.41495699999999996,0.22385500000000003
750,0.07486799999999999,-1.276699,2.689232,0.021682,0.9570639999999999,-0.289061,-0.173055,-0.99469,-0.206558,-0.05140599999999999,-0.5194880000000001,0.239715
751,0.006561,-1.28344,2.634362,0.001859,0.958996,-0.28341,-0.402765,-0.7761640000000001,-1.107885,-0.180921,-0.820767,-0.015341999999999998
752,-0.105717,-1.296824,2.5397540000000003,-0.028549,0.9627040000000001,-0.269045,-0.9877809999999999,-1.252858,-1.270526,0.13006600000000001,-0.9640770000000001,0.12012
753,-0.237519,-1.322704,2.428454,-0.057776999999999995,0.969383,-0.238659,-1.847562,-1.113947,-1.1645459999999999,0.328971,-0.8207620000000001,0.223858
754,-0.41312,-1.36162,2.267833,-0.083366,0.978202,-0.190182,-2.78916,-0.846073,-1.003755,0.31040100000000004,-0.7310399999999999,-0.07764
755,-0.681617,-1.409456,2.011765,-0.10121000000000001,0.9870129999999999,-0.12474400000000001,-3.3200910000000006,-1.259476,-0.791153,0.21879400000000002,-0.055402999999999994,-0.181805
756,-1.208581,-1.440313,1.509773,-0.12166600000000001,0.991499,-0.046103,-4.368893,-1.338637,-0.864608,0.007668,1.33925,-0.12381900000000001
757,-1.91251,-1.429016,0.828016,-0.133132,0.989966,0.04735,-4.501831,-1.393704,-0.299308,-0.203508,1.532861,-0.613467
758,-2.354486,-1.387254,0.398921,-0.129275,0.983203,0.128834,-3.492814,-0.431084,0.254504,0.382708,1.258542,0.457333
759,-2.54067,-1.35138,0.19373800000000002,-0.123064,0.976025,0.179526,-2.3323110000000002,1.028283,0.595094,0.49516499999999997,1.570606,0.639932
760,-2.676151,-1.3202610000000001,0.047674,-0.11127000000000001,0.96878,0.221545,-2.1621490000000003,-0.14157999999999998,0.49523199999999995,-0.501996,1.320283,0.47363
761,-2.744554,-1.286144,-0.017373,-0.10859,0.959759,0.258975,-1.7379080000000002,-0.351567,-0.10614900000000001,-0.731712,0.837253,0.475156
762,-2.761091,-1.2626540000000002,-0.024912,-0.11263599999999999,0.9528989999999999,0.281594,-0.718551,-0.604016,-0.461901,-0.674901,0.24151399999999998,0.221381
763,-2.749502,-1.260325,-0.008648999999999999,-0.11673900000000001,0.95219,0.282319,0.35517,0.112952,-0.07076,0.094095,-0.44907700000000006,0.076659
764,-2.72951,-1.278837,-0.001031,-0.11527899999999999,0.9576819999999999,0.263729,1.191386,0.806818,0.442666,0.312056,-1.036661,-0.144482
765,-2.721917,-1.29836,-0.010158,-0.10963800000000001,0.963118,0.24572399999999997,0.478497,0.879135,0.558303,0.30653800000000003,-1.32263,-0.376339
766,-2.748002,-1.298291,-0.051173,-0.103217,0.9631,0.248561,-0.509376,0.49122299999999997,0.387393,0.281699,-1.9780229999999999,-0.355083
767,-2.754607,-1.2911299999999999,-0.072158,-0.104173,0.961148,0.25561799999999996,-0.250475,0.947926,-0.027989999999999998,0.316744,-1.7566650000000001,-0.291674
768,-2.731436,-1.289844,-0.075245,-0.11056099999999999,0.960792,0.25427,-0.108703,1.485034,0.063111,-0.07068300000000001,-0.447166,0.15581
769,-2.686609,-1.28046,-0.068709,-0.125801,0.958148,0.25714699999999996,-0.703944,2.045779,-0.58804,-0.28772800000000004,0.22031900000000001,-0.229971
770,-2.6445119999999998,-1.245876,-0.049841,-0.152228,0.9476760000000001,0.280595,-1.5461120000000002,0.613143,-1.228747,-0.284464,-0.654692,-0.17537
771,-2.589945,-1.2251610000000002,0.000796,-0.177557,0.94086,0.288535,0.279587,0.271969,-1.14185,-0.159281,-1.284611,-0.450888
772,-2.53385,-1.226808,0.067981,-0.19257,0.9414170000000001,0.276854,0.473224,-0.728103,-0.8326370000000001,0.783939,-0.682613,-1.934996
773,-2.579981,-1.214151,0.055219000000000004,-0.18592899999999998,0.9370729999999999,0.295503,-0.82519,-2.765679,0.217376,1.360886,1.038238,0.53659
774,-2.650445,-1.225649,-0.012161,-0.15957000000000002,0.941026,0.298338,-1.515103,1.592214,1.650141,1.224679,2.927962,2.0791180000000002
775,-2.5194080000000003,-1.250362,0.018849,-0.183572,0.949099,0.255952,3.438179,5.180619,-0.38259499999999996,-1.0082309999999999,-0.557253,-1.87906
776,-2.3819220000000003,-1.3121209999999999,0.126224,-0.17616199999999999,0.96673,0.185468,2.795693,0.909752,1.8135860000000001,-0.8088529999999999,0.081091,0.912386
777,-2.385669,-1.395251,0.106829,-0.119797,0.9846309999999999,0.127075,3.320384,-0.076738,3.498828,-0.629898,1.26102,-0.202317
778,-2.158631,-1.497958,0.35425999999999996,-0.060549,0.9973479999999999,0.040351,4.835497,-0.8822059999999999,1.950839,-0.770155,2.004467,0.950783
779,-0.7389720000000001,-1.490307,1.771378,-0.054147,0.996763,-0.059424,4.854883999999999,0.8413379999999999,-0.175927,-0.046255000000000004,0.7877069999999999,0.7002619999999999
780,-0.293925,-1.415663,2.2081060000000003,-0.044763,0.987991,-0.14788199999999999,4.101141,0.256459,1.0191700000000001,-0.034766000000000005,0.060822,0.257394
781,-0.068755,-1.3529280000000001,2.444896,-0.01485,0.97636,-0.21563600000000002,3.185553,-0.756217,1.7116209999999998,-0.642133,-0.017147,0.227752
782,0.031723,-1.2976729999999999,2.574802,0.008555,0.962933,-0.26960300000000004,2.4394880000000003,-1.432835,1.335536,-0.04275,-0.599438,0.392788
783,0.065344,-1.260858,2.641526,0.019916,0.9523520000000001,-0.304348,1.356682,-1.579769,0.924373,0.542157,-0.463217,0.46168100000000006
784,0.06400800000000001,-1.248018,2.6692,0.02029,0.948358,-0.31655300000000003,0.162998,-1.101753,0.168735,0.252202,-0.279489,0.401895
785,0.030242,-1.248898,2.644646,0.009566,0.9486370000000001,-0.316222,-0.032079,-0.313367,-0.746967,-0.121459,-0.907148,0.202193
786,-0.05683099999999999,-1.251357,2.562319,-0.017837000000000002,0.949412,-0.313526,-0.270129,-0.643911,-1.528008,-0.5062260000000001,-1.148569,-0.065121
787,-0.17556300000000002,-1.2623440000000001,2.462234,-0.053024,0.9528049999999999,-0.29891599999999996,-1.029031,-1.522841,-1.3837,0.097992,-0.896683,0.20695100000000002
788,-0.3185,-1.2864959999999999,2.34861,-0.08783099999999999,0.959858,-0.266377,-1.8782029999999998,-1.612026,-1.2549219999999999,0.35634,-0.8659399999999999,0.32211799999999996
789,-0.485015,-1.3225719999999999,2.205021,-0.114542,0.96935,-0.217346,-2.71205,-1.3369950000000002,-0.846628,0.568521,-0.7145279999999999,0.432846
790,-0.691673,-1.372586,2.013753,-0.125595,0.9804200000000001,-0.151657,-3.554332,-0.658662,-0.055419,0.262863,-0.59625,-0.38765
791,-0.9624739999999999,-1.423866,1.7345599999999999,-0.12013399999999999,0.989225,-0.083664,-3.297554,0.404951,0.137291,0.048662000000000004,0.5807359999999999,0.049056999999999996
792,-1.63573,-1.446182,1.052646,-0.12402200000000001,0.992246,0.008065000000000001,-5.119937999999999,0.007976,-0.240261,-0.561525,2.559024,-0.170067
793,-2.276354,-1.40439,0.42648100000000005,-0.126088,0.986186,0.107406,-4.534862,-1.715986,-0.39419899999999997,0.034962,2.5904130000000003,-0.08743200000000001
794,-2.468816,-1.3422100000000001,0.244013,-0.141205,0.973988,0.17721900000000002,-2.933751,0.43613900000000005,-0.783151,1.006043,1.190212,0.8221860000000001
795,-2.559297,-1.30176,0.1347,-0.146174,0.9640280000000001,0.22199499999999997,-2.337554,0.635813,0.18002100000000001,0.310221,0.984611,0.6048180000000001
796,-2.6375830000000002,-1.26054,0.057423,-0.14744100000000002,0.952255,0.267336,-2.245646,-1.048697,-0.35449400000000003,-0.809575,0.643753,0.203566
797,-2.69509,-1.228345,0.018956,-0.145,0.941934,0.302872,-1.3370520000000001,-0.533482,0.017592,-1.342839,0.189444,0.645309
