,attitude.roll,attitude.pitch,attitude.yaw,gravity.x,gravity.y,gravity.z,rotationRate.x,rotationRate.y,rotationRate.z,userAcceleration.x,userAcceleration.y,userAcceleration.z
0,0.6177239999999999,-0.314643,-1.177518,0.550747,0.309477,-0.7751779999999999,-0.158306,-0.012404,-0.189504,-0.047817,0.079805,-0.025619
1,0.617109,-0.317896,-1.179235,0.5496840000000001,0.312569,-0.774691,-0.047391,0.022187000000000002,-0.144976,-0.004381,0.11150299999999999,-0.068891
2,0.6189060000000001,-0.32002600000000003,-1.1814120000000001,0.550689,0.314591,-0.773158,-0.022052000000000002,0.192573,-0.152495,0.020402,0.14865,-0.021001
3,0.622863,-0.321419,-1.184393,0.553488,0.315913,-0.770616,0.06246,0.243412,-0.15197,0.00358,0.134481,0.022294
4,0.625675,-0.320896,-1.188544,0.5557489999999999,0.315417,-0.7691899999999999,0.181642,0.187549,-0.138247,-0.050866,0.082776,0.035243000000000003
5,0.626117,-0.319311,-1.193799,0.556381,0.31391199999999997,-0.769349,0.259015,0.089213,-0.122626,-0.015166999999999998,0.027213,0.034455
6,0.626329,-0.320457,-1.198509,0.556333,0.315,-0.768939,0.199203,0.110582,-0.086751,0.040301,-0.018308,0.040164
7,0.62805,-0.323612,-1.202313,0.557068,0.31799299999999997,-0.767173,0.143256,0.158977,-0.14483,0.041213,-0.054519000000000005,0.066596
8,0.629402,-0.326812,-1.206609,0.557503,0.321025,-0.765592,0.10573800000000001,0.11438800000000002,-0.150376,0.040931,-0.019832,0.069944
9,0.6292979999999999,-0.327928,-1.209014,0.557213,0.32208200000000003,-0.76536,0.059861000000000004,-0.009481999999999999,-0.036238,0.12014000000000001,-0.021743000000000002,0.06905499999999999
10,0.629153,-0.327367,-1.209406,0.557208,0.32155100000000003,-0.765586,0.014788999999999998,-0.041389999999999996,-0.009806,0.12340999999999999,-0.020419,0.048530000000000004
11,0.630775,-0.326608,-1.208359,0.558592,0.320832,-0.764879,-0.037516,-0.018952,0.018641,0.081712,0.048919,0.045717
12,0.631899,-0.326096,-1.206596,0.559549,0.320347,-0.764383,-0.023078,-0.080985,0.06796,0.035926,0.066539,0.021249
13,0.633352,-0.324871,-1.204078,0.560891,0.319187,-0.763884,0.007626000000000001,-0.105705,0.09598,0.00405,0.086636,0.001067
14,0.634904,-0.322741,-1.201891,0.5624779999999999,0.31716700000000003,-0.763559,0.052501,-0.100497,0.086673,-0.052376,0.07531900000000001,0.010705
15,0.635346,-0.321265,-1.2010459999999998,0.5630930000000001,0.315767,-0.763686,0.10491199999999999,-0.100561,0.057129,-0.076948,0.059858,0.003951
16,0.6339229999999999,-0.31990599999999997,-1.2018879999999998,0.5622590000000001,0.314477,-0.764832,0.161556,-0.117645,0.018022,-0.07355,0.030782999999999998,-0.030807
17,0.631127,-0.31988,-1.204213,0.5601229999999999,0.31445300000000004,-0.766407,0.165102,-0.092946,-0.034328,-0.065509,-0.043151999999999996,-0.054897
18,0.629577,-0.31963,-1.206852,0.5589810000000001,0.314215,-0.767338,0.086883,0.027870999999999996,-0.07669,-0.057272,-0.026923000000000002,-0.051539999999999996
19,0.628538,-0.321413,-1.209324,0.5578529999999999,0.31590799999999997,-0.767464,0.036774,0.036564,-0.07598300000000001,-0.032523,0.007197,-0.027748000000000002
20,0.625822,-0.32263200000000003,-1.21157,0.555541,0.317064,-0.768664,0.027999,0.000307,-0.05890599999999999,0.002336,0.014509999999999999,-0.016401
21,0.624633,-0.322404,-1.2129159999999999,0.554669,0.316847,-0.769382,0.018321,0.011943,-0.030146,0.029011000000000002,0.013109,-0.019084999999999998
22,0.623628,-0.321791,-1.213842,0.554008,0.316266,-0.770097,-0.009264,0.055677,-0.020781,0.036202,0.004535,-0.002196
23,0.623251,-0.322308,-1.2141899999999999,0.5536220000000001,0.316756,-0.770173,-0.025497,0.013088999999999998,-0.012294,0.009701999999999999,0.00010800000000000001,0.024415
24,0.622637,-0.323024,-1.214175,0.553017,0.31743499999999997,-0.770328,-0.015045,-0.028519,-0.005758,0.005454,0.017221,0.011234000000000001
25,0.622672,-0.323405,-1.213868,0.552974,0.317797,-0.7702100000000001,-0.019211000000000002,0.00872,0.00912,0.019246,0.028104,0.010323
26,0.624019,-0.323706,-1.213169,0.553954,0.318083,-0.769387,-0.025565,0.021516999999999998,0.011196,0.028443,0.042467000000000005,0.023477
27,0.62424,-0.323703,-1.212736,0.554125,0.318079,-0.769266,0.006215999999999999,-0.027601,0.012549,0.031934,0.049276,0.017709
28,0.622894,-0.323209,-1.2133200000000002,0.55318,0.31761100000000003,-0.770139,0.06375499999999999,-0.075612,-0.019035,0.013836000000000001,0.049134,0.01788
29,0.621992,-0.322999,-1.214824,0.552525,0.31741199999999997,-0.770691,0.088666,-0.018071,-0.044572,-0.012943000000000001,0.021272,-0.011656999999999999
30,0.6219399999999999,-0.323115,-1.216525,0.552463,0.31752199999999997,-0.77069,0.064282,-0.002995,-0.063989,-0.017795,0.025923,-0.009461
31,0.6211720000000001,-0.3238,-1.217732,0.551744,0.318171,-0.770937,0.033926,-0.081835,-0.035258,-0.02791,0.021932,0.006716
32,0.619808,-0.32463000000000003,-1.218617,0.550539,0.318958,-0.771474,0.023400999999999998,-0.061511,-0.047108,-0.022127,0.016338,0.001286
33,0.618216,-0.325305,-1.2196049999999998,0.549185,0.319598,-0.772174,0.00735,-0.071046,-0.04614,-0.015753,0.01788,-0.007871
34,0.616061,-0.32605700000000004,-1.220552,0.547381,0.320311,-0.773159,0.000949,-0.076329,-0.051519,-0.007921,0.012284999999999999,-0.02097
35,0.614432,-0.32712800000000003,-1.221606,0.545922,0.321325,-0.7737689999999999,-0.00305,-0.031513,-0.06655900000000001,0.007499,-0.013997999999999998,-0.037571
36,0.613942,-0.328148,-1.2227729999999999,0.545354,0.322291,-0.773768,-0.011479999999999999,-0.01017,-0.06878200000000001,-0.00948,0.021475,-0.036336
37,0.612392,-0.32935,-1.2238639999999998,0.543931,0.323428,-0.774295,-0.003232,-0.059261,-0.053707000000000005,-0.018052000000000002,0.016461,-0.018841999999999998
38,0.611598,-0.330065,-1.224808,0.543183,0.32410500000000003,-0.774537,0.00151,0.031331,-0.068745,0.028198,-0.01693,-0.016677
39,0.612688,-0.331175,-1.226104,0.54382,0.325154,-0.77365,-0.029051,0.100741,-0.084002,0.022739,-0.003346,-0.024858
40,0.613404,-0.333023,-1.227061,0.544026,0.326901,-0.772768,-0.06339600000000001,0.065664,-0.073515,0.041513999999999995,0.023517,0.044237
41,0.613611,-0.334586,-1.227423,0.543892,0.328378,-0.7722359999999999,-0.046715,0.006904,-0.045549,0.044548000000000004,0.016897,0.036747
42,0.61354,-0.335604,-1.2274559999999999,0.5436439999999999,0.32934,-0.772001,-0.058599,-0.014407,-0.033854,0.043042000000000004,0.026831,0.006102000000000001
43,0.61361,-0.337106,-1.22668,0.543413,0.330757,-0.771558,-0.092734,-0.015345,-0.036227999999999996,0.06137000000000001,0.033669,0.044843
44,0.613934,-0.33910100000000004,-1.226405,0.543281,0.33264,-0.770841,-0.07446799999999999,-0.002561,-0.05214,0.050469,0.035647000000000005,0.034283999999999995
45,0.614518,-0.341,-1.226428,0.543366,0.33443,-0.7700060000000001,-0.052049,-0.010054,-0.06265599999999999,0.027419,0.043012,0.009615
46,0.614935,-0.34275,-1.2267540000000001,0.543349,0.33607800000000004,-0.7693,-0.033908,-0.015418000000000001,-0.06893200000000001,0.019746,0.041684,0.020918
47,0.6148060000000001,-0.34386700000000003,-1.2277069999999999,0.543033,0.33713000000000004,-0.769063,0.007670999999999999,-0.028321,-0.075034,0.015194999999999998,0.037305,0.013783000000000002
48,0.614486,-0.344666,-1.229155,0.5426310000000001,0.337882,-0.7690170000000001,0.042988,-0.019858,-0.090822,0.026369,0.023750999999999998,0.021458
49,0.614306,-0.345901,-1.231666,0.5422520000000001,0.339044,-0.7687729999999999,0.068727,-0.028316,-0.12908699999999998,-0.034408999999999995,0.016302,0.019841
50,0.612295,-0.345999,-1.2346190000000001,0.540686,0.339136,-0.769834,0.095015,-0.07649500000000001,-0.091454,-0.038519,-0.00042199999999999996,0.003324
51,0.610267,-0.345647,-1.236565,0.539192,0.338806,-0.771027,0.073443,-0.07769,-0.040329000000000004,-0.046988999999999996,-0.004913,-0.021652
52,0.609627,-0.345387,-1.2370430000000001,0.538749,0.338561,-0.7714439999999999,0.020047,-0.042538,0.006255,-0.063544,-0.003325,-0.025797000000000004
53,0.60934,-0.345117,-1.2361360000000001,0.538579,0.338307,-0.7716729999999999,-0.023934,-0.040476,0.06149299999999999,-0.067342,-0.001149,-0.03042
54,0.608754,-0.345246,-1.234365,0.5381020000000001,0.338428,-0.771953,-0.046492,-0.047961000000000004,0.08805,-0.066209,-0.01015,-0.055851
55,0.608192,-0.34517800000000004,-1.2322229999999998,0.5376810000000001,0.338365,-0.772274,-0.07416299999999999,-0.027645,0.093172,-0.068092,-0.004823,-0.046161
56,0.608007,-0.345499,-1.229697,0.5374760000000001,0.33866599999999997,-0.772285,-0.097557,9.1e-05,0.103655,-0.06300399999999999,0.005801,-0.034509
57,0.6086,-0.346006,-1.2270780000000001,0.537836,0.339143,-0.771825,-0.099446,0.045939,0.095038,-0.056635000000000005,0.015227000000000001,-0.042171
58,0.609286,-0.346402,-1.2249219999999998,0.538288,0.339516,-0.771345,-0.08769099999999999,0.050076999999999997,0.072774,-0.016346,0.022650999999999998,-0.019075
59,0.6099140000000001,-0.34681100000000004,-1.223493,0.538693,0.3399,-0.770893,-0.06504700000000001,0.07143200000000001,0.040858,0.020999,0.029561,0.005772
60,0.610967,-0.347301,-1.222948,0.539408,0.340361,-0.770189,-0.026382,0.099114,0.011183,0.050939,0.027802999999999998,0.030504000000000003
61,0.611692,-0.347354,-1.223454,0.539957,0.340411,-0.769783,0.024866,0.081993,-0.014075,0.067557,0.036557,0.050987
62,0.612051,-0.346677,-1.224623,0.540365,0.339775,-0.769777,0.075874,0.031768,-0.018994999999999998,0.07685299999999999,0.03199,0.051287
63,0.611498,-0.345713,-1.225913,0.540127,0.33886700000000003,-0.7703439999999999,0.090508,-0.025847000000000002,-0.009205,0.086521,0.019043,0.038243
64,0.610984,-0.344934,-1.226866,0.539883,0.33813499999999996,-0.770837,0.06597,-0.033188,-0.016845,0.073963,-0.011887,0.02868
65,0.611349,-0.345088,-1.227603,0.540134,0.33828,-0.770597,0.020373,0.004354,-0.04178,0.038051999999999996,-0.012749,0.017317
66,0.6122489999999999,-0.34618499999999996,-1.22791,0.540614,0.339312,-0.769807,-0.029235,-0.002893,-0.045794,0.005895,0.018171,0.002183
67,0.612939,-0.347452,-1.227776,0.5408970000000001,0.340503,-0.7690819999999999,-0.038957,-0.018881000000000002,-0.035158999999999996,-0.026447000000000002,0.024227000000000002,-0.057502
68,0.612831,-0.348485,-1.227536,0.540611,0.341475,-0.7688520000000001,-0.053037,-0.063582,-0.033063999999999996,-0.037788,0.026735000000000002,-0.06920599999999999
69,0.61207,-0.350048,-1.227172,0.539718,0.342943,-0.768825,-0.084899,-0.048489,-0.050397000000000004,-0.02475,0.038054000000000004,-0.033863
70,0.612004,-0.352062,-1.227588,0.53927,0.34483400000000003,-0.7682939999999999,-0.046027,0.015451,-0.089732,-0.044916000000000005,0.027877,0.010878
71,0.61055,-0.353462,-1.229932,0.537875,0.346148,-0.7686810000000001,0.036141,-0.03893,-0.14784,-0.051364,0.009443,0.027760000000000003
72,0.607598,-0.354094,-1.2339440000000002,0.535478,0.34674099999999997,-0.7700859999999999,0.088479,-0.039057999999999995,-0.16136099999999998,-0.011705,0.013244,0.006749
73,0.605427,-0.35436599999999996,-1.237291,0.533752,0.346996,-0.7711680000000001,0.066902,-0.021159,-0.089964,0.007523,-0.001186,0.000523
74,0.605112,-0.355092,-1.239444,0.533365,0.347677,-0.771129,0.035542000000000004,0.061382000000000006,-0.098872,0.024817,-0.004598,-0.005543
75,0.6057640000000001,-0.35587399999999997,-1.240939,0.533713,0.348409,-0.770558,0.00123,0.059226,-0.062789,0.023354,-0.00469,-0.001385
76,0.606408,-0.35670599999999997,-1.24166,0.534043,0.34919,-0.769976,-0.013916999999999999,0.041054,-0.03403,0.007033,0.001778,0.016619
77,0.606967,-0.356863,-1.241587,0.534443,0.34933600000000004,-0.769632,-0.007876000000000001,0.002516,0.007723000000000001,0.006359,0.00807,0.023538
78,0.607001,-0.356593,-1.24119,0.534523,0.349083,-0.769691,0.00053,-0.025215,0.008884999999999999,0.010033,-0.011666,0.020332
79,0.606783,-0.356232,-1.240951,0.5344270000000001,0.34874499999999997,-0.769911,0.011131,-0.032739,0.016446000000000002,-0.003589,0.008067,0.017988
80,0.605434,-0.355694,-1.240918,0.5334949999999999,0.34824099999999997,-0.770785,0.033205,-0.10844300000000001,0.014561000000000001,-0.003954,-0.006291,-0.005947999999999999
81,0.602765,-0.35539,-1.241172,0.531496,0.347956,-0.7722939999999999,0.015015,-0.144501,-0.010089,-0.004686,-0.005991,-0.017501
82,0.599588,-0.355777,-1.24132,0.528963,0.348319,-0.773867,-0.018038,-0.158161,-0.028462,-0.007631000000000001,0.005059,-0.027357
83,0.59624,-0.357025,-1.241426,0.5261239999999999,0.349489,-0.775274,-0.059251,-0.22005100000000002,-0.035829,0.008071,0.055205,-0.022151
84,0.591169,-0.358737,-1.240476,0.5218520000000001,0.351092,-0.7774340000000001,-0.103548,-0.31376,-0.006108,-0.020509,0.050230000000000004,-0.039339
85,0.5830649999999999,-0.360578,-1.239148,0.515178,0.352815,-0.781096,-0.103057,-0.444779,-0.009141,-0.05274500000000001,0.060621,-0.02112
86,0.578276,-0.362435,-1.2388270000000001,0.511073,0.354552,-0.783004,-0.095054,-0.135687,-0.056483000000000005,0.036504,0.061403,-0.097367
87,0.5756640000000001,-0.365533,-1.239352,0.508425,0.35744699999999996,-0.783411,-0.109741,-0.150267,-0.12706900000000002,-0.029254000000000002,0.031560000000000005,-0.060949
88,0.571667,-0.36832600000000004,-1.241112,0.504748,0.360055,-0.784594,-0.030798000000000002,-0.16858399999999998,-0.143586,-0.013201,0.039039,0.059604
89,0.5684170000000001,-0.369994,-1.2440879999999999,0.501871,0.36161,-0.785724,0.036965,-0.068595,-0.165674,0.017355000000000002,0.004372,0.071979
90,0.567127,-0.37072,-1.248092,0.5007159999999999,0.36228699999999997,-0.786149,0.094136,0.059079,-0.176623,0.017091,-0.049131,0.102647
91,0.566975,-0.370807,-1.252664,0.50058,0.362367,-0.786198,0.10819200000000001,0.10588099999999999,-0.171244,0.001953,-0.065554,0.081441
92,0.566064,-0.37098600000000004,-1.2572780000000001,0.499829,0.362534,-0.7865989999999999,0.133346,0.0014119999999999998,-0.175207,-0.005307,-0.025041,0.042581
93,0.5650109999999999,-0.37057399999999996,-1.261482,0.49908,0.362151,-0.787251,0.141727,0.008673,-0.133497,0.016362,0.015489,0.0028120000000000003
94,0.564898,-0.369216,-1.26405,0.499254,0.360885,-0.787722,0.11350999999999999,-0.010754000000000001,-0.046075,0.035352999999999996,0.023683000000000003,-0.016065
95,0.564449,-0.36733499999999997,-1.2645469999999999,0.499262,0.35913,-0.788518,0.071351,-0.019587,0.067941,0.050252,0.021119,-0.0057020000000000005
96,0.5653229999999999,-0.36540100000000003,-1.262559,0.500323,0.357324,-0.788667,0.003899,0.014387,0.155021,0.032072,-0.006966,-0.002273
97,0.567387,-0.363976,-1.2585629999999999,0.5022220000000001,0.355993,-0.788061,-0.049694,0.027083999999999997,0.22299699999999997,-0.001489,-0.014119999999999999,0.028952
98,0.570234,-0.362113,-1.253369,0.504821,0.35425100000000004,-0.787185,-0.042235,0.070551,0.26892699999999997,-0.008879999999999999,-0.0011480000000000001,0.027099
99,0.574388,-0.359756,-1.2480040000000001,0.5085390000000001,0.352045,-0.78578,-0.027145,0.107528,0.274658,-0.023737,0.011495,-0.018099
100,0.578187,-0.35725999999999997,-1.242861,0.511999,0.349708,-0.784576,-0.025064,0.079887,0.258684,-0.018499,0.009667,-0.008255
101,0.580994,-0.35489499999999996,-1.238464,0.514651,0.347492,-0.783825,-0.010076,0.05654,0.223568,-0.002139,0.011944,0.0023769999999999998
102,0.583675,-0.352617,-1.234805,0.5171859999999999,0.345355,-0.783101,0.020059999999999998,0.101232,0.20983400000000002,0.041439,0.021146,0.005025
103,0.587392,-0.350044,-1.231586,0.520584,0.342939,-0.78191,0.023606,0.173676,0.20549299999999998,0.016419,0.005221,-0.007534000000000001
104,0.591838,-0.347577,-1.228322,0.524526,0.340621,-0.780287,0.013999000000000001,0.16309500000000002,0.195826,0.002421,0.001954,-0.004945000000000001
105,0.594801,-0.345571,-1.2251370000000001,0.527217,0.33873400000000004,-0.7792939999999999,0.007186,0.058773,0.183093,0.027898000000000003,0.029552,-0.020007
106,0.596062,-0.343697,-1.2220879999999998,0.528555,0.33697,-0.779153,0.006903,-0.019993,0.167169,0.042109,0.042485,-0.023688
107,0.5968600000000001,-0.341871,-1.219386,0.529521,0.33525,-0.779238,0.009243000000000001,0.018379,0.159658,0.027485000000000002,0.044938,-0.014615000000000001
108,0.597834,-0.340307,-1.217244,0.530575,0.333776,-0.779155,0.012683,0.003682,0.11216,-0.030070999999999997,0.005564,-0.0055899999999999995
109,0.597855,-0.338853,-1.215846,0.530864,0.332406,-0.779544,0.044579,-0.037906999999999996,0.095345,-0.049495,0.01403,-0.000776
110,0.597147,-0.33662800000000004,-1.215121,0.530726,0.330306,-0.780529,0.092549,-0.051902,0.090357,-0.050685,0.009781999999999999,-0.003452
111,0.596542,-0.334516,-1.2146700000000001,0.530645,0.328312,-0.781425,0.08304299999999999,-0.042234,0.078528,-0.033451999999999996,0.002392,-0.016472
112,0.595731,-0.332869,-1.214222,0.530313,0.326756,-0.782302,0.052162,-0.043136,0.064426,-0.03216,0.054851,-0.014543
113,0.594383,-0.331487,-1.2140799999999998,0.529511,0.32545,-0.783389,0.06072999999999999,-0.056928999999999993,0.043139,-0.023712,-0.011271,0.000781
114,0.59319,-0.33057,-1.2146290000000002,0.528742,0.32458200000000004,-0.784267,0.049335000000000004,-0.032182,-0.008246999999999999,-0.031564999999999996,-0.012052,-0.001011
115,0.5919300000000001,-0.330052,-1.215743,0.5278470000000001,0.32409299999999996,-0.7850729999999999,0.057995000000000005,-0.018308,-0.022091,-0.010574,-0.003048,-0.014015000000000001
116,0.5911770000000001,-0.32951199999999997,-1.216925,0.527354,0.323581,-0.785615,0.06565800000000001,0.003032,-0.015805,0.011739,0.007107,-0.024779
117,0.5910979999999999,-0.32867399999999997,-1.217758,0.527442,0.322789,-0.785882,0.053928,0.021115000000000002,0.001182,0.019921,0.015758,-0.019446
118,0.591201,-0.327561,-1.218192,0.527724,0.321734,-0.786125,0.053832000000000005,0.022090000000000002,0.023612,0.027315,0.007901,0.0018690000000000002
119,0.591458,-0.326425,-1.21828,0.528129,0.320659,-0.786292,0.042062999999999996,0.024224000000000002,0.033141000000000004,0.025384,0.000127,0.012092
120,0.592062,-0.325519,-1.218073,0.5287649999999999,0.3198,-0.786215,0.025016999999999998,0.02961,0.033014999999999996,0.015913,-0.002616,0.00968
121,0.592539,-0.324972,-1.2177950000000002,0.529238,0.319282,-0.786107,0.0143,0.010506,0.024419,0.011518,0.002129,0.011082
122,0.592712,-0.3246,-1.217523,0.5294399999999999,0.318929,-0.786114,0.009966,-0.008637,0.020141,0.010629000000000001,0.012278,0.008434
123,0.592813,-0.324225,-1.217196,0.529587,0.318575,-0.786159,0.009942,-0.011840999999999999,0.022281,0.011612,0.021254,0.005062
124,0.592832,-0.323739,-1.216852,0.529688,0.31811300000000003,-0.7862779999999999,0.0142,-0.008681,0.027648000000000002,0.013571000000000001,0.024996,0.002205
125,0.593012,-0.323148,-1.2164700000000002,0.529935,0.31755300000000003,-0.786338,0.019627000000000002,-0.007719,0.030523,0.013385,0.022351,0.000999
126,0.592849,-0.322477,-1.216228,0.529925,0.316916,-0.786601,0.025994999999999997,-0.019443000000000002,0.026310000000000004,0.0048649999999999995,0.005044,0.003826
127,0.592658,-0.321863,-1.216215,0.529884,0.316334,-0.786864,0.029311,-0.005559000000000001,0.014565,0.000573,0.002239,0.002348
128,0.592655,-0.32151199999999996,-1.216325,0.529943,0.316002,-0.786957,0.028249,-0.009795,0.009222,-0.013493999999999999,-0.0046,-0.002746
129,0.592386,-0.32107199999999997,-1.216481,0.529809,0.31558400000000003,-0.787215,0.030349,-0.016198,0.010313,-0.004845,0.004072,-0.010987
130,0.5922109999999999,-0.320522,-1.216607,0.529768,0.315062,-0.787452,0.029314999999999997,-0.0076760000000000005,0.011363,-0.0035380000000000003,0.003725,-0.010048999999999999
131,0.59206,-0.319916,-1.216715,0.529756,0.314487,-0.78769,0.02611,-0.0044859999999999995,0.015609,-0.001039,0.011899,-0.005874
132,0.591921,-0.319329,-1.2166549999999998,0.529749,0.31393000000000004,-0.787917,0.019694,-0.002355,0.020903,-0.002329,0.009389,-0.006624
133,0.591992,-0.318788,-1.216475,0.529899,0.313416,-0.7880199999999999,0.016196000000000002,0.002926,0.02535,0.00011499999999999999,0.012893,-0.007679999999999999
134,0.5919760000000001,-0.318277,-1.2162110000000002,0.529976,0.31293000000000004,-0.788161,0.011895000000000001,-0.0034549999999999997,0.026397000000000004,-0.0007099999999999999,0.014569,-0.003038
135,0.592144,-0.317864,-1.215889,0.530181,0.31253800000000004,-0.788179,0.0109,0.011466,0.025302,0.000139,0.013374,-0.004637
136,0.592398,-0.317443,-1.215682,0.530454,0.312139,-0.788154,0.016244,0.008273,0.020003,0.001253,0.006038,5.2000000000000004e-05
137,0.59248,-0.31703600000000004,-1.215643,0.53059,0.311752,-0.788216,0.020526,0.004027,0.01256,0.005757,0.00264,0.008018
138,0.592494,-0.316738,-1.215765,0.5306529999999999,0.31146799999999997,-0.788285,0.01844,0.005138,0.00293,0.007159,-0.0065060000000000005,0.011201000000000001
139,0.5924659999999999,-0.316628,-1.21596,0.5306489999999999,0.311364,-0.788328,0.010967,-0.001206,-0.002455,0.011144,0.006522,0.007520999999999999
140,0.592259,-0.31651799999999997,-1.216046,0.530506,0.311259,-0.788467,0.0076950000000000005,-0.011869,0.002877,0.015103,0.013722999999999999,0.006759
141,0.5921310000000001,-0.316323,-1.215922,0.530438,0.31107399999999996,-0.7885850000000001,0.007328,-0.010912999999999999,0.014847999999999998,0.010364,0.018958000000000003,-0.00020299999999999997
142,0.5922970000000001,-0.315936,-1.2155799999999999,0.530637,0.310706,-0.788597,0.009470999999999999,0.000759,0.024462,0.002307,0.020105,-0.0078049999999999994
143,0.592457,-0.315396,-1.215243,0.530856,0.310193,-0.788651,0.015834,-0.00248,0.029851999999999997,-0.0038640000000000002,0.01517,-0.004577
144,0.59255,-0.314862,-1.214876,0.531022,0.309685,-0.7887390000000001,0.014743000000000001,-0.007803,0.029851,-0.009492,0.008231,-0.003757
145,0.592608,-0.314617,-1.2144840000000001,0.5311100000000001,0.309452,-0.788771,0.010485,-0.00884,0.026618,-0.01457,-0.00014099999999999998,-0.009370999999999999
146,0.5925520000000001,-0.314277,-1.214199,0.531125,0.309129,-0.788888,0.005194,-0.007722,0.018034,-0.014584,0.000182,-0.009254
147,0.59234,-0.314292,-1.214021,0.5309550000000001,0.309143,-0.788996,-0.003312,-0.011911,0.007298000000000001,-0.0035659999999999997,0.002487,-0.00678
148,0.592154,-0.31438499999999997,-1.213929,0.530792,0.309232,-0.789072,-0.006173,-0.003173,-2.8999999999999997e-05,-0.002029,0.006503,-0.005103
149,0.59227,-0.31446599999999997,-1.213869,0.53087,0.30930799999999997,-0.788989,-0.003968,0.013859,0.001033,0.0020280000000000003,0.010851000000000001,-0.006589
150,0.5924010000000001,-0.31444099999999997,-1.2138799999999998,0.530977,0.309285,-0.788926,0.001342,0.011696999999999999,0.004277,0.0029579999999999997,0.012798,0.002412
151,0.592391,-0.314261,-1.2138440000000001,0.5310010000000001,0.309114,-0.788977,0.006595,-0.002187,0.008605,0.006948,0.009337,0.004828
152,0.592407,-0.31404899999999997,-1.213716,0.53105,0.30891199999999996,-0.7890229999999999,0.0044659999999999995,0.002069,0.011789,0.007189,0.007540000000000001,0.001121
153,0.592457,-0.31401,-1.213547,0.531096,0.308875,-0.789007,-0.000863,0.001031,0.009617,0.009965,0.007974,0.0006
154,0.59249,-0.314065,-1.213403,0.5311130000000001,0.30892800000000004,-0.788975,-0.0051259999999999995,-0.002133,0.005318,0.006851,0.00995,0.0033759999999999997
155,0.592597,-0.31411999999999995,-1.213226,0.531187,0.30898000000000003,-0.788904,-0.0019199999999999998,0.0010429999999999999,0.0074730000000000005,0.005525,0.015056,-0.002539
156,0.5925560000000001,-0.31401999999999997,-1.2131319999999999,0.531172,0.30888499999999997,-0.7889520000000001,0.004452,-0.006431999999999999,0.006459,0.005861,0.012618,0.001323
157,0.5925159999999999,-0.313889,-1.21308,0.5311640000000001,0.30876,-0.789006,0.007662,-0.005374,0.005412,0.001353,0.011202,-0.00085
158,0.592564,-0.313798,-1.213063,0.531217,0.308674,-0.789004,0.006634,0.002091,0.004327,-0.002653,0.005672,-0.0021190000000000002
159,0.592543,-0.313709,-1.2131129999999999,0.531216,0.308589,-0.789038,0.007696,-0.0042829999999999995,-0.000999,-0.005002,0.006795000000000001,-0.002466
160,0.592453,-0.313668,-1.213228,0.5311520000000001,0.30855,-0.789096,0.009302,-0.005344,-0.0030629999999999998,-0.003365,0.006498,-0.001324
161,0.592246,-0.313552,-1.2134,0.5310090000000001,0.30843899999999996,-0.7892359999999999,0.012473999999999999,-0.010686,-0.001966,-0.002627,0.00606,-0.0039310000000000005
162,0.591953,-0.313472,-1.2135610000000001,0.530791,0.308363,-0.789412,0.008201,-0.011736,-0.001994,-0.001967,0.005144,-0.0056619999999999995
163,0.5917640000000001,-0.313488,-1.2135989999999999,0.5306390000000001,0.30837800000000004,-0.789508,-0.001377,-0.005315,-0.001001,-0.0017850000000000001,0.006365,-0.010708
164,0.591639,-0.313582,-1.2136149999999999,0.530524,0.30846799999999996,-0.789551,-0.001372,-0.006372,-0.003136,-0.0022649999999999997,0.006443000000000001,-0.006409000000000001
165,0.591511,-0.313678,-1.213631,0.530407,0.308559,-0.7895939999999999,-0.0024289999999999997,-0.003177,-0.002079,-0.004894,0.008457,-0.0027649999999999997
166,0.591517,-0.313734,-1.2136639999999999,0.530402,0.308613,-0.7895760000000001,-0.00025699999999999996,0.004277,-0.0031420000000000003,-0.0009519999999999999,0.008617,-0.008047
167,0.591562,-0.313787,-1.213742,0.530428,0.308662,-0.789539,0.001877,0.0032090000000000005,-0.004194,0.00633,0.010597,-0.005932
168,0.5914189999999999,-0.313783,-1.213862,0.530316,0.308659,-0.789616,0.006101,-0.004272,-0.002018,0.006717,0.012249,0.00095
169,0.591277,-0.31378,-1.2139659999999999,0.530205,0.308656,-0.7896920000000001,0.001848,-0.0021219999999999998,-0.0031190000000000002,0.001457,0.0058119999999999995,-0.0009119999999999999
170,0.591298,-0.313925,-1.2140440000000001,0.530196,0.308794,-0.789644,-0.0034240000000000004,0.007501000000000001,-0.007441,0.000886,0.002531,0.00084
171,0.591403,-0.314143,-1.214112,0.530242,0.309001,-0.789532,-0.006639,0.005377000000000001,-0.006392,0.0022440000000000003,0.005818,0.004132
172,0.5914050000000001,-0.314301,-1.214129,0.530215,0.309152,-0.7894909999999999,-0.002439,-0.005307,-0.002077,-0.000674,0.010381999999999999,-0.000701
173,0.591266,-0.314319,-1.2140799999999998,0.530103,0.309169,-0.789559,-0.00141,-0.0074670000000000005,0.004343,0.0008119999999999999,0.012318,-0.0035009999999999998
174,0.5913579999999999,-0.31433099999999997,-1.2139309999999999,0.5301739999999999,0.30918,-0.789508,-0.004568,0.005315,0.007509,-0.00312,0.011575,-0.005947999999999999
175,0.591495,-0.314313,-1.213763,0.530285,0.309164,-0.789439,-0.0024579999999999997,-1.9e-05,0.007531,-0.006084,0.011973000000000001,-0.0040939999999999995
176,0.5914659999999999,-0.314276,-1.213675,0.5302680000000001,0.309128,-0.789465,0.001805,-0.004282,0.004361,-0.008081999999999999,0.006592,-0.004679
177,0.591395,-0.31429,-1.21365,0.5302100000000001,0.309141,-0.7894979999999999,0.000772,-0.002127,-0.00099,-0.0055060000000000005,0.00403,-0.007377
178,0.5913430000000001,-0.314374,-1.213697,0.530155,0.309221,-0.789504,-0.001348,-0.001046,-0.003143,-0.0031309999999999997,0.007903,-0.006272
179,0.591256,-0.314452,-1.213749,0.530072,0.309295,-0.7895310000000001,0.002896,-0.003204,9.4e-05,-0.00079,0.009446,-0.00033999999999999997
180,0.59116,-0.314368,-1.213767,0.530011,0.309216,-0.7896029999999999,0.005025,-0.0021550000000000002,0.0022440000000000003,-0.001065,0.008487,0.001105
181,0.591061,-0.314278,-1.2137799999999999,0.529948,0.30913,-0.789678,0.003953,-0.001094,0.004372,0.002339,0.003919,-0.005335
182,0.591011,-0.314294,-1.213748,0.529906,0.309146,-0.789701,-0.003496,-0.001051,4.7e-05,0.002352,0.001157,-0.001193
183,0.59092,-0.314418,-1.2137120000000001,0.529812,0.309263,-0.789717,-0.004572,-0.0053,-0.002091,0.003894,0.006548,0.000151
184,0.590867,-0.314538,-1.213694,0.529751,0.309377,-0.789715,-0.003505,-0.004242,-0.001017,0.005406,0.009913,-0.002964
185,0.590757,-0.31458600000000003,-1.213683,0.529655,0.309423,-0.78976,-0.002448,-0.006377000000000001,-0.001007,0.002846,0.011714,0.000271
186,0.590673,-0.314651,-1.213635,0.529578,0.309485,-0.789788,-0.004587,-0.006374,4.6e-05,-0.001715,0.008615000000000001,-0.000541
187,0.590566,-0.314742,-1.2136049999999998,0.529478,0.309571,-0.789822,-0.002321,-0.0074670000000000005,-0.002195,-0.00041,0.007308,-0.004627
188,0.590404,-0.314809,-1.213657,0.529338,0.309635,-0.78989,-0.000178,-0.0074659999999999995,-0.0043159999999999995,-0.0012,0.007595,-0.007412
189,0.59028,-0.31493000000000004,-1.213729,0.529219,0.30975,-0.789925,-0.000173,-0.007461,-0.005384000000000001,-0.001051,0.008839,-0.0032270000000000003
190,0.5900479999999999,-0.31499499999999997,-1.213827,0.529025,0.309812,-0.790031,0.000889,-0.00853,-0.005376,-0.005785,0.002612,-0.003457
191,0.589791,-0.31503000000000003,-1.213937,0.5288149999999999,0.309845,-0.790158,0.001946,-0.011726,-0.006431999999999999,-0.0034549999999999997,0.001511,-0.008990999999999999
192,0.589433,-0.31514899999999996,-1.214046,0.528512,0.309958,-0.790316,-0.002336,-0.014906,-0.006458,-0.004128,0.002328,-0.004102000000000001
193,0.589062,-0.315321,-1.214137,0.528189,0.310121,-0.7904680000000001,-0.0044740000000000005,-0.017025,-0.007539,-0.0069489999999999994,0.003401,-0.0008529999999999999
194,0.5885859999999999,-0.315418,-1.21424,0.527796,0.310214,-0.790694,-0.001307,-0.023431999999999998,-0.00644,-0.00532,0.00195,-0.004274
195,0.588042,-0.31548699999999996,-1.2143469999999998,0.527354,0.31027899999999997,-0.790964,-0.001718,-0.024405,-0.006975,0.000234,0.000725,-0.009726
196,0.587667,-0.315751,-1.214428,0.527012,0.31053000000000003,-0.791093,-0.0123,-0.009437000000000001,-0.011341,0.0014609999999999998,0.0021219999999999998,-0.011092
197,0.587684,-0.316257,-1.2144540000000001,0.526938,0.311012,-0.790953,-0.023944999999999998,0.0066,-0.015716,0.001184,0.008935,-0.0024879999999999998
198,0.58786,-0.316848,-1.214417,0.526976,0.311573,-0.7907069999999999,-0.026074,0.009795,-0.013597999999999999,-0.000959,0.013531,0.002957
199,0.588022,-0.317355,-1.214366,0.527015,0.312054,-0.7904909999999999,-0.020759,0.008698000000000001,-0.010355,-0.004875,0.012729,0.00213
200,0.5882310000000001,-0.317754,-1.21435,0.527112,0.312434,-0.790276,-0.016462,0.012953000000000001,-0.012467,-0.007107,0.006963,-0.002433
201,0.58845,-0.318288,-1.21446,0.527192,0.31294099999999997,-0.790022,-0.021725,0.017279,-0.02426,0.010772,0.000154,-0.0058
202,0.5888909999999999,-0.31913400000000003,-1.214772,0.527393,0.313744,-0.789569,-0.02692,0.031214,-0.041406,0.0066489999999999995,0.0005099999999999999,-0.001446
203,0.589408,-0.320178,-1.2152399999999999,0.527619,0.314735,-0.789024,-0.029310000000000003,0.034509,-0.044965,0.0058130000000000005,0.015511000000000002,0.0022960000000000003
204,0.589811,-0.32105500000000003,-1.215507,0.527783,0.31556799999999996,-0.7885810000000001,-0.02733,0.017388999999999998,-0.027837999999999998,0.004229999999999999,0.017928,0.002616
205,0.589879,-0.32163,-1.2155559999999999,0.527736,0.31611300000000003,-0.788395,-0.021087,-0.002933,-0.012813,0.00044699999999999997,0.022022,-0.0016600000000000002
206,0.589626,-0.321891,-1.215436,0.5274909999999999,0.316361,-0.788459,-0.012706,-0.023258,0.001159,0.010824,0.018295,-0.008065000000000001
207,0.589072,-0.322083,-1.2151370000000001,0.5270199999999999,0.316544,-0.788701,-0.019188,-0.034980000000000004,0.0075379999999999996,0.011966,0.009857,-0.011867
208,0.588644,-0.322481,-1.214685,0.526613,0.316921,-0.788822,-0.027699,-0.028562,0.008537999999999999,-0.0038159999999999995,0.0036060000000000003,-0.006055
209,0.5882649999999999,-0.322909,-1.21422,0.526238,0.317326,-0.788909,-0.023427,-0.027512,0.008567,-0.017357,0.000102,-0.001253
210,0.587888,-0.323191,-1.213942,0.525891,0.317594,-0.789032,-0.011629,-0.021131999999999998,0.001163,-0.018185,-0.0038280000000000002,-0.007294
211,0.5876399999999999,-0.32340100000000005,-1.213994,0.525658,0.317793,-0.789107,-0.005298,-0.007189,-0.01187,-0.014458000000000002,-0.0038280000000000002,-0.012025
212,0.587514,-0.323651,-1.214177,0.525514,0.31803000000000003,-0.789107,-0.007393,0.00028,-0.012962000000000001,-0.006426,0.000925,-0.013978
213,0.587418,-0.323924,-1.214251,0.5253909999999999,0.318289,-0.789085,-0.011685,0.001334,-0.0065840000000000004,-0.001739,0.00451,-0.005592
214,0.5875600000000001,-0.324128,-1.214086,0.525467,0.31848200000000004,-0.788957,-0.0149,0.010882,0.0062,-0.004776,0.0050810000000000004,-0.0022719999999999997
215,0.5876100000000001,-0.324177,-1.213786,0.5254979999999999,0.31852800000000003,-0.788918,-0.014962,0.005522,0.014752000000000001,-0.011475,0.012893,-0.0032270000000000003
216,0.587727,-0.324214,-1.213192,0.525583,0.318564,-0.788846,-0.021469,-0.006221,0.026472000000000002,-0.013330000000000002,0.011285,-0.001986
217,0.587781,-0.324291,-1.212367,0.525612,0.318637,-0.788797,-0.026851,-0.010489,0.032849,-0.011406,0.006665000000000001,-0.002569
218,0.587871,-0.324529,-1.211545,0.525641,0.318862,-0.788687,-0.032085,-0.0008320000000000001,0.019982,-0.002112,0.006028,-0.005823
219,0.588149,-0.324856,-1.211003,0.525803,0.319173,-0.788454,-0.022368,0.013030000000000002,0.008281,0.001983,0.00996,-0.007673999999999999
220,0.588372,-0.325133,-1.210848,0.525929,0.31943499999999997,-0.788263,-0.007497,0.015235,-0.0013830000000000001,0.006495999999999999,0.021828,0.004755
221,0.588535,-0.325139,-1.211021,0.526057,0.31944,-0.788176,0.011715999999999999,0.011993,-0.006586,0.009404000000000001,0.018237,0.004911
222,0.588665,-0.324874,-1.211455,0.526207,0.319189,-0.7881779999999999,0.028810000000000002,0.014077000000000001,-0.009674,0.007958,0.014231,0.011687999999999999
223,0.588519,-0.324456,-1.21205,0.526165,0.318794,-0.788366,0.036206,-0.001928,-0.009602,0.017551,0.001031,0.002507
224,0.588386,-0.324212,-1.212576,0.526104,0.318562,-0.7885,0.02238,0.003464,-0.013978,0.013706,-0.007634,0.003069
225,0.588279,-0.32419499999999996,-1.21291,0.526022,0.318546,-0.788561,0.007376000000000001,-0.006093,-0.008729,0.017236,-0.005313,-0.000715
226,0.588145,-0.32431,-1.212952,0.525896,0.318655,-0.788601,-0.004407,-0.010338,-0.002397,0.011061,-0.001333,-0.001667
227,0.587958,-0.32445300000000005,-1.212745,0.525724,0.31879,-0.788661,-0.012003,-0.019747999999999998,0.005011,-0.001248,-0.002689,-0.005574
228,0.5875640000000001,-0.32448899999999997,-1.2124059999999999,0.525407,0.318825,-0.788859,-0.009965,-0.031512,0.014653999999999999,-0.007737000000000001,0.001518,-0.012472
229,0.587076,-0.324402,-1.2119280000000001,0.525036,0.318742,-0.789139,-0.011084,-0.037920999999999996,0.019995,-0.015851,0.011687000000000001,-0.021347
230,0.586487,-0.324418,-1.211392,0.524569,0.318757,-0.789443,-0.015361000000000001,-0.040037,0.019968,-0.023761,0.011138,-0.019303
231,0.585972,-0.324445,-1.210985,0.524157,0.318783,-0.789706,-0.009936,-0.028304000000000003,0.011445,-0.034594,0.006915999999999999,-0.014997
232,0.585611,-0.324448,-1.210804,0.523872,0.318786,-0.789894,-0.0034340000000000004,-0.01126,0.006128,-0.028297000000000003,-0.0009609999999999999,-0.012092
233,0.585477,-0.324463,-1.210753,0.523763,0.3188,-0.7899609999999999,-0.0023,-0.002716,-0.00028399999999999996,-0.021612,0.000552,-0.015093
234,0.585391,-0.32459899999999997,-1.2107940000000001,0.523671,0.318929,-0.78997,-0.005453,0.003703,-0.004588,-0.004888,0.005549,-0.018227
235,0.585475,-0.324822,-1.21094,0.523698,0.31914000000000003,-0.789867,-0.007476000000000001,0.023968,-0.008901000000000001,0.008391,0.011120999999999999,0.00022400000000000002
236,0.585955,-0.32504099999999997,-1.211068,0.524039,0.319348,-0.789557,-0.004076,0.029330000000000002,-0.008704,0.008690999999999999,0.013035,0.004782
237,0.5861149999999999,-0.32509299999999997,-1.211226,0.5241560000000001,0.319397,-0.789459,0.0032869999999999996,0.011173,-0.003288,0.017256,0.008804000000000001,0.008148
238,0.586028,-0.325008,-1.211352,0.524103,0.319316,-0.7895270000000001,0.006406,-0.005887,-0.002176,0.022345,0.007909000000000001,0.002403
239,0.585769,-0.32504099999999997,-1.211395,0.523892,0.319348,-0.789654,-0.00644,-0.015429,-0.002254,0.01955,0.007906999999999999,0.003582
240,0.585589,-0.325359,-1.2112379999999998,0.523694,0.31964899999999996,-0.789663,-0.017113,-0.015396,-0.00126,0.007174,-0.004098,-0.00020800000000000001
241,0.585522,-0.325746,-1.210942,0.523572,0.32001599999999997,-0.789596,-0.022433,-0.011120999999999999,-0.00023500000000000002,0.007418000000000001,-0.007165,-0.007737000000000001
242,0.585483,-0.326158,-1.210695,0.523468,0.32040599999999997,-0.789506,-0.0224,-0.006847,-0.0034439999999999996,0.008117000000000001,-0.004961,-0.0083
243,0.585496,-0.32654299999999997,-1.210591,0.523411,0.32077100000000003,-0.789396,-0.014575,-0.005658,-0.008525,-0.001697,0.0035549999999999996,-0.0049
244,0.585391,-0.32674899999999996,-1.21064,0.523292,0.320966,-0.789396,-0.004983,-0.007821999999999999,-0.008456,-0.006614,0.004123,-0.0039689999999999994
245,0.5851729999999999,-0.326784,-1.210758,0.523113,0.320999,-0.789501,0.002466,-0.008926,-0.0051979999999999995,-0.008236,0.002121,-0.004078
246,0.584963,-0.326704,-1.210875,0.522961,0.320923,-0.789632,0.0035329999999999997,-0.006808,-0.0030559999999999997,-0.010495,0.0041659999999999996,-0.006327
247,0.584859,-0.32669699999999996,-1.210908,0.522881,0.320916,-0.7896890000000001,0.000337,-0.002549,0.000121,-0.011193,0.004935,-0.008331
248,0.584893,-0.326689,-1.2107940000000001,0.5229090000000001,0.320909,-0.789673,-0.00715,0.001704,0.008609,-0.013983,0.004973,-0.010712000000000001
249,0.584873,-0.32682,-1.210238,0.52287,0.321033,-0.7896479999999999,-0.021168,-0.014294,0.025623000000000003,-0.019422,0.025616000000000003,-0.004068
250,0.584816,-0.326676,-1.209386,0.52285,0.320897,-0.789716,-0.010605,-0.015486000000000002,0.048131,-0.014397,0.027277999999999997,-0.004824
251,0.584565,-0.326112,-1.208356,0.522752,0.320362,-0.789999,0.001001,-0.032618,0.059984,-0.0034649999999999998,0.025539,-0.008173
252,0.584224,-0.325293,-1.207387,0.5226270000000001,0.319587,-0.790395,0.014222,-0.02299,0.063319,0.003221,0.015771,-0.005305
253,0.584149,-0.324358,-1.206617,0.522732,0.3187,-0.790684,0.022852,-0.008081,0.056951,-0.0013390000000000001,0.0021620000000000003,0.000797
254,0.584078,-0.323556,-1.205971,0.522817,0.31794,-0.790933,0.022871000000000002,-0.010186,0.050544,0.005122,0.001808,0.0013830000000000001
255,0.58415,-0.322648,-1.205402,0.523033,0.317079,-0.791137,0.028235000000000003,-0.004874,0.049506,0.010781,0.0008380000000000001,-0.001939
256,0.584141,-0.321614,-1.205,0.523207,0.31609899999999996,-0.7914140000000001,0.036779,-0.009139,0.043162,0.019411,-0.004072,-0.007826000000000001
257,0.584116,-0.320662,-1.204652,0.523353,0.315195,-0.791678,0.029354,-0.002709,0.039898,0.011453,-0.0041140000000000005,0.001639
258,0.584341,-0.31987,-1.20426,0.523668,0.314444,-0.791768,0.019834,0.012251,0.036607,0.0023940000000000003,-0.008856000000000001,0.005025
259,0.584765,-0.319335,-1.203841,0.524097,0.31393499999999996,-0.791686,0.007065000000000001,0.013387,0.030107,-0.001941,-0.004487,0.001678
260,0.585023,-0.318954,-1.2033690000000001,0.524367,0.313573,-0.791651,0.002926,-0.0067469999999999995,0.028004,-0.010497,0.004649,-0.003958
261,0.584963,-0.318565,-1.202896,0.5243869999999999,0.313204,-0.791784,0.005016,-0.015281,0.029098000000000002,-0.006183,0.0055060000000000005,-0.01182
262,0.584932,-0.318266,-1.2025379999999999,0.524413,0.31292,-0.791878,0.00085,-0.003505,0.018371000000000002,-0.005797999999999999,0.004065999999999999,-0.017936
263,0.585121,-0.31813800000000003,-1.202339,0.524586,0.312799,-0.791812,-0.001164,0.011463,0.006587999999999999,-0.011036,0.002326,-0.017391999999999998
264,0.58544,-0.318133,-1.202353,0.524839,0.312793,-0.791646,0.002113,0.020008,-0.001946,-0.017317,-0.00043099999999999996,-0.013696999999999999
265,0.58577,-0.31814699999999996,-1.20254,0.525098,0.312807,-0.791469,0.006418999999999999,0.021088,-0.009395,-0.014950999999999999,0.00015,-0.013478
266,0.586007,-0.31811100000000003,-1.202856,0.525292,0.312772,-0.791354,0.010695999999999999,0.022142,-0.010435,-0.002861,0.006365,-0.008969
267,0.586125,-0.31801199999999996,-1.20331,0.525402,0.312679,-0.7913180000000001,0.015163,0.014894,-0.016845,0.002598,0.002735,-0.00725
268,0.5861850000000001,-0.318008,-1.203845,0.52545,0.312675,-0.791288,0.010915000000000001,0.013865,-0.022215000000000002,0.001115,-0.00035800000000000003,-0.005587
269,0.586256,-0.318198,-1.20434,0.525473,0.31285599999999997,-0.791201,-0.000796,0.018171,-0.02337,0.001611,-0.006123,-0.006971
270,0.58654,-0.31864499999999996,-1.204723,0.525621,0.31328,-0.790935,-0.013555000000000001,0.023559,-0.027739,0.001342,-0.003694,-0.007145
271,0.586873,-0.319212,-1.20494,0.525786,0.313819,-0.790612,-0.017884999999999998,0.018213999999999998,-0.019216999999999998,-0.005263,0.006997,-0.003257
272,0.587017,-0.31955100000000003,-1.205003,0.52584,0.31414000000000003,-0.7904479999999999,-0.008408,0.0032159999999999997,-0.006313,-0.001853,0.016747,0.000775
273,0.5869949999999999,-0.319567,-1.2049969999999999,0.52582,0.314156,-0.790455,0.0011359999999999999,-0.001113,0.002305,0.0032479999999999996,0.020316999999999998,-0.00494
274,0.58704,-0.319414,-1.2049379999999998,0.525882,0.31401,-0.790471,0.0032600000000000003,0.002054,0.007657,0.001355,0.016022,-0.003367
275,0.5870569999999999,-0.319228,-1.204867,0.525928,0.313834,-0.790511,0.006657,5.9e-05,0.008758,-0.0007509999999999999,0.00683,-0.004106
276,0.587102,-0.319087,-1.204875,0.525988,0.3137,-0.790524,0.008839,0.003278,0.001291,-0.001986,0.002691,-0.009097
277,0.58708,-0.319081,-1.205062,0.525972,0.31369400000000003,-0.7905369999999999,0.008868000000000001,0.00011999999999999999,-0.008318,-0.00757,0.00031600000000000004,-0.006185
278,0.5870270000000001,-0.319143,-1.205307,0.5259189999999999,0.313753,-0.790549,0.0035479999999999995,0.001213,-0.010493,-0.0071200000000000005,-0.0038159999999999995,-0.005258
279,0.586997,-0.319191,-1.205511,0.525887,0.313798,-0.790552,0.005672,0.003319,-0.006208,-0.006065999999999999,-0.000551,-0.008764
280,0.58696,-0.319119,-1.205631,0.52587,0.31373,-0.7905909999999999,0.004567,0.001166,0.000196,-0.0022949999999999997,-0.0016579999999999998,-0.01251
281,0.586993,-0.319064,-1.205553,0.525906,0.313678,-0.790587,-0.002935,0.000101,0.006554000000000001,-0.004208,-0.0017120000000000002,-0.010438
282,0.587108,-0.319071,-1.2053559999999999,0.525996,0.313685,-0.790525,-0.00825,0.007564,0.009712,-0.007090000000000001,-0.002482,-0.008211
283,0.587242,-0.31909899999999997,-1.205109,0.526097,0.313711,-0.7904479999999999,-0.00914,0.004582,0.008487999999999999,-0.005757,0.005503,-0.010074
284,0.587375,-0.319141,-1.2049219999999998,0.526195,0.313751,-0.790366,-0.006987,0.004592000000000001,0.004229999999999999,-0.008205,0.006043,-0.007775
285,0.587458,-0.319223,-1.204874,0.526246,0.31382899999999997,-0.790301,-0.005896,0.0035479999999999995,-0.00217,-0.007844,0.007353,-0.007611
286,0.587445,-0.319271,-1.2048940000000001,0.526227,0.313875,-0.790296,-0.001639,0.001403,-0.0021379999999999997,-0.002408,0.009428,-0.0069
287,0.587433,-0.319302,-1.2050239999999999,0.526212,0.313904,-0.7902939999999999,0.004790999999999999,0.0035280000000000003,-0.006368,-0.004591,0.010666,-0.0048259999999999996
288,0.58741,-0.319226,-1.205232,0.526208,0.313832,-0.790326,0.011183,0.002436,-0.005254,-0.001977,0.0035810000000000004,0.0009429999999999999
289,0.587339,-0.31911300000000004,-1.205476,0.526171,0.313724,-0.790393,0.01225,0.002432,-0.005247,0.00395,0.001827,-0.007795000000000001
290,0.58736,-0.319073,-1.205683,0.526195,0.313687,-0.790392,0.004811,0.007789,-0.006374,0.001073,-0.000332,-0.007261
291,0.587499,-0.31913,-1.205825,0.526295,0.313741,-0.790304,-0.0005780000000000001,0.009092,-0.006993999999999999,-0.0009199999999999999,-0.000218,-0.004481000000000001
292,0.587585,-0.31922,-1.205873,0.526347,0.31382600000000005,-0.790235,-0.0027600000000000003,0.0026899999999999997,-0.002728,0.001134,0.004029,-0.007356999999999999
293,0.5876319999999999,-0.319244,-1.205875,0.5263800000000001,0.313849,-0.790204,-0.000641,0.00267,0.000492,-0.000989,0.004159,-0.007708
294,0.587724,-0.319262,-1.20586,0.52645,0.313866,-0.790151,-0.002755,0.005878,-0.000595,-0.0057740000000000005,0.004814,-0.005946
295,0.58786,-0.319309,-1.205835,0.5265479999999999,0.313911,-0.790068,-0.002745,0.008008,-0.000598,-0.009092,0.002541,-0.009722
296,0.587993,-0.31934,-1.205881,0.526648,0.31394,-0.789989,0.00047400000000000003,0.009075,-0.003782,-0.008962999999999999,0.002039,-0.013263999999999998
297,0.58811,-0.319412,-1.2059819999999999,0.526728,0.31400900000000004,-0.789909,-0.0005780000000000001,0.009092,-0.006993999999999999,-0.010157,0.003832,-0.010415
298,0.588228,-0.319488,-1.206086,0.526809,0.31408,-0.7898270000000001,0.001551,0.00908,-0.00591,-0.006789,0.005332,-0.0101
299,0.5882970000000001,-0.319506,-1.206221,0.526859,0.314098,-0.789786,0.004737,0.006934,-0.004817,-0.00507,0.004032,-0.0069370000000000005
300,0.588324,-0.319431,-1.206372,0.526894,0.314027,-0.789791,0.006739,0.005905,-0.003146,-0.004265,0.0019370000000000001,-0.0054210000000000005
301,0.588378,-0.31935399999999997,-1.206486,0.52695,0.313954,-0.789783,0.0046,0.0069689999999999995,-0.001026,-0.00577,0.001873,-0.006497
302,0.588479,-0.31932,-1.206515,0.527036,0.313921,-0.789738,0.000333,0.008045,1.1e-05,-0.002957,1.3000000000000001e-05,-0.009531999999999999
303,0.588604,-0.319343,-1.206494,0.52713,0.31394299999999997,-0.789666,-0.002878,0.006986,0.001058,-0.001679,0.0018679999999999999,-0.003928
304,0.588738,-0.319371,-1.206432,0.5272319999999999,0.313969,-0.789588,-0.000749,0.006975,0.002141,0.001516,0.004772,-0.004281
305,0.588823,-0.31935399999999997,-1.206446,0.527301,0.31395300000000004,-0.7895479999999999,0.00139,0.00591,2.1e-05,-0.0008730000000000001,0.004849,-0.00458
306,0.588903,-0.319331,-1.206482,0.527369,0.313931,-0.789512,0.002442,0.002711,3.2e-05,-0.0009400000000000001,0.004871,-0.0046159999999999994
307,0.588911,-0.319279,-1.206528,0.527384,0.313882,-0.789521,0.002364,0.002621,-0.00016999999999999999,-0.0032600000000000003,0.003089,-0.0067280000000000005
308,0.5889260000000001,-0.31927,-1.20659,0.5273979999999999,0.313873,-0.789516,0.002369,0.002625,-0.0012380000000000002,-0.007026999999999999,0.003982,-0.008519
309,0.588992,-0.319276,-1.2066219999999999,0.5274479999999999,0.313879,-0.789479,-0.000831,0.003698,-0.000194,-0.005872,0.002405,-0.008891
310,0.5890770000000001,-0.319295,-1.206631,0.527512,0.313897,-0.78943,-0.001889,0.004771,-0.001271,-0.004914,0.0019440000000000002,-0.013488
311,0.5891430000000001,-0.319349,-1.206679,0.527555,0.313948,-0.789381,-0.0008029999999999999,0.005845,-0.004469,-0.0035380000000000003,0.0037090000000000005,-0.012118
312,0.5892390000000001,-0.319425,-1.206757,0.527618,0.31401999999999997,-0.7893100000000001,-0.001855,0.009045000000000001,-0.004481000000000001,-0.007858,0.001379,-0.008725
313,0.589394,-0.31953000000000004,-1.206784,0.527722,0.314121,-0.789201,-0.002936,0.006914,-0.0034170000000000003,-0.009365,-3e-06,-0.009902
314,0.589493,-0.319573,-1.206836,0.527792,0.314161,-0.789137,0.00027400000000000005,0.009033,-0.0033979999999999995,-0.003104,-0.001158,-0.012041
315,0.589635,-0.319619,-1.206882,0.527896,0.314205,-0.7890510000000001,-0.00086,0.011073000000000001,-0.00247,-0.002597,0.002994,-0.008877
316,0.589808,-0.3197,-1.20684,0.5280189999999999,0.314282,-0.788938,-0.006228,0.007879,0.0017690000000000002,-0.0033299999999999996,0.0032689999999999998,-0.008059
317,0.589917,-0.31974,-1.206756,0.528097,0.31432,-0.78887,-0.00517,0.007867,0.003913000000000001,-0.003561,0.005336,-0.004343
318,0.59006,-0.319786,-1.2066219999999999,0.5282020000000001,0.314364,-0.788782,-0.005175,0.006802,0.003914,-0.005146,0.004453,-0.0069180000000000005
319,0.590147,-0.319791,-1.20655,0.52827,0.314368,-0.7887350000000001,-0.001984,0.003599,0.002872,-0.003215,0.0016719999999999999,-0.007423000000000001
320,0.590246,-0.319832,-1.2065549999999998,0.528341,0.314407,-0.788672,-0.003017,0.005755,-0.002479,-0.0018210000000000001,0.003311,-0.008294
321,0.5904020000000001,-0.319905,-1.2066,0.528451,0.314477,-0.788571,-0.00086,0.010012,-0.0035369999999999998,-0.0033049999999999998,0.002464,-0.007037999999999999
322,0.590526,-0.319922,-1.206664,0.528546,0.31449299999999997,-0.788501,0.003389,0.006798,-0.002435,-0.00462,0.0034240000000000004,-0.006481999999999999
323,0.590539,-0.319863,-1.206788,0.528566,0.31443699999999997,-0.788509,0.0075829999999999995,0.003474,-0.002455,-0.001726,3.2e-05,-0.006397
324,0.59055,-0.319785,-1.206933,0.5285890000000001,0.314363,-0.788524,0.005459,0.0045509999999999995,-0.0035399999999999997,-0.002313,0.002227,-0.006825
325,0.590596,-0.319782,-1.207027,0.528626,0.31436,-0.7885,0.00011999999999999999,0.004565,-0.002509,-0.005722,0.000612,-0.008801999999999999
326,0.590642,-0.319835,-1.207068,0.528652,0.31440999999999997,-0.788462,-0.000947,0.004569,-0.002516,-0.006726,0.001478,-0.009145
327,0.5907359999999999,-0.319867,-1.207066,0.528721,0.31444,-0.788404,-0.000947,0.006691,-0.00038199999999999996,-0.0068709999999999995,-0.000857,-0.009524
328,0.590835,-0.319885,-1.207084,0.528796,0.31445700000000004,-0.788347,-0.000947,0.00563,-0.001449,-0.008456,0.000866,-0.009947
329,0.590907,-0.319897,-1.207096,0.5288510000000001,0.314469,-0.7883060000000001,-0.0009609999999999999,0.0034950000000000003,-0.00037799999999999997,-0.006298,0.0019219999999999999,-0.012201
330,0.5909800000000001,-0.319918,-1.2070670000000001,0.5289050000000001,0.31448899999999996,-0.788262,-0.003095,0.004564,0.000674,-0.006749,0.004435000000000001,-0.009742
331,0.591008,-0.31995100000000004,-1.207074,0.528921,0.31451999999999997,-0.788238,-0.002069,0.004418,-0.000383,-0.004598,0.002252,-0.0075840000000000005
332,0.5910920000000001,-0.319968,-1.207071,0.528984,0.314537,-0.788189,-0.000997,0.0054789999999999995,-0.000377,-0.0063549999999999995,0.003045,-0.007831
333,0.59115,-0.31995300000000004,-1.2071290000000001,0.529033,0.31452199999999997,-0.7881630000000001,0.0022129999999999997,0.005477,-0.002491,-0.001307,0.0026320000000000002,-0.007461
334,0.591202,-0.319966,-1.207217,0.529071,0.31453400000000004,-0.7881319999999999,0.002222,0.007606999999999999,-0.002493,-0.004093,0.001277,-0.007384999999999999
335,0.591317,-0.31999,-1.207254,0.529157,0.31455700000000003,-0.788065,-0.0009880000000000002,0.006548999999999999,-0.001446,-0.005598,0.0015890000000000001,-0.006033
336,0.59139,-0.32000100000000004,-1.207301,0.529213,0.31456799999999996,-0.7880229999999999,0.001141,0.004415,-0.002497,-0.004814,0.0011359999999999999,-0.005754
337,0.591431,-0.32,-1.2073459999999998,0.529246,0.314567,-0.7880020000000001,0.001131,0.003346,-0.0014269999999999999,-0.005365999999999999,0.002374,-0.009453
338,0.5914560000000001,-0.320015,-1.207347,0.529263,0.314581,-0.787984,-0.003146,0.00123,-0.001454,-0.003964,0.002206,-0.007151
339,0.5914739999999999,-0.320017,-1.207309,0.529277,0.31458200000000003,-0.787975,-0.002093,0.002274,0.0028239999999999997,-0.004573,0.003945000000000001,-0.008168
340,0.591479,-0.319997,-1.207284,0.529284,0.314564,-0.787977,0.001066,0.001037,0.001797,-0.00548,-0.000202,-0.009447
341,0.591458,-0.31998499999999996,-1.2073040000000002,0.52927,0.314552,-0.787991,4e-06,-0.001077,-0.001413,-0.006137,0.001091,-0.009814
342,0.5914229999999999,-0.319979,-1.207332,0.529243,0.31454699999999997,-0.7880119999999999,0.001076,0.002106,0.000727,-0.00698,-0.0011769999999999999,-0.008711
343,0.591436,-0.319941,-1.207306,0.5292600000000001,0.31451,-0.7880149999999999,0.001057,-3.3e-05,0.002866,-0.005563,5e-05,-0.012004
344,0.591432,-0.319898,-1.207272,0.5292640000000001,0.31446999999999997,-0.788028,-0.0,0.0010400000000000001,0.001789,-0.005125,-3.2e-05,-0.010159
345,0.591483,-0.319895,-1.207194,0.529305,0.314467,-0.7880020000000001,-0.003201,0.002113,0.002834,-0.004479,0.00035299999999999996,-0.011772
346,0.591517,-0.319941,-1.207128,0.529324,0.314511,-0.787972,-0.006382,0.004263,0.000672,-0.002392,-0.0008359999999999999,-0.009422
347,0.5916319999999999,-0.32004299999999997,-1.2071209999999999,0.529397,0.314608,-0.787884,-0.005282,0.008533,-0.00253,-0.0018239999999999999,1.3000000000000001e-05,-0.009586
348,0.591767,-0.32016500000000003,-1.2071370000000001,0.5294810000000001,0.314723,-0.7877810000000001,-0.005281,0.00943,-0.004635,-0.0037549999999999997,0.002583,-0.009734999999999999
349,0.591923,-0.320281,-1.207156,0.529584,0.314833,-0.787668,-0.002081,0.01048,-0.003546,-0.003156,0.002519,-0.00614
350,0.592018,-0.320306,-1.207222,0.529654,0.314857,-0.787611,0.001101,0.006208,-0.003518,-0.00041799999999999997,0.002739,-0.007356999999999999
351,0.592086,-0.320296,-1.207275,0.52971,0.314847,-0.787578,0.0021579999999999998,0.005135,-0.002441,-0.003251,0.0034200000000000003,-0.005361
352,0.592184,-0.320303,-1.207336,0.529786,0.314854,-0.787524,2.8999999999999997e-05,0.007268000000000001,-0.001391,-0.003327,5.6999999999999996e-05,-0.006788
353,0.592206,-0.320362,-1.20735,0.5297930000000001,0.31490999999999997,-0.787497,-0.0021379999999999997,0.00088,-0.00032900000000000003,-0.00312,3.1e-05,-0.011667
354,0.592226,-0.32042800000000005,-1.207355,0.5297970000000001,0.314973,-0.787469,-0.001052,0.003015,-0.002461,-0.005093,-0.00010800000000000001,-0.007484
355,0.592299,-0.320466,-1.2074,0.5298470000000001,0.31500900000000004,-0.787421,-0.001036,0.004959000000000001,-0.0035009999999999998,-0.0067,-0.0016690000000000001,-0.008463
356,0.59232,-0.320457,-1.207433,0.529866,0.315,-0.787412,0.0010689999999999999,0.001743,-0.000278,-0.007984999999999999,0.000307,-0.011996
357,0.592328,-0.320469,-1.207468,0.52987,0.315012,-0.787404,7.000000000000001e-06,0.0017510000000000002,-0.001353,-0.007744,0.001059,-0.012294
358,0.592332,-0.3205,-1.207488,0.529868,0.31504099999999996,-0.7873939999999999,-0.0021219999999999998,0.0028239999999999997,-0.00137,-0.008657999999999999,0.000541,-0.008886
359,0.59235,-0.320506,-1.207522,0.529881,0.315046,-0.7873829999999999,-0.001041,0.004954999999999999,-0.002433,-0.0070079999999999995,-0.0009140000000000001,-0.010789
360,0.592417,-0.320546,-1.2075799999999999,0.529926,0.31508400000000003,-0.787337,-0.001036,0.0038979999999999996,-0.004568,-0.006123,0.001307,-0.010286
361,0.592468,-0.320606,-1.207637,0.5299560000000001,0.31514200000000003,-0.7872939999999999,-0.001036,0.004959000000000001,-0.0035009999999999998,-0.005222,0.000776,-0.010497
362,0.592485,-0.32069200000000003,-1.207678,0.529954,0.315223,-0.787263,-0.004232,0.006036,-0.003525,-0.004106,0.000267,-0.009917
363,0.592536,-0.320777,-1.2077440000000002,0.529979,0.315304,-0.7872140000000001,-0.001027,0.004784,-0.005602,-0.002849,0.000874,-0.009692000000000001
364,0.592588,-0.320869,-1.207882,0.530004,0.315391,-0.787162,5.9e-05,0.00692,-0.007734,-0.005605,0.0016870000000000001,-0.006661
365,0.592648,-0.32093,-1.208012,0.53004,0.31545,-0.787114,0.001111,0.005842,-0.005589,-0.004802000000000001,-2e-05,-0.008173999999999999
366,0.5927020000000001,-0.320994,-1.208122,0.530072,0.31551,-0.7870689999999999,-0.001027,0.004784,-0.005602,-0.002957,0.003918,-0.009562000000000001
367,0.592755,-0.321024,-1.2081979999999999,0.530108,0.315538,-0.787033,2e-05,0.0037020000000000004,-0.002389,-0.00307,0.004576,-0.008957
368,0.5927399999999999,-0.321015,-1.208244,0.530098,0.31553000000000003,-0.787043,0.00213,0.000491,-0.000233,-0.003426,-9e-06,-0.008093000000000001
369,0.592703,-0.32101,-1.20828,0.5300699999999999,0.315525,-0.787064,6e-06,0.0005070000000000001,-0.002385,-0.004405,-0.00214,-0.009674
370,0.592709,-0.321046,-1.2083110000000001,0.530068,0.31555900000000003,-0.7870510000000001,-0.002118,0.0026449999999999998,-0.002402,-0.005059,-0.001243,-0.012616
371,0.592747,-0.321153,-1.208339,0.530079,0.315661,-0.787003,-0.0031739999999999997,0.002483,-0.00451,-0.007084,-0.000307,-0.009826
372,0.592757,-0.321226,-1.208382,0.5300739999999999,0.31573,-0.786979,-0.001059,0.000337,-0.002356,-0.006179,5e-06,-0.008126000000000001
373,0.592704,-0.32121900000000003,-1.208469,0.530034,0.315723,-0.7870090000000001,0.003208,-0.000739,-0.003393,-0.004384000000000001,-0.000644,-0.008722
374,0.592661,-0.32121500000000003,-1.208559,0.530001,0.31572,-0.787032,0.002146,0.00033,-0.003401,-0.0033130000000000004,-0.0019379999999999998,-0.010896
375,0.592637,-0.321264,-1.2086299999999999,0.5299729999999999,0.315766,-0.787033,-0.002111,0.002475,-0.0034340000000000004,-0.006093,4.5e-05,-0.011170000000000001
376,0.592647,-0.321335,-1.208668,0.5299689999999999,0.315833,-0.787008,-0.004236,0.004613,-0.0034509999999999996,-0.006806,0.002968,-0.006693000000000001
377,0.59268,-0.321395,-1.208741,0.529984,0.315891,-0.786975,2.2e-05,0.002468,-0.0034189999999999997,-0.006836,0.001202,-0.010876
378,0.592673,-0.321411,-1.20881,0.529976,0.315905,-0.786975,1.3000000000000001e-05,0.001398,-0.002349,-0.006431,0.0017519999999999999,-0.009137000000000001
379,0.592654,-0.321432,-1.208856,0.5299560000000001,0.31592600000000004,-0.78698,-0.001031,0.003387,-0.002344,-0.006046,0.001411,-0.010201
380,0.592691,-0.32147,-1.2088860000000001,0.529979,0.315961,-0.78695,-0.001036,0.002322,-0.002343,-0.004024,0.001498,-0.011298
381,0.592688,-0.321524,-1.208954,0.529967,0.316012,-0.786937,0.001103,0.001258,-0.004463,-0.005767,-0.00046100000000000004,-0.007725
382,0.592677,-0.32154499999999997,-1.20904,0.5299550000000001,0.316033,-0.786938,3.1e-05,0.001257,-0.003403,-0.005235,-0.001656,-0.008701
383,0.592635,-0.32156999999999997,-1.209093,0.529918,0.316056,-0.786953,-0.002117,-0.0008699999999999999,-0.0023469999999999997,-0.0036270000000000004,-0.0014349999999999999,-0.011309999999999999
384,0.592673,-0.321639,-1.209167,0.529935,0.31612199999999996,-0.7869149999999999,-0.000997,0.007661,-0.005554,-0.003339,0.0021609999999999997,-0.006908
385,0.592792,-0.321733,-1.209233,0.530013,0.316211,-0.786827,-0.003141,0.006599,-0.0045,-0.007520999999999999,-0.00047699999999999994,-0.012276
386,0.5928359999999999,-0.32182,-1.209302,0.530032,0.316293,-0.7867810000000001,-0.0010119999999999999,0.004465,-0.00555,-0.005847,-0.001153,-0.011757
387,0.592843,-0.321824,-1.2094639999999999,0.530036,0.316298,-0.7867770000000001,0.004351,0.0032340000000000003,-0.006552,-0.004966,-0.0006389999999999999,-0.008481
388,0.592828,-0.321813,-1.209651,0.530027,0.316287,-0.786787,0.005408,0.0021609999999999997,-0.005475,-0.006589,0.000181,-0.00461
389,0.592779,-0.321761,-1.209813,0.529997,0.316238,-0.786827,0.00648,0.0021620000000000003,-0.006536,-0.003279,-0.002624,-0.008736
390,0.592801,-0.321794,-1.210053,0.530008,0.316269,-0.7868069999999999,0.004408,0.00859,-0.014036000000000002,-0.002207,-0.0031739999999999997,-0.012143000000000001
391,0.5928439999999999,-0.321807,-1.210444,0.53004,0.316281,-0.78678,0.009767,0.010715,-0.017206,-0.010814,0.0025670000000000003,-0.010247
392,0.592824,-0.321767,-1.210868,0.530032,0.316243,-0.786801,0.013986000000000002,0.004292,-0.012896000000000001,-0.011279,0.00201,-0.008868000000000001
393,0.5927279999999999,-0.321664,-1.211208,0.529974,0.316146,-0.786879,0.011819,0.001086,-0.008634000000000001,-0.007238,0.005340999999999999,-0.013215000000000001
394,0.59265,-0.32157800000000003,-1.211368,0.529928,0.316064,-0.7869430000000001,0.0043170000000000005,2.1e-05,-0.002275,-0.004156,0.001486,-0.010573
395,0.592568,-0.321524,-1.2114200000000002,0.5298729999999999,0.316012,-0.7870010000000001,0.002164,1.2e-05,0.001982,-0.0060079999999999995,-0.002154,-0.004915
396,0.592525,-0.321479,-1.211402,0.5298470000000001,0.31597,-0.787035,0.002187,-0.001201,0.0031,-0.004654999999999999,-0.0024170000000000003,-0.007245999999999999
397,0.5924699999999999,-0.32145799999999997,-1.2113610000000001,0.529808,0.31595,-0.7870699999999999,-0.0020800000000000003,-0.002247,0.002003,-0.002845,-0.0033740000000000003,-0.008981
398,0.592454,-0.32148699999999997,-1.211278,0.52979,0.315977,-0.787071,-0.0052710000000000005,0.000956,0.003045,-0.00011200000000000001,-0.001875,-0.01133
399,0.592487,-0.321535,-1.211162,0.5298069999999999,0.316023,-0.787041,-0.0052710000000000005,0.002017,0.004111999999999999,-0.003578,0.000155,-0.00782
400,0.592564,-0.321588,-1.211049,0.5298579999999999,0.31607399999999997,-0.786986,-0.006324000000000001,0.003094,0.001966,-0.004727,0.000424,-0.006089
401,0.592594,-0.321601,-1.210992,0.52988,0.31608600000000003,-0.786967,-0.002061,0.002014,0.001998,-0.006823999999999999,0.001403,-0.008642
402,0.5926060000000001,-0.32159899999999997,-1.210954,0.52989,0.31608400000000003,-0.786961,7.2e-05,-0.00011599999999999999,-0.000121,-0.00868,0.0011769999999999999,-0.009685
403,0.592562,-0.32159299999999996,-1.210963,0.529856,0.316078,-0.786986,0.0011619999999999998,-0.001314,-4.2e-05,-0.006358,-0.000999,-0.010133
404,0.592529,-0.321575,-1.211009,0.529834,0.31606100000000004,-0.787008,0.0011769999999999999,0.0008210000000000001,-0.001112,-0.006808,-0.000875,-0.013224000000000001
405,0.592495,-0.32157199999999997,-1.211051,0.5298069999999999,0.316058,-0.787027,0.001172,-0.000244,-0.001111,-0.0060030000000000005,0.000546,-0.011313
406,0.592454,-0.32155100000000003,-1.211076,0.529779,0.316039,-0.787054,0.0001,-0.000245,-5e-05,-0.007425,-0.001082,-0.012201
407,0.5924149999999999,-0.321538,-1.211057,0.52975,0.31602600000000003,-0.7870779999999999,-0.000976,-0.00131,0.0010119999999999999,-0.006816,-0.0011300000000000001,-0.012024
408,0.592439,-0.32154099999999997,-1.21104,0.529768,0.316029,-0.787065,-0.0009519999999999999,0.004016,0.001005,-0.00511,-0.001698,-0.011473
409,0.592462,-0.321563,-1.211017,0.529783,0.31605,-0.787047,-0.002029,0.001889,0.001,-0.003934,-0.000529,-0.008897
410,0.592427,-0.32157800000000003,-1.210979,0.529753,0.316064,-0.787061,-0.002043,-0.001307,0.001004,-0.003553,9.8e-05,-0.007509999999999999
411,0.592377,-0.321598,-1.21097,0.52971,0.316083,-0.787082,-0.0020239999999999998,0.0008320000000000001,-0.001135,-0.004335,0.0009789999999999998,-0.011105
412,0.5924050000000001,-0.32161100000000004,-1.210949,0.529729,0.316096,-0.787064,-0.001994,0.0028510000000000002,1.3000000000000001e-05,-0.0065969999999999996,0.000723,-0.009581999999999999
413,0.592427,-0.321623,-1.21095,0.529745,0.316106,-0.78705,-0.000932,0.001782,2.2e-05,-0.0071920000000000005,-0.0007379999999999999,-0.010482
414,0.59244,-0.321654,-1.2109299999999998,0.529749,0.316137,-0.787035,-0.003066,0.00179,7.000000000000001e-06,-0.004862,-0.0008289999999999999,-0.009718000000000001
415,0.592462,-0.321694,-1.210913,0.52976,0.31617399999999996,-0.7870119999999999,-0.001994,0.00179,-0.0010539999999999998,-0.004186,-0.000332,-0.010778
416,0.5925189999999999,-0.321775,-1.210909,0.52979,0.316251,-0.786961,-0.003047,0.00499,-0.001065,-0.0068709999999999995,-7.4e-05,-0.009593
417,0.592526,-0.32181,-1.210949,0.52979,0.316284,-0.786948,0.000144,0.0017870000000000002,-0.002107,-0.0051920000000000004,-0.0017699999999999999,-0.009454
418,0.5925090000000001,-0.321824,-1.210996,0.529774,0.316297,-0.786953,-0.000923,0.001791,-0.002114,-0.0036509999999999997,0.000918,-0.010486
419,0.592513,-0.32186,-1.211058,0.52977,0.316331,-0.786942,-0.0008990000000000001,0.002759,-0.003087,-0.0029760000000000003,0.001036,-0.011306
420,0.592501,-0.32191,-1.211114,0.529752,0.316379,-0.786935,-0.0008990000000000001,0.002759,-0.003087,-0.00633,-0.001468,-0.007559999999999999
421,0.5925229999999999,-0.321971,-1.2111459999999998,0.529758,0.31643699999999997,-0.7869079999999999,-0.001966,0.0017010000000000003,-0.004161,-0.005848,0.001083,-0.008304
422,0.592513,-0.32198699999999997,-1.211195,0.529748,0.316452,-0.786909,0.00015800000000000002,0.001685,-0.00201,-0.006065999999999999,-6.1e-05,-0.009066
423,0.5924689999999999,-0.322017,-1.211235,0.529708,0.316481,-0.786924,-0.000923,-0.001507,-0.002014,-0.005752,-0.002653,-0.009875
424,0.592409,-0.32204699999999997,-1.211235,0.529656,0.31650900000000004,-0.786948,-0.001995,-0.001507,-0.000953,-0.0020989999999999997,-0.0017050000000000001,-0.014962999999999999
425,0.592384,-0.322131,-1.211266,0.529621,0.316589,-0.786939,-0.005162,0.002778,-0.004185,-0.002171,0.001023,-0.011996
426,0.592396,-0.322285,-1.211296,0.5296029999999999,0.316735,-0.786892,-0.007291,0.00279,-0.005268,-0.006853,-0.002373,-0.010837000000000001
427,0.59243,-0.322437,-1.211335,0.5296029999999999,0.316879,-0.786834,-0.004136,0.004795000000000001,-0.005103,-0.008089,-0.001037,-0.009186
428,0.592421,-0.32250700000000004,-1.2114200000000002,0.529584,0.316945,-0.786821,-0.0009539999999999999,0.000523,-0.005076,-0.007977,-0.002721,-0.009139
429,0.592348,-0.32252,-1.211486,0.529523,0.316958,-0.786856,0.0022129999999999997,-0.0027010000000000003,-0.000776,-0.0050479999999999995,0.000959,-0.009134
430,0.5922890000000001,-0.322536,-1.211498,0.529474,0.316973,-0.786883,-0.003117,-0.000556,0.000252,-0.004893,0.000272,-0.011548000000000001
431,0.592313,-0.322606,-1.2114129999999999,0.5294810000000001,0.31703899999999996,-0.786852,-0.006312,0.0026420000000000003,0.002362,-0.005769,0.002144,-0.010756
432,0.592377,-0.32268800000000003,-1.2112969999999998,0.529517,0.317117,-0.786796,-0.006312,0.0026420000000000003,0.002362,-0.007909999999999999,-0.000482,-0.010948000000000001
433,0.592432,-0.322778,-1.211225,0.529544,0.317202,-0.786744,-0.003098,0.002644,-0.00082,-0.003803,0.0005780000000000001,-0.009872
434,0.592446,-0.322844,-1.211242,0.529543,0.317265,-0.786719,-0.002016,0.002653,-0.004017,-0.00635,0.0014,-0.008995999999999999
435,0.592426,-0.322895,-1.211296,0.529519,0.317313,-0.786716,0.001175,-0.00055,-0.005059,-0.0056240000000000005,0.000604,-0.008374
436,0.5923579999999999,-0.322889,-1.211387,0.529467,0.317308,-0.7867529999999999,0.0032770000000000004,0.000421,-0.002823,-0.008638,-0.000551,-0.005575
437,0.592266,-0.322819,-1.211466,0.529406,0.317241,-0.786821,0.005386,-0.002791,-0.000668,-0.004611,-0.003963,-0.009825
438,0.592113,-0.322778,-1.211525,0.529293,0.317202,-0.786913,0.002171,-0.0059759999999999995,-0.000686,-0.003048,-0.0024129999999999998,-0.013045
439,0.592001,-0.322803,-1.2115770000000001,0.529201,0.317226,-0.7869649999999999,-0.002072,-0.002757,-0.002857,-0.0037340000000000003,-0.003368,-0.011068999999999999
440,0.591928,-0.32290599999999997,-1.211622,0.529125,0.317323,-0.786977,-0.003125,-0.001679,-0.005002,-0.006573000000000001,-0.0026260000000000003,-0.011775
441,0.591816,-0.322997,-1.211717,0.529021,0.31740999999999997,-0.7870119999999999,-0.0009960000000000001,-0.0038130000000000004,-0.006052,-0.007306999999999999,-0.0012929999999999999,-0.00823
442,0.591583,-0.32301599999999997,-1.21184,0.528834,0.31742800000000004,-0.78713,0.0032380000000000004,-0.010223999999999999,-0.004946,-0.009059000000000001,-0.000259,-0.011103
443,0.591314,-0.323009,-1.211932,0.528624,0.317422,-0.787274,0.0011,-0.009159,-0.002826,-0.005263,-0.001168,-0.010272
444,0.5912029999999999,-0.32304299999999997,-1.2119659999999999,0.52853,0.317454,-0.787324,-0.002071,-0.0006799999999999999,-0.002807,-0.005031,0.001119,-0.011718000000000001
445,0.5912569999999999,-0.32311799999999996,-1.2119659999999999,0.528559,0.317525,-0.787276,-0.004176,0.005719,-0.00283,-0.004404,-0.000173,-0.011522
446,0.591256,-0.323193,-1.2120309999999999,0.5285449999999999,0.31759499999999996,-0.787257,-0.000985,0.0014550000000000001,-0.004939,-0.003551,0.00026000000000000003,-0.010763
447,0.5912109999999999,-0.32327,-1.212094,0.528496,0.317669,-0.7872600000000001,-0.001009,-0.00281,-0.003865,-0.0035020000000000003,0.00018700000000000002,-0.010759999999999999
448,0.591124,-0.323344,-1.212185,0.528415,0.317739,-0.7872859999999999,-0.000985,0.000394,-0.006006,-0.008014,-0.000509,-0.007926
449,0.591046,-0.323355,-1.2122870000000001,0.528351,0.31775,-0.787325,0.003268,-0.0006940000000000001,-0.0038380000000000003,-0.005432,-0.00293,-0.010878
450,0.590975,-0.323319,-1.21238,0.528302,0.317716,-0.7873720000000001,0.004321,-0.001772,-0.001693,-0.005246,-0.0037359999999999997,-0.011274
451,0.590958,-0.323285,-1.212428,0.5282939999999999,0.317683,-0.7873899999999999,0.0011300000000000001,0.001431,-0.000651,-0.006291,-0.0036729999999999996,-0.01182
452,0.590968,-0.323275,-1.212425,0.528304,0.31767399999999996,-0.787387,-0.000998,0.0013779999999999999,0.001516,-0.00566,-0.0029760000000000003,-0.008313
453,0.5909770000000001,-0.32326900000000003,-1.212372,0.528312,0.31766700000000003,-0.787384,-0.002079,-0.000753,0.002579,-0.006202,-0.001399,-0.009308
454,0.590992,-0.323284,-1.2122870000000001,0.528321,0.317682,-0.7873720000000001,-0.004208,0.00032,0.0025629999999999997,-0.006272,0.000982,-0.010265999999999999
455,0.5910380000000001,-0.323316,-1.212206,0.528352,0.317712,-0.787339,-0.005265,0.002454,0.002553,-0.008241,0.001105,-0.010298999999999999
456,0.591071,-0.323328,-1.212153,0.528375,0.31772399999999995,-0.787319,-0.002065,0.001382,0.001508,-0.006509999999999999,0.000849,-0.013188
457,0.5910920000000001,-0.323329,-1.212137,0.528392,0.317725,-0.787307,-0.0009789999999999998,0.003517,-0.0006230000000000001,-0.005413,-0.000342,-0.013656999999999999
458,0.591184,-0.32331,-1.212142,0.528468,0.317707,-0.787263,0.00116,0.0056359999999999995,0.00045700000000000005,-0.00561,-0.00095,-0.009108
459,0.591238,-0.323234,-1.2122110000000001,0.528524,0.317634,-0.787255,0.005427,0.00456,-0.00058,-0.006917,-0.001533,-0.010779
460,0.59129,-0.323169,-1.212304,0.528576,0.317573,-0.787245,0.00335,0.008790000000000001,-0.0016059999999999998,-0.006451,0.0013050000000000002,-0.009463
461,0.591442,-0.323162,-1.2123,0.528697,0.31756599999999996,-0.787166,-0.001994,0.009861,0.00156,-0.005031,-0.001984,-0.012211
462,0.591569,-0.323232,-1.212233,0.5287850000000001,0.317633,-0.78708,-0.007338,0.0066879999999999995,0.000459,-0.004111999999999999,-0.001181,-0.012022
463,0.591667,-0.323312,-1.212176,0.528848,0.317708,-0.787008,-0.004142,0.005612,0.000482,-0.007593000000000001,-0.000509,-0.009639
464,0.59177,-0.323374,-1.212102,0.528918,0.317767,-0.786937,-0.005222999999999999,0.003481,0.001546,-0.009478,-0.002719,-0.009770000000000001
465,0.591897,-0.323392,-1.212017,0.529015,0.317785,-0.7868649999999999,-0.0009460000000000001,0.006658,0.00264,-0.006142,-0.0032090000000000005,-0.009629
466,0.5920310000000001,-0.323345,-1.211961,0.5291279999999999,0.31774,-0.7868069999999999,-0.000956,0.0066489999999999995,0.004776,-0.004989,-0.002097,-0.008955
467,0.592194,-0.323343,-1.211849,0.529257,0.317738,-0.786721,-0.004151,0.007725,0.004753,-0.00614,-0.000462,-0.012031
468,0.5923689999999999,-0.323382,-1.211697,0.529388,0.317775,-0.786618,-0.00836,0.008767,0.0047799999999999995,-0.0050810000000000004,0.0009050000000000001,-0.009769
469,0.5925060000000001,-0.323424,-1.211541,0.529488,0.317815,-0.7865340000000001,-0.005179,0.004495,0.004807,-0.00837,-0.000264,-0.009105
470,0.5925739999999999,-0.323421,-1.211442,0.529542,0.317812,-0.786499,-0.001983,0.002357,0.003764,-0.008027,-0.0005200000000000001,-0.012938999999999999
471,0.592634,-0.323387,-1.211394,0.5295949999999999,0.31778,-0.7864760000000001,0.000165,0.004484,0.002708,-0.0064329999999999995,-0.0022890000000000002,-0.012642
472,0.592759,-0.323361,-1.211396,0.529698,0.317755,-0.786417,-0.0008730000000000001,0.008758,0.000559,-0.005635,-0.002203,-0.009023999999999999
473,0.592856,-0.323357,-1.211432,0.529775,0.317751,-0.786367,0.002323,0.005559000000000001,-0.001551,-0.004201,-0.002428,-0.009318
474,0.5929180000000001,-0.323327,-1.211463,0.529829,0.317723,-0.786341,0.002318,0.005555,-0.00048300000000000003,-0.003493,-0.002934,-0.009328
475,0.592979,-0.32332,-1.211503,0.529878,0.317716,-0.786311,-0.000837,0.004520000000000001,-0.002575,-0.001924,-0.0016300000000000002,-0.008748
476,0.593003,-0.323317,-1.211558,0.5298970000000001,0.317713,-0.786299,0.00021099999999999998,0.00025499999999999996,-0.002562,-0.003851,-0.001994,-0.007875
477,0.59296,-0.323331,-1.211593,0.5298609999999999,0.317727,-0.7863180000000001,-0.0008560000000000001,0.00132,-0.0015019999999999999,-0.005554,9.9e-05,-0.009565
478,0.593018,-0.32337,-1.211603,0.5299,0.317764,-0.786277,-0.0029760000000000003,0.004523,-0.001521,-0.00718,1e-06,-0.009866
479,0.593073,-0.32337899999999997,-1.2115850000000001,0.529942,0.317772,-0.786246,-0.000866,0.0013109999999999999,0.000634,-0.009769,-0.002937,-0.012643000000000001
480,0.593073,-0.323382,-1.211567,0.529941,0.317775,-0.786245,-0.0008710000000000001,0.000246,0.0006349999999999999,-0.0067480000000000005,-0.001537,-0.013575
481,0.593065,-0.323395,-1.211563,0.529933,0.317788,-0.786245,-0.001918,0.002388,-0.001511,-0.0057020000000000005,0.000663,-0.010324
482,0.593129,-0.323412,-1.211574,0.52998,0.317803,-0.786207,0.00022,0.004507,-0.00043099999999999996,-0.007213,-0.0001,-0.010332
483,0.593114,-0.323377,-1.211592,0.529975,0.31777,-0.7862239999999999,0.001299,0.000258,0.000725,-0.007361,-0.002264,-0.013413
484,0.5930979999999999,-0.323351,-1.2116069999999999,0.5299659999999999,0.31774600000000003,-0.7862399999999999,0.000251,0.003461,-0.000354,-0.0048649999999999995,-0.003278,-0.012115
485,0.593186,-0.323398,-1.211595,0.530027,0.317791,-0.78618,-0.0018679999999999999,0.006665000000000001,-0.000373,-0.005323,-0.004116,-0.006804000000000001
486,0.593255,-0.323427,-1.211608,0.530076,0.317818,-0.786137,-0.000816,0.0034649999999999998,-0.000362,-0.006333,-0.0045850000000000005,-0.010218999999999999
487,0.593275,-0.323416,-1.211627,0.530094,0.317807,-0.786129,0.000241,0.0013310000000000002,-0.000352,-0.005771,-0.002194,-0.009724
488,0.593294,-0.323411,-1.211626,0.5301100000000001,0.317802,-0.7861199999999999,-0.000826,0.002396,0.000708,-0.005131,-0.00164,-0.009641
489,0.593346,-0.323396,-1.2116040000000001,0.530153,0.317788,-0.786097,-0.0008300000000000001,0.002391,0.0017760000000000002,-0.003832,-0.0006190000000000001,-0.011082999999999999
490,0.593382,-0.323391,-1.211554,0.5301819999999999,0.317784,-0.786079,-0.001902,0.00133,0.0017699999999999999,-0.005478,-0.001469,-0.008416
491,0.593441,-0.323421,-1.211487,0.530223,0.317812,-0.78604,-0.005059,0.00346,0.000715,-0.006664,-0.001376,-0.01169
492,0.593518,-0.323494,-1.211418,0.5302720000000001,0.31788099999999997,-0.785979,-0.005059,0.0023989999999999997,-0.00035099999999999997,-0.006605,0.000128,-0.010758
493,0.593554,-0.323542,-1.2114129999999999,0.530291,0.31792600000000004,-0.785948,-0.00292,0.002396,-0.001405,-0.006945000000000001,-0.0013830000000000001,-0.010881
494,0.593549,-0.32355900000000004,-1.211484,0.530284,0.317942,-0.785946,0.001366,0.0034590000000000003,-0.004581,-0.005686999999999999,-0.000728,-0.011738
495,0.593591,-0.32360700000000003,-1.21154,0.530308,0.317988,-0.7859109999999999,-0.0018440000000000002,0.003462,-0.002467,-0.004261,-0.003123,-0.011361
496,0.593669,-0.323651,-1.2115719999999999,0.530362,0.318031,-0.785858,-0.001834,0.005593,-0.0024690000000000003,-0.005947999999999999,-0.003074,-0.010956
497,0.593739,-0.32371700000000003,-1.211594,0.530405,0.318092,-0.785803,-0.001834,0.005593,-0.0024690000000000003,-0.004190999999999999,-0.0016710000000000002,-0.012001999999999999
498,0.5938220000000001,-0.323788,-1.211646,0.530457,0.31816,-0.785741,-0.001829,0.0055969999999999995,-0.0035380000000000003,-0.008057,0.0007480000000000001,-0.009151000000000001
499,0.593838,-0.323828,-1.211709,0.530463,0.318197,-0.785722,-0.000791,0.000263,-0.002455,-0.006736,-0.0008759999999999999,-0.008971
500,0.593783,-0.323878,-1.2117719999999998,0.530411,0.318245,-0.785738,-0.001808,0.000196,-0.003525,-0.0039369999999999995,0.00031299999999999996,-0.013380000000000001
501,0.593788,-0.323961,-1.2118360000000001,0.5304,0.318324,-0.785713,-0.002861,0.0023350000000000003,-0.004603,-0.003407,-0.000377,-0.012871
502,0.593849,-0.324067,-1.211864,0.530429,0.318425,-0.7856529999999999,-0.006056000000000001,0.004472,-0.0035600000000000002,-0.004504,-0.00124,-0.013816
503,0.593909,-0.32413600000000004,-1.2118959999999999,0.530464,0.31849,-0.7856029999999999,-0.000722,0.005515,-0.002456,-0.008140999999999999,-0.002221,-0.010998
504,0.593968,-0.32415,-1.211886,0.530508,0.31850300000000004,-0.785568,-0.001827,0.00017900000000000001,0.0007480000000000001,-0.006445,-0.0035009999999999998,-0.010879999999999999
505,0.593975,-0.32415,-1.2118280000000001,0.530513,0.31850300000000004,-0.785564,-0.001832,0.001236,0.0028829999999999997,-0.006938,-0.002677,-0.01128
506,0.59404,-0.324175,-1.2117719999999998,0.53056,0.31852600000000003,-0.785523,-0.0028699999999999997,0.004448,-0.000333,-0.005521,-0.0026850000000000003,-0.008758
507,0.594097,-0.324212,-1.211731,0.5305979999999999,0.318562,-0.785483,-0.001818,0.00231,0.000745,-0.007405,-0.002538,-0.009851
508,0.594109,-0.32417199999999996,-1.2117069999999999,0.530615,0.318524,-0.7854869999999999,0.000349,6.1e-05,0.001813,-0.005758,-0.001248,-0.011770000000000001
509,0.594132,-0.324125,-1.211653,0.530641,0.318479,-0.7854869999999999,-0.000718,0.002187,0.003939,-0.0023510000000000002,-0.00131,-0.015507
510,0.594209,-0.32413200000000003,-1.211568,0.530701,0.318486,-0.7854439999999999,-0.002852,0.0011330000000000001,0.002857,-0.004425,-0.001836,-0.01346
511,0.5942069999999999,-0.324162,-1.211531,0.5306930000000001,0.31851399999999996,-0.785438,-0.0017699999999999999,0.001142,-0.00033999999999999997,-0.004586,0.000105,-0.007439
512,0.594188,-0.324167,-1.211523,0.5306770000000001,0.318519,-0.785447,0.000354,-0.000995,-0.000322,-0.006569,-0.001045,-0.008178
513,0.594102,-0.324117,-1.211561,0.530619,0.318472,-0.785505,0.0035399999999999997,-0.003141,0.000771,-0.006784,-0.001562,-0.007051000000000001
514,0.593986,-0.32403899999999997,-1.21163,0.530542,0.318398,-0.785587,0.004612,-0.004202,-0.0013570000000000001,-0.003503,-0.000436,-0.01144
515,0.593908,-0.323986,-1.211669,0.53049,0.318348,-0.785643,0.002483,-0.002068,-0.000306,-0.002307,-0.003407,-0.011614
516,0.593857,-0.323942,-1.2116770000000001,0.530458,0.318306,-0.7856810000000001,0.002523,-0.0011099999999999999,0.000753,-0.002961,-0.004814,-0.011438
517,0.593766,-0.323893,-1.211703,0.530395,0.318259,-0.7857430000000001,0.002514,-0.0032409999999999995,0.0007559999999999999,-0.003875,-0.00286,-0.009881000000000001
518,0.5936680000000001,-0.323849,-1.211729,0.530325,0.318218,-0.785806,0.002514,-0.004302,-0.00031099999999999997,-0.005118,-0.00262,-0.009695
519,0.593538,-0.323814,-1.211781,0.53023,0.318184,-0.785884,0.0014470000000000002,-0.005359,-0.001385,-0.004946,-0.001504,-0.010457
520,0.5934010000000001,-0.323805,-1.211833,0.5301239999999999,0.318176,-0.785959,0.000399,-0.0032159999999999997,-0.003532,-0.006687,-0.003768,-0.010641
521,0.59331,-0.323811,-1.211882,0.530051,0.318182,-0.7860060000000001,0.000394,-0.002159,-0.001397,-0.006919,-0.002478,-0.009679
522,0.593226,-0.323764,-1.211916,0.529994,0.318137,-0.786063,0.001452,-0.002172,0.0007469999999999999,-0.008616,-0.0021579999999999998,-0.010324
523,0.59312,-0.323725,-1.2119520000000001,0.529917,0.3181,-0.78613,0.0014869999999999998,-0.004396,-0.000327,-0.007151,-0.001434,-0.010944
524,0.593028,-0.323714,-1.211967,0.5298470000000001,0.31809,-0.786181,0.000434,-0.002257,-0.001405,-0.005814,0.000392,-0.012433
525,0.5929369999999999,-0.323754,-1.2119959999999999,0.529768,0.318128,-0.786219,-0.0027660000000000002,-0.003307,-0.002494,-0.005934,-0.001051,-0.010824
526,0.592858,-0.323773,-1.212034,0.5297029999999999,0.318146,-0.7862560000000001,-0.000628,-0.0022489999999999997,-0.0024809999999999997,-0.005762,-0.000641,-0.008437
527,0.592777,-0.323783,-1.212057,0.529637,0.318156,-0.786296,-0.000637,-0.003319,-0.001411,-0.0033770000000000002,-0.002207,-0.010228000000000001
528,0.592692,-0.323767,-1.2120790000000001,0.529573,0.31814000000000003,-0.786345,0.0014960000000000002,-0.0022649999999999997,-0.00033,-0.0034200000000000003,-0.004374,-0.009781999999999999
529,0.592603,-0.32374400000000003,-1.2121520000000001,0.529507,0.31811799999999996,-0.786399,0.001511,-0.00013000000000000002,-0.0014,-0.0040100000000000005,-0.001392,-0.006601
530,0.592538,-0.32371700000000003,-1.2122030000000001,0.529461,0.31809299999999996,-0.7864399999999999,0.0025629999999999997,-0.002269,-0.000322,-0.003918,-0.002602,-0.00894
531,0.592439,-0.323701,-1.212235,0.5293859999999999,0.318077,-0.786497,-0.00059,-0.004482,-0.002457,-0.002301,-0.001519,-0.011614
532,0.592329,-0.32371300000000003,-1.212245,0.5292979999999999,0.318089,-0.786552,-0.001657,-0.0034170000000000003,-0.001398,-0.004563,0.001766,-0.008874
533,0.592254,-0.323716,-1.212244,0.529237,0.318092,-0.786591,-0.0006,-0.00343,0.000746,-0.008424,-3.8e-05,-0.008789
534,0.5921489999999999,-0.323725,-1.212233,0.529154,0.3181,-0.786644,-0.000614,-0.006625,0.00075,-0.009958,-0.000504,-0.012124
535,0.5920310000000001,-0.323716,-1.212273,0.529062,0.318092,-0.786709,0.00047699999999999994,-0.003425,-0.0013830000000000001,-0.006662,-0.000541,-0.01096
536,0.591957,-0.323748,-1.21233,0.528999,0.31812199999999996,-0.7867390000000001,-0.000571,-0.001282,-0.003529,-0.006171,-0.003104,-0.012959
537,0.591884,-0.323807,-1.2124030000000001,0.52893,0.318178,-0.786763,-0.000571,-0.002343,-0.004596,-0.007431,-0.00255,-0.010906
538,0.591762,-0.323854,-1.212509,0.528826,0.318223,-0.786814,-0.000576,-0.003408,-0.004595,-0.005693999999999999,-0.00232,-0.011678000000000001
539,0.591619,-0.323865,-1.21255,0.528712,0.318233,-0.786887,-0.000543,-0.0056560000000000004,-0.001361,-0.008814,-0.001583,-0.009256
540,0.591477,-0.323846,-1.212523,0.5286029999999999,0.318215,-0.786967,-0.000572,-0.008864,0.001848,-0.005761,-0.0020989999999999997,-0.014225999999999999
541,0.591357,-0.32384,-1.212515,0.52851,0.318209,-0.787032,-0.0016,-0.004582999999999999,-0.002438,-0.002845,-0.0026420000000000003,-0.014497
542,0.5912609999999999,-0.323969,-1.2125620000000001,0.528412,0.318332,-0.787049,-0.005825,-0.000285,-0.007814,-0.005157,-0.000949,-0.006866
543,0.5912310000000001,-0.32417399999999996,-1.212632,0.528352,0.31852600000000003,-0.787011,-0.007939,0.0029219999999999997,-0.008901000000000001,-0.008439,-0.0027140000000000003,-0.004646
544,0.5911810000000001,-0.324309,-1.2127350000000001,0.528289,0.318654,-0.7870010000000001,0.000567,-0.001377,-0.006698999999999999,-0.006423000000000001,-0.003819,-0.0076159999999999995
545,0.591052,-0.324295,-1.212849,0.5281899999999999,0.318641,-0.7870729999999999,0.0037479999999999996,-0.002466,-0.003471,-0.005576,0.000405,-0.011099
546,0.591015,-0.324278,-1.21284,0.5281640000000001,0.31862399999999996,-0.787097,-0.00161,-0.0024690000000000003,0.0018329999999999998,-0.005611,-0.0021260000000000003,-0.008786
547,0.591069,-0.324254,-1.2127290000000002,0.5282100000000001,0.318602,-0.787075,-0.003739,0.0017870000000000002,0.005017,-0.004497,-0.0009289999999999999,-0.011219
548,0.591095,-0.32424200000000003,-1.212584,0.5282319999999999,0.31859,-0.787065,-0.005850999999999999,-0.00041600000000000003,0.007144,-0.009205,0.00131,-0.009398
549,0.591093,-0.324227,-1.21244,0.528234,0.318576,-0.7870689999999999,-0.002646,-0.001484,0.005031,-0.0068709999999999995,0.0019199999999999998,-0.00828
550,0.591058,-0.324193,-1.212344,0.528212,0.318544,-0.787097,0.001626,-0.001495,0.003993,-0.008818000000000001,0.000167,-0.010465
551,0.591069,-0.32413000000000003,-1.212394,0.5282319999999999,0.318484,-0.787108,0.003827,0.005984000000000001,-0.003479,-0.0045049999999999995,-0.004825,-0.013201
552,0.591151,-0.32409899999999997,-1.212564,0.528302,0.31845500000000004,-0.7870729999999999,0.005994,0.00919,-0.007741,-0.003445,-0.004841,-0.008734
553,0.591264,-0.324115,-1.212755,0.528388,0.31847,-0.7870090000000001,0.0027890000000000002,0.009197,-0.006695,-0.00698,-0.0034219999999999997,-0.0056240000000000005
554,0.591322,-0.324113,-1.212866,0.528434,0.318468,-0.786978,0.003803,0.001719,-0.0024059999999999997,-0.007682,-0.004671,-0.0063560000000000005
555,0.591274,-0.324036,-1.212906,0.52841,0.318395,-0.787024,0.002707,-0.003624,0.0008039999999999999,-0.005628,-0.002858,-0.012155
556,0.591201,-0.323974,-1.212895,0.5283640000000001,0.318336,-0.787079,-0.000488,-0.0014869999999999998,0.001847,-0.006071,-0.001091,-0.016342
557,0.591237,-0.32400500000000004,-1.212785,0.528386,0.318366,-0.7870520000000001,-0.005818,0.001719,0.003942,-0.009496,-0.001273,-0.017131999999999998
558,0.591341,-0.324062,-1.212682,0.528458,0.31842,-0.786982,-0.005789,0.005988,0.0018,-0.010787999999999999,0.001465,-0.012045
559,0.59149,-0.324106,-1.21261,0.528568,0.318461,-0.786891,-0.002584,0.005982,0.000754,-0.011890000000000001,0.002416,-0.010533
560,0.591549,-0.32409899999999997,-1.212609,0.528615,0.31845500000000004,-0.786862,0.0016690000000000001,0.002771,0.000788,-0.009862000000000001,0.0035210000000000003,-0.009112
561,0.59148,-0.323986,-1.2126709999999998,0.5285810000000001,0.318348,-0.786928,0.006984999999999999,-0.001509,0.000831,-0.006379999999999999,0.002621,-0.01132
562,0.591406,-0.323846,-1.21271,0.5285479999999999,0.318215,-0.7870050000000001,0.004832,-0.002579,0.0040219999999999995,-0.003706,0.0005110000000000001,-0.007795000000000001
563,0.5912810000000001,-0.323726,-1.2126700000000001,0.528471,0.318101,-0.7871020000000001,0.002659,-0.008943000000000001,0.0061649999999999995,-0.0032479999999999996,0.002089,-0.007987000000000001
564,0.591037,-0.323554,-1.212604,0.528309,0.317938,-0.787277,0.0068980000000000005,-0.013227000000000001,0.008337,0.001507,-0.001532,-0.006455
565,0.590842,-0.323319,-1.2125920000000001,0.528197,0.317715,-0.787442,0.008003,-0.006831,0.0062,0.0029920000000000003,-0.007183,-0.0076939999999999995
566,0.5907640000000001,-0.32323,-1.212623,0.528151,0.317631,-0.787506,0.0016589999999999999,-0.0014529999999999999,-0.0013289999999999999,0.001161,-0.010731000000000001,-0.013412
567,0.590758,-0.323255,-1.212703,0.528142,0.317655,-0.787503,-0.001493,0.004967,-0.005632,-0.000233,-0.010006999999999999,-0.014407
568,0.590903,-0.323409,-1.212764,0.528229,0.317801,-0.7873859999999999,-0.007866,0.009259,-0.007818,-0.004898,-0.0060479999999999996,-0.009290999999999999
569,0.591052,-0.323613,-1.212749,0.5283100000000001,0.317994,-0.787253,-0.010038,0.004989,-0.0035549999999999996,-0.006155,0.001098,-0.012765
570,0.5910850000000001,-0.323684,-1.212739,0.528323,0.318062,-0.7872170000000001,-0.00047000000000000004,0.000681,-0.000278,-0.0059229999999999994,0.004036,-0.008468
571,0.591036,-0.323631,-1.212804,0.528295,0.318011,-0.787257,0.002734,-0.001393,-0.00236,-0.0038200000000000005,0.001142,-0.008519
572,0.590933,-0.323628,-1.212858,0.5282140000000001,0.318008,-0.787313,-0.000481,-0.004577,-0.002379,-0.009231999999999999,-0.0030210000000000002,-0.013972
573,0.590859,-0.32372,-1.2128290000000002,0.528139,0.31809499999999996,-0.787327,-0.006876999999999999,-0.0024289999999999997,-0.001358,-0.014223,-0.001827,-0.015377000000000002
574,0.590856,-0.323837,-1.212755,0.528116,0.318206,-0.7872979999999999,-0.005806,0.000755,0.000782,-0.015175999999999999,-0.001861,-0.013575
575,0.590812,-0.323863,-1.212713,0.528077,0.318231,-0.7873140000000001,-0.000491,-0.003525,0.000825,-0.008454000000000001,-0.000207,-0.015924
576,0.5907279999999999,-0.323818,-1.212718,0.5280189999999999,0.318189,-0.78737,0.000586,-0.001398,0.0008289999999999999,-0.007984,-0.0005009999999999999,-0.014907
577,0.590781,-0.323814,-1.2126299999999999,0.528061,0.318185,-0.787343,-0.004749000000000001,0.003926,0.0061259999999999995,-0.009537,-0.001519,-0.006663
578,0.5908770000000001,-0.323808,-1.2124549999999998,0.528138,0.318179,-0.787295,-0.004758,0.003917,0.008263,-0.001328,-0.00047599999999999997,-0.009901
579,0.590936,-0.32382,-1.212326,0.5281819999999999,0.318191,-0.7872600000000001,-0.004725,0.0008089999999999999,0.0029690000000000003,0.001557,0.001466,-0.010073
580,0.5909810000000001,-0.323859,-1.21223,0.528211,0.318227,-0.787226,-0.005782,0.001882,0.0018920000000000002,0.002139,0.00091,-0.009863
581,0.591014,-0.323917,-1.212112,0.528226,0.318283,-0.787193,-0.0068579999999999995,0.001877,0.004021,-0.0036590000000000004,-0.003326,-0.00869
582,0.591006,-0.323902,-1.2119799999999998,0.528223,0.318268,-0.787201,-0.001567,-0.005607,0.006204,-0.0037020000000000004,-0.004929,-0.009184999999999999
583,0.590871,-0.323787,-1.211848,0.528137,0.318159,-0.787303,0.001605,-0.009888,0.008368,-0.001999,-0.004118,-0.012487
584,0.5907979999999999,-0.32368800000000003,-1.211706,0.528097,0.318065,-0.7873680000000001,-0.001553,-0.00135,0.007267,0.000269,-0.004146,-0.008577
585,0.590888,-0.323662,-1.211595,0.528172,0.31804099999999996,-0.787327,-0.003639,0.005065999999999999,0.002971,-0.005193,-0.0026420000000000003,-0.008465
586,0.5909979999999999,-0.323698,-1.2115129999999998,0.528253,0.318075,-0.787259,-0.002576,0.001875,0.0008460000000000001,-0.009134,-0.003744,-0.007906999999999999
587,0.5909479999999999,-0.323719,-1.2114340000000001,0.5282100000000001,0.318094,-0.78728,-0.0036659999999999996,-0.00343,0.001939,-0.005978,-0.00020800000000000001,-0.016766
588,0.590935,-0.323793,-1.211363,0.528187,0.31816500000000003,-0.787267,-0.005776,0.000843,0.000851,-0.005649,0.001034,-0.015604
589,0.5909810000000001,-0.323865,-1.2113209999999999,0.5282100000000001,0.318233,-0.7872239999999999,-0.003632,0.0008439999999999999,-0.001271,-0.007809,0.002888,-0.013786000000000001
590,0.5909800000000001,-0.323853,-1.211334,0.528211,0.318221,-0.7872279999999999,0.00064,0.002956,-0.000175,-0.009122,0.0019079999999999998,-0.008014
591,0.5909909999999999,-0.323793,-1.211379,0.52823,0.31816500000000003,-0.787238,0.00596,-0.000259,-0.000134,-0.0076159999999999995,0.00143,-0.006204
592,0.590858,-0.323658,-1.211493,0.52815,0.318036,-0.7873439999999999,0.009146,-0.004527000000000001,-0.001174,-0.007031999999999999,-0.003064,-0.007334
593,0.5906939999999999,-0.32360500000000003,-1.2116069999999999,0.52803,0.31798699999999996,-0.7874439999999999,0.001697,-0.002362,-0.0033659999999999996,0.00026000000000000003,-0.003915,-0.011887
594,0.590657,-0.323669,-1.211645,0.527989,0.31804699999999997,-0.787447,-0.0036270000000000004,-0.000212,-0.003406,-0.001943,-0.002846,-0.009809
595,0.590644,-0.32373,-1.211668,0.5279689999999999,0.318105,-0.787438,-0.0015,0.0008529999999999999,-0.00233,-0.002807,-0.003148,-0.007026
596,0.590625,-0.323736,-1.2117200000000001,0.527953,0.31811100000000003,-0.787446,0.000629,-0.00021899999999999998,-0.002313,-0.004912,-0.003032,-0.009322
597,0.590555,-0.323718,-1.211761,0.5279010000000001,0.31809299999999996,-0.787488,0.001667,-0.003432,0.0009029999999999999,-0.005195,-0.002877,-0.009509
598,0.590448,-0.32371500000000003,-1.211742,0.527817,0.318091,-0.7875449999999999,-0.000472,-0.00449,0.000889,-0.006958,-0.00086,-0.011054000000000001
599,0.590407,-0.323741,-1.211671,0.52778,0.31811500000000004,-0.78756,-0.002606,-0.003421,0.001941,-0.008401,-0.00264,-0.012794
600,0.590353,-0.32377399999999995,-1.2116049999999998,0.5277310000000001,0.31814699999999996,-0.7875800000000001,-0.002606,-0.004482,0.000874,-0.007818,-0.002503,-0.011720999999999999
601,0.5902729999999999,-0.323761,-1.2116040000000001,0.527671,0.31813400000000003,-0.787625,0.000605,-0.0034240000000000004,-0.000173,-0.006919,-0.001056,-0.012286
602,0.590245,-0.323757,-1.211651,0.5276489999999999,0.318131,-0.787641,0.0017,-0.00021899999999999998,-0.0033740000000000003,-0.008087,2.9999999999999997e-05,-0.012819
603,0.5902149999999999,-0.323741,-1.21177,0.527628,0.318116,-0.787661,0.002768,0.001924,-0.0033729999999999997,-0.006281,0.00027400000000000005,-0.010145
604,0.590144,-0.323743,-1.211863,0.527572,0.31811799999999996,-0.787698,0.000625,-0.000199,-0.003385,-0.005752,-0.00162,-0.010581
605,0.5900890000000001,-0.323723,-1.211904,0.527533,0.318098,-0.787732,0.0016769999999999999,-0.00021600000000000002,-0.000173,-0.003225,-0.004393,-0.008822
606,0.5900380000000001,-0.32369000000000003,-1.211933,0.5274979999999999,0.318067,-0.787768,0.0038009999999999997,-0.0023539999999999998,-0.000155,-0.003618,-0.004606,-0.009046
607,0.589983,-0.323666,-1.211992,0.527459,0.31804499999999997,-0.7878029999999999,0.000615,-0.001269,-0.002316,-0.0015949999999999998,-0.004446,-0.009804
608,0.589956,-0.323681,-1.2119870000000001,0.527435,0.318058,-0.787814,-0.00259,0.00086,0.0008640000000000001,-0.0028989999999999997,-0.002903,-0.008817
609,0.5899449999999999,-0.323692,-1.211935,0.527424,0.318069,-0.787817,-0.0026100000000000003,-0.00234,0.001936,-0.005253,0.001282,-0.01005
610,0.589933,-0.323702,-1.211835,0.527413,0.318078,-0.787821,-0.004738,-0.000206,0.002987,-0.007363,0.00018999999999999998,-0.011343
611,0.5899310000000001,-0.323708,-1.211774,0.527411,0.31808400000000003,-0.78782,-0.0015279999999999998,-0.00020899999999999998,0.0008730000000000001,-0.0065060000000000005,-0.002715,-0.013144999999999999
612,0.589895,-0.323719,-1.211771,0.527381,0.31809499999999996,-0.787836,-0.00043,-0.0023239999999999997,-0.001269,-0.006278,-0.0021920000000000004,-0.011053
613,0.589867,-0.323714,-1.211817,0.52736,0.318089,-0.787852,0.00279,0.000865,-0.0023190000000000003,-0.007783,-0.002904,-0.010061
614,0.589867,-0.323708,-1.211897,0.52736,0.31808400000000003,-0.7878539999999999,0.0038619999999999995,0.0019260000000000002,-0.0023120000000000003,-0.00609,-0.001968,-0.00951
615,0.5898399999999999,-0.32369699999999996,-1.211958,0.527341,0.318073,-0.787871,0.0006519999999999999,0.000868,-0.001265,-0.006925,-0.000813,-0.011247
616,0.589888,-0.32369699999999996,-1.211935,0.527379,0.31807399999999997,-0.787845,-0.0014869999999999998,0.004054,0.002989,-0.008595,0.001537,-0.008709
617,0.5899270000000001,-0.323677,-1.211847,0.527413,0.318054,-0.7878310000000001,-0.001516,-0.000215,0.00513,-0.000984,-0.000839,-0.012325
618,0.58991,-0.323676,-1.211778,0.5274,0.318054,-0.7878390000000001,-0.0036299999999999995,-0.00019099999999999998,0.000843,-0.001979,-0.001632,-0.011981
619,0.589935,-0.323759,-1.211762,0.527405,0.318133,-0.787804,-0.004612,0.004076,-0.002432,-0.007416,-0.000719,-0.0060799999999999995
620,0.590008,-0.323875,-1.211732,0.5274409999999999,0.318243,-0.7877350000000001,-0.005684000000000001,0.004076,-0.001371,-0.008597,-0.003088,-0.007858
621,0.5900449999999999,-0.323924,-1.211724,0.527462,0.318289,-0.787702,-0.001436,0.0008609999999999999,-0.000269,-0.006451,-0.003729,-0.011934
622,0.590018,-0.323964,-1.211766,0.5274340000000001,0.31832699999999997,-0.787706,-0.0035549999999999996,-0.00018,-0.004555,0.0005200000000000001,-0.003752,-0.010268000000000001
623,0.589996,-0.324117,-1.211783,0.527389,0.318472,-0.7876770000000001,-0.006751000000000001,-0.000165,-0.005646,-0.0013880000000000001,-0.0017760000000000002,-0.011073999999999999
624,0.589886,-0.324321,-1.211804,0.527267,0.31866500000000003,-0.7876810000000001,-0.008904,-0.0054789999999999995,-0.006722,-0.005157,0.001052,-0.009804
625,0.5897140000000001,-0.324484,-1.2119030000000002,0.5271020000000001,0.31882,-0.787729,-0.002493,-0.004432,-0.0077469999999999995,-0.007921,-0.0012699999999999999,-0.006903
626,0.589669,-0.324531,-1.212032,0.527058,0.318864,-0.78774,0.00286,0.002993,-0.004514,-0.010136,-0.0018780000000000001,-0.011744
627,0.589731,-0.324504,-1.212075,0.527112,0.318839,-0.7877149999999999,0.0017739999999999998,0.0040409999999999995,0.0008179999999999999,-0.007474,0.000558,-0.016041999999999997
628,0.5898359999999999,-0.324443,-1.212015,0.5272060000000001,0.318781,-0.787675,-0.0014199999999999998,0.004043,0.006103,-0.004775,-0.002268,-0.015562999999999999
629,0.589917,-0.32443099999999997,-1.211875,0.527271,0.31877,-0.787636,-0.004626,0.001928,0.0050149999999999995,-0.009876000000000001,-0.003432,-0.008217
630,0.5899909999999999,-0.324473,-1.2116930000000001,0.5273220000000001,0.318809,-0.787586,-0.006779,-0.000204,0.007139,-0.007867,-0.003471,-0.006679999999999999
631,0.5899989999999999,-0.32452,-1.211487,0.527321,0.31885399999999997,-0.787569,-0.008922,-0.002327,0.007127,-0.00695,-0.004339,-0.009413
632,0.5899989999999999,-0.324533,-1.211365,0.5273180000000001,0.318866,-0.787566,-0.0046159999999999994,0.001936,0.002878,-0.002065,-0.000995,-0.011903
633,0.590068,-0.324575,-1.211358,0.527365,0.31890599999999997,-0.787518,-0.002439,0.00515,-0.00352,-0.0020050000000000003,-0.003339,-0.009616
634,0.590187,-0.32463800000000004,-1.211376,0.5274479999999999,0.31896599999999997,-0.787438,-0.002425,0.008346,-0.0035240000000000002,0.00020099999999999998,-0.000454,-0.00875
635,0.590286,-0.32461599999999996,-1.211496,0.527529,0.318945,-0.787392,0.003997,0.0072840000000000005,-0.0034939999999999997,-0.001467,-0.0018059999999999999,-0.005821
636,0.590307,-0.32457600000000003,-1.2116129999999998,0.5275529999999999,0.318907,-0.787392,0.00503,0.000884,-0.0024100000000000002,-0.003322,-0.002699,-0.010093000000000001
637,0.590271,-0.324558,-1.2116930000000001,0.527528,0.31889,-0.787415,-0.000299,0.001968,-0.002449,-0.003907,-0.001553,-0.013061000000000001
638,0.590344,-0.32456799999999997,-1.211692,0.527583,0.318899,-0.787375,-0.0035,0.005163,0.000729,-0.008983,-0.0008449999999999999,-0.014490000000000001
639,0.5904119999999999,-0.32463200000000003,-1.211602,0.527626,0.31895999999999997,-0.787321,-0.0046,-0.000169,0.002865,-0.010689,-0.00176,-0.013429
640,0.590335,-0.324675,-1.211491,0.5275569999999999,0.31900100000000003,-0.787351,-0.004639,-0.00763,0.003943,-0.008376999999999999,-0.000611,-0.014407
641,0.590199,-0.324721,-1.211398,0.527442,0.319044,-0.787411,-0.0046240000000000005,-0.006556,0.001805,-0.009864,-0.00604,-0.013630000000000001
642,0.59016,-0.324787,-1.211328,0.5274,0.31910700000000003,-0.7874140000000001,-0.004586,-0.000156,-0.00033999999999999997,-0.0057929999999999995,-0.0038909999999999995,-0.012773
643,0.5901890000000001,-0.324822,-1.2113209999999999,0.527417,0.31914000000000003,-0.787389,-0.000288,0.003048,-0.000319,-0.0030789999999999997,-0.000521,-0.010126999999999999
644,0.590267,-0.324827,-1.2113200000000002,0.5274770000000001,0.31914499999999996,-0.787346,-0.000283,0.005174,0.0007469999999999999,-0.000698,-0.002418,-0.006553
645,0.5903579999999999,-0.324791,-1.211336,0.527555,0.31911100000000003,-0.787308,0.002927,0.006233,-0.000301,-0.003843,-0.001178,-0.006744
646,0.5904590000000001,-0.324738,-1.211372,0.527644,0.31906100000000004,-0.787269,0.001855,0.005171,-0.000307,-0.0051979999999999995,0.0011300000000000001,-0.007562
647,0.590483,-0.32469899999999996,-1.2113450000000001,0.5276689999999999,0.319023,-0.787267,-0.000321,-0.0012259999999999999,0.002891,-0.007573999999999999,9.9e-05,-0.010051000000000001
648,0.590472,-0.32464499999999996,-1.211303,0.527671,0.318973,-0.7872859999999999,0.001812,-0.001233,0.0029059999999999997,-0.007468000000000001,-0.000354,-0.00965
649,0.5904659999999999,-0.32459099999999996,-1.211286,0.527676,0.318921,-0.787304,0.001827,-0.00015900000000000002,0.000768,-0.005383,-0.0038729999999999997,-0.012272
650,0.590486,-0.32460900000000004,-1.211279,0.527688,0.318938,-0.787289,-0.002436,0.000921,0.000737,-0.006920999999999999,-0.0033710000000000003,-0.012211
651,0.590457,-0.324629,-1.211254,0.527662,0.318957,-0.787299,-0.001366,-0.003343,0.0018170000000000003,-0.005964,-0.0025050000000000003,-0.010782
652,0.590333,-0.324585,-1.211284,0.527572,0.318916,-0.7873760000000001,0.0029059999999999997,-0.004414,-0.000288,-0.007964,-0.0034560000000000003,-0.009438
653,0.59026,-0.324523,-1.2113,0.527525,0.318857,-0.787431,0.0029059999999999997,-0.002292,0.001846,-0.003981,-0.005456,-0.013228
654,0.5902569999999999,-0.32448699999999997,-1.211325,0.527529,0.318823,-0.787442,-0.000256,0.003058,-0.0013880000000000001,-0.0036340000000000005,-0.004324000000000001,-0.012531
655,0.590367,-0.324488,-1.211338,0.527616,0.318824,-0.7873829999999999,-0.00023700000000000001,0.007319,-0.001393,-0.005338,-0.001227,-0.0103
656,0.5904699999999999,-0.324499,-1.211338,0.527695,0.318834,-0.787326,-0.001318,0.006249,0.000737,-0.006072999999999999,0.000304,-0.008908
657,0.590594,-0.324457,-1.211343,0.5278,0.318794,-0.787272,0.002959,0.0073030000000000005,-0.000302,-0.004592000000000001,-0.0013189999999999999,-0.00945
658,0.5906170000000001,-0.324397,-1.211368,0.527828,0.318737,-0.787276,0.00292,-0.001219,-0.000292,-0.0037649999999999997,-0.0007440000000000001,-0.012101
659,0.5905130000000001,-0.324384,-1.2113639999999999,0.527749,0.318725,-0.787334,-0.001366,-0.005465,-0.00031600000000000004,-0.004632,0.0016179999999999999,-0.011235
660,0.590453,-0.324429,-1.211296,0.527694,0.318768,-0.787354,-0.006639,-0.0022600000000000003,0.001811,-0.005309,-0.0024230000000000002,-0.013321000000000001
661,0.5905239999999999,-0.324554,-1.211143,0.5277270000000001,0.318886,-0.787283,-0.009811,0.004143,0.0017800000000000001,-0.0037560000000000002,-0.002007,-0.008142
662,0.590604,-0.324617,-1.2110379999999998,0.52778,0.318946,-0.7872239999999999,-0.004490999999999999,0.0009279999999999999,0.0018219999999999998,-0.00361,-0.003547,-0.008995
663,0.590618,-0.32464,-1.210957,0.527786,0.318967,-0.787211,-0.0034439999999999996,-0.001214,0.003968,-0.005569,-0.004667,-0.007772
664,0.590677,-0.324648,-1.21085,0.527831,0.31897600000000004,-0.7871779999999999,-0.0034200000000000003,0.0030510000000000003,0.002895,-0.006774,-0.002386,-0.010948999999999999
665,0.590739,-0.324673,-1.2107569999999999,0.527875,0.318999,-0.787138,-0.0034240000000000004,0.001986,0.002896,-0.006406,-0.0013570000000000001,-0.011415
666,0.5908220000000001,-0.324678,-1.210754,0.52794,0.319004,-0.787093,-0.00018999999999999998,0.005187,-0.001358,-0.005922,-3.4e-05,-0.010591
667,0.5908760000000001,-0.324653,-1.2108139999999998,0.527987,0.31898000000000004,-0.787071,0.001998,0.003022,-0.001334,-0.005801,0.000478,-0.012001000000000001
668,0.59092,-0.32462199999999997,-1.210861,0.528027,0.31895,-0.7870560000000001,0.002003,0.005148,-0.000268,-0.008343000000000001,-0.0025440000000000003,-0.009819
669,0.590967,-0.324612,-1.210909,0.528066,0.318941,-0.787034,0.000936,0.00303,-0.0024100000000000002,-0.008443,-0.002367,-0.010833
670,0.5909939999999999,-0.324587,-1.210942,0.528091,0.318918,-0.787027,0.0009220000000000001,0.001956,-0.000272,-0.008804000000000001,-0.0020989999999999997,-0.009512999999999999
671,0.590982,-0.324567,-1.210941,0.5280859999999999,0.318898,-0.787038,-0.001241,-0.001245,0.0029219999999999997,-0.007441,-0.002858,-0.009868
672,0.5909300000000001,-0.324513,-1.210866,0.528055,0.318847,-0.78708,-0.00020299999999999997,-0.004457,0.006138,-0.006143,-0.004318,-0.010695999999999999
673,0.5908760000000001,-0.32447800000000004,-1.2107629999999998,0.528018,0.318814,-0.787117,-0.003389,-0.003372,0.003978,-0.004566,-0.003247,-0.011909000000000001
674,0.590863,-0.32450999999999997,-1.21066,0.5280020000000001,0.318844,-0.787116,-0.005499,0.000901,0.002889,-0.005541,-0.0052,-0.010247
675,0.590913,-0.324581,-1.210617,0.528029,0.318912,-0.787071,-0.0032630000000000003,0.003012,-0.0035020000000000003,-0.004302,-0.004718,-0.009926
676,0.590903,-0.324664,-1.2106940000000002,0.5280060000000001,0.31899099999999997,-0.787054,-0.001139,-0.001248,-0.005618,-0.006247,-0.002874,-0.008417000000000001
677,0.590751,-0.32466,-1.210817,0.527887,0.318986,-0.787136,0.004162,-0.006601,-0.003437,-0.005381,-0.0038770000000000002,-0.008717
678,0.590546,-0.32460900000000004,-1.2109379999999998,0.5277350000000001,0.318938,-0.787257,0.005224,-0.008731000000000001,-0.004496,-0.003871,-0.002959,-0.012440999999999999
679,0.590422,-0.32459699999999997,-1.211059,0.52764,0.318927,-0.787326,0.0020670000000000003,-0.000193,-0.0055969999999999995,-0.000921,-0.002169,-0.014462000000000001
680,0.5903689999999999,-0.324619,-1.211147,0.527595,0.318948,-0.7873479999999999,-8.1e-05,-0.00126,-0.003474,-0.004004,-0.0013210000000000001,-0.005224
681,0.590333,-0.324639,-1.211148,0.527562,0.318967,-0.787362,-0.000105,-0.0023420000000000003,0.0008,-0.0040939999999999995,-0.0014470000000000002,-0.005561
682,0.590291,-0.324644,-1.211131,0.527528,0.318971,-0.7873829999999999,-0.000101,-0.002338,-0.000268,-0.005357,-0.001558,-0.008424
683,0.590246,-0.32461,-1.211115,0.5274989999999999,0.318939,-0.787415,-0.0011330000000000001,-0.001314,0.001847,-0.007891,-0.0019219999999999999,-0.011565
684,0.590192,-0.324538,-1.211098,0.527469,0.318871,-0.787463,0.003125,-0.002398,0.0029460000000000003,-0.006183,-0.001549,-0.014066
685,0.5902,-0.324471,-1.211044,0.527487,0.318807,-0.7874760000000001,0.001001,0.000801,0.003996,-0.0064150000000000006,0.001307,-0.014968
686,0.5901649999999999,-0.324396,-1.210961,0.527473,0.318736,-0.787515,-9e-05,-0.003461,0.005062,-0.010902,-0.001796,-0.013312000000000001
687,0.590179,-0.324351,-1.2108729999999999,0.527492,0.31869400000000003,-0.787519,-0.0011279999999999999,0.001873,0.003979,-0.013453999999999999,-0.0016469999999999998,-0.012026
688,0.590163,-0.3243,-1.210804,0.527488,0.318646,-0.7875409999999999,-0.001157,-0.004518,0.003987,-0.006476999999999999,-0.005444,-0.014353999999999999
689,0.590067,-0.324262,-1.210742,0.527419,0.31861,-0.787602,-8e-05,-0.003453,0.002925,-0.001495,-0.005148,-0.014934000000000001
690,0.5900270000000001,-0.32423,-1.210719,0.527393,0.318579,-0.7876310000000001,0.001001,-0.001322,0.0018620000000000002,-0.000721,-0.006323,-0.013531
691,0.589974,-0.324223,-1.2107430000000001,0.527353,0.318573,-0.787661,-0.001078,0.001852,-0.001374,-0.000986,-0.0035399999999999997,-0.005261999999999999
692,0.590062,-0.324288,-1.210739,0.527411,0.31863400000000003,-0.787597,-0.005326,0.006128,-0.0014089999999999999,-0.002463,-0.000504,-0.005036
693,0.590192,-0.324373,-1.21069,0.5274989999999999,0.318715,-0.787506,-0.005326,0.005067,-0.0024760000000000003,-0.004397,-0.000127,-0.007873999999999999
694,0.5902350000000001,-0.324412,-1.210685,0.527526,0.318752,-0.787473,-0.001073,0.001857,-0.002442,-0.0043170000000000005,-0.001109,-0.00722
695,0.590263,-0.32441,-1.2107629999999998,0.5275479999999999,0.318749,-0.787459,0.00108,0.003988,-0.004566,-0.006552,0.000388,-0.01056
696,0.590286,-0.324396,-1.210847,0.527568,0.318736,-0.787451,0.0031899999999999997,0.000776,-0.002411,-0.005686999999999999,0.0023239999999999997,-0.012918
697,0.590222,-0.324337,-1.210917,0.527529,0.318681,-0.7875,0.004228,-0.0034969999999999997,-0.000262,-0.008196,-0.000337,-0.013219999999999999
698,0.590116,-0.324308,-1.210948,0.52745,0.318653,-0.787564,0.001018,-0.004555,0.000786,-0.008239,-0.005634,-0.013751
699,0.590091,-0.324312,-1.210934,0.527429,0.318657,-0.787576,-0.002106,0.001797,0.000733,-0.0068909999999999996,-0.005562,-0.014716
700,0.590133,-0.324351,-1.210914,0.527456,0.31869400000000003,-0.787543,-0.002102,0.002862,0.000731,-0.009588,-0.007613,-0.010201
701,0.590144,-0.324339,-1.210879,0.527467,0.318682,-0.7875409999999999,1.3000000000000001e-05,-0.00034500000000000004,0.001819,-0.005143,-0.005511,-0.011593000000000001
702,0.59017,-0.324316,-1.210869,0.5274909999999999,0.318661,-0.787533,4.2e-05,0.004985,0.0007440000000000001,-0.0036270000000000004,-0.00465,-0.011814
703,0.5902569999999999,-0.324378,-1.210866,0.5275489999999999,0.31872,-0.787471,-0.004211,0.006074,-0.001424,-0.006827,-0.003855,-0.01296
704,0.590385,-0.32448299999999997,-1.210831,0.5276310000000001,0.318819,-0.787375,-0.005274,0.007143000000000001,-0.001433,-0.006940000000000001,-0.0026420000000000003,-0.009683
705,0.5904729999999999,-0.324519,-1.2108370000000002,0.527694,0.318853,-0.78732,4.2e-05,0.003924,-0.000323,-0.005279,-0.001501,-0.009983
706,0.590495,-0.324508,-1.210816,0.527714,0.318842,-0.787311,8e-06,-0.000349,0.0028870000000000002,-0.004184,0.001501,-0.006862999999999999
707,0.590525,-0.324488,-1.210715,0.52774,0.318823,-0.787301,-0.0032020000000000004,-0.00034700000000000003,0.005000999999999999,-0.004303,0.001214,-0.00988
708,0.590576,-0.324467,-1.210582,0.527784,0.318804,-0.787279,-0.0031550000000000003,0.001743,0.0049759999999999995,-0.00636,-0.000124,-0.011763
709,0.5906710000000001,-0.324425,-1.21048,0.527867,0.318764,-0.7872399999999999,-0.001017,0.002801,0.00499,-0.007176,0.001732,-0.009269
710,0.590684,-0.324374,-1.210399,0.527885,0.318716,-0.787247,3.6e-05,-0.00146,0.003934,-0.005485,-0.003622,-0.012969999999999999
711,0.590649,-0.324345,-1.210328,0.527863,0.318688,-0.787273,-0.001026,-0.001452,0.002859,-0.005692,-0.0020989999999999997,-0.012546999999999999
712,0.590601,-0.32429600000000003,-1.210294,0.527834,0.318641,-0.787311,0.002179,-0.001458,0.001813,-0.007692,-0.003288,-0.009762
713,0.590536,-0.324205,-1.210343,0.527799,0.31855500000000003,-0.78737,0.006451,-0.001469,0.0007740000000000001,-0.006451999999999999,-0.002607,-0.009353
714,0.590577,-0.32409899999999997,-1.210399,0.52785,0.31845500000000004,-0.7873760000000001,0.004351,0.005995,0.00075,-0.007739,-0.003971,-0.010323
715,0.590612,-0.324018,-1.210443,0.527892,0.318378,-0.787379,0.0032649999999999997,0.001738,0.0007480000000000001,-0.004852,-0.006335,-0.009176
716,0.590594,-0.32395799999999997,-1.210493,0.527888,0.318321,-0.787404,0.001153,0.001744,-0.000337,-0.002284,-0.0033799999999999998,-0.013956999999999999
717,0.590643,-0.323968,-1.21052,0.527926,0.31833,-0.7873760000000001,-0.002038,0.003886,-0.000362,-0.005404,-0.000246,-0.011849
718,0.590684,-0.324024,-1.2105219999999999,0.527948,0.318384,-0.787339,-0.003105,0.0028280000000000002,-0.001436,-0.006357,0.000754,-0.01181
719,0.5907100000000001,-0.32408200000000004,-1.210544,0.527958,0.31843899999999997,-0.7873100000000001,-0.003095,0.0017760000000000002,-0.004639,-0.00655,0.001691,-0.008588
720,0.5907060000000001,-0.324185,-1.21058,0.527936,0.318536,-0.787285,-0.003105,-0.00035499999999999996,-0.004637,-0.007825,-0.000269,-0.009071
721,0.590663,-0.324261,-1.2106219999999999,0.527889,0.31860900000000003,-0.787287,-0.000981,-0.002493,-0.004619,-0.007488,0.000742,-0.00588
722,0.5905699999999999,-0.324257,-1.210699,0.527817,0.318605,-0.787337,0.002215,-0.0014470000000000002,-0.002462,-0.0018920000000000002,-0.005159,-0.010712000000000001
723,0.590577,-0.32427,-1.210748,0.52782,0.318617,-0.78733,-0.000953,0.002834,-0.002518,-0.002139,-0.0045,-0.014809000000000001
724,0.590609,-0.324292,-1.2107379999999999,0.527841,0.31863800000000003,-0.787308,-0.002034,0.002825,0.000679,-0.001657,-0.0026739999999999997,-0.013366999999999999
725,0.5906170000000001,-0.324295,-1.210693,0.5278470000000001,0.318641,-0.787303,-0.000982,0.000686,0.001757,-0.007095000000000001,0.002252,-0.008886
726,0.590643,-0.32429600000000003,-1.210632,0.527867,0.318641,-0.787289,-0.002053,0.000686,0.0028179999999999998,-0.010625,0.002907,-0.010806999999999999
727,0.590661,-0.324278,-1.210569,0.527884,0.318625,-0.787284,8e-05,0.000678,0.002833,-0.009420999999999999,0.000192,-0.008248
728,0.590691,-0.324252,-1.2105549999999998,0.527913,0.3186,-0.787275,-0.000967,0.002821,0.000686,-0.009099,-0.0016899999999999999,-0.014437
729,0.590687,-0.324246,-1.210591,0.527911,0.318594,-0.787279,0.002228,-0.000377,-0.001424,-0.006686,-0.00263,-0.010542000000000001
730,0.590643,-0.32421700000000003,-1.210683,0.527881,0.318567,-0.7873100000000001,0.004372,0.000685,-0.002478,-0.004215,-0.002954,-0.009748
731,0.590595,-0.324167,-1.2107299999999999,0.5278520000000001,0.31851999999999997,-0.7873479999999999,0.0032939999999999996,-0.001459,-0.000357,-0.006612000000000001,-0.003914,-0.008687
732,0.5905560000000001,-0.324117,-1.210669,0.52783,0.318472,-0.787382,-0.002069,-0.001466,0.0060149999999999995,-0.0027300000000000002,-0.006094,-0.01024
733,0.590615,-0.324126,-1.2105709999999998,0.527875,0.31848000000000004,-0.787349,-0.006274,0.008153,0.0017010000000000003,-0.005353,-0.004561,-0.015125999999999999
734,0.590874,-0.32426,-1.210485,0.528055,0.318608,-0.787176,-0.009437000000000001,0.013503999999999999,-0.001533,-0.006663,0.00259,-0.009882
735,0.5909449999999999,-0.324373,-1.2104139999999999,0.528091,0.318715,-0.7871090000000001,-0.005246,-0.002495,-0.00041500000000000006,-0.008346,0.000515,-0.008286
736,0.5907899999999999,-0.324411,-1.210424,0.527962,0.318751,-0.787181,7.900000000000001e-05,-0.0067659999999999994,-0.002509,-0.007515000000000001,-0.003123,-0.006887000000000001
737,0.590703,-0.324358,-1.210574,0.527903,0.318701,-0.787241,0.00759,0.000674,-0.004602,-0.007470999999999999,-0.00057,-0.008978
738,0.590697,-0.324283,-1.210706,0.5279119999999999,0.318629,-0.7872640000000001,0.005447,0.001734,-0.0014140000000000001,-0.005711,0.001073,-0.011885
739,0.5906819999999999,-0.32426900000000003,-1.2107139999999998,0.527903,0.318616,-0.787275,-0.002018,-0.000417,0.0017280000000000002,-0.000681,-0.0013859999999999999,-0.013094
740,0.590746,-0.32428,-1.2106290000000002,0.5279510000000001,0.318626,-0.787239,-0.003061,0.005974,0.002781,-0.004438,-0.002159,-0.004632
741,0.5908800000000001,-0.32427,-1.210588,0.5280590000000001,0.318617,-0.78717,0.000144,0.005967,0.0017350000000000002,-0.007154000000000001,-0.00099,-0.008834999999999999
742,0.590851,-0.324202,-1.210607,0.528048,0.318552,-0.787204,0.003311,-0.002562,0.0007,-0.006441,-0.003077,-0.01608
743,0.5907720000000001,-0.324178,-1.210591,0.52799,0.31853000000000004,-0.7872520000000001,-0.0009660000000000001,-0.004678,0.000672,-0.008336,-0.002322,-0.010325
744,0.590689,-0.32419699999999996,-1.210566,0.527921,0.318548,-0.787291,-0.000947,-0.001478,-0.0004,-0.0048649999999999995,-0.00533,-0.011918999999999999
745,0.590725,-0.324198,-1.210625,0.527949,0.31854899999999997,-0.787272,0.00123,0.00598,-0.002531,-0.003123,-0.0023710000000000003,-0.012395999999999999
746,0.590791,-0.324225,-1.210704,0.527996,0.31857399999999997,-0.787229,-0.000908,0.0038619999999999995,-0.003611,-0.005108,-0.001542,-0.012667
747,0.590859,-0.324313,-1.210715,0.528034,0.318658,-0.78717,-0.0019649999999999997,0.004895,-0.00259,-0.005787,-0.000741,-0.009918000000000001
748,0.5908720000000001,-0.324349,-1.2107510000000001,0.528038,0.31869200000000003,-0.787153,0.00015,0.000627,-0.002569,-0.00605,-0.004331000000000001,-0.007387
749,0.590869,-0.324358,-1.21076,0.528034,0.318701,-0.787153,0.00014,0.001679,0.000634,-0.00748,-0.0016690000000000001,-0.006502
750,0.590904,-0.324309,-1.210764,0.528071,0.318654,-0.787147,0.002264,0.000602,0.001718,-0.004801,-0.003453,-0.013054
751,0.590915,-0.324282,-1.210761,0.528084,0.318629,-0.787149,-0.0009220000000000001,0.002748,0.000625,-0.004661,-0.001505,-0.013831
752,0.591005,-0.324299,-1.210747,0.528151,0.31864499999999996,-0.787097,0.00015900000000000002,0.00594,0.000629,-0.006056000000000001,0.002537,-0.010297
753,0.591051,-0.32427399999999995,-1.2107350000000001,0.528192,0.318621,-0.787079,0.0011970000000000001,-0.000455,0.000644,-0.0055780000000000005,0.001035,-0.009567
754,0.590993,-0.32423,-1.210708,0.528154,0.318579,-0.787121,0.001183,-0.00259,0.001715,-0.005785,-0.002798,-0.010562
755,0.590983,-0.324223,-1.210649,0.528148,0.31857199999999997,-0.7871279999999999,-0.002018,-0.001518,0.002759,-0.008052,-0.002715,-0.007076000000000001
756,0.5909770000000001,-0.324233,-1.210583,0.528141,0.318581,-0.787129,-0.000926,-0.000482,0.000625,-0.0045049999999999995,-0.004693,-0.011424
757,0.591011,-0.324235,-1.21059,0.5281680000000001,0.318583,-0.787111,0.001236,0.0037799999999999995,-0.0015019999999999999,-0.004379,-0.0020399999999999997,-0.009963
758,0.591016,-0.32418600000000003,-1.210655,0.52818,0.318537,-0.787121,0.003351,0.000572,-0.00041500000000000006,-0.0037049999999999995,-0.002146,-0.008732
759,0.5910340000000001,-0.32414699999999996,-1.210715,0.528201,0.3185,-0.787122,0.00336,0.002703,-0.00041799999999999997,-0.004718,-0.001224,-0.010425
760,0.591,-0.324125,-1.2107450000000002,0.5281779999999999,0.318479,-0.787146,0.000145,-0.0015429999999999999,-0.001503,-0.005168,-0.003355,-0.013208000000000001
761,0.591008,-0.324153,-1.210734,0.52818,0.318506,-0.787134,-0.003046,0.0016600000000000002,-0.00046100000000000004,-0.005444,-0.002848,-0.008353
762,0.591056,-0.324214,-1.2107219999999999,0.528207,0.318564,-0.787092,-0.001974,0.0016600000000000002,-0.0015220000000000001,-0.00744,-0.001165,-0.007311
763,0.59108,-0.324206,-1.210697,0.528227,0.318556,-0.787082,-0.0009220000000000001,0.001644,0.0016899999999999999,-0.006682,-0.0016309999999999999,-0.011533
764,0.59113,-0.324151,-1.210649,0.528276,0.318504,-0.7870699999999999,0.000148,0.001602,0.003827,-0.005113,-0.000816,-0.011087
765,0.591136,-0.32408899999999996,-1.21059,0.528292,0.318445,-0.787083,0.001206,-0.000532,0.0038369999999999997,-0.0072959999999999995,0.000753,-0.010921
766,0.5911069999999999,-0.32403000000000004,-1.210543,0.5282789999999999,0.31839,-0.787114,0.001206,-0.001593,0.00277,-0.006886,-0.001342,-0.009852
767,0.5910770000000001,-0.323999,-1.210523,0.528262,0.31836,-0.787138,0.000148,-0.0015810000000000002,0.0006259999999999999,-0.006396,-0.001953,-0.011934
768,0.591017,-0.32398000000000005,-1.2105219999999999,0.528217,0.318342,-0.787175,0.000153,-0.001577,-0.000442,-0.004841,-0.001401,-0.011179999999999999
769,0.591017,-0.323991,-1.210564,0.528215,0.318353,-0.787172,0.001254,0.003754,-0.002577,-0.0056630000000000005,-0.003747,-0.009535
770,0.591042,-0.323965,-1.2106219999999999,0.5282399999999999,0.318328,-0.787165,0.0033729999999999997,0.002673,-0.000425,-0.005520000000000001,-0.005324000000000001,-0.008703
771,0.590988,-0.323907,-1.210682,0.528207,0.31827300000000003,-0.7872100000000001,0.0033490000000000004,-0.002653,-0.00041799999999999997,-0.002801,-0.004201,-0.013465000000000001
772,0.5909409999999999,-0.323901,-1.210704,0.528172,0.318267,-0.7872359999999999,-0.000886,0.000526,-0.000454,-0.003407,-0.003127,-0.011226
773,0.590949,-0.32395799999999997,-1.2106540000000001,0.5281680000000001,0.318321,-0.787216,-0.005163,-0.000529,0.000586,-0.005158,-0.003059,-0.012573
774,0.590947,-0.324074,-1.2106430000000001,0.528146,0.318431,-0.787187,-0.006206000000000001,-0.000503,-0.004763,-0.002999,-0.001308,-0.013640000000000001
775,0.590903,-0.324229,-1.2107,0.528083,0.31857800000000003,-0.787169,-0.002991,-0.000502,-0.007945,-0.003624,-0.000386,-0.011552
776,0.590832,-0.324332,-1.210769,0.5280100000000001,0.318676,-0.787179,-0.003,0.000551,-0.0047420000000000006,-0.007853,0.000157,-0.008154999999999999
777,0.590801,-0.324341,-1.21086,0.527984,0.318684,-0.787193,0.004468,0.001585,-0.0036229999999999995,-0.005797,-0.001301,-0.011162
778,0.5908180000000001,-0.32427399999999995,-1.210917,0.5280090000000001,0.31861999999999996,-0.7872020000000001,0.001257,0.00371,0.000625,-0.0057009999999999995,-0.001207,-0.010939
779,0.590899,-0.32427399999999995,-1.210891,0.528072,0.318621,-0.787159,-0.000878,0.002611,0.00275,-0.005917,-0.000338,-0.010173
780,0.590934,-0.324268,-1.210803,0.528101,0.318615,-0.787142,-0.001964,-0.000586,0.003814,-0.004526,-0.003109,-0.010969
781,0.590902,-0.324268,-1.210741,0.528076,0.318615,-0.7871600000000001,-0.001968,-0.003773,0.0016820000000000001,-0.0060420000000000005,-0.003994,-0.012203
782,0.59086,-0.324297,-1.2107139999999998,0.528037,0.318642,-0.7871739999999999,-0.003011,-0.0005650000000000001,-0.000466,-0.006156,-0.0037159999999999997,-0.011456000000000001
783,0.590856,-0.324348,-1.210699,0.528026,0.318691,-0.787162,-0.0019399999999999999,0.0004969999999999999,-0.00045999999999999996,-0.0058390000000000004,-0.0015220000000000001,-0.009728
784,0.590873,-0.324376,-1.2107370000000002,0.528034,0.31871700000000003,-0.787146,0.00020800000000000001,0.0015630000000000002,-0.002583,-0.0052380000000000005,-0.000312,-0.008142
785,0.59086,-0.324399,-1.210832,0.5280199999999999,0.318739,-0.787147,0.0012900000000000001,0.002633,-0.004713,-0.005635,-0.001585,-0.008935
786,0.59086,-0.324432,-1.210905,0.528014,0.318771,-0.787138,-0.000868,-0.0005639999999999999,-0.002587,-0.002425,-0.00267,-0.007982
787,0.590789,-0.324449,-1.210952,0.527954,0.318787,-0.787171,0.00021400000000000002,-0.0016690000000000001,-0.0036479999999999998,-0.002671,-0.000229,-0.015761
788,0.590823,-0.324552,-1.2109889999999999,0.527963,0.318884,-0.787126,-0.005082,0.005811,-0.004763,-0.004831,0.002878,-0.014891
789,0.5908680000000001,-0.324718,-1.210979,0.5279699999999999,0.319042,-0.787058,-0.008311,0.001552,-0.002643,-0.009049,-0.002361,-0.010031
790,0.5908680000000001,-0.324867,-1.2109,0.527943,0.319183,-0.7870189999999999,-0.007268000000000001,-0.001656,-0.000495,-0.009953,-0.0030210000000000002,-0.010573
791,0.590721,-0.324919,-1.210866,0.527818,0.319232,-0.787082,-0.00091,-0.009143,0.001695,-0.007722,-0.006717,-0.010662
792,0.5905630000000001,-0.324906,-1.210849,0.527696,0.31922,-0.787169,0.00018999999999999998,-0.002751,0.0006259999999999999,-0.004182,-0.004111,-0.013856
793,0.5906359999999999,-0.324955,-1.210802,0.527744,0.319266,-0.787118,-0.005096,0.008981,0.001643,-0.0047799999999999995,-0.0033179999999999998,-0.010718
794,0.590792,-0.32497,-1.2107219999999999,0.5278649999999999,0.31928,-0.787031,-0.002987,0.00683,0.0048649999999999995,-0.004656,0.004984000000000001,-0.005785
795,0.59092,-0.324882,-1.210604,0.527981,0.31919699999999995,-0.786987,0.0012720000000000001,0.005698,0.008095,-0.008159999999999999,0.005296,-0.006287
796,0.591015,-0.324721,-1.210453,0.528084,0.31904499999999997,-0.78698,0.00231,0.002486,0.011311,-0.008140999999999999,0.0033130000000000004,-0.011787
797,0.5910979999999999,-0.32455,-1.210312,0.52818,0.318882,-0.786981,0.0023190000000000003,0.0035549999999999996,0.010242,-0.008191,0.000194,-0.011053
798,0.5911569999999999,-0.324397,-1.210202,0.528253,0.318737,-0.786991,0.004443,-0.000705,0.008126000000000001,-0.009455,0.0015140000000000002,-0.008541
