,attitude.roll,attitude.pitch,attitude.yaw,gravity.x,gravity.y,gravity.z,rotationRate.x,rotationRate.y,rotationRate.z,userAcceleration.x,userAcceleration.y,userAcceleration.z
0,0.7355430000000001,-0.49681899999999996,-1.2269379999999999,0.589867,0.47663199999999994,-0.6518229999999999,0.088265,0.036297,-0.021065,-0.10775,0.09534400000000001,-0.0076159999999999995
1,0.734252,-0.49753500000000006,-1.229614,0.588796,0.477261,-0.65233,0.117104,0.008641,-0.056079,-0.067998,0.084629,-0.066633
2,0.731726,-0.498305,-1.233299,0.586901,0.477937,-0.653542,0.13426,-0.003013,-0.086923,-0.0432,0.045409,-0.038704
3,0.72919,-0.498313,-1.23766,0.5852390000000001,0.477944,-0.655025,0.184642,0.049014,-0.08770599999999999,-0.041248,0.017294999999999998,-0.007328
4,0.7273229999999999,-0.49766000000000005,-1.242824,0.584222,0.47736999999999996,-0.65635,0.22089099999999998,0.053109,-0.07784400000000001,-0.058664,0.016328,-0.053672000000000004
5,0.724947,-0.49616800000000005,-1.247358,0.583133,0.476059,-0.6582680000000001,0.204595,0.021077000000000002,-0.044802999999999996,-0.043352999999999996,-0.007873999999999999,-0.039608
6,0.723538,-0.49455699999999997,-1.251452,0.582712,0.474642,-0.659663,0.179254,0.070207,-0.054657000000000004,0.010504000000000001,-0.020952000000000002,-0.035085000000000005
7,0.723499,-0.49286599999999997,-1.254887,0.583216,0.473152,-0.660287,0.17188699999999998,0.118068,-0.029133,0.029348000000000003,-0.015877000000000002,-0.06536
8,0.7243,-0.490771,-1.258761,0.5844010000000001,0.47130600000000006,-0.66056,0.194727,0.19158599999999998,-0.052568,0.035167000000000004,-0.052192999999999996,-0.011711
9,0.725432,-0.488515,-1.263336,0.585852,0.469315,-0.660693,0.220313,0.158589,-0.081189,0.010339,-0.06456,-0.004896
10,0.725899,-0.485825,-1.2681360000000002,0.586996,0.466938,-0.661361,0.23404299999999997,0.14568499999999998,-0.062917,-0.000525,-0.048695,-0.006043
11,0.726122,-0.48235100000000003,-1.272561,0.588218,0.463863,-0.662439,0.22636399999999998,0.109449,-0.052242,0.03457,-0.025889999999999996,-0.020666999999999998
12,0.725568,-0.48010699999999995,-1.276931,0.58854,0.46187399999999995,-0.6635409999999999,0.186833,0.061791,-0.08770800000000001,0.017158,-0.024541999999999998,-0.008898
13,0.725725,-0.478216,-1.280482,0.5892229999999999,0.460196,-0.664101,0.14106300000000002,0.102363,-0.070988,-0.021352,-0.030126999999999998,0.00895
14,0.725983,-0.476371,-1.28388,0.589957,0.458557,-0.664583,0.138925,0.096,-0.076336,0.0029690000000000003,0.000977,0.008714
15,0.726163,-0.475088,-1.287411,0.590467,0.457416,-0.664917,0.153827,0.081064,-0.083691,0.016406,0.011685,0.009109
16,0.725508,-0.473289,-1.2915510000000001,0.590576,0.455816,-0.665918,0.191038,0.0405,-0.09512899999999999,0.024933,0.01806,0.007913
17,0.723626,-0.471322,-1.296244,0.589914,0.45406499999999994,-0.6676989999999999,0.204763,0.008494,-0.094992,0.015691999999999998,0.002326,0.033803
18,0.721317,-0.469783,-1.30081,0.588831,0.452693,-0.669583,0.179015,-0.035045,-0.106867,0.0072840000000000005,-0.010249,0.034818
19,0.718793,-0.469009,-1.304712,0.58737,0.45200200000000007,-0.671331,0.137321,-0.043465,-0.096465,0.002031,-0.022849,0.031972
20,0.7174649999999999,-0.46871499999999994,-1.3073569999999999,0.586566,0.45174,-0.6722100000000001,0.080777,-0.008254000000000001,-0.061653999999999994,0.047619999999999996,0.00195,-0.028581
21,0.717749,-0.46886300000000003,-1.308406,0.586712,0.45187299999999997,-0.6719930000000001,0.0030399999999999997,0.051562000000000004,-0.0345,0.063724,0.014009,-0.022816
22,0.719622,-0.469462,-1.308317,0.587792,0.45240600000000003,-0.67069,-0.027899,0.07182899999999999,-0.014446,0.023964,-0.016463,0.001744
23,0.721017,-0.47008,-1.307666,0.588542,0.45295799999999997,-0.669659,-0.050505,0.048387,0.006790999999999999,0.007405,-0.017197,-0.0027199999999999998
24,0.722731,-0.47006899999999996,-1.306573,0.589692,0.45294799999999996,-0.668652,-0.037745,0.062097,0.030363,0.014219999999999998,0.007425,-0.017398
25,0.7253390000000001,-0.470192,-1.305331,0.5913970000000001,0.453058,-0.6670699999999999,-0.042893,0.09941599999999999,0.026007,0.014011000000000001,-0.00892,-0.021467
26,0.727816,-0.47067200000000003,-1.304408,0.592903,0.453485,-0.665441,-0.053461,0.091055,-0.005035,0.008476000000000001,0.00495,-0.014887000000000001
27,0.7299100000000001,-0.471656,-1.303782,0.593997,0.454362,-0.6638649999999999,-0.056623,0.087917,-0.016803,-0.02315,0.002593,-0.009932999999999999
28,0.7316239999999999,-0.472538,-1.303346,0.594866,0.455147,-0.662547,-0.032214,0.061191999999999996,-0.014462000000000001,-0.028689,0.006004,-0.0077870000000000005
29,0.732268,-0.47251899999999997,-1.303615,0.595298,0.45513100000000006,-0.662171,0.027319,0.015172,-0.012919,-0.04029,-0.005561,-0.010284
30,0.731378,-0.47172,-1.304745,0.594952,0.45441899999999996,-0.662971,0.076174,-0.038245999999999995,-0.016782,-0.038159,-0.009228,-0.020638
31,0.72929,-0.47071999999999997,-1.3069389999999999,0.593869,0.453528,-0.66455,0.110453,-0.040362999999999996,-0.049655,-0.005581,-0.015662,-0.012818000000000001
32,0.72719,-0.47000600000000003,-1.309779,0.5926859999999999,0.452892,-0.666037,0.11163900000000002,-0.033894,-0.069951,-0.015507,-0.020793,-0.009164
33,0.724841,-0.46932399999999996,-1.312818,0.591325,0.452283,-0.667659,0.11800699999999999,-0.04774,-0.076298,-0.013627,-0.023938,-0.003804
34,0.722973,-0.46851800000000005,-1.3156709999999998,0.590317,0.451564,-0.669035,0.100024,-0.006161,-0.069,0.01715,-0.026713999999999998,-0.014833
35,0.721572,-0.46789,-1.318576,0.589567,0.451004,-0.670074,0.109726,0.0045049999999999995,-0.080696,0.030215,-0.016250999999999998,-0.012115
36,0.720753,-0.467297,-1.32165,0.589194,0.450475,-0.6707569999999999,0.11101400000000002,0.047138,-0.08715099999999999,0.040673,0.000956,-0.002369
37,0.7196560000000001,-0.46647299999999997,-1.325007,0.588703,0.449738,-0.671683,0.123619,-0.0040100000000000005,-0.094475,0.0491,-0.0046240000000000005,0.011481
38,0.716644,-0.4655,-1.329012,0.586964,0.44886899999999996,-0.673783,0.15751400000000002,-0.087105,-0.122974,0.042705,-0.000169,0.035828
39,0.711651,-0.46428,-1.334059,0.58395,0.447779,-0.6771189999999999,0.204183,-0.163904,-0.138573,0.040608,0.014455,0.045237
40,0.7056640000000001,-0.462682,-1.339181,0.580349,0.44635,-0.681146,0.213421,-0.23534899999999997,-0.128802,0.03455,-0.001495,0.024179
41,0.6986859999999999,-0.46109399999999995,-1.344088,0.576037,0.444928,-0.685721,0.203713,-0.25450700000000004,-0.124573,0.027799,-0.012906,0.019309
42,0.692132,-0.45962299999999995,-1.348926,0.571947,0.44361000000000006,-0.689986,0.188993,-0.20545700000000003,-0.12367,0.031721,0.00599,0.0036299999999999995
43,0.687016,-0.458262,-1.353334,0.568792,0.44238999999999995,-0.693369,0.212392,-0.205603,-0.107483,0.010386,-0.030920999999999997,-0.008627
44,0.6815260000000001,-0.456375,-1.357433,0.5655020000000001,0.440697,-0.697128,0.17390799999999998,-0.194927,-0.079992,-0.054470000000000005,-0.039757,-0.042878
45,0.677148,-0.455434,-1.3601860000000001,0.562704,0.439852,-0.69992,0.091851,-0.152119,-0.058187,-0.051672,-0.038912,-0.040086000000000004
46,0.673764,-0.454488,-1.361748,0.560592,0.439003,-0.702145,0.090568,-0.162917,-0.020794999999999998,-0.057189,0.060189,-0.078998
47,0.670288,-0.45272399999999996,-1.363212,0.558628,0.437417,-0.704695,0.11835,-0.124779,0.008192,-0.062702,0.074821,-0.077364
48,0.668136,-0.450341,-1.364894,0.557755,0.43527299999999997,-0.706712,0.126302,-0.032068,-0.0068260000000000005,-0.09465,0.018249,-0.044752999999999994
49,0.665784,-0.44793900000000003,-1.366932,0.5567350000000001,0.433109,-0.708842,0.151686,-0.058878,0.015818000000000002,-0.054706,0.010128,-0.005193
50,0.663058,-0.44623,-1.369548,0.555255,0.431568,-0.710939,0.09676599999999999,-0.00514,-0.055137,0.0055969999999999995,0.012112000000000001,-0.00337
51,0.662454,-0.44712299999999994,-1.373375,0.554588,0.43237299999999995,-0.710971,0.072239,0.10519200000000001,-0.185773,-0.024177,-0.16127,0.009112
52,0.663035,-0.44950500000000004,-1.377682,0.554366,0.43451899999999993,-0.709835,0.007568000000000001,0.176869,-0.205544,-0.037551,-0.054637,-0.005954999999999999
53,0.665737,-0.449981,-1.380846,0.556154,0.43494799999999995,-0.708171,0.12256900000000001,0.22613699999999998,-0.105459,0.12234300000000001,0.033969,0.063686
54,0.6678609999999999,-0.44703699999999996,-1.385203,0.558447,0.432296,-0.707991,0.29694,0.182557,-0.014455,0.092645,0.063447,0.061934
55,0.668525,-0.44223,-1.388742,0.560199,0.42795600000000006,-0.709242,0.20369600000000002,0.092317,-0.010718,0.110196,0.081138,-0.011126
56,0.669334,-0.439734,-1.391029,0.561434,0.42569799999999997,-0.709624,0.09816799999999999,0.09595,-0.028551,0.008177,-0.047296,0.071898
57,0.669791,-0.44005500000000003,-1.392264,0.561673,0.425989,-0.70926,-0.029004000000000002,-0.0067150000000000005,-0.084855,-0.004132,-0.076425,0.083696
58,0.6685909999999999,-0.44463199999999997,-1.392018,0.559607,0.430126,-0.708396,-0.255548,-0.166464,-0.16528099999999998,-0.0016699999999999998,-0.07978400000000001,0.09653400000000001
59,0.664464,-0.453737,-1.390306,0.554241,0.438328,-0.707587,-0.451057,-0.319871,-0.260454,-0.005764,-0.030581999999999998,0.096595
60,0.658237,-0.465566,-1.38846,0.546614,0.448928,-0.706874,-0.552347,-0.36190100000000003,-0.317723,0.001222,-0.049819,0.084208
61,0.652037,-0.478516,-1.386733,0.5386479999999999,0.460462,-0.705569,-0.542836,-0.410822,-0.346436,-0.054471000000000006,0.044664999999999996,0.029238
62,0.6421560000000001,-0.48800200000000005,-1.386783,0.5290100000000001,0.468862,-0.707326,-0.303775,-0.659748,-0.37435799999999997,-0.067615,0.347941,-0.153361
63,0.628789,-0.49289099999999997,-1.389362,0.518154,0.473175,-0.712472,-0.10838099999999999,-0.447028,-0.193804,0.035907999999999995,0.18943800000000002,-0.141227
64,0.622468,-0.499779,-1.393,0.511727,0.479232,-0.713068,-0.10952,-0.136433,-0.34269299999999997,-0.08101699999999999,-0.152648,-0.092977
65,0.613079,-0.49905600000000006,-1.39926,0.505209,0.47859700000000005,-0.718125,0.285296,-0.413386,-0.156914,0.100077,0.06891900000000001,-0.207321
66,0.605863,-0.49852399999999997,-1.405535,0.500159,0.47813,-0.721961,0.12595,-0.116309,-0.251343,0.052209000000000005,-0.005672,-0.126947
67,0.598525,-0.49776499999999996,-1.41403,0.49505200000000005,0.477463,-0.725911,0.33920700000000004,-0.186122,-0.293561,-0.009731,0.002105,-0.005809
68,0.591689,-0.495209,-1.423569,0.49075699999999994,0.47521599999999997,-0.730288,0.280052,-0.024117,-0.263204,0.027828,0.005131,-0.023542
69,0.590695,-0.49621499999999996,-1.429698,0.48976499999999995,0.4761,-0.730379,0.025671,0.13539600000000002,-0.239548,0.013730000000000001,-0.012813,-0.003081
70,0.592476,-0.49868599999999996,-1.43261,0.49040600000000006,0.47827200000000003,-0.728527,-0.069548,0.17156400000000002,-0.144119,0.0592,0.037154,0.030636
71,0.5964729999999999,-0.501424,-1.433028,0.49257700000000004,0.480675,-0.725475,-0.117672,0.222557,-0.067609,0.024222999999999998,0.045814,0.042247
72,0.6007319999999999,-0.503384,-1.432346,0.49512799999999996,0.482393,-0.722592,-0.086088,0.174325,-0.021393000000000002,0.03336,0.058013,-0.005878
73,0.603852,-0.5045729999999999,-1.431967,0.497055,0.48343400000000003,-0.720571,-0.063818,0.135932,-0.029733999999999997,0.020524,0.027293,-0.01475
74,0.606318,-0.505657,-1.431383,0.49853100000000006,0.484383,-0.718912,-0.051384000000000006,0.09099700000000001,0.007798,0.014286000000000002,0.031105,0.002771
75,0.608182,-0.506444,-1.429941,0.49965200000000004,0.48507,-0.7176680000000001,-0.046525,0.019469,0.042107,0.004132,0.01789,0.011461
76,0.608119,-0.506501,-1.4290479999999999,0.499592,0.48512,-0.717677,0.008688,-0.05416900000000001,0.027632,-0.009356999999999999,-0.00955,0.007884
77,0.606371,-0.506111,-1.42917,0.498443,0.48478000000000004,-0.718705,0.026753,-0.10098,-0.00316,-0.003464,-0.020928,-0.003814
78,0.603965,-0.506207,-1.429728,0.496687,0.484863,-0.719863,0.010822,-0.11253099999999999,-0.031030000000000002,-0.001966,-0.010452,-0.01764
79,0.601913,-0.507023,-1.4304540000000001,0.49498400000000004,0.48557700000000004,-0.720554,-0.021987,-0.07822899999999999,-0.055873,-0.0040939999999999995,-0.016812,-0.021694
80,0.599974,-0.508175,-1.431222,0.49326899999999996,0.486584,-0.721051,-0.02625,-0.08351499999999999,-0.06230499999999999,-0.0009449999999999999,-0.020916,-0.016375999999999998
81,0.597857,-0.509102,-1.432051,0.49148800000000004,0.487393,-0.72172,-0.02625,-0.080332,-0.059104,0.001814,-0.014768,-0.03185
82,0.596242,-0.5100979999999999,-1.432744,0.49004899999999996,0.488263,-0.722111,-0.031459,-0.050494,-0.057042999999999996,-0.0006230000000000001,-0.016309,-0.023174
83,0.595134,-0.5109779999999999,-1.433432,0.489008,0.48903100000000005,-0.7222970000000001,-0.016475,-0.032467,-0.049483,-0.001962,-0.008348000000000001,-0.017541
84,0.5942310000000001,-0.511478,-1.434326,0.48821800000000004,0.489466,-0.722536,-0.007849,-0.008013,-0.045182,-0.0007610000000000001,-0.00294,-0.007490000000000001
85,0.594057,-0.511939,-1.434956,0.487966,0.489868,-0.722434,-0.015216999999999998,0.017567,-0.042061,-0.0055899999999999995,0.010193,-0.016153
86,0.5940850000000001,-0.512471,-1.4357,0.48783999999999994,0.490332,-0.722204,-0.016216,0.025057,-0.049555,-0.001253,0.018091,-0.026070999999999997
87,0.594449,-0.51343,-1.436484,0.48783999999999994,0.49116800000000005,-0.7216359999999999,-0.025674000000000002,0.043256,-0.063532,-0.008394,0.013104,-0.018705
88,0.5945819999999999,-0.514375,-1.437653,0.487675,0.49199,-0.721187,-0.013915,0.041114,-0.070924,-0.019978,0.00421,-0.003483
89,0.594449,-0.515319,-1.43897,0.48731899999999995,0.492812,-0.720867,-0.002232,0.026172000000000004,-0.074028,0.011734999999999999,0.018844999999999997,0.004528
90,0.5940840000000001,-0.516279,-1.440625,0.486791,0.493647,-0.7206520000000001,0.003179,0.021978,-0.095349,0.032664,0.039556,0.000682
91,0.5942430000000001,-0.517683,-1.44232,0.48651700000000003,0.49486800000000003,-0.72,-0.05313,0.0818,-0.08834199999999999,0.002298,0.034733999999999994,-0.034730000000000004
92,0.59624,-0.521127,-1.443071,0.486994,0.49785799999999997,-0.717612,-0.106528,0.24204,-0.154082,0.126318,0.06714400000000001,0.246588
93,0.592195,-0.513529,-1.451972,0.486184,0.491254,-0.722694,0.939794,-0.429963,-0.042295,0.127127,0.07374800000000001,0.251671
94,0.562604,-0.491933,-1.4666860000000002,0.47013999999999995,0.47233,-0.745564,1.166391,-1.169461,0.076672,-0.013063,-0.026499,-0.13917100000000002
95,0.541046,-0.478075,-1.474046,0.457287,0.460071,-0.761063,0.564278,-0.7467159999999999,0.108244,-0.008357999999999999,-0.011921,-0.087005
96,0.530197,-0.47141000000000005,-1.4759719999999998,0.45054399999999994,0.454143,-0.768608,0.27626100000000003,-0.530403,0.076045,-0.008085,-0.038387,-0.06313300000000001
97,0.517046,-0.465559,-1.477026,0.44170299999999996,0.44892299999999996,-0.776763,0.248009,-0.590178,0.130404,-0.043525,0.009528,0.0037070000000000002
98,0.5105970000000001,-0.462063,-1.475969,0.437449,0.445796,-0.78096,0.016509,-0.14714100000000002,0.094036,-0.043574,-0.101802,-0.073547
99,0.515312,-0.46543599999999996,-1.473792,0.44038299999999997,0.448813,-0.777576,-0.294296,0.344552,-0.052975,0.017563,-0.054098,-0.075009
100,0.526766,-0.474077,-1.471769,0.44729399999999997,0.456517,-0.7691,-0.476157,0.583255,-0.18167,0.069751,-0.025426,-0.059681
101,0.5385260000000001,-0.48548900000000006,-1.471063,0.45360500000000004,0.466641,-0.759264,-0.5151319999999999,0.571104,-0.30584,0.022545,-0.032666,0.01488
102,0.548034,-0.49665600000000004,-1.472175,0.45806,0.476488,-0.750422,-0.412083,0.45046099999999994,-0.328467,-0.012458,-0.029543,0.017054
103,0.555164,-0.505367,-1.474034,0.46119399999999994,0.484129,-0.743581,-0.336834,0.3723,-0.29472600000000004,0.011539,-0.003858,0.018255
104,0.560485,-0.513197,-1.4752299999999998,0.463114,0.490965,-0.737884,-0.36951100000000003,0.278447,-0.239287,-0.07371,-0.050276,-0.016999
105,0.565025,-0.5206350000000001,-1.474664,0.464491,0.49743100000000007,-0.732669,-0.262779,0.12862200000000001,-0.160369,-0.036787,-0.013606,0.030017000000000002
106,0.5669930000000001,-0.524996,-1.474269,0.46476300000000004,0.501209,-0.729916,-0.19613699999999998,0.080135,-0.08079299999999999,-0.032145,0.017666,0.01135
107,0.569224,-0.528122,-1.472926,0.46554300000000004,0.503912,-0.727554,-0.139876,0.072259,-0.024842,-0.005979,0.030191000000000003,-0.000183
108,0.570714,-0.529354,-1.472022,0.466291,0.504976,-0.726337,-0.044142,0.041964,0.00898,0.003039,0.038954,0.023608
109,0.570755,-0.528856,-1.4714209999999999,0.46645699999999995,0.504546,-0.726529,0.018266,-0.028758999999999996,0.058645,-0.01704,0.031663,0.016446000000000002
110,0.5702010000000001,-0.5268390000000001,-1.4701899999999999,0.466602,0.502804,-0.727643,0.087171,-0.055919,0.130732,-0.040531,0.031193000000000002,0.027585000000000002
111,0.569934,-0.523073,-1.468286,0.46742700000000004,0.49954399999999993,-0.7293569999999999,0.126343,-0.058447000000000006,0.19617,-0.050237000000000004,0.019285,0.035616
112,0.571433,-0.51946,-1.465117,0.469492,0.49641199999999996,-0.730168,0.080669,0.028894,0.23846799999999999,0.004293,0.006945000000000001,-0.000453
113,0.574055,-0.515613,-1.4616209999999998,0.47243900000000005,0.493068,-0.730533,0.091448,0.049114,0.23424499999999998,0.038685000000000004,0.031498000000000005,-0.0126
114,0.575434,-0.511897,-1.458672,0.47444,0.489832,-0.731413,0.098634,-0.045593,0.20237,0.064012,0.04421,-0.026583
115,0.574499,-0.508738,-1.456739,0.47459399999999996,0.487076,-0.733152,0.099691,-0.094411,0.15543800000000002,0.055954,0.007781999999999999,-0.016878999999999998
116,0.573387,-0.506093,-1.45545,0.474476,0.48476400000000003,-0.734759,0.06271499999999999,-0.063188,0.104933,0.041256,-0.007148000000000001,-0.021741999999999997
117,0.5732010000000001,-0.505286,-1.454491,0.47455200000000003,0.48405699999999996,-0.735175,-0.011419,-0.016818,0.028512,0.045819,-0.000842,-0.026788
118,0.573871,-0.506405,-1.4539540000000002,0.47475,0.485037,-0.734402,-0.077109,0.024136,-0.032888,0.038083,-0.003134,-0.025227
119,0.5744100000000001,-0.508179,-1.453781,0.47467700000000007,0.486587,-0.7334229999999999,-0.06331200000000001,-0.00144,-0.042373,-0.000678,0.000352,0.00686
120,0.574016,-0.5089739999999999,-1.453861,0.474178,0.487282,-0.733284,-0.026173000000000002,-0.022969999999999997,-0.018585,-0.017603999999999998,0.018897999999999998,0.006798
121,0.573534,-0.5090520000000001,-1.453627,0.473803,0.48735,-0.733481,-0.006085,-0.032751,0.012546,-0.013186000000000002,0.020707,0.004325
122,0.573261,-0.50889,-1.45326,0.473646,0.487208,-0.733677,-0.010265999999999999,-0.016745,0.009292,0.002001,0.022924,-0.018597
123,0.572773,-0.50884,-1.453211,0.473301,0.48716400000000004,-0.733928,0.014209999999999999,-0.034923,0.005213000000000001,-0.015965,0.027163999999999997,-0.006047
124,0.57216,-0.508506,-1.453316,0.47293900000000005,0.48687299999999994,-0.734355,0.019587,-0.017927000000000002,0.012707,-0.020196000000000002,0.019749,-0.014638
125,0.571803,-0.5080180000000001,-1.453385,0.47280600000000006,0.486447,-0.7347229999999999,0.034538,-0.012662,0.014941,-0.004268999999999999,0.013797,-0.011187
126,0.571516,-0.507264,-1.453676,0.472793,0.48578699999999997,-0.735168,0.032505,0.008655,0.013831,-0.015441,0.0020670000000000003,-0.018159
127,0.572237,-0.507197,-1.453741,0.473341,0.485729,-0.734854,0.0019010000000000001,0.065295,-0.004615,0.002154,-0.010295,-0.007364
128,0.5732149999999999,-0.50756,-1.4539950000000001,0.47396400000000005,0.486046,-0.7342420000000001,0.005092,0.054665,-0.013125,0.007939,0.010277,0.0127
129,0.573793,-0.508157,-1.454202,0.47423000000000004,0.48656800000000006,-0.7337239999999999,-0.009854,0.036672,-0.029230000000000003,0.008268000000000001,-0.013149000000000001,0.014806999999999999
130,0.574183,-0.508707,-1.454632,0.474371,0.487048,-0.7333149999999999,-0.015284,0.02069,-0.023906,-0.004324000000000001,0.004834000000000001,-0.009483
131,0.573984,-0.5089090000000001,-1.455188,0.47417200000000004,0.487224,-0.733326,-0.001419,0.012149,-0.031276,0.010097,0.003285,-0.002925
132,0.5738850000000001,-0.50926,-1.455851,0.47400600000000004,0.48753199999999997,-0.733229,-0.005802000000000001,-0.005975,-0.023806,-0.01525,-0.014509000000000001,-0.001283
133,0.573462,-0.509309,-1.456308,0.47368299999999997,0.48757399999999995,-0.73341,0.003857,0.005714,-0.024821,0.0368,0.013143,-0.017872
134,0.5727869999999999,-0.509177,-1.4567450000000002,0.47322299999999995,0.487458,-0.733784,0.027094,-0.029589999999999998,-0.007522,0.021238,0.0008380000000000001,0.007511
135,0.572102,-0.508849,-1.457016,0.47280600000000006,0.48717200000000005,-0.7342420000000001,0.011086,-0.01999,0.003036,0.016345,0.017421000000000002,-0.005672
136,0.571447,-0.5082899999999999,-1.457127,0.472473,0.486684,-0.734781,0.035504,-0.033975,0.016043,0.008773999999999999,0.012767,0.006662
137,0.5711430000000001,-0.507704,-1.456971,0.47240299999999996,0.48617200000000005,-0.735164,0.018491999999999998,-0.015827,0.021242,-0.0026920000000000004,0.010409999999999999,-0.00475
138,0.571175,-0.507371,-1.456479,0.47251400000000005,0.48588100000000006,-0.7352850000000001,0.002445,-0.018992,0.027543,-0.013499,0.002736,-0.0058189999999999995
139,0.571122,-0.507162,-1.455926,0.47253,0.485699,-0.735395,-0.002884,-0.021092,0.024304,-0.014750999999999998,0.004627,-0.016725
140,0.57139,-0.507289,-1.455192,0.47269399999999995,0.48581,-0.735217,-0.029441000000000002,0.005629,0.025153000000000002,-0.022636,-0.0028539999999999998,-0.017484
141,0.5719489999999999,-0.50726,-1.454706,0.473112,0.485784,-0.7349640000000001,-0.015552000000000002,-0.000768,0.014575999999999999,-0.016798,0.001169,0.0189
142,0.571941,-0.507288,-1.454567,0.473099,0.485808,-0.734957,-0.0005679999999999999,-0.0018390000000000001,0.002931,0.004409000000000001,0.018632,-0.012662999999999999
143,0.571987,-0.508007,-1.454748,0.472944,0.486437,-0.734641,-0.038678,0.028267,-0.033693,0.007051000000000001,0.008986,-0.027932
144,0.572693,-0.508926,-1.454523,0.47322,0.48723999999999995,-0.733931,-0.019633,0.054585,0.028363,-0.039564999999999996,-0.029842,0.015394999999999999
145,0.573166,-0.508793,-1.45403,0.473602,0.487124,-0.733762,-0.023977000000000002,0.018456999999999998,0.009151000000000001,0.037857,0.027281,-0.04906
146,0.574153,-0.509732,-1.453487,0.474077,0.487943,-0.7329100000000001,-0.040816000000000005,0.061162,0.000433,0.008833,-0.0067269999999999995,0.0017690000000000002
147,0.575289,-0.510594,-1.452955,0.474681,0.488696,-0.732017,-0.050485,0.039916,-0.006017,0.012593,0.005308,0.00193
148,0.575799,-0.51117,-1.4527459999999999,0.474901,0.48919799999999997,-0.731539,-0.032473,0.011094,-0.006922,0.009733,0.0014939999999999999,-0.0009289999999999999
149,0.576168,-0.511854,-1.452553,0.474988,0.489795,-0.731083,-0.028163,0.019606000000000002,-0.007970999999999999,-0.001417,0.011197,0.010348999999999999
150,0.576592,-0.5121939999999999,-1.4524139999999999,0.475207,0.490091,-0.730742,-0.01859,0.017425,-0.003629,0.004026,0.011603,0.0034770000000000005
151,0.57743,-0.512588,-1.452035,0.475714,0.49043400000000004,-0.7301810000000001,-0.028148000000000003,0.036594999999999996,0.005894,-0.005804999999999999,0.002623,-0.005323
152,0.5783689999999999,-0.512811,-1.451425,0.47634,0.490629,-0.729643,-0.028214999999999997,0.035474,0.019782,-0.002219,-0.013181,-0.012331
153,0.579623,-0.513454,-1.450623,0.47708100000000003,0.49118900000000004,-0.728781,-0.047304,0.048375,0.006813,0.008667,-0.005837,-0.015191999999999999
154,0.5807479999999999,-0.514174,-1.450229,0.477707,0.491816,-0.7279479999999999,-0.029124,0.040923,-0.010142,0.019363,0.014227000000000002,-0.005649
155,0.58118,-0.5145460000000001,-1.450307,0.477921,0.49213999999999997,-0.727589,-0.003625,0.015276,-0.012067,0.0058130000000000005,0.009798000000000001,0.004734
156,0.581128,-0.514592,-1.450626,0.477871,0.49218,-0.727594,0.009106,-0.001809,-0.013024,0.0045049999999999995,0.008246999999999999,0.001108
157,0.580959,-0.5145069999999999,-1.450867,0.477771,0.492105,-0.7277100000000001,0.002652,-0.005016,-0.004520000000000001,-0.003055,0.0050869999999999995,-0.003186
158,0.580855,-0.514595,-1.4509370000000001,0.477671,0.49218199999999995,-0.7277239999999999,-0.001634,-0.008163,-0.005557,0.006841,0.013097999999999999,-0.005965
159,0.580759,-0.514744,-1.450957,0.47756099999999996,0.49231199999999997,-0.727708,-0.002686,-0.0028420000000000003,-0.003435,0.003503,0.013394999999999999,-0.004241
160,0.580651,-0.5148149999999999,-1.450957,0.477463,0.492374,-0.72773,-0.0037920000000000002,-0.008177,-0.000231,-0.004212,0.011029,-0.000251
161,0.580696,-0.514992,-1.450833,0.477448,0.49252700000000005,-0.727636,-0.010135,0.004628,-0.000292,-0.014130000000000002,0.014186,-0.009195
162,0.5809529999999999,-0.5151359999999999,-1.450758,0.47759700000000005,0.49265299999999995,-0.727454,-0.006881999999999999,0.014213,-0.002418,-0.015576,0.013405000000000002,-0.008081
163,0.581332,-0.5152899999999999,-1.4509,0.47783100000000006,0.492787,-0.72721,0.002821,0.027001,-0.01198,-0.003664,0.012477,-0.010416
164,0.581642,-0.515374,-1.45135,0.478033,0.49286,-0.7270270000000001,0.015661,0.026989999999999997,-0.020436000000000003,0.016382,-0.004854,-0.0038689999999999996
165,0.581568,-0.5152,-1.452213,0.478026,0.492709,-0.7271340000000001,0.036974,0.016285,-0.025615,0.045136,-0.017886000000000003,-0.002664
166,0.580966,-0.514767,-1.4535879999999999,0.477705,0.492332,-0.7276,0.05826900000000001,0.002604,-0.043102999999999995,0.07657,-0.014700999999999999,0.011382999999999999
167,0.579521,-0.514368,-1.455586,0.476761,0.49198400000000003,-0.728454,0.065675,-0.038856,-0.070772,0.090103,-0.0028940000000000003,0.011489
168,0.577531,-0.514307,-1.4575049999999998,0.47532700000000006,0.49193100000000006,-0.729426,0.031382,-0.064338,-0.062433,0.039702999999999995,0.002072,0.028544
169,0.575808,-0.514727,-1.4585549999999998,0.47395699999999996,0.49229700000000004,-0.730071,-0.0017530000000000002,-0.066399,-0.050912,-0.010639000000000001,0.032987,0.034895999999999996
170,0.574713,-0.5151640000000001,-1.45865,0.47303999999999996,0.49267799999999995,-0.730409,-0.026497000000000003,-0.071802,-0.010485,-0.051547,0.035948,0.0046700000000000005
171,0.574621,-0.515713,-1.45777,0.472826,0.493155,-0.730225,-0.047753,-0.03452,0.008546999999999999,-0.045412,0.039697,-0.012054
172,0.574711,-0.515981,-1.457576,0.47281999999999996,0.493389,-0.730071,0.009935,-0.036775,-0.010276,-0.021328,0.063679,-0.017274
173,0.57015,-0.510815,-1.459854,0.470854,0.488889,-0.734356,0.424098,-0.346559,0.110519,-0.00772,0.11008,0.092038
174,0.561103,-0.5026109999999999,-1.4624979999999999,0.46631000000000006,0.481716,-0.741957,0.4576,-0.45016300000000004,0.149341,-0.052202,0.029698000000000002,-0.027925
175,0.5518649999999999,-0.49505200000000005,-1.465362,0.461333,0.475077,-0.749313,0.293406,-0.264748,0.062729,-0.01013,-0.064067,-0.090379
176,0.5513779999999999,-0.49462700000000004,-1.46645,0.46107299999999996,0.474704,-0.7497090000000001,-0.047889999999999995,0.120399,-0.05338,0.003618,-0.039081,-0.07628
177,0.553778,-0.496809,-1.4666860000000002,0.462326,0.47662299999999996,-0.747718,-0.066094,0.108732,-0.050287,-0.002624,-0.013075999999999999,-0.024743
178,0.554786,-0.497965,-1.4666549999999998,0.46278800000000003,0.47763900000000004,-0.746782,-0.02508,0.030605,0.004579,-0.03864,-0.035577,-0.015074
179,0.555068,-0.497892,-1.466051,0.463017,0.477574,-0.746682,-0.028511,-0.000357,0.02489,-0.017781,-0.045079,-0.024299
180,0.5552199999999999,-0.49806000000000006,-1.465214,0.46308900000000003,0.47772200000000004,-0.7465430000000001,-0.044524,-0.005615,0.021581,-0.0121,-0.029129000000000002,-0.022713999999999998
181,0.55593,-0.49868999999999997,-1.464388,0.46346000000000004,0.47827600000000003,-0.745958,-0.06663999999999999,0.041402999999999995,0.004274,-0.008839,-0.010273000000000001,-0.010115
182,0.557557,-0.499978,-1.4636120000000001,0.464346,0.47940699999999997,-0.74468,-0.083173,0.085016,-0.007517,-0.001486,0.005686,-0.008708
183,0.559665,-0.501323,-1.462792,0.46557299999999996,0.48058599999999996,-0.743152,-0.07678600000000001,0.084981,-0.004268,-0.0033840000000000003,0.01798,-0.006848000000000001
184,0.561235,-0.502103,-1.462205,0.46653900000000004,0.48127,-0.742103,-0.040618,0.064601,-0.000784,0.014724000000000001,0.031958999999999994,0.010764
185,0.562199,-0.502162,-1.4619879999999998,0.467239,0.481322,-0.741628,0.006151,0.035637,0.009193000000000002,0.021729,0.034013,0.013997999999999998
186,0.562413,-0.501517,-1.461919,0.467563,0.480756,-0.741791,0.032563999999999996,-0.003944,0.027587999999999998,0.01872,0.033755,0.017136000000000002
187,0.561705,-0.500321,-1.461961,0.467344,0.479707,-0.742608,0.068636,-0.044568,0.032165,0.032260000000000004,0.034362000000000004,0.02366
188,0.561116,-0.499425,-1.462118,0.467134,0.478921,-0.743247,0.038937,-0.022029,0.015906,0.042112000000000004,0.015968,0.015158000000000001
189,0.560721,-0.49881800000000004,-1.462392,0.466995,0.478387,-0.743677,0.026282999999999997,-0.004876,-0.00022799999999999999,0.042251,0.016501,0.015588999999999999
190,0.560592,-0.49877200000000005,-1.46255,0.46691099999999996,0.478347,-0.7437560000000001,0.017004,-0.019011,-0.001234,0.013497,0.009461,0.013364
191,0.559922,-0.498388,-1.462685,0.46651099999999995,0.47801000000000005,-0.744224,0.026438,-0.046779,0.008481,0.005901,0.005633,0.002495
192,0.558611,-0.497651,-1.46294,0.465721,0.47736300000000004,-0.745134,0.048732,-0.075603,0.0044009999999999995,0.006157,0.007531,-0.004149
193,0.557592,-0.497141,-1.463401,0.46508999999999995,0.476915,-0.745815,0.040326,-0.061665,-0.010631,-0.009066,0.0058579999999999995,-0.018971000000000002
194,0.5568310000000001,-0.49692600000000003,-1.464097,0.46457600000000004,0.47672600000000004,-0.746256,0.021366999999999997,-0.018940000000000002,-0.022568,-0.005668,-0.0006360000000000001,-0.019293
195,0.5563319999999999,-0.496913,-1.464513,0.464208,0.476714,-0.746492,0.004259000000000001,-0.015732,-0.010941,-0.036168,-0.012068,-0.012526
196,0.556092,-0.496934,-1.46452,0.46402299999999996,0.476732,-0.746596,-0.003242,-0.008308,0.003952000000000001,-0.043552,-0.007051999999999999,-0.013704
197,0.556005,-0.49687600000000004,-1.46425,0.46397200000000005,0.476682,-0.746659,-0.002247,-0.014741999999999998,0.013581000000000001,-0.028486,-0.00517,-0.019546
198,0.555774,-0.49658100000000005,-1.463978,0.46387399999999995,0.476422,-0.7468859999999999,0.008378,-0.020123,0.017935,-0.017066,0.0052060000000000006,-0.016481
199,0.555279,-0.496058,-1.463905,0.463636,0.475963,-0.7473270000000001,0.023459,-0.020422,0.017221,-0.006177,0.009877,-0.008929000000000001
200,0.55461,-0.495409,-1.4640950000000001,0.46329799999999993,0.475391,-0.7479,0.036251,-0.026841000000000004,0.013046,0.009724,0.018307,0.0033619999999999995
201,0.554104,-0.494767,-1.464569,0.463081,0.474826,-0.748393,0.022636,0.009507,-0.007392,0.024072,0.017468,0.001033
202,0.554161,-0.494802,-1.464874,0.463114,0.474857,-0.7483529999999999,0.004528,0.010657,-0.012861000000000001,0.019826,0.014416,0.000596
203,0.554422,-0.494954,-1.4651399999999999,0.463272,0.474991,-0.74817,0.002418,0.020235,-0.008616,0.014388999999999999,0.012329000000000001,0.018861000000000003
204,0.554458,-0.49482600000000004,-1.465162,0.46333,0.47487799999999997,-0.748206,0.009642,-0.015022,0.010708,0.013080000000000001,0.013066999999999999,0.011801
205,0.553455,-0.494072,-1.46517,0.462768,0.47421499999999994,-0.748974,0.04989,-0.070595,0.020674,0.018113,0.011869,0.019497
206,0.552241,-0.493094,-1.465417,0.46210100000000004,0.47335299999999997,-0.74993,0.040691000000000005,-0.045155,0.012225,0.020061000000000002,0.010381,-0.004968
207,0.5515,-0.492591,-1.465543,0.46166999999999997,0.47291000000000005,-0.750475,0.02156,-0.033353,0.007804000000000001,0.014648,0.013493999999999999,-0.002592
208,0.55101,-0.492252,-1.465411,0.46138599999999996,0.472612,-0.750838,0.01192,-0.032292,0.017349,-0.0057740000000000005,0.010451,0.002135
209,0.550673,-0.491967,-1.46507,0.461204,0.47236000000000006,-0.751108,0.0098,-0.026967,0.019464,-0.0049960000000000004,0.009955,-0.010381999999999999
210,0.5505220000000001,-0.49173900000000004,-1.46479,0.46114700000000003,0.47216,-0.751269,0.006696,-0.013078,0.011947,-0.00027,0.017418,-0.010129
211,0.5504100000000001,-0.49148000000000003,-1.464734,0.46112600000000004,0.47193100000000004,-0.751425,0.020589,-0.009922,0.009903,-0.01029,0.016212,-0.0046630000000000005
212,0.5500149999999999,-0.49084300000000003,-1.46481,0.460987,0.47136999999999996,-0.7518630000000001,0.037519,-0.032386,0.018596,-0.01926,0.012212,-0.006620999999999999
213,0.54932,-0.489992,-1.464791,0.46067299999999994,0.47061899999999995,-0.752525,0.032161,-0.028145,0.028167,-0.015666,0.009316,-0.012993000000000001
214,0.549396,-0.48950699999999997,-1.464515,0.46085,0.47019099999999997,-0.752685,0.004869,0.017516,0.022574,-0.004932,-0.00041799999999999997,-0.018815000000000002
215,0.5503680000000001,-0.48958199999999996,-1.46391,0.461563,0.470257,-0.752206,-0.015315,0.037822,0.023475,-0.001846,8e-05,-0.005286
216,0.551244,-0.489345,-1.463542,0.46228,0.47004799999999997,-0.751897,0.006046,0.03883,0.01935,0.002579,0.008392,0.0046890000000000005
217,0.551607,-0.48887700000000006,-1.463415,0.462668,0.469635,-0.751916,0.027225,0.005724,0.021677000000000002,0.007867,0.010697,0.0025570000000000002
218,0.551481,-0.488075,-1.463437,0.46276999999999996,0.468926,-0.7522949999999999,0.035731,-0.0038810000000000003,0.018544,0.008497,0.008520999999999999,-0.0008179999999999999
219,0.551296,-0.487159,-1.4636069999999999,0.46285600000000005,0.468117,-0.752746,0.043213,-0.001772,0.017525,0.012988999999999999,0.011222,0.005142
220,0.551139,-0.48626199999999997,-1.463653,0.462958,0.46732399999999996,-0.7531760000000001,0.039945999999999995,-0.009247,0.024990000000000002,0.005777,0.015159,0.007159
221,0.551415,-0.48568100000000003,-1.4636639999999999,0.463308,0.466811,-0.7532800000000001,0.011419,0.03248,0.004441,0.034998,0.022493,-0.0073560000000000006
222,0.552665,-0.48617200000000005,-1.4634,0.464128,0.46724499999999997,-0.752505,-0.039681,0.049733,-0.0034159999999999998,0.018248,0.010813,-0.019437
223,0.553242,-0.48653100000000005,-1.4629889999999999,0.464474,0.467563,-0.7520939999999999,-0.005404,-0.001102,0.011725,-0.011517,0.000699,0.023823
224,0.552924,-0.48613599999999996,-1.4629370000000002,0.46433199999999997,0.467213,-0.7523989999999999,0.026491000000000004,-0.025715,0.01198,0.001503,0.005535,0.006672
225,0.5522699999999999,-0.48571400000000003,-1.463103,0.46394399999999997,0.46684,-0.7528699999999999,0.0212,-0.028841000000000002,-0.000872,0.008681999999999999,0.010486,-0.004591
226,0.551713,-0.48547700000000005,-1.463447,0.463582,0.46663000000000004,-0.753223,0.015966,-0.016000999999999998,-0.010539,0.015101,0.016295,-0.001492
227,0.551323,-0.48548800000000003,-1.463794,0.46328500000000006,0.46663999999999994,-0.7533989999999999,0.007451,-0.01171,-0.010604,0.002825,0.014163999999999998,-0.007923000000000001
228,0.551143,-0.48550699999999997,-1.464041,0.463145,0.466657,-0.753475,0.006422,-1e-06,-0.007421,0.005315,0.015581999999999999,-0.004536
229,0.551345,-0.485529,-1.464208,0.463292,0.46667700000000006,-0.753372,0.00115,0.014927000000000001,-0.006409000000000001,-0.0032240000000000003,0.012999,-0.015625
230,0.551689,-0.485613,-1.464261,0.46353,0.46675,-0.7531800000000001,0.002208,0.015976,-0.003198,-0.005935,0.006959,-0.007195999999999999
231,0.551879,-0.48545900000000003,-1.464353,0.463711,0.46661400000000003,-0.753153,0.014924000000000002,0.004183,0.004383,-0.013881999999999999,0.0075829999999999995,-0.005453
232,0.551786,-0.48506000000000005,-1.464515,0.463739,0.466262,-0.753354,0.023449,0.003084,0.0055119999999999995,-0.006157999999999999,0.008119,-0.0034659999999999995
233,0.552033,-0.484862,-1.46462,0.463974,0.466087,-0.753318,0.00647,0.01914,0.0011,-0.0018149999999999998,0.005792,-0.013009
234,0.5523680000000001,-0.484796,-1.464573,0.464242,0.466028,-0.753189,0.001083,0.014866999999999998,0.008546,-0.00657,0.005713,-0.002258
235,0.5527029999999999,-0.48472600000000005,-1.464367,0.46451099999999995,0.465966,-0.753062,-1.3000000000000001e-05,0.012724,0.012813999999999999,-0.002246,0.006614,-0.001318
236,0.552882,-0.48452799999999996,-1.4641959999999998,0.46469499999999997,0.46579,-0.753057,0.008494,0.006302,0.012881,0.001477,0.006225,-0.001322
237,0.55304,-0.48422299999999996,-1.463997,0.464888,0.465521,-0.753105,0.007398,0.003097,0.016082,0.000886,0.0068,-0.001641
238,0.553111,-0.483896,-1.4637790000000002,0.465021,0.46523100000000006,-0.753201,0.009498000000000001,-0.0033060000000000003,0.017174000000000002,0.004736,0.012888,0.002179
239,0.553207,-0.48371099999999995,-1.4634989999999999,0.465139,0.46506800000000004,-0.753229,0.000958,-0.002219,0.019249000000000002,0.006906999999999999,0.009068000000000001,0.002741
240,0.553361,-0.483496,-1.463224,0.46530699999999997,0.46487700000000004,-0.753243,0.002059,0.003112,0.017113,0.006861,0.009212999999999999,-0.0017010000000000003
241,0.553618,-0.48335100000000003,-1.462885,0.46553599999999995,0.46474899999999997,-0.753181,-0.001132,0.005253,0.017088,0.006998000000000001,0.010348999999999999,-0.000359
242,0.553711,-0.483141,-1.4626780000000001,0.465658,0.464563,-0.75322,0.010594,-0.002223,0.011839,0.014994,0.01409,0.000199
243,0.5539810000000001,-0.48307799999999995,-1.46261,0.46587700000000004,0.46450699999999995,-0.753119,-0.001036,0.011705,0.0021260000000000003,0.008945999999999999,0.008851000000000001,-0.009087999999999999
244,0.5541010000000001,-0.483047,-1.462568,0.465975,0.46448,-0.753075,0.004236,-4e-05,0.004314,-0.00197,0.009489000000000001,0.001504
245,0.553972,-0.48284799999999994,-1.462569,0.465926,0.46430299999999997,-0.753215,0.011651,-0.009662,0.006514,-0.004012,0.007209,-0.002065
246,0.553629,-0.48257700000000003,-1.4626549999999998,0.46573400000000004,0.464063,-0.7534810000000001,0.01589,-0.017130000000000003,0.005485,0.000956,0.011828,-0.004591
247,0.553367,-0.482307,-1.462692,0.46560200000000007,0.463825,-0.753709,0.011656,-0.009658,0.005446,0.001912,0.012081999999999999,-0.0011279999999999999
248,0.553283,-0.48216499999999995,-1.462661,0.46557299999999996,0.46369799999999994,-0.7538050000000001,0.0063549999999999995,-0.002183,0.0054,0.0025050000000000003,0.013475,-0.004801
249,0.553226,-0.482008,-1.462617,0.46556899999999996,0.463559,-0.753893,0.007408,-0.005382,0.005411,0.004448,0.01163,-0.002409
250,0.5530579999999999,-0.48184099999999996,-1.4626059999999999,0.465483,0.46341099999999996,-0.754037,0.00845,-0.009651,0.006492,-0.000334,0.010893,-0.002448
251,0.552897,-0.48169399999999996,-1.4625629999999998,0.465397,0.46328100000000005,-0.75417,0.006326,-0.007513,0.006475,-0.001805,0.009878,-0.0009570000000000001
252,0.552888,-0.48162200000000005,-1.462483,0.465408,0.463217,-0.754203,0.001026,-3.8e-05,0.006428,-0.00122,0.009943,-0.00483
253,0.553028,-0.48159700000000005,-1.462373,0.46551899999999996,0.46319499999999997,-0.7541479999999999,-0.002137,0.006374,0.004261,0.000637,0.00995,-0.005435
254,0.553194,-0.481601,-1.462205,0.46564300000000003,0.46319899999999997,-0.754069,-0.00218,0.003152,0.010674,-0.0009519999999999999,0.010052,-0.002554
255,0.553303,-0.48146400000000006,-1.461962,0.46575900000000003,0.463077,-0.7540720000000001,0.002045,-0.001145,0.01605,-0.0035549999999999996,0.008159999999999999,-0.003329
256,0.5534479999999999,-0.481303,-1.4616870000000002,0.465908,0.46293500000000004,-0.754067,0.0010019999999999999,0.003124,0.014969,-0.001018,0.008043000000000002,-0.004767
257,0.553713,-0.481203,-1.46137,0.466131,0.462846,-0.753984,-0.004318,0.006338,0.014928,-0.001227,0.006011,-0.005248
258,0.554028,-0.481187,-1.4610370000000001,0.46637399999999996,0.46283199999999997,-0.753843,-0.006428,0.00955,0.012773,-0.002598,0.007719,-0.004915999999999999
259,0.554349,-0.48118299999999997,-1.460701,0.466616,0.46282799999999996,-0.753695,-0.0064329999999999995,0.009545999999999999,0.013841,-0.006776999999999999,0.0076,-0.005476
260,0.554567,-0.48121400000000003,-1.4602629999999999,0.46677299999999994,0.462855,-0.7535810000000001,0.0040100000000000005,-0.023546,0.024585,-0.020469,-0.0016579999999999998,-0.001256
261,0.554118,-0.480469,-1.460438,0.466616,0.46219499999999997,-0.754083,0.03405,-0.006525,0.004477,0.014478999999999999,0.023339,-0.011358
262,0.554481,-0.480407,-1.460151,0.466905,0.46213999999999994,-0.753938,-0.005438,0.0052710000000000005,0.019141,-0.009538,0.017153,0.00044400000000000006
263,0.555143,-0.480304,-1.459751,0.467429,0.462049,-0.7536689999999999,-0.001084,0.026552999999999997,0.02128,0.007486,0.022997,-0.004220000000000001
264,0.555608,-0.47970100000000004,-1.4592530000000001,0.467926,0.46151400000000004,-0.753688,0.025366999999999997,0.002921,0.047133,0.011719,0.036655,-0.00243
265,0.555678,-0.477991,-1.458402,0.468395,0.45999700000000004,-0.754325,0.076178,-0.033685,0.099877,0.002095,0.06396,-0.001489
266,0.554802,-0.47479899999999997,-1.4568709999999998,0.468504,0.45716,-0.755979,0.10968,-0.105459,0.170706,-0.0070019999999999995,0.070108,-0.006075
267,0.553894,-0.470584,-1.4539739999999999,0.46882700000000005,0.45340699999999995,-0.758037,0.112579,-0.09300599999999999,0.250827,-0.00026000000000000003,0.076668,-0.001241
268,0.5544020000000001,-0.465797,-1.449747,0.47034899999999996,0.44913500000000006,-0.7596350000000001,0.104967,-0.066583,0.309492,0.021945,0.085273,-0.036538
269,0.5557479999999999,-0.46047299999999997,-1.444485,0.47262600000000005,0.44437200000000004,-0.761022,0.111272,-0.03486,0.36290700000000004,-0.0015869999999999999,0.07459500000000001,-0.015177000000000001
270,0.558163,-0.453842,-1.4385,0.476013,0.43842200000000003,-0.762361,0.16126600000000002,-0.002277,0.42944399999999994,-0.025574,0.071893,-0.006102000000000001
271,0.560113,-0.445808,-1.432257,0.47935500000000003,0.431187,-0.7643909999999999,0.226899,-0.078295,0.46845600000000004,-0.042388999999999996,0.05625499999999999,0.001375
272,0.560631,-0.436514,-1.426552,0.48186,0.422783,-0.7675029999999999,0.28129,-0.088051,0.46350699999999995,-0.034656,0.031501999999999995,-0.003188
273,0.561296,-0.427004,-1.4217309999999999,0.48448900000000006,0.414146,-0.770552,0.285873,-0.054894000000000005,0.426109,-0.037101999999999996,0.021874,-0.004595
274,0.562004,-0.418178,-1.417559,0.486964,0.406096,-0.773271,0.299781,-0.075067,0.39739,-0.034663,-0.017866999999999997,-0.014769
275,0.560372,-0.409004,-1.414245,0.48766099999999996,0.397696,-0.777188,0.320792,-0.178349,0.36669,0.0027719999999999997,-0.016196000000000002,-0.024829
276,0.5574640000000001,-0.399882,-1.41169,0.48729799999999995,0.389309,-0.7816489999999999,0.338929,-0.21130300000000002,0.333744,0.010841,-0.009198,-0.015958
277,0.5562,-0.392696,-1.409167,0.487774,0.38268,-0.78462,0.179002,0.0025,0.285352,0.004124,-0.05898,-0.009264
278,0.554319,-0.386294,-1.406984,0.487576,0.376758,-0.7876029999999999,0.207156,-0.187039,0.24092600000000003,0.010806,-0.016086000000000003,0.023062
279,0.551171,-0.380676,-1.405019,0.486195,0.37154899999999996,-0.790925,0.201975,-0.178396,0.215241,-0.008916,-0.030255,0.009766
280,0.549219,-0.37553800000000004,-1.4036440000000001,0.485641,0.366773,-0.7934899999999999,0.169425,-0.106728,0.17005699999999999,0.00911,-0.027860000000000003,0.030595999999999998
281,0.547551,-0.371429,-1.40279,0.485097,0.362948,-0.795579,0.15902,-0.102213,0.115499,-0.00948,-0.040438,0.000718
282,0.545855,-0.368035,-1.403083,0.484383,0.359783,-0.797449,0.145519,-0.07849400000000001,0.056622000000000006,-0.015603,-0.054653,0.0013830000000000001
283,0.544006,-0.365703,-1.40343,0.48334099999999997,0.357605,-0.799059,0.089004,-0.091003,0.037015,-0.024952000000000002,-0.052826,0.023882
284,0.542272,-0.363452,-1.4037389999999998,0.48236899999999994,0.355503,-0.800583,0.117843,-0.064549,0.056411,-0.012475,0.055904999999999996,-0.051193
285,0.538245,-0.359267,-1.404403,0.4799,0.351588,-0.80379,0.22879499999999997,-0.28976199999999996,0.070293,-0.010005,0.059819000000000004,-0.047986
286,0.53214,-0.354633,-1.407392,0.47580500000000003,0.347246,-0.8081,0.225836,-0.107152,-0.038919999999999996,0.0016879999999999998,-0.067598,0.013590000000000001
287,0.5309149999999999,-0.353193,-1.4101860000000002,0.47506800000000005,0.345895,-0.809113,0.079333,-0.002016,-0.096694,-0.012742,-0.068231,-0.019195
288,0.529705,-0.35365599999999997,-1.4128180000000001,0.474008,0.34633,-0.8095479999999999,0.030344,-0.0145,-0.12906700000000002,-0.022119,-0.055192,-0.001594
289,0.52833,-0.355657,-1.4155209999999998,0.47254300000000005,0.348207,-0.809599,-0.056923,-0.008697,-0.172413,-0.009104000000000001,-0.038728,-0.001192
290,0.528737,-0.359496,-1.417617,0.472195,0.351802,-0.808247,-0.148175,0.09074,-0.184928,-0.009442,-0.043726999999999995,0.028096
291,0.530721,-0.364158,-1.4190530000000001,0.472963,0.356163,-0.8058850000000001,-0.19175799999999998,0.132412,-0.178876,-0.040269,-0.060585,0.035362
292,0.531953,-0.36946,-1.420164,0.47298999999999997,0.361112,-0.803663,-0.213412,0.054751999999999995,-0.186406,-0.038984,-0.058759000000000006,0.031629000000000004
293,0.5334220000000001,-0.37505900000000003,-1.421044,0.47313500000000003,0.36632800000000004,-0.801214,-0.242011,0.113391,-0.173862,-0.03147,-0.047434,-0.034602
294,0.536407,-0.382182,-1.420238,0.474179,0.37294499999999997,-0.797535,-0.39774899999999996,0.163824,-0.13014900000000001,-0.034513,-0.039632,-0.043087
295,0.5432,-0.391574,-1.415791,0.477754,0.381644,-0.791262,-0.56616,0.316273,-0.012948,-0.017946,0.007333,-0.057356
296,0.552246,-0.399717,-1.408395,0.483246,0.38915700000000003,-0.7842359999999999,-0.497605,0.28031500000000004,0.128582,0.054886000000000004,0.128344,-0.045644
297,0.560062,-0.404498,-1.399027,0.488367,0.393557,-0.778849,-0.410321,0.170658,0.30238400000000004,0.069052,0.13850099999999999,-0.037984
298,0.566793,-0.407107,-1.38711,0.49304499999999996,0.395955,-0.774676,-0.41661800000000004,0.088123,0.43490500000000004,0.047406000000000004,0.098095,-0.022642
299,0.574005,-0.40954,-1.373271,0.49809499999999995,0.398188,-0.770288,-0.47337299999999993,0.094499,0.487912,0.032514999999999995,0.044134,0.004693999999999999
300,0.580429,-0.41213,-1.3589040000000001,0.5024649999999999,0.400562,-0.766208,-0.43960299999999997,-0.010988,0.464782,0.04824,0.039395,0.0052369999999999995
301,0.583108,-0.41390299999999997,-1.346323,0.504124,0.402185,-0.764265,-0.358116,-0.19647699999999998,0.427133,0.043207999999999996,0.03533,0.019911
302,0.580743,-0.41458500000000004,-1.336191,0.502165,0.40281100000000003,-0.765225,-0.22297399999999998,-0.37869400000000003,0.323625,0.036623,0.033545,0.030758999999999998
303,0.575206,-0.414441,-1.3290170000000001,0.49795100000000003,0.40267800000000004,-0.768043,-0.156824,-0.44470299999999996,0.256873,0.034504,0.037202,0.019492
304,0.568495,-0.41403999999999996,-1.323805,0.49287299999999995,0.402312,-0.7715029999999999,-0.072264,-0.46703100000000003,0.173103,0.044679,0.030748,-0.021769999999999998
305,0.56108,-0.41295699999999996,-1.320924,0.487371,0.40131999999999995,-0.775505,-0.003438,-0.37872100000000003,0.14035599999999998,0.018397,0.051348000000000005,-0.029151999999999997
306,0.5546800000000001,-0.41112299999999996,-1.319175,0.482784,0.39963899999999997,-0.779233,0.048069,-0.35211,0.10115700000000001,0.034199,0.049854,-0.023456
307,0.549234,-0.408833,-1.318641,0.479009,0.397538,-0.78263,0.101097,-0.21899899999999997,0.067174,0.01208,0.026,0.002707
308,0.5452199999999999,-0.406497,-1.320078,0.47634399999999993,0.395394,-0.785338,0.148893,-0.132463,-0.036220999999999996,0.013127000000000002,0.049811,-0.00992
309,0.542007,-0.40455100000000005,-1.323811,0.47421499999999994,0.393606,-0.787522,0.191167,-0.074722,-0.126798,-0.032809,0.020669999999999997,-0.020477000000000002
310,0.5385,-0.402327,-1.329696,0.47189799999999993,0.391561,-0.789929,0.26515900000000003,-0.070399,-0.20640300000000003,-0.025639,0.038995999999999996,-0.038379
311,0.533269,-0.399466,-1.337835,0.46832700000000005,0.38892600000000005,-0.793349,0.342021,-0.126858,-0.273092,-0.012943999999999999,0.067785,-0.06411900000000001
312,0.525038,-0.396415,-1.347799,0.46237399999999995,0.386114,-0.7982,0.371875,-0.216256,-0.341204,-0.003283,0.08822100000000001,-0.045382
313,0.516355,-0.393965,-1.35867,0.455891,0.383853,-0.803005,0.344242,-0.24259099999999997,-0.39157,-0.008029999999999999,0.08770499999999999,-0.031529
314,0.507365,-0.391705,-1.370049,0.449074,0.381765,-0.8078270000000001,0.39307800000000004,-0.327855,-0.423166,-0.012597,0.11725899999999999,0.001217
315,0.49622,-0.388271,-1.382464,0.440665,0.378589,-0.813929,0.450665,-0.337627,-0.42702399999999996,-0.012214000000000001,0.178677,0.081492
316,0.48331199999999996,-0.384346,-1.396193,0.430809,0.37495300000000004,-0.820859,0.503883,-0.42386599999999997,-0.48529399999999995,-0.069252,0.22293200000000002,0.06506100000000001
317,0.46595600000000004,-0.378606,-1.41214,0.417459,0.369626,-0.8301209999999999,0.65364,-0.640372,-0.551269,-0.085855,0.19758900000000001,0.06138300000000001
318,0.445705,-0.371454,-1.430172,0.40169299999999997,0.36296999999999996,-0.8407690000000001,0.713384,-0.704241,-0.614863,-0.058065,0.10849600000000001,0.054758
319,0.424791,-0.36433000000000004,-1.44885,0.385079,0.356323,-0.8513200000000001,0.688904,-0.715775,-0.639588,-0.062981,0.03392,0.047823000000000004
320,0.40520300000000004,-0.358212,-1.46621,0.369182,0.350601,-0.8606860000000001,0.579142,-0.646315,-0.598783,-0.057094000000000006,0.009736,0.046782
321,0.38842600000000005,-0.35366,-1.4814889999999998,0.35529299999999997,0.346333,-0.8682270000000001,0.44712399999999997,-0.525716,-0.540039,-0.055763,-0.025960000000000004,0.059496
322,0.37594,-0.351076,-1.4938639999999999,0.344752,0.343909,-0.873425,0.256673,-0.328303,-0.45937,-0.07516,-0.157736,0.06947
323,0.368644,-0.351643,-1.503204,0.3383,0.34444,-0.875735,0.059855,-0.139325,-0.394757,-0.053876,-0.169086,0.077319
324,0.364661,-0.354774,-1.5095690000000002,0.334423,0.347379,-0.8760629999999999,-0.08004800000000001,-0.079549,-0.303944,-0.054347,-0.181653,0.07513
325,0.363023,-0.359503,-1.513275,0.3324,0.35180900000000004,-0.875065,-0.21111799999999997,0.045183999999999995,-0.21422,0.013134999999999999,-0.243975,0.086811
326,0.365367,-0.366519,-1.513412,0.33355999999999997,0.35836799999999996,-0.871956,-0.379855,0.133683,-0.088394,0.037502999999999995,-0.304642,0.039711
327,0.371004,-0.375769,-1.5099799999999999,0.337254,0.36698800000000004,-0.866935,-0.570613,0.302176,0.031835,0.04919,-0.31292600000000004,0.012352
328,0.382073,-0.38688,-1.503059,0.345288,0.377301,-0.8593120000000001,-0.63427,0.475659,0.12624000000000002,0.09288400000000001,-0.208051,-0.068498
329,0.396574,-0.39708899999999997,-1.495313,0.356205,0.386735,-0.850618,-0.5962149999999999,0.6438020000000001,0.135904,0.063503,-0.064424,-0.097914
330,0.413786,-0.40610799999999997,-1.488059,0.369375,0.39503699999999997,-0.841133,-0.511396,0.756451,0.129943,0.037805,-0.033846,-0.078911
331,0.43136499999999994,-0.41282299999999994,-1.481759,0.382986,0.40119699999999997,-0.832082,-0.371728,0.7336,0.12881199999999998,0.013133,0.042666,-0.058559
332,0.44610500000000003,-0.416828,-1.4761360000000001,0.394512,0.404862,-0.82489,-0.244596,0.557295,0.152358,0.015293000000000001,0.080535,-0.06871000000000001
333,0.457374,-0.418946,-1.4711610000000002,0.403403,0.406798,-0.8196209999999999,-0.179031,0.436654,0.161517,0.043451,0.106584,-0.032811
334,0.46727700000000005,-0.420146,-1.466921,0.411279,0.407894,-0.815149,-0.106623,0.387471,0.143926,0.043539999999999995,0.093373,0.001719
335,0.47500699999999996,-0.419763,-1.464099,0.41763999999999996,0.407544,-0.812084,-0.002368,0.27968000000000004,0.103131,0.007898,0.07316900000000001,-0.009418000000000001
336,0.47967299999999996,-0.41817,-1.463125,0.42172299999999996,0.406089,-0.810702,0.08277000000000001,0.183704,0.054711,-0.013916,0.083062,-0.008512
337,0.48234399999999994,-0.41604300000000005,-1.46421,0.42428699999999997,0.404144,-0.810336,0.139496,0.142289,-0.027093,-0.026017000000000002,0.07939199999999999,-0.009168
338,0.48339399999999993,-0.413588,-1.4671239999999999,0.425597,0.401898,-0.810766,0.197035,0.079425,-0.073612,-0.009414,0.056659,-0.012827000000000002
339,0.482392,-0.41078000000000003,-1.471099,0.425307,0.39932399999999996,-0.812189,0.21603699999999998,0.003848,-0.104361,0.011858,0.049467000000000004,-0.01351
340,0.48007299999999997,-0.407875,-1.475558,0.42395600000000006,0.39666,-0.814198,0.237168,-0.040972,-0.10308800000000001,0.036035000000000005,0.060478,-0.00912
341,0.477955,-0.404435,-1.4792290000000001,0.42285600000000007,0.393499,-0.816301,0.224217,-0.00923,-0.038058,0.036373,0.05993099999999999,-0.012983000000000001
342,0.478372,-0.401473,-1.481249,0.423731,0.390775,-0.817156,0.14349,0.102775,-0.00565,0.043539,0.015841,-0.006666
343,0.48035,-0.400545,-1.482609,0.42551400000000006,0.38992,-0.816637,0.028624,0.152299,-0.036426,0.025231,-0.066098,-0.032208999999999995
344,0.48531899999999994,-0.402362,-1.4831239999999999,0.42923500000000003,0.39159299999999997,-0.8138850000000001,-0.11550099999999999,0.323427,-0.082517,0.033747000000000006,-0.070075,-0.035052999999999994
345,0.49363599999999996,-0.40625500000000003,-1.483184,0.43526400000000004,0.39517199999999997,-0.808938,-0.198175,0.434544,-0.092851,0.016030000000000003,-0.05851699999999999,-0.020636
346,0.5027699999999999,-0.410095,-1.482034,0.4419,0.398696,-0.803593,-0.170782,0.44687200000000005,-0.002945,0.055399000000000004,0.021516,-0.050929
347,0.510551,-0.41064799999999996,-1.480624,0.448032,0.399204,-0.799938,0.017945,0.255245,0.069121,0.036755,0.08880299999999999,-0.028187
348,0.513925,-0.407657,-1.478927,0.451312,0.396459,-0.799458,0.128897,0.12976600000000002,0.183289,0.004117,0.08349,-0.002345
349,0.519085,-0.401575,-1.4770780000000001,0.45661999999999997,0.390869,-0.799197,0.27117800000000003,0.263301,0.232181,-0.008072,0.033645999999999995,-0.045392
350,0.524435,-0.393841,-1.47642,0.462388,0.383739,-0.7993359999999999,0.33618000000000003,0.219505,0.205986,-0.067277,-0.006953,-0.044475
351,0.528015,-0.38618800000000003,-1.476695,0.466714,0.37666,-0.800189,0.346777,0.164231,0.166607,-0.08380900000000001,-0.023908000000000002,-0.015316999999999999
352,0.529989,-0.378891,-1.478226,0.46966899999999995,0.36989,-0.801616,0.367071,0.111131,0.10806400000000001,-0.053119000000000006,-0.032107,0.014597999999999998
353,0.53108,-0.372087,-1.480859,0.47180600000000006,0.363561,-0.803255,0.34705,0.101875,0.042775,-0.042806,-0.02332,-0.008436
354,0.531723,-0.36671,-1.484528,0.473308,0.35854600000000003,-0.804625,0.300554,0.126838,-0.032358,-0.050792000000000004,-0.039149,-0.007645999999999999
355,0.532841,-0.362471,-1.4889219999999999,0.47497399999999995,0.354585,-0.805397,0.27414099999999997,0.140955,-0.07635700000000001,-0.039687,-0.016451,0.014931
356,0.533529,-0.359298,-1.4928569999999999,0.476099,0.351617,-0.8060350000000001,0.192796,0.089014,-0.07045,-0.022744999999999998,0.012213,0.04099
357,0.533594,-0.358116,-1.495018,0.476362,0.35051,-0.806361,0.047266,0.012742,-0.051072,-0.013365,0.029845999999999998,0.06138099999999999
358,0.533355,-0.35975799999999997,-1.495529,0.475876,0.352048,-0.805979,-0.14047300000000001,-0.00037,-0.072663,-0.013687000000000001,0.011051,0.11794400000000001
359,0.532831,-0.365498,-1.494298,0.47442,0.357414,-0.804473,-0.34976,-0.078315,-0.112481,-0.048272,0.0051649999999999995,0.103973
360,0.530373,-0.373664,-1.492712,0.470948,0.365029,-0.8030930000000001,-0.391698,-0.198357,-0.159622,-0.065415,0.000999,0.093178
361,0.525016,-0.381655,-1.492358,0.465163,0.37245700000000004,-0.803054,-0.324865,-0.32306599999999996,-0.19958800000000002,-0.063139,0.036631,0.02748
362,0.516191,-0.389024,-1.493233,0.45669,0.379286,-0.804719,-0.285901,-0.481893,-0.22801999999999997,-0.039667,0.046557,-0.007704000000000001
363,0.504692,-0.395958,-1.495568,0.446125,0.38569200000000003,-0.807596,-0.21759299999999998,-0.5425840000000001,-0.294763,-0.018512,0.022603,-0.005362
364,0.492604,-0.401391,-1.500679,0.435332,0.39069899999999996,-0.811071,-0.06661900000000001,-0.47578000000000004,-0.348273,0.004609,-0.026913999999999997,-0.057322000000000005
365,0.481908,-0.404568,-1.507463,0.426055,0.393621,-0.814577,0.039570999999999995,-0.357871,-0.35622800000000004,0.09625299999999999,-0.012320000000000001,-0.11475999999999999
366,0.47315799999999997,-0.40783400000000003,-1.515318,0.41832299999999994,0.396622,-0.817125,-0.003385,-0.23818699999999998,-0.412229,0.084836,-0.020371,-0.10119500000000001
367,0.46745699999999996,-0.41241099999999997,-1.5221200000000001,0.412836,0.400819,-0.817867,-0.093718,-0.089019,-0.34148,0.042792000000000004,0.020811,-0.036976
368,0.465233,-0.41648900000000005,-1.525728,0.410279,0.404552,-0.8173159999999999,-0.111272,-0.031034,-0.175035,0.084961,0.097706,0.014109
369,0.464021,-0.418191,-1.526627,0.40898,0.40610799999999997,-0.817196,-0.018122,-0.045807,-0.024814,0.071062,0.073324,0.025204
370,0.463354,-0.41761099999999995,-1.526127,0.408539,0.405578,-0.817679,0.014616,-0.039855,0.056591999999999996,0.037489999999999996,0.025162,0.004004
371,0.46383,-0.41674399999999995,-1.524507,0.409086,0.40478600000000003,-0.8177979999999999,-0.007731,0.014386000000000001,0.098027,0.039919,-7.7e-05,-0.007640999999999999
372,0.466395,-0.41680200000000006,-1.521839,0.41117200000000004,0.404839,-0.816725,-0.091615,0.11476800000000001,0.10906300000000001,0.037544,-0.003258,-0.021837
373,0.471742,-0.418634,-1.518281,0.41519399999999995,0.406513,-0.8138529999999999,-0.18599100000000002,0.236566,0.101838,-0.015475,-0.013401,-0.017476
374,0.479459,-0.421972,-1.513808,0.42083400000000004,0.40956,-0.809417,-0.25613,0.30283699999999997,0.10660499999999999,-0.027188,-0.030456,0.006591
375,0.486004,-0.425759,-1.50956,0.42539499999999997,0.413012,-0.805268,-0.227675,0.193142,0.074897,-0.02943,-0.023455,0.008988
376,0.489654,-0.42834700000000003,-1.506775,0.427828,0.415367,-0.802764,-0.155406,0.099273,0.043476,-0.018557,0.002357,-0.011811
377,0.49145200000000006,-0.430226,-1.504615,0.42890100000000003,0.417076,-0.801303,-0.132266,0.021443,0.039464,-0.012931999999999999,0.032798,-0.015134
378,0.493147,-0.43210200000000004,-1.502572,0.42988699999999996,0.418781,-0.7998850000000001,-0.129878,0.076834,0.038342,-0.012026,0.041318,-0.015057
379,0.495476,-0.4343,-1.5006950000000001,0.43131099999999994,0.42077600000000004,-0.7980689999999999,-0.142599,0.07589,0.019025999999999998,-0.011649,0.038285,-0.027675
380,0.497051,-0.436238,-1.498984,0.43217700000000003,0.422533,-0.796671,-0.101303,0.010747,0.023671,-0.020877,0.036543,-0.027685
381,0.496856,-0.43699799999999994,-1.497961,0.43186899999999995,0.42322200000000004,-0.7964720000000001,-0.031116,-0.040628,0.023159,-0.027618,0.028926999999999998,-0.012853999999999999
382,0.496104,-0.437003,-1.497686,0.43126899999999996,0.42322600000000005,-0.796795,0.010573,-0.037518,0.008491,-0.029917000000000003,0.024191999999999998,-0.004856
383,0.495364,-0.43665600000000004,-1.49789,0.430749,0.422912,-0.797243,0.025605000000000003,-0.026875,-0.0021,-0.031991000000000006,0.019806,-0.012922
384,0.494914,-0.436539,-1.498317,0.430413,0.422806,-0.797481,0.007651000000000001,-0.002246,-0.01828,-0.025856999999999998,0.0077670000000000005,-0.018971000000000002
385,0.49489799999999995,-0.436968,-1.498807,0.43031499999999995,0.42319399999999996,-0.7973279999999999,-0.013519,0.020258,-0.033412,-0.028763999999999998,-0.005775,-0.014546000000000002
386,0.495175,-0.437892,-1.499387,0.430349,0.42403100000000005,-0.796864,-0.033669,0.032107,-0.048523000000000004,-0.025305,-0.013203999999999999,-0.003886
387,0.495332,-0.43913500000000005,-1.500084,0.43022299999999997,0.42515699999999995,-0.7963319999999999,-0.040075,0.021515,-0.058168,-0.021516999999999998,-0.009859,-0.004083
388,0.495546,-0.44068199999999996,-1.5007059999999999,0.43008100000000005,0.42655699999999996,-0.795661,-0.067732,0.035477,-0.062652,-0.010602,-0.001325,-0.009774
389,0.496621,-0.44293699999999997,-1.501011,0.430476,0.428595,-0.79435,-0.10911900000000001,0.08250299999999999,-0.065138,-0.000148,0.011133,-0.001686
390,0.49865,-0.445733,-1.500898,0.43151300000000004,0.43112,-0.79242,-0.13358499999999998,0.105995,-0.057862000000000004,-0.004099,-0.001707,-0.0038299999999999996
391,0.500676,-0.448416,-1.500532,0.432561,0.433539,-0.7905260000000001,-0.11773499999999999,0.086704,-0.042770999999999997,-0.00771,0.013177000000000001,0.005095000000000001
392,0.502145,-0.45018199999999997,-1.500213,0.43335200000000007,0.435129,-0.789218,-0.068871,0.059820000000000005,-0.022099,0.008588,0.042883,0.011736
393,0.50338,-0.451275,-1.499883,0.434097,0.43611300000000003,-0.788265,-0.049754,0.052249000000000004,-0.010205,0.003464,0.036314,0.0031850000000000003
394,0.504632,-0.45230299999999996,-1.499577,0.434866,0.43703800000000004,-0.787328,-0.051838999999999996,0.056542999999999996,-0.016635,0.01272,0.036701,-0.012355
395,0.505396,-0.453016,-1.4997040000000001,0.435317,0.43768,-0.786722,-0.008199,0.027654,-0.022702,0.009263,0.027576,0.003626
396,0.505192,-0.452883,-1.500204,0.435184,0.43756000000000006,-0.786862,0.035308,-0.011965,-0.009529000000000001,0.007885,0.030945999999999998,0.002957
397,0.50442,-0.452007,-1.500818,0.434762,0.43677200000000005,-0.787533,0.07247999999999999,-0.035587,0.004647999999999999,-0.004677000000000001,0.023586000000000003,-0.0032380000000000004
398,0.5030859999999999,-0.45042600000000005,-1.501647,0.434043,0.435349,-0.788716,0.095855,-0.056974000000000004,0.004838,-0.014854,0.011032,-0.004405
399,0.501502,-0.448805,-1.502605,0.43313199999999996,0.433889,-0.790021,0.094779,-0.061223,0.0027,0.012532,0.029977999999999998,-0.016788
400,0.500235,-0.44749300000000003,-1.503306,0.432404,0.43270699999999995,-0.791067,0.064974,-0.041961,0.00674,0.003677,0.018908,-0.016596
401,0.499389,-0.446329,-1.5036610000000001,0.431975,0.43165699999999996,-0.791875,0.060716,-0.027083,0.01951,-0.012740000000000001,0.011275,-0.007379999999999999
402,0.49896999999999997,-0.445083,-1.503845,0.43190100000000003,0.43053199999999997,-0.7925270000000001,0.05752,-0.020702,0.02482,-0.012116,0.015222999999999999,-0.010665000000000001
403,0.49837200000000004,-0.44383599999999995,-1.504075,0.431683,0.429407,-0.793257,0.069251,-0.027112999999999998,0.019569,-0.017468,0.01319,-0.008242
404,0.49722799999999995,-0.44227,-1.504751,0.431095,0.427992,-0.7943399999999999,0.09374600000000001,-0.05164,0.004817,-0.016666,0.01288,-0.007464
405,0.495536,-0.440188,-1.506026,0.43017299999999997,0.42611000000000004,-0.79585,0.14066800000000002,-0.06137000000000001,-0.000184,-0.017163,0.009178,0.004514
406,0.49341,-0.43742600000000004,-1.507464,0.429036,0.42361000000000004,-0.797796,0.154379,-0.08277899999999999,0.013826,-0.024753999999999998,0.024724,-0.008341
407,0.491333,-0.43487700000000007,-1.508614,0.427886,0.421299,-0.799636,0.128803,-0.075237,0.014706,-0.003325,0.032238,-0.011705
408,0.489663,-0.432878,-1.509587,0.426946,0.41948500000000005,-0.80109,0.102285,-0.052726999999999996,0.002741,-0.0070079999999999995,0.018915,-0.006587999999999999
409,0.48847299999999994,-0.43148000000000003,-1.510615,0.426266,0.41821499999999995,-0.8021149999999999,0.075777,-0.028086,-0.009226,-0.017224,0.007947,-0.001474
410,0.48777600000000004,-0.43065299999999995,-1.511503,0.42586899999999994,0.417465,-0.802717,0.049214999999999995,-0.009857,-0.015844,-0.022106,0.001542,-0.001513
411,0.48672600000000005,-0.42976499999999995,-1.512402,0.4252,0.41665699999999994,-0.803491,0.073528,-0.056826999999999996,-0.012409,-0.023909,-0.0021219999999999998,0.000528
412,0.483699,-0.42794799999999994,-1.5137690000000001,0.423116,0.415005,-0.8054439999999999,0.13492200000000001,-0.16251300000000002,-0.009709,0.019327,0.016040000000000002,-0.006797
413,0.47926899999999995,-0.425592,-1.515608,0.419994,0.41286000000000006,-0.808176,0.136071,-0.175323,-0.024697,0.027957999999999997,0.014569,-0.008353
414,0.47649600000000003,-0.424353,-1.517244,0.41798599999999997,0.411731,-0.809791,0.054546000000000004,-0.052466,-0.041448,0.028593,0.012371,-0.0033200000000000005
415,0.47596000000000005,-0.424591,-1.518161,0.41750699999999996,0.411948,-0.809928,-0.008169,0.00313,-0.037683999999999995,0.010594,0.01188,-0.00335
416,0.475771,-0.425116,-1.518506,0.41725500000000004,0.412426,-0.809814,-0.012570999999999999,-0.006523,-0.017406,-0.003879,0.010791,0.001983
417,0.47554300000000005,-0.425426,-1.518567,0.41701099999999997,0.412709,-0.809796,-0.012423,-0.009819,-0.00868,-0.000278,0.014385,-0.004154
418,0.47550699999999996,-0.425651,-1.5185870000000001,0.41694,0.41291300000000003,-0.809728,-0.0038640000000000002,-0.0024,-0.0064930000000000005,-0.00448,0.016637,-0.005991
419,0.475458,-0.425688,-1.51883,0.416893,0.412948,-0.809735,0.006867,0.0039840000000000006,-0.013904,-0.007698,0.0103,-0.005222
420,0.475711,-0.425774,-1.5192459999999999,0.41708199999999995,0.413025,-0.8095979999999999,0.004877,0.029582999999999998,-0.02036,-0.008375,0.013838999999999999,-0.00838
421,0.476096,-0.42585,-1.5197100000000001,0.417379,0.413095,-0.809409,0.009120999999999999,0.026364,-0.01819,-0.009634,0.020758000000000002,-0.00509
422,0.476191,-0.425774,-1.520154,0.41747,0.413026,-0.809398,0.018616999999999998,0.0082,-0.012759,-0.011724,0.015562999999999999,-0.002431
423,0.476101,-0.42544099999999996,-1.520536,0.41746000000000005,0.41272299999999995,-0.809557,0.024950999999999997,0.0017519999999999999,-0.004161,-0.016658000000000003,0.014768,-0.003431
424,0.475379,-0.42489,-1.520815,0.41698,0.41222,-0.8100609999999999,0.056688,-0.048466,0.005739,-0.056186,-0.010212,-0.016874
425,0.475108,-0.42407399999999995,-1.5215,0.416914,0.41147700000000004,-0.810473,0.042078,0.000682,-0.017927000000000002,-0.0018899999999999998,0.020683,-0.013288
426,0.47456800000000005,-0.423684,-1.522282,0.416549,0.411121,-0.81084,0.040916,-0.024863,-0.022175,-0.019119,0.0079,-0.01141
427,0.47304399999999996,-0.422734,-1.523355,0.415491,0.41025500000000004,-0.811822,0.083379,-0.069762,-0.019685,-0.030451,0.001,0.004036
428,0.47058,-0.42093,-1.5249709999999999,0.413825,0.40861,-0.813501,0.129197,-0.088011,-0.024682,-0.000113,0.021947,-0.004599
429,0.468612,-0.419074,-1.526678,0.41256499999999996,0.406914,-0.8149890000000001,0.102726,-0.044237,-0.025991000000000004,0.00815,0.020866,-0.016462
430,0.46793199999999996,-0.41821,-1.527739,0.41216899999999995,0.406125,-0.815583,0.035715,0.008166,-0.019049,0.004045,0.013522,-0.023116
431,0.46833400000000003,-0.418263,-1.52806,0.412487,0.406173,-0.815398,-0.0068920000000000006,0.035961,-0.006564,-0.004177,0.007904000000000001,-0.006501000000000001
432,0.46906800000000004,-0.41849899999999995,-1.5279340000000001,0.413042,0.406389,-0.81501,-0.012293,0.032737,0.0051530000000000005,-0.006334,0.006437000000000001,-0.0032119999999999996
433,0.469822,-0.41863,-1.527585,0.41363199999999994,0.406509,-0.81465,-0.016604,0.034835000000000005,0.016871,-0.004391,0.01236,-0.002534
434,0.469822,-0.418177,-1.527239,0.41371499999999994,0.406095,-0.814814,0.021664,0.014418,0.027846,-0.014912,0.0008869999999999999,0.001078
435,0.47033400000000003,-0.417745,-1.52709,0.41421199999999997,0.4057,-0.814759,0.004743,0.032647,0.01275,-0.00314,0.021775,-0.009337999999999999
436,0.47119799999999995,-0.417947,-1.526835,0.414879,0.405885,-0.8143279999999999,-0.017580000000000002,0.042347,0.004036,-0.0064010000000000004,0.010985,-0.023075
437,0.472142,-0.41831199999999996,-1.526677,0.41558,0.40621799999999997,-0.813804,-0.016066999999999998,0.046475999999999996,-0.001936,-0.012229,0.007981,-0.005151
438,0.47289799999999993,-0.41848100000000005,-1.52667,0.416163,0.406373,-0.8134279999999999,-0.004375,0.035786,-0.002909,-0.010814,0.013015,-0.002368
439,0.47250600000000004,-0.41835600000000006,-1.5265959999999998,0.415868,0.406258,-0.8136369999999999,0.052733,-0.062475,0.011503,-0.049138,-0.016808,-0.040077
440,0.472652,-0.41767299999999996,-1.527024,0.416113,0.405634,-0.813823,0.02023,0.040004000000000005,-0.013424,0.019282,0.024526,-0.016377000000000003
441,0.472862,-0.417803,-1.527326,0.41626,0.40575300000000003,-0.813688,0.0019309999999999998,0.003849,-0.013506,0.019653,0.030374,-0.00725
442,0.47290299999999996,-0.41805200000000003,-1.527421,0.41624700000000003,0.405981,-0.813581,-0.007743000000000001,-0.005731,-0.0071519999999999995,-0.004915999999999999,0.009974,-0.0008410000000000001
443,0.47158500000000003,-0.41757700000000003,-1.52789,0.41526199999999996,0.405547,-0.814301,0.058080999999999994,-0.077335,-0.0066,-0.0011539999999999999,0.01526,0.009766
444,0.46975900000000004,-0.416229,-1.528866,0.41402100000000003,0.40431500000000004,-0.8155439999999999,0.082701,-0.060372,-0.007518,0.015529,0.037382,0.002251
445,0.46865,-0.415278,-1.5295450000000002,0.41329,0.403444,-0.816346,0.040511,-0.022469,-0.003982,0.006998000000000001,0.030516,-0.008422
446,0.46881300000000004,-0.415254,-1.529676,0.41342799999999996,0.403422,-0.816287,-0.014740999999999999,0.027792,-0.004432,-0.009543000000000001,0.010945,-0.012708
447,0.469733,-0.41588100000000006,-1.529372,0.41406400000000004,0.403996,-0.8156800000000001,-0.036039999999999996,0.042755,0.001809,-0.015138999999999998,0.007503,-0.00979
448,0.470599,-0.416386,-1.528886,0.414678,0.404458,-0.81514,-0.019133,0.018147,0.01371,-0.018865,0.010306999999999998,-0.005737
449,0.470638,-0.416217,-1.528476,0.41474099999999997,0.404304,-0.815184,0.014791,-0.018238,0.025744,-0.020469,0.007943,-0.0049299999999999995
450,0.47053999999999996,-0.415601,-1.528173,0.414774,0.40374,-0.815447,0.014916,0.007337000000000001,0.023575,-0.025919,0.002907,-0.00688
451,0.471132,-0.41572700000000007,-1.527711,0.415233,0.403855,-0.815156,-0.016994,0.018144,0.012656,-0.017543,0.004912,-0.017943
452,0.47222700000000006,-0.416235,-1.527413,0.41603199999999996,0.40431999999999996,-0.8145180000000001,-0.040192,0.060909000000000005,-0.00572,-0.010652,0.0032119999999999996,-0.019084999999999998
453,0.473354,-0.417049,-1.5271860000000002,0.4168,0.405064,-0.813756,-0.036001,0.040667,-0.008870000000000001,-0.00646,0.009456,-0.010067
454,0.473764,-0.417324,-1.527272,0.41708199999999995,0.405316,-0.813485,0.0033909999999999995,0.022419,-0.008570999999999999,0.0021379999999999997,0.016208,0.00715
455,0.47393500000000005,-0.417254,-1.527558,0.417235,0.405252,-0.813439,0.006553,0.012825,-0.009604999999999999,0.002718,0.017371,-0.005332
456,0.47403199999999995,-0.41724700000000003,-1.527631,0.417314,0.40524499999999997,-0.8134020000000001,-0.00312,0.007490000000000001,0.001016,-0.001573,0.015684,-0.004882
457,0.474091,-0.417308,-1.527479,0.417351,0.405301,-0.813355,-0.006398,-0.002117,0.008483,-0.012231,0.011156999999999999,-0.001068
458,0.4741,-0.41735900000000004,-1.527267,0.41734899999999997,0.405348,-0.8133319999999999,-0.008517,0.0010869999999999999,0.008464,-0.006079,0.012620999999999999,-0.000526
459,0.47435600000000006,-0.41752799999999995,-1.5269979999999999,0.417526,0.405502,-0.8131649999999999,-0.016999,0.011773,0.0073230000000000005,-0.007553,0.010879999999999999,-0.003943
460,0.47497799999999996,-0.41804300000000005,-1.526697,0.417936,0.405972,-0.812719,-0.041379,0.038525,-0.0014269999999999999,0.002734,0.014575,-0.009348
461,0.47590600000000005,-0.41889,-1.526314,0.418533,0.406746,-0.812025,-0.043498,0.040667,-0.002513,-0.010391,0.011618999999999999,-0.003939
462,0.476471,-0.419472,-1.5259770000000001,0.418883,0.40727800000000003,-0.811578,-0.022348,0.006474,0.005156,-0.011793999999999999,0.01095,-0.0038979999999999996
463,0.47652799999999995,-0.41965,-1.5256319999999999,0.418896,0.407441,-0.811489,-0.014961000000000002,-0.004234,0.012699,-0.016583,0.01155,-0.009464
464,0.476988,-0.419946,-1.525181,0.41921400000000003,0.407711,-0.81119,-0.025967,0.029247000000000002,0.011890999999999999,-0.013101,0.012195999999999999,-0.015409
465,0.478137,-0.420523,-1.524673,0.420037,0.408238,-0.8104979999999999,-0.040744999999999996,0.058087,0.005342,-0.009926,0.014705000000000001,-0.014697
466,0.479498,-0.421202,-1.524178,0.421012,0.408857,-0.8096800000000001,-0.037549,0.059133000000000005,0.007499,-0.014457,0.012911,-0.005719
467,0.480749,-0.421746,-1.5236120000000002,0.421921,0.409354,-0.808955,-0.034425,0.048443,0.013944,-0.014969,0.015939,-0.005208
468,0.48206000000000004,-0.422383,-1.5228979999999999,0.422861,0.40993500000000005,-0.8081699999999999,-0.051447,0.05915599999999999,0.013811000000000002,-0.017922999999999998,0.014,-0.00967
469,0.48322299999999996,-0.42294899999999996,-1.5221770000000001,0.42369300000000004,0.410451,-0.8074720000000001,-0.0249,0.01439,-0.003037,-0.029329,0.038432,0.006431999999999999
470,0.48489,-0.423803,-1.521847,0.424874,0.41123000000000004,-0.806454,-0.061895000000000006,0.090158,-0.004461,-0.017373,0.0008789999999999999,-0.016239
471,0.486257,-0.42477700000000007,-1.521253,0.42578900000000003,0.412117,-0.805519,-0.046194,0.034661000000000004,0.00747,-0.01905,0.00962,0.0032119999999999996
472,0.48716400000000004,-0.42541899999999994,-1.520567,0.42639499999999997,0.41270200000000007,-0.804898,-0.037707,0.033527999999999995,0.017145,-0.018604,0.00606,0.0056890000000000005
473,0.48805,-0.42606000000000005,-1.519859,0.42698400000000003,0.413286,-0.804286,-0.032482,0.023958,0.011874,0.015735,0.01927,-0.007893
474,0.48931099999999994,-0.42663199999999996,-1.519307,0.42788699999999996,0.413807,-0.803538,-0.039802,0.052763,0.007513,0.006653,0.008938,-0.014562
475,0.49000900000000003,-0.427047,-1.518893,0.42836599999999997,0.414185,-0.803088,-0.013327,0.011116,0.009888,-0.007956,-0.00232,-0.0057350000000000005
476,0.49000299999999997,-0.426829,-1.5188780000000002,0.42840500000000004,0.413987,-0.8031699999999999,0.012240000000000001,0.001444,0.009011,-0.014372999999999999,0.010894,-0.007789
477,0.48969700000000005,-0.42632600000000004,-1.518931,0.42825699999999994,0.413529,-0.803485,0.030295,-0.015668,0.010227,-0.004749000000000001,0.026749000000000002,-0.000699
478,0.489699,-0.42601000000000006,-1.51885,0.42832,0.41324099999999997,-0.803599,0.0026190000000000002,0.000399,0.012149,-0.014547,0.007429000000000001,-0.012639
479,0.48945900000000003,-0.42565600000000003,-1.51875,0.428195,0.412918,-0.8038310000000001,0.030247000000000003,-0.028443,0.008106,0.010541,0.045349,0.013425999999999999
480,0.48976800000000004,-0.425126,-1.5191299999999999,0.428546,0.41243500000000005,-0.803892,0.011465000000000001,0.053696,-0.0038799999999999998,0.0341,0.04365,0.008878
481,0.49068100000000003,-0.42536199999999996,-1.518793,0.42923500000000003,0.41265100000000005,-0.8034140000000001,-0.01841,0.020907,0.022923,-0.023412,-0.004692,-0.02404
482,0.490834,-0.425392,-1.5181850000000001,0.42935200000000007,0.412678,-0.803337,-0.013066,0.01347,0.013356,0.002426,0.007961,-0.002159
483,0.49137299999999995,-0.42522299999999996,-1.5179040000000001,0.429817,0.412524,-0.803168,0.002908,0.01445,0.020944,-0.017586,-0.002291,-0.016458
484,0.491799,-0.425292,-1.5172450000000002,0.43014600000000003,0.41258599999999995,-0.80296,-0.015324,0.0006349999999999999,0.028312,-0.022675,0.00674,-0.005253
485,0.491996,-0.425066,-1.516533,0.43034799999999995,0.41238100000000005,-0.8029569999999999,-0.002584,-0.00477,0.036953,-0.019841,0.008548,0.00271
486,0.49221499999999996,-0.424986,-1.515847,0.43054,0.412308,-0.802891,-0.015271000000000002,0.005987,0.021896000000000002,-0.015455000000000002,0.005248,-0.015056
487,0.492888,-0.42519700000000005,-1.515573,0.431039,0.4125,-0.802525,-0.01396,0.038031,-0.0005690000000000001,0.001106,0.020376,-0.011562000000000001
488,0.49397700000000005,-0.425699,-1.515527,0.43181499999999995,0.41295699999999996,-0.801873,-0.034058,0.065841,-0.011427,0.000909,0.023337,-0.010185
489,0.495766,-0.426828,-1.515267,0.433026,0.41398500000000005,-0.8006880000000001,-0.06099500000000001,0.09678300000000001,-0.015790000000000002,-0.0173,0.010911,-0.007097
490,0.498066,-0.42828599999999994,-1.514746,0.43457799999999996,0.415312,-0.7991590000000001,-0.084428,0.10963099999999999,-0.011696999999999999,-0.015571000000000002,0.010652,-0.004765999999999999
491,0.500551,-0.42995,-1.514035,0.43623,0.416825,-0.797469,-0.089772,0.10858,-0.010665000000000001,-0.011120999999999999,0.010848,-0.00374
492,0.502997,-0.43172299999999997,-1.513256,0.43782200000000004,0.418436,-0.795751,-0.091896,0.108596,-0.012816,0.009352,0.015188,-0.000743
493,0.505652,-0.43361000000000005,-1.512514,0.43955,0.42015,-0.7938930000000001,-0.096091,0.11716300000000002,-0.020334,0.001902,0.00586,-0.002829
494,0.508262,-0.435421,-1.511859,0.44125,0.421792,-0.792077,-0.087633,0.104333,-0.015986,-0.0011099999999999999,0.004081,0.0048
495,0.510925,-0.437349,-1.5109629999999998,0.442959,0.42353900000000005,-0.790189,-0.099364,0.11074400000000001,-0.010735,-0.003964,0.013686000000000002,-0.003589
496,0.511777,-0.43777299999999997,-1.511606,0.44354399999999994,0.42392399999999997,-0.789654,0.041289,0.052561000000000004,-0.036342,0.063368,0.083217,0.022091
497,0.513302,-0.438493,-1.510623,0.44459799999999994,0.424575,-0.7887109999999999,-0.112819,0.051611000000000004,0.068337,-0.14841,-0.07727,-0.031738999999999996
498,0.513822,-0.438705,-1.5102280000000001,0.444963,0.424767,-0.788401,0.043269,0.048173,-0.006412999999999999,0.103621,0.111823,0.022532
499,0.5133270000000001,-0.43796999999999997,-1.510728,0.444726,0.42410200000000003,-0.7888930000000001,0.080202,-0.047810000000000005,-0.011373000000000001,0.027686000000000002,0.064683,0.007109000000000001
500,0.5131479999999999,-0.43758,-1.5114020000000001,0.444666,0.423749,-0.789117,0.049214999999999995,-0.077452,-0.030779,-0.07013899999999999,-0.028194999999999998,-0.050925
501,0.513904,-0.43736400000000003,-1.512933,0.445308,0.42355299999999996,-0.78886,0.026233,0.032348,-0.030012,-0.075023,-0.034057,-0.030857
502,0.514969,-0.438295,-1.5123870000000001,0.445953,0.424396,-0.788042,-0.07191900000000001,0.073009,0.009843000000000001,-0.053787,-0.013141,-0.027601999999999998
503,0.51794,-0.44010900000000003,-1.510901,0.44791000000000003,0.42603800000000003,-0.786044,-0.13036099999999998,0.132839,0.016835,-0.045337999999999996,-0.011517,-0.028425
504,0.519895,-0.441483,-1.509568,0.44915600000000006,0.42728,-0.7846569999999999,-0.060389,0.034588,0.01745,-0.037779,0.003872,-0.013942
505,0.521009,-0.442333,-1.508853,0.44984799999999997,0.42804899999999996,-0.783841,-0.057021,0.057007,0.00249,-0.017856999999999998,0.00263,-0.023196
506,0.5223760000000001,-0.44325,-1.508305,0.45072299999999993,0.428878,-0.782885,-0.056958,0.065551,-0.002862,-0.019708,0.002397,-0.020184999999999998
507,0.523827,-0.444262,-1.507902,0.45164099999999996,0.429792,-0.781854,-0.052653,0.066631,-0.010311,-0.018567,0.003008,-0.017066
508,0.525087,-0.4451,-1.507586,0.452446,0.43054799999999993,-0.780972,-0.043108,0.061241,-0.0027600000000000003,-0.004936,0.0086,0.001035
509,0.526493,-0.445754,-1.50714,0.453402,0.43113900000000005,-0.780092,-0.036726,0.064385,0.004758,0.010756,0.027724000000000002,0.006013
510,0.527732,-0.44611899999999993,-1.506737,0.454288,0.431467,-0.7793939999999999,-0.018671,0.048333999999999995,0.0070409999999999995,0.013347999999999999,0.030462,0.005071
511,0.5285920000000001,-0.446263,-1.506434,0.454927,0.431598,-0.778949,-0.012342,0.035516000000000006,0.010306999999999998,0.005293,0.023007,0.004626
512,0.529241,-0.446283,-1.50617,0.455428,0.43161499999999997,-0.778646,-0.004941,0.023759,0.013578,-0.007949,0.021891,0.005361
513,0.529829,-0.446321,-1.5057530000000001,0.45587799999999995,0.43165,-0.7783640000000001,-0.015658000000000002,0.017388,0.017784,-0.011145,0.019171,0.002241
514,0.5302939999999999,-0.44644300000000003,-1.5052940000000001,0.45621300000000004,0.43176000000000003,-0.778107,-0.010342,0.008864,0.01356,-0.010595,0.021044,0.001968
515,0.530526,-0.44651599999999997,-1.5049540000000001,0.45637799999999995,0.43182600000000004,-0.7779729999999999,-0.007166,0.000343,0.010388,-0.006701,0.020413999999999998,-0.001415
516,0.530519,-0.44656599999999996,-1.504785,0.45636099999999996,0.431871,-0.777958,-0.000681,-0.006145,0.003971,-0.005723,0.017622,-0.005306
517,0.530349,-0.44655900000000004,-1.504825,0.45623100000000005,0.431864,-0.778038,0.004678,-0.006142,-0.001332,-0.006295,0.018650999999999997,-0.0033799999999999998
518,0.53014,-0.44651499999999994,-1.504984,0.456078,0.431825,-0.77815,0.007898,-0.006136,-0.005582999999999999,-0.007606999999999999,0.012298,-0.006869
519,0.5299649999999999,-0.44646099999999994,-1.505213,0.45595399999999997,0.43177600000000005,-0.77825,0.010065000000000001,0.000252,-0.006644,-0.008169,0.012545,-0.010645
520,0.529822,-0.446396,-1.505473,0.45585600000000004,0.431717,-0.778339,0.012194,-0.0018809999999999999,-0.0076950000000000005,-0.013534000000000001,0.011001,-0.007137
521,0.529614,-0.44624300000000006,-1.505815,0.45572700000000005,0.43158,-0.7784909999999999,0.016475999999999998,-0.0008230000000000001,-0.009802,-0.014184,0.011764,-0.012158
522,0.5294300000000001,-0.446132,-1.506207,0.45560900000000004,0.43148000000000003,-0.778616,0.015437000000000001,0.0013289999999999999,-0.014085,-0.015881,0.012962999999999999,-0.013269
523,0.5292819999999999,-0.44607700000000006,-1.506593,0.455505,0.43143000000000004,-0.778704,0.010108,0.003474,-0.013057,-0.016327,0.013531999999999999,-0.011869
524,0.5292359999999999,-0.44611899999999993,-1.506874,0.45546000000000003,0.431468,-0.778709,0.002635,0.006678,-0.008841,-0.022538,0.013662,-0.009682
525,0.529388,-0.44616999999999996,-1.506903,0.45556800000000003,0.431514,-0.778621,-0.0038,0.009854,0.0017929999999999999,-0.023027000000000002,0.009969,-0.009496
526,0.52965,-0.44626800000000005,-1.506699,0.45575,0.43160200000000004,-0.778465,-0.012362999999999999,0.010919,0.009209,-0.018844999999999997,0.009835,-0.012123
527,0.5300159999999999,-0.44647299999999995,-1.506378,0.45598999999999995,0.431787,-0.7782220000000001,-0.016612000000000002,0.015194999999999998,0.009174,-0.006131,0.009528,-0.005804999999999999
528,0.530482,-0.44668900000000006,-1.5060280000000001,0.45630600000000004,0.431982,-0.777929,-0.016602000000000002,0.017325999999999998,0.009170999999999999,-0.0017920000000000002,0.011423,-0.0076549999999999995
529,0.530879,-0.446842,-1.505724,0.456581,0.43212,-0.777691,-0.013401,0.018376,0.01026,-0.009117,0.016214,-0.001362
530,0.5315270000000001,-0.44699700000000003,-1.505295,0.45705100000000004,0.43226000000000003,-0.777337,-0.019778999999999998,0.029029000000000003,0.015543000000000001,-0.013142,0.017828999999999998,-0.0030280000000000003
531,0.532411,-0.447245,-1.504691,0.457683,0.432483,-0.776841,-0.027242000000000002,0.032243,0.017624,-0.014995,0.021039,-0.0066370000000000005
532,0.533313,-0.44751,-1.504055,0.458326,0.43272200000000005,-0.776328,-0.024056,0.031157999999999998,0.019784,-0.013105,0.018739,-0.006265
533,0.533997,-0.44772799999999996,-1.503564,0.458808,0.43291899999999994,-0.775934,-0.016612000000000002,0.018378,0.012374,-0.01017,0.016361,-0.0065829999999999994
534,0.534381,-0.44786099999999995,-1.503307,0.45907700000000007,0.433039,-0.775708,-0.007015,0.009852,0.004975,-0.005586,0.013815000000000001,-0.005146
535,0.53446,-0.44798599999999994,-1.503248,0.459111,0.433151,-0.775625,-0.003819,0.0045320000000000004,0.000731,0.000286,0.016037,-0.006739
536,0.5346420000000001,-0.448107,-1.5032290000000001,0.459226,0.43326000000000003,-0.775496,-0.004833,0.013071000000000001,-0.0024920000000000003,-0.0009119999999999999,0.017988,-0.005372
537,0.534938,-0.44825600000000004,-1.503175,0.45942200000000005,0.433395,-0.775304,-0.005905,0.014131,-0.000364,-0.0059,0.016434,-0.001109
538,0.535204,-0.448359,-1.50312,0.459606,0.433487,-0.7751439999999999,-0.00379,0.010924,0.000723,-0.005092,0.014801,-6.4e-05
539,0.535378,-0.44843900000000003,-1.50311,0.45972299999999994,0.43356000000000006,-0.775034,-0.0016710000000000002,0.006659,-0.000325,-0.004462,0.017384,-0.00041799999999999997
540,0.535447,-0.448463,-1.5031219999999998,0.459771,0.43358100000000005,-0.774994,0.001516,0.003452,-0.000298,-0.008339,0.01344,-0.001984
541,0.535611,-0.448511,-1.503048,0.459887,0.43362399999999995,-0.7749,-0.005938000000000001,0.010918,0.003913000000000001,-0.014741999999999998,0.009932999999999999,-0.007723000000000001
542,0.536061,-0.44871099999999997,-1.50274,0.460192,0.433805,-0.774619,-0.020869,0.018402,0.010208,-0.014528,0.010394,-0.012201
543,0.536741,-0.449082,-1.502241,0.460636,0.43413900000000005,-0.774167,-0.028304000000000003,0.026945999999999998,0.011214,-0.013996000000000001,0.011158,-0.011889
544,0.5374899999999999,-0.449453,-1.5016530000000001,0.461133,0.43447299999999994,-0.773684,-0.024113,0.014131,0.015531999999999999,-0.016492,0.003668,-0.00746
545,0.5378850000000001,-0.44969499999999996,-1.501067,0.46138500000000005,0.434691,-0.773411,-0.0263,0.006664,0.019799,-0.022984,0.011705,-0.011058
546,0.538469,-0.45010100000000003,-1.500224,0.461746,0.43505600000000005,-0.77299,-0.042283,0.016286000000000002,0.025016,-0.01654,0.015307,-0.011037
547,0.539399,-0.45070200000000005,-1.499231,0.46233,0.43559799999999993,-0.772336,-0.052865999999999996,0.033375999999999996,0.022784,-0.008,0.020213,-0.008334999999999999
548,0.540566,-0.45149300000000003,-1.498249,0.463053,0.43631000000000003,-0.7715,-0.055994,0.041939,0.015274000000000001,-0.008296,0.022675,-0.006987999999999999
549,0.541671,-0.45224200000000003,-1.497449,0.463738,0.436983,-0.770708,-0.045321,0.037662,0.010013,-0.017632,0.024366,-0.003752
550,0.542458,-0.452862,-1.496847,0.464204,0.43754099999999996,-0.7701100000000001,-0.035762,0.024858,0.0068909999999999996,-0.019426,0.024068,-0.003571
551,0.54306,-0.453255,-1.496492,0.464579,0.43789399999999995,-0.769683,-0.016554,0.021612,0.002757,-0.010904,0.028245999999999997,-0.003464
552,0.543292,-0.45335600000000004,-1.49647,0.46473400000000004,0.437985,-0.769538,0.004731,0.004515,-0.002414,-0.014234,0.026066000000000002,-0.004296
553,0.542992,-0.453103,-1.496768,0.46456099999999995,0.437758,-0.769772,0.025991000000000004,-0.014726,-0.004377000000000001,-0.015556,0.022997,-0.007129000000000001
554,0.5422319999999999,-0.452686,-1.497252,0.46406899999999995,0.43738299999999997,-0.770281,0.033406,-0.028592000000000003,-0.006444,-0.017399,0.0071519999999999995,-0.001585
555,0.541535,-0.452324,-1.497794,0.463614,0.437057,-0.77074,0.028144,-0.020021,-0.013969,-0.013129,0.004365,-0.001507
556,0.540632,-0.45201099999999994,-1.498525,0.462988,0.436776,-0.7712760000000001,0.035583,-0.032805,-0.020309999999999998,-0.00054,0.002464,-0.0028179999999999998
557,0.5395760000000001,-0.451646,-1.4994129999999999,0.46225600000000006,0.43644700000000003,-0.7719010000000001,0.037731,-0.0328,-0.0235,-0.0072840000000000005,0.009521,-0.002941
558,0.5385949999999999,-0.451266,-1.5001719999999998,0.46158299999999997,0.436105,-0.772496,0.032363,-0.03175,-0.014993000000000001,-0.006718000000000001,0.009665,-0.004252000000000001
559,0.537852,-0.451028,-1.500589,0.461063,0.435891,-0.772928,0.012083,-0.0232,-0.004463,-0.012714,0.010978,-0.010824
560,0.537505,-0.451021,-1.500585,0.460796,0.435885,-0.773091,-0.0049770000000000005,-0.013581999999999999,0.0028829999999999997,-0.012645,0.013380000000000001,-0.007869
561,0.5374979999999999,-0.451147,-1.500324,0.460762,0.43599799999999994,-0.773047,-0.014555000000000002,-0.0018559999999999998,0.00921,-0.017723,0.010749,-0.006464
562,0.537786,-0.45145799999999997,-1.4998770000000001,0.46091499999999996,0.436278,-0.772798,-0.027323000000000004,0.0077670000000000005,0.011245,-0.018685,0.009599,-0.012191
563,0.538223,-0.451837,-1.49929,0.461168,0.436619,-0.772454,-0.029447000000000004,0.013087999999999999,0.014428,-0.014437,0.015513999999999998,-0.012991999999999998
564,0.538722,-0.45216300000000004,-1.498717,0.46148,0.43691199999999997,-0.7721020000000001,-0.024118,0.013065,0.015533000000000002,-0.013833000000000002,0.020653,-0.011757
565,0.539253,-0.452401,-1.4982229999999999,0.461837,0.43712700000000004,-0.771767,-0.019803,0.02052,0.012348999999999999,-0.013059999999999999,0.023841,-0.01023
566,0.539809,-0.452588,-1.497883,0.46222399999999997,0.43729399999999996,-0.77144,-0.012131999999999999,0.025729000000000002,0.009035,-0.018239,0.019997,-0.00511
567,0.540127,-0.452629,-1.4978559999999999,0.46246000000000004,0.437332,-0.771278,0.012453,0.009771,-0.017478999999999998,-0.010876,0.025376,-0.006203
568,0.539978,-0.45232,-1.498214,0.46241499999999996,0.43705299999999997,-0.771463,0.022964,-0.005261,0.0029100000000000003,-0.026410000000000003,0.028187,-0.016517
569,0.539403,-0.451859,-1.498756,0.462074,0.43663900000000005,-0.7719010000000001,0.031537,-0.012684,-0.013044,-0.005516,0.035453,0.004811
570,0.538862,-0.45136000000000004,-1.4993319999999999,0.461769,0.43618999999999997,-0.772338,0.037885,-0.018058,-0.0065829999999999994,-0.015341999999999998,0.023283,0.007781000000000001
571,0.538039,-0.450799,-1.4999200000000001,0.461258,0.43568500000000004,-0.772928,0.039971,-0.02978,-0.007622,-0.007492,0.034988,-0.002478
572,0.537616,-0.450245,-1.500316,0.461054,0.43518599999999996,-0.7733300000000001,0.019835,0.010729,0.002868,-0.034373,-0.01,-0.010957
573,0.5383720000000001,-0.451167,-1.5002309999999999,0.461433,0.43601599999999996,-0.772636,-0.09388300000000001,0.07093200000000001,-0.035391000000000006,-0.024069999999999998,0.0075569999999999995,-0.030739
574,0.539511,-0.45294399999999996,-1.498866,0.46191400000000005,0.437615,-0.7714439999999999,-0.005369,-0.094817,0.045556,-0.096085,-0.006798,0.07575
575,0.5352859999999999,-0.448582,-1.499235,0.45962,0.433688,-0.7750229999999999,0.285992,-0.25371900000000003,0.103342,-0.021022,0.016888999999999998,0.034118
576,0.530245,-0.44303400000000004,-1.501009,0.456917,0.42868199999999995,-0.7793939999999999,0.251328,-0.18945499999999998,0.046402,0.032050999999999996,0.018156,-0.026757999999999997
577,0.526724,-0.440072,-1.502794,0.45480600000000004,0.426004,-0.782093,0.126171,-0.109009,-0.012319,0.054653999999999994,-0.012201,-0.01968
578,0.524953,-0.439104,-1.50423,0.45362700000000006,0.425129,-0.783253,0.04343,-0.02766,-0.03757,0.031237,-0.019764,0.030033999999999998
579,0.52408,-0.43941800000000003,-1.505113,0.452876,0.425413,-0.783533,-0.004545,-0.020036,-0.037915,0.010716,-0.003935,0.018808000000000002
580,0.523658,-0.440154,-1.505599,0.45238900000000004,0.426079,-0.783453,-0.021572,-0.013572,-0.041247000000000006,0.004886,0.025841000000000003,0.001013
581,0.522676,-0.440449,-1.506584,0.451557,0.426346,-0.783788,0.036991,-0.048892000000000005,-0.050407,0.003064,0.038100999999999996,0.0024010000000000004
582,0.519971,-0.439512,-1.5086110000000001,0.449633,0.42549799999999993,-0.785353,0.111408,-0.120475,-0.062614,-0.005327,0.048547,0.000762
583,0.517105,-0.43827200000000005,-1.5109549999999998,0.447641,0.424375,-0.787097,0.095568,-0.0842,-0.06277100000000001,-0.05260599999999999,0.014056,-0.026119999999999997
584,0.514707,-0.437238,-1.513182,0.44596800000000003,0.423439,-0.7885489999999999,0.097768,-0.071416,-0.06490900000000001,-0.050704,0.005562,-0.0245
585,0.512347,-0.43633,-1.5154040000000002,0.44429300000000005,0.422617,-0.789934,0.087759,-0.074311,-0.059862,-0.035663,0.014746,-0.020002000000000002
586,0.509737,-0.43543000000000004,-1.517436,0.442416,0.4218,-0.791423,0.096131,-0.105255,-0.054423,-0.011554,0.021971,-0.013203999999999999
587,0.5064029999999999,-0.434233,-1.519493,0.44001899999999994,0.42071499999999995,-0.793334,0.099202,-0.126601,-0.046896,0.0059039999999999995,0.022843000000000002,-0.009797
588,0.5030720000000001,-0.43311099999999997,-1.521401,0.437601,0.419696,-0.795209,0.090658,-0.136129,-0.054422000000000005,0.003622,0.015941999999999998,-0.00603
589,0.49955900000000003,-0.432277,-1.5235370000000001,0.43497299999999994,0.41894,-0.797048,0.079066,-0.11898399999999999,-0.06948,0.004984000000000001,-0.0016420000000000002,-0.008081999999999999
590,0.49597399999999997,-0.431623,-1.525806,0.43224300000000004,0.41834499999999997,-0.7988430000000001,0.083261,-0.144527,-0.079032,-0.006553,0.001302,-0.010514
591,0.49225699999999994,-0.430908,-1.528182,0.429412,0.417696,-0.800708,0.08651,-0.13176400000000002,-0.076889,-0.025466,-0.004656,-0.000241
592,0.48947700000000005,-0.430525,-1.530462,0.427259,0.41734799999999994,-0.80204,0.055115,-0.072313,-0.086868,-0.021772,-0.016057,-0.012337
593,0.48756099999999997,-0.430733,-1.532569,0.42568199999999995,0.417537,-0.80278,0.024359,-0.034908,-0.090336,-0.007072,-0.009776,-0.014115
594,0.4859,-0.431191,-1.534677,0.42425799999999997,0.41795299999999996,-0.803316,0.030664,-0.064724,-0.098799,0.008801999999999999,0.005722,-0.005536999999999999
595,0.483692,-0.431608,-1.536865,0.42240200000000006,0.418332,-0.8040970000000001,0.025353999999999998,-0.057257,-0.096709,0.00521,0.008151,-0.002407
596,0.481774,-0.432149,-1.5387979999999999,0.420754,0.41882299999999995,-0.804705,0.009336,-0.051908,-0.088282,-0.001565,0.006409000000000001,-0.000822
597,0.480261,-0.432982,-1.540414,0.419375,0.419579,-0.805031,-0.009848,-0.044397000000000006,-0.085221,0.004286,0.011542,-0.007225
598,0.47913500000000003,-0.434138,-1.5416530000000002,0.418245,0.420628,-0.805071,-0.026947000000000002,-0.036936000000000004,-0.071463,-0.0038770000000000002,0.013209,-0.0073219999999999995
599,0.47801899999999997,-0.435179,-1.5425389999999999,0.41714300000000004,0.421573,-0.805149,-0.029195,-0.044458,-0.05331,-0.011763,0.01376,-0.008679000000000001
600,0.47678999999999994,-0.436175,-1.543031,0.41596099999999997,0.422475,-0.805287,-0.038893000000000004,-0.049815,-0.037347000000000005,-0.012748,0.008631,-0.007884
601,0.47584499999999996,-0.437374,-1.5432059999999999,0.414968,0.423562,-0.805229,-0.058077,-0.040181,-0.032152,-0.006429000000000001,0.012015000000000001,-0.011054999999999999
602,0.47520100000000004,-0.43891499999999994,-1.5431549999999998,0.41415,0.424957,-0.8049149999999999,-0.072966,-0.030538,-0.033337,-0.010326,0.0070799999999999995,-0.003038
603,0.47461099999999995,-0.440605,-1.5431030000000001,0.413346,0.426486,-0.804519,-0.077214,-0.030506000000000002,-0.03764,-0.010545,0.010860999999999999,-0.007141
604,0.47389,-0.44235399999999997,-1.543132,0.412425,0.428068,-0.8041520000000001,-0.077238,-0.039015,-0.040833999999999995,-0.001124,0.018587,-0.011231999999999999
605,0.47297,-0.444014,-1.543182,0.411361,0.429568,-0.803898,-0.06875099999999999,-0.045453,-0.036493,-0.0031579999999999998,0.021803,-0.007488
606,0.47218699999999997,-0.445503,-1.543133,0.41043999999999997,0.43091199999999996,-0.803649,-0.069798,-0.033762,-0.029037999999999998,-0.007928,0.021129,-0.0033729999999999997
607,0.471686,-0.446946,-1.542969,0.409754,0.432213,-0.8033,-0.066598,-0.026345999999999998,-0.021547,-0.009058,0.015341999999999998,0.0011300000000000001
608,0.471263,-0.448133,-1.542722,0.409181,0.433284,-0.8030149999999999,-0.049557,-0.027492000000000003,-0.016086000000000003,-0.015382,0.015553,0.009436
609,0.47050600000000004,-0.448877,-1.542729,0.408427,0.433954,-0.803037,-0.018680000000000002,-0.04251,-0.016919,-0.023722,0.015097,0.010754999999999999
610,0.46920600000000007,-0.449033,-1.543144,0.407352,0.434094,-0.803508,0.013244,-0.063914,-0.019873,-0.016528,0.021381,0.001551
611,0.467542,-0.4489,-1.543791,0.406041,0.43397399999999997,-0.804236,0.023903,-0.068204,-0.02193,-0.019581,0.023438,-0.001535
612,0.46606800000000004,-0.448666,-1.5443799999999999,0.4049,0.43376400000000004,-0.804924,0.023922,-0.056516,-0.014466999999999999,-0.021935,0.023847,0.0033179999999999998
613,0.46486099999999997,-0.448324,-1.5447799999999998,0.403995,0.43345600000000006,-0.8055439999999999,0.024988999999999997,-0.045909,-0.0037909999999999997,-0.027514999999999998,0.02002,0.005007
614,0.464005,-0.448136,-1.544818,0.403341,0.433287,-0.805963,0.003633,-0.037364,0.008867,-0.019293,0.018618,-0.010687
615,0.46351499999999995,-0.448308,-1.544461,0.402913,0.433442,-0.806094,-0.021948,-0.030887,0.009748999999999999,-0.006093,0.01857,-0.016507
616,0.463,-0.44897200000000004,-1.5441340000000001,0.40237,0.43404,-0.8060430000000001,-0.043207999999999996,-0.028622,-0.005358,0.005528,0.00813,-0.033358
617,0.46272399999999997,-0.450092,-1.543884,0.40193,0.43504799999999993,-0.805719,-0.056844000000000006,-0.011593000000000001,-0.01197,-0.020261,0.007121,-0.010717
618,0.46258,-0.451243,-1.543555,0.40159,0.436084,-0.805329,-0.05582,-0.019062,-0.009816,-0.026911,0.009091,-0.013229
619,0.46225900000000003,-0.452295,-1.543095,0.401127,0.43703100000000006,-0.805046,-0.054825,-0.025496,-0.00018700000000000002,-0.031407,0.01643,-0.009209
620,0.46216,-0.453243,-1.542453,0.400862,0.437884,-0.804715,-0.055878,-0.014869,0.007268999999999999,-0.029752999999999998,0.020109000000000002,-0.009326000000000001
621,0.462294,-0.454107,-1.541757,0.400801,0.43866000000000005,-0.804322,-0.050505,-0.0031829999999999996,0.010497,-0.020064,0.025024,-0.00479
622,0.462408,-0.45483900000000005,-1.541096,0.40074899999999997,0.439317,-0.8039890000000001,-0.044132,-0.005353,0.014816999999999999,-0.012062,0.026411,-0.006085
623,0.462636,-0.455481,-1.540362,0.400806,0.439895,-0.8036449999999999,-0.043061,-4.7e-05,0.01909,-0.015278,0.02411,-0.000356
624,0.463203,-0.4561,-1.5394649999999999,0.40114099999999997,0.44045,-0.8031739999999999,-0.047285,0.016982,0.026517000000000002,-0.019915000000000002,0.021098,0.002911
625,0.464107,-0.45673800000000003,-1.53833,0.40174,0.44102299999999994,-0.802559,-0.050505,0.025463999999999997,0.039302,-0.022619999999999998,0.021135,0.005059
626,0.465271,-0.457164,-1.536861,0.40259,0.441405,-0.8019229999999999,-0.045238,0.028569,0.057494,-0.025775,0.023149,0.003919
627,0.466542,-0.45728900000000006,-1.5351,0.403584,0.441517,-0.801362,-0.034684,0.023124000000000002,0.07787100000000001,-0.024602000000000002,0.031536,-0.004104
628,0.46775900000000004,-0.457041,-1.533164,0.404609,0.44129399999999996,-0.800968,-0.021943999999999998,0.01878,0.08757999999999999,-0.021506,0.032766,-0.003766
629,0.468954,-0.4565,-1.531283,0.405674,0.440809,-0.800696,-0.005940999999999999,0.018724,0.08769199999999999,-0.024097,0.032442,-0.004068
630,0.46999399999999997,-0.45576300000000003,-1.529787,0.40665300000000004,0.440147,-0.800564,0.013344,0.022974,0.073934,-0.044882,0.018608,-0.001972
631,0.470812,-0.454816,-1.5288680000000001,0.407496,0.43929700000000005,-0.800602,0.032629000000000005,0.018734999999999998,0.05164199999999999,-0.054164,0.020419999999999997,-0.00996
632,0.471038,-0.45373,-1.528514,0.407894,0.438321,-0.800934,0.049684,-0.001497,0.034695,-0.04269,0.034304,-0.015045
633,0.47087799999999996,-0.452563,-1.528673,0.407997,0.43727200000000005,-0.801455,0.062563,-0.003595,0.01556,-0.029778,0.0316,-0.020368
634,0.47031300000000004,-0.45132,-1.529361,0.40779099999999996,0.436154,-0.8021689999999999,0.075414,-0.014207,-0.0057009999999999995,-0.019882,0.028812,-0.017869
635,0.469473,-0.450237,-1.530432,0.40733,0.435179,-0.802932,0.065874,-0.015179,-0.020722,-0.01434,0.024736,-0.014466
636,0.468656,-0.449532,-1.531492,0.406812,0.434544,-0.803538,0.048827999999999996,-0.014037,-0.025115000000000002,-0.008176000000000001,0.024914,-0.006657
637,0.46798,-0.44918,-1.53233,0.40633800000000003,0.43422700000000003,-0.803949,0.027486,-0.012906,-0.023129,-0.003293,0.021263,-0.0018059999999999999
638,0.46740299999999996,-0.449111,-1.532974,0.405888,0.43416499999999997,-0.8042100000000001,0.013612,-0.013923,-0.023225,-0.000797,0.014535,0.000317
639,0.46684200000000003,-0.44928,-1.533549,0.405403,0.434317,-0.804373,0.00082,-0.015992,-0.027583999999999997,0.006141,0.011377,-0.003595
640,0.466246,-0.449597,-1.534115,0.404862,0.43460200000000004,-0.804491,-0.004515,-0.015972999999999998,-0.027622000000000004,0.008544,0.013655,-0.005476
641,0.465891,-0.45005200000000006,-1.5345520000000001,0.404487,0.43501300000000004,-0.804458,-0.014069,-0.004226,-0.026635000000000002,0.0023120000000000003,0.011840999999999999,-0.008378
642,0.465854,-0.450571,-1.534805,0.404356,0.435479,-0.804272,-0.017269,0.004273,-0.018123,-0.002897,0.01554,-0.00948
643,0.46586400000000006,-0.450957,-1.534924,0.40428800000000004,0.435827,-0.804117,-0.014107,0.002106,-0.011689,-0.008338,0.015116,-0.006520999999999999
644,0.46600600000000003,-0.451225,-1.534961,0.404351,0.436068,-0.803955,-0.007691,0.011646,-0.005247,-0.012429,0.020459,-0.005829
645,0.466264,-0.45130699999999996,-1.534975,0.404542,0.43614200000000003,-0.803819,-0.0013,0.013737000000000001,-0.000932,-0.01677,0.023544,-0.007689
646,0.466422,-0.45126499999999997,-1.534988,0.404677,0.436104,-0.803771,0.0050490000000000005,0.004118,0.001261,-0.019774,0.021004,-0.010529
647,0.466458,-0.45118199999999997,-1.535095,0.404723,0.43603000000000003,-0.8037890000000001,0.006144,0.006261999999999999,-0.003007,-0.017988999999999998,0.020483,-0.013472
648,0.466607,-0.45123500000000005,-1.535233,0.404831,0.43607799999999997,-0.803708,-0.002343,0.012701,-0.007347,-0.01886,0.018131,-0.008288
649,0.46686300000000003,-0.451427,-1.5353379999999999,0.405,0.43625,-0.80353,-0.007658,0.016980000000000002,-0.007390000000000001,-0.020814,0.016569999999999998,-0.005736
650,0.467104,-0.451682,-1.535339,0.405143,0.43648000000000003,-0.803333,-0.010906,0.010583,-0.0031309999999999997,-0.018409000000000002,0.019056,-0.006543000000000001
651,0.46728800000000004,-0.451878,-1.535244,0.405252,0.43665600000000004,-0.803182,-0.008811,0.007358,0.002229,-0.015711000000000003,0.017918,-0.004985
652,0.467447,-0.452,-1.5350840000000001,0.405356,0.436766,-0.80307,-0.006701,0.005208,0.005451,-0.01612,0.016313,-0.007751999999999999
653,0.467501,-0.452034,-1.534937,0.40539200000000003,0.436796,-0.803035,0.000728,-0.001219,0.007647,-0.014233,0.018282,-0.004292
654,0.46747700000000003,-0.451913,-1.534823,0.405397,0.436687,-0.803092,0.004986,-0.002303,0.008747,-0.013291999999999998,0.018574,-0.0048920000000000005
655,0.46751499999999996,-0.45183100000000004,-1.53472,0.405444,0.43661400000000006,-0.803108,-0.001376,0.001997,0.004424,-0.012681999999999999,0.016069,-0.005928
656,0.467649,-0.45186499999999996,-1.534622,0.405545,0.436644,-0.80304,-0.004553,0.0073349999999999995,0.0043950000000000005,-0.013744999999999999,0.016236,-0.004531
657,0.467817,-0.451995,-1.5344659999999999,0.405654,0.43676099999999995,-0.802922,-0.00883,0.00628,0.0054340000000000005,-0.013763,0.013618,-0.003001
658,0.467962,-0.452175,-1.5342959999999999,0.405735,0.43692299999999995,-0.802793,-0.007773,0.003085,0.004378,-0.012211,0.013897999999999999,-0.000171
659,0.46809300000000004,-0.452348,-1.534138,0.405806,0.43707799999999997,-0.802672,-0.010964,0.006288,0.00542,-0.007795999999999999,0.016092,-0.0028539999999999998
660,0.468342,-0.45244399999999996,-1.533894,0.405987,0.43716499999999997,-0.802534,-0.006711,0.00626,0.008654,-0.005749,0.021515,-0.005372999999999999
661,0.46840600000000004,-0.452329,-1.5336969999999999,0.406061,0.437061,-0.802553,0.009239,-0.0012699999999999999,0.013047999999999999,-0.007532,0.028926999999999998,-0.005782
662,0.468232,-0.45175699999999996,-1.533714,0.406034,0.436547,-0.802846,0.035882,-0.008815,0.012175,-0.006940000000000001,0.029227999999999997,-0.005961
663,0.467894,-0.45083999999999996,-1.533963,0.405943,0.435722,-0.8033399999999999,0.052947,-0.012062,0.010162000000000001,-0.012190000000000001,0.024529,-0.012211
664,0.46743500000000004,-0.44964799999999994,-1.534361,0.40580900000000003,0.434648,-0.80399,0.06573,-0.014246,0.012391,-0.021424000000000002,0.018904,-0.014003999999999999
665,0.46689200000000003,-0.448399,-1.534805,0.405616,0.43352399999999996,-0.8046939999999999,0.063592,-0.018487,0.009177,-0.024756,0.0151,-0.015344
666,0.46636099999999997,-0.447395,-1.535317,0.405384,0.432618,-0.805298,0.054051999999999996,-0.013093,0.000557,-0.036091000000000005,0.007842,-0.01268
667,0.465925,-0.446658,-1.535791,0.40517600000000004,0.431954,-0.805759,0.039136000000000004,-0.010902,-0.001686,-0.036858999999999996,0.005988,-0.011288
668,0.46568999999999994,-0.44622700000000004,-1.536116,0.40507,0.431565,-0.80602,0.017865,0.0009029999999999999,-0.005054,-0.035029000000000005,0.008666,-0.013438
669,0.465492,-0.44609799999999994,-1.5364440000000001,0.404936,0.43144899999999997,-0.80615,0.009456,0.00412,-0.009522,-0.01782,0.014688,-0.007859999999999999
670,0.465636,-0.446205,-1.536657,0.405031,0.43154499999999996,-0.8060510000000001,-0.008614,0.020158000000000002,-0.0086,-0.015276,0.011845,-0.005549
671,0.46608299999999997,-0.446547,-1.536667,0.40532399999999996,0.431854,-0.8057380000000001,-0.016063,0.027627999999999996,-0.005457,-0.005254,0.018172999999999998,-0.003878
672,0.466606,-0.446875,-1.53659,0.40568200000000004,0.432149,-0.805399,-0.017158,0.024423,-0.0022559999999999998,-0.003872,0.017313,0.0012
673,0.46707,-0.44726899999999997,-1.5363719999999998,0.40598,0.432504,-0.805059,-0.023607,0.018037,0.00198,-0.001515,0.019812,0.001439
674,0.467534,-0.44778999999999997,-1.536008,0.40625100000000003,0.432975,-0.804669,-0.035362,0.015939,0.004037,0.0009599999999999999,0.020852000000000002,-0.003513
675,0.46812299999999996,-0.448513,-1.535515,0.406584,0.433626,-0.80415,-0.042811,0.021287,0.005046,0.002916,0.022657,0.00047000000000000004
676,0.468737,-0.449243,-1.534983,0.406935,0.434284,-0.803617,-0.038577,0.016998,0.008286,-0.0032939999999999996,0.025478999999999998,0.000837
677,0.469041,-0.44959899999999997,-1.534537,0.40710799999999997,0.434604,-0.8033560000000001,-0.01414,-0.002275,0.011686,-0.009448999999999999,0.026287,0.000545
678,0.468922,-0.44949799999999995,-1.534253,0.407033,0.434514,-0.803443,0.007121,-0.016211,0.015057,-0.015934999999999998,0.02505,-0.005502
679,0.468684,-0.449171,-1.534162,0.406906,0.43421899999999997,-0.803667,0.017828,-0.013031000000000001,0.009787,-0.016937,0.024613,-0.012693000000000001
680,0.46828800000000004,-0.44870600000000005,-1.534265,0.406679,0.4338,-0.804008,0.027410000000000004,-0.02157,0.005592,-0.02115,0.022239,-0.012856
681,0.46769499999999997,-0.448171,-1.534537,0.406306,0.43331800000000004,-0.8044560000000001,0.031697,-0.023688999999999998,-0.000785,-0.027507,0.017686,-0.011279
682,0.46713999999999994,-0.447733,-1.534841,0.405945,0.43292299999999995,-0.804851,0.026387,-0.018344,-0.0008289999999999999,-0.028319999999999998,0.012268000000000001,-0.010914
683,0.46680699999999997,-0.447395,-1.535067,0.40574299999999996,0.432619,-0.8051159999999999,0.014704,-0.006586,-0.000926,-0.026166000000000002,0.014266,-0.012449
684,0.46670500000000004,-0.44725699999999996,-1.535166,0.405688,0.43249399999999993,-0.805211,0.007254999999999999,-0.0012369999999999998,8.4e-05,-0.023226,0.012559,-0.011927
685,0.466668,-0.447267,-1.53521,0.405656,0.43250299999999997,-0.805222,0.000878,0.00305,-0.001034,-0.016602000000000002,0.012306000000000001,-0.010955
686,0.466775,-0.447354,-1.535212,0.405725,0.43258199999999997,-0.805146,-0.006547,0.011603,-0.002166,-0.015283000000000001,0.012440999999999999,-0.008163
687,0.467024,-0.44754399999999994,-1.535197,0.405889,0.432753,-0.804971,-0.009733,0.01481,-0.0021920000000000004,-0.011022,0.014772,-0.0058969999999999995
688,0.467282,-0.447767,-1.535152,0.406053,0.432954,-0.80478,-0.012938999999999999,0.014816999999999999,-0.001146,-0.010545,0.017988999999999998,-0.0019219999999999999
689,0.467607,-0.447991,-1.535025,0.406271,0.43315600000000004,-0.804561,-0.012958,0.0148,0.003127,-0.009771,0.016902,-0.003071
690,0.467963,-0.44817399999999996,-1.534813,0.406521,0.43332,-0.804346,-0.011904999999999999,0.014783000000000001,0.006339,-0.007443000000000001,0.020064,-0.002951
691,0.46829499999999996,-0.448321,-1.534525,0.40676,0.433453,-0.804154,-0.010872,0.010506,0.009556,-0.009604000000000001,0.020831,-0.0037070000000000002
692,0.46858599999999995,-0.448457,-1.5342200000000001,0.406967,0.433576,-0.803983,-0.010882,0.009436,0.010626,-0.012237,0.022876,-0.004382
693,0.46876599999999996,-0.44853000000000004,-1.533974,0.407097,0.433641,-0.803882,-0.0045,0.003031,0.008542000000000001,-0.014657,0.022016,-0.0034
694,0.46881999999999996,-0.448509,-1.533819,0.407145,0.433623,-0.803868,0.0018920000000000002,-0.0012439999999999999,0.006456,-0.017466,0.021761000000000003,-0.005642
695,0.46880299999999997,-0.44843599999999995,-1.533743,0.407145,0.43355699999999997,-0.8039029999999999,0.002964,-0.002305,0.004328,-0.016886,0.01908,-0.007208
696,0.468765,-0.44838199999999995,-1.5337180000000001,0.40712600000000004,0.433508,-0.80394,0.00404,-0.001239,0.003266,-0.016821,0.018488,-0.007889
697,0.468728,-0.44831099999999996,-1.533723,0.40710999999999997,0.43344399999999994,-0.803982,0.002978,-0.001231,0.0021899999999999997,-0.017691,0.018415,-0.008671
698,0.468707,-0.44829300000000005,-1.533733,0.407096,0.433428,-0.803998,0.002997,0.000908,5.1e-05,-0.015205000000000002,0.017805,-0.006229
699,0.468684,-0.448225,-1.533776,0.407091,0.433367,-0.804033,0.005121,0.000892,0.002203,-0.019395,0.015821,-0.006666
700,0.468733,-0.448171,-1.533724,0.407141,0.43331800000000004,-0.804034,0.001911,0.000895,0.0043170000000000005,-0.017325,0.017366,-0.007276
701,0.46874799999999994,-0.448158,-1.533666,0.407156,0.433306,-0.804033,-0.001225,0.008365000000000001,0.002071,-0.015172999999999999,0.00984,-0.011549
702,0.46901800000000005,-0.448201,-1.5335889999999999,0.40736500000000003,0.433345,-0.803906,-0.002288,0.011556,0.004195,-0.013794999999999998,0.019809999999999998,-0.008823000000000001
703,0.46924399999999994,-0.44828100000000004,-1.533463,0.40753,0.433417,-0.803784,-0.007626999999999999,0.01051,0.004159,-0.014662,0.018014,-0.005314
704,0.469451,-0.448438,-1.533382,0.407666,0.433559,-0.803638,-0.008674,0.009469,-0.001188,-0.010525,0.01714,-0.008938
705,0.469688,-0.44864799999999994,-1.533339,0.407815,0.43374799999999997,-0.8034600000000001,-0.010798,0.009484999999999999,-0.003339,-0.010445,0.020201,-0.008429
706,0.46992700000000004,-0.448871,-1.5332649999999999,0.407963,0.43394799999999994,-0.803277,-0.010798,0.012668,-0.000138,-0.015324,0.022228,-0.007087
707,0.470203,-0.449063,-1.533089,0.408148,0.434122,-0.803089,-0.00978,0.009439,0.00735,-0.019949,0.024817,-0.006786
708,0.47045600000000004,-0.449093,-1.5327620000000002,0.40834499999999996,0.43414899999999995,-0.802975,-0.005579,0.004059,0.017001,-0.021855,0.03216,-0.008198
709,0.470617,-0.44883999999999996,-1.532303,0.408523,0.433921,-0.803007,0.008102,-0.002411,0.030958,-0.024963,0.025811,-4.8e-05
710,0.47065200000000007,-0.448036,-1.531751,0.40871,0.433196,-0.803303,0.034658,-0.015338999999999998,0.043977999999999996,-0.025149,0.026536,0.00024900000000000004
711,0.470261,-0.44683900000000004,-1.531418,0.40863,0.43211700000000003,-0.803925,0.054886000000000004,-0.029241000000000003,0.039864,-0.014908000000000001,0.014950999999999999,-0.009094
712,0.46953199999999995,-0.44569899999999996,-1.531479,0.408267,0.43108900000000006,-0.804661,0.047513,-0.034435,0.013113999999999999,-0.007051999999999999,-0.001035,-0.008662999999999999
713,0.468725,-0.44523100000000004,-1.531916,0.407709,0.430667,-0.8051699999999999,0.022076,-0.025707999999999998,-0.015916999999999997,-0.00535,-0.008715,-0.001242
714,0.46817600000000004,-0.445431,-1.532529,0.40722800000000003,0.43084700000000004,-0.8053170000000001,-0.006561,-0.005299,-0.033235,0.000167,-0.0017850000000000001,-0.001125
715,0.46803999999999996,-0.446222,-1.5330840000000001,0.406964,0.431561,-0.805068,-0.030979000000000003,0.01293,-0.041974000000000004,0.0031309999999999997,0.011692000000000001,-0.007478
716,0.46832399999999996,-0.447279,-1.53357,0.406986,0.432514,-0.804545,-0.040499,0.031073000000000003,-0.042064,0.000942,0.023312,-0.011724
717,0.46901400000000004,-0.44842600000000005,-1.533811,0.407317,0.43354799999999993,-0.803821,-0.051154000000000005,0.044916000000000005,-0.031474,-0.016051,0.031586,-0.008313
718,0.469905,-0.44945,-1.5337690000000002,0.40783200000000003,0.43446999999999997,-0.8030619999999999,-0.041807,0.041716,-0.014369,-0.027719999999999998,0.042718,-0.008889
719,0.470718,-0.44992200000000004,-1.533547,0.408391,0.434896,-0.802547,-0.014213,0.030881,0.007201999999999999,-0.036764,0.047191000000000004,-0.011021
720,0.47119300000000003,-0.44947299999999996,-1.5331709999999998,0.408862,0.43449099999999996,-0.8025260000000001,0.031418,0.0061,0.037462999999999996,-0.040774,0.040132999999999995,-0.013926
721,0.471225,-0.448175,-1.5327709999999999,0.409143,0.433321,-0.803016,0.061151,-0.012165,0.050512,-0.030418999999999998,0.028242000000000003,-0.02076
722,0.47098100000000004,-0.446543,-1.532504,0.409267,0.43185,-0.803744,0.06968099999999999,-0.018565,0.045239,-0.024212,0.023334999999999998,-0.016385
723,0.47066800000000003,-0.44513,-1.532383,0.409292,0.430575,-0.804416,0.053745,-0.017388,0.031239,-0.022772,0.015302000000000001,-0.010099
724,0.470318,-0.44448000000000004,-1.53233,0.409137,0.429989,-0.804808,0.016511,-0.010798,0.013878999999999999,-0.01018,0.00043099999999999996,-0.000947
725,0.47046499999999997,-0.444612,-1.532057,0.40923000000000004,0.430108,-0.804697,-0.025004,0.01384,0.008142,0.001018,0.0014869999999999998,-0.0010429999999999999
726,0.47115,-0.445274,-1.5315530000000002,0.409652,0.430705,-0.804163,-0.043064,0.028825999999999997,0.00586,0.00406,0.004598,0.000223
727,0.47189899999999996,-0.44597,-1.531073,0.41011800000000004,0.43133299999999997,-0.803589,-0.036667,0.027738,0.005907,0.002007,0.018144999999999998,-0.000656
728,0.472473,-0.446297,-1.530783,0.41051400000000005,0.43162799999999996,-0.8032279999999999,-0.008962000000000001,0.018062,0.0039759999999999995,-0.012809000000000001,0.010953000000000001,0.006963
729,0.472671,-0.446096,-1.530834,0.410713,0.431447,-0.8032239999999999,0.019805,0.005195,-7.900000000000001e-05,-0.015250999999999999,0.00851,0.002473
730,0.472473,-0.445708,-1.531211,0.41063,0.431096,-0.803454,0.025134,-0.005437,-0.009643,-0.018815000000000002,0.010431999999999999,-0.0012640000000000001
731,0.472213,-0.445571,-1.5317,0.410448,0.43097299999999994,-0.803613,0.013465999999999999,-3.2e-05,-0.019344999999999998,-0.009126,0.020763,-0.01734
732,0.47216199999999997,-0.44567700000000005,-1.5321790000000002,0.410386,0.431069,-0.803593,0.001802,0.013866,-0.021581,-0.009614,0.022575,-0.016153999999999998
733,0.47235299999999997,-0.44596899999999995,-1.532576,0.41048199999999996,0.431332,-0.803403,-0.0078060000000000004,0.019178999999999998,-0.021746,-0.013174000000000002,0.022434,-0.011065
734,0.47258900000000004,-0.446377,-1.532833,0.410592,0.4317,-0.803149,-0.015303,0.015997,-0.01859,-0.014916,0.026155,-0.008405
735,0.47275600000000007,-0.446849,-1.532987,0.41063299999999997,0.432126,-0.802899,-0.017480000000000002,0.0096,-0.015392,-0.022496000000000002,0.026599,-0.003986
736,0.472725,-0.44719799999999993,-1.533283,0.41053900000000004,0.43244099999999996,-0.802778,-0.005754,0.0042450000000000005,-0.018508,-0.039339,0.030632999999999997,-0.004748
737,0.472709,-0.447446,-1.533281,0.41047799999999995,0.43266499999999997,-0.802689,-0.013380000000000001,-0.006479,0.006022,-0.022584,0.019133,-0.000183
738,0.472786,-0.44736000000000004,-1.532932,0.41055600000000003,0.432587,-0.80269,0.004733,0.004046,0.022158,-0.016222999999999998,0.034744,-0.015547
739,0.473059,-0.446941,-1.532741,0.410858,0.432209,-0.802739,0.020793,0.009346,0.014786,-0.015716,0.032833,-0.009959
740,0.47293599999999997,-0.44644300000000003,-1.53282,0.410858,0.43176000000000003,-0.8029810000000001,0.026099,-0.004490999999999999,0.007363,-0.011138,0.016543000000000002,-0.012311
741,0.47279099999999996,-0.446038,-1.5329270000000002,0.410821,0.43139399999999994,-0.803197,0.015459,-0.000184,0.005147,-0.005868,0.016985,-0.014842
742,0.47288199999999997,-0.44595100000000004,-1.532985,0.41091099999999997,0.431316,-0.803193,0.0027199999999999998,0.010457,-0.001519,-0.018653,0.012379000000000001,0.001023
743,0.47307899999999997,-0.446082,-1.533044,0.41104300000000005,0.431435,-0.8030609999999999,-0.006868000000000001,0.010503,-0.004790999999999999,-0.017443,0.010048,-0.005425999999999999
744,0.473278,-0.446435,-1.533016,0.411134,0.431753,-0.802844,-0.01967,0.009487,-0.005947,-0.011399,0.010447,-0.0038880000000000004
745,0.47348,-0.44688599999999995,-1.532997,0.411207,0.432159,-0.802588,-0.02178,0.011637999999999999,-0.009169,-0.015043,0.014419999999999999,-0.002008
746,0.47375200000000006,-0.44741000000000003,-1.5329840000000001,0.411322,0.43263199999999996,-0.8022739999999999,-0.022823,0.015907,-0.01025,-0.014516999999999999,0.020707,-0.008212
747,0.474017,-0.447838,-1.5329780000000002,0.41145,0.433018,-0.802,-0.017522,0.010553,-0.00807,-0.013378999999999999,0.023068,-0.008272
748,0.47410399999999997,-0.448046,-1.5330270000000001,0.411479,0.43320600000000004,-0.801884,-0.0037049999999999995,0.00197,-0.004758,-0.013666999999999999,0.026527,-0.004192
749,0.47398900000000005,-0.448032,-1.533142,0.41138900000000006,0.433192,-0.801937,0.00795,-0.005593,-0.001518,-0.017514,0.02419,-0.006825
750,0.473787,-0.447845,-1.533276,0.411264,0.43302399999999996,-0.802092,0.012198,-0.0077469999999999995,0.000651,-0.018106,0.023351,-0.007097
751,0.47361499999999995,-0.44770299999999996,-1.5333860000000001,0.411154,0.432896,-0.802217,0.00795,-0.0045320000000000004,-0.00045099999999999996,-0.017294,0.020641,-0.00627
752,0.473483,-0.447664,-1.533461,0.41105600000000003,0.43286099999999994,-0.8022859999999999,0.0036829999999999996,-0.0034560000000000003,0.000586,-0.020507,0.01976,-0.006399
753,0.473312,-0.447603,-1.533509,0.41093,0.432806,-0.802381,0.005797,-0.006663,0.001673,-0.022472,0.018747,-0.005511
754,0.473145,-0.44747200000000004,-1.533503,0.41082299999999994,0.432688,-0.8025,0.007912,-0.007749,0.004894,-0.018946,0.019873,-0.005011
755,0.47304700000000005,-0.447338,-1.53347,0.410771,0.43256700000000003,-0.8025909999999999,0.001534,-0.003461,0.003776,-0.016513999999999997,0.019825,-0.007864
756,0.473204,-0.447455,-1.5333700000000001,0.41087299999999993,0.432672,-0.8024819999999999,-0.009067,0.009368000000000001,0.001549,-0.011093,0.01795,-0.010537000000000001
757,0.47338100000000005,-0.44760200000000006,-1.5332700000000001,0.410987,0.432805,-0.8023520000000001,-0.0060149999999999995,0.004974,0.0013779999999999999,-0.014303999999999999,0.019053999999999998,-0.0036630000000000005
758,0.473441,-0.447647,-1.533184,0.411026,0.432845,-0.802311,-0.0007099999999999999,0.000686,0.003557,-0.016006,0.016267,-0.004666
759,0.47358199999999995,-0.447705,-1.533094,0.411127,0.43289799999999995,-0.80223,-0.006006,0.010288,0.004576,-0.018458000000000002,0.01806,-0.008103
760,0.47390600000000005,-0.44788900000000004,-1.53293,0.411351,0.43306300000000003,-0.802026,-0.01345,0.013518,0.002384,-0.019124000000000002,0.016216,-0.009131
761,0.474264,-0.448222,-1.532758,0.41157200000000005,0.433363,-0.801751,-0.019803,0.018888,-0.003009,-0.014203,0.016832,-0.012245
762,0.47467700000000007,-0.448626,-1.532677,0.41182299999999994,0.43372799999999995,-0.801424,-0.018712,0.022088999999999998,-0.005142,-0.012974000000000001,0.018938999999999998,-0.006193
763,0.475177,-0.44905900000000004,-1.532636,0.412138,0.434118,-0.8010510000000001,-0.019746,0.027426999999999997,-0.007292,-0.012587000000000001,0.021967,-0.005497999999999999
764,0.47571199999999997,-0.449485,-1.5325739999999999,0.41248100000000004,0.43450200000000005,-0.800667,-0.019765,0.024227000000000002,-0.006220000000000001,-0.014746,0.02288,-0.005913
765,0.47612200000000005,-0.44977,-1.5324389999999999,0.412753,0.434759,-0.800387,-0.012369,0.017771000000000002,0.003454,-0.019229,0.0227,-0.001645
766,0.47643800000000003,-0.449912,-1.532261,0.41297799999999996,0.43488699999999997,-0.8002020000000001,-0.008217,0.012229,0.006608,-0.021346,0.022969,-0.007233
767,0.476677,-0.449937,-1.5320719999999999,0.41316400000000003,0.434909,-0.800093,-0.001854,0.004746,0.00773,-0.017336,0.023083000000000003,-0.0027170000000000002
768,0.476738,-0.449937,-1.531959,0.413213,0.434909,-0.800068,-0.0018399999999999998,0.003698,0.0034590000000000003,-0.015004,0.021176,-0.00732
769,0.476833,-0.450007,-1.531875,0.413275,0.434972,-0.800002,-0.003978,0.0015789999999999999,0.002378,-0.015585,0.021601,-0.00525
770,0.47689799999999993,-0.450032,-1.531801,0.413321,0.43499399999999994,-0.799966,-0.002911,0.002636,0.003452,-0.015921,0.020832,-0.0037600000000000003
771,0.476948,-0.450146,-1.531725,0.413339,0.435097,-0.799901,-0.007164,0.003725,0.001285,-0.012277,0.021339,-0.003124
772,0.477051,-0.450216,-1.5316239999999999,0.413408,0.43516000000000005,-0.7998310000000001,-0.003997,-0.00056,0.004517,-0.015901,0.021337000000000002,-0.007344
773,0.477051,-0.450237,-1.531517,0.41340299999999996,0.435179,-0.799823,-0.0029809999999999997,0.00032599999999999996,0.0034200000000000003,-0.014279,0.018739,-0.009
774,0.47713199999999995,-0.450273,-1.5315159999999999,0.41346099999999997,0.435212,-0.799775,0.000277,0.0077930000000000004,-0.0019079999999999998,-0.011590000000000001,0.018019999999999998,-0.0068200000000000005
