,attitude.roll,attitude.pitch,attitude.yaw,gravity.x,gravity.y,gravity.z,rotationRate.x,rotationRate.y,rotationRate.z,userAcceleration.x,userAcceleration.y,userAcceleration.z
0,1.143613,-1.1551719999999999,1.539778,0.36746799999999996,0.9148639999999999,-0.167277,-0.6256390000000001,0.437403,0.887691,0.058695000000000004,0.016105,0.001231
1,1.191573,-1.144401,1.586837,0.38419699999999996,0.9104620000000001,-0.153107,-0.69172,0.14072,0.8128340000000001,0.08939,0.039504000000000004,-0.038894
2,1.23044,-1.135627,1.627222,0.39737100000000003,0.906799,-0.140724,-0.580249,0.116389,0.673707,0.142989,0.078537,-0.08181000000000001
3,1.264958,-1.126012,1.6617119999999999,0.410287,0.902703,-0.129546,-0.536339,0.202327,0.723042,0.11411099999999999,0.090995,-0.072251
4,1.295468,-1.1150879999999999,1.691324,0.42351300000000003,0.89795,-0.119644,-0.41667299999999996,0.170237,0.6523479999999999,0.035334,-0.026978,-0.08956900000000001
5,1.318231,-1.107312,1.7140849999999999,0.432874,0.8945,-0.11171400000000001,-0.39365900000000004,0.099605,0.44536899999999996,0.036258,-0.081863,-0.053309
6,1.340203,-1.102244,1.7376639999999999,0.43963199999999997,0.892223,-0.10321199999999998,-0.49275699999999995,0.019422,0.336889,0.030964999999999996,-0.11056099999999999,-0.04138
7,1.363278,-1.098276,1.7634610000000002,0.44535699999999995,0.890424,-0.09377,-0.548158,0.0037689999999999998,0.30340700000000004,-0.030608,-0.163358,-0.017588999999999997
8,1.385422,-1.095341,1.7884639999999998,0.449891,0.889084,-0.084367,-0.555247,0.020047,0.23496999999999998,-0.05449,-0.177384,-0.023742
9,1.407203,-1.092811,1.8158029999999998,0.45383999999999997,0.8879229999999999,-0.074915,-0.565678,-0.193918,0.205262,-0.134641,-0.14408800000000002,-0.073676
10,1.424821,-1.0905120000000001,1.839938,0.457108,0.886864,-0.067205,-0.52507,-0.196122,0.18845599999999998,-0.05874600000000001,-0.197151,-0.02119
11,1.44175,-1.088376,1.8636549999999998,0.46005799999999997,0.885875,-0.0597,-0.5165930000000001,-0.194081,0.203468,-0.092977,-0.155299,-0.033943
12,1.4587709999999998,-1.0850739999999999,1.885892,0.46391099999999996,0.884338,-0.052188,-0.473621,-0.125001,0.206884,-0.06643500000000001,-0.175277,-0.040616
13,1.4719389999999999,-1.0825870000000002,1.903736,0.46674499999999997,0.883174,-0.046292,-0.358194,-0.11779400000000001,0.169226,-0.023096000000000002,-0.152263,-0.084872
14,1.481473,-1.079583,1.9168939999999999,0.46980600000000006,0.881761,-0.042076,-0.292044,-0.11271500000000001,0.173954,0.023236,-0.12674100000000002,-0.062339
15,1.489341,-1.077437,1.929036,0.47200699999999995,0.880747,-0.038533,-0.259937,-0.159422,0.104804,0.038277,-0.066202,-0.093913
16,1.493509,-1.07666,1.9377490000000002,0.47284499999999996,0.8803790000000001,-0.036618,-0.17216700000000001,-0.182814,0.017852,0.07242699999999999,-0.009941,-0.104678
17,1.493916,-1.077518,1.9414220000000002,0.47210699999999994,0.880785,-0.036367000000000003,-0.025287,-0.095684,-0.053872,0.13179000000000002,0.058424000000000004,-0.118967
18,1.490524,-1.0788870000000002,1.938641,0.470779,0.881432,-0.037872,0.092561,-0.030933999999999996,-0.097997,0.172181,0.072043,-0.059571000000000006
19,1.485276,-1.0810030000000002,1.93389,0.468714,0.8824299999999999,-0.040182,0.08504500000000001,-0.07232899999999999,-0.128975,0.136602,0.125474,-0.020166
20,1.479933,-1.083636,1.9302439999999998,0.46617700000000006,0.883666,-0.042475,0.076304,-0.124472,-0.135379,0.10846900000000001,0.187089,-0.006567
21,1.471099,-1.086284,1.924161,0.463454,0.8849020000000001,-0.046359,0.19561099999999998,-0.191894,-0.161165,0.221558,0.22157399999999997,0.075213
22,1.4569239999999999,-1.089013,1.9109099999999999,0.46034899999999995,0.8861700000000001,-0.052649,0.31676,-0.07295499999999999,-0.173289,0.31154699999999996,0.27243,0.118872
23,1.441853,-1.093541,1.8946169999999998,0.45551899999999995,0.888259,-0.059064,0.347558,-0.019187,-0.325899,0.26458899999999996,0.265305,0.15833699999999998
24,1.425742,-1.0987959999999999,1.876628,0.449883,0.890661,-0.065719,0.406149,-0.012042,-0.298793,0.219642,0.278483,0.157745
25,1.40509,-1.104325,1.856037,0.44356599999999996,0.8931610000000001,-0.07418200000000001,0.426935,-0.220563,-0.384907,0.047645,0.263654,0.134683
26,1.378174,-1.109853,1.834196,0.436557,0.895633,-0.085146,0.447452,-0.37096799999999996,-0.352524,-0.166873,0.17313800000000001,0.038301999999999996
27,1.348575,-1.113685,1.808807,0.43049399999999993,0.897331,-0.09727100000000001,0.5635680000000001,-0.32059899999999997,-0.262047,-0.129103,0.140236,0.11423900000000001
28,1.317078,-1.112655,1.7776720000000001,0.428112,0.896876,-0.11101199999999999,0.7094689999999999,-0.065638,0.053771000000000006,-0.135769,-0.139293,0.161641
29,1.295308,-1.105643,1.7524520000000001,0.43163599999999996,0.893753,-0.12201300000000001,0.609112,0.046054000000000005,0.18111300000000002,-0.056665999999999994,0.153778,0.014835
30,1.2705440000000001,-1.1006200000000002,1.723918,0.432766,0.891488,-0.13399,0.753891,0.016511,-0.015459,-0.071392,0.205008,-0.000989
31,1.23433,-1.0978629999999998,1.682897,0.42995,0.890236,-0.150382,1.043123,0.047322,-0.24528200000000003,0.002362,0.238197,0.061683
32,1.184016,-1.095574,1.627873,0.423729,0.889191,-0.172583,1.298921,-0.16281199999999998,-0.39811799999999997,0.057564,0.166107,0.131171
33,1.126098,-1.094434,1.568063,0.413943,0.888669,-0.197257,1.197794,-0.22804000000000002,-0.515177,0.040311,0.13359400000000002,0.127571
34,1.081708,-1.093007,1.521513,0.405901,0.888014,-0.21602800000000003,0.866698,-0.158247,-0.365892,-0.003878,0.038637,0.10566099999999999
35,1.044463,-1.092095,1.4843879999999998,0.398275,0.8875940000000001,-0.23139899999999997,0.735167,-0.235514,-0.376325,-0.061804,-0.004232,0.039687
36,1.00969,-1.090271,1.450209,0.391361,0.8867520000000001,-0.24596700000000002,0.719001,-0.19952899999999998,-0.303845,-0.052249000000000004,-0.005633,0.057734
37,0.97856,-1.087752,1.417829,0.385368,0.8855850000000001,-0.259275,0.6789970000000001,-0.091749,-0.316013,-0.086891,-0.131618,0.103697
38,0.9491870000000001,-1.08647,1.386827,0.37850900000000004,0.8849889999999999,-0.271142,0.604561,-0.106125,-0.385949,-0.08551,-0.146006,0.105202
39,0.9161540000000001,-1.085561,1.352087,0.369985,0.8845649999999999,-0.283984,0.759654,-0.122227,-0.48953100000000005,-0.13614400000000002,-0.11620899999999999,0.071079
40,0.875509,-1.084117,1.309144,0.359122,0.883891,-0.299602,0.801746,-0.128308,-0.603529,-0.124548,-0.129099,0.069606
41,0.8394879999999999,-1.0847129999999998,1.2702120000000001,0.347706,0.8841700000000001,-0.31198899999999996,0.5908329999999999,-0.061498000000000004,-0.6114970000000001,-0.115773,-0.13835,0.058952
42,0.809852,-1.084955,1.23781,0.338154,0.884282,-0.32200700000000004,0.516644,-0.043715,-0.465692,-0.174046,-0.241292,0.11573900000000001
43,0.786032,-1.085335,1.211333,0.33015100000000003,0.88446,-0.329733,0.36425100000000005,0.007896,-0.45293599999999995,-0.13866900000000001,-0.255355,0.129706
44,0.7702600000000001,-1.088586,1.192866,0.32290599999999997,0.885972,-0.332833,0.079135,0.030938,-0.373772,-0.128814,-0.223268,0.115746
45,0.763575,-1.0941,1.1838440000000001,0.317291,0.888516,-0.331451,-0.12341500000000001,0.11666300000000002,-0.324022,-0.110854,-0.183178,0.074172
46,0.7664920000000001,-1.100395,1.182667,0.31437,0.891386,-0.326488,-0.25602800000000003,0.199598,-0.17016199999999998,-0.139322,-0.10121000000000001,0.087047
47,0.777947,-1.106105,1.1895639999999998,0.314512,0.8939600000000001,-0.319234,-0.334057,0.303717,-0.03304,-0.137327,-0.092035,0.029682999999999998
48,0.7940659999999999,-1.1097110000000001,1.1998950000000002,0.317315,0.8955700000000001,-0.311862,-0.240389,0.361552,0.074362,-0.131128,-0.066316,0.037707
49,0.808671,-1.109449,1.2074049999999998,0.32200500000000004,0.895453,-0.307356,-0.043211,0.39570500000000003,0.153676,-0.11033499999999999,-0.086005,-0.047518
50,0.822069,-1.107013,1.2136040000000001,0.327691,0.894367,-0.304498,-0.011392,0.39012199999999997,0.190225,-0.079171,-0.037616000000000004,-0.142921
51,0.8320280000000001,-1.104166,1.216923,0.332588,0.8930889999999999,-0.302933,0.10596300000000002,0.322868,0.123833,-0.059288,0.013297999999999999,-0.175644
52,0.83447,-1.097465,1.213955,0.337754,0.8900549999999999,-0.306132,0.380293,0.298807,0.308446,0.007659,-0.148707,-0.16806600000000002
53,0.8496370000000001,-1.0873680000000001,1.2208709999999998,0.34909,0.8854069999999999,-0.30689299999999997,0.022884,0.47193,0.480916,0.019486,0.21933000000000002,-0.127815
54,0.8671610000000001,-1.08535,1.233982,0.35577600000000004,0.884467,-0.30188400000000004,-0.20771599999999998,0.199917,0.24037199999999997,0.034605000000000004,0.25628,-0.17042100000000002
55,0.8748319999999999,-1.0834700000000002,1.2379870000000002,0.35935700000000004,0.8835879999999999,-0.300211,-0.028529000000000002,0.169433,-0.016847,0.030414,0.389102,-0.11070799999999999
56,0.8868590000000001,-1.090294,1.2472940000000001,0.358259,0.886763,-0.292051,-0.502053,0.052400999999999996,-0.175965,0.229204,0.175112,0.156553
57,0.900194,-1.102385,1.269009,0.353695,0.892287,-0.280563,-0.93332,-0.423546,-0.12495999999999999,0.236119,0.271119,0.256988
58,0.923566,-1.113378,1.303973,0.352308,0.8971959999999999,-0.26629,-0.9362299999999999,-0.319189,0.153692,0.231264,0.067083,0.300561
59,0.953642,-1.1201290000000002,1.3427559999999998,0.355209,0.900156,-0.252064,-0.858244,-0.22387800000000002,0.22675399999999998,0.047363999999999996,-0.042979,0.29163
60,0.987591,-1.126557,1.382815,0.358722,0.9029379999999999,-0.23667,-0.929535,0.045926,0.21629600000000002,0.03851,-0.10592599999999999,0.29444000000000004
61,1.0330549999999998,-1.1337620000000002,1.4292770000000001,0.36351,0.906011,-0.216784,-1.0509540000000002,0.284088,0.170277,-0.034943,-0.037129,0.179583
62,1.077135,-1.143597,1.466736,0.364844,0.9101299999999999,-0.196323,-0.8344889999999999,0.6266729999999999,-0.174753,0.133187,0.065609,0.136737
63,1.1163040000000002,-1.15539,1.493757,0.362583,0.9149520000000001,-0.17716099999999999,-0.757663,0.771663,-0.269474,0.135449,0.060786,0.117575
64,1.1651340000000001,-1.163773,1.529623,0.363736,0.9183030000000001,-0.156219,-0.849684,0.797316,0.05459,0.11006400000000001,0.134675,0.10443
65,1.219683,-1.165748,1.5739239999999999,0.370008,0.919084,-0.13552999999999998,-0.8400290000000001,0.610811,0.33263400000000004,0.11307,0.14135699999999998,0.028811
66,1.273657,-1.161857,1.618087,0.380197,0.917543,-0.11641800000000001,-0.674416,0.8417540000000001,0.5108189999999999,0.179617,0.004744,0.076303
67,1.322873,-1.156425,1.6548990000000001,0.39029200000000003,0.9153690000000001,-0.09879500000000001,-0.6498010000000001,0.7144159999999999,0.36587600000000003,-0.011156000000000001,-0.004404,0.0021149999999999997
68,1.370539,-1.1556799999999998,1.690189,0.39522399999999996,0.915069,-0.080222,-0.673465,0.86265,0.08030599999999999,0.040583,-0.087173,-0.0001
69,1.413728,-1.1595280000000001,1.7105259999999998,0.394837,0.916615,-0.06253099999999999,-0.291325,1.3630229999999999,-0.174039,0.06301799999999999,-0.138905,0.047898
70,1.448213,-1.163749,1.7218930000000001,0.392915,0.918294,-0.048407,-0.281215,1.031565,-0.14363399999999998,-0.023652,-0.069569,0.041892
71,1.479963,-1.165449,1.740375,0.392698,0.9189649999999999,-0.035768,-0.398833,0.671218,0.029057999999999997,0.008105,-0.160268,0.124392
72,1.513439,-1.162424,1.7614419999999997,0.396448,0.9177690000000001,-0.022764,-0.437012,0.717287,0.262673,-0.062417999999999994,-0.236921,0.066526
73,1.543993,-1.1583940000000001,1.7853720000000002,0.40065300000000004,0.9161600000000001,-0.010742,-0.47237399999999996,0.31738299999999997,0.133684,-0.10579200000000001,-0.15378599999999998,0.001342
74,1.574199,-1.157958,1.809984,0.40119299999999997,0.9159860000000001,0.0013650000000000001,-0.5236770000000001,0.388457,-0.013112,0.050558,-0.23579499999999998,-0.014946000000000001
75,1.614759,-1.160618,1.8392580000000003,0.398372,0.91705,0.017525,-0.601007,0.783694,-0.217121,-0.056026,-0.201336,-0.071007
76,1.6471650000000002,-1.164762,1.860525,0.393802,0.918694,0.030133,-0.291677,0.515296,-0.231708,-0.039264,-0.058846,-0.08566
77,1.666579,-1.170021,1.8725630000000002,0.388328,0.920759,0.037308999999999995,-0.180862,0.38322,-0.332246,0.112023,-0.011472,-0.122057
78,1.6816490000000002,-1.177651,1.880939,0.380727,0.923709,0.042378,-0.08238,0.39271999999999996,-0.395663,0.09283,0.013837,-0.102132
79,1.690034,-1.181471,1.880047,0.376852,0.925165,0.045149,0.123427,0.437645,-0.087703,0.057871000000000006,-0.02186,-0.089751
80,1.6854580000000001,-1.182843,1.867618,0.375794,0.9256850000000001,0.043279000000000005,0.288903,0.277065,-0.033999,0.097747,0.041676,-0.083959
81,1.674002,-1.183716,1.8513130000000002,0.375461,0.9260149999999999,0.038888,0.29027,0.160727,0.020638999999999998,0.06339700000000001,0.063334,-0.07271699999999999
82,1.658177,-1.183149,1.833172,0.376552,0.925801,0.032987,0.390855,-0.01007,0.02156,0.151402,0.20042000000000001,-0.018797
83,1.622637,-1.186269,1.7996240000000001,0.374601,0.926976,0.019437,0.812045,-0.283356,-0.199474,0.22528299999999998,0.203868,0.08061499999999999
84,1.5671680000000001,-1.1926649999999999,1.745308,0.369165,0.929356,-0.0013390000000000001,1.096755,-0.217743,-0.337506,0.182593,0.190456,0.189694
85,1.511501,-1.197827,1.6858689999999998,0.363725,0.931249,-0.021592,1.024909,0.032469,-0.24325700000000003,-0.0077989999999999995,0.21828699999999998,0.146669
86,1.472078,-1.19835,1.639356,0.362107,0.9314399999999999,-0.035863,0.687579,0.171398,-0.06205700000000001,-0.04651,0.204165,0.050145
87,1.446127,-1.2018209999999998,1.613546,0.357844,0.9326979999999999,-0.044844999999999996,0.370366,-0.17263599999999998,-0.331956,-0.223795,0.128887,0.014219999999999998
88,1.40937,-1.212388,1.581593,0.34620700000000004,0.936456,-0.056377,0.600274,-0.480655,-0.758312,-0.200654,-0.005029,-0.025547
89,1.3451790000000001,-1.227368,1.525586,0.32816599999999996,0.9416059999999999,-0.075322,0.9178559999999999,-0.5638770000000001,-1.00061,-0.055156,-0.175157,-0.00886
90,1.251687,-1.243291,1.440498,0.305425,0.9468479999999999,-0.100913,1.267084,-0.713313,-1.228715,0.026606,-0.406244,0.022956
91,1.1413389999999999,-1.253679,1.3370799999999998,0.283496,0.9501379999999999,-0.129831,1.321225,-0.49305299999999996,-0.946609,0.052014,-0.409184,-0.034781
92,0.9843569999999999,-1.256892,1.197967,0.25716999999999995,0.9511350000000001,-0.17086700000000002,2.594823,-2.3868169999999997,-1.591174,0.281236,-0.245142,-0.474458
93,0.614829,-1.231802,0.8990309999999999,0.191807,0.94309,-0.271631,4.9719809999999995,-4.994822,-2.7986150000000003,-0.140492,-0.656606,0.12848800000000002
94,0.296635,-1.175583,0.65688,0.112535,0.9229139999999999,-0.368181,3.7654019999999995,-4.027394,-2.325446,-0.387712,-0.834642,0.28129699999999996
95,0.15545899999999999,-1.1326690000000001,0.56058,0.06568600000000001,0.9055479999999999,-0.41912,1.7442849999999999,-2.230003,-0.909381,-0.296582,-0.691116,0.128302
96,0.072045,-1.102347,0.5352279999999999,0.0325,0.8922690000000001,-0.450324,1.9001119999999998,-4.3564940000000005,-0.196268,-0.258498,0.126148,-0.6912159999999999
97,-0.125436,-1.067951,0.457953,-0.060291,0.876215,-0.478127,1.0861889999999998,-6.670282,-3.745486,-0.034985,3.8543760000000002,-0.302848
98,-0.389552,-1.037647,0.240078,-0.193017,0.8612110000000001,-0.470163,-0.180557,-1.816841,-4.522195,-0.320396,1.557887,-0.287298
99,-0.42191999999999996,-1.024517,0.22390700000000002,-0.21274400000000002,0.854463,-0.473947,0.8529370000000001,-0.9201940000000001,0.5141319999999999,-0.12214100000000001,0.56671,-0.049338
100,-0.42319399999999996,-1.007082,0.239581,-0.21943400000000002,0.845276,-0.487187,0.900307,-0.614954,-0.467624,0.431378,-0.709595,0.503575
101,-0.459566,-0.984886,0.22141100000000002,-0.245267,0.833209,-0.49558,0.8215629999999999,-1.4058959999999998,-1.070706,0.175153,-0.585101,0.516302
102,-0.49716000000000005,-0.9567190000000001,0.20697800000000002,-0.274807,0.8173050000000001,-0.506445,1.182934,-1.040424,-0.8720979999999999,0.032177,-0.311309,0.45059799999999994
103,-0.507883,-0.933918,0.20543000000000003,-0.289211,0.803956,-0.51962,0.785764,-0.285146,-0.5275989999999999,0.035198,0.01126,0.043362
104,-0.523874,-0.917017,0.197946,-0.304238,0.793791,-0.526621,0.5842729999999999,-0.604625,-0.645034,0.078743,-0.06996000000000001,0.292047
105,-0.5432100000000001,-0.900144,0.189057,-0.321241,0.783417,-0.532031,0.589679,-0.587604,-0.643949,0.095746,-0.059585,0.297457
106,-0.5591229999999999,-0.8850049999999999,0.181031,-0.335919,0.773918,-0.536845,0.440875,-0.408339,-0.5896710000000001,0.06782300000000001,-0.24938200000000002,0.257319
107,-0.570616,-0.8751260000000001,0.172552,-0.34618000000000004,0.767624,-0.539357,0.177835,-0.141749,-0.430546,0.12010599999999999,-0.25857600000000003,0.22623200000000002
108,-0.57629,-0.8703200000000001,0.164804,-0.35124099999999997,0.7645350000000001,-0.540471,-0.009631,0.063949,-0.29325,0.143202,-0.231866,0.170843
109,-0.5763229999999999,-0.8712209999999999,0.15904300000000002,-0.350883,0.765116,-0.539882,-0.227357,0.339433,0.000773,0.040794,-0.230753,0.003917
110,-0.5744779999999999,-0.880619,0.156139,-0.345964,0.771133,-0.534468,-0.49056000000000005,0.17002799999999998,0.235229,0.017274,-0.176804,0.149291
111,-0.562634,-0.888257,0.15951500000000002,-0.336458,0.7759729999999999,-0.5335310000000001,-0.053405999999999995,0.679454,0.332702,0.007768000000000001,-0.181643,0.14835299999999998
112,-0.541438,-0.8956780000000001,0.170098,-0.32209699999999997,0.780633,-0.535592,-0.357689,0.623129,0.5624520000000001,-0.008484,-0.212945,-0.060889
113,-0.516419,-0.91274,0.179977,-0.301977,0.791183,-0.531821,-0.65028,1.0259209999999999,0.786356,0.0109,-0.247252,-0.163827
114,-0.479861,-0.933419,0.195657,-0.27472399999999997,0.803659,-0.527875,-0.6957909999999999,1.27468,0.954498,-0.016353,-0.259729,-0.167773
115,-0.42978599999999995,-0.9451639999999999,0.215311,-0.244008,0.810593,-0.532347,0.313841,2.138847,0.5555869999999999,-0.17463199999999998,0.190155,-0.18046700000000002
116,-0.373161,-0.930527,0.227802,-0.21779099999999998,0.8019350000000001,-0.556293,0.164947,1.7821169999999997,-0.147886,-0.389372,0.306372,0.323795
117,-0.40274099999999996,-0.9728629999999999,0.20275,-0.22063600000000003,0.826501,-0.51789,-2.797688,-1.130092,0.22505300000000003,-0.227255,0.081901,0.29817899999999997
118,-0.39624000000000004,-0.9870620000000001,0.220072,-0.212713,0.83441,-0.5084350000000001,0.566987,0.427921,1.1577520000000001,0.607046,0.186433,-0.317035
119,-0.311141,-1.005163,0.271556,-0.164077,0.844249,-0.510211,-0.99182,2.386975,1.7062380000000001,0.375365,0.296894,-0.186521
120,-0.268098,-1.0300639999999999,0.310797,-0.13635799999999998,0.857332,-0.49636899999999995,-0.7611140000000001,-0.249209,1.147206,0.21091300000000002,0.297133,-0.008284999999999999
121,-0.23278200000000002,-1.0598889999999999,0.33681500000000003,-0.11279600000000001,0.872301,-0.47577299999999995,-1.5349270000000002,0.9016069999999999,0.939501,-0.14718299999999998,0.166914,0.319767
122,-0.201511,-1.088329,0.359862,-0.092861,0.8858530000000001,-0.454571,-1.038241,0.408314,0.792983,0.007839,0.104458,0.144283
123,-0.173119,-1.107731,0.37896399999999997,-0.07694400000000001,0.8946870000000001,-0.440008,-0.9019590000000001,0.736176,0.469844,0.12775599999999998,0.14732,0.196767
124,-0.153288,-1.129795,0.378998,-0.06517300000000001,0.904325,-0.42183100000000007,-1.165935,1.118212,-0.000371,0.173052,0.215075,0.14554
125,-0.148678,-1.154076,0.36177600000000004,-0.059957,0.9144209999999999,-0.40028800000000003,-1.296838,0.936464,-0.256358,-0.027385000000000003,0.064903,-0.018900999999999998
126,-0.153325,-1.180495,0.335281,-0.058105,0.924795,-0.375992,-1.4400110000000002,1.055497,-0.329081,-0.052689,0.014185,-0.061980999999999994
127,-0.156932,-1.2097200000000001,0.306868,-0.055212,0.935517,-0.348927,-1.579521,1.163368,-0.277851,0.068838,0.056197000000000004,-0.031368
128,-0.17115,-1.243184,0.272333,-0.054802,0.9468129999999999,-0.317067,-1.8340310000000002,0.677895,-0.396511,0.131813,0.07322100000000001,-0.047846
129,-0.224969,-1.278605,0.21198000000000003,-0.06425399999999999,0.957615,-0.280777,-1.9403689999999998,-0.099873,-0.541535,0.203276,0.103649,-0.08667000000000001
130,-0.28726199999999996,-1.314107,0.154097,-0.071926,0.9672360000000001,-0.24345799999999998,-1.8988060000000002,-0.397873,-0.11464300000000001,0.191875,0.188602,-0.0024219999999999997
131,-0.324653,-1.35432,0.128368,-0.068506,0.9766600000000001,-0.203547,-2.109705,-0.8397879999999999,0.556362,0.205789,0.03457,-0.010259
132,-0.350224,-1.398873,0.12456300000000001,-0.058687,0.9852569999999999,-0.160663,-2.057644,-1.164611,0.755831,0.138521,-0.162854,0.032886
133,-0.35675,-1.44031,0.136958,-0.045425,0.991499,-0.12188299999999999,-1.833877,-0.67461,0.8347469999999999,0.013611000000000002,-0.181501,0.089794
134,-0.334061,-1.478772,0.162064,-0.03011,0.995769,-0.086755,-1.73131,0.198994,0.726453,-0.108303,-0.234233,0.07508200000000001
135,-0.295439,-1.515347,0.190908,-0.016105,0.9984629999999999,-0.052916,-1.61773,0.718711,0.6624869999999999,-0.17873499999999998,-0.286122,0.036467
136,-0.027393999999999998,-1.542193,0.43523199999999995,-0.0007769999999999999,0.999591,-0.028367000000000003,-0.984266,1.446976,0.741823,-0.147981,-0.221225,0.011781
137,0.758039,-1.5490549999999998,1.183638,0.01475,0.999764,-0.015580000000000002,-0.46143,2.151516,0.7232069999999999,-0.013636,-0.171349,0.067338
138,1.333236,-1.542175,1.7024439999999998,0.027596,0.99959,-0.006682,-0.377634,3.2684330000000004,0.523672,0.064735,-0.168292,0.07392699999999999
139,1.656643,-1.535201,1.9495240000000003,0.035285000000000004,0.999367,0.003037,-0.3314,4.05542,0.2805,0.034372,-0.151436,-0.033676
140,1.7756740000000002,-1.534668,1.991169,0.035194,0.999347,0.007312999999999999,0.130374,3.5899900000000002,-0.142967,-0.048607,-0.12362999999999999,-0.178776
141,1.641834,-1.541614,1.79827,0.028888,0.999574,0.0020559999999999997,0.419969,2.547933,-0.339366,-0.06763,-0.069017,-0.190624
142,1.397727,-1.547376,1.517024,0.022807,0.999726,-0.003987,0.278167,1.432878,-0.288721,-0.001109,0.069763,-0.245784
143,1.324371,-1.552067,1.4253280000000002,0.017841,0.999825,-0.004488000000000001,-0.11990899999999999,0.699199,-0.284152,0.038433999999999996,0.179268,-0.309828
144,2.01987,-1.561035,2.114137,0.008184,0.9999520000000001,0.003944,-0.628967,0.147096,-0.5690109999999999,0.035593,0.283098,-0.300209
145,-2.995025,-1.545217,-2.903268,-0.003696,0.9996729999999999,0.025034,-1.30829,0.177296,-0.605842,-0.029996,0.18695699999999998,-0.165125
146,-2.830794,-1.510728,-2.743487,-0.018322,0.9981959999999999,0.057040999999999994,-1.7115,0.22215500000000002,-0.818087,0.026683999999999996,0.23833000000000001,-0.116916
147,-2.781057,-1.472669,-2.700254,-0.034533,0.995189,0.091596,-1.7221950000000001,0.496859,-0.774717,-0.045087,0.5827680000000001,-0.006208
148,-2.751684,-1.4384,-2.685119,-0.050154000000000004,0.9912479999999999,0.122045,-1.447302,0.8700049999999999,-0.555357,0.073531,0.748498,0.18455
149,-2.793174,-1.416099,-2.758932,-0.052587,0.988058,0.144774,-1.117309,2.208026,0.48034,-0.26584800000000003,0.230829,0.395646
150,-2.843918,-1.4084219999999998,-2.864183,-0.0474,0.9868459999999999,0.154504,-0.151525,2.3725330000000002,0.594766,-0.398782,0.148515,0.11360799999999999
151,-2.801355,-1.426975,-2.832993,-0.047811,0.989676,0.13505699999999998,1.562086,-0.5839810000000001,-0.263282,-0.135783,-0.105429,-0.146898
152,-2.594941,-1.461876,-2.585063,-0.056472,0.994074,0.092805,2.6148290000000003,-2.479108,-0.9083200000000001,0.02568,-0.039942,0.161208
153,-1.870773,-1.4887059999999999,-1.817002,-0.07825499999999999,0.996633,0.024205,4.124268,-1.7328290000000002,-1.297179,0.034386,0.057857000000000006,0.033687
154,-1.0186,-1.4465860000000001,-0.9268629999999999,-0.10543399999999999,0.992296,-0.064961,4.8749519999999995,-1.6510259999999999,-1.3593389999999999,-0.181843,0.350127,-0.03445
155,-0.697257,-1.359796,-0.575518,-0.134466,0.977822,-0.16053499999999998,4.987495,-0.923323,-1.220616,-0.194742,0.129341,-0.021487
156,-0.537665,-1.277539,-0.41393800000000003,-0.148034,0.957307,-0.248271,3.9664230000000003,1.043542,-0.428034,-0.114677,0.00389,0.183757
157,-0.41601400000000005,-1.234049,-0.335805,-0.133522,0.9438340000000001,-0.302223,1.5275450000000002,2.74072,0.304784,-0.047202999999999995,-0.01993,0.307915
158,-0.342704,-1.234141,-0.298953,-0.110998,0.943865,-0.31111,-0.40019,1.230102,0.656453,-0.062891,-0.102297,0.226363
159,-0.327002,-1.254735,-0.285118,-0.099834,0.9504670000000001,-0.29434,-1.040066,-0.397555,0.391287,-0.139943,-0.10985999999999999,0.229552
160,-0.371231,-1.253749,-0.294064,-0.11309000000000001,0.95016,-0.290511,0.879748,-2.6036599999999996,-0.492987,-0.278343,-0.003307,0.013641
161,-0.41624099999999997,-1.223255,-0.303325,-0.137703,0.940213,-0.311494,1.3367799999999999,-0.848736,-0.725984,-0.24501799999999999,-0.236981,0.520845
162,-0.412421,-1.19119,-0.299098,-0.148525,0.928811,-0.339475,1.753666,-0.018923,-0.545743,-0.136159,-0.245797,0.297116
163,-0.410817,-1.150041,-0.28904,-0.163114,0.9127799999999999,-0.374456,1.945627,-0.436525,-0.7083729999999999,0.047865,-0.273346,0.370413
164,-0.417695,-1.111448,-0.29184899999999997,-0.179849,0.896342,-0.40523899999999996,1.6193819999999999,-0.114988,-0.914026,0.163583,-0.42205299999999996,0.216365
165,-0.432108,-1.076058,-0.30548000000000003,-0.19883699999999999,0.880093,-0.43115200000000004,1.42167,-0.099858,-1.062841,0.180877,-0.398038,0.199249
166,-0.44367799999999996,-1.042051,-0.321805,-0.21653899999999998,0.863441,-0.45560200000000006,1.294816,0.183856,-1.04059,0.188967,-0.327354,0.134069
167,-0.449029,-1.017248,-0.333379,-0.22820300000000002,0.850664,-0.47358900000000004,0.765626,0.33008699999999996,-0.654572,0.103432,-0.336901,0.07593
168,-0.441626,-1.0086030000000001,-0.340594,-0.227825,0.846088,-0.481896,0.011401999999999999,0.816583,-0.18403699999999998,0.050441,-0.398548,0.07247200000000001
169,-0.42776499999999995,-1.016837,-0.34692,-0.21822600000000003,0.850448,-0.478652,-0.6920149999999999,1.079732,0.152543,0.01057,-0.43382200000000004,0.275206
170,-0.40213899999999997,-1.037356,-0.349353,-0.199017,0.8610629999999999,-0.46792700000000004,-1.070998,1.5772760000000001,0.46545200000000003,-0.020663,-0.407083,0.307435
171,-0.36128299999999997,-1.0637299999999998,-0.34328000000000003,-0.17165,0.874173,-0.454258,-1.229874,1.8580139999999998,0.726765,-0.062817,-0.370846,0.31502199999999997
172,-0.310567,-1.095745,-0.32753000000000004,-0.139773,0.8892690000000001,-0.43549499999999997,-1.509562,1.8207520000000001,0.963073,-0.111295,-0.27257,0.226206
173,-0.252272,-1.1355879999999998,-0.303113,-0.10523099999999999,0.906782,-0.408246,-1.925343,1.813029,1.123616,-0.118951,-0.24261300000000002,0.147992
174,-0.183777,-1.18346,-0.267461,-0.069025,0.925919,-0.37135100000000004,-2.311401,1.7605060000000001,1.272675,-0.109991,-0.180679,0.024778
175,-0.096715,-1.232405,-0.21331999999999998,-0.032055,0.94329,-0.330405,-2.131262,1.9357509999999998,1.248071,-0.011997,0.473153,-0.5438930000000001
176,0.002374,-1.255709,-0.15898800000000002,0.000736,0.9507690000000001,-0.309883,-0.337875,2.575082,0.71819,0.005215,0.8764549999999999,-0.878014
177,0.040639999999999996,-1.2396559999999999,-0.15418199999999999,0.013209,0.945672,-0.324839,1.3377620000000001,0.743205,-0.299661,-0.147395,1.046439,-1.384679
178,0.0032409999999999995,-1.203978,-0.181841,0.0011619999999999998,0.933473,-0.358634,1.9602529999999998,-1.125009,-0.37624,-0.110644,-0.33418400000000004,-0.45768100000000006
179,-0.049973000000000004,-1.1709049999999999,-0.196606,-0.019447,0.9211030000000001,-0.388822,1.245476,-2.45552,-0.29407,-0.086495,-0.227118,-0.19739
180,-0.107188,-1.165802,-0.203878,-0.042151999999999995,0.919105,-0.39174200000000003,-0.321167,-2.293453,-0.038165,-0.130944,-0.099281,0.007601999999999999
181,-0.129333,-1.180056,-0.201546,-0.049121,0.9246270000000001,-0.377681,-0.7408170000000001,-0.45118,0.22253,-0.373502,0.316431,0.6410779999999999
182,-0.11143099999999999,-1.1911209999999999,-0.195743,-0.041212,0.9287850000000001,-0.36830999999999997,-0.359487,1.1588,0.07144299999999999,-0.363802,0.7595390000000001,0.633905
183,-0.08774,-1.182296,-0.19838499999999998,-0.033192,0.925478,-0.377334,1.018959,1.236685,-0.08780700000000001,-0.369243,0.39398,0.200256
184,-0.061772,-1.159665,-0.19248800000000002,-0.024671000000000002,0.9166690000000001,-0.398876,0.913256,0.75455,0.160968,-0.38042,-0.520368,0.376461
185,-0.06928,-1.157361,-0.183513,-0.027811000000000002,0.915746,-0.400785,-0.334675,-1.7966419999999999,0.14163399999999998,-0.13004100000000002,-0.789235,0.8137800000000001
186,-0.10325799999999999,-1.174499,-0.17778,-0.039786,0.9224969999999999,-0.383939,-1.1847290000000001,-1.655531,0.222041,0.075919,-0.165447,0.8774700000000001
187,-0.103298,-1.212,-0.172776,-0.036206999999999996,0.93632,-0.34926399999999996,-1.932439,0.854347,0.315083,0.323378,0.9084059999999999,0.388525
188,-0.033017000000000005,-1.232904,-0.15361,-0.010943000000000001,0.9434549999999999,-0.331306,-0.851492,3.1882330000000003,0.476671,0.117708,0.8739120000000001,-0.050362
189,0.091774,-1.258881,-0.086965,0.028123000000000002,0.9517479999999999,-0.305577,-1.623556,2.965789,1.361392,-0.055177,0.034962,0.076924
190,0.287815,-1.287779,0.055476,0.079264,0.960217,-0.267752,-1.804229,2.980098,1.934816,-0.25950100000000004,-0.249967,0.17626
191,0.518321,-1.29914,0.23200700000000002,0.132927,0.9633280000000001,-0.233068,-1.22389,3.036395,2.005027,-0.346016,-0.286448,0.093145
192,0.7241810000000001,-1.30254,0.38748699999999997,0.17559,0.9642350000000001,-0.19852,-1.517191,2.798553,1.26621,-0.212425,-0.18631099999999998,0.246906
193,0.930399,-1.3122850000000001,0.532809,0.204972,0.966772,-0.152738,-1.7541529999999999,3.508542,0.810719,-0.08104,-0.216604,0.19949
194,1.127881,-1.317547,0.670022,0.226354,0.968103,-0.10737100000000001,-1.457208,3.14613,0.608159,0.010737,-0.091272,0.2409
195,1.286991,-1.315346,0.765955,0.242552,0.96755,-0.070747,-0.897624,3.3599379999999996,0.46758299999999997,0.043443999999999997,0.005518,0.225685
196,1.407286,-1.309827,0.8260930000000001,0.254554,0.96614,-0.041997,-0.6052930000000001,2.878509,0.461697,-0.015769,0.006302,0.092809
197,1.505152,-1.299501,0.873534,0.267381,0.963425,-0.017577000000000002,-0.543856,2.497219,0.654894,0.019072,0.02037,-0.048768
198,1.592667,-1.285993,0.912473,0.280881,0.959717,0.006144,-0.48822600000000005,2.577798,0.702181,-0.0033229999999999996,0.055344000000000004,-0.079737
199,1.6721830000000002,-1.271385,0.937702,0.293423,0.9555100000000001,0.029851999999999997,-0.36208,2.861825,0.693084,-0.047237,0.041087,-0.073477
200,1.743814,-1.258739,0.952775,0.30241399999999996,0.9517040000000001,0.052851,-0.270119,2.776812,0.561376,-0.059570000000000005,0.05450599999999999,-0.115428
201,1.796461,-1.2486270000000002,0.9575370000000001,0.308578,0.948551,0.070842,-0.121728,2.1707650000000003,0.40936500000000003,-0.044235000000000003,0.057629,-0.159877
202,1.8300560000000001,-1.241039,0.954515,0.312973,0.9461209999999999,0.08301,-0.0032340000000000003,1.685755,0.38410900000000003,0.002396,0.088257,-0.24575999999999998
203,1.857867,-1.233233,0.948865,0.317617,0.943565,0.09376799999999999,-0.035446,1.6612799999999999,0.40528000000000003,-0.028173,0.07749299999999999,-0.29224
204,1.8864009999999998,-1.227325,0.939823,0.320106,0.941591,0.104521,0.168554,2.031905,0.251338,-0.070198,0.11123499999999999,-0.26766799999999996
205,1.9189009999999997,-1.226055,0.918825,0.31766500000000003,0.941163,0.115275,0.340692,2.995653,0.184007,-0.14872,0.211883,-0.078318
206,1.9696259999999999,-1.222995,0.899642,0.314065,0.940125,0.132351,0.20610799999999999,3.558095,0.30626,-0.46750699999999995,0.253952,-0.102993
207,2.007349,-1.219278,0.875693,0.312014,0.938851,0.145579,0.429911,2.57823,0.331512,-0.542666,0.15729500000000002,-0.131357
208,2.011709,-1.222035,0.833874,0.309033,0.9397969999999999,0.145832,0.880268,2.117477,0.079943,-0.44129700000000005,0.031577999999999995,-0.040332
209,1.99944,-1.231911,0.771007,0.302343,0.943126,0.138165,1.327316,2.498752,-0.01677,-0.35169,0.128911,-0.188915
210,1.9691869999999998,-1.24401,0.686373,0.29584299999999997,0.9470790000000001,0.12452,1.606187,2.379429,0.010968,-0.35694000000000004,0.14558800000000002,-0.25188499999999997
211,1.900885,-1.25922,0.5734239999999999,0.28999,0.951851,0.099357,2.206562,1.625058,-0.203925,-0.32726700000000003,0.08772999999999999,-0.31348400000000004
212,1.7494900000000002,-1.290799,0.387369,0.271931,0.9610559999999999,0.049116,3.57764,1.292232,-1.276031,-0.307911,0.44643,-0.013609
213,1.486773,-1.334165,0.067768,0.233578,0.972133,-0.019672,4.291627,3.156024,-2.316016,-0.480282,0.294712,0.328236
214,1.1875790000000002,-1.366723,-0.29694699999999996,0.187936,0.9792489999999999,-0.075766,2.894854,1.7946540000000002,-2.450078,-0.599511,0.59767,0.676093
215,0.8552799999999999,-1.3871069999999999,-0.635067,0.13784100000000002,0.9831770000000001,-0.119806,1.9497630000000001,-0.9264290000000001,-2.603812,-0.254814,0.558373,0.742456
216,0.46865200000000007,-1.383248,-0.9989790000000001,0.084205,0.9824639999999999,-0.166324,2.53632,-1.563887,-2.4739169999999997,0.14716400000000002,0.632251,0.6053810000000001
217,0.18044100000000002,-1.320341,-1.294337,0.044476,0.9688,-0.24380300000000002,4.7557529999999995,1.4271530000000001,-1.671762,0.480396,0.954235,0.180739
218,0.10233300000000001,-1.227854,-1.422092,0.034349,0.9417690000000001,-0.334489,4.509164,1.938229,-1.1282780000000001,0.004408,0.42230500000000004,-0.576308
219,0.016671000000000002,-1.173298,-1.5246469999999999,0.006453,0.922032,-0.38705,1.720809,-0.223929,-1.994221,-0.09532,-0.011205,-0.558858
220,-0.06275599999999999,-1.153952,-1.610317,-0.025391,0.9143709999999999,-0.404071,0.7697649999999999,0.238389,-1.43423,-0.070083,-0.369053,0.351306
221,-0.10184299999999999,-1.136257,-1.661705,-0.0428,0.907064,-0.418803,0.8109770000000001,0.33455300000000004,-1.009982,0.04515,-0.257696,0.518153
222,-0.13225699999999999,-1.115966,-1.700336,-0.057932000000000004,0.898336,-0.43546599999999996,1.016105,0.21325,-0.95605,0.147531,-0.267644,0.585307
223,-0.15548,-1.091679,-1.735988,-0.071386,0.887402,-0.455429,1.013592,0.607395,-0.9523,0.108374,-0.47890900000000003,0.271652
224,-0.165103,-1.07926,-1.764714,-0.077571,0.881609,-0.465556,0.193715,0.797588,-0.651691,0.097514,-0.543184,0.302913
225,-0.17176,-1.0788229999999999,-1.7867680000000001,-0.080734,0.881402,-0.465409,-0.199784,0.574403,-0.44157799999999997,0.111481,-0.576623,0.365952
226,-0.175286,-1.0868229999999999,-1.8041919999999998,-0.08114199999999999,0.8851530000000001,-0.458164,-0.649461,0.628554,-0.273872,0.001034,-0.614874,0.302631
227,-0.16488699999999998,-1.105157,-1.814345,-0.073697,0.8935350000000001,-0.44289700000000004,-1.143397,1.219047,0.071229,-0.112659,-0.656367,0.20843000000000003
228,-0.128476,-1.13691,-1.808244,-0.053862,0.9073389999999999,-0.41692700000000005,-1.813453,1.6924139999999999,0.555188,-0.13939100000000001,-0.6584979999999999,0.128093
229,-0.059001,-1.1848379999999998,-1.773089,-0.022197,0.9264379999999999,-0.375782,-2.636351,1.964584,1.1366129999999999,-0.1722,-0.630418,-0.06715
230,0.058212,-1.24759,-1.693528,0.018477,0.9482219999999999,-0.317058,-3.410191,2.233275,1.480172,-0.198028,-0.5035810000000001,-0.25887
231,0.24526599999999998,-1.314881,-1.5544149999999999,0.061459,0.967432,-0.245538,-3.59076,3.049141,1.404158,-0.182324,0.053212999999999996,-0.562079
232,0.472092,-1.354571,-1.402672,0.097553,0.976714,-0.191056,-1.385429,4.62878,0.600349,-0.023167,1.403779,-1.1460110000000001
233,0.49658,-1.347184,-1.449983,0.105637,0.975103,-0.194949,1.363997,1.8369220000000002,-0.773035,-0.256959,2.293223,-1.087903
234,0.342562,-1.31916,-1.587685,0.083629,0.968506,-0.23450300000000002,2.399423,-1.909787,-0.8379129999999999,-0.505733,1.460739,-0.369272
235,0.214035,-1.273887,-1.6818400000000002,0.062139,0.9562450000000001,-0.285875,2.2932360000000003,-1.8068959999999998,-0.369838,-0.56986,-0.544304,-0.298292
236,0.17244400000000001,-1.251854,-1.695707,0.053801999999999996,0.9495680000000001,-0.308898,0.15264,-0.948067,0.099083,-0.328567,0.092287,0.317931
237,0.232791,-1.29281,-1.6647319999999999,0.063303,0.9616100000000001,-0.26700100000000004,-3.018411,3.414051,0.230508,-0.032068,0.420699,1.022205
238,0.42617,-1.3317299999999999,-1.563407,0.097879,0.9715600000000001,-0.215596,-1.58381,4.387723,0.58218,0.13655699999999998,-0.229967,0.751607
239,0.518767,-1.34449,-1.5060870000000002,0.11123800000000002,0.9745020000000001,-0.194839,-0.620077,0.5401699999999999,0.22423800000000002,-0.20135699999999998,-0.46194399999999997,0.509338
240,0.58091,-1.355707,-1.444491,0.11711700000000001,0.976957,-0.178404,-1.106099,0.456453,0.26902,-0.257315,-0.404005,0.398543
241,0.732879,-1.382839,-1.330109,0.12498800000000002,0.9823879999999999,-0.13885799999999998,-2.1529,2.9349990000000004,-0.067276,-0.233448,-0.074475,0.31145
242,1.013562,-1.422834,-1.124614,0.125088,0.989074,-0.077943,-2.758297,4.19416,-0.608297,-0.159344,0.093385,0.039399
243,1.451789,-1.4522709999999999,-0.760564,0.117362,0.992984,-0.014033000000000002,-2.62285,3.6337629999999996,-0.444263,-0.07833,0.180066,-0.000737
244,1.8662330000000003,-1.446443,-0.417484,0.118611,0.9922780000000001,0.036099,-1.6942549999999998,3.8784379999999996,0.43251000000000006,0.033564,0.37999099999999997,0.284168
245,2.035384,-1.431091,-0.32976,0.124449,0.9902569999999999,0.062371,-0.298607,3.948002,0.47421599999999997,0.30841199999999996,0.194893,-0.015191
246,2.023255,-1.426978,-0.402791,0.12886,0.989676,0.062638,0.724765,2.481118,0.386036,0.306214,0.118066,-0.07428
247,1.910577,-1.428755,-0.555879,0.133428,0.9899290000000001,0.047166,1.111418,1.7781099999999999,0.29883899999999997,0.30759699999999995,-0.084412,-0.19253599999999998
248,1.822157,-1.4302219999999999,-0.683141,0.135666,0.990136,0.034838,0.671654,1.995681,0.083981,0.32861399999999996,-0.174492,-0.274019
249,1.8466770000000001,-1.434915,-0.701024,0.130296,0.9907819999999999,0.036887,-0.129167,2.130177,-0.35441500000000004,0.261382,-0.071547,-0.204657
250,1.971393,-1.441609,-0.6247229999999999,0.11858099999999999,0.991667,0.050219,-0.410865,2.6666,-0.523713,0.091837,0.094789,0.052441999999999996
251,2.113743,-1.444697,-0.5335979999999999,0.10763299999999999,0.99206,0.06495,-0.476096,2.373011,-0.308012,-0.194227,0.11006700000000001,-0.050653
252,2.2223740000000003,-1.4417719999999998,-0.45961,0.102264,0.9916879999999999,0.077997,-0.467558,1.417565,-0.07599199999999999,-0.283798,0.08898500000000001,-0.10520299999999999
253,2.306689,-1.436596,-0.392785,0.099138,0.991009,0.089778,-0.487379,0.753113,-0.12869,-0.221239,0.019673,-0.17865999999999999
254,2.389655,-1.435035,-0.332115,0.092414,0.990799,0.098814,-0.234927,1.4718639999999998,-0.269921,-0.01081,-0.051193,-0.23998899999999998
255,2.4652130000000003,-1.4372200000000002,-0.295157,0.083334,0.991092,0.10381800000000001,-0.031543,2.133609,-0.231961,0.010019,-0.056186,-0.305753
256,2.53881,-1.437262,-0.263907,0.07545199999999999,0.9910969999999999,0.10963099999999999,-0.23081300000000002,2.040193,-0.14136600000000002,0.037082,-0.056115,-0.373685
257,2.631259,-1.429563,-0.20328,0.068734,0.990043,0.12278399999999999,-0.735436,1.317621,-0.157852,0.08319700000000001,0.056617999999999995,-0.367734
258,2.718993,-1.4146239999999999,-0.133349,0.06377200000000001,0.9878299999999999,0.141811,-0.945068,0.760013,-0.125486,0.009745,0.180581,-0.356579
259,2.7860240000000003,-1.4003219999999998,-0.07785399999999999,0.059044000000000006,0.985504,0.158996,-0.734553,0.548553,-0.173951,-0.044059,0.280075,-0.423843
260,2.842348,-1.391199,-0.032645,0.052649,0.983916,0.170655,-0.45743999999999996,0.651212,-0.24585500000000002,-0.07424,0.325548,-0.46051099999999995
261,2.89465,-1.387519,0.004425,0.044539999999999996,0.983252,0.17668399999999998,-0.12024100000000001,0.8738549999999999,-0.272624,-0.143707,0.349787,-0.43300200000000005
262,2.944095,-1.394535,0.034664,0.034398000000000005,0.984506,0.171899,0.565032,1.033994,-0.42079799999999995,0.009776,0.419074,-0.30393400000000004
263,3.016523,-1.4181540000000001,0.084116,0.018961000000000002,0.988373,0.150814,1.429726,1.384547,-0.656626,0.081289,0.532028,-0.039837
264,-3.138599,-1.4561549999999999,0.169431,-0.000342,0.9934360000000001,0.114326,2.065388,2.697148,-0.7200979999999999,-0.06759,0.508822,0.12465799999999999
265,-2.840056,-1.498956,0.408493,-0.021289,0.9974209999999999,0.068448,2.373948,2.9465689999999998,-0.757786,-0.665296,0.479783,0.10733399999999998
266,-1.976405,-1.536029,1.232738,-0.031764999999999995,0.999396,0.013640000000000001,2.934456,1.2219309999999999,-0.189776,-0.593723,0.526544,0.083619
267,-0.5754319999999999,-1.504856,2.649078,-0.035807,0.997827,-0.055202,3.806002,-2.008404,-0.307736,-0.38619000000000003,0.536506,0.01144
268,-0.39808899999999997,-1.427302,2.917166,-0.055420000000000004,0.9897219999999999,-0.13178299999999998,4.132097,-5.796126,-0.689437,-0.033416,0.542626,-0.061348
269,-0.438133,-1.344784,3.0145470000000003,-0.095061,0.974568,-0.202905,4.160821,-6.573796000000001,-0.975591,0.15602,0.717159,0.45812299999999995
270,-0.41745600000000005,-1.262146,3.088462,-0.123154,0.952744,-0.277672,3.923246,0.208447,-0.678294,0.292329,0.5594319999999999,0.8221360000000001
271,-0.357476,-1.201233,3.141239,-0.126387,0.932485,-0.338363,2.814957,-0.46919799999999995,-0.218354,0.118376,0.128947,0.30485500000000004
272,-0.36336599999999997,-1.137931,-3.105243,-0.149087,0.907767,-0.39207600000000004,3.710807,-2.392372,-0.640126,0.077402,0.172128,0.37153800000000003
273,-0.364844,-1.041547,-3.068484,-0.180142,0.863186,-0.47164700000000004,5.33216,-1.1852610000000001,-1.0181120000000001,0.121701,0.203815,0.429014
274,-0.360282,-0.936558,-3.036826,-0.2089,0.805523,-0.554516,4.844698,-1.3828340000000001,-1.0041719999999998,-0.17054,-0.357693,0.011181
275,-0.389899,-0.863757,-3.023455,-0.246903,0.760288,-0.600829,2.801727,-2.019333,-0.965284,-0.031006,-0.6907840000000001,0.158782
276,-0.417304,-0.808904,-3.02382,-0.27977199999999997,0.723531,-0.631051,2.52121,-1.029982,-1.1821549999999998,0.112429,-0.584905,0.345422
277,-0.43949399999999994,-0.754512,-3.026201,-0.31000700000000003,0.684933,-0.659362,2.3222509999999996,-1.1517680000000001,-1.189798,0.214166,-0.376675,0.408507
278,-0.465538,-0.706929,-3.029912,-0.341328,0.649502,-0.6794399999999999,1.930176,-1.246367,-1.168915,0.24386999999999998,-0.47628400000000004,0.46452
279,-0.494172,-0.6669510000000001,-3.0371599999999996,-0.372664,0.6185930000000001,-0.691708,1.4675120000000001,-1.1415170000000001,-1.147712,0.251128,-0.527818,0.444196
280,-0.5177930000000001,-0.637107,-3.044333,-0.39786,0.594873,-0.698448,0.9834450000000001,-0.778827,-0.852456,0.196399,-0.541772,0.369286
281,-0.528962,-0.619309,-3.051942,-0.410915,0.580472,-0.702991,0.360329,-0.027859,-0.566146,-0.04044,-0.376706,0.24928699999999998
282,-0.523399,-0.6181949999999999,-3.059708,-0.407321,0.579565,-0.7058260000000001,-0.392135,0.792295,-0.15370999999999999,-0.044034,-0.375799,0.252121
283,-0.506621,-0.633777,-3.0681439999999998,-0.390992,0.592192,-0.7045779999999999,-1.104833,1.156558,0.21258600000000002,-0.144699,-0.460372,0.240024
284,-0.49269399999999997,-0.6627109999999999,-3.0777650000000003,-0.372879,0.6152569999999999,-0.694563,-1.647975,0.871044,0.421735,-0.152878,-0.46105100000000004,0.171201
285,-0.484324,-0.702655,-3.088252,-0.35531999999999997,0.646246,-0.675359,-2.139765,0.700067,0.7144159999999999,-0.070721,-0.33074000000000003,-0.036479000000000004
286,-0.47348100000000004,-0.753927,-3.0938470000000002,-0.332416,0.684507,-0.648803,-2.472251,0.750587,1.155341,-0.041408999999999994,-0.335005,-0.43840100000000004
287,-0.46205100000000005,-0.8078960000000001,-3.091037,-0.30804499999999996,0.722835,-0.6185579999999999,-2.186689,0.169229,1.369588,0.17355399999999999,-0.217311,-0.5199
288,-0.439069,-0.8435239999999999,-3.073035,-0.282618,0.746991,-0.6017710000000001,-0.8134680000000001,1.1613790000000002,1.1503780000000001,-0.02384,1.322452,-0.34120700000000004
289,-0.406021,-0.871151,-3.069111,-0.25433,0.7650710000000001,-0.59159,-1.7468560000000002,1.159114,0.396106,-0.261356,1.363118,-0.34005
290,-0.379397,-0.9020309999999999,-3.059509,-0.22962800000000003,0.7845880000000001,-0.575924,-0.759542,1.249883,1.348262,-0.031968,0.826572,0.196056
291,-0.331323,-0.941227,-3.041076,-0.191531,0.808281,-0.556771,-2.4213259999999996,1.449983,0.9678620000000001,-0.15109,-0.481712,0.44632700000000003
292,-0.326079,-0.9947739999999999,-3.043614,-0.174481,0.838636,-0.515986,-2.311543,-0.19333399999999998,0.772045,0.055889999999999995,-0.739804,0.379283
293,-0.324813,-1.0373620000000001,-3.037076,-0.162275,0.861066,-0.481901,-1.864485,-0.079209,0.8818440000000001,0.23838600000000001,-0.32887,0.442945
294,-0.312788,-1.080345,-3.0276240000000003,-0.144938,0.8821200000000001,-0.448164,-2.061946,0.332851,0.8372069999999999,0.290858,0.431875,0.301848
295,-0.31151599999999996,-1.124881,-3.038273,-0.132187,0.902216,-0.41052,-2.2012240000000003,0.527604,0.207871,0.175827,0.900106,0.109876
296,-0.334813,-1.1620540000000001,-3.079409,-0.130598,0.9176219999999999,-0.37537800000000004,-1.9042869999999998,0.9699409999999999,-0.377076,-0.17505,0.49009300000000006,-0.019062
297,-0.348419,-1.194081,-3.127284,-0.125592,0.9298780000000001,-0.345756,-1.8001169999999997,1.781638,-0.19045,-0.25188,-0.008171,-0.130334
298,-0.3378,-1.230301,3.128955,-0.11067300000000001,0.9425889999999999,-0.315071,-1.918955,1.7139950000000002,0.310871,0.150971,-0.145516,-0.001503
299,-0.329284,-1.270376,3.108511,-0.095687,0.9552120000000001,-0.280011,-2.014919,1.245632,0.304392,0.240065,-0.22430100000000003,-0.0044740000000000005
300,-0.34166599999999997,-1.3071409999999999,3.068073,-0.087315,0.9654440000000001,-0.245533,-1.855446,1.309082,0.017004,0.300556,-0.23308299999999998,-0.072018
301,-0.378219,-1.34315,3.0132939999999997,-0.08333099999999999,0.9742,-0.209718,-2.011895,0.471149,0.042623,0.43988299999999997,-0.29291100000000003,-0.067031
302,-0.434144,-1.3843940000000001,2.955285,-0.077944,0.982677,-0.16811099999999998,-2.135281,-0.044362,0.394935,0.287234,-0.126842,-0.05695599999999999
303,-0.487601,-1.422131,2.895912,-0.06938,0.9889700000000001,-0.130829,-1.8027950000000001,0.35392199999999996,0.40529299999999996,0.22949099999999997,-0.101015,-0.125976
304,-0.565112,-1.45691,2.808399,-0.060832000000000004,0.9935219999999999,-0.09593600000000001,-1.823058,0.545932,0.357903,0.064693,-0.134971,-0.190106
305,-0.737477,-1.492589,2.61815,-0.052490999999999996,0.996943,-0.057779,-2.069484,0.960383,0.290489,-0.205749,-0.342006,-0.305975
306,-1.252831,-1.5191729999999999,2.084396,-0.048914,0.998668,-0.016099000000000002,-2.1219669999999997,0.749243,0.123751,-0.176626,-0.29841100000000004,-0.308577
307,-2.0009349999999997,-1.518699,1.3228950000000002,-0.04723,0.9986430000000001,0.021669,-1.749934,0.590645,0.035754,-0.001384,-0.18097,-0.204103
308,-2.3433450000000002,-1.500604,0.96762,-0.050166,0.9975379999999999,0.048893,-1.1970809999999998,0.617445,-0.21892899999999998,0.068064,-0.0702,-0.17810399999999998
309,-2.43697,-1.482499,0.864691,-0.057078,0.9961040000000001,0.067133,-0.817156,0.283181,-0.33976,0.1206,0.034703,-0.156381
310,-2.491347,-1.466274,0.807909,-0.063126,0.9945430000000001,0.082995,-0.8208049999999999,0.008103,-0.277476,0.125137,0.188578,-0.195376
311,-2.5602650000000002,-1.449482,0.745348,-0.066426,0.99265,0.101095,-0.9316209999999999,-0.541721,-0.146155,0.124227,0.221888,-0.203131
312,-2.628749,-1.4319709999999999,0.689278,-0.067875,0.9903790000000001,0.12053900000000001,-0.9213540000000001,-0.652466,-0.167302,0.084843,0.345055,-0.258493
313,-2.663987,-1.414902,0.66208,-0.071349,0.987873,0.137854,-0.781126,-0.172121,-0.265214,-0.113129,0.460583,-0.296591
314,-2.6676900000000003,-1.4021299999999999,0.650854,-0.076592,0.9858100000000001,0.149336,-0.476083,0.637022,-0.146616,-0.08553200000000001,0.48490900000000003,-0.33808699999999997
315,-2.637982,-1.398474,0.6669350000000001,-0.082733,0.985189,0.150151,0.177671,0.654579,-0.308715,0.079391,0.489008,-0.279545
316,-2.527613,-1.406717,0.764814,-0.094085,0.986569,0.133481,1.157786,0.794937,-0.560558,-0.073228,0.5801270000000001,0.060275
317,-2.309919,-1.421346,0.9630209999999999,-0.11001300000000001,0.9888530000000001,0.100275,1.7227119999999998,1.213398,-0.735541,-0.256656,0.523079,0.11838399999999999
318,-1.991882,-1.4306219999999998,1.261096,-0.127473,0.990192,0.057092,2.29917,0.9953620000000001,-0.7889189999999999,-0.65779,0.35236799999999996,0.06401699999999999
319,-1.563461,-1.425838,1.689179,-0.14440899999999998,0.9895120000000001,-0.001059,3.292289,-0.385924,-0.9447180000000001,-0.376755,0.301946,-0.273065
320,-1.166828,-1.384794,2.127624,-0.170021,0.982751,-0.07268,4.271016,-2.65865,-1.402851,-0.098183,0.17586400000000002,-0.5247930000000001
321,-0.952399,-1.310044,2.430684,-0.210048,0.9661959999999999,-0.149448,4.973116,-4.991053,-1.61608,0.077785,0.166036,-0.570584
322,-0.9006379999999999,-1.22654,2.59877,-0.264493,0.941327,-0.209614,3.953151,-5.026896,-1.891282,0.5391050000000001,0.64545,0.21835700000000002
323,-0.8529709999999999,-1.171604,2.695832,-0.292756,0.921375,-0.255643,2.679737,0.23462800000000003,-0.288563,0.593827,0.6025050000000001,0.40347
324,-0.7548020000000001,-1.1495799999999998,2.772447,-0.28012800000000004,0.912592,-0.29781599999999997,1.467395,0.8909290000000001,0.206328,0.291481,0.49257399999999996,0.46431999999999995
325,-0.71213,-1.110706,2.839332,-0.290143,0.896012,-0.33610999999999996,3.364164,-1.7897189999999998,-0.534357,-0.07564,0.501387,0.44313500000000006
326,-0.676262,-1.023233,2.933481,-0.325835,0.8537959999999999,-0.406026,5.469166,-2.318062,-1.300915,-0.060548000000000005,0.181971,0.509572
327,-0.629916,-0.9163049999999999,3.017073,-0.358601,0.793358,-0.491917,5.621136,-0.41018699999999997,-1.158088,-0.169414,-0.035744,0.518513
328,-0.573674,-0.8278260000000001,3.095729,-0.367137,0.736462,-0.568179,4.58174,-0.36922699999999997,-0.112134,0.130153,-0.7441220000000001,-0.359082
329,-0.551084,-0.7709020000000001,-3.140432,-0.375575,0.696782,-0.6110909999999999,2.65291,-0.44731499999999996,-0.22378299999999998,0.332606,-0.5381060000000001,0.265922
330,-0.531876,-0.728643,-3.112716,-0.378373,0.665858,-0.6430100000000001,2.183131,0.015324,-0.16036,0.262773,-0.507533,0.339254
331,-0.520824,-0.693304,-3.088121,-0.382718,0.6390819999999999,-0.6671560000000001,1.905877,-0.315467,-0.047573000000000004,0.174268,-0.705214,0.437068
332,-0.514096,-0.664177,-3.065884,-0.38721300000000003,0.6164109999999999,-0.685638,1.5176610000000001,-0.349966,0.124948,0.23070300000000002,-0.531817,0.28385900000000003
333,-0.505894,-0.648975,-3.045276,-0.386073,0.60437,-0.696908,0.7500979999999999,-0.119604,0.45791800000000005,0.229564,-0.519776,0.295128
334,-0.49414399999999997,-0.651425,-3.029142,-0.377155,0.60632,-0.70009,-0.12436900000000001,0.22117199999999998,0.710951,0.013217,-0.609769,0.290254
335,-0.479915,-0.670057,-3.0193939999999997,-0.36187600000000003,0.621031,-0.695243,-0.9738290000000001,0.507107,0.803996,-0.098863,-0.6422100000000001,0.291419
336,-0.46703,-0.705821,-3.01856,-0.342665,0.648659,-0.679573,-1.9347029999999998,0.66464,0.869721,-0.12431500000000001,-0.6816939999999999,0.238731
337,-0.457638,-0.756995,-3.025131,-0.321166,0.68674,-0.652101,-2.622074,0.687984,0.9556889999999999,0.041442,-0.587878,-0.058745000000000006
338,-0.45294300000000004,-0.8156770000000001,-3.0338580000000004,-0.29992800000000003,0.72819,-0.616261,-2.82712,0.450959,1.000494,0.061571,-0.621165,0.098165
339,-0.44946899999999995,-0.862133,-3.042599,-0.282771,0.759232,-0.586175,-1.3792659999999999,0.617564,0.439963,-0.548528,0.56639,-0.248892
340,-0.45407299999999995,-0.879768,-3.050319,-0.27955,0.770591,-0.5727439999999999,-1.160915,-0.9712940000000001,0.117717,-0.561225,2.179177,-1.1902409999999999
341,-0.458595,-0.885943,-3.039571,-0.280025,0.774512,-0.567196,0.606963,1.120725,1.026828,0.21183400000000002,2.4945459999999997,-0.504627
342,-0.37045,-0.9302860000000001,-3.00825,-0.216352,0.801791,-0.557062,-3.005678,2.957621,1.9360700000000002,-0.22250599999999998,-0.805163,0.404062
343,-0.349779,-0.9935,-2.999633,-0.187025,0.8379409999999999,-0.512709,-2.132097,-0.490641,0.9050739999999999,-0.06791900000000001,-0.575322,0.29382199999999997
344,-0.354062,-1.021715,-2.9911380000000003,-0.180948,0.8530040000000001,-0.489526,-1.09097,-0.283474,0.676004,0.16858800000000002,0.197182,0.329477
345,-0.36247199999999996,-1.057439,-2.996039,-0.174137,0.871101,-0.459188,-2.1501080000000004,-0.331642,0.320427,0.133487,0.5176470000000001,0.342397
346,-0.394862,-1.102275,-3.0304130000000002,-0.173707,0.8922370000000001,-0.416813,-2.371913,0.08162799999999999,-0.005323,0.057175,0.750509,0.049777999999999996
347,-0.41551400000000005,-1.143895,-3.059565,-0.167133,0.9102530000000001,-0.378813,-2.082359,0.41745,0.476969,0.003055,0.226771,-0.068941
348,-0.403904,-1.1906809999999999,-3.069346,-0.145814,0.928622,-0.341163,-2.3189919999999997,1.380577,0.9184629999999999,0.026185000000000003,0.031324,-0.05745700000000001
349,-0.364559,-1.246383,-3.0621970000000003,-0.11364300000000001,0.947838,-0.297794,-2.6226599999999998,1.797898,1.248024,0.095516,-0.204735,0.081836
350,-0.313535,-1.30274,-3.0531900000000003,-0.081684,0.9642870000000001,-0.251931,-2.633638,2.1251830000000003,0.930266,0.252277,-0.349663,0.039162999999999996
351,-0.283378,-1.359645,-3.0511340000000002,-0.05859400000000001,0.9777899999999999,-0.201207,-2.746209,0.9318930000000001,0.807095,0.25406,-0.39618600000000004,0.0295
352,-0.294523,-1.412636,-3.0752080000000004,-0.045712,0.987519,-0.15069200000000002,-2.5027150000000002,0.553547,0.373446,0.14523,-0.319687,0.054897
353,-0.37367100000000003,-1.458879,3.112409,-0.040753,0.9937440000000001,-0.10393699999999999,-2.337072,0.961377,0.006612000000000001,0.053585,-0.239639,0.00596
354,-0.597905,-1.497395,2.8630970000000002,-0.041241,0.9973069999999999,-0.060554,-2.197337,1.2736450000000001,-0.149841,-0.275486,-0.071404,-0.203744
355,-1.126752,-1.523506,2.306319,-0.042585000000000005,0.9988819999999999,-0.020259,-1.9401849999999998,1.350234,-0.078708,-0.23109699999999997,-0.11462,-0.32895399999999997
356,-1.8915540000000002,-1.526194,1.520831,-0.042193,0.9990049999999999,0.014018000000000001,-1.697139,0.735213,0.06585099999999999,-0.130613,-0.145841,-0.328212
357,-2.38023,-1.509299,1.015255,-0.042338,0.99811,0.044424,-1.449347,0.94775,-0.019216999999999998,0.07808899999999999,-0.07408300000000001,-0.33687399999999995
358,-2.5616790000000003,-1.488789,0.813624,-0.044847000000000005,0.9966389999999999,0.068464,-1.1300620000000001,0.922492,-0.10668499999999999,0.26837300000000003,0.075291,-0.277235
359,-2.618535,-1.4703709999999999,0.744967,-0.050051,0.9949620000000001,0.0868,-0.8394440000000001,0.366114,-0.282335,0.330859,0.133365,-0.253731
360,-2.6349240000000003,-1.454405,0.727133,-0.056327999999999996,0.9932340000000001,0.101492,-0.720873,-0.097608,-0.303345,0.340172,0.269293,-0.257162
361,-2.6628439999999998,-1.438589,0.704162,-0.060704999999999995,0.991273,0.11696,-0.784343,-0.319495,-0.171044,0.20996599999999999,0.32455300000000004,-0.31193699999999996
362,-2.7011849999999997,-1.424585,0.671094,-0.06209099999999999,0.9893299999999999,0.131751,-0.684005,-0.24128400000000003,-0.103146,0.037326,0.30994099999999997,-0.376212
363,-2.732401,-1.4123350000000001,0.638712,-0.06276799999999999,0.9874709999999999,0.144736,-0.661057,0.292697,0.073655,-0.150276,0.33100999999999997,-0.42678
364,-2.768116,-1.402782,0.587237,-0.060999,0.9859190000000001,0.15566300000000002,-0.5039359999999999,0.9574389999999999,0.201019,-0.207128,0.46713000000000005,-0.39615700000000004
365,-2.737315,-1.402417,0.597036,-0.06590599999999999,0.985858,0.154041,0.404572,1.0840319999999999,-0.275633,-0.10455,0.487729,-0.16341
366,-2.584996,-1.4177540000000002,0.725535,-0.08051599999999999,0.9883120000000001,0.129402,1.60533,1.486353,-0.69505,-0.165928,0.43336499999999994,0.102013
367,-2.268072,-1.441814,1.006109,-0.098569,0.991693,0.082566,2.445401,2.1308130000000003,-0.616301,-0.512454,0.47200600000000004,0.17485
368,-1.815598,-1.459592,1.4277600000000001,-0.107618,0.9938229999999999,0.026883999999999998,2.715774,1.148441,-0.271322,-0.612872,0.544553,0.179094
369,-1.265476,-1.4497879999999999,1.983371,-0.11508900000000001,0.9926870000000001,-0.036273,3.538303,-0.9734659999999999,-0.481843,-0.310174,0.178653,-0.256101
370,-0.8691959999999999,-1.391349,2.4400009999999996,-0.13630799999999998,0.983943,-0.115184,4.812245,-3.9677010000000004,-1.116451,-0.060134,0.281438,-0.346227
371,-0.763939,-1.2966090000000001,2.657207,-0.187296,0.9626459999999999,-0.195512,4.894553,-5.776422,-2.0151369999999997,0.251734,0.639741,0.263734
372,-0.742025,-1.2127379999999999,2.759025,-0.23682399999999998,0.936579,-0.258314,3.701118,-1.325925,-1.457678,0.568673,0.444036,0.39027199999999995
373,-0.6459189999999999,-1.1635309999999999,2.825861,-0.23842,0.918207,-0.316297,2.027884,1.9496650000000002,-0.241903,-0.094023,0.349035,0.43208
374,-0.624183,-1.1248790000000002,2.865197,-0.252053,0.902216,-0.349956,2.534329,-2.0560400000000003,-0.6135189999999999,-0.026983999999999998,0.540701,0.447978
375,-0.615526,-1.050359,2.932887,-0.287108,0.8676020000000001,-0.405992,4.737579,-2.324695,-1.1393739999999999,0.043212,0.619215,0.45614799999999994
376,-0.586665,-0.9532229999999999,3.001402,-0.320556,0.815286,-0.482231,4.942979,-1.021483,-1.146018,-0.184097,0.000785,0.170952
377,-0.564952,-0.86918,3.053454,-0.345557,0.7638,-0.5451560000000001,3.894307,-1.166093,-0.8369639999999999,0.053138,-0.692968,0.019231
378,-0.559118,-0.812435,3.084046,-0.364798,0.725964,-0.583004,2.502413,-0.546694,-0.5483779999999999,0.349646,-0.828167,0.151989
379,-0.552579,-0.768523,3.1036349999999997,-0.377357,0.695074,-0.611939,2.121171,-0.4588,-0.61952,0.23424499999999998,-0.585959,0.495224
380,-0.557559,-0.7272489999999999,3.1162509999999997,-0.395252,0.664817,-0.6338689999999999,1.8902740000000002,-0.6504409999999999,-0.712754,0.19328599999999999,-0.590125,0.39781500000000003
381,-0.5625180000000001,-0.6930390000000001,3.1239470000000003,-0.410285,0.638878,-0.650767,1.411924,-0.392469,-0.608536,0.22081599999999998,-0.48818199999999995,0.349162
382,-0.566596,-0.6712,3.1308990000000003,-0.420325,0.621926,-0.660705,0.843248,-0.444409,-0.18087999999999999,0.205008,-0.392281,0.263473
383,-0.56887,-0.665187,3.1377770000000003,-0.423833,0.617206,-0.662886,0.110455,-0.2379,0.226071,0.096074,-0.497776,0.199492
384,-0.565213,-0.677127,-3.140686,-0.417429,0.626556,-0.658161,-0.709727,0.20231,0.607542,0.01739,-0.550049,0.16695
385,-0.555249,-0.704866,-3.1400330000000003,-0.401532,0.647932,-0.647265,-1.405664,0.604325,0.8425159999999999,-0.157611,-0.600264,0.09386
386,-0.546442,-0.7434,3.140488,-0.38255100000000003,0.676795,-0.628967,-1.8361580000000002,0.378394,0.972258,-0.16331700000000002,-0.546088,-0.080933
387,-0.5471,-0.788989,3.139113,-0.366521,0.709641,-0.60172,-2.023393,-0.168579,1.255798,-0.077251,-0.526704,-0.088008
388,-0.544844,-0.8356129999999999,3.141432,-0.347623,0.741708,-0.573605,-1.779981,0.340845,1.2557770000000001,-0.13430999999999998,-0.400308,0.305233
389,-0.525465,-0.870351,-3.13901,-0.323318,0.764555,-0.5575979999999999,-1.58951,0.9439620000000001,0.782044,-0.285355,1.049944,-0.408298
390,-0.522877,-0.90176,3.137635,-0.309726,0.78442,-0.537355,-0.7704810000000001,0.688295,0.605427,-0.216306,1.5785719999999999,-0.8833290000000001
391,-0.448013,-0.921734,-3.115965,-0.261827,0.796651,-0.544784,-1.3274299999999999,2.976117,1.7170330000000003,0.344804,0.655879,0.7467189999999999
392,-0.39861599999999997,-0.9821790000000001,-3.093995,-0.2155,0.831709,-0.511679,-2.456702,0.668643,1.652281,-0.323929,-0.487684,0.088476
393,-0.380252,-1.023015,-3.073522,-0.193293,0.8536819999999999,-0.48358999999999996,-1.4778930000000001,-0.049342000000000004,1.068244,-0.214879,-0.5727220000000001,0.09249199999999999
394,-0.382223,-1.060945,-3.068411,-0.182032,0.872817,-0.452823,-1.860884,-0.595362,0.751143,0.20081500000000002,-0.064025,0.300831
395,-0.40128,-1.10415,-3.076848,-0.175724,0.8930819999999999,-0.41414799999999996,-2.2014970000000003,-0.38774699999999995,0.542331,0.079808,0.549667,0.225473
396,-0.425834,-1.146516,-3.10183,-0.170048,0.911335,-0.374894,-2.068701,0.131805,0.237081,-0.054425,0.498485,0.138077
397,-0.440723,-1.185781,-3.135469,-0.16021300000000002,0.926793,-0.339677,-2.138823,1.191816,0.28223400000000004,-0.162098,0.150722,-0.047682
398,-0.440388,-1.232766,3.113461,-0.14136600000000002,0.9434100000000001,-0.299978,-2.536679,1.752321,0.584249,-0.008429,-0.089543,-0.009012000000000001
399,-0.42884799999999995,-1.288915,3.08638,-0.11566099999999999,0.960534,-0.252961,-2.7856549999999998,1.967159,0.8866780000000001,0.092971,-0.15445799999999998,0.024568
400,-0.418508,-1.3442969999999999,3.053293,-0.09125599999999999,0.974458,-0.20517,-2.686934,1.8898700000000002,0.682368,0.343713,-0.298586,-0.031784
401,-0.444688,-1.398887,2.998703,-0.073576,0.98526,-0.15440399999999999,-2.79466,1.152139,0.649446,0.404433,-0.29158,0.036682
402,-0.545499,-1.45564,2.879281,-0.059595,0.9933770000000001,-0.098192,-2.868366,0.7874369999999999,0.541508,0.28383800000000003,-0.279464,0.059739
403,-0.778895,-1.503308,2.625889,-0.047323000000000004,0.9977239999999999,-0.047942,-2.406662,0.983902,0.560504,0.116826,-0.23469299999999998,-0.032563
404,-1.487463,-1.534014,1.9017950000000001,-0.0365,0.999324,-0.0030489999999999996,-2.184603,0.6512760000000001,0.43322700000000003,-0.179611,-0.22532199999999997,-0.077182
405,-2.414365,-1.523927,0.9553969999999999,-0.031066000000000003,0.9989020000000001,0.034908,-1.7994740000000002,1.132352,0.20670100000000002,-0.22744899999999998,-0.19253599999999998,-0.173442
406,-2.715675,-1.495696,0.628666,-0.030967,0.997181,0.068257,-1.653091,1.2274209999999999,0.015322,-0.192162,-0.11943499999999999,-0.34409
407,-2.819127,-1.467079,0.501844,-0.032792,0.994626,0.09814099999999999,-1.479744,1.066111,-0.021717,0.09475700000000001,-0.06843300000000001,-0.349544
408,-2.846952,-1.4418090000000001,0.45607,-0.037341,0.991693,0.123044,-1.1407260000000001,0.803702,-0.227316,0.18698399999999998,-0.011331,-0.328382
409,-2.8060259999999997,-1.422419,0.486831,-0.048669,0.9890120000000001,0.139551,-0.686914,0.24024600000000002,-0.638962,0.313287,0.249315,-0.32093299999999997
410,-2.7588779999999997,-1.408678,0.5404359999999999,-0.060263,0.9868879999999999,0.149698,-0.430296,-0.534238,-0.5881069999999999,0.241812,0.611822,-0.22196300000000002
411,-2.731798,-1.3975600000000001,0.577132,-0.068662,0.985032,0.158067,-0.375354,-0.27825300000000003,-0.449183,0.22819299999999998,0.684096,-0.210008
412,-2.715673,-1.388707,0.5911890000000001,-0.074804,0.983468,0.164878,-0.361271,0.27244,-0.18166600000000002,0.069906,0.579994,-0.29203
413,-2.728359,-1.380662,0.577045,-0.075882,0.981979,0.173055,-0.446478,-0.210628,0.01598,-0.14260899999999999,0.400879,-0.558523
414,-2.7449049999999997,-1.375972,0.576804,-0.074787,0.981082,0.178535,0.053320000000000006,-1.07313,-0.243275,-0.11674100000000001,0.496,-0.5306930000000001
415,-2.6767119999999998,-1.3850200000000001,0.662891,-0.08279500000000001,0.982793,0.165082,1.1872040000000001,-0.408315,-0.7137020000000001,0.06569,0.39342699999999997,0.11441400000000002
416,-2.454921,-1.4067399999999999,0.86987,-0.10352,0.9865729999999999,0.126282,2.2607720000000002,1.745196,-0.992041,-0.061046,0.365264,0.20263699999999998
417,-2.0816369999999997,-1.428705,1.1929,-0.123504,0.989922,0.069219,2.65037,2.960651,-0.5251319999999999,-0.272568,0.359977,0.227823
418,-1.63952,-1.440936,1.595035,-0.129155,0.9915799999999999,0.00889,2.954359,1.384919,0.056917999999999996,-0.677135,0.395063,-0.091181
419,-1.125936,-1.429211,2.126734,-0.127351,0.989994,-0.060712,4.083851,-1.8815389999999999,-0.042102,-0.46565100000000004,0.345242,-0.148608
420,-0.785416,-1.362479,2.548459,-0.146229,0.9783799999999999,-0.146224,5.248903,-4.859649,-0.884725,-0.044964,0.19792,-0.314943
421,-0.699692,-1.265046,2.7583450000000003,-0.19383699999999998,0.9536209999999999,-0.230275,5.260447,-5.92489,-1.43555,0.364232,0.514686,0.33225
422,-0.644742,-1.178067,2.8740919999999996,-0.230001,0.923868,-0.305877,3.939018,-0.20868699999999998,-0.806899,0.537771,0.468222,0.540542
423,-0.5860479999999999,-1.138332,2.935868,-0.231794,0.9079360000000001,-0.349167,1.528981,-0.9920680000000001,0.050008,0.280988,0.39962,0.383942
424,-0.589313,-1.099526,2.987032,-0.252335,0.890992,-0.377431,3.241908,-2.9606619999999997,-0.377749,0.085236,0.412459,0.47632299999999994
425,-0.57687,-1.011303,3.0591310000000003,-0.28947399999999995,0.8475239999999999,-0.444862,5.067914,-2.0845119999999997,-1.283719,0.019485,0.105922,0.501869
426,-0.565709,-0.912962,3.1074740000000003,-0.32771999999999996,0.7913180000000001,-0.51615,4.798516,-0.9950620000000001,-1.500641,-0.11866099999999999,-0.142438,0.567313
427,-0.5429430000000001,-0.82326,-3.1322200000000002,-0.35124,0.733366,-0.582066,4.234441,-0.530121,-0.866381,0.016798,-0.9626600000000001,-0.25147600000000003
428,-0.545721,-0.76254,-3.107069,-0.37530399999999997,0.69076,-0.618056,2.424473,-1.142652,-0.8963979999999999,0.466674,-0.680659,0.211394
429,-0.5577479999999999,-0.7171569999999999,-3.1005830000000003,-0.398903,0.657245,-0.639455,1.917144,-0.626065,-0.9711059999999999,0.256218,-0.474246,0.42732700000000007
430,-0.568235,-0.678455,-3.097077,-0.418968,0.627591,-0.656195,1.577436,-0.660289,-0.909342,0.17144,-0.47361499999999995,0.41803599999999996
431,-0.582621,-0.6476529999999999,-3.095977,-0.438796,0.603316,-0.665931,1.136103,-0.647718,-0.7404569999999999,0.177733,-0.41311499999999995,0.374717
432,-0.5912649999999999,-0.628518,-3.097296,-0.45088900000000004,0.587946,-0.6715760000000001,0.5174810000000001,-0.268758,-0.401296,0.173881,-0.399119,0.297644
433,-0.591158,-0.6263770000000001,-3.099568,-0.45151800000000003,0.586213,-0.672668,-0.245621,0.330881,0.020962,0.012675,-0.457154,0.209396
434,-0.577796,-0.6420939999999999,-3.10432,-0.43740200000000007,0.598874,-0.67084,-1.092041,1.122652,0.419959,-0.10326199999999999,-0.503446,0.087404
435,-0.553285,-0.676392,-3.11313,-0.40979099999999996,0.625983,-0.663485,-1.924364,1.6303379999999998,0.721143,-0.232589,-0.505042,-0.023618
436,-0.531812,-0.722206,-3.123359,-0.380498,0.661042,-0.646716,-2.235966,1.08845,0.9065989999999999,-0.285075,-0.399735,-0.136518
437,-0.53184,-0.769505,-3.131198,-0.364241,0.695779,-0.6190439999999999,-2.079445,-0.150018,0.9253030000000001,-0.08037000000000001,-0.531961,0.06598899999999999
438,-0.534317,-0.80775,-3.1325220000000003,-0.351957,0.722734,-0.594792,-1.353483,0.27218000000000003,1.0078129999999998,-0.135409,-0.05352899999999999,0.241033
439,-0.519926,-0.841772,-3.126566,-0.330948,0.745825,-0.578112,-1.517671,0.042720999999999995,0.989869,-0.280548,1.642725,-1.196943
440,-0.49294099999999996,-0.8568180000000001,-3.1010470000000003,-0.309883,0.755763,-0.5768800000000001,0.636787,1.954307,1.398779,0.724083,1.8487900000000002,0.128638
441,-0.39700599999999997,-0.894233,-3.063064,-0.24209299999999997,0.779729,-0.577416,-2.650772,2.904069,1.966393,0.421307,0.8287909999999999,0.9585959999999999
442,-0.366602,-0.9596899999999999,-3.053528,-0.20566500000000001,0.819014,-0.535643,-2.314325,0.211283,1.085569,-0.578545,-1.133208,-0.138902
443,-0.36838200000000004,-0.9938899999999999,-3.053342,-0.19641199999999998,0.8381540000000001,-0.508837,-1.542133,-0.002966,0.44923599999999997,0.149339,-0.255238,0.382448
444,-0.381511,-1.031392,-3.070217,-0.191233,0.858015,-0.476692,-2.122121,0.010967,0.132178,0.139231,0.21234299999999998,0.355476
445,-0.41599899999999995,-1.073566,-3.109019,-0.192753,0.878907,-0.43630699999999994,-2.3611240000000002,-0.027587999999999998,-0.14183900000000002,0.118473,0.873748,0.102063
446,-0.44967700000000005,-1.112323,3.130197,-0.192375,0.8967290000000001,-0.398575,-2.063643,0.5428810000000001,-0.003759,0.04023,0.448928,0.085236
447,-0.45816,-1.150153,3.093532,-0.180608,0.912826,-0.366227,-2.0681130000000003,1.672249,0.222294,0.014059,0.16026300000000002,-0.058944
448,-0.44336000000000003,-1.192836,3.071113,-0.1583,0.9294190000000001,-0.333339,-2.178076,1.682332,0.725713,0.038533,-0.136374,-0.14363599999999999
449,-0.425311,-1.243657,3.059962,-0.13258,0.946966,-0.292698,-2.478137,1.36081,0.937674,0.31116900000000003,-0.28087399999999996,-0.042584
450,-0.422329,-1.2982879999999999,3.039016,-0.11031500000000001,0.9630989999999999,-0.245488,-2.7136419999999997,1.080818,0.831702,0.420526,-0.368342,0.030018
451,-0.4429,-1.3573709999999999,2.998205,-0.090765,0.977311,-0.191354,-2.917046,0.794434,0.698188,0.45665500000000003,-0.15820399999999998,-0.015203999999999999
452,-0.520943,-1.412911,2.909011,-0.07824,0.987562,-0.13635,-2.771988,0.33777199999999996,0.48721099999999995,0.208565,-0.045545,0.12551600000000002
453,-0.652036,-1.458969,2.766477,-0.067692,0.9937540000000001,-0.08866900000000001,-2.209515,0.6425390000000001,0.507841,0.093556,-0.064448,0.046906
454,-0.8341799999999999,-1.496846,2.572867,-0.05467999999999999,0.997267,-0.049589999999999995,-1.9469509999999999,0.361838,0.679882,-0.085029,-0.094877,-0.08835
455,-1.325911,-1.5285,2.076975,-0.04091,0.9991059999999999,-0.010223000000000001,-1.9872779999999999,0.126736,0.633968,-0.301085,-0.310415,-0.14416500000000002
456,-2.268897,-1.5296049999999999,1.126414,-0.031454,0.999152,0.026391,-1.7420470000000001,0.5487609999999999,0.377698,-0.25150500000000003,-0.349677,-0.21430300000000002
457,-2.693262,-1.506035,0.686407,-0.028018,0.9979040000000001,0.05825,-1.529191,0.8676530000000001,0.099971,-0.09293799999999999,-0.27305,-0.251259
458,-2.7893209999999997,-1.481033,0.570283,-0.030910000000000003,0.995974,0.08408500000000001,-1.179107,1.07006,-0.204423,0.12230999999999999,0.046506,-0.204965
459,-2.765458,-1.460234,0.576268,-0.040514,0.993894,0.10258199999999999,-0.869288,0.655678,-0.47519300000000003,0.101823,0.121004,-0.22134099999999998
460,-2.739684,-1.440928,0.598828,-0.050643,0.9915790000000001,0.119148,-0.842068,-0.13394,-0.43660299999999996,0.22065700000000002,0.31208600000000003,-0.187599
461,-2.745056,-1.423059,0.601789,-0.056839999999999995,0.989107,0.135747,-0.778195,-0.542555,-0.338425,0.227158,0.345854,-0.202443
462,-2.750264,-1.408204,0.606787,-0.061730999999999994,0.9868110000000001,0.149611,-0.593163,-0.408039,-0.305258,0.236337,0.38558000000000003,-0.195846
463,-2.749565,-1.3961059999999998,0.608863,-0.06639199999999999,0.9847799999999999,0.16059,-0.576271,0.145369,-0.18620899999999999,-0.064467,0.375907,-0.326255
464,-2.7666470000000003,-1.383208,0.582616,-0.068287,0.982457,0.173508,-0.739872,0.575202,0.08877,-0.085385,0.388744,-0.38658200000000004
465,-2.784282,-1.3723020000000001,0.552934,-0.068961,0.9803649999999999,0.18471500000000002,-0.437619,0.508659,-0.048971,-0.02424,0.397916,-0.404548
466,-2.742058,-1.372267,0.586543,-0.07671,0.980358,0.181671,0.517021,0.546304,-0.43332,0.049503,0.530812,-0.008468999999999999
467,-2.614076,-1.388472,0.6916800000000001,-0.09126000000000001,0.983425,0.156647,1.478787,1.7407380000000001,-0.5328189999999999,-0.18426800000000002,0.49782200000000004,0.18576099999999998
468,-2.4151380000000002,-1.412693,0.846197,-0.10456099999999999,0.9875280000000001,0.117675,1.885175,2.5103720000000003,-0.21263600000000002,-0.391472,0.444906,0.165665
469,-2.149864,-1.436732,1.07755,-0.111845,0.991027,0.073128,2.1726080000000003,1.149153,-0.246272,-0.726183,0.258759,-0.064873
470,-1.740837,-1.449902,1.496218,-0.118827,0.9927010000000001,0.020402,3.117896,-1.186274,-0.44711599999999996,-0.23392600000000002,0.260412,-0.19183499999999998
471,-1.214273,-1.4266219999999998,2.0827240000000002,-0.134616,0.989625,-0.050136,4.356633,-3.810202,-0.948916,-0.010860999999999999,0.216598,-0.309239
472,-0.90284,-1.350754,2.512275,-0.17135,0.9758879999999999,-0.135183,5.606219,-6.290882,-1.5854190000000001,0.15918800000000002,0.409488,-0.270121
473,-0.822933,-1.2497209999999999,2.716516,-0.231363,0.9488969999999999,-0.214615,4.918793,-5.142734,-2.26574,0.353281,0.640962,0.254105
474,-0.778674,-1.170189,2.798829,-0.27389,0.920824,-0.277598,3.066971,1.222171,-1.431186,0.5743659999999999,0.5774060000000001,0.638728
475,-0.68352,-1.133892,2.842095,-0.267217,0.906066,-0.328075,1.515844,2.350215,-0.333583,-0.08845,0.011581999999999999,0.395519
476,-0.662741,-1.094123,2.871258,-0.282302,0.888526,-0.361692,2.525642,-1.906768,-0.90646,-0.274826,0.36139699999999997,0.562375
477,-0.689254,-1.023065,2.930886,-0.331175,0.853708,-0.401871,4.316321,-4.720932,-1.200131,-0.11892799999999999,0.48316000000000003,0.48692399999999997
478,-0.703515,-0.927815,3.003555,-0.387869,0.800312,-0.45722299999999994,5.049173000000001,-2.628222,-1.695485,0.073584,-0.005451,0.127328
479,-0.689293,-0.8410479999999999,3.055055,-0.42400299999999996,0.7453420000000001,-0.514473,3.840017,-0.699397,-1.349616,0.086112,-0.392635,-0.039619
480,-0.6770689999999999,-0.780511,3.082881,-0.445168,0.703643,-0.553812,2.541077,-0.343221,-1.116659,0.158578,-0.455138,0.145533
481,-0.6736,-0.731264,3.100317,-0.464315,0.6678109999999999,-0.581753,2.200952,-0.439353,-1.0238399999999999,0.36700900000000003,-0.8045140000000001,0.49624300000000005
482,-0.6708149999999999,-0.686978,3.114774,-0.48061800000000005,0.634203,-0.605631,1.9922830000000002,-0.213302,-0.896333,0.344586,-0.523806,0.381449
483,-0.664141,-0.650442,3.126163,-0.490526,0.605538,-0.6266619999999999,1.527615,0.08583500000000001,-0.70875,0.324999,-0.35582800000000003,0.335158
484,-0.659032,-0.623693,3.13353,-0.497061,0.584037,-0.641738,1.079114,-0.024268,-0.491688,0.271399,-0.377616,0.330123
485,-0.652173,-0.6093069999999999,3.139749,-0.497696,0.572299,-0.6517430000000001,0.5090979999999999,0.349858,-0.051769,0.184083,-0.437778,0.32290100000000005
486,-0.6343479999999999,-0.609241,-3.13721,-0.486023,0.572245,-0.6605409999999999,-0.057735,0.889365,0.31959499999999996,0.074875,-0.472361,0.293796
487,-0.60947,-0.622387,-3.132831,-0.46509399999999995,0.5829770000000001,-0.6662,-0.666779,1.23644,0.632158,-0.035164999999999995,-0.505233,0.2605
488,-0.585114,-0.648419,-3.131609,-0.4402,0.603927,-0.66445,-1.2742280000000001,1.1237219999999999,0.8417040000000001,-0.05368200000000001,-0.545745,0.153006
489,-0.5650470000000001,-0.685952,-3.134105,-0.414343,0.63341,-0.6535350000000001,-1.8300509999999999,1.048331,0.996015,-0.108453,-0.57886,0.039873
490,-0.551372,-0.733594,-3.138684,-0.38910500000000003,0.669543,-0.6326970000000001,-2.2627770000000003,0.615534,1.1783489999999999,-0.09462899999999999,-0.527331,-0.138131
491,-0.5509729999999999,-0.781788,3.139758,-0.371515,0.70455,-0.604635,-1.907358,0.045949000000000004,1.0523069999999999,-0.078253,-0.543676,-0.125392
492,-0.5368689999999999,-0.8169310000000001,-3.140456,-0.350065,0.7290479999999999,-0.588166,-1.313292,0.9959520000000001,0.8597540000000001,-0.5628529999999999,1.108674,-0.66365
493,-0.5281239999999999,-0.829153,-3.138096,-0.340393,0.73736,-0.583464,0.537041,-0.043363,0.223464,-0.25814899999999996,2.715933,-1.2639639999999999
494,-0.461658,-0.8276469999999999,-3.110385,-0.301383,0.736342,-0.605777,-0.7363890000000001,3.898586,1.218987,-0.29673099999999997,-0.40281500000000003,0.674579
495,-0.39310900000000004,-0.8887639999999999,-3.1053759999999997,-0.241471,0.776293,-0.582286,-3.094476,2.1927209999999997,1.2217930000000001,-0.725112,-1.356326,-0.104512
496,-0.376756,-0.937459,-3.107656,-0.21774000000000002,0.806057,-0.550325,-1.9561810000000002,0.674024,0.671942,0.244626,-0.637753,0.462938
497,-0.363982,-0.9793649999999999,-3.1113009999999997,-0.198485,0.8301440000000001,-0.521019,-2.096156,0.667955,0.712633,0.283721,0.303844,0.298363
498,-0.361116,-1.019174,-3.113554,-0.185162,0.851675,-0.49026499999999995,-1.7114330000000002,0.09659,0.473566,0.12003699999999999,0.748529,0.171692
499,-0.37344499999999997,-1.050921,-3.1265009999999998,-0.181233,0.8678809999999999,-0.462528,-1.582342,-0.082109,0.29523499999999997,-0.10522000000000001,0.948464,0.129688
500,-0.387388,-1.082335,-3.137432,-0.177274,0.883056,-0.43449,-1.579125,-0.292075,0.31902800000000003,0.009168,0.125596,-0.099262
501,-0.395357,-1.117208,3.131426,-0.16876300000000002,0.8988799999999999,-0.404386,-1.8896259999999998,0.757867,0.426608,-0.031555,-0.032853,-0.13206700000000002
502,-0.381664,-1.162249,3.113091,-0.14796900000000002,0.9176989999999999,-0.368685,-2.4177049999999998,1.8128689999999998,0.523049,-0.046001,-0.071996,-0.037779
503,-0.36554000000000003,-1.21488,3.0916240000000004,-0.124552,0.937327,-0.32542,-2.681552,1.627928,0.647493,-0.025793,-0.030726,-0.04195
504,-0.358387,-1.270789,3.071834,-0.103657,0.955334,-0.27674,-2.721045,1.148693,0.646763,0.16411199999999998,-0.12195999999999999,0.102576
505,-0.351976,-1.326668,3.053298,-0.083326,0.970348,-0.226879,-2.7424880000000003,1.254775,0.7768010000000001,0.39419299999999996,-0.12121199999999999,0.080303
506,-0.362633,-1.3850129999999998,3.015286,-0.06551900000000001,0.982792,-0.17268499999999998,-2.9348229999999997,1.226423,0.5746680000000001,0.452558,-0.13827899999999999,-0.07054099999999999
507,-0.42734399999999995,-1.43994,2.931676,-0.054067,0.99145,-0.11872200000000001,-2.631539,0.877726,0.399908,0.272177,-0.094447,0.080362
508,-0.5303770000000001,-1.486785,2.808882,-0.042423,0.9964729999999999,-0.07234199999999999,-2.267386,0.874755,0.560552,0.041277999999999995,-0.153623,-0.037002999999999994
509,-0.8013100000000001,-1.530748,2.526178,-0.028679000000000003,0.9991979999999999,-0.027780000000000003,-2.280128,0.368021,0.753393,-0.20679499999999998,-0.344306,-0.086127
510,-2.536298,-1.5488879999999998,0.7783680000000001,-0.012343999999999999,0.99976,0.01784,-2.234061,0.8972540000000001,0.7658550000000001,-0.231461,-0.347477,-0.154528
511,-3.085423,-1.512756,0.20418699999999998,-0.003252,0.998316,0.057835000000000004,-1.8681860000000001,1.420684,0.354338,-0.147352,-0.328898,-0.169606
512,-3.130032,-1.480524,0.125916,-0.001042,0.995928,0.09009,-1.446,1.876975,0.16655899999999998,0.08380499999999999,-0.25790599999999997,-0.090884
513,-3.083582,-1.458084,0.126297,-0.006518,0.993655,0.112239,-0.962933,2.458205,-0.149142,0.046176,-0.095751,-0.210536
514,-3.028301,-1.439594,0.142804,-0.014785,0.991405,0.129948,-0.9141959999999999,1.41308,-0.168827,0.098358,-0.067592,-0.19878099999999999
515,-3.0162619999999998,-1.4224450000000002,0.152112,-0.018472,0.989016,0.14661300000000002,-0.732675,-0.484675,-0.200381,0.166207,-0.054888,-0.198767
516,-2.996804,-1.412428,0.187063,-0.02275,0.9874860000000001,0.156023,-0.323115,-0.7068979999999999,-0.393788,0.22061,-0.007033,-0.209536
517,-2.962056,-1.40592,0.22558499999999998,-0.029302999999999996,0.986439,0.161459,-0.32159099999999996,0.19078599999999998,-0.30946999999999997,0.32714,0.329342,-0.281455
518,-2.9451669999999996,-1.394037,0.23293200000000003,-0.034312,0.984419,0.172429,-0.728557,0.53967,-0.091638,0.3184,0.505953,-0.263341
519,-2.953511,-1.37612,0.214812,-0.036164999999999996,0.98111,0.19000999999999998,-0.9931700000000001,0.41335600000000006,0.02418,0.259859,0.538848,-0.258979
520,-2.970939,-1.356722,0.18954200000000002,-0.036074,0.977174,0.20933200000000002,-0.9508690000000001,0.42030100000000004,0.11526600000000001,-0.080442,0.669524,-0.23780500000000002
521,-2.9793580000000004,-1.3438370000000002,0.165936,-0.036342,0.974355,0.222038,-0.484574,0.890668,0.098692,0.058452,0.579371,-0.271598
522,-2.952138,-1.341325,0.16783800000000001,-0.042832,0.9737870000000001,0.22336999999999999,0.103251,1.627684,-0.10538099999999999,0.023621,0.506621,-0.11490999999999998
523,-2.892845,-1.35012,0.183952,-0.05388300000000001,0.97575,0.21213,0.69107,2.417852,-0.015762,-0.530468,0.5340010000000001,0.082776
524,-2.823773,-1.36897,0.214454,-0.062635,0.9797020000000001,0.190396,1.169699,1.282053,-0.11030799999999999,-0.79967,0.10313800000000001,-0.155026
525,-2.718667,-1.399684,0.32616799999999996,-0.069876,0.9853959999999999,0.15525,2.282,-1.0174729999999998,-0.642249,-0.609491,0.098054,-0.172111
526,-2.432207,-1.442872,0.6536569999999999,-0.083076,0.9918290000000001,0.096774,3.553902,-2.310421,-1.019472,-0.030754000000000004,0.201561,-0.268252
527,-1.7960919999999998,-1.465473,1.35097,-0.102433,0.994459,0.023476,4.127491,-3.0478240000000003,-1.191845,0.14714100000000002,0.22960100000000003,-0.318948
528,-1.181202,-1.428467,2.028133,-0.131195,0.9898879999999999,-0.053866,4.185544,-2.590667,-1.546675,0.130157,0.245662,-0.26582100000000003
529,-0.9336709999999999,-1.36447,2.31141,-0.164659,0.9787899999999999,-0.12186099999999998,3.354325,-0.984406,-1.581245,-0.150542,0.133865,0.054905999999999996
530,-0.822774,-1.308314,2.406213,-0.190198,0.965749,-0.17648699999999998,1.9683979999999999,2.413105,-1.266267,0.259992,-0.022618,0.88271
531,-0.748115,-1.294145,2.414399,-0.18579500000000002,0.961976,-0.200193,-0.03825,3.259697,0.014384000000000001,0.248677,-0.04564,0.8670629999999999
532,-0.717283,-1.274232,2.442844,-0.192092,0.9563459999999999,-0.22021999999999997,2.282114,-2.291092,-0.754915,-0.450029,0.192351,0.264074
533,-0.714839,-1.210553,2.516194,-0.23105900000000001,0.9358110000000001,-0.266204,3.292018,-3.259334,-1.386485,-0.185567,0.026897000000000004,0.414641
534,-0.716309,-1.1442809999999999,2.5645,-0.27163400000000004,0.9104129999999999,-0.312023,2.9843669999999998,-1.561878,-1.504041,-0.17383099999999999,-0.106671,0.329708
535,-0.690303,-1.081425,2.598642,-0.299325,0.8826280000000001,-0.362446,2.800903,0.42942700000000006,-1.421348,0.038521,-0.287627,0.027852
536,-0.662482,-1.030145,2.617089,-0.31657399999999997,0.857374,-0.405817,1.868175,0.44314799999999993,-1.113824,0.102279,-0.339872,0.15008
537,-0.6576270000000001,-0.996245,2.619625,-0.33218200000000003,0.8394360000000001,-0.43011499999999997,1.198817,0.024097999999999998,-0.9673430000000001,0.248518,-0.55753,0.38356
538,-0.658304,-0.966669,2.613666,-0.347514,0.822998,-0.449338,0.9710469999999999,0.271418,-1.0803459999999998,0.341472,-0.607406,0.347532
539,-0.671222,-0.942838,2.597914,-0.365386,0.809229,-0.460042,0.41353900000000005,-0.104782,-1.090167,0.285735,-0.5564819999999999,0.10666400000000001
540,-0.69309,-0.9308870000000001,2.573313,-0.38151,0.80215,-0.45935,-0.197881,-0.108999,-0.83806,0.24886599999999998,-0.44849700000000003,0.251601
541,-0.7210310000000001,-0.925976,2.545912,-0.39679000000000003,0.799208,-0.451466,-0.396115,-0.44318500000000005,-0.7439439999999999,0.26927199999999996,-0.36880300000000005,0.376454
542,-0.748341,-0.925509,2.518559,-0.409224,0.798927,-0.44073500000000004,-0.685472,-0.05416699999999999,-0.541365,0.025038,-0.453712,0.156525
543,-0.759537,-0.9355629999999999,2.4891080000000003,-0.40858099999999997,0.804933,-0.43028,-1.110144,1.038708,-0.149422,-0.030399000000000002,-0.454775,0.15049500000000002
544,-0.7569100000000001,-0.9537540000000001,2.458644,-0.397327,0.8155939999999999,-0.42063599999999995,-1.36517,1.464912,0.048007999999999995,-0.071453,-0.42654,0.17825
545,-0.75092,-0.978985,2.427139,-0.38063600000000003,0.829931,-0.407831,-1.6234469999999999,1.7203700000000002,0.323614,0.024206000000000002,-0.30895100000000003,-0.023641
546,-0.72983,-1.010307,2.401281,-0.35443800000000003,0.846995,-0.39619299999999996,-1.5812620000000002,2.426196,0.665904,-0.0037310000000000004,-0.176478,-0.24357800000000002
547,-0.683515,-1.040828,2.391818,-0.319236,0.862823,-0.391945,-1.107966,2.76891,0.8642549999999999,-0.12754200000000002,0.017426,-0.42234099999999997
548,-0.628057,-1.062062,2.400983,-0.286188,0.8733620000000001,-0.394121,-0.47207899999999997,1.9861490000000002,0.79172,-0.274832,0.096166,-0.585295
549,-0.587296,-1.073423,2.421154,-0.264375,0.8788389999999999,-0.39716999999999997,-0.058162,0.693984,0.695854,-0.334914,-0.06276799999999999,-0.582749
550,-0.562109,-1.080601,2.4483490000000003,-0.25092,0.8822409999999999,-0.398354,0.056787,-0.232481,0.781166,-0.20338,-0.147057,-0.43724799999999997
551,-0.542353,-1.0910440000000001,2.479488,-0.238233,0.887109,-0.39532,-0.166668,-0.40284200000000003,0.953943,-0.009401999999999999,-0.230814,-0.34982800000000003
552,-0.519068,-1.10619,2.514091,-0.222273,0.893998,-0.389048,-0.18953299999999998,-0.32147600000000004,1.138482,-0.072649,-0.13144,-0.40975
553,-0.46238500000000005,-1.11085,2.569569,-0.19801400000000002,0.896077,-0.397282,0.77642,1.006557,1.191597,-0.505812,0.48315,-0.321758
554,-0.37592800000000004,-1.097797,2.611209,-0.16725,0.8902059999999999,-0.423741,0.810541,3.109927,-0.030769,-1.378892,1.245765,0.213871
555,-0.362729,-1.0942479999999999,2.5796919999999997,-0.16276300000000002,0.888583,-0.428863,-0.48217,0.8332799999999999,-0.735499,-1.283496,0.5259520000000001,0.560806
556,-0.39354,-1.10317,2.547816,-0.17285,0.892641,-0.416307,-0.746053,-0.42382200000000003,-0.487904,-0.187669,-0.9021319999999999,1.224596
557,-0.43841499999999994,-1.1154709999999999,2.517076,-0.186676,0.8981180000000001,-0.398161,-0.8915069999999999,-0.95275,-0.22439099999999998,0.187927,-0.254396,0.511289
558,-0.46435600000000005,-1.136592,2.493435,-0.188402,0.9072049999999999,-0.37613800000000003,-1.301931,0.175427,0.118469,0.567094,0.682608,-0.063972
559,-0.44439300000000004,-1.159853,2.487618,-0.171736,0.916744,-0.360669,-1.100989,2.266702,0.707919,0.5694100000000001,0.769504,0.45791400000000004
560,-0.320988,-1.201619,2.524428,-0.113848,0.932625,-0.342412,-2.1484959999999997,5.304094999999999,1.807661,0.359041,0.757088,0.451726
561,-0.13030799999999998,-1.259575,2.611459,-0.03979,0.95196,-0.303619,-2.439486,5.196283,2.1144819999999998,-0.27384000000000003,0.274404,0.09792999999999999
562,0.086322,-1.29284,2.74994,0.023656,0.9616180000000001,-0.273361,-1.185017,3.551036,1.9416189999999998,-0.44254,0.004645000000000001,-0.0654
563,0.28625100000000003,-1.311279,2.897983,0.07245399999999999,0.966514,-0.246164,-1.4473559999999999,2.5921689999999997,1.666482,-0.459188,-0.233329,-0.007437
564,0.501372,-1.329828,3.0664540000000002,0.114693,0.9711069999999999,-0.20926199999999998,-1.7480919999999998,2.494653,1.538456,-0.30033200000000004,-0.38288099999999997,0.06737
565,0.73717,-1.346177,-3.022817,0.14971199999999998,0.974879,-0.16489700000000002,-2.185251,2.2693529999999997,1.250476,-0.008859,-0.372904,0.274119
566,1.033432,-1.3579940000000001,-2.776929,0.181419,0.9774430000000001,-0.108099,-2.543344,3.333627,1.278658,0.326546,-0.16326500000000002,0.320669
567,1.3659780000000001,-1.355385,-2.52376,0.209265,0.9768889999999999,-0.043470999999999996,-2.2955099999999997,4.734928,0.9474469999999999,0.44491,0.033976,0.283537
568,1.633371,-1.3468790000000002,-2.351934,0.221598,0.975035,0.013885,-1.503398,4.920077,0.313946,0.128957,-0.044447,0.079286
569,1.7984950000000002,-1.340991,-2.271027,0.22189,0.9737110000000001,0.051415999999999996,-0.664968,3.8203949999999995,0.199434,-0.054836,-0.033724000000000004,-0.07108400000000001
570,1.896991,-1.328531,-2.232713,0.22723400000000002,0.9707969999999999,0.07686799999999999,-0.665373,2.7501349999999998,0.646251,-0.155151,-0.045824000000000004,-0.175227
571,1.997944,-1.308282,-2.187368,0.236175,0.965741,0.107501,-1.0313430000000001,3.072757,0.736217,0.005555,-0.060971000000000004,-0.161486
572,2.122722,-1.285281,-2.131646,0.239814,0.959517,0.147668,-1.262161,3.7773,0.571332,0.071923,-0.091795,-0.042428
573,2.244712,-1.263352,-2.080932,0.23645,0.95311,0.18884,-1.198065,3.3708949999999995,0.383225,0.044343,-0.062729,-0.073133
574,2.324826,-1.250844,-2.044884,0.229252,0.94925,0.21530300000000002,-0.5328229999999999,1.671081,-0.018009999999999998,0.002941,-0.020478,-0.296296
575,2.353066,-1.2491860000000001,-2.034593,0.22419699999999998,0.948728,0.22279899999999997,-0.0433,0.6457890000000001,-0.051733,0.080063,-0.056623,-0.5621079999999999
576,2.37605,-1.247543,-2.0268740000000003,0.220097,0.948207,0.229016,-0.293617,1.009771,-0.015491999999999999,0.11465,-0.094188,-0.658245
577,2.428696,-1.238444,-2.005183,0.213376,0.945277,0.246798,-0.707156,1.93114,0.100079,0.12482,-0.0005139999999999999,-0.388552
578,2.499047,-1.224816,-1.9794450000000001,0.203201,0.940743,0.271474,-0.8369969999999999,2.427146,0.049399,0.032975,0.162131,-0.224859
579,2.566636,-1.212136,-1.951945,0.19087300000000001,0.936368,0.294565,-0.683699,1.7602240000000002,-0.068317,-0.010835,0.248996,-0.254511
580,2.600579,-1.209041,-1.9399240000000002,0.182259,0.935277,0.303356,0.048510000000000005,0.838515,-0.109023,0.069313,0.134501,-0.397594
581,2.620014,-1.2148459999999999,-1.9401439999999999,0.173621,0.937316,0.302128,0.248065,1.260987,-0.171195,-0.283667,0.324205,-0.465549
582,2.668287,-1.218985,-1.933613,0.15707000000000002,0.93875,0.306698,0.125504,2.677315,-0.20911799999999997,-0.26711599999999996,0.32277,-0.47011899999999995
583,2.733172,-1.230199,-1.936252,0.132663,0.9425549999999999,0.306555,0.8714219999999999,3.6473739999999997,-0.22117399999999998,-0.393466,0.42905699999999997,-0.417883
584,2.790577,-1.259225,-1.9623169999999999,0.105401,0.9518530000000001,0.28784,1.8043189999999998,4.385948,-0.048961000000000005,-0.218667,0.734869,0.3015
585,2.822269,-1.302057,-2.024552,0.083344,0.9641059999999999,0.252069,2.680156,4.593975,0.182285,-0.168259,0.704839,0.314627
586,2.817702,-1.36648,-2.1187259999999997,0.064563,0.9792,0.19231700000000002,3.7991870000000003,4.100955,-0.038935000000000004,-0.419422,0.37652800000000003,0.235494
587,2.736042,-1.445481,-2.272594,0.049291,0.992158,0.114802,4.266012,3.179241,-0.38059699999999996,-1.071141,0.4261,0.281148
588,2.354674,-1.5257690000000002,-2.705755,0.031782,0.998986,0.031685000000000005,4.28543,2.039112,-0.858632,-1.05441,0.8259190000000001,0.35468299999999997
589,0.19263,-1.518685,1.3884530000000002,0.009951,0.9986430000000001,-0.051017,4.103273000000001,0.9538549999999999,-1.297553,-0.32184,0.8896940000000001,0.458747
590,-0.169269,-1.439176,1.033184,-0.022103,0.99135,-0.129327,3.792025,-1.604983,-1.548548,0.025414,1.19589,0.481653
591,-0.26161999999999996,-1.351127,0.9792770000000001,-0.056354999999999995,0.9759700000000001,-0.210471,4.489,-1.593237,-1.361029,0.165974,0.936842,0.390937
592,-0.269671,-1.261045,0.9798459999999999,-0.081205,0.9524090000000001,-0.293792,4.091354,-0.047309,-1.06989,-0.17752300000000001,0.121794,0.341552
593,-0.279841,-1.187028,0.978608,-0.103413,0.9272600000000001,-0.35984299999999997,3.2772650000000003,-0.759319,-1.0618459999999998,-0.226971,-0.029281,0.6293890000000001
594,-0.32055900000000004,-1.116778,0.956942,-0.138193,0.898692,-0.416231,3.3287980000000004,-1.1709889999999998,-1.7862810000000002,-0.151358,-0.047587,0.7355520000000001
595,-0.379691,-1.0336319999999999,0.922758,-0.189652,0.8591629999999999,-0.47525200000000006,3.7794260000000004,-1.615695,-2.3209470000000003,0.275025,-0.013078999999999999,0.466768
596,-0.43808800000000003,-0.94555,0.895108,-0.248286,0.810819,-0.5300199999999999,3.625779,-1.881487,-2.585531,0.44623900000000005,-0.27628800000000003,0.371527
597,-0.496271,-0.864714,0.8571040000000001,-0.308952,0.7609090000000001,-0.570579,2.640797,-1.092625,-2.936321,0.389839,-0.451355,0.19933299999999998
598,-0.544141,-0.803922,0.809405,-0.359213,0.720083,-0.593669,1.483503,-0.28868699999999997,-2.9123200000000002,0.272955,-0.578314,0.266307
599,-0.587492,-0.752058,0.756004,-0.404777,0.6831430000000001,-0.607838,0.963485,-0.4825,-3.010776,0.383232,-0.496406,0.212788
600,-0.63454,-0.708742,0.703563,-0.450046,0.650879,-0.6114,0.512356,-0.607889,-2.698641,0.42788999999999994,-0.43336499999999994,0.132915
601,-0.667347,-0.67445,0.661087,-0.48339399999999993,0.624468,-0.613487,0.274556,0.014787999999999999,-2.099691,0.289806,-0.522921,0.161918
602,-0.678906,-0.650911,0.630628,-0.499546,0.605912,-0.619129,0.097448,0.65094,-1.459741,0.25905300000000003,-0.53714,0.13837
603,-0.67304,-0.635891,0.607705,-0.5015229999999999,0.5938939999999999,-0.6290939999999999,-0.038636000000000004,1.1420219999999999,-1.0735569999999999,0.037351,-0.579505,0.015462
604,-0.659676,-0.6276079999999999,0.5904550000000001,-0.496069,0.58721,-0.639606,-0.17919300000000002,1.132362,-0.667534,-0.040857,-0.61695,0.143512
605,-0.6508970000000001,-0.6280720000000001,0.575493,-0.49027,0.5875859999999999,-0.6437189999999999,-0.547473,0.7019569999999999,-0.340542,-0.08066799999999999,-0.632111,0.158703
606,-0.649029,-0.640008,0.5587850000000001,-0.48479300000000003,0.597202,-0.639,-1.077559,0.557738,-0.046026,-0.08622200000000001,-0.354908,0.039055
607,-0.644336,-0.662542,0.543029,-0.473583,0.615123,-0.6303479999999999,-1.350945,0.854474,0.30953800000000004,-0.138477,-0.344219,-0.170189
608,-0.630797,-0.690839,0.530636,-0.45455500000000004,0.637184,-0.6223920000000001,-1.4797280000000002,1.138486,0.5251239999999999,-0.230015,-0.388282,-0.258299
609,-0.6198600000000001,-0.72116,0.5162,-0.43629300000000004,0.6602560000000001,-0.611314,-1.505285,0.8977700000000001,0.27208499999999997,-0.7461409999999999,-0.17388299999999998,-0.6441180000000001
610,-0.631641,-0.725205,0.502808,-0.441884,0.663289,-0.6039720000000001,0.47716400000000003,-0.728788,-0.675519,-1.1341350000000001,1.30392,-0.345018
611,-0.634734,-0.702769,0.494054,-0.452463,0.646333,-0.614432,0.122715,0.9413739999999999,-0.853187,-1.030951,1.572493,-0.085366
612,-0.604707,-0.724928,0.47254399999999996,-0.425563,0.663081,-0.615804,-1.744086,2.567066,0.47658100000000003,0.07961599999999999,-0.055171000000000005,-0.406672
613,-0.573114,-0.760066,0.48263199999999995,-0.393017,0.6889689999999999,-0.608978,-1.00727,0.658832,1.516076,0.5116390000000001,-0.353001,0.650436
614,-0.552712,-0.7903680000000001,0.496853,-0.36937800000000004,0.710612,-0.598821,-1.062538,0.433108,1.003232,0.291955,0.17610699999999999,0.7220810000000001
615,-0.538309,-0.818112,0.500009,-0.35047,0.7298560000000001,-0.586921,-1.1881549999999999,0.7508130000000001,0.7829619999999999,0.292624,0.6303270000000001,0.493705
616,-0.519121,-0.8490469999999999,0.5034810000000001,-0.327782,0.7506510000000001,-0.573652,-1.228825,0.901502,0.963015,-0.272499,0.822362,0.330046
617,-0.496125,-0.880841,0.50972,-0.30298800000000004,0.771274,-0.559759,-1.438393,1.029032,0.95391,-0.18396600000000002,0.5052300000000001,0.26967399999999997
618,-0.464767,-0.922265,0.510299,-0.270727,0.796971,-0.5399430000000001,-2.0839060000000003,1.7470869999999998,0.9666399999999999,-0.15455,0.22126300000000002,0.205409
619,-0.43250600000000006,-0.9750280000000001,0.502264,-0.2352,0.827717,-0.50947,-2.673361,2.042339,0.902323,0.091615,0.18957100000000002,0.273019
620,-0.398947,-1.032361,0.490929,-0.199192,0.858512,-0.47251899999999997,-2.707805,2.201229,0.8911969999999999,0.116184,0.182809,0.276596
621,-0.34871599999999997,-1.085573,0.491963,-0.159365,0.8845709999999999,-0.438328,-2.315646,2.752025,1.071623,0.040545,0.143277,0.277729
622,-0.27176300000000003,-1.133141,0.5042,-0.11376300000000002,0.905748,-0.40825500000000003,-2.097816,3.587068,0.916115,0.146783,0.059553999999999996,0.258337
623,-0.178076,-1.177944,0.518389,-0.067811,0.9238209999999999,-0.376762,-2.1173290000000002,4.082022,0.766861,0.272095,-0.14168599999999998,0.094566
624,-0.08682999999999999,-1.223005,0.5366350000000001,-0.029555,0.9401280000000001,-0.339526,-2.382488,3.440635,0.487025,0.309096,-0.22381900000000002,0.09976499999999999
625,-0.011726,-1.2743149999999999,0.565236,-0.003426,0.9563709999999999,-0.292121,-2.550981,1.981048,0.672521,0.379463,-0.542064,-0.071923
626,0.067386,-1.326873,0.6148939999999999,0.016261,0.970398,-0.24094400000000002,-2.7383319999999998,1.416779,0.487133,0.169744,-0.44841000000000003,-0.14746900000000002
627,0.15498,-1.383191,0.678489,0.028785,0.982454,-0.18424400000000002,-2.907135,1.2389059999999998,0.360131,0.039346,-0.391435,-0.12334300000000001
628,0.326047,-1.435916,0.8272219999999999,0.043058,0.990917,-0.127348,-2.803534,1.082898,0.655884,-0.003706,-0.309078,-0.190584
629,0.674275,-1.4798120000000001,1.1560270000000001,0.056685,0.995864,-0.070924,-2.723745,1.308193,0.456395,-0.020384,-0.44700500000000004,-0.24458200000000002
630,1.357235,-1.503585,1.818818,0.065541,0.997742,-0.014214,-2.747036,1.035866,0.380738,-0.019475,-0.37690799999999997,-0.151802
631,1.999252,-1.4917690000000001,2.428126,0.07173099999999999,0.9968790000000001,0.032763,-1.9642119999999998,2.0700220000000003,0.29194499999999995,0.028932,-0.17618499999999998,-0.17988800000000002
632,2.366266,-1.4714,2.744751,0.069408,0.995064,0.07082100000000001,-1.562189,2.963286,-0.196705,0.09498999999999999,0.225029,-0.13666199999999998
633,2.6395779999999998,-1.456779,2.95324,0.054714,0.9935069999999999,0.099676,-1.0908879999999999,3.253923,-0.559117,0.002018,0.553612,-0.256841
634,2.86194,-1.445035,3.122281,0.034605000000000004,0.9921030000000001,0.1205,-0.7981689999999999,2.2032990000000003,-0.746938,-0.08741499999999999,0.815133,-0.285645
635,2.977862,-1.436752,-3.055402,0.021775,0.99103,0.131799,-0.35841,-0.555241,-0.46045699999999995,-0.233719,0.403792,-0.508035
636,2.984633,-1.4435850000000001,-2.986,0.019823,0.99192,0.125252,0.758969,-4.882562,-0.587044,0.139067,0.19558,-1.104973
637,2.890421,-1.475618,-2.940561,0.023601,0.995474,0.09197999999999999,1.825877,-7.267113,-0.5968319999999999,0.168278,0.158045,-0.6617430000000001
638,2.860292,-1.513256,-2.902259,0.015931999999999998,0.998345,0.055134,1.475195,0.14743,-0.615192,0.382429,0.402015,0.415691
639,-3.063757,-1.521935,-2.646715,-0.0037869999999999996,0.998807,0.048554,-0.073361,7.116592999999999,-0.903063,0.365115,0.614032,0.388885
640,-2.535699,-1.520617,-2.286509,-0.028488,0.998741,0.041119,0.541829,8.722984,-0.626292,0.12356600000000001,0.816872,0.398212
641,-2.1601310000000002,-1.533369,-2.04385,-0.030962,0.9993,0.020701,0.75427,4.649446,0.500977,-1.303587,0.721907,0.13081900000000002
642,-1.595358,-1.54437,-1.495243,-0.026169,0.9996510000000001,0.000643,1.482516,-1.22161,-0.049366,-1.059554,0.523237,0.135572
643,-0.6218739999999999,-1.50401,-0.460829,-0.038824000000000004,0.997771,-0.054167999999999994,3.686572,-3.754872,-0.884233,-0.293054,0.26600799999999997,0.093429
644,-0.479988,-1.4014520000000001,-0.23086700000000002,-0.07781,0.9856950000000001,-0.149463,5.687888,-4.6034559999999995,-1.928843,0.011999,0.30394699999999997,-0.364193
645,-0.5199739999999999,-1.27049,-0.168434,-0.14696900000000002,0.9552459999999999,-0.256702,6.056307,-5.150955000000001,-2.792964,0.064709,0.522278,-0.328716
646,-0.591345,-1.152097,-0.152597,-0.22665,0.9136190000000001,-0.337525,4.488174,-3.442128,-2.796494,-0.048527999999999995,0.48004300000000005,0.509095
647,-0.612561,-1.077451,-0.151315,-0.272285,0.880754,-0.387462,2.234243,-0.004696,-1.590323,0.16529000000000002,0.381133,0.6442220000000001
648,-0.6159680000000001,-1.0436860000000001,-0.155279,-0.290626,0.8642639999999999,-0.41058100000000003,1.105461,-0.331386,-0.96647,0.199256,0.25643299999999997,0.702344
649,-0.6172,-0.994842,-0.144522,-0.315206,0.838673,-0.444146,3.187621,-0.371028,-1.382369,0.261861,0.451442,0.39013000000000003
650,-0.578663,-0.898683,-0.099342,-0.340523,0.782508,-0.5212680000000001,5.163641,0.32949,-1.654679,0.12593900000000002,0.513726,0.41993400000000003
651,-0.5432130000000001,-0.802538,-0.060002999999999994,-0.359176,0.719122,-0.594854,4.361064,0.148695,-1.301131,-0.307892,0.047814999999999996,0.14133199999999999
652,-0.524501,-0.735204,-0.04178,-0.371425,0.6707380000000001,-0.641989,2.602875,0.38613800000000004,-1.0808440000000001,0.263256,-0.635124,0.319341
653,-0.5143989999999999,-0.6861729999999999,-0.035384,-0.380656,0.6335810000000001,-0.673551,2.1683,0.184791,-0.968253,0.402751,-0.681082,0.5889260000000001
654,-0.513375,-0.642646,-0.028013999999999997,-0.39314699999999997,0.5993149999999999,-0.697318,1.8971330000000002,-0.352027,-0.753679,0.351231,-0.6443439999999999,0.608634
655,-0.512337,-0.608142,-0.021854,-0.40232399999999996,0.571344,-0.715331,1.454037,-0.0018280000000000002,-0.567079,0.29323899999999997,-0.517968,0.5153800000000001
656,-0.511705,-0.584026,-0.019464,-0.408502,0.551387,-0.7273890000000001,0.8675440000000001,-0.05246900000000001,-0.44826499999999997,0.286325,-0.430721,0.4966
657,-0.510059,-0.5733729999999999,-0.019605,-0.41014799999999996,0.5424680000000001,-0.733146,0.229344,0.190417,-0.16247799999999998,0.160621,-0.47786300000000004,0.43010600000000004
658,-0.502384,-0.5769890000000001,-0.019969,-0.403562,0.545503,-0.734548,-0.426929,0.5448270000000001,0.221317,0.035077,-0.587754,0.355093
659,-0.48616400000000004,-0.597125,-0.020641999999999997,-0.386384,0.562267,-0.731136,-1.182966,0.9870530000000001,0.5754600000000001,0.001939,-0.711071,0.311229
660,-0.467786,-0.6312810000000001,-0.025493000000000002,-0.364007,0.590179,-0.720544,-1.851936,1.037094,0.629475,-0.006492,-0.629516,0.100992
661,-0.453317,-0.675628,-0.031404,-0.341738,0.625387,-0.7015,-2.1123220000000003,0.782456,0.86406,-0.028792,-0.401312,-0.44315299999999996
662,-0.448424,-0.704992,-0.029622000000000002,-0.33019499999999996,0.6480279999999999,-0.686314,-0.650329,-0.21507600000000002,0.504877,-0.057592,-0.086138,-0.272991
663,-0.451618,-0.718385,-0.0327,-0.328567,0.65817,-0.6773859999999999,-1.262126,0.205289,0.074913,-0.38819899999999996,1.017108,0.185092
664,-0.467042,-0.749347,-0.045239,-0.32964,0.681161,-0.653722,-0.7116819999999999,-0.212162,0.628358,-0.043621,1.555152,-0.559733
665,-0.41884399999999994,-0.769069,-0.020509,-0.29224,0.6954670000000001,-0.656443,-1.576523,2.274249,1.362614,0.196353,0.615721,0.681651
666,-0.39663200000000004,-0.8239290000000001,-0.019397,-0.262438,0.7338210000000001,-0.6266010000000001,-2.3176669999999997,0.211058,0.8783129999999999,-0.39960999999999997,-0.526682,0.24032399999999998
667,-0.398348,-0.859424,-0.018040999999999998,-0.253246,0.757467,-0.6017520000000001,-1.368435,-0.23907899999999999,0.735969,0.013835,0.081919,0.087271
668,-0.40615999999999997,-0.891597,-0.019184,-0.24817899999999998,0.778076,-0.5770609999999999,-1.663069,-0.388981,0.383726,0.062341999999999995,0.583695,0.23073200000000002
669,-0.42986,-0.9236040000000001,-0.042581,-0.251273,0.79778,-0.54809,-1.721846,-0.239589,-0.160601,0.017721999999999998,0.622203,0.170756
670,-0.450896,-0.9527200000000001,-0.070289,-0.25251399999999996,0.814995,-0.5215489999999999,-1.6760959999999998,0.359388,-0.007225,-0.06641,0.46656099999999995,-0.025036000000000003
671,-0.447518,-0.990714,-0.09074700000000001,-0.237173,0.836417,-0.494113,-2.176057,1.426519,0.494253,-0.08346,0.12406199999999999,-0.076276
672,-0.42336899999999994,-1.040351,-0.107171,-0.20784499999999997,0.862582,-0.461243,-2.5541240000000003,2.0224900000000003,0.701288,0.034292,0.032468000000000004,-0.028793
673,-0.405448,-1.093707,-0.126853,-0.181117,0.888335,-0.421958,-2.633928,1.508589,0.613795,0.21741799999999997,-0.03424,0.077628
674,-0.40116,-1.146982,-0.145068,-0.160579,0.9115270000000001,-0.378581,-2.629156,0.771,0.714118,0.37501100000000004,-0.012342,0.10816500000000001
675,-0.406994,-1.203502,-0.16173800000000002,-0.14214200000000002,0.9333020000000001,-0.32974699999999996,-2.796195,0.36595500000000003,0.9185690000000001,0.392111,-0.119627,-0.001979
676,-0.410865,-1.262628,-0.167817,-0.12113800000000001,0.9528909999999999,-0.278055,-2.72914,0.014606000000000001,1.078652,0.318098,-0.12121099999999999,0.05826799999999999
677,-0.419181,-1.3186309999999999,-0.18215499999999998,-0.101542,0.968374,-0.227881,-2.568718,0.404627,0.9072889999999999,0.166239,-0.19158,0.085761
678,-0.426328,-1.372839,-0.1963,-0.081316,0.9804700000000001,-0.179038,-2.515238,0.280534,0.991143,-0.016386,-0.150713,0.10718499999999999
679,-0.444708,-1.422601,-0.222503,-0.063503,0.9890389999999999,-0.133257,-2.294184,0.298941,0.725608,-0.169422,-0.268733,-0.09631100000000001
680,-0.547329,-1.466352,-0.330472,-0.054223,0.9945510000000001,-0.088973,-2.182534,0.255563,0.288473,-0.23317600000000002,-0.33665300000000004,-0.22838000000000003
681,-0.789679,-1.498074,-0.582306,-0.05153200000000001,0.9973569999999999,-0.051093,-1.7557650000000002,0.454404,0.010256999999999999,-0.092801,-0.298626,-0.24558400000000002
682,-1.167468,-1.512553,-0.970316,-0.053434,0.9983040000000001,-0.022801,-1.29309,0.444945,-0.156347,0.14240799999999998,-0.187864,-0.196132
683,-1.590958,-1.514211,-1.399841,-0.056423,0.9983989999999999,0.0011380000000000001,-1.205075,0.135517,-0.10833399999999999,0.265987,0.002364,-0.125085
684,-1.993775,-1.5082440000000001,-1.8001009999999997,-0.056902,0.998044,0.025613999999999998,-1.198109,-0.34112800000000004,0.002353,0.248156,0.080218,-0.138774
685,-2.278036,-1.49721,-2.0759369999999997,-0.055813,0.997294,0.047706,-1.007851,-0.44216099999999997,0.06149500000000001,0.182354,0.15501900000000002,-0.174598
686,-2.482241,-1.4852290000000001,-2.2769,-0.052302999999999995,0.996341,0.067482,-0.9883620000000001,0.036429,0.240479,-0.02219,0.24651700000000001,-0.257912
687,-2.648228,-1.472721,-2.4562619999999997,-0.046339,0.995194,0.086176,-0.9228459999999999,1.007082,0.403131,-0.11436700000000001,0.296569,-0.281321
688,-2.7394,-1.464433,-2.576299,-0.041530000000000004,0.9943489999999999,0.097631,-0.374577,1.570266,0.28125700000000003,-0.319218,0.569311,-0.185155
689,-2.6505400000000003,-1.468076,-2.522439,-0.048320999999999996,0.9947290000000001,0.090363,0.694763,1.827407,-0.48072299999999996,-0.339496,0.646644,-0.10829200000000001
690,-2.3124860000000003,-1.4808860000000001,-2.219728,-0.066148,0.9959610000000001,0.06060499999999999,1.815752,1.8856169999999999,-0.824412,-0.417387,0.7201489999999999,0.011615
691,-1.6794810000000002,-1.484587,-1.629141,-0.08552,0.996286,0.009331,2.696728,2.410366,-0.947118,-0.37232,0.488623,0.165687
692,-1.099259,-1.454675,-1.084214,-0.10317,0.993265,-0.05260599999999999,3.059282,1.260418,-0.8662,-0.294902,0.38603699999999996,0.145075
693,-0.796434,-1.396036,-0.756311,-0.12427200000000001,0.984768,-0.12155899999999999,4.157582,-2.621322,-1.050107,-0.048885000000000005,0.26616300000000004,-0.075295
694,-0.6843319999999999,-1.300465,-0.540459,-0.16880499999999998,0.963683,-0.206906,5.551549,-6.041802,-1.7549,0.416837,0.901903,0.190228
695,-0.69586,-1.190416,-0.42507799999999996,-0.23799499999999998,0.928523,-0.28494400000000003,5.176869,-5.515921,-2.13741,0.500141,1.155339,0.345506
696,-0.654309,-1.0935190000000001,-0.331541,-0.279567,0.888249,-0.36448200000000003,4.613505,0.128462,-0.989557,0.444042,1.172008,0.45360900000000004
697,-0.5754239999999999,-1.033315,-0.25946199999999997,-0.278607,0.859001,-0.429521,2.850069,0.14681,-0.054385,-0.210315,0.268761,0.322114
698,-0.543618,-0.9796440000000001,-0.199007,-0.28826199999999996,0.830299,-0.476971,3.725593,-1.301122,-0.22480799999999998,-0.142692,0.354439,0.43922100000000003
699,-0.533625,-0.8940040000000001,-0.14642,-0.31856799999999996,0.779586,-0.5392170000000001,4.529335,-1.869202,-1.1147040000000001,-0.02416,0.290574,0.578615
700,-0.544253,-0.804462,-0.10961099999999999,-0.359077,0.720458,-0.593295,4.525558999999999,-1.7319900000000001,-1.325346,0.09068999999999999,-0.22605799999999998,0.129916
701,-0.548898,-0.727834,-0.086216,-0.389544,0.665254,-0.636936,3.052101,-0.640917,-1.171461,0.18972999999999998,-0.521104,0.006657
702,-0.5533319999999999,-0.671298,-0.076303,-0.411492,0.622003,-0.6661699999999999,2.50704,-0.653772,-1.213708,0.323831,-0.712762,0.394823
703,-0.5693699999999999,-0.617193,-0.070212,-0.43963900000000006,0.5787479999999999,-0.68685,2.341552,-1.148575,-1.2078209999999998,0.245166,-0.476285,0.49834300000000004
704,-0.580234,-0.569566,-0.06602000000000001,-0.461674,0.539266,-0.7043050000000001,1.9231900000000002,-0.385775,-1.1273309999999999,0.276906,-0.402624,0.45696000000000003
705,-0.586441,-0.530655,-0.06677999999999999,-0.477293,0.5060979999999999,-0.718368,1.407997,-0.270357,-1.039211,0.340773,-0.427104,0.502929
706,-0.5902930000000001,-0.503613,-0.068563,-0.48749799999999993,0.48259300000000005,-0.72763,0.876009,-0.056914,-0.675732,0.251551,-0.492954,0.504532
707,-0.588043,-0.489346,-0.07241900000000001,-0.48963,0.470049,-0.734379,0.280127,0.321205,-0.41225500000000004,0.157553,-0.510668,0.385335
708,-0.578731,-0.48974700000000004,-0.076153,-0.482667,0.47040299999999996,-0.738749,-0.35491,0.697731,0.016525,0.072114,-0.49173500000000003,0.333293
709,-0.560904,-0.5068729999999999,-0.08252899999999999,-0.465067,0.485446,-0.740305,-1.17767,1.2117149999999999,0.332723,-0.05463200000000001,-0.371722,0.19993
710,-0.541346,-0.537989,-0.091402,-0.442499,0.51241,-0.735953,-1.6946759999999998,1.076186,0.573908,-0.064276,-0.325246,0.126273
711,-0.532086,-0.579608,-0.099882,-0.424472,0.547696,-0.721005,-2.151225,0.456531,0.8855700000000001,-0.080563,-0.31293899999999997,0.085156
712,-0.533196,-0.632671,-0.10483900000000002,-0.409908,0.5913010000000001,-0.694503,-2.4931810000000003,-0.172574,1.329436,0.031108999999999998,-0.278023,-0.026550999999999998
713,-0.541246,-0.682904,-0.099927,-0.399665,0.6310479999999999,-0.664862,-1.6202590000000001,-0.655729,1.51775,0.137977,-0.29328000000000004,-0.16283599999999998
714,-0.521985,-0.715429,-0.07973999999999999,-0.376349,0.655941,-0.654291,-0.8505159999999999,1.1555030000000002,1.317844,-0.369684,1.201663,-0.420645
715,-0.502386,-0.745309,-0.077649,-0.353856,0.678199,-0.644071,-1.404975,0.288864,0.610055,-0.441905,1.8709040000000001,-0.679675
716,-0.455349,-0.7749550000000001,-0.06553099999999999,-0.314197,0.699684,-0.641652,-1.444617,3.20457,1.430709,0.22887,0.759117,0.31554099999999996
717,-0.399501,-0.8310790000000001,-0.053721000000000005,-0.262187,0.7386590000000001,-0.620995,-2.6091029999999997,1.151744,1.3846129999999999,-0.047963,-0.056195,0.49308
718,-0.394133,-0.8742129999999999,-0.040518,-0.246378,0.767039,-0.5924050000000001,-1.5083010000000001,-0.478145,1.234158,0.017084000000000002,-0.562006,0.400419
719,-0.389917,-0.914062,-0.022905000000000002,-0.232069,0.79199,-0.564703,-1.718996,-0.568059,1.258438,0.22283699999999998,0.093706,0.241461
720,-0.391403,-0.95531,-0.017459,-0.22025100000000003,0.816493,-0.533688,-1.933875,-0.040926,0.691172,0.17366600000000001,0.39652,0.305996
721,-0.39769099999999996,-0.996072,-0.029894,-0.21053000000000002,0.839342,-0.501173,-2.0211419999999998,0.226726,0.433846,-0.001964,0.561125,0.220808
722,-0.409536,-1.033879,-0.042795,-0.203664,0.859289,-0.469186,-1.7737290000000001,-0.058466,0.41030200000000006,-0.069941,0.220484,0.110024
723,-0.415921,-1.071029,-0.05966799999999999,-0.193618,0.8776940000000001,-0.43835799999999997,-2.015593,0.679729,0.36386999999999997,-0.10304400000000001,-0.018517,0.026827999999999998
724,-0.41633400000000004,-1.116275,-0.080625,-0.177545,0.8984709999999999,-0.40152,-2.392735,0.987086,0.5509850000000001,-0.09339,-0.030704000000000002,0.012206999999999999
725,-0.419267,-1.1671989999999999,-0.104413,-0.159871,0.9196540000000001,-0.358703,-2.573334,0.76581,0.63226,0.138799,0.015175,0.078124
726,-0.437863,-1.218431,-0.132523,-0.146326,0.938559,-0.31254699999999996,-2.527262,0.236602,0.533916,0.279901,-0.10158400000000001,0.07400599999999999
727,-0.46406400000000003,-1.271854,-0.16556600000000002,-0.13180999999999998,0.9556479999999999,-0.263346,-2.7488650000000003,0.386297,0.852642,0.467275,-0.22048,0.111674
728,-0.478332,-1.329161,-0.190932,-0.110134,0.9709479999999999,-0.212412,-2.6080919999999996,0.547031,1.02754,0.321148,-0.278962,0.075556
729,-0.49186,-1.3821780000000001,-0.21657600000000002,-0.088535,0.9822639999999999,-0.165246,-2.430551,0.585,0.9689110000000001,0.206577,-0.30225599999999997,0.01371
730,-0.542248,-1.434516,-0.278866,-0.070086,0.990728,-0.116328,-2.576146,0.5202319999999999,0.7756970000000001,0.030702999999999998,-0.3747,-0.073171
731,-0.699192,-1.480794,-0.452183,-0.057797,0.9959520000000001,-0.068732,-2.309647,1.019464,0.374199,-0.07495399999999999,-0.34724,-0.076059
732,-1.044159,-1.507742,-0.8244739999999999,-0.05437,0.9980129999999999,-0.031611,-1.672321,1.4427379999999999,-0.0011099999999999999,-0.068021,-0.206585,-0.148504
733,-1.468782,-1.515487,-1.276982,-0.054847,0.9984709999999999,-0.005615,-1.2643739999999999,1.2221549999999999,-0.070617,-0.037988,-0.035245,-0.18904200000000002
734,-1.859719,-1.510681,-1.686914,-0.05745700000000001,0.998194,0.017079,-1.158453,0.716174,-0.168574,0.024209,0.053029999999999994,-0.21555
735,-2.1304830000000003,-1.497193,-1.964579,-0.062216999999999995,0.997293,0.03898,-1.090566,0.061165,-0.261264,0.131492,0.16481700000000002,-0.273156
736,-2.310101,-1.4797790000000002,-2.136316,-0.06709,0.9958610000000001,0.061174,-1.105734,-0.697279,-0.256125,0.255414,0.26057800000000003,-0.39203000000000005
737,-2.455359,-1.458824,-2.266275,-0.070748,0.9937379999999999,0.086381,-1.258693,-0.7066479999999999,-0.17813299999999999,0.300408,0.452902,-0.37960900000000003
738,-2.5869,-1.439821,-2.3974759999999997,-0.068747,0.9914350000000001,0.11095799999999999,-1.177504,0.455696,0.251438,0.206244,0.493947,-0.359768
739,-2.674235,-1.430053,-2.515525,-0.063169,0.9901120000000001,0.125175,-0.517789,1.985286,0.514733,-0.061128999999999996,0.349137,-0.29688200000000003
740,-2.638096,-1.434561,-2.527612,-0.065496,0.990734,0.1189,0.572555,2.560249,-0.091548,-0.41768900000000003,0.555225,-0.110141
741,-2.431075,-1.4513040000000001,-2.372261,-0.0777,0.992869,0.090304,1.653161,2.704683,-0.384355,-0.552549,0.5573319999999999,0.017454
742,-2.0087450000000002,-1.4690860000000001,-2.001211,-0.091874,0.9948319999999999,0.043023,2.40353,2.551723,-0.61179,-0.508437,0.5279189999999999,0.17285899999999998
743,-1.444741,-1.465239,-1.469568,-0.104449,0.994434,-0.013237,2.782104,1.088847,-0.610476,-0.423688,0.398373,0.317527
744,-0.990416,-1.429308,-1.008873,-0.117881,0.990007,-0.077296,3.535908,-0.9812280000000001,-0.669856,-0.245294,0.32144,0.343882
745,-0.7541939999999999,-1.367931,-0.718961,-0.137928,0.9794930000000001,-0.146816,4.00979,-3.3900989999999998,-0.743575,-0.046902,0.244719,0.008877
746,-0.6879270000000001,-1.28875,-0.5494399999999999,-0.176703,0.9604879999999999,-0.215004,4.506971,-5.666905,-1.362095,-0.124338,0.414405,-0.090919
747,-0.694811,-1.194166,-0.43708400000000003,-0.235463,0.929909,-0.282514,4.86552,-5.342683,-1.7669979999999998,-0.117183,0.686454,-0.114428
748,-0.6860310000000001,-1.100602,-0.354052,-0.286993,0.8914799999999999,-0.350553,4.488403,-1.508992,-1.3814389999999999,0.21816100000000002,0.656738,0.252592
749,-0.6247560000000001,-1.036651,-0.298158,-0.29777,0.8607040000000001,-0.41293100000000005,2.547618,0.808809,-0.705758,0.338725,0.462477,0.197981
750,-0.592381,-0.995956,-0.259169,-0.303564,0.8392790000000001,-0.45105500000000004,2.5140130000000003,-0.40881799999999996,-0.14041199999999998,0.24786999999999998,0.138168,0.5145930000000001
751,-0.562837,-0.932474,-0.205042,-0.317934,0.803096,-0.503931,4.052819,-1.0683770000000001,-0.636223,0.020525,0.231068,0.43183299999999997
752,-0.551578,-0.8545860000000001,-0.153446,-0.34404,0.7542989999999999,-0.5591619999999999,4.07496,-1.591546,-0.625784,-0.017059,-0.11558199999999999,0.392475
753,-0.543345,-0.7840159999999999,-0.108628,-0.366078,0.706129,-0.606104,3.6289059999999997,-0.975979,-0.465182,0.044957,-0.31094099999999997,0.30991599999999997
754,-0.533356,-0.725821,-0.071327,-0.380277,0.66375,-0.644065,2.916553,-0.740851,-0.30595300000000003,0.300886,-0.497093,0.46700200000000003
755,-0.535948,-0.67728,-0.043782999999999996,-0.397943,0.626676,-0.67001,2.5112080000000003,-1.2452590000000001,-0.354072,0.401925,-0.624173,0.5545770000000001
756,-0.54583,-0.632787,-0.021649,-0.41861400000000004,0.591394,-0.68921,2.227315,-1.085322,-0.410739,0.380833,-0.675379,0.512208
757,-0.556335,-0.595244,-0.0022129999999999997,-0.43725299999999995,0.560711,-0.703142,1.8811810000000002,-0.994346,-0.21778899999999998,0.258191,-0.6483270000000001,0.56833
758,-0.563109,-0.5665,0.012026,-0.45042600000000005,0.536682,-0.713501,1.321757,-0.656618,-0.274472,0.32040599999999997,-0.48606800000000006,0.44256599999999996
759,-0.565267,-0.550067,0.021457,-0.45662700000000006,0.522745,-0.719879,0.638718,-0.15695,0.037377999999999995,0.19239,-0.374582,0.341354
760,-0.5570149999999999,-0.552089,0.028069999999999998,-0.450111,0.524467,-0.722724,-0.328675,0.541503,0.43458199999999997,-0.05735,-0.430976,0.206702
761,-0.5367069999999999,-0.576138,0.028258999999999996,-0.42876899999999996,0.5447890000000001,-0.720665,-1.435199,1.2749549999999998,0.725015,-0.229663,-0.37122,0.074424
762,-0.514463,-0.617834,0.020729,-0.4011,0.579271,-0.709619,-2.20945,1.191027,0.806241,-0.251915,-0.362184,-0.12285499999999999
763,-0.509305,-0.665089,0.009531,-0.38364899999999996,0.617129,-0.6869930000000001,-2.127066,0.166456,0.678874,-0.254794,-0.379,-0.269549
764,-0.511113,-0.696174,0.0028280000000000002,-0.375323,0.641286,-0.669238,-1.204809,0.501911,0.439195,-0.293363,0.172236,0.384676
765,-0.49822700000000003,-0.729669,-0.012981999999999999,-0.356199,0.666623,-0.654775,-2.135526,1.0889719999999998,0.157409,-0.564623,1.040729,-0.121242
766,-0.488432,-0.749188,-0.015962,-0.343596,0.681045,-0.646617,0.198295,0.548205,0.698901,0.13594,1.3739940000000002,-1.254048
767,-0.43260699999999996,-0.76989,0.003582,-0.301006,0.696056,-0.65184,-1.646312,3.138382,1.3749049999999998,-0.024494,-0.2346,0.206298
768,-0.38393499999999997,-0.824844,0.012509000000000001,-0.25421,0.734442,-0.629258,-2.335093,1.32336,1.1213870000000001,-0.39007800000000004,-0.375693,0.200959
769,-0.370044,-0.8654629999999999,0.013965,-0.234456,0.761396,-0.6044010000000001,-1.6673040000000001,0.44055200000000005,0.733009,-0.104717,-0.284482,0.282959
770,-0.35231399999999996,-0.9013639999999999,0.019288,-0.21412899999999999,0.7841739999999999,-0.5824199999999999,-1.660064,0.739421,0.8459059999999999,0.22925,0.203466,0.277564
771,-0.335851,-0.940426,0.024439,-0.19426300000000002,0.807809,-0.5565060000000001,-1.818238,0.573148,0.73926,0.15706199999999998,0.343039,0.170077
772,-0.324861,-0.9779610000000001,0.024825999999999997,-0.17832699999999999,0.82936,-0.5294840000000001,-1.834589,0.596128,0.601316,-3.3e-05,0.5883189999999999,0.104527
773,-0.31350300000000003,-1.0209629999999998,0.026167000000000003,-0.161147,0.852611,-0.497068,-2.104368,0.513483,0.7234510000000001,0.069457,0.17793699999999998,0.109205
774,-0.299652,-1.064452,0.025266,-0.14315799999999998,0.8745229999999999,-0.463363,-2.091787,0.814348,0.598172,0.076676,0.06943099999999999,0.053604
775,-0.288418,-1.112239,0.020681,-0.125904,0.896692,-0.42436,-2.4697970000000002,0.754889,0.6105619999999999,0.031238,0.050543,0.111418
776,-0.275235,-1.165265,0.01675,-0.10721300000000002,0.9188930000000001,-0.37964499999999995,-2.615197,0.779526,0.702451,0.059253999999999994,0.015021000000000001,0.136725
777,-0.259729,-1.221495,0.018734999999999998,-0.08789,0.9396120000000001,-0.330746,-2.73772,0.652891,0.775464,0.066131,-0.015662,0.11353800000000001
778,-0.244698,-1.277695,0.023017,-0.06999,0.9573520000000001,-0.28029499999999996,-2.693784,0.425965,0.742947,0.171263,-0.082276,0.012808000000000002
779,-0.23476599999999997,-1.3348309999999999,0.030692,-0.054374,0.972289,-0.22734000000000001,-2.7535279999999998,0.04337,0.834887,0.16075799999999998,-0.192306,0.029036000000000003
780,-0.193174,-1.3901299999999999,0.06500800000000001,-0.034487000000000004,0.9837239999999999,-0.176303,-2.534352,0.717603,0.9327620000000001,0.097048,-0.30049699999999996,0.045703
781,-0.130169,-1.440081,0.105871,-0.016911000000000002,0.991469,-0.129183,-2.3628430000000002,1.2860989999999999,0.608492,0.07550499999999999,-0.47589,-0.019011
782,-0.068079,-1.486975,0.136784,-0.0056890000000000005,0.996489,-0.08343300000000001,-2.250667,1.6833939999999998,0.25839,-0.032977,-0.42809899999999995,-0.018297
783,0.004647,-1.527807,0.176869,0.000199,0.9990760000000001,-0.042776,-1.897545,1.611065,0.19151500000000002,-0.026398,-0.382606,-0.052622
784,0.575256,-1.559993,0.714905,0.005404,0.999942,-0.008334999999999999,-1.678939,1.6293090000000001,0.234679,0.078122,-0.308429,-0.134884
785,2.822115,-1.5428600000000001,2.927428,0.008669,0.99961,0.026204,-1.721185,1.844053,0.11553599999999999,0.157088,-0.292258,-0.156209
786,3.029586,-1.511349,3.094817,0.006623,0.9982340000000001,0.058878999999999994,-1.54732,2.092533,-0.10255299999999999,0.280883,-0.054003999999999996,-0.02029
787,-3.1154900000000003,-1.482444,-3.0974470000000003,-0.0023,0.996099,0.08809600000000001,-1.416195,2.531976,-0.353233,0.283184,0.121012,0.033287
788,-3.018964,-1.4561899999999999,-3.043784,-0.013978,0.99344,0.11341099999999998,-1.179231,1.624533,-0.335459,-0.11192300000000001,0.611953,-0.187309
789,-3.005572,-1.43689,-3.027175,-0.018094,0.9910479999999999,0.1322,-0.760216,-1.375206,-0.185547,-0.166446,0.600383,-0.5408149999999999
