,attitude.roll,attitude.pitch,attitude.yaw,gravity.x,gravity.y,gravity.z,rotationRate.x,rotationRate.y,rotationRate.z,userAcceleration.x,userAcceleration.y,userAcceleration.z
0,2.396461,-0.024593,-2.53867,0.6778529999999999,0.02459,0.7347640000000001,0.165389,-0.0041789999999999996,0.025331,-0.020718,0.029029000000000003,0.0225
1,2.39721,-0.026539,-2.541138,0.677268,0.026536,0.7352350000000001,0.151644,0.019322,0.020932,-0.004706,0.027831,0.017252
2,2.397637,-0.028091,-2.543132,0.676925,0.028087,0.7354930000000001,0.118485,-0.009285999999999999,0.011123000000000001,0.016114,0.014347,-0.009709
3,2.3969669999999996,-0.029331,-2.5443029999999998,0.6773939999999999,0.029325999999999998,0.735013,0.06074500000000001,-0.054823000000000004,-0.006314,0.009847,0.015855,-0.014356
4,2.396013,-0.030059,-2.5443130000000003,0.67808,0.030054,0.734351,-0.0022,-0.068396,-0.020623,-0.002849,0.021215,-0.011633
5,2.395101,-0.030336000000000002,-2.543622,0.678744,0.030331,0.733726,-0.034167,-0.061884,-0.022991,0.011335,0.0062439999999999996,-0.010093000000000001
6,2.393682,-0.030101,-2.542709,0.67979,0.030095999999999998,0.732768,-0.049132,-0.069284,-0.024154,0.013263999999999998,0.003229,-0.005335
7,2.391907,-0.029981,-2.5415970000000003,0.681092,0.029976,0.7315619999999999,-0.051302999999999994,-0.08311,-0.029488,0.009994,-0.020424,-0.007136
8,2.390003,-0.029873,-2.54054,0.682485,0.029869,0.730266,-0.041777999999999996,-0.105493,-0.034733999999999994,0.000819,-0.019264,-0.005108
9,2.387982,-0.029894999999999998,-2.53924,0.683959,0.029891,0.728885,-0.057719000000000006,-0.097955,-0.041264,-0.007537,-0.004332,-0.000644
10,2.38658,-0.029639,-2.537982,0.6849850000000001,0.029635,0.727931,-0.050025,-0.040486,-0.033807,0.001142,-0.014025,0.005193
11,2.385976,-0.029298,-2.536983,0.685431,0.029293,0.727524,-0.044662,-0.025625,-0.025241999999999997,0.004861,-0.018399000000000002,0.002502
12,2.3853400000000002,-0.028704,-2.5359529999999997,0.685906,0.0287,0.727101,-0.052173000000000004,-0.034126,-0.024215999999999998,0.0015789999999999999,-0.016981,-0.004475
13,2.38482,-0.028002,-2.534954,0.686298,0.027999,0.726759,-0.054379,-0.040548,-0.014609,-0.002246,-0.011763,-0.012434
14,2.38424,-0.027207,-2.534149,0.6867340000000001,0.027204000000000002,0.726376,-0.051212,-0.023613,0.009961,0.005755,-0.008573,-0.0037359999999999997
15,2.383848,-0.026121,-2.533871,0.6870390000000001,0.026118000000000002,0.726129,-0.039568,-0.021613,0.032472,0.009401999999999999,-0.008967000000000001,-0.008142
16,2.383388,-0.024730000000000002,-2.534166,0.687398,0.024728,0.725838,-0.020513,-0.026056,0.061453,-0.006993000000000001,0.002097,0.007698
17,2.382972,-0.023563999999999998,-2.535091,0.687718,0.023562,0.725572,-0.00662,-0.008046,0.07434500000000001,-0.005666,0.001966,0.00804
18,2.382982,-0.02247,-2.5362240000000003,0.687729,0.022468000000000002,0.725598,0.005145,0.0036090000000000002,0.07975399999999999,-0.00415,0.004479,0.009189
19,2.383325,-0.021514,-2.53728,0.687495,0.021513,0.7258479999999999,-0.003208,0.031387,0.066841,-0.008448,0.002016,0.007428
20,2.383877,-0.020531,-2.5379560000000003,0.6871079999999999,0.02053,0.7262430000000001,-0.014972,0.015487,0.057165,-0.009602,0.0005269999999999999,0.009139
21,2.384455,-0.019612,-2.538405,0.686702,0.019611,0.726654,-0.02344,0.021943,0.048552,-0.019618,-0.007816,0.003907
22,2.384892,-0.018666,-2.5386130000000002,0.686396,0.018665,0.726967,-0.031951,0.016689,0.037817,-0.026286,-0.007953,0.003517
23,2.385271,-0.017715,-2.538583,0.686132,0.017713999999999997,0.72724,-0.042605000000000004,0.012495000000000001,0.030271,-0.023214,-0.009826,0.0025109999999999998
24,2.385369,-0.016759,-2.538345,0.6860729999999999,0.016758000000000002,0.7273189999999999,-0.041644,-0.019433000000000002,0.021772,-0.019706,-0.012943000000000001,0.000479
25,2.385592,-0.015645,-2.537904,0.685923,0.015643999999999998,0.727486,-0.063914,0.009412,0.020512,-0.009684,-0.022144,-0.002373
26,2.386186,-0.014286000000000002,-2.537023,0.685505,0.014284999999999999,0.727908,-0.087265,0.023393999999999998,0.0075120000000000004,-0.0009660000000000001,-0.01929,-0.009295
27,2.387023,-0.012756,-2.5357060000000002,0.684909,0.012756,0.7284970000000001,-0.10533900000000002,0.034123,0.0041670000000000006,-0.0051909999999999994,-0.019316999999999997,-0.008907
28,2.387893,-0.01094,-2.53441,0.684289,0.01094,0.729107,-0.10753499999999999,0.036197,0.020173,-0.011148,-0.020995,-0.014537999999999999
29,2.388824,-0.008754000000000001,-2.533738,0.683625,0.008754000000000001,0.729759,-0.08635599999999999,0.043407999999999995,0.06304,-0.009598,-0.022288,-0.016715999999999998
30,2.3896610000000003,-0.006679000000000001,-2.53425,0.683024,0.006678,0.730342,-0.044892,0.044196,0.096444,-0.007319,-0.031488999999999996,-0.0135
31,2.3900900000000003,-0.004703,-2.5353220000000003,0.682718,0.004703,0.730643,-0.023708,0.015338,0.10197,-0.0022670000000000004,-0.031894,-0.01789
32,2.3898490000000003,-0.002912,-2.536531,0.682898,0.002912,0.730483,-0.021733000000000002,-0.015578999999999999,0.106296,0.0044340000000000004,-0.031476,-0.012222
33,2.389426,-0.001634,-2.537649,0.68321,0.001634,0.730196,0.016909,-0.004894,0.06489199999999999,-1.3000000000000001e-05,-0.027939999999999996,0.029188
34,2.388953,-0.002268,-2.53933,0.683554,0.002268,0.7298720000000001,0.135388,-0.044514,0.013427000000000001,0.006189,-0.004419,0.038591
35,2.3868139999999998,-0.0051649999999999995,-2.54225,0.685106,0.0051649999999999995,0.7284,0.248202,-0.12366700000000001,-0.003843,0.023024,-0.003211,0.032922
36,2.385026,-0.008509000000000001,-2.5452169999999996,0.686391,0.008509000000000001,0.7271569999999999,0.21448899999999999,-0.046776,-0.022337,0.025355000000000003,0.002294,0.014924000000000002
37,2.3843650000000003,-0.011112,-2.54753,0.686854,0.011111,0.726685,0.173771,-0.072256,-0.008702,-0.018306,-0.00217,-0.025192
38,2.381628,-0.013616,-2.550362,0.688819,0.013616,0.724779,0.19891099999999998,-0.139602,0.027880000000000002,-0.028433999999999997,-0.011907,0.012098000000000001
39,2.38172,-0.014972999999999998,-2.553191,0.688739,0.014972,0.724829,0.131245,0.021394,0.051770000000000004,-0.016193,0.003827,-0.013418000000000001
40,2.3820669999999997,-0.016063,-2.555167,0.688476,0.016062,0.725055,0.08873400000000001,0.036542000000000005,0.030088999999999998,0.013366999999999999,0.02062,-0.006412
41,2.383306,-0.016946,-2.556833,0.687566,0.016946,0.725897,0.098465,0.064209,0.029053,0.029505,2.2e-05,-0.009131
42,2.384224,-0.017568,-2.5580830000000003,0.6868920000000001,0.017567,0.7265199999999999,0.039701,0.033569,0.016932,0.037458,0.056728,-0.019687
43,2.384895,-0.017148,-2.558076,0.6864100000000001,0.017147,0.726986,-0.045662,0.023244,0.008870999999999999,0.038093,0.050586,-0.025814
44,2.385291,-0.015955,-2.557242,0.686136,0.015954,0.727272,-0.09160399999999999,0.02865,0.028839,-0.002374,0.026144999999999998,-0.003578
45,2.385957,-0.013938999999999998,-2.5566020000000003,0.685671,0.013937999999999999,0.727751,-0.103373,0.049881,0.057572000000000005,-0.006381,0.002663,-0.001127
46,2.3865830000000003,-0.011811,-2.5560259999999997,0.685234,0.011811,0.7281989999999999,-0.11408499999999999,0.048819,0.066044,-0.012337,-0.00528,-0.005528
47,2.3868169999999997,-0.009747,-2.555414,0.685079,0.009747,0.728376,-0.103522,0.015797,0.056546000000000006,-0.016714,-0.011655,-0.002729
48,2.3866959999999997,-0.007939,-2.5546889999999998,0.685178,0.007939,0.728304,-0.09926900000000001,-0.005451,0.038444,-0.01846,-0.018758,0.005094
49,2.386474,-0.00639,-2.5539080000000003,0.685347,0.00639,0.728161,-0.080111,-0.018201,0.023885,-0.018721,-0.019207,-0.002147
50,2.386083,-0.005175,-2.553317,0.6856369999999999,0.005175,0.7278979999999999,-0.056639999999999996,-0.022527000000000002,0.019782,-0.015562000000000001,-0.031817000000000005,-0.01609
51,2.385659,-0.004333,-2.5529759999999997,0.685948,0.004333,0.7276100000000001,-0.03316,-0.027906,0.012475,-0.013081,-0.042434,-0.019923
52,2.385275,-0.0038009999999999997,-2.552665,0.686229,0.0038009999999999997,0.727348,-0.017085,-0.032142000000000004,-0.007703,-0.010509000000000001,-0.043566,-0.021461
53,2.384776,-0.004058,-2.552209,0.686591,0.004058,0.727005,0.0022960000000000003,-0.025685000000000003,-0.040691000000000005,-0.006156,-0.042861,-0.017121
54,2.3843349999999996,-0.00512,-2.551718,0.686909,0.00512,0.726699,0.047258,-0.023584,-0.07242699999999999,-0.0020329999999999997,-0.051797,-0.022628
55,2.384513,-0.007093,-2.550336,0.686771,0.007093,0.726812,0.007417,0.023864,-0.181724,0.016461,-0.016706,-0.037756
56,2.38365,-0.010636,-2.546711,0.687377,0.010636,0.726196,0.038593,-0.188124,-0.20900900000000003,-0.068557,-0.091675,-0.072357
57,2.382113,-0.006495999999999999,-2.5415520000000003,0.688516,0.006495999999999999,0.725165,-0.7561260000000001,0.125833,0.063124,-0.010156,-0.11605399999999999,-0.041831
58,2.401323,0.01202,-2.530081,0.674425,-0.01202,0.738219,-0.8247059999999999,1.3454139999999999,0.162563,0.14236300000000002,0.037288,0.039979
59,2.4150810000000003,0.010407,-2.526014,0.6642170000000001,-0.010407,0.747441,0.188378,0.203246,-0.40039600000000003,0.135328,0.007141,0.10978199999999999
60,2.413449,-0.001573,-2.523612,0.6654720000000001,0.001573,0.746396,0.38910900000000004,-0.09640599999999999,-0.496886,0.013605,0.0060409999999999995,0.070514
61,2.4090740000000004,-0.011113,-2.52383,0.66869,0.011113,0.743432,0.392094,-0.290554,-0.166536,-0.18600899999999998,0.079998,0.053579999999999996
62,2.404776,-0.01551,-2.5287509999999997,0.67184,0.01551,0.7405079999999999,0.264423,-0.165547,0.117627,-0.190547,0.071801,0.027818
63,2.402263,-0.015463,-2.533134,0.6736989999999999,0.015462,0.738818,0.083085,-0.105472,0.169695,-0.025596999999999998,0.066447,0.016995
64,2.4012569999999998,-0.013756,-2.5351630000000003,0.674459,0.013756,0.738158,-0.033632,-0.025981,0.105752,0.016962,0.119591,-0.011656
65,2.399677,-0.011892,-2.534584,0.67564,0.011890999999999999,0.737109,-0.11736600000000001,-0.062686,0.025537999999999998,0.06378500000000001,0.038554000000000005,0.004543999999999999
66,2.398358,-0.0098,-2.53297,0.6766270000000001,0.0098,0.736234,-0.12486300000000002,-0.075417,0.019091999999999998,0.0073939999999999995,0.017147,0.014834
67,2.397688,-0.008487999999999999,-2.532677,0.677129,0.008487,0.735789,-0.034165,-0.029037,0.063463,-0.029606999999999998,-0.0033299999999999996,0.007115000000000001
68,2.3973880000000003,-0.008192,-2.534348,0.677351,0.008192,0.735588,0.061804,0.003476,0.10788900000000001,-0.04994,-0.021528,-0.004646
69,2.3976189999999997,-0.008503,-2.5377669999999997,0.677179,0.008503,0.735742,0.131218,0.04255,0.132893,-0.029291,-0.027408,-0.02247
70,2.398625,-0.008708,-2.541106,0.676437,0.008708,0.736421,0.09083,0.055560000000000005,0.11123,0.008607,-0.037654,-0.050477999999999995
71,2.39955,-0.007697,-2.5429169999999996,0.675761,0.007697,0.737052,-0.016971,0.029369,0.094487,0.020024,-0.041205,-0.025596
72,2.40047,-0.005522,-2.543197,0.675092,0.005522,0.737684,-0.089378,0.037173000000000005,0.07047,0.014193,-0.043318,-0.0017829999999999999
73,2.401432,-0.0032670000000000004,-2.542646,0.674388,0.0032670000000000004,0.738341,-0.09349199999999999,0.042881,0.037342,-0.001506,-0.036516,0.010362
74,2.40163,-0.0017929999999999999,-2.5419400000000003,0.674245,0.0017929999999999999,0.738477,-0.048627,0.019433000000000002,0.001366,-0.005605,-0.021599,0.019549
75,2.401521,-0.0017050000000000001,-2.541511,0.674325,0.0017050000000000001,0.7384029999999999,0.006831,-0.010486,-0.023844999999999998,-0.004739,-0.014934000000000001,0.018708000000000002
76,2.4010439999999997,-0.002288,-2.541504,0.674676,0.002288,0.738081,0.040951,-0.01911,-0.027869,-0.004037,-0.008239,0.009676
77,2.400722,-0.002991,-2.541835,0.674912,0.002991,0.737862,0.052639,-0.022377,-0.020306,-7.7e-05,0.00589,-0.008537999999999999
78,2.400276,-0.003826,-2.5423,0.67524,0.003826,0.737559,0.046171,-0.02878,-0.011797,0.004524,0.007725,-0.015788
79,2.399814,-0.004337,-2.5427150000000003,0.675579,0.004337,0.737246,0.034397000000000004,-0.029833999999999996,-0.0044,0.007877,0.006389,-0.018083000000000002
80,2.399441,-0.004634,-2.5430490000000003,0.675854,0.004634,0.736992,0.020537,-0.023411,-0.00023199999999999997,0.009892,0.003575,-0.021737
81,2.3990259999999997,-0.00481,-2.543214,0.6761590000000001,0.00481,0.736711,0.007749,-0.020171,-0.00032599999999999996,0.010304,0.000195,-0.017442
82,2.398719,-0.004829,-2.543217,0.676385,0.004829,0.736503,-0.003943,-0.010542000000000001,-0.00042,0.010718,-0.004951,-0.010032
83,2.3984389999999998,-0.004777,-2.543062,0.6765909999999999,0.004777,0.736314,-0.01243,-0.003043,-0.003693,0.003005,-0.015,0.00035
84,2.398318,-0.004683,-2.5427419999999996,0.6766810000000001,0.004683,0.736232,-0.015568,0.004451,-0.010134,-0.005874,-0.015562000000000001,0.009007
85,2.398317,-0.00465,-2.54237,0.6766810000000001,0.00465,0.736232,-0.013406,0.007652,-0.013328,-0.008148,-0.013622,0.009694
86,2.398327,-0.004638000000000001,-2.541984,0.676674,0.004638000000000001,0.7362390000000001,-0.011286,0.002326,-0.015443,-0.0067209999999999995,-0.011764,0.009092
87,2.39831,-0.004636,-2.541569,0.676686,0.004636,0.7362270000000001,-0.010215,0.000205,-0.018637,-0.003438,-0.011487,0.006097999999999999
88,2.398372,-0.004661,-2.541173,0.6766409999999999,0.004661,0.736269,-0.009156999999999998,-0.000868,-0.01756,-0.0016530000000000002,-0.011482,-0.0007650000000000001
89,2.398464,-0.004654999999999999,-2.540825,0.676573,0.004654999999999999,0.736332,-0.009167,0.000184,-0.014357,-0.0027760000000000003,-0.0094,-0.007801000000000001
90,2.3986,-0.004538,-2.540546,0.676474,0.004538,0.736424,-0.010253,0.004415,-0.005824,-0.002218,-0.012015000000000001,-0.009999
91,2.39878,-0.0043479999999999994,-2.540377,0.676341,0.0043479999999999994,0.7365470000000001,-0.008134,0.0075780000000000005,0.000596,-0.001598,-0.012924000000000001,-0.013616
92,2.398964,-0.004148,-2.540325,0.676207,0.004148,0.736672,-0.006,0.009692000000000001,0.002745,9.300000000000001e-05,-0.012891,-0.0051649999999999995
93,2.399132,-0.004032,-2.540361,0.676083,0.004032,0.7367859999999999,0.00253,0.008597,0.002806,0.000552,-0.01395,-0.003128
94,2.3992,-0.004077,-2.540569,0.676033,0.004077,0.736831,0.015288999999999999,0.002148,0.006108,-0.004143,-0.014636000000000001,0.00116
95,2.399119,-0.0041789999999999996,-2.540952,0.676092,0.0041789999999999996,0.736777,0.019514,-0.0042710000000000005,0.00935,-0.005011,-0.014754,0.002344
96,2.3990400000000003,-0.004285,-2.5413189999999997,0.6761510000000001,0.004285,0.7367229999999999,0.018475,-0.001059,0.0061340000000000006,-0.001941,-0.015393,0.0022140000000000003
97,2.3990549999999997,-0.004353,-2.541594,0.676139,0.004353,0.736733,0.015308,0.0032259999999999997,0.002902,-0.003074,-0.014469,-0.000741
98,2.399167,-0.004487,-2.541784,0.676056,0.004487,0.736809,0.013179,0.002177,0.000752,-0.003693,-0.014283,-0.00016
99,2.399221,-0.0045969999999999995,-2.542049,0.676017,0.0045969999999999995,0.7368439999999999,0.018484999999999998,1.1e-05,0.005064,-0.006339,-0.013522999999999999,0.0009029999999999999
100,2.3992259999999996,-0.004686,-2.542421,0.676012,0.004686,0.736848,0.021657,-0.0032090000000000005,0.008295,-0.004229,-0.010194,-0.003312
101,2.399155,-0.004785,-2.542893,0.676064,0.004785,0.736799,0.021633000000000003,-0.005353,0.011503,-0.0037159999999999997,-0.0076230000000000004,-1.3000000000000001e-05
102,2.399062,-0.004907,-2.543355,0.676132,0.004907,0.736736,0.021633000000000003,-0.005353,0.011503,-0.001236,-0.009714,-0.002559
103,2.3989830000000003,-0.004963,-2.543809,0.67619,0.004963,0.736682,0.020561000000000003,-0.006414,0.011497,-0.00040899999999999997,-0.008594,-0.0023989999999999997
104,2.398891,-0.005063000000000001,-2.544212,0.676258,0.005063000000000001,0.7366199999999999,0.017375,-0.004268,0.010403,0.00034700000000000003,-0.008603,-0.0019089999999999999
105,2.398784,-0.005096,-2.544563,0.6763359999999999,0.005096,0.7365470000000001,0.014169999999999999,-0.006383,0.009315,5.5e-05,-0.009658,-0.0020039999999999997
106,2.39866,-0.005095000000000001,-2.544866,0.676428,0.005095000000000001,0.736463,0.013108000000000002,-0.007436,0.0071730000000000006,0.00236,-0.009382999999999999,-0.002729
107,2.398526,-0.005124,-2.5450909999999998,0.6765260000000001,0.005124,0.736372,0.007783,-0.0063479999999999995,0.006065999999999999,0.001376,-0.008832,-0.003188
108,2.398381,-0.00509,-2.5452619999999997,0.676633,0.00509,0.736274,0.006716,-0.007405,0.004992,0.0017420000000000003,-0.011087,-0.003974
109,2.398247,-0.005064,-2.5453740000000002,0.676732,0.005064,0.7361840000000001,0.003568,-0.0041990000000000005,0.0027530000000000002,-0.000585,-0.0119,-0.006325
110,2.3981630000000003,-0.005009,-2.545415,0.676794,0.005009,0.7361270000000001,0.00037200000000000004,-0.004183,0.001662,-0.001745,-0.012256999999999999,-0.0038729999999999997
111,2.398103,-0.004921,-2.5454,0.6768390000000001,0.004921,0.736086,-0.002805,-0.000968,-0.0005009999999999999,0.003246,-0.011375,-0.00371
112,2.39804,-0.004823,-2.545339,0.6768850000000001,0.004823,0.7360439999999999,-0.002809,-0.0020329999999999997,-0.000499,0.00358,-0.012804,-0.002829
113,2.39795,-0.004755,-2.545305,0.676951,0.004755,0.735984,-0.000676,-0.004162,-0.002618,0.0021100000000000003,-0.011682,-0.000831
114,2.397911,-0.004769,-2.545289,0.67698,0.004769,0.735957,0.003616,8.8e-05,-0.003662,-0.001153,-0.010919,-0.00022400000000000002
115,2.3978990000000002,-0.004833,-2.545284,0.6769890000000001,0.004833,0.735949,0.003616,-0.000973,-0.004729,0.000715,-0.010265,-0.004382
116,2.3978450000000002,-0.00485,-2.5452310000000002,0.677029,0.00485,0.735913,0.00041,-0.002027,-0.00475,-0.001995,-0.010298,-0.002957
117,2.39783,-0.004836,-2.545168,0.67704,0.004836,0.735903,-0.000647,0.00010700000000000001,-0.00476,-0.0020670000000000003,-0.012495000000000001,-0.0032979999999999997
118,2.397844,-0.004825,-2.545112,0.677029,0.004825,0.735912,0.00041500000000000006,9.9e-05,-0.003684,-0.002881,-0.013202,-0.0033380000000000003
119,2.39785,-0.004797,-2.545083,0.677025,0.004797,0.735917,0.000405,0.001152,-0.000481,-0.002861,-0.013235,-0.003022
120,2.397846,-0.004762,-2.545089,0.677029,0.004762,0.7359140000000001,0.000396,-0.0009789999999999998,-0.000478,-0.002224,-0.013506,-0.0016300000000000002
121,2.397846,-0.004721,-2.545099,0.677028,0.004721,0.7359140000000001,0.000396,8.2e-05,0.000589,-0.0021780000000000002,-0.01383,-0.000715
122,2.3978580000000003,-0.004697,-2.545153,0.67702,0.004697,0.7359220000000001,0.0036009999999999996,0.0011359999999999999,0.00061,-0.003848,-0.011640000000000001,-0.002234
123,2.3978770000000003,-0.004688,-2.545233,0.677006,0.004688,0.735935,0.00573,0.001125,0.001693,-0.002598,-0.010868000000000001,-0.004382
124,2.397882,-0.004677000000000001,-2.5453360000000003,0.677002,0.004677000000000001,0.735938,0.004649,-0.001007,0.0027559999999999998,-0.000549,-0.012352,-0.00135
125,2.397884,-0.004632,-2.545499,0.6770010000000001,0.004632,0.735939,0.008912,3.5e-05,0.004921,-0.000213,-0.011865,-0.003136
126,2.397856,-0.004657,-2.5457110000000003,0.677021,0.004657,0.735921,0.009969,-0.001038,0.005998,0.000256,-0.012759999999999999,-0.00359
127,2.397825,-0.004675,-2.545896,0.677044,0.004675,0.7359,0.007845,-0.0010220000000000001,0.0038469999999999997,-0.003322,-0.011755,-0.002944
128,2.3978080000000004,-0.004654,-2.546048,0.677057,0.004654,0.735888,0.0067870000000000005,5.1e-05,0.00277,-0.00034500000000000004,-0.01355,-0.0018789999999999998
129,2.397782,-0.004714,-2.546168,0.677076,0.004714,0.73587,0.006797,5.9999999999999995e-05,0.000633,0.0019399999999999999,-0.013122,-0.003281
130,2.39774,-0.004775,-2.546319,0.677106,0.004775,0.735842,0.008916,-0.001021,0.002786,0.002352,-0.012679000000000001,0.000196
131,2.3976830000000002,-0.0048130000000000004,-2.5465169999999997,0.677148,0.0048130000000000004,0.735803,0.012103000000000001,-0.003167,0.003879,-0.000558,-0.009681,-0.002191
132,2.397585,-0.0048460000000000005,-2.5468189999999997,0.6772199999999999,0.0048460000000000005,0.735736,0.014193,-0.006396,0.010306999999999998,0.0009570000000000001,-0.005106,0.000149
133,2.39737,-0.004801,-2.547232,0.6773779999999999,0.004801,0.735591,0.015198,-0.012821,0.0178,0.003011,-0.002116,0.0009660000000000001
134,2.397113,-0.0046619999999999995,-2.547721,0.6775680000000001,0.0046619999999999995,0.735417,0.013045,-0.011770000000000001,0.023125,0.002425,-0.004342,-0.00298
135,2.396904,-0.0044329999999999994,-2.548203,0.677722,0.0044329999999999994,0.7352770000000001,0.00772,-0.00856,0.024152,-0.00162,-0.004845,-0.005495
136,2.3967650000000003,-0.004149,-2.548641,0.677826,0.004149,0.735183,0.005586,-0.007490999999999999,0.025204,-0.004211,-0.007262,-0.0052179999999999995
137,2.396576,-0.003804,-2.5490630000000003,0.6779649999999999,0.003804,0.735056,0.001295,-0.010681,0.027313999999999998,4.4e-05,-0.009434999999999999,-0.003718
138,2.396398,-0.003464,-2.549477,0.678096,0.003464,0.734937,0.001315,-0.006437000000000001,0.026170999999999996,-0.000591,-0.012711,-0.00372
139,2.3962939999999997,-0.003117,-2.549808,0.6781739999999999,0.003117,0.734867,-0.001847,-0.002148,0.02187,0.000522,-0.014484,-0.004352
140,2.3963229999999998,-0.002779,-2.550036,0.678154,0.002779,0.734887,-0.005009,0.0010810000000000001,0.016503,-0.0032270000000000003,-0.013078,-0.00628
141,2.396302,-0.002437,-2.55021,0.6781689999999999,0.002437,0.734874,-0.005014,-0.002107,0.014371,0.001335,-0.012996,-0.0028640000000000002
142,2.3962630000000003,-0.002188,-2.5503430000000002,0.678198,0.002188,0.734848,-0.000727,-0.002104,0.010128,0.000848,-0.012686,-0.004577
143,2.396214,-0.001998,-2.5505419999999996,0.678235,0.001998,0.7348140000000001,0.0035259999999999996,-0.003193,0.012295,0.000339,-0.011459,-0.002179
144,2.396162,-0.001925,-2.550821,0.6782729999999999,0.001925,0.734779,0.009932,-0.00215,0.012339,-0.0040939999999999995,-0.011218,0.0007099999999999999
145,2.3961900000000003,-0.0018679999999999999,-2.551135,0.6782520000000001,0.0018679999999999999,0.734798,0.012107999999999999,0.004247,0.009141,-0.0018,-0.008307,-0.002285
146,2.396207,-0.0018739999999999998,-2.55137,0.67824,0.0018739999999999998,0.7348100000000001,0.007826999999999999,5e-06,0.008048,7.4e-05,-0.009687000000000001,-0.006781999999999999
147,2.396245,-0.001854,-2.551561,0.678212,0.001854,0.734835,0.006611,0.004222999999999999,0.005833,-0.0034219999999999997,-0.010689,-0.0031609999999999997
148,2.3963330000000003,-0.001802,-2.551767,0.678148,0.001802,0.734896,0.007669,0.00421,0.007977,-0.00406,-0.011888,-0.004854
149,2.39641,-0.001825,-2.551964,0.678091,0.001825,0.7349479999999999,0.007678,0.004219,0.005841,-0.004217,-0.011148,-0.006645999999999999
150,2.396519,-0.001796,-2.552117,0.6780109999999999,0.001796,0.7350220000000001,0.004497,0.006369,0.003679,-0.0038929999999999998,-0.012554000000000001,-0.004004
151,2.396692,-0.0017239999999999998,-2.5521689999999997,0.677884,0.0017239999999999998,0.735139,-0.0008039999999999999,0.010662,0.00043200000000000004,-0.004193,-0.012558,-0.0010539999999999998
152,2.396931,-0.001663,-2.552119,0.677708,0.001663,0.735301,-0.002909,0.013878,-0.002791,-0.006261,-0.011337,-0.002681
153,2.3971880000000003,-0.001615,-2.552028,0.677519,0.001615,0.735475,-0.003985,0.012812,-0.0017289999999999999,-0.003829,-0.011579,-0.000261
154,2.397399,-0.0014810000000000001,-2.552018,0.677363,0.0014810000000000001,0.735618,0.00011200000000000001,0.009548000000000001,0.002553,0.005345,-0.011094,-0.001106
155,2.397537,-0.00146,-2.552076,0.677262,0.00146,0.735711,0.002222,0.005275,0.0036409999999999997,0.005446,-0.011073000000000001,-0.001199
156,2.3976450000000002,-0.00139,-2.552239,0.677183,0.00139,0.735785,0.00647,0.005243,0.007944,0.003527,-0.010087,-0.004019
157,2.397818,-0.001236,-2.552416,0.6770550000000001,0.001236,0.7359020000000001,0.001155,0.010584,0.008968,-0.0018390000000000001,-0.006333,-0.003617
158,2.398144,-0.001056,-2.5524970000000002,0.6768149999999999,0.001056,0.736122,-0.006265,0.01914,0.006769,0.002796,-0.005145,-0.0026320000000000002
159,2.398551,-0.0008039999999999999,-2.552475,0.676516,0.0008039999999999999,0.736398,-0.009432,0.024486,0.004604,0.006513,-0.008601000000000001,-0.006462999999999999
160,2.398948,-0.0006259999999999999,-2.552345,0.6762239999999999,0.0006259999999999999,0.7366659999999999,-0.009423,0.019190000000000002,-0.002867,0.004441,-0.008912,-0.004458
161,2.399247,-0.000546,-2.552131,0.676003,0.000546,0.7368680000000001,-0.009423,0.014946000000000001,-0.007135,0.0036079999999999997,-0.011013,-0.005911
162,2.39949,-0.000552,-2.551872,0.675824,0.000552,0.7370329999999999,-0.008508,0.013887,-0.01252,0.001422,-0.012164,-0.007388
163,2.399699,-0.0006219999999999999,-2.551551,0.67567,0.0006219999999999999,0.737173,-0.006364,0.011766,-0.016776,-0.0024980000000000002,-0.011989,-0.011511
164,2.399877,-0.000745,-2.551198,0.675539,0.000745,0.737294,-0.00636,0.009648,-0.019977,-0.0063490000000000005,-0.011915,-0.005818
165,2.3999479999999997,-0.00095,-2.550897,0.6754859999999999,0.00095,0.737342,0.0021420000000000002,0.003222,-0.018841999999999998,-0.009455,-0.011113,-0.0013800000000000002
166,2.3999759999999997,-0.0012050000000000001,-2.550723,0.675465,0.0012050000000000001,0.73736,0.008519,-4e-06,-0.016656,-0.005954999999999999,-0.010467,0.004339
167,2.399895,-0.0014869999999999998,-2.5506580000000003,0.675525,0.0014869999999999998,0.737305,0.011681,-0.004294,-0.012356,-0.005618,-0.009635,0.005233
168,2.399752,-0.001797,-2.55072,0.6756300000000001,0.001797,0.737208,0.016987000000000002,-0.007520999999999999,-0.00911,-0.006822,-0.010098000000000001,0.0040939999999999995
169,2.3995740000000003,-0.00212,-2.550868,0.675761,0.00212,0.7370869999999999,0.019087,-0.010740999999999999,-0.004818,-0.005488,-0.00946,0.00156
170,2.399408,-0.002412,-2.551075,0.675883,0.002412,0.736975,0.018883,-0.01068,-0.003967,-0.0026190000000000002,-0.007234,-0.001165
171,2.399161,-0.0026420000000000003,-2.551383,0.676064,0.0026420000000000003,0.736807,0.024155000000000003,-0.014998,0.00569,0.00109,-0.008944,-0.00231
172,2.398818,-0.002857,-2.551952,0.6763170000000001,0.002857,0.736575,0.031550999999999996,-0.021454,0.015364,0.001738,-0.009784000000000001,-0.008685
173,2.3984799999999997,-0.003082,-2.552639,0.676565,0.003082,0.7363460000000001,0.034770999999999996,-0.017204,0.015381,0.003321,-0.009948,-0.006274
174,2.398252,-0.003326,-2.553243,0.676732,0.003326,0.736191,0.029488999999999998,-0.009712,0.011061,0.00587,-0.007278,-0.009873
175,2.398094,-0.003481,-2.553675,0.676848,0.003481,0.736084,0.016711,-0.006462999999999999,0.008832,0.007188,-0.0038770000000000002,-0.012481
176,2.398009,-0.003481,-2.553891,0.67691,0.003481,0.7360260000000001,0.005019,-1.7e-05,0.005536999999999999,0.005234,-0.008135,-0.004566
177,2.3980259999999998,-0.0034119999999999997,-2.554015,0.676898,0.0034119999999999997,0.736038,0.0018280000000000002,0.002124,0.0055119999999999995,-0.000629,-0.00982,-0.0055850000000000006
178,2.3980360000000003,-0.003325,-2.554105,0.676891,0.003325,0.736045,-0.00046699999999999997,0.002195,0.004128,-0.001491,-0.010879,-0.003776
179,2.398044,-0.003246,-2.554129,0.6768850000000001,0.003246,0.736051,-0.002587,0.002215,0.000908,-0.001852,-0.013026,0.00162
180,2.398044,-0.0032119999999999996,-2.5540990000000003,0.6768850000000001,0.0032119999999999996,0.736051,-0.001515,0.001155,-0.001219,-0.002111,-0.012886000000000002,4.8e-05
181,2.3980099999999998,-0.003201,-2.554067,0.67691,0.003201,0.736028,0.0006230000000000001,9e-05,-0.003339,-0.0065,-0.012508,0.0028640000000000002
182,2.397991,-0.00322,-2.55404,0.676925,0.00322,0.736015,0.002752,-0.002043,-0.00439,-0.00302,-0.013215000000000001,-0.000434
183,2.397946,-0.003293,-2.5540540000000003,0.676958,0.003293,0.735984,0.004867,-0.00419,-0.002236,-0.0029920000000000003,-0.01196,-0.002159
184,2.397929,-0.0032920000000000002,-2.554043,0.67697,0.0032920000000000002,0.735973,0.0016760000000000002,-0.002048,-0.002261,0.000795,-0.012523999999999999,-0.0032909999999999997
185,2.397932,-0.003324,-2.554039,0.676968,0.003324,0.735974,0.002752,7.900000000000001e-05,-0.0022559999999999998,0.002384,-0.011625,-0.003979
186,2.398014,-0.003317,-2.55409,0.6769069999999999,0.003317,0.7360300000000001,0.004751,0.004299,-0.001428,0.002079,-0.008901000000000001,-0.007896
187,2.398127,-0.003339,-2.554134,0.676824,0.003339,0.736107,0.0026219999999999998,0.0064329999999999995,-0.000377,0.003107,-0.006651000000000001,-0.006996
188,2.398271,-0.0033380000000000003,-2.5541270000000003,0.676718,0.0033380000000000003,0.736205,0.000512,0.009645,-0.002532,0.004129,-0.007351000000000001,-0.004347
189,2.398414,-0.0033079999999999997,-2.554086,0.676613,0.0033079999999999997,0.736301,-0.00164,0.007513,-0.000408,0.002525,-0.00813,-0.001957
190,2.3985380000000003,-0.003252,-2.554024,0.6765220000000001,0.003252,0.7363850000000001,-0.003774,0.007520999999999999,-0.00042300000000000004,0.001151,-0.008806,-0.002438
191,2.398625,-0.0031780000000000003,-2.5539099999999997,0.676459,0.0031780000000000003,0.736444,-0.006975,0.00541,-0.002579,0.001749,-0.009358,-0.004297
192,2.398699,-0.003084,-2.553771,0.676404,0.003084,0.736495,-0.005908,0.005406,-0.002572,-0.00048600000000000005,-0.011278,-0.003097
193,2.398789,-0.0029850000000000002,-2.5535930000000002,0.676338,0.0029850000000000002,0.736556,-0.008037,0.005418,-0.003655,-0.001853,-0.010172,-0.001235
194,2.39887,-0.002926,-2.553466,0.6762779999999999,0.002926,0.736611,-0.0038350000000000003,0.0041670000000000006,-0.002721,-0.0037619999999999997,-0.012142,-0.001443
195,2.398936,-0.002852,-2.5533509999999997,0.67623,0.002852,0.7366560000000001,-0.0038399999999999997,0.003102,-0.0027199999999999998,-0.003654,-0.012159999999999999,-0.001838
196,2.398995,-0.00281,-2.553285,0.676186,0.00281,0.736696,-0.0017109999999999998,0.00309,-0.001637,-0.004037,-0.013201,-0.0038469999999999997
197,2.399052,-0.002817,-2.5533200000000003,0.676145,0.002817,0.736735,0.004676,0.001994,0.000545,-0.0021030000000000003,-0.013453,-0.00297
198,2.399075,-0.0028870000000000002,-2.553397,0.676128,0.0028870000000000002,0.73675,0.005738,-0.000136,-0.000513,-0.0019329999999999998,-0.013294,-0.0035189999999999996
199,2.3990970000000003,-0.002925,-2.5535229999999998,0.6761119999999999,0.002925,0.7367640000000001,0.008934000000000001,0.000909,0.001645,-0.0016879999999999998,-0.012187,-0.005273
200,2.399171,-0.0029980000000000002,-2.55368,0.676057,0.0029980000000000002,0.7368140000000001,0.008948000000000001,0.004105,0.001641,-0.001848,-0.010459999999999999,-0.005232
201,2.399265,-0.003037,-2.553833,0.675987,0.003037,0.7368779999999999,0.007876000000000001,0.005166,0.003768,-0.000359,-0.009339,-0.006074
202,2.399338,-0.003042,-2.553938,0.675934,0.003042,0.736927,0.004564,0.002935,0.002681,0.0026850000000000003,-0.007375,-0.004444
203,2.3994,-0.003055,-2.554051,0.675888,0.003055,0.73697,0.005626,0.001866,0.0026899999999999997,0.0041659999999999996,-0.008075,-0.005082
204,2.399428,-0.003038,-2.554178,0.675867,0.003038,0.736988,0.006698000000000001,0.002928,0.002696,0.0012259999999999999,-0.008531,-0.001484
205,2.39946,-0.003104,-2.554284,0.6758430000000001,0.003104,0.73701,0.007774,0.001871,-0.0005,0.001296,-0.005637,-0.0031079999999999997
206,2.3994880000000003,-0.003177,-2.554345,0.675823,0.003177,0.737028,0.003507,0.0018859999999999999,-0.00053,0.0007059999999999999,-0.007648,-0.003614
207,2.399496,-0.003184,-2.554352,0.675817,0.003184,0.737034,0.00031099999999999997,0.001902,-0.00162,-0.0020350000000000004,-0.01031,-0.005909
208,2.399554,-0.003153,-2.5543259999999997,0.675775,0.003153,0.737073,-0.001823,0.00297,-0.0005679999999999999,-0.0033200000000000005,-0.012323,-0.005674
209,2.399542,-0.003139,-2.554303,0.675784,0.003139,0.737065,0.000297,-0.001294,-0.001616,-0.003588,-0.012539,-0.002705
210,2.399521,-0.0031320000000000002,-2.55429,0.6757989999999999,0.0031320000000000002,0.737052,0.001111,-0.000226,-0.000602,-0.003939,-0.012943999999999999,-0.00112
211,2.39951,-0.003134,-2.5543099999999996,0.6758069999999999,0.003134,0.7370439999999999,0.00325,0.000831,-0.000589,-0.0029100000000000003,-0.012274,-0.002745
212,2.399497,-0.003167,-2.554348,0.675817,0.003167,0.737035,0.004307,-0.001303,-0.000579,-0.002248,-0.0131,-0.002278
213,2.399469,-0.0032549999999999996,-2.554404,0.675837,0.0032549999999999996,0.737015,0.006445,-0.002367,-0.002699,2e-05,-0.011739,-0.004288
214,2.399452,-0.003293,-2.554456,0.675849,0.003293,0.737005,0.004307,-0.002364,-0.0016460000000000001,-0.001533,-0.010617,-0.005926
215,2.399426,-0.003343,-2.554513,0.6758689999999999,0.003343,0.736987,0.004302,-0.002368,-0.0005769999999999999,0.00156,-0.009156999999999998,-0.005557
216,2.3994169999999997,-0.0033520000000000004,-2.5545970000000002,0.675876,0.0033520000000000004,0.736981,0.004297,-0.00025,0.002625,0.002576,-0.009226999999999999,-0.004971
217,2.3994150000000003,-0.003327,-2.554657,0.6758770000000001,0.003327,0.73698,0.001106,0.0008300000000000001,0.001533,0.002681,-0.0061189999999999994,-0.004085
218,2.399432,-0.0033159999999999995,-2.5546990000000003,0.6758649999999999,0.0033159999999999995,0.736991,0.003061,0.001889,0.00044800000000000005,0.0019309999999999998,-0.007206999999999999,-0.004874
219,2.399458,-0.003278,-2.554704,0.6758460000000001,0.003278,0.737009,-0.001212,0.0019,0.001486,0.001354,-0.007749,-0.0038090000000000003
220,2.399516,-0.003206,-2.554668,0.6758029999999999,0.003206,0.737049,-0.004393,0.00405,-0.000675,0.002114,-0.008440000000000001,-0.0042
221,2.399586,-0.003116,-2.554611,0.675752,0.003116,0.737096,-0.004393,0.00405,-0.000675,0.001021,-0.009434,-0.0035600000000000002
222,2.399614,-0.0030280000000000003,-2.554538,0.6757310000000001,0.0030280000000000003,0.737115,-0.005469,0.002984,0.00038700000000000003,-0.000133,-0.010261,-0.002709
223,2.399702,-0.002919,-2.554463,0.675667,0.002919,0.737175,-0.006517,0.006188,-0.0006929999999999999,0.000389,-0.011418000000000001,-0.003319
224,2.399768,-0.002803,-2.554376,0.675618,0.002803,0.73722,-0.0054600000000000004,0.004054,-0.000683,0.00022400000000000002,-0.012843,-0.002799
225,2.399844,-0.002721,-2.5543259999999997,0.675563,0.002721,0.737271,-0.003326,0.005107,0.000399,-0.003611,-0.012151,-0.00131
226,2.3999349999999997,-0.0026379999999999997,-2.55429,0.675496,0.0026379999999999997,0.737333,-0.0023510000000000002,0.005054,-0.00066,-0.002293,-0.013243000000000001,-0.0034159999999999998
227,2.400023,-0.002587,-2.5542290000000003,0.675431,0.002587,0.7373930000000001,-0.002341,0.005062,-0.002796,-0.000779,-0.011925,-0.0026969999999999997
228,2.4001080000000004,-0.002571,-2.5541669999999996,0.6753680000000001,0.002571,0.73745,-0.002341,0.005062,-0.002796,-9.1e-05,-0.01165,-0.002724
229,2.40016,-0.002601,-2.554128,0.675329,0.002601,0.7374850000000001,0.004051,0.001849,-0.0038159999999999995,0.00034500000000000004,-0.009346,-0.0031100000000000004
230,2.40017,-0.002716,-2.554179,0.675322,0.002716,0.737491,0.008298999999999999,-0.000305,-0.0016469999999999998,0.001786,-0.00856,-0.001819
231,2.400143,-0.002801,-2.554297,0.675342,0.002801,0.737474,0.009347,-0.002448,0.0005,0.002774,-0.006723000000000001,-0.002778
232,2.400096,-0.0028280000000000002,-2.554449,0.675377,0.0028280000000000002,0.737442,0.006136,-0.001385,0.0036810000000000002,-0.000405,-0.0057280000000000005,-0.004806
233,2.400088,-0.002787,-2.554596,0.675383,0.002787,0.737437,0.002921,-0.000325,0.00793,-0.0016460000000000001,-0.007396,-0.004267
234,2.4000340000000002,-0.0026550000000000002,-2.554757,0.675423,0.0026550000000000002,0.737401,0.000672,-0.002525,0.010055,0.0008619999999999999,-0.005843999999999999,-0.003713
235,2.399944,-0.002496,-2.554926,0.6754899999999999,0.002496,0.73734,0.00172,-0.005729,0.011134999999999999,0.0047469999999999995,-0.0077599999999999995,-0.0018969999999999998
236,2.399742,-0.00238,-2.555241,0.675639,0.00238,0.7372029999999999,0.00914,-0.011103,0.016535,0.001149,-0.008591,-0.002325
237,2.3995490000000004,-0.0022660000000000002,-2.555653,0.6757810000000001,0.0022660000000000002,0.737073,0.01235,-0.007922,0.017621,-0.004974,-0.011284,0.0016510000000000001
238,2.3993889999999998,-0.002191,-2.556091,0.675899,0.002191,0.736965,0.012355,-0.006856999999999999,0.01762,-0.000148,-0.011148,-0.006069
239,2.39928,-0.002017,-2.556428,0.675979,0.002017,0.736892,0.0017050000000000001,-0.002559,0.01754,-0.0030210000000000002,-0.012010999999999999,-0.007079
240,2.399279,-0.0017670000000000001,-2.556679,0.675981,0.0017670000000000001,0.736891,0.000653,0.000641,0.017528,-0.004762,-0.011838,-0.004393
241,2.399305,-0.0015300000000000001,-2.5569759999999997,0.675962,0.0015300000000000001,0.7369100000000001,0.003858,0.000634,0.016483,-0.00131,-0.010945,-0.0032670000000000004
242,2.39934,-0.001317,-2.5572630000000003,0.675937,0.001317,0.736933,0.002706,0.002706,0.015404,0.0008820000000000001,-0.010808,-0.004542
243,2.399362,-0.001056,-2.557472,0.675921,0.001056,0.7369479999999999,-0.0036950000000000004,0.001667,0.014292,0.005674,-0.010745000000000001,-0.00297
244,2.399342,-0.000771,-2.5576220000000003,0.675936,0.000771,0.736935,-0.004782,-0.00259,0.01429,0.003386,-0.009406999999999999,-0.0031100000000000004
245,2.399257,-0.00054,-2.557769,0.675998,0.00054,0.7368779999999999,0.0016239999999999998,-0.00473,0.011133,-0.001743,-0.008856000000000001,-0.005219
246,2.399115,-0.00042300000000000004,-2.5580060000000002,0.676103,0.00042300000000000004,0.7367819999999999,0.005878,-0.00688,0.012232999999999999,-0.000795,-0.00967,-0.002483
247,2.398943,-0.00033,-2.558265,0.67623,0.00033,0.7366659999999999,0.006940000000000001,-0.007949,0.012242,0.001916,-0.009287,-0.004946
248,2.398757,-0.000267,-2.558493,0.676367,0.000267,0.73654,0.005887,-0.008993000000000001,0.007963,0.0037630000000000003,-0.010842000000000001,-0.003919
249,2.398586,-0.000218,-2.558653,0.676492,0.000218,0.736424,0.002691,-0.008978,0.006873000000000001,0.000388,-0.010456,-0.005101
250,2.398386,-0.000148,-2.5588040000000003,0.6766399999999999,0.000148,0.7362890000000001,0.004723,-0.010095999999999999,0.006893000000000001,7.2e-05,-0.008586,-0.001761
251,2.39819,-8.7e-05,-2.558996,0.6767850000000001,8.7e-05,0.736156,0.006847,-0.009051,0.010111,-0.0028350000000000003,-0.009395,-0.002361
252,2.3980069999999998,-2.8999999999999997e-05,-2.5592610000000002,0.6769189999999999,2.8999999999999997e-05,0.7360329999999999,0.008981,-0.006936,0.01226,-0.0033049999999999998,-0.010268000000000001,-0.000651
253,2.397843,2e-06,-2.559592,0.67704,-2e-06,0.7359220000000001,0.013244,-0.006956,0.013358000000000002,-0.000725,-0.010129,-0.002096
254,2.397704,2e-05,-2.559964,0.677142,-2e-05,0.7358279999999999,0.013244,-0.006956,0.013358000000000002,-0.000217,-0.009868,-0.002872
255,2.39759,4.2e-05,-2.560326,0.677226,-4.2e-05,0.735751,0.012177,-0.0058909999999999995,0.014417,0.000798,-0.008976000000000001,-0.004839
256,2.397516,7.7e-05,-2.5606419999999996,0.677281,-7.7e-05,0.7357,0.010072,-0.002675,0.011193999999999999,0.00085,-0.010009,-0.003385
257,2.397553,0.00011999999999999999,-2.56089,0.677254,-0.00011999999999999999,0.735726,0.005847,0.003744,0.007951999999999999,0.001213,-0.008303,-0.006813
258,2.3976580000000003,0.000188,-2.5609889999999997,0.677177,-0.000188,0.735797,-0.0005200000000000001,0.005919,0.0025629999999999997,0.0007559999999999999,-0.010112000000000001,-0.006778
259,2.3978099999999998,0.000254,-2.560921,0.6770649999999999,-0.000254,0.7359,-0.005843999999999999,0.009089,-0.003882,0.000258,-0.010351,-0.006973
260,2.39803,0.00027,-2.560753,0.676904,-0.00027,0.736049,-0.005811,0.012302,-0.008159,0.0025399999999999997,-0.010701,-0.005367
261,2.398275,0.000229,-2.560527,0.676723,-0.000229,0.736215,-0.003653,0.013375999999999999,-0.012418,0.000462,-0.010513,-0.0037939999999999996
262,2.398501,0.000133,-2.560275,0.676557,-0.000133,0.736368,-0.002591,0.011245999999999999,-0.013475999999999998,0.001299,-0.00945,-0.004679
263,2.398654,1.7e-05,-2.560064,0.6764439999999999,-1.7e-05,0.736472,-0.0015429999999999999,0.009104000000000001,-0.01133,-0.000571,-0.009932,-0.005286
264,2.398807,-8.4e-05,-2.559914,0.6763319999999999,8.4e-05,0.736575,-0.000491,0.008026,-0.009184999999999999,-0.0035409999999999994,-0.009529000000000001,-0.00365
265,2.398942,-0.000181,-2.559817,0.676233,0.000181,0.736667,0.0016190000000000002,0.005875,-0.005963,-0.004724,-0.006406,-0.0009339999999999999
266,2.398946,-0.000275,-2.559813,0.676229,0.000275,0.7366689999999999,0.005795000000000001,-0.00059,-0.0038079999999999998,-0.000753,-0.009995,-0.0006309999999999999
267,2.398933,-0.000411,-2.5598919999999996,0.676238,0.000411,0.736661,0.007918999999999999,-0.000606,-0.001656,0.000977,-0.010648999999999999,-0.0018440000000000002
268,2.398919,-0.000563,-2.560015,0.676249,0.000563,0.7366520000000001,0.011125,0.000449,-0.0016350000000000002,-0.001185,-0.010832,-0.003009
269,2.398967,-0.0007639999999999999,-2.560125,0.676214,0.0007639999999999999,0.736684,0.012216,0.002588,-0.004835,-0.002493,-0.010163,-0.0016989999999999998
270,2.399025,-0.000977,-2.560197,0.676171,0.000977,0.7367229999999999,0.010081999999999999,0.001535,-0.005917,0.0029059999999999997,-0.008515,-0.00688
271,2.399029,-0.001126,-2.560251,0.676168,0.001126,0.736726,0.007929,-0.000597,-0.003793,0.004146,-0.008161,-0.007248999999999999
272,2.3990299999999998,-0.001209,-2.560319,0.676167,0.001209,0.736726,0.007929,0.00046399999999999995,-0.002726,0.002712,-0.009495,-0.006379
273,2.399013,-0.001269,-2.560407,0.676179,0.001269,0.736714,0.005776,-0.000607,0.000465,0.001418,-0.0073420000000000004,-0.006047
274,2.398965,-0.0012980000000000001,-2.560496,0.676214,0.0012980000000000001,0.736681,0.003557,0.000463,0.0024129999999999998,0.0031829999999999996,-0.008501,-0.004626
275,2.398915,-0.00132,-2.560559,0.676251,0.00132,0.736648,0.00249,-0.000594,0.0013390000000000001,-0.000195,-0.010795,-0.0017850000000000001
276,2.3989,-0.001343,-2.560611,0.676262,0.001343,0.736637,0.0035619999999999996,0.00046699999999999997,0.0013449999999999998,-3.8e-05,-0.010071,-0.001805
277,2.398924,-0.0013830000000000001,-2.56066,0.676244,0.0013830000000000001,0.736653,0.0035810000000000004,0.001546,-0.001861,-0.001165,-0.010707,-0.0038350000000000003
278,2.3989380000000002,-0.001449,-2.560676,0.676234,0.001449,0.736663,0.004647999999999999,0.000481,-0.002921,-0.000956,-0.01155,-0.002242
279,2.398931,-0.001538,-2.560677,0.676239,0.001538,0.736658,0.0035810000000000004,0.00048499999999999997,-0.002928,0.00209,-0.012616,-0.005853
280,2.398898,-0.0016120000000000002,-2.560693,0.6762630000000001,0.0016120000000000002,0.736636,0.0046429999999999996,-0.000584,-0.002919,0.001975,-0.011683,-0.004718
281,2.398904,-0.0017010000000000003,-2.560686,0.676259,0.0017010000000000003,0.736639,0.004657,0.000489,-0.005057,-0.001713,-0.010123,-0.005056000000000001
282,2.3989279999999997,-0.0018100000000000002,-2.560668,0.676241,0.0018100000000000002,0.7366560000000001,0.004582,0.001621,-0.006369,-0.001436,-0.008372,-0.003165
283,2.398921,-0.0019309999999999998,-2.560651,0.676246,0.0019309999999999998,0.7366510000000001,0.006706,0.000544,-0.005285,-0.000312,-0.007897,-0.0036340000000000005
284,2.398922,-0.002039,-2.5606430000000002,0.676245,0.002039,0.7366520000000001,0.004563,-0.000518,-0.004229999999999999,0.001398,-0.008859,-0.002811
285,2.398932,-0.002094,-2.560621,0.676238,0.002094,0.736658,0.001372,0.0016239999999999998,-0.004255,0.0016190000000000002,-0.009479000000000001,-0.001322
286,2.39894,-0.002163,-2.5605990000000003,0.6762319999999999,0.002163,0.736664,0.002434,0.0005549999999999999,-0.004246,0.0009689999999999999,-0.009701000000000001,-0.002548
287,2.3989540000000003,-0.002222,-2.560551,0.676221,0.002222,0.7366729999999999,0.000305,0.001627,-0.004263,0.001376,-0.009179999999999999,-0.0041140000000000005
288,2.3989990000000003,-0.002259,-2.560447,0.676188,0.002259,0.736703,-0.002876,0.002716,-0.007490999999999999,-0.000392,-0.009156000000000001,-0.0033200000000000005
289,2.39908,-0.002259,-2.56028,0.676129,0.002259,0.736758,-0.006072,0.004854,-0.006448000000000001,0.00038500000000000003,-0.010438,-0.004077
290,2.399182,-0.002239,-2.5601220000000002,0.676053,0.002239,0.736827,-0.004076,0.004922999999999999,-0.005619,-0.000608,-0.011364,-0.003353
291,2.399277,-0.002254,-2.560021,0.675983,0.002254,0.736891,0.000177,0.003834,-0.003452,0.000271,-0.009579,-0.0039049999999999996
292,2.3993580000000003,-0.0022949999999999997,-2.559946,0.6759229999999999,0.0022949999999999997,0.736946,0.000182,0.0038380000000000003,-0.004520000000000001,-0.0009960000000000001,-0.010764,-0.004601
293,2.399421,-0.00235,-2.5599119999999997,0.675876,0.00235,0.736988,0.002306,0.003822,-0.002369,0.001431,-0.010742,-0.006458
294,2.399451,-0.002378,-2.5598919999999996,0.675854,0.002378,0.737008,0.003368,0.0027530000000000002,-0.00236,0.000293,-0.009885,-0.004372999999999999
295,2.399491,-0.002436,-2.559914,0.675825,0.002436,0.7370359999999999,0.004425,0.00168,-0.001283,0.000109,-0.010554000000000001,-0.00321
296,2.399507,-0.002503,-2.559947,0.675813,0.002503,0.737047,0.005482,-0.000454,-0.001273,-0.0008410000000000001,-0.010742,-0.004793
297,2.399464,-0.002572,-2.560003,0.675845,0.002572,0.7370180000000001,0.006534999999999999,-0.002593,-0.000194,-0.00133,-0.009316,-0.00133
298,2.399426,-0.0026190000000000002,-2.560093,0.675874,0.0026190000000000002,0.736992,0.005370000000000001,-0.001557,0.00183,-0.00345,-0.010324,-0.005562
299,2.399372,-0.0026149999999999997,-2.560216,0.675914,0.0026149999999999997,0.736955,0.004279,-0.003696,0.00503,-0.0024519999999999998,-0.008870999999999999,-0.003908
300,2.399252,-0.002569,-2.5603290000000003,0.676002,0.002569,0.736874,0.003198,-0.006887999999999999,0.005026,0.001137,-0.009146,-0.0027890000000000002
301,2.399079,-0.002562,-2.56048,0.67613,0.002562,0.736758,0.0053219999999999995,-0.007965,0.006111,0.002306,-0.010359,-0.002673
302,2.398967,-0.002562,-2.560652,0.676212,0.002562,0.736682,0.008556,-0.0026420000000000003,0.00399,0.003476,-0.011045999999999999,-0.001605
303,2.398931,-0.002635,-2.560811,0.676238,0.002635,0.736658,0.008575,-0.000502,0.0018510000000000002,0.0007639999999999999,-0.011104000000000001,-0.001489
304,2.398934,-0.002718,-2.5609189999999997,0.676236,0.002718,0.7366590000000001,0.006456,-0.000482,-0.001369,0.0016350000000000002,-0.009585,-0.0077469999999999995
305,2.398911,-0.002774,-2.560957,0.676253,0.002774,0.736644,0.0032549999999999996,-0.000471,-0.001391,0.000124,-0.011059999999999999,-0.003856
306,2.3989439999999997,-0.002809,-2.56097,0.6762279999999999,0.002809,0.7366659999999999,0.001131,0.001667,-0.0014089999999999999,0.00043799999999999997,-0.011873,-0.004366
307,2.398986,-0.0027760000000000003,-2.560952,0.676198,0.0027760000000000003,0.736694,-8.1e-05,0.002702,-0.000384,-0.0016829999999999998,-0.012419,-0.00351
308,2.3990650000000002,-0.0027429999999999998,-2.560897,0.67614,0.0027429999999999998,0.736748,-0.0032619999999999997,0.005913,-0.0014789999999999998,0.001137,-0.012081,-0.003106
309,2.399178,-0.002728,-2.560803,0.676057,0.002728,0.736825,-0.0021809999999999998,0.005922,-0.004676,0.001327,-0.01196,-0.00216
310,2.3992720000000003,-0.002734,-2.560686,0.675988,0.002734,0.736888,-0.003243,0.004869,-0.006818,-0.001656,-0.011828,-0.004802000000000001
311,2.399398,-0.002715,-2.560562,0.675894,0.002715,0.736974,-0.003243,0.006991,-0.004685,-0.000144,-0.010222,-0.002355
312,2.3995330000000004,-0.002669,-2.5604270000000002,0.675795,0.002669,0.737065,-0.005377000000000001,0.006998999999999999,-0.004699,-0.000166,-0.008086,-0.003163
313,2.399625,-0.002623,-2.560334,0.6757270000000001,0.002623,0.7371270000000001,-0.0032619999999999997,0.004852,-0.002545,0.000146,-0.007948,-0.003026
314,2.399679,-0.00257,-2.560309,0.675687,0.00257,0.737163,-0.001301,0.002682,0.000678,0.000659,-0.010855,-0.0036119999999999998
315,2.399723,-0.002506,-2.560343,0.675655,0.002506,0.737193,-0.000248,0.001605,0.002823,0.000858,-0.008762,-0.004207
316,2.399716,-0.002451,-2.560377,0.67566,0.002451,0.737189,-0.000248,-0.000517,0.0006889999999999999,0.001342,-0.010537999999999999,-0.002722
317,2.399681,-0.002405,-2.560392,0.675686,0.002405,0.737166,-0.000263,-0.002652,0.00176,-0.000408,-0.008997,-0.003706
318,2.3996020000000002,-0.0023899999999999998,-2.560466,0.6757449999999999,0.0023899999999999998,0.737112,0.003995,-0.002675,0.003926,-0.001352,-0.009226,-0.002721
319,2.399452,-0.002368,-2.560619,0.675855,0.002368,0.73701,0.0061,-0.008013,0.005016,-0.001325,-0.011188,-0.004695
320,2.399184,-0.002407,-2.560823,0.6760520000000001,0.002407,0.736829,0.009267000000000001,-0.015482,0.0050479999999999995,0.000797,-0.010922,-0.002317
321,2.39883,-0.0025510000000000003,-2.561086,0.676313,0.0025510000000000003,0.73659,0.019926,-0.01871,0.004058,-0.0010199999999999999,-0.009524,-0.003222
322,2.398331,-0.0028280000000000002,-2.561557,0.6766800000000001,0.0028280000000000002,0.736252,0.030435000000000004,-0.026255,0.007409000000000001,0.000429,-0.008579999999999999,-0.001678
323,2.397725,-0.00325,-2.562271,0.677125,0.00325,0.7358399999999999,0.045318000000000004,-0.03272,0.012863,-0.0005200000000000001,-0.009734999999999999,-0.001847
324,2.39703,-0.003747,-2.563222,0.677636,0.003747,0.735368,0.054886000000000004,-0.034906,0.018272999999999998,-0.000924,-0.012109,-0.005906000000000001
325,2.396332,-0.004222,-2.5642560000000003,0.678147,0.004222,0.7348939999999999,0.052738,-0.034911000000000005,0.021463,-0.002107,-0.014613,-0.009857
326,2.395655,-0.004567,-2.56511,0.6786439999999999,0.004567,0.734433,0.036774,-0.031638,0.016006,0.0014550000000000001,-0.013555000000000001,-0.005994
327,2.3950970000000003,-0.004782,-2.565643,0.679053,0.004782,0.734054,0.021894999999999998,-0.02623,0.008418,0.004372999999999999,-0.013281,-0.006393
328,2.39468,-0.004952000000000001,-2.565921,0.679359,0.004952000000000001,0.73377,0.013423,-0.019778,0.0008730000000000001,0.002343,-0.011970999999999999,-0.002554
329,2.394328,-0.005156,-2.566152,0.679616,0.005156,0.73353,0.018775999999999998,-0.016597,-0.000162,-0.0007830000000000001,-0.010711,-0.001322
330,2.394003,-0.005403,-2.566484,0.6798529999999999,0.005403,0.733309,0.021879,-0.013465000000000001,0.003133,-0.002729,-0.010041,-0.0016190000000000002
331,2.393751,-0.00566,-2.566891,0.680037,0.00566,0.733137,0.024008,-0.012416,0.0052829999999999995,-0.00215,-0.010726000000000001,-0.004072
332,2.393554,-0.005847,-2.567237,0.680181,0.005847,0.733002,0.014435,-0.008112999999999999,0.003074,0.00175,-0.011478,-0.0065769999999999995
333,2.393461,-0.005909,-2.56733,0.680249,0.005909,0.732938,0.0016809999999999998,-0.0027199999999999998,-0.002363,0.001498,-0.01093,-0.006803
334,2.3934509999999998,-0.0058850000000000005,-2.567252,0.6802560000000001,0.0058850000000000005,0.732931,-0.0036340000000000005,-0.000563,-0.004539,0.0009570000000000001,-0.006923,-0.0034240000000000004
335,2.3934130000000002,-0.005866,-2.56717,0.680285,0.005866,0.732905,0.000614,-0.0027170000000000002,-0.00237,0.0015539999999999998,-0.009497,-0.001674
336,2.393343,-0.005893,-2.567231,0.680337,0.005893,0.732858,0.004867,-0.002744,0.0008640000000000001,0.002982,-0.012256,-0.006357
337,2.393261,-0.00594,-2.567359,0.680397,0.00594,0.732803,0.006991,-0.0027600000000000003,0.003016,-0.000129,-0.01215,-0.003692
338,2.3932029999999997,-0.006014,-2.567482,0.680439,0.006014,0.7327640000000001,0.008068,-0.0027559999999999998,0.0008869999999999999,-0.000324,-0.01166,-0.00231
339,2.39315,-0.0061200000000000004,-2.567599,0.680477,0.0061200000000000004,0.732727,0.007951999999999999,-0.0027559999999999998,-0.000149,-0.000759,-0.009934,-0.004455
340,2.393097,-0.006187,-2.5676759999999996,0.680515,0.006187,0.73269,0.005828,-0.001679,-0.001234,-0.000309,-0.011984999999999999,-0.0047090000000000005
341,2.393063,-0.006231,-2.56773,0.6805399999999999,0.006231,0.732667,0.004761,-0.0016760000000000002,-0.001241,-0.002073,-0.013158000000000001,-0.00435
342,2.393039,-0.006318,-2.567761,0.680557,0.006318,0.73265,0.003704,-0.000602,-0.002318,-0.002014,-0.011308,-0.004149
343,2.3930029999999998,-0.006383,-2.567811,0.6805829999999999,0.006383,0.732625,0.005823,-0.001684,-0.000165,-0.00022400000000000002,-0.012608,-0.004215999999999999
344,2.392946,-0.006421,-2.567888,0.680624,0.006421,0.732585,0.00688,-0.0038179999999999998,-0.000155,0.001855,-0.014325,-0.005306
345,2.392889,-0.006464,-2.567901,0.680666,0.006464,0.732546,0.0004980000000000001,-0.001656,-0.002339,0.001158,-0.011942,-0.006686
346,2.392865,-0.006503,-2.5678810000000003,0.680683,0.006502,0.73253,0.0026320000000000002,-0.0016640000000000001,-0.0023239999999999997,0.0016129999999999999,-0.011141,-0.004076
347,2.392821,-0.0065060000000000005,-2.567875,0.680716,0.0065060000000000005,0.7325,0.0014990000000000001,-0.002774,-0.002286,-0.0012720000000000001,-0.008245,-0.004549
348,2.3927400000000003,-0.0065060000000000005,-2.567871,0.680775,0.0065060000000000005,0.732445,0.000413,-0.003849,0.0009130000000000001,-0.001194,-0.005881,-0.007241
349,2.392668,-0.006456,-2.567879,0.680828,0.006456,0.732396,-0.001716,-0.001715,0.001963,0.002064,-0.007737999999999999,-0.002003
350,2.392618,-0.006361,-2.567889,0.6808649999999999,0.006361,0.732363,-0.001716,-0.000654,0.00303,0.002241,-0.010618,-0.001955
351,2.3925959999999997,-0.006309,-2.5679540000000003,0.6808810000000001,0.006309,0.732348,0.00148,-0.00173,0.003054,0.00079,-0.011023999999999999,-0.00458
352,2.392585,-0.006268999999999999,-2.568031,0.6808890000000001,0.006268999999999999,0.732341,0.000413,-0.000666,0.004113,-0.001248,-0.010006999999999999,-0.0059770000000000005
353,2.392562,-0.006166,-2.568102,0.6809069999999999,0.006166,0.732325,0.000408,-0.00067,0.005182,0.000306,-0.00992,-0.000956
354,2.392532,-0.006122,-2.5682110000000002,0.680929,0.006122,0.732305,0.003464,-0.00062,0.005186,0.001551,-0.011309999999999999,-0.003622
355,2.392527,-0.006089,-2.568296,0.680933,0.006089,0.732302,0.00134,-0.000604,0.003034,0.001486,-0.009949,-0.003176
356,2.392514,-0.006036,-2.56834,0.6809430000000001,0.006036,0.7322930000000001,-0.000794,-0.000596,0.00302,0.000545,-0.010873,-0.001504
357,2.392513,-0.005986,-2.568335,0.680944,0.005986,0.7322930000000001,-0.00078,0.000478,0.0008820000000000001,-0.000997,-0.009709,-0.0033350000000000003
358,2.3925549999999998,-0.005914,-2.5682970000000003,0.680913,0.005914,0.732322,-0.0028940000000000003,0.002624,-0.0012720000000000001,-0.003469,-0.011406999999999999,-0.003242
359,2.392587,-0.005876,-2.568235,0.680891,0.005876,0.732344,-0.0028989999999999997,0.001559,-0.001271,-0.00044,-0.010927,-0.004912
360,2.392605,-0.005853,-2.5681990000000003,0.6808770000000001,0.005853,0.7323569999999999,-0.0007650000000000001,0.001551,-0.001256,0.000504,-0.011361,-0.004375
361,2.392626,-0.005823,-2.568162,0.680862,0.005823,0.732371,-0.001837,0.001551,-0.000195,0.000535,-0.009637999999999999,-0.00445
362,2.3926220000000002,-0.00579,-2.568149,0.680864,0.00579,0.732368,-0.001212,-0.00028399999999999996,0.0007639999999999999,0.000502,-0.010399,-0.003303
363,2.3926369999999997,-0.005738,-2.568174,0.680854,0.005738,0.732378,-0.001221,0.000768,0.003967,0.000589,-0.0068980000000000005,-0.0031
364,2.392604,-0.005622,-2.5682650000000002,0.680878,0.005622,0.732356,0.0008880000000000001,-0.001382,0.007189,0.000686,-0.008002,-0.003917
365,2.3925549999999998,-0.005490999999999999,-2.5683830000000003,0.6809149999999999,0.005490999999999999,0.732323,-0.000183,-0.002444,0.007183,-8.3e-05,-0.008145999999999999,-0.002205
366,2.392515,-0.005308,-2.568511,0.680945,0.005308,0.732297,-0.001265,-0.0024530000000000003,0.01038,-0.000281,-0.008237999999999999,-0.002698
367,2.392446,-0.005138,-2.568645,0.680996,0.005138,0.732251,-0.001269,-0.003518,0.010381999999999999,0.000339,-0.010112999999999999,-0.004986
368,2.392368,-0.00494,-2.568804,0.681054,0.004939,0.7321989999999999,-0.001284,-0.004592000000000001,0.01252,0.002707,-0.010417000000000001,-0.0007379999999999999
369,2.392267,-0.00473,-2.5689580000000003,0.681129,0.00473,0.7321310000000001,-0.001289,-0.005657,0.012521,-0.000785,-0.012436,-0.004531
370,2.39221,-0.004502,-2.5691650000000004,0.681171,0.004502,0.732092,-0.00059,-0.00114,0.014568000000000001,-0.0015140000000000002,-0.011552,-0.0008300000000000001
371,2.39216,-0.004308,-2.5694150000000002,0.681208,0.004308,0.732059,0.0025960000000000002,-0.004347,0.014594,-0.00043799999999999997,-0.012823,-0.003421
372,2.392034,-0.004138,-2.569659,0.681301,0.004138,0.731974,0.003658,-0.006476999999999999,0.013536000000000001,0.000721,-0.011279,-0.001795
373,2.391915,-0.004007,-2.569937,0.681389,0.004007,0.7318939999999999,0.005796,-0.005419,0.013549,0.003273,-0.011804,-0.005957
374,2.391816,-0.0039,-2.570286,0.681462,0.0039,0.731826,0.011131,-0.004376,0.014653999999999999,0.003505,-0.012261,-0.0037380000000000004
375,2.3917580000000003,-0.003841,-2.570681,0.681504,0.003841,0.731787,0.013279,-0.0022489999999999997,0.013597999999999999,0.001281,-0.010449,-0.005499
376,2.391715,-0.0038179999999999998,-2.571024,0.6815359999999999,0.0038179999999999998,0.731757,0.010088,-0.002229,0.011439,0.001661,-0.007784999999999999,-0.008369
377,2.3916310000000003,-0.00374,-2.571345,0.681597,0.00374,0.731701,0.007935,-0.004361,0.013563,-3.3e-05,-0.009569,-0.00555
378,2.391541,-0.003679,-2.571645,0.681664,0.003679,0.73164,0.008698000000000001,-0.005228,0.013519999999999999,-0.00016,-0.010927,-0.004543
379,2.3914779999999998,-0.003604,-2.571935,0.68171,0.003604,0.731597,0.0076549999999999995,-0.000959,0.012439,0.000618,-0.011462,-0.003692
380,2.3914419999999996,-0.003532,-2.572187,0.681737,0.003532,0.7315729999999999,0.005531,-0.0009429999999999999,0.010288,0.002254,-0.012627,-0.003927
381,2.391407,-0.0034409999999999996,-2.572349,0.681763,0.0034409999999999996,0.731549,0.002345,-0.000919,0.007061,0.000992,-0.012779,-0.0032619999999999997
382,2.39137,-0.0033729999999999997,-2.5724270000000002,0.68179,0.0033729999999999997,0.731525,0.0012929999999999999,-0.0009029999999999999,0.003849,0.000278,-0.011979,-0.0020629999999999997
383,2.391355,-0.003285,-2.5724650000000002,0.681801,0.003285,0.7315149999999999,-0.001898,0.000178,0.002757,-0.004265,-0.008931,-0.004235
384,2.391298,-0.003179,-2.572517,0.681843,0.003179,0.731476,0.00021600000000000002,-0.0019690000000000003,0.004911,-0.0035740000000000004,-0.007238,-0.0014349999999999999
385,2.391236,-0.003046,-2.572654,0.6818890000000001,0.003046,0.731434,0.001259,-0.001994,0.010259,0.000286,-0.0078060000000000004,-0.0045509999999999995
386,2.391145,-0.002918,-2.572839,0.681956,0.002918,0.731372,0.002311,-0.004132,0.011337,0.0018210000000000001,-0.009464,-0.003604
387,2.39106,-0.002764,-2.573045,0.682018,0.002764,0.731314,0.003169,-0.003994,0.012361,-0.000454,-0.007647,-0.003638
388,2.390952,-0.002617,-2.573281,0.6820970000000001,0.002617,0.731241,0.0031550000000000003,-0.006128,0.013432,0.0009939999999999999,-0.008735,-0.004419
389,2.39083,-0.002472,-2.573505,0.682187,0.002472,0.731157,0.003164,-0.005059,0.012362,0.000949,-0.008834999999999999,-0.0028710000000000003
390,2.39073,-0.002353,-2.573713,0.6822600000000001,0.002353,0.73109,0.003169,-0.005055,0.011294,0.002188,-0.011432,-0.0050609999999999995
391,2.390616,-0.002238,-2.573944,0.682343,0.002238,0.731012,0.004231,-0.005063000000000001,0.01237,0.001266,-0.010554000000000001,-0.005365
392,2.390501,-0.002153,-2.57417,0.682427,0.002153,0.730935,0.005308,-0.005058,0.010241,0.000648,-0.011583,-0.003304
393,2.3903830000000004,-0.002076,-2.5743650000000002,0.6825140000000001,0.002076,0.730853,0.004241,-0.005054,0.010232999999999999,-0.000492,-0.010697,-0.002902
394,2.3902930000000002,-0.0020350000000000004,-2.574525,0.68258,0.0020350000000000004,0.730793,0.004139,-0.003887,0.005914,0.001258,-0.011587,-0.0032229999999999997
395,2.390218,-0.002014,-2.574659,0.682635,0.002014,0.730741,0.005215999999999999,-0.002821,0.004852,-0.001101,-0.01036,-0.003476
396,2.390164,-0.002037,-2.574752,0.682674,0.002037,0.730704,0.005235,-0.001743,0.0016460000000000001,0.00014199999999999998,-0.011436,-0.0034240000000000004
397,2.390139,-0.002106,-2.574823,0.682692,0.002106,0.730687,0.005254,0.000396,-0.000493,0.000139,-0.011154,-0.005315
398,2.39012,-0.002209,-2.574864,0.682705,0.002209,0.7306729999999999,0.005259000000000001,-0.000661,-0.002629,0.00023199999999999997,-0.010724,-0.006201
399,2.390071,-0.002283,-2.574913,0.6827409999999999,0.002283,0.730639,0.006311,-0.001738,-0.00048300000000000003,-0.0016350000000000002,-0.010889,-0.00426
400,2.389997,-0.002405,-2.575002,0.6827949999999999,0.002405,0.730589,0.009502,-0.0038799999999999998,-0.000458,-0.003031,-0.008066,-0.004194
401,2.389912,-0.002512,-2.5751180000000002,0.6828569999999999,0.002512,0.730531,0.007373,-0.003868,-0.001541,-0.001003,-0.009348,-0.005754
402,2.389862,-0.0026100000000000003,-2.575191,0.6828930000000001,0.0026100000000000003,0.730496,0.006239,-0.001666,-0.000606,-0.000627,-0.009645,-0.005078
403,2.389872,-0.0026969999999999997,-2.5752330000000003,0.682886,0.0026969999999999997,0.730503,0.005201,0.002607,-0.002755,-0.0018559999999999998,-0.010022,-0.005771
404,2.389976,-0.00279,-2.575212,0.68281,0.00279,0.730574,0.002034,0.0068920000000000006,-0.005987,-0.004053,-0.010221,-0.004164
405,2.390125,-0.00286,-2.575096,0.682701,0.00286,0.730676,-0.002224,0.007977,-0.007087,0.001259,-0.010062,-0.004327
406,2.390277,-0.002914,-2.57492,0.6825899999999999,0.002914,0.730779,-0.003276,0.007993,-0.010298999999999999,0.006665000000000001,-0.011337,-0.003561
407,2.390404,-0.003013,-2.574765,0.682496,0.003013,0.730866,-0.001147,0.00692,-0.010283,0.002639,-0.010657999999999999,-0.006379
408,2.390526,-0.003143,-2.574625,0.682407,0.003143,0.730949,0.002053,0.006909,-0.01026,-0.000278,-0.008575,-0.002494
409,2.390675,-0.003361,-2.5745009999999997,0.682298,0.003361,0.73105,0.006345,0.009038,-0.013438,-0.001634,-0.008167,-0.0037549999999999997
410,2.390868,-0.0035979999999999996,-2.574336,0.682157,0.0035979999999999996,0.7311810000000001,0.00199,0.011278,-0.016904,0.002826,-0.010006000000000001,-0.005992
411,2.391079,-0.003775,-2.574077,0.682001,0.003775,0.731325,-0.004411,0.012362,-0.015882,0.002462,-0.010245,-0.007998
412,2.3912709999999997,-0.003927,-2.573817,0.68186,0.003927,0.731455,-0.000172,0.009138,-0.012643999999999999,0.0006349999999999999,-0.008306000000000001,-0.005717
413,2.3913889999999998,-0.004069,-2.573698,0.681774,0.004069,0.731535,0.004057,0.004845,-0.008336,0.001027,-0.008662000000000001,-0.003478
414,2.391457,-0.004202,-2.5736630000000003,0.681724,0.004202,0.731581,0.004038,0.002706,-0.006197,0.0008320000000000001,-0.011038,-0.003218
415,2.391492,-0.00427,-2.573651,0.6816979999999999,0.00427,0.7316050000000001,0.001889,0.0027010000000000003,-0.003007,-0.000133,-0.008435,-0.003944
416,2.391509,-0.004302,-2.573614,0.681685,0.004302,0.7316159999999999,-0.00024900000000000004,0.001643,-0.0030210000000000002,-0.000655,-0.008544,-0.002307
417,2.391522,-0.004336,-2.573589,0.6816760000000001,0.004336,0.731625,0.0018800000000000002,0.0016309999999999999,-0.0019379999999999998,-0.000325,-0.006396,-0.003094
418,2.39155,-0.004339,-2.573578,0.681655,0.004339,0.731644,0.000699,0.00065,-0.001125,0.000245,-0.007406,-0.0039369999999999995
419,2.391553,-0.004306,-2.5735759999999996,0.681653,0.004306,0.731646,-0.001449,-0.00041600000000000003,0.000998,0.001941,-0.009555,-0.007067
420,2.3915509999999998,-0.004253,-2.5735639999999997,0.681655,0.004253,0.731645,-0.001449,0.0006450000000000001,0.002065,0.002519,-0.010906,-0.006151
421,2.3915509999999998,-0.004182,-2.573552,0.681655,0.004182,0.731646,-0.002516,0.000648,0.0020570000000000002,0.000215,-0.009873,-0.00577
422,2.3915319999999998,-0.004143,-2.5735349999999997,0.68167,0.004143,0.731633,-0.001454,-0.002543,-6.8e-05,-0.0016920000000000001,-0.008278,-0.005085
423,2.3914869999999997,-0.0041140000000000005,-2.573537,0.681702,0.0041140000000000005,0.7316010000000001,-0.00038700000000000003,-0.001485,0.001007,0.0013570000000000001,-0.010645,-0.004642
424,2.391422,-0.004089,-2.573583,0.6817489999999999,0.004089,0.731557,0.002804,-0.002566,0.0020989999999999997,0.001097,-0.011687999999999999,-0.003332
425,2.391334,-0.004081,-2.57363,0.681814,0.004081,0.7314970000000001,0.002799,-0.003631,0.0021,0.002345,-0.01023,-0.004248
426,2.391257,-0.004076,-2.573696,0.68187,0.004076,0.731444,0.0016300000000000002,-0.00352,0.000759,-0.00021400000000000002,-0.010362999999999999,-0.004286
427,2.391172,-0.00406,-2.573729,0.681932,0.00406,0.731386,0.000558,-0.004581,0.000753,0.000258,-0.010576,-0.005785
428,2.39112,-0.004058,-2.573699,0.68197,0.004058,0.731351,-0.001547,-0.0013650000000000001,-0.002471,-0.000176,-0.012054,-0.004346
429,2.391085,-0.004065,-2.573652,0.681995,0.004065,0.7313270000000001,0.000592,-0.000307,-0.002457,-0.000599,-0.009634,-0.001545
430,2.391083,-0.004078,-2.573609,0.6819970000000001,0.004078,0.731326,-0.000465,-0.000295,-0.004601,0.0010630000000000001,-0.010105,-0.00519
431,2.391093,-0.004122,-2.573543,0.6819890000000001,0.004122,0.731333,-0.001527,0.0007740000000000001,-0.00461,0.0010550000000000002,-0.011248000000000001,-0.004267
432,2.391108,-0.0041670000000000006,-2.573454,0.681978,0.0041670000000000006,0.7313430000000001,0.000616,0.001836,-0.005664,0.0007610000000000001,-0.007508,-0.0043219999999999995
433,2.3911540000000002,-0.004228,-2.573384,0.681945,0.004228,0.731374,0.000621,0.0029010000000000004,-0.005666,0.0034490000000000002,-0.009904999999999999,-0.006536
434,2.3911830000000003,-0.004299,-2.5733189999999997,0.681924,0.004299,0.731394,0.0015429999999999999,0.000852,-0.004761,0.0027530000000000002,-0.009044,-0.006495
435,2.3912259999999996,-0.004335,-2.573226,0.681892,0.004335,0.7314229999999999,-0.00271,0.004063000000000001,-0.004795000000000001,0.002358,-0.007265000000000001,-0.00625
436,2.3912880000000003,-0.00436,-2.5731189999999997,0.681847,0.00436,0.7314649999999999,-0.001643,0.004059,-0.004788000000000001,0.002815,-0.00732,-0.005345
437,2.391337,-0.004368,-2.573034,0.681811,0.004368,0.731498,-0.0016530000000000002,0.004051,-0.002651,0.001325,-0.008427,-0.003929
438,2.391375,-0.004352,-2.572969,0.681783,0.004352,0.731524,-0.002734,0.0019199999999999998,-0.001588,0.00048300000000000003,-0.008105,-0.004
439,2.391405,-0.004313,-2.5729319999999998,0.681761,0.004313,0.731545,-0.001662,0.0040420000000000005,-0.000515,-0.00037999999999999997,-0.009318,-0.005318
440,2.391467,-0.004248,-2.572861,0.681716,0.004248,0.731587,-0.004863,0.0029920000000000003,-0.001604,0.000932,-0.006384,-0.005193
441,2.391518,-0.004175,-2.572749,0.681679,0.004175,0.731622,-0.005934,0.0019309999999999998,-0.00161,0.00161,-0.007959,-0.0035789999999999997
442,2.391511,-0.0041140000000000005,-2.572648,0.6816840000000001,0.0041140000000000005,0.731618,-0.004882,-0.00020800000000000001,-0.000532,0.001208,-0.008997,-0.004613
443,2.3915029999999997,-0.004052,-2.572606,0.68169,0.004052,0.731612,-0.000719,0.0008380000000000001,0.000549,-6.500000000000001e-05,-0.009729,-0.001876
444,2.3915349999999997,-0.004084,-2.572636,0.681666,0.004084,0.731634,0.004625,0.001889,-0.000484,-4.1e-05,-0.009761,-0.001898
445,2.391543,-0.004174000000000001,-2.572676,0.68166,0.004174000000000001,0.731639,0.004629,0.000833,-0.0026190000000000002,-1.9e-05,-0.010171,-0.005809
446,2.391506,-0.004229999999999999,-2.572705,0.681687,0.004229999999999999,0.731614,0.0035479999999999995,-0.0012980000000000001,-0.0015550000000000002,0.00022799999999999999,-0.009235,-0.006333
447,2.3914880000000003,-0.004288,-2.57272,0.6817,0.004288,0.7316010000000001,0.002491,-0.000225,-0.0026320000000000002,0.0010689999999999999,-0.00914,-0.004215
448,2.391483,-0.004333,-2.572739,0.681704,0.004333,0.731598,0.0024809999999999997,-0.001295,-0.0015630000000000002,0.0025,-0.010116,-0.006912000000000001
449,2.391469,-0.0043619999999999996,-2.572727,0.681715,0.0043619999999999996,0.731589,0.002486,-0.0012900000000000001,-0.0026309999999999997,0.001864,-0.01158,-0.008124
450,2.391432,-0.0044009999999999995,-2.572685,0.681742,0.0044009999999999995,0.731563,0.000367,-0.00020899999999999998,-0.004784,0.002646,-0.011329,-0.00494
451,2.3913919999999997,-0.00446,-2.57262,0.681771,0.00446,0.731536,0.00135,-0.000263,-0.004704,0.0018989999999999999,-0.009251,-0.003112
452,2.391379,-0.004507,-2.572582,0.6817810000000001,0.004507,0.731527,0.0013449999999999998,0.000793,-0.002569,0.002759,-0.007756999999999999,-0.002447
453,2.391387,-0.004546,-2.572509,0.681774,0.004546,0.731532,-0.000779,0.0008089999999999999,-0.00472,0.0025210000000000002,-0.0074140000000000005,-0.006786
454,2.391342,-0.004567,-2.572434,0.6818069999999999,0.004567,0.7315020000000001,-0.000799,-0.002391,-0.0036479999999999998,-1.4000000000000001e-05,-0.007115000000000001,-0.006252000000000001
455,2.391259,-0.004536999999999999,-2.572359,0.681868,0.004536999999999999,0.731446,-0.0018800000000000002,-0.003461,-0.001518,0.000566,-0.006384,-0.005311
456,2.391213,-0.0045049999999999995,-2.572324,0.681902,0.0045049999999999995,0.7314149999999999,-0.001875,-0.001335,-0.000452,0.002501,-0.009495,-0.0054009999999999996
457,2.391181,-0.004452,-2.572323,0.681926,0.004452,0.7313930000000001,-0.0018850000000000002,-0.001343,0.001684,0.00385,-0.009152,-0.004922999999999999
458,2.391131,-0.004388,-2.57231,0.681963,0.004388,0.73136,-0.002997,-0.001355,-0.00040899999999999997,0.002287,-0.008431999999999999,-0.005789
459,2.3911130000000003,-0.004344,-2.572263,0.681976,0.004344,0.7313470000000001,-0.0029920000000000003,-0.00028900000000000003,-0.000411,0.001084,-0.008693000000000001,-0.004358
460,2.391106,-0.004273,-2.572235,0.6819810000000001,0.004273,0.7313430000000001,-0.0029920000000000003,0.000772,0.000656,0.000987,-0.010284999999999999,-0.005451
461,2.391093,-0.004225,-2.5722,0.681991,0.004225,0.731334,-0.001925,-0.000293,-0.00040300000000000004,0.002381,-0.009306,-0.005534000000000001
462,2.3910810000000002,-0.004173,-2.572168,0.682,0.004173,0.731326,-0.001925,-0.000293,-0.00040300000000000004,0.002921,-0.009224,-0.002444
463,2.391086,-0.0041340000000000005,-2.572151,0.681996,0.0041340000000000005,0.731329,-0.0008539999999999999,0.000768,-0.000397,0.0009720000000000001,-0.008666,-0.0032869999999999996
464,2.391092,-0.004089,-2.572092,0.681992,0.004089,0.731333,-0.00405,0.000784,-0.0014880000000000002,-0.0007480000000000001,-0.009857,-0.005824
465,2.391127,-0.004027,-2.572031,0.681966,0.004027,0.731358,-0.00404,0.003975,-0.000424,0.000147,-0.007567,-0.005909
466,2.391167,-0.003975,-2.571958,0.681938,0.003975,0.7313850000000001,-0.004089,0.001832,-0.000352,-0.00047999999999999996,-0.008919,-0.006745
467,2.391195,-0.003942,-2.571911,0.681917,0.003942,0.7314039999999999,-0.0008880000000000001,0.00182,-0.00033,0.002699,-0.007634999999999999,-0.006429000000000001
468,2.3912150000000003,-0.003929,-2.571883,0.681902,0.003929,0.731418,-0.00196,-0.000302,-0.001403,0.002287,-0.008399,-0.005787
469,2.391234,-0.003892,-2.571869,0.6818890000000001,0.003892,0.731431,-0.000883,0.002886,-0.000331,0.002926,-0.008912999999999999,-0.005158
470,2.391276,-0.0038799999999999998,-2.571841,0.681858,0.0038799999999999998,0.73146,-0.0008789999999999999,0.0028899999999999998,-0.001399,0.002712,-0.008442,-0.00656
471,2.39131,-0.003872,-2.5718389999999998,0.681833,0.003872,0.731483,0.00125,0.002878,-0.00031600000000000004,0.002813,-0.008205,-0.004569
472,2.391347,-0.003846,-2.571829,0.681806,0.003846,0.731508,-0.000883,0.003947,0.000736,0.000567,-0.007829000000000001,-0.006762000000000001
473,2.39141,-0.003814,-2.571767,0.68176,0.003814,0.7315510000000001,-0.003008,0.003963,-0.001415,0.002002,-0.008131999999999999,-0.006499
474,2.391466,-0.003781,-2.5716900000000003,0.681719,0.003781,0.731589,-0.004070000000000001,0.003971,-0.002491,0.001294,-0.009137000000000001,-0.004294
475,2.391506,-0.003752,-2.571663,0.68169,0.003752,0.731617,0.000183,0.002846,-0.000246,0.0028350000000000003,-0.009367,-0.005771
476,2.391557,-0.003761,-2.571643,0.681653,0.003761,0.731651,-0.0008789999999999999,0.0028539999999999998,-0.001322,0.00278,-0.009895000000000001,-0.006065
477,2.391564,-0.003757,-2.571645,0.6816479999999999,0.003757,0.7316560000000001,0.000169,0.000711,0.000825,0.001076,-0.010974,-0.005673
478,2.391596,-0.0037159999999999997,-2.57163,0.681624,0.0037159999999999997,0.7316779999999999,-0.001946,0.003919,-0.000262,-0.000502,-0.009377,-0.004185
479,2.391648,-0.003694,-2.571587,0.6815859999999999,0.003694,0.7317140000000001,0.000183,0.0017850000000000001,-0.0013130000000000001,0.003229,-0.007265000000000001,-0.0042049999999999995
480,2.391651,-0.003672,-2.571568,0.681584,0.003672,0.731716,0.000169,-0.00035,-0.000242,0.003841,-0.008265,-0.005092
481,2.391628,-0.003653,-2.571567,0.681601,0.003653,0.7317,0.001245,0.0007160000000000001,-0.0013039999999999998,0.003915,-0.008870999999999999,-0.004817
482,2.391613,-0.003667,-2.5716099999999997,0.681612,0.003667,0.73169,0.00337,-0.000361,-0.00022,0.0012490000000000001,-0.009191,-0.002762
483,2.391628,-0.0037259999999999997,-2.571668,0.6816,0.0037259999999999997,0.7317,0.0055049999999999995,0.001737,-0.000134,0.00149,-0.006519,-0.0033979999999999995
484,2.391654,-0.003778,-2.571719,0.681582,0.003778,0.7317170000000001,0.002309,0.0017519999999999999,-0.001224,0.0026379999999999997,-0.007501000000000001,-0.009701999999999999
485,2.391686,-0.0037670000000000004,-2.571689,0.681558,0.0037670000000000004,0.731739,-0.000892,0.0017629999999999998,-0.001247,0.0006929999999999999,-0.009428,-0.007281999999999999
486,2.391743,-0.0037700000000000003,-2.5716650000000003,0.681516,0.0037700000000000003,0.7317779999999999,0.001261,0.004956,-0.002304,0.001361,-0.010392,-0.006864
487,2.3917919999999997,-0.003788,-2.571661,0.68148,0.003788,0.731811,0.00018,0.002825,-0.001241,0.0016710000000000002,-0.011082,-0.006377000000000001
488,2.391843,-0.003783,-2.571634,0.681443,0.003783,0.731846,-0.0019440000000000002,0.0039020000000000005,-0.002325,0.002395,-0.010695,-0.007037999999999999
489,2.39188,-0.003749,-2.571551,0.681415,0.003749,0.731871,-0.0030210000000000002,0.001775,-0.00233,0.0015220000000000001,-0.01025,-0.0064069999999999995
490,2.3919099999999998,-0.0037600000000000003,-2.571456,0.6813939999999999,0.0037600000000000003,0.731891,-0.0019440000000000002,0.0017800000000000001,-0.004459,0.002109,-0.009940000000000001,-0.004229999999999999
491,2.391959,-0.003766,-2.57138,0.681358,0.003766,0.731925,-0.0008710000000000001,0.002833,-0.0033130000000000004,0.0012900000000000001,-0.006742000000000001,-0.006065
492,2.392034,-0.003754,-2.571295,0.681303,0.003754,0.731977,-0.004067,0.003909,-0.0033369999999999997,0.0017109999999999998,-0.00705,-0.006772
493,2.392075,-0.0037070000000000002,-2.571191,0.6812729999999999,0.0037070000000000002,0.732004,-0.005148,0.001778,-0.002273,0.001192,-0.005507,-0.00648
494,2.392113,-0.0036420000000000003,-2.5711060000000003,0.681245,0.0036420000000000003,0.7320300000000001,-0.0051530000000000005,0.0028350000000000003,-0.000138,0.004286,-0.009319,-0.005178
495,2.392145,-0.00359,-2.5710669999999998,0.681222,0.00359,0.732053,-0.0030239999999999998,0.0017620000000000001,-0.000122,0.003379,-0.008808,-0.005353
496,2.392186,-0.003544,-2.571039,0.681193,0.003544,0.7320800000000001,-0.003019,0.0038880000000000004,0.0009429999999999999,0.000646,-0.007969,-0.006845
497,2.392242,-0.0034909999999999997,-2.570996,0.6811520000000001,0.0034909999999999997,0.732119,-0.003014,0.003892,-0.000125,0.0017100000000000001,-0.009715999999999999,-0.0057090000000000005
498,2.392276,-0.003442,-2.570938,0.681127,0.003442,0.732142,-0.003019,0.001766,-0.00119,0.002268,-0.009072,-0.005808
499,2.3922950000000003,-0.0033729999999999997,-2.570878,0.681113,0.0033729999999999997,0.732155,-0.004045,0.0028280000000000002,-0.001149,0.003472,-0.007476999999999999,-0.0038829999999999997
500,2.392292,-0.003355,-2.57085,0.6811159999999999,0.003355,0.7321529999999999,-0.0008640000000000001,-0.000383,-5.4000000000000005e-05,0.0023710000000000003,-0.009047,-0.004247
501,2.392311,-0.00331,-2.570827,0.6811010000000001,0.00331,0.732166,-0.004055,0.0017579999999999998,-7.900000000000001e-05,0.001516,-0.007842,-0.006672
502,2.3923400000000004,-0.003252,-2.57077,0.68108,0.003252,0.7321850000000001,-0.001916,0.001755,-0.001132,0.001674,-0.010286,-0.005455
503,2.3923799999999997,-0.003199,-2.5707169999999997,0.6810510000000001,0.003199,0.732213,-0.002983,0.001759,-0.00114,0.000269,-0.008219,-0.006931999999999999
504,2.392423,-0.003168,-2.570671,0.6810189999999999,0.003168,0.732243,-0.001906,0.002825,-0.002202,0.002742,-0.00921,-0.005161
505,2.392468,-0.003152,-2.570609,0.680987,0.003152,0.732273,-0.00084,0.002821,-0.002195,0.003522,-0.008248,-0.0054659999999999995
506,2.392513,-0.003135,-2.5705400000000003,0.680954,0.003135,0.7323029999999999,-0.00187,0.0017289999999999999,-0.002157,-6.1e-05,-0.0073,-0.007601999999999999
507,2.392521,-0.003112,-2.57051,0.680948,0.003112,0.732309,-0.001884,0.000655,-1.9e-05,0.001761,-0.008391,-0.005853
508,2.39255,-0.003106,-2.570505,0.6809270000000001,0.003106,0.732329,0.0013210000000000001,0.001709,2e-06,0.001813,-0.007608,-0.004591
509,2.392564,-0.003088,-2.570516,0.680916,0.003088,0.7323390000000001,0.001317,0.0017050000000000001,0.00107,0.002509,-0.006811,-0.005883
510,2.392586,-0.003092,-2.5705270000000002,0.6809,0.003092,0.732354,0.00025,0.001709,0.0010630000000000001,0.0012439999999999999,-0.006266,-0.005028
511,2.392631,-0.003071,-2.5705270000000002,0.680867,0.003071,0.7323850000000001,-0.000817,0.002774,0.0021219999999999998,0.000834,-0.006595999999999999,-0.006494
512,2.392652,-0.003006,-2.570535,0.6808529999999999,0.003006,0.732399,0.00025,0.001709,0.0010630000000000001,0.004374,-0.008606,-0.006599
513,2.392681,-0.002968,-2.570551,0.6808310000000001,0.002968,0.7324189999999999,-0.0008119999999999999,0.0017170000000000002,-1.3000000000000001e-05,0.004533,-0.00866,-0.00491
514,2.3927110000000003,-0.002941,-2.5705400000000003,0.680809,0.002941,0.7324390000000001,-0.00187,0.00279,-0.00109,0.001823,-0.008846,-0.006562999999999999
515,2.39276,-0.0029059999999999997,-2.570488,0.680773,0.0029059999999999997,0.732472,-0.0029,0.003819,-0.001065,0.001218,-0.00936,-0.006612000000000001
516,2.392842,-0.002872,-2.570426,0.680713,0.002872,0.732529,-0.0029,0.003819,-0.001065,0.000607,-0.008029999999999999,-0.007904000000000001
517,2.392886,-0.002866,-2.5703810000000002,0.6806810000000001,0.002866,0.732559,-0.0018280000000000002,0.002758,-0.003193,0.002897,-0.009855,-0.008713
518,2.392938,-0.0028280000000000002,-2.570352,0.680643,0.0028280000000000002,0.732595,-0.001837,0.003811,1e-05,0.003073,-0.0076040000000000005,-0.00594
519,2.393015,-0.0027559999999999998,-2.570328,0.6805869999999999,0.0027559999999999998,0.732647,-0.003981,0.00381,0.002132,0.001771,-0.005304,-0.004833
520,2.393031,-0.002653,-2.570332,0.680575,0.002653,0.732658,-0.001866,0.000602,0.0032189999999999996,0.005093,-0.0072,-0.005333
521,2.393005,-0.002579,-2.570395,0.680595,0.002579,0.732641,-0.0008089999999999999,-0.000471,0.004296,0.005074,-0.007751000000000001,-0.006307
522,2.3929549999999997,-0.002518,-2.570488,0.680632,0.002518,0.7326060000000001,0.0024059999999999997,-0.001603,0.005423,0.002428,-0.006913,-0.0038770000000000002
523,2.392929,-0.002502,-2.5706,0.68065,0.002502,0.732589,0.004549,0.0005200000000000001,0.005436,0.003218,-0.007843000000000001,-0.008422
524,2.392944,-0.002473,-2.5707,0.6806399999999999,0.002473,0.732599,0.001363,0.001605,0.003276,0.001199,-0.006837,-0.007944
525,2.392874,-0.002444,-2.570827,0.680692,0.002444,0.7325520000000001,0.005601,-0.0037409999999999995,0.004379999999999999,0.002109,-0.007861,-0.007423000000000001
526,2.392877,-0.002444,-2.570964,0.68069,0.002444,0.732553,0.004568,0.002659,0.003297,0.003057,-0.009906,-0.009226
527,2.392906,-0.002385,-2.571039,0.680668,0.002385,0.732574,-0.000781,0.001603,0.005397,0.0006519999999999999,-0.009679,-0.010406
528,2.392868,-0.002248,-2.571135,0.680697,0.002248,0.732548,-0.0008089999999999999,-0.001605,0.008606,0.00186,-0.006704000000000001,-0.006945999999999999
529,2.392865,-0.002128,-2.571269,0.6806989999999999,0.002128,0.7325470000000001,0.001334,0.000518,0.008618,0.0052450000000000005,-0.009512999999999999,-0.003329
530,2.392817,-0.002052,-2.571412,0.6807340000000001,0.002052,0.732514,0.002391,-0.002677,0.007561,0.002799,-0.008263,-0.00589
531,2.392789,-0.0019920000000000003,-2.5715169999999996,0.680755,0.0019920000000000003,0.732495,0.001398,0.000469,0.005454,0.000337,-0.007486,-0.0055969999999999995
532,2.392803,-0.001928,-2.5716240000000004,0.6807449999999999,0.001928,0.732504,0.0024649999999999997,0.001526,0.006528,0.002529,-0.005529,-0.005026
533,2.392806,-0.001853,-2.571746,0.680742,0.001853,0.732507,0.002451,-0.000609,0.007599,0.003889,-0.0051340000000000005,-0.0069819999999999995
534,2.39279,-0.001782,-2.5719279999999998,0.680754,0.001782,0.732496,0.004589,0.000449,0.007613,0.004762,-0.009579,-0.007887
535,2.392786,-0.0017,-2.572077,0.680757,0.0017,0.732494,0.002456,0.00045599999999999997,0.007598000000000001,0.005934,-0.007498,-0.007045
536,2.392791,-0.00157,-2.572174,0.6807529999999999,0.00157,0.7324970000000001,-0.001807,0.00047599999999999997,0.0065,0.0012230000000000001,-0.006179,-0.0060409999999999995
537,2.392798,-0.001437,-2.572237,0.6807479999999999,0.001437,0.7325020000000001,-0.002874,0.000479,0.006492,0.0014869999999999998,-0.008273,-0.0059240000000000004
538,2.392789,-0.001294,-2.572324,0.680755,0.001294,0.732495,-0.000691,0.00040300000000000004,0.008681,0.003479,-0.006711,-0.0067870000000000005
539,2.39275,-0.001158,-2.5724709999999997,0.6807840000000001,0.001158,0.7324689999999999,0.0025,-0.000677,0.009773,0.002627,-0.008421,-0.0067150000000000005
540,2.3927419999999997,-0.001025,-2.57262,0.68079,0.001025,0.732463,-0.0007059999999999999,-0.000671,0.010819,0.00436,-0.008273,-0.008754000000000001
541,2.3927389999999997,-0.0008460000000000001,-2.572693,0.680792,0.0008460000000000001,0.732462,-0.007088,0.00043,0.007568000000000001,0.005518,-0.009253,-0.008447
542,2.392728,-0.00065,-2.57271,0.6808,0.00065,0.732454,-0.003897,-0.0017120000000000002,0.007593000000000001,0.002794,-0.00686,-0.0016190000000000002
543,2.392704,-0.000533,-2.572873,0.680818,0.000533,0.732438,0.004633,0.000376,0.010855,-0.00042800000000000005,-0.007536,-0.003739
544,2.392713,-0.000417,-2.573099,0.6808109999999999,0.000417,0.732444,0.0025039999999999997,0.001449,0.010839,0.00057,-0.008626,-0.008277
545,2.392747,-0.00032,-2.5732720000000002,0.680787,0.00032,0.732468,0.0014470000000000002,0.0014609999999999998,0.008695,0.0029289999999999997,-0.007645,-0.0046689999999999995
546,2.392748,-0.000239,-2.573396,0.680786,0.000239,0.732468,0.0014470000000000002,-0.000661,0.006561,0.003952000000000001,-0.008631999999999999,-0.0033420000000000004
547,2.392746,-0.000172,-2.5734939999999997,0.680787,0.000172,0.732467,0.001508,0.00035299999999999996,0.00445,0.003875,-0.008167,-0.005446
548,2.392759,-9.9e-05,-2.57361,0.680778,9.9e-05,0.732475,0.001498,0.001405,0.007654,0.002541,-0.006797,-0.00898
549,2.3927650000000003,-9e-06,-2.573769,0.680773,9e-06,0.73248,0.00256,0.001397,0.008729,0.000944,-0.007593000000000001,-0.007947
550,2.3927810000000003,9.2e-05,-2.573902,0.680761,-9.2e-05,0.732491,0.000436,0.0024739999999999996,0.007645,0.005442,-0.006927,-0.006951000000000001
551,2.392792,0.000202,-2.573982,0.680754,-0.000202,0.732498,-0.0006259999999999999,0.00036,0.004435000000000001,0.0049,-0.004849,-0.00592
552,2.3927560000000003,0.000271,-2.574106,0.680779,-0.000271,0.7324729999999999,0.004693999999999999,-0.000732,0.0066099999999999996,0.002967,-0.006305,-0.0040490000000000005
553,2.392757,0.00032,-2.574309,0.680779,-0.00032,0.732474,0.004684000000000001,0.00032,0.009814,0.0026780000000000003,-0.006531,-0.006308
554,2.392788,0.000413,-2.5745169999999997,0.680756,-0.000413,0.732495,0.0036729999999999996,0.002398,0.009806,0.002792,-0.00743,-0.0081
555,2.3927970000000003,0.00047699999999999994,-2.574706,0.68075,-0.00047699999999999994,0.7325010000000001,0.00473,-0.000797,0.008749,0.004187,-0.008678,-0.005679
556,2.3927810000000003,0.000531,-2.574884,0.680761,-0.000531,0.73249,0.00473,-0.000797,0.008749,0.001429,-0.0087,-0.008353
557,2.392786,0.00061,-2.575039,0.680757,-0.00061,0.732494,0.0015539999999999998,0.002418,0.006586,0.0032939999999999996,-0.006684000000000001,-0.006998999999999999
558,2.392795,0.000722,-2.5751459999999997,0.680751,-0.000722,0.732499,-0.001661,-0.000767,0.006568000000000001,0.006000999999999999,-0.008159,-0.006501000000000001
559,2.3927709999999998,0.000805,-2.575268,0.680768,-0.000805,0.732483,0.001535,-0.000782,0.007659,0.005084,-0.007601999999999999,-0.0072180000000000005
560,2.392743,0.000909,-2.575367,0.6807880000000001,-0.000909,0.732464,-0.000604,-0.0018399999999999998,0.007645,0.0015539999999999998,-0.006064,-0.004116
561,2.392686,0.0010019999999999999,-2.575538,0.6808310000000001,-0.0010019999999999999,0.732426,0.002582,-0.002925,0.009805,0.001451,-0.005757,-0.0036659999999999996
562,2.392632,0.001034,-2.575748,0.68087,-0.001034,0.7323890000000001,0.007944,-0.000839,0.007644,0.0034409999999999996,-0.00426,-0.010969
563,2.3926060000000002,0.0010689999999999999,-2.575935,0.6808890000000001,-0.0010689999999999999,0.732371,0.004744,-0.000828,0.007622,0.0016059999999999998,-0.0077659999999999995,-0.008799
564,2.392566,0.001105,-2.576085,0.680918,-0.001105,0.732344,0.004748,-0.000824,0.006554000000000001,0.0021260000000000003,-0.007348,-0.005705
565,2.3925349999999996,0.001139,-2.576238,0.680941,-0.001139,0.732322,0.003672,-0.0018899999999999998,0.0076159999999999995,0.0009289999999999999,-0.008490000000000001,-0.010032
566,2.392493,0.0011619999999999998,-2.576387,0.680972,-0.0011619999999999998,0.732294,0.003686,-0.000816,0.005478,0.002225,-0.008588,-0.008126999999999999
567,2.3924529999999997,0.001219,-2.57648,0.681001,-0.001219,0.732266,0.000491,-0.001861,0.003321,0.00302,-0.008409,-0.009304999999999999
568,2.392436,0.001285,-2.576502,0.681014,-0.001285,0.732255,-0.0016190000000000002,0.00135,0.001165,0.00047400000000000003,-0.007519,-0.005386999999999999
569,2.392486,0.001314,-2.576474,0.680977,-0.001314,0.7322890000000001,-0.000519,0.00562,-0.002037,0.000603,-0.008405,-0.00713
570,2.3926130000000003,0.001332,-2.576377,0.680884,-0.001332,0.732376,-0.003711,0.006684999999999999,-0.004318,0.001795,-0.007899,-0.0060420000000000005
571,2.3927400000000003,0.00134,-2.5761939999999997,0.68079,-0.00134,0.732462,-0.0068969999999999995,0.00777,-0.006478,0.002223,-0.008914,-0.005625
572,2.3928849999999997,0.001363,-2.575956,0.6806840000000001,-0.001363,0.73256,-0.009016,0.008851000000000001,-0.008631,0.005427,-0.0068920000000000006,-0.007568999999999999
573,2.393037,0.001398,-2.575707,0.680573,-0.001398,0.732664,-0.009031,0.006716,-0.007559999999999999,0.004287,-0.005835,-0.005796
574,2.39316,0.001416,-2.5754580000000002,0.680483,-0.001416,0.732747,-0.007959,0.006717,-0.008621,0.0029739999999999996,-0.005862,-0.005147
575,2.393288,0.00143,-2.5752650000000004,0.680389,-0.00143,0.732835,-0.005835,0.006701,-0.00647,0.004303,-0.005695,-0.00554
576,2.39342,0.001419,-2.575109,0.680292,-0.001419,0.732925,-0.002634,0.006690000000000001,-0.006447,0.006384,-0.005707,-0.007842
577,2.393576,0.001411,-2.574904,0.680178,-0.001411,0.7330300000000001,-0.009007,0.009921,-0.009701000000000001,0.0076879999999999995,-0.004906000000000001,-0.004286
578,2.3937939999999998,0.0014199999999999998,-2.574617,0.680018,-0.0014199999999999998,0.733179,-0.00793,0.013108000000000002,-0.008629000000000001,0.0016530000000000002,-0.006362,-0.008219
579,2.393946,0.001482,-2.574416,0.6799069999999999,-0.001482,0.733282,-0.007987000000000001,0.0056170000000000005,-0.004519,0.0018100000000000002,-0.004072999999999999,-0.005499
580,2.3940509999999997,0.0014990000000000001,-2.5742700000000003,0.67983,-0.0014990000000000001,0.7333529999999999,-0.002639,0.006672,-0.006619,0.004145,-0.007855,-0.004105
581,2.394255,0.001491,-2.5740819999999998,0.6796800000000001,-0.001491,0.733492,-0.007949,0.010956,-0.00773,0.006217,-0.008916,-0.010362999999999999
582,2.394403,0.00146,-2.573802,0.6795720000000001,-0.00146,0.733593,-0.007949,0.006712,-0.011998,0.002695,-0.007558,-0.008129
583,2.394555,0.00143,-2.573477,0.6794600000000001,-0.00143,0.733696,-0.010059,0.010985,-0.013086000000000002,0.0033710000000000003,-0.007237,-0.0076370000000000006
584,2.394786,0.001369,-2.573127,0.679291,-0.001369,0.733853,-0.008973,0.012059,-0.016285,0.003754,-0.006489,-0.005612
585,2.394968,0.001266,-2.572784,0.679157,-0.001266,0.7339760000000001,-0.0068579999999999995,0.008851000000000001,-0.015197,0.004971,-0.007645,-0.006804000000000001
586,2.395047,0.0012259999999999999,-2.572495,0.679099,-0.0012259999999999999,0.734031,-0.0058579999999999995,0.003489,-0.012176000000000001,-0.000449,-0.0058850000000000005,-0.005744
587,2.395143,0.001135,-2.572339,0.679029,-0.001135,0.734096,0.0005480000000000001,0.006654,-0.009999,0.003329,-0.006326,-0.0047409999999999996
588,2.395294,0.001027,-2.572189,0.678918,-0.001027,0.7341979999999999,-0.000518,0.007719,-0.00894,0.0048590000000000005,-0.008357,-0.009054000000000001
589,2.395353,0.0009199999999999999,-2.572031,0.678874,-0.0009199999999999999,0.7342380000000001,-0.001604,0.0024,-0.010009,0.003956,-0.005901,-0.005951
590,2.395413,0.0008269999999999999,-2.571874,0.6788310000000001,-0.0008269999999999999,0.734279,-0.000533,0.004523,-0.008936,0.002657,-0.0064670000000000005,-0.006465
591,2.395526,0.000728,-2.571755,0.678747,-0.000728,0.734356,-0.000528,0.0066489999999999995,-0.00787,0.001368,-0.005268,-0.007915
592,2.395609,0.000621,-2.571605,0.678687,-0.000621,0.734412,0.000529,0.003454,-0.008927,0.001703,-0.007573000000000001,-0.010367
593,2.3956310000000003,0.000551,-2.571463,0.67867,-0.000551,0.734427,-0.002676,0.0024,-0.008948000000000001,0.004344,-0.005324000000000001,-0.006079
594,2.395633,0.000516,-2.571365,0.678668,-0.000516,0.734428,-0.0005809999999999999,0.000236,-0.0025210000000000002,0.004926,-0.006670000000000001,-0.007240000000000001
595,2.395569,0.000439,-2.571397,0.678715,-0.000439,0.734384,0.006823,-0.001935,-0.001614,0.003246,-0.0052369999999999995,-0.003778
596,2.395595,0.00028199999999999997,-2.571457,0.678696,-0.00028199999999999997,0.734402,0.008995,0.004457,-0.003744,0.003936,-0.005837,-0.008267
597,2.395654,0.000139,-2.571427,0.678653,-0.000139,0.734442,0.0036609999999999998,0.0023539999999999998,-0.005915,0.002179,-0.0068650000000000004,-0.009467
598,2.39566,2.7000000000000002e-05,-2.571364,0.678649,-2.7000000000000002e-05,0.734446,0.001517,0.000231,-0.005927,0.003007,-0.006855,-0.0057469999999999995
599,2.395676,-8.8e-05,-2.5713310000000003,0.6786369999999999,8.8e-05,0.7344569999999999,0.004718,0.001281,-0.004838,0.002301,-0.007916,-0.0058189999999999995
600,2.395657,-0.00022200000000000003,-2.5713310000000003,0.678651,0.00022200000000000003,0.734444,0.005775,-0.0008529999999999999,-0.004828,0.004516,-0.007851,-0.008812
601,2.395608,-0.00032,-2.5713060000000003,0.678687,0.00032,0.7344109999999999,0.000436,-0.0019,-0.004864,0.004159,-0.00856,-0.008795
602,2.3955319999999998,-0.000404,-2.571234,0.678743,0.000404,0.734359,0.00038500000000000003,-0.004037,-0.0061070000000000004,0.0040880000000000005,-0.008186,-0.006149
603,2.395441,-0.000509,-2.571141,0.67881,0.000509,0.734297,0.002529,-0.002975,-0.007161,0.004098,-0.008489,-0.006026
604,2.3954009999999997,-0.00065,-2.5710889999999997,0.678838,0.00065,0.73427,0.0036,-0.001913,-0.007155,0.004542,-0.009164,-0.006670000000000001
605,2.395293,-0.000799,-2.571069,0.678918,0.000799,0.734196,0.006781999999999999,-0.005125,-0.0060609999999999995,0.0034100000000000003,-0.0026309999999999997,-0.009831
606,2.395105,-0.000924,-2.571017,0.679056,0.000924,0.734069,0.00249,-0.010435999999999999,-0.006084,0.001379,-0.005227000000000001,-0.011122
607,2.394832,-0.0009789999999999998,-2.570922,0.6792560000000001,0.0009789999999999998,0.733883,-0.001796,-0.013621000000000001,-0.0050409999999999995,0.0022170000000000002,-0.0066549999999999995,-0.009091
608,2.394494,-0.000995,-2.5708130000000002,0.679504,0.000995,0.733654,-0.002873,-0.015747999999999998,-0.005046,0.005234,-0.008731000000000001,-0.006908
609,2.394211,-0.000982,-2.5706290000000003,0.679712,0.000982,0.733462,-0.008187999999999999,-0.013590000000000001,-0.007222,0.003653,-0.009084,-0.005664
610,2.393943,-0.000993,-2.57043,0.679909,0.000993,0.733279,-0.002849,-0.012544,-0.007187000000000001,0.0018690000000000002,-0.005006,-0.0032229999999999997
611,2.393691,-0.001102,-2.5703970000000003,0.6800930000000001,0.001102,0.733108,0.004681,-0.007339,-0.005046,0.006141,-0.00899,-0.006256
612,2.393617,-0.0012380000000000002,-2.570345,0.6801470000000001,0.0012380000000000002,0.733058,0.00259,-0.000927,-0.008273,0.006514,-0.008196,-0.0059759999999999995
613,2.393554,-0.0013390000000000001,-2.570214,0.680193,0.0013390000000000001,0.733015,-0.0016769999999999999,-0.001973,-0.00937,0.006529000000000001,-0.008631999999999999,-0.005323
614,2.393524,-0.0014140000000000001,-2.570074,0.6802159999999999,0.0014140000000000001,0.732995,-0.000611,-0.000916,-0.008295,0.008917,-0.008922,-0.009636
615,2.393538,-0.001507,-2.569944,0.6802060000000001,0.001507,0.733004,0.000466,0.0012109999999999998,-0.008291,0.005539,-0.006893000000000001,-0.008486
616,2.393573,-0.0015810000000000002,-2.569872,0.68018,0.0015810000000000002,0.733028,0.00045599999999999997,0.003324,-0.00402,0.003918,-0.007075,-0.009487
617,2.393639,-0.001616,-2.569827,0.680131,0.001616,0.733073,0.0015279999999999998,0.005447,-0.002948,0.003066,-0.006026,-0.007167
618,2.393728,-0.0016179999999999999,-2.569804,0.680066,0.0016179999999999999,0.733133,-0.0005110000000000001,0.004229999999999999,-0.000732,0.006579000000000001,-0.0043950000000000005,-0.007151
619,2.393793,-0.0016059999999999998,-2.569768,0.6800189999999999,0.0016059999999999998,0.7331770000000001,-0.001582,0.003169,-0.0007379999999999999,0.006412999999999999,-0.006352,-0.004097
620,2.393854,-0.0016,-2.56975,0.679974,0.0016,0.733219,-0.0005009999999999999,0.006361,-0.000735,0.004368,-0.005079,-0.007053
621,2.394011,-0.0015949999999999998,-2.569744,0.679858,0.0015949999999999998,0.733326,-0.000496,0.009548000000000001,0.001397,0.004895,-0.0055780000000000005,-0.00716
622,2.394171,-0.001519,-2.569713,0.679741,0.001519,0.7334350000000001,-0.004759,0.009567,0.000299,0.004204,-0.008004,-0.006735
623,2.39436,-0.001429,-2.56963,0.679602,0.001429,0.733563,-0.006893000000000001,0.008514,-0.000782,0.003915,-0.007594,-0.004497999999999999
624,2.394509,-0.001363,-2.569539,0.679493,0.001363,0.733665,-0.005831,0.007445,-0.0007740000000000001,0.002376,-0.008092,-0.005469
625,2.394675,-0.001284,-2.569445,0.679372,0.001284,0.733777,-0.005821,0.008514,-0.001843,0.004176,-0.00783,-0.006909
626,2.3948419999999997,-0.0012109999999999998,-2.5693349999999997,0.679249,0.0012109999999999998,0.733891,-0.004749000000000001,0.009576000000000001,-0.001837,0.0026969999999999997,-0.009191,-0.009327
627,2.3949759999999998,-0.001175,-2.569257,0.6791520000000001,0.001175,0.733982,-0.002545,0.006225,-0.001656,0.0029010000000000004,-0.009734999999999999,-0.008121
628,2.395116,-0.0011359999999999999,-2.5691990000000002,0.679049,0.0011359999999999999,0.7340770000000001,-0.003607,0.008355,-0.000598,0.0007,-0.009787,-0.009285
629,2.395254,-0.001126,-2.56914,0.678948,0.001126,0.734171,-0.000401,0.007287999999999999,-0.002711,0.001884,-0.008313,-0.009959
630,2.395338,-0.0011220000000000002,-2.569095,0.678886,0.0011220000000000002,0.734229,-0.0014869999999999998,0.00303,-0.0027129999999999997,0.005806,-0.008111,-0.006323
631,2.39537,-0.00116,-2.569083,0.678863,0.00116,0.73425,0.00277,0.001946,-0.001614,0.00586,-0.00821,-0.007672
632,2.395381,-0.001224,-2.569074,0.678854,0.001224,0.734258,0.002775,0.000889,-0.003749,0.0035340000000000002,-0.008440999999999999,-0.00443
633,2.395404,-0.001351,-2.569092,0.678838,0.001351,0.734273,0.007051999999999999,0.0019440000000000002,-0.004788000000000001,0.0021620000000000003,-0.0067989999999999995,-0.004659
634,2.395427,-0.0015119999999999999,-2.569137,0.678821,0.0015119999999999999,0.7342890000000001,0.007037999999999999,0.0008699999999999999,-0.002651,0.002698,-0.005052,-0.006993999999999999
635,2.395371,-0.0015970000000000001,-2.5691580000000003,0.678862,0.0015970000000000001,0.734251,0.00172,-0.0013449999999999998,-0.0025109999999999998,0.003679,-0.006097999999999999,-0.008237999999999999
636,2.395318,-0.0016309999999999999,-2.5691490000000003,0.6789,0.0016309999999999999,0.734215,0.0017,-0.0034850000000000003,-0.00037200000000000004,0.000589,-0.007201000000000001,-0.007851
637,2.395236,-0.001648,-2.5692009999999996,0.6789609999999999,0.001648,0.734159,0.002758,-0.0034969999999999997,0.001772,0.00451,-0.007019,-0.010389
638,2.3951830000000003,-0.0016510000000000001,-2.56928,0.678999,0.0016510000000000001,0.734124,0.002763,-0.001371,0.002837,0.004259000000000001,-0.006595,-0.009438
639,2.395133,-0.0016640000000000001,-2.569336,0.679036,0.0016640000000000001,0.734089,0.003834,-0.002431,0.000709,0.005534000000000001,-0.009446,-0.008473
640,2.3950560000000003,-0.001698,-2.569383,0.6790930000000001,0.001698,0.7340369999999999,0.003834,-0.0034920000000000003,-0.000357,0.0035090000000000004,-0.008031,-0.006208
641,2.3950259999999997,-0.001734,-2.5694,0.6791149999999999,0.001734,0.734017,0.000653,-0.000281,-0.001452,0.003228,-0.0067079999999999996,-0.009087
642,2.395005,-0.00175,-2.5693770000000002,0.67913,0.00175,0.734002,-0.00040899999999999997,-0.000273,-0.0025280000000000003,0.002892,-0.006266,-0.01098
643,2.394949,-0.0017289999999999999,-2.569327,0.679172,0.0017289999999999999,0.7339640000000001,-0.001484,-0.0023870000000000002,-0.00020800000000000001,0.004239,-0.003286,-0.008119
644,2.394885,-0.0016920000000000001,-2.569289,0.6792189999999999,0.0016920000000000001,0.733921,-0.001484,-0.0023870000000000002,-0.00020800000000000001,0.003887,-0.005339,-0.008106
645,2.394818,-0.001648,-2.569274,0.679268,0.001648,0.733876,-0.00042199999999999996,-0.002395,0.000867,0.00663,-0.007599,-0.006993000000000001
646,2.394771,-0.001599,-2.569251,0.6793020000000001,0.001599,0.7338439999999999,-0.002546,-0.00025699999999999996,0.00085,0.006,-0.007107,-0.008411
647,2.394748,-0.001545,-2.569214,0.679319,0.001545,0.7338279999999999,-0.0036130000000000003,-0.000254,0.000842,0.004122,-0.007267,-0.008745999999999999
648,2.394725,-0.001489,-2.569169,0.679337,0.001489,0.733813,-0.002541,-0.00025299999999999997,-0.00021899999999999998,0.0037990000000000003,-0.007638,-0.007159
649,2.394689,-0.0014470000000000002,-2.569154,0.679363,0.0014470000000000002,0.733788,-0.001484,-0.000265,0.001925,0.004795000000000001,-0.009412,-0.007363
650,2.394648,-0.0014039999999999999,-2.569163,0.6793939999999999,0.0014039999999999999,0.733761,-0.000407,-0.0012980000000000001,0.002121,0.0037270000000000003,-0.007187000000000001,-0.0068319999999999995
651,2.394597,-0.001352,-2.569181,0.67943,0.001352,0.733726,-0.001474,-0.001294,0.002114,0.005888,-0.008173,-0.007789
652,2.394597,-0.001282,-2.569155,0.67943,0.001282,0.733726,-0.0035840000000000004,0.0008560000000000001,-0.001108,0.0035229999999999997,-0.007156999999999999,-0.008537000000000001
653,2.394616,-0.001224,-2.569117,0.679416,0.001224,0.733739,-0.002522,0.0019089999999999999,0.001034,0.003109,-0.0074340000000000005,-0.008473
654,2.39468,-0.001182,-2.569064,0.67937,0.001182,0.733783,-0.003565,0.004056000000000001,-0.00218,0.003141,-0.008414,-0.008319
655,2.394767,-0.001164,-2.5689599999999997,0.6793060000000001,0.001164,0.733842,-0.002484,0.0051259999999999995,-0.004311,0.0035859999999999998,-0.007572,-0.004838
656,2.3948240000000003,-0.001132,-2.5689290000000002,0.679264,0.001132,0.73388,-0.00146,0.00084,0.0010429999999999999,0.002514,-0.005999,-0.011895000000000001
657,2.394796,-0.0010949999999999998,-2.568946,0.679285,0.0010949999999999998,0.733861,0.000669,-0.00023199999999999997,0.001059,0.003714,-0.006207,-0.005483
658,2.394829,-0.001074,-2.568972,0.6792600000000001,0.001074,0.733884,-0.000339,0.00398,0.001182,0.005554,-0.009313,-0.009198999999999999
659,2.394882,-0.001047,-2.5689319999999998,0.679222,0.001047,0.73392,-0.001401,0.002927,-0.0009599999999999999,0.0010609999999999999,-0.0067079999999999996,-0.009204
660,2.394903,-0.001006,-2.568926,0.6792060000000001,0.001006,0.733934,-0.0014199999999999998,0.001849,0.002246,0.002999,-0.007262,-0.0063490000000000005
661,2.394935,-0.000959,-2.5689580000000003,0.679183,0.000959,0.733956,0.000718,0.0029059999999999997,0.002259,0.003892,-0.0067269999999999995,-0.0061270000000000005
662,2.3949979999999997,-0.000958,-2.569,0.679136,0.000958,0.7339979999999999,-0.000334,0.0039840000000000006,0.00011399999999999999,0.0056170000000000005,-0.008587000000000001,-0.008046
663,2.395033,-0.000921,-2.568948,0.67911,0.000921,0.7340220000000001,-0.003535,0.002934,-0.000975,0.004438,-0.00765,-0.006468000000000001
664,2.3951130000000003,-0.0009109999999999999,-2.568869,0.6790510000000001,0.0009109999999999999,0.7340760000000001,-0.0035159999999999996,0.005072999999999999,-0.003114,0.003841,-0.007716,-0.008597
665,2.3951759999999997,-0.000889,-2.568795,0.679005,0.000889,0.734119,-0.0024579999999999997,0.002939,-0.003104,0.002941,-0.007451,-0.006976
666,2.395213,-0.0009029999999999999,-2.5687349999999998,0.678978,0.0009029999999999999,0.7341439999999999,-0.001363,0.003924,-0.002986,0.0032119999999999996,-0.008731000000000001,-0.008405
667,2.395289,-0.0008939999999999999,-2.5686240000000002,0.678922,0.0008939999999999999,0.7341949999999999,-0.0045579999999999996,0.00394,-0.004077,0.00020099999999999998,-0.007348,-0.00658
668,2.395338,-0.000884,-2.568506,0.678886,0.000884,0.734229,-0.0035060000000000004,0.002862,-0.0019320000000000001,0.003213,-0.003737,-0.002768
669,2.395355,-0.0008359999999999999,-2.5685290000000003,0.678873,0.0008359999999999999,0.73424,0.000718,0.000687,0.0055780000000000005,0.007497,-0.004025,-0.006701
670,2.395275,-0.000768,-2.5687450000000003,0.678933,0.000768,0.734186,0.008129,-0.004695,0.013113999999999999,0.007576,-0.001424,-0.00921
671,2.395102,-0.000687,-2.569131,0.67906,0.000687,0.734068,0.012358,-0.007928,0.018489,0.004458,-0.00351,-0.007063
672,2.394957,-0.00056,-2.569588,0.679167,0.00056,0.73397,0.011286,-0.005806,0.021684000000000002,0.0029620000000000002,-0.002483,-0.0050880000000000005
673,2.3948419999999997,-0.000408,-2.570033,0.679251,0.000408,0.733893,0.007033,-0.0036560000000000004,0.020583,0.0037619999999999997,-0.005642,-0.007421
674,2.3947830000000003,-0.000193,-2.570349,0.679294,0.000193,0.733853,0.0017010000000000003,-0.001535,0.019551,0.004758,-0.009547,-0.010190000000000001
675,2.394719,7.2e-05,-2.570667,0.679341,-7.2e-05,0.733809,0.0027530000000000002,-0.003674,0.020628999999999998,0.003886,-0.009007,-0.006942
676,2.3947220000000002,0.000304,-2.570974,0.679339,-0.000304,0.733811,-0.00040899999999999997,0.0027370000000000003,0.018462,0.0048649999999999995,-0.010041,-0.00969
677,2.394774,0.000598,-2.57118,0.679301,-0.000598,0.733846,-0.004676,0.00063,0.016299,0.0054670000000000005,-0.00955,-0.005834000000000001
678,2.394756,0.00086,-2.571354,0.6793140000000001,-0.00086,0.733835,-0.0036,0.0006349999999999999,0.014169999999999999,0.003959000000000001,-0.009745,-0.00628
679,2.394848,0.001097,-2.571445,0.679246,-0.001097,0.733897,-0.005686,0.007051000000000001,0.009873999999999999,0.0026079999999999996,-0.009279,-0.007975
680,2.3949759999999998,0.0012699999999999999,-2.571529,0.6791520000000001,-0.0012699999999999999,0.7339829999999999,-0.0024760000000000003,0.00811,0.008827,0.0021219999999999998,-0.004848,-0.009023
681,2.395123,0.001394,-2.571582,0.679044,-0.001394,0.734082,-0.0035329999999999997,0.006,0.004549,0.00223,-0.004725,-0.009122
682,2.395263,0.001505,-2.5716419999999998,0.678942,-0.001505,0.734178,-0.000309,0.009179000000000001,0.004612,0.004286,-0.008565999999999999,-0.007234
683,2.3954169999999997,0.0016079999999999998,-2.5716650000000003,0.678828,-0.0016079999999999998,0.734282,-0.0035090000000000004,0.008129,0.0035229999999999997,0.005101,-0.006845,-0.008803
684,2.3955740000000003,0.0017120000000000002,-2.571643,0.678713,-0.0017120000000000002,0.7343890000000001,-0.004571,0.008137,0.002447,0.005217,-0.006741,-0.00891
685,2.395716,0.001796,-2.5716040000000002,0.678608,-0.001796,0.734485,-0.0034950000000000003,0.009203,0.001385,0.002987,-0.006901999999999999,-0.007648
686,2.395895,0.0018690000000000002,-2.571527,0.678477,-0.0018690000000000002,0.7346060000000001,-0.004538,0.01135,-0.00183,0.002569,-0.006142,-0.007859999999999999
687,2.396129,0.0019190000000000001,-2.5714200000000003,0.678305,-0.0019190000000000001,0.7347640000000001,-0.007729000000000001,0.01243,-0.0029219999999999997,0.002573,-0.007129000000000001,-0.007058
688,2.396358,0.001971,-2.571275,0.678136,-0.001971,0.734919,-0.007723999999999999,0.011373999999999999,-0.005057,0.004007999999999999,-0.0068189999999999995,-0.0059770000000000005
689,2.3965549999999998,0.002038,-2.571119,0.677991,-0.002038,0.735053,-0.006657,0.01137,-0.0050490000000000005,0.002918,-0.006156,-0.007133
690,2.396754,0.002093,-2.570963,0.677845,-0.002093,0.735187,-0.007706,0.011342,-0.002893,0.001233,-0.0064670000000000005,-0.004261
691,2.3969259999999997,0.002117,-2.5708439999999997,0.677718,-0.002117,0.735304,-0.0034579999999999997,0.007065999999999999,-0.002858,0.002641,-0.006504,-0.007918000000000001
692,2.397061,0.002164,-2.5707139999999997,0.677618,-0.002164,0.735396,-0.005591,0.006012,-0.00394,0.002084,-0.0074329999999999995,-0.007673999999999999
693,2.397166,0.0021899999999999997,-2.570573,0.677542,-0.0021899999999999997,0.735467,-0.005596,0.004947,-0.003939,0.000407,-0.007561,-0.008904
694,2.397282,0.0022199999999999998,-2.570409,0.6774560000000001,-0.0022199999999999998,0.735546,-0.00772,0.006024,-0.005023,0.004414,-0.00602,-0.009487
695,2.39738,0.002232,-2.57024,0.677384,-0.002232,0.735612,-0.0034579999999999997,0.0038829999999999997,-0.006059,0.001464,-0.005764,-0.007264
696,2.397446,0.0021420000000000002,-2.570189,0.6773359999999999,-0.0021420000000000002,0.735657,0.0040100000000000005,0.004918,-0.00494,0.0028399999999999996,-0.007853,-0.006775
697,2.39755,0.002055,-2.5701709999999998,0.677259,-0.002055,0.735727,0.0008150000000000001,0.005994,-0.004963,0.003435,-0.0074659999999999995,-0.009699
698,2.397613,0.0020280000000000003,-2.570062,0.677212,-0.0020280000000000003,0.73577,-0.004503,0.001704,-0.004973,0.003009,-0.00609,-0.009940000000000001
699,2.3976490000000004,0.001989,-2.569918,0.677186,-0.001989,0.735794,-0.0034219999999999997,0.001713,-0.00817,0.004104,-0.006312,-0.0072629999999999995
700,2.397696,0.001927,-2.569755,0.6771520000000001,-0.001927,0.735826,-0.001283,0.002771,-0.008157,0.0051909999999999994,-0.005718,-0.006257
701,2.397716,0.001801,-2.569673,0.677137,-0.001801,0.735839,0.005104,0.000614,-0.0070409999999999995,0.005984000000000001,-0.004318,-0.006576
702,2.397697,0.001716,-2.569675,0.67715,-0.001716,0.735827,0.002951,0.000604,-0.002783,0.0027660000000000002,-0.006065999999999999,-0.009844
703,2.397729,0.001689,-2.56966,0.677127,-0.001689,0.735848,-0.00023999999999999998,0.002746,-0.0028079999999999997,0.0009130000000000001,-0.00472,-0.007836
704,2.397744,0.001673,-2.569586,0.6771159999999999,-0.001673,0.735858,-0.002369,0.001697,-0.004958,0.0056689999999999996,-0.005072,-0.0045049999999999995
705,2.397723,0.0016239999999999998,-2.569499,0.677132,-0.0016239999999999998,0.735845,-0.00025499999999999996,-0.001511,-0.003871,0.007911,-0.006326,-0.005803
706,2.3976759999999997,0.0015810000000000002,-2.569488,0.677167,-0.0015810000000000002,0.735813,0.002932,-0.001535,-0.000644,0.0077540000000000005,-0.008520999999999999,-0.007723999999999999
707,2.397639,0.0015400000000000001,-2.569525,0.677194,-0.0015400000000000001,0.735788,0.00399,-0.001559,-0.000728,0.0037450000000000005,-0.006181,-0.003565
708,2.397614,0.00145,-2.5695639999999997,0.677212,-0.00145,0.735771,0.006142,-0.000488,-0.003919,0.0025670000000000003,-0.0058130000000000005,-0.006462000000000001
709,2.397594,0.001347,-2.569552,0.677227,-0.001347,0.735758,0.002951,0.000593,-0.005011,0.003147,-0.007412,-0.007654
710,2.397594,0.001271,-2.569501,0.677227,-0.001271,0.735758,0.0008269999999999999,0.0016699999999999998,-0.006096,0.002582,-0.006587000000000001,-0.009484999999999999
711,2.397623,0.001196,-2.569426,0.6772060000000001,-0.001196,0.7357779999999999,-0.00023999999999999998,0.001673,-0.006103,0.003397,-0.006556,-0.008483
712,2.397653,0.00112,-2.5693599999999996,0.677184,-0.00112,0.735798,0.0018850000000000002,0.001657,-0.003952000000000001,0.006379,-0.006737999999999999,-0.008945
713,2.397648,0.001039,-2.5693189999999997,0.677188,-0.001039,0.735795,0.0008179999999999999,0.0006,-0.005026,0.006451999999999999,-0.00656,-0.0068980000000000005
714,2.397618,0.0009710000000000001,-2.569257,0.6772100000000001,-0.0009710000000000001,0.735775,0.000808,-0.0015300000000000001,-0.005023,0.006124,-0.007345,-0.007412
715,2.397585,0.000904,-2.569172,0.677235,-0.000904,0.7357520000000001,0.000824,0.000554,-0.005227000000000001,0.0053219999999999995,-0.006862999999999999,-0.005222999999999999
716,2.397597,0.0008439999999999999,-2.569084,0.677226,-0.0008439999999999999,0.7357600000000001,-0.00131,0.0005610000000000001,-0.005242,0.0033009999999999997,-0.004908,-0.007045999999999999
717,2.397599,0.000797,-2.5689889999999997,0.6772239999999999,-0.000797,0.735762,-0.000248,0.000553,-0.0041659999999999996,0.002875,-0.004086,-0.007398999999999999
718,2.397585,0.0007740000000000001,-2.5689290000000002,0.677235,-0.0007740000000000001,0.7357520000000001,-0.001324,0.0005480000000000001,-0.002037,0.006893000000000001,-0.005588,-0.009434
719,2.397594,0.00079,-2.568867,0.6772279999999999,-0.00079,0.735759,-0.002391,0.0016129999999999999,-0.000978,0.006564,-0.006962,-0.007487000000000001
720,2.397593,0.000794,-2.568811,0.677229,-0.000794,0.735758,-0.001324,-0.000513,-0.003104,0.006426,-0.007461,-0.00828
721,2.397592,0.000802,-2.5687599999999997,0.67723,-0.000802,0.735757,-0.002381,0.001621,-0.003114,0.0039840000000000006,-0.006095000000000001,-0.007135
722,2.3976029999999997,0.00081,-2.568709,0.677222,-0.00081,0.735765,-0.0013289999999999999,0.000544,-0.0009689999999999999,0.002191,-0.006682,-0.00615
723,2.397618,0.000822,-2.568653,0.677211,-0.000822,0.735776,-0.002332,0.001485,-0.0021809999999999998,0.004857,-0.006639,-0.007794
724,2.397622,0.0008179999999999999,-2.568635,0.677208,-0.0008179999999999999,0.7357779999999999,0.000859,0.000404,-0.0010890000000000001,0.005912,-0.005927,-0.006347
725,2.397596,0.0008119999999999999,-2.5686459999999998,0.677227,-0.0008119999999999999,0.735761,0.00084,-0.0017350000000000002,0.00105,0.005176,-0.006162,-0.0075049999999999995
726,2.39756,0.000799,-2.568649,0.677254,-0.000799,0.735736,0.001917,-0.000669,-1.2e-05,0.005028,-0.006815000000000001,-0.008197
727,2.397534,0.000771,-2.56866,0.6772729999999999,-0.000771,0.735719,0.000859,0.000404,-0.0010890000000000001,0.0035740000000000004,-0.006798,-0.009309
728,2.397498,0.00074,-2.568651,0.6773,-0.00074,0.735694,0.0008550000000000001,-0.0017219999999999998,-0.002154,0.002235,-0.006386,-0.009315
729,2.397434,0.000712,-2.568639,0.677347,-0.000712,0.735651,-0.00022200000000000003,-0.002788,-0.001092,0.00199,-0.006490000000000001,-0.007135
730,2.397354,0.0006799999999999999,-2.568645,0.6774060000000001,-0.0006799999999999999,0.7355970000000001,0.001987,-0.002951,-0.001112,0.004983,-0.007331,-0.0054329999999999995
731,2.397289,0.000627,-2.568655,0.677454,-0.000627,0.735553,0.003058,-0.00295,-0.002173,0.004035,-0.0065439999999999995,-0.007725
732,2.397198,0.0005679999999999999,-2.568665,0.677521,-0.0005679999999999999,0.735492,0.0030489999999999996,-0.0050810000000000004,-0.00217,0.003097,-0.006344,-0.007495
733,2.397092,0.00047599999999999997,-2.568677,0.677599,-0.00047599999999999997,0.73542,0.005187,-0.005084,-0.0032240000000000003,0.004576,-0.0064670000000000005,-0.007804000000000001
734,2.396947,0.000352,-2.568726,0.677705,-0.000352,0.735322,0.008374,-0.0072299999999999994,-0.00213,0.0033710000000000003,-0.005279,-0.006104
735,2.396729,0.00014199999999999998,-2.568836,0.6778649999999999,-0.00014199999999999998,0.735174,0.013684,-0.013636,-0.003153,0.006354,-0.006631999999999999,-0.006490000000000001
736,2.39635,-0.000132,-2.569023,0.678144,0.000132,0.734917,0.017913,-0.022173,-0.003113,0.006533,-0.0063880000000000004,-0.010689
737,2.3958169999999996,-0.00049,-2.5692779999999997,0.6785359999999999,0.00049,0.7345550000000001,0.024281,-0.029651999999999998,-0.003059,0.007286,-0.0066549999999999995,-0.007458
738,2.395159,-0.0008960000000000001,-2.5695810000000003,0.679018,0.0008960000000000001,0.734108,0.026386,-0.036051,-0.003036,0.007840999999999999,-0.008129,-0.009071
739,2.394299,-0.001308,-2.5698849999999998,0.679649,0.001308,0.7335229999999999,0.025337000000000002,-0.04362,-0.004077,0.004524,-0.009792,-0.007983
740,2.393568,-0.0016820000000000001,-2.570163,0.680185,0.0016820000000000001,0.7330260000000001,0.021113,-0.032957,-0.003052,-0.007608,-0.008854,-0.010705
741,2.392897,-0.0019920000000000003,-2.570361,0.6806760000000001,0.0019920000000000003,0.7325689999999999,0.01686,-0.030807,-0.0041530000000000004,-0.010175,-0.009637,-0.004343
742,2.392344,-0.0022660000000000002,-2.570512,0.681081,0.0022660000000000002,0.732192,0.014740000000000001,-0.026543,-0.003105,-0.007298000000000001,-0.01162,-0.009231
743,2.391843,-0.0024980000000000002,-2.5706759999999997,0.681447,0.0024980000000000002,0.731851,0.013678000000000001,-0.022291,8.7e-05,-0.005147,-0.010738,-0.003961
744,2.391499,-0.0026449999999999998,-2.57082,0.6816989999999999,0.0026449999999999998,0.7316159999999999,0.010516,-0.013757,5.4000000000000005e-05,-0.001935,-0.011632,-0.0013
745,2.3913889999999998,-0.002755,-2.570958,0.68178,0.002755,0.731541,0.007359,-0.002037,0.002153,0.00569,-0.005288,-0.00066
746,2.391463,-0.0027329999999999998,-2.571119,0.681726,0.0027329999999999998,0.731592,0.002048,0.005331,0.008579,0.014669999999999999,0.006148,-0.0028469999999999997
747,2.391645,-0.002531,-2.571318,0.681593,0.002531,0.7317170000000001,-0.001167,0.010634999999999999,0.017096,0.017061,0.006823,-0.002255
748,2.3918630000000003,-0.002229,-2.571599,0.681434,0.002229,0.731866,-0.000134,0.00954,0.023514,0.016625,0.006422,-0.0036710000000000002
749,2.391975,-0.001865,-2.572018,0.6813520000000001,0.001865,0.731943,0.001947,0.004181,0.029945,0.016722,2.7000000000000002e-05,-0.016474000000000003
750,2.392066,-0.001402,-2.572444,0.681287,0.001402,0.732005,-0.004454,0.006325,0.032034,0.014438,-0.002592,-0.018123
751,2.392197,-0.000817,-2.572775,0.681191,0.000817,0.7320949999999999,-0.012974000000000001,0.009551,0.03197,0.01374,-0.003594,-0.019967
752,2.3923799999999997,-0.00026000000000000003,-2.5729900000000003,0.6810579999999999,0.00026000000000000003,0.73222,-0.01505,0.014915000000000001,0.024471,0.004993,-0.011093,-0.014431999999999999
753,2.392704,0.00018700000000000002,-2.572982,0.680821,-0.00018700000000000002,0.732441,-0.017098,0.020304,0.010563,0.002941,-0.011501,-0.011371
754,2.393091,0.00049,-2.5727729999999998,0.680537,-0.00049,0.732704,-0.018098,0.02355,-0.001199,-0.004054,-0.011366,-0.007712999999999999
755,2.393537,0.000671,-2.572416,0.6802090000000001,-0.000671,0.733007,-0.019104,0.023528,-0.009669,-0.0031309999999999997,-0.011871,-0.0016690000000000001
756,2.3940040000000002,0.000752,-2.571944,0.679867,-0.000752,0.733325,-0.019061,0.024627,-0.018216,-0.00224,-0.012478,-0.0024289999999999997
757,2.394434,0.000743,-2.571401,0.679552,-0.000743,0.733617,-0.015855,0.022498,-0.021396000000000002,-0.002764,-0.010366,0.000285
758,2.3948810000000003,0.000642,-2.5708439999999997,0.6792239999999999,-0.000642,0.733921,-0.012641,0.021439,-0.025644999999999998,-0.004496,-0.008101,-0.001347
759,2.395254,0.00044,-2.570346,0.67895,-0.00044,0.734175,-0.00733,0.017155,-0.024534,-0.004649,-0.006716,-0.00421
760,2.395502,0.00020299999999999997,-2.569934,0.678768,-0.00020299999999999997,0.7343430000000001,-0.003101,0.009679,-0.023427,-0.000469,-0.002711,-0.005461
761,2.3956169999999997,-5.1e-05,-2.569684,0.6786840000000001,5.1e-05,0.734421,0.002171,0.003239,-0.015903999999999998,0.003933,-0.0018670000000000002,-0.006287
762,2.395597,-0.00025499999999999996,-2.569607,0.6786979999999999,0.00025499999999999996,0.7344069999999999,0.006378,-0.003229,-0.00725,0.0034920000000000003,-0.003215,-0.010042
763,2.3955029999999997,-0.000379,-2.56969,0.678767,0.000379,0.7343430000000001,0.009526,-0.00647,0.001322,0.009053,0.002245,-0.008574
764,2.3952869999999997,-0.0004969999999999999,-2.5699259999999997,0.678926,0.0004969999999999999,0.734197,0.013741,-0.012898,0.0067,0.008239,2.2e-05,-0.006948
765,2.395006,-0.0006230000000000001,-2.570199,0.679132,0.0006230000000000001,0.734006,0.014808000000000002,-0.013962,0.005640999999999999,0.005789,-0.0035840000000000004,-0.005658
766,2.394729,-0.000724,-2.570461,0.679335,0.000724,0.733817,0.010545,-0.011821,0.006677,0.00403,-0.005653,-0.008216
767,2.394518,-0.000779,-2.570661,0.6794899999999999,0.000779,0.7336729999999999,0.006292,-0.009672,0.005576,0.006393,-0.007812999999999999,-0.008331999999999999
768,2.394332,-0.000794,-2.570791,0.6796260000000001,0.000794,0.7335470000000001,0.003111,-0.007520999999999999,0.003415,0.005234,-0.009293000000000001,-0.010326
769,2.394212,-0.00074,-2.570843,0.679714,0.00074,0.733466,-0.001147,-0.004315,0.004449,0.0038640000000000002,-0.009422,-0.009420999999999999
770,2.394156,-0.000717,-2.5708759999999997,0.679755,0.000717,0.733427,0.0010199999999999999,-4.8e-05,0.001254,0.001657,-0.009734999999999999,-0.008467
771,2.39414,-0.000741,-2.570884,0.679767,0.000741,0.733416,0.001987,9.6e-05,-0.001872,0.001019,-0.01014,-0.004915999999999999
772,2.394142,-0.00079,-2.570894,0.679765,0.00079,0.733418,0.0019920000000000003,0.001161,-0.001873,0.001097,-0.010159,-0.007984
773,2.3941049999999997,-0.0008609999999999999,-2.57092,0.679792,0.0008609999999999999,0.7333930000000001,0.0030440000000000003,-0.002039,-0.0018620000000000002,0.00197,-0.010322,-0.005457
774,2.394014,-0.0009570000000000001,-2.570933,0.67986,0.0009570000000000001,0.7333310000000001,0.004106,-0.004169,-0.00292,0.002193,-0.008282,-0.006036
775,2.393958,-0.001076,-2.570937,0.679901,0.001076,0.7332930000000001,0.005188,-0.002038,-0.0039829999999999996,0.0032049999999999995,-0.006447,-0.005845
776,2.3939310000000003,-0.0012050000000000001,-2.57096,0.67992,0.0012050000000000001,0.733274,0.00625,-0.002046,-0.002908,0.006542,-0.005539,-0.005613
777,2.393854,-0.00134,-2.570968,0.679976,0.00134,0.733222,0.004106,-0.005229999999999999,-0.003987,0.006242,-0.005567,-0.007239
778,2.39375,-0.001422,-2.570966,0.680053,0.001422,0.733151,0.003039,-0.004164999999999999,-0.002927,0.0018170000000000003,-0.00391,-0.008542000000000001
779,2.3936889999999997,-0.001467,-2.570957,0.6800970000000001,0.001467,0.73311,-0.000392,-0.0017109999999999998,-0.001848,0.00020099999999999998,-0.0052060000000000006,-0.009553
780,2.393613,-0.001491,-2.570928,0.680153,0.001491,0.733058,-0.000397,-0.0038369999999999997,-0.002913,0.005729,-0.0037799999999999995,-0.008845
781,2.393555,-0.0014609999999999998,-2.5708740000000003,0.680195,0.0014609999999999998,0.733019,-0.0046689999999999995,-0.001704,0.000259,0.007045,-0.007137,-0.007784
782,2.393509,-0.001382,-2.570834,0.680229,0.001382,0.732988,-0.003607,-0.0017120000000000002,0.001335,0.005867,-0.007669,-0.0038929999999999998
783,2.393504,-0.001341,-2.570822,0.680234,0.001341,0.732984,-0.000392,-0.00065,-0.000781,0.001666,-0.007856,-0.0032329999999999998
784,2.393524,-0.001356,-2.570854,0.6802189999999999,0.001356,0.7329979999999999,0.002823,0.002535,-0.000762,0.0025050000000000003,-0.00543,-0.006587999999999999
785,2.393568,-0.001371,-2.570871,0.680187,0.001371,0.733028,-0.0014449999999999999,0.003611,0.000275,0.001317,-0.007261,-0.008083
786,2.393621,-0.0013310000000000002,-2.5708580000000003,0.680148,0.0013310000000000002,0.733063,-0.002607,0.00266,0.00011999999999999999,0.0015539999999999998,-0.007541,-0.007890000000000001
787,2.3937180000000002,-0.0013109999999999999,-2.570861,0.680076,0.0013109999999999999,0.7331300000000001,-0.001526,0.005852,0.000124,0.0019,-0.007873,-0.007681
788,2.393829,-0.001292,-2.570861,0.679995,0.001292,0.733205,-0.000459,0.005848,0.000131,0.003827,-0.007991,-0.007528
789,2.3939779999999997,-0.001294,-2.570826,0.679886,0.001294,0.7333069999999999,-0.0015019999999999999,0.007995,-0.003084,0.0056,-0.007168000000000001,-0.006012
790,2.394124,-0.001308,-2.5706919999999998,0.679779,0.001308,0.733406,-0.004693,0.006954000000000001,-0.006309,0.004867,-0.008525,-0.005074
791,2.394195,-0.001259,-2.570557,0.6797270000000001,0.001259,0.733455,-0.00365,0.004807,-0.003095,0.00046399999999999995,-0.0070420000000000005,-0.006099
