,attitude.roll,attitude.pitch,attitude.yaw,gravity.x,gravity.y,gravity.z,rotationRate.x,rotationRate.y,rotationRate.z,userAcceleration.x,userAcceleration.y,userAcceleration.z
0,-2.271634,-0.337649,0.016455,-0.721147,0.33127,0.6084470000000001,0.008273,0.002617,0.004189,0.0032359999999999997,-0.006502,0.001889
1,-2.271586,-0.337827,0.016561000000000003,-0.7211310000000001,0.331438,0.608374,0.011474,0.002606,0.004211,0.006698999999999999,-0.005388,0.003198
2,-2.2715419999999997,-0.337922,0.01665,-0.721133,0.331527,0.608323,0.009266,0.001562,0.0030489999999999996,0.011249,-0.003478,0.004943
3,-2.2714950000000003,-0.337966,0.01675,-0.721151,0.331569,0.608278,0.005012,0.000529,-0.0012519999999999999,0.011129,-0.003154,0.005536999999999999
4,-2.271489,-0.337928,0.016850999999999998,-0.721164,0.33153299999999997,0.608282,0.003946,-0.0015890000000000001,-0.003393,0.00838,-0.005422,0.0033049999999999998
5,-2.271518,-0.337888,0.016981,-0.721156,0.331496,0.6083109999999999,0.007161,-0.0005269999999999999,-0.005508,0.007167,-0.006178,0.0031079999999999997
6,-2.2714380000000003,-0.337892,0.017169,-0.721204,0.331499,0.6082529999999999,0.009309,0.0026620000000000003,-0.005497999999999999,0.008085,-0.008593,0.003319
7,-2.271404,-0.337907,0.017345,-0.721221,0.331513,0.608225,0.006103,0.002669,-0.004452,0.007842,-0.007996,0.002752
8,-2.271416,-0.337914,0.017429,-0.721212,0.33152,0.608232,0.005017,0.0026550000000000002,-0.00018600000000000002,0.006612000000000001,-0.010001999999999999,0.005064
9,-2.271346,-0.337985,0.017488,-0.721236,0.33158699999999997,0.608167,0.006075,0.002643,0.001957,0.006347,-0.00894,0.004565
10,-2.271256,-0.338065,0.017571,-0.721271,0.331662,0.608085,0.008092,0.005841,0.001913,0.006885,-0.0081,0.002694
11,-2.271215,-0.338146,0.017669999999999998,-0.721275,0.331739,0.608038,0.008072,0.002641,0.0029850000000000002,0.007576,-0.008786,0.001535
12,-2.271173,-0.338254,0.017753,-0.7212729999999999,0.331841,0.607985,0.008068,0.000515,0.0019199999999999998,0.008367,-0.008003,0.0032670000000000004
13,-2.2712790000000003,-0.338258,0.017838,-0.721208,0.33184400000000003,0.60806,0.005915,-0.005861,-0.00022400000000000002,0.0085,-0.0079,0.0013
14,-2.2714119999999998,-0.338278,0.017907,-0.721122,0.331863,0.608152,0.0027140000000000003,-0.006911,-0.0013130000000000001,0.006705,-0.005111999999999999,0.0034659999999999995
15,-2.2715490000000003,-0.33821599999999996,0.017948,-0.721054,0.331804,0.608264,0.0006,-0.004764,-0.003467,0.005234,-0.000185,0.004697
16,-2.271648,-0.338093,0.018083000000000002,-0.721025,0.331689,0.608362,0.003834,-0.002623,-0.008787999999999999,0.00551,-0.004449,0.002844
17,-2.27164,-0.337964,0.018269999999999998,-0.721063,0.331567,0.608383,0.0027719999999999997,-0.0026149999999999997,-0.009864,0.00512,-0.010598999999999999,0.0006259999999999999
18,-2.271675,-0.337889,0.018412,-0.721061,0.331496,0.608425,0.003684,-0.001529,-0.004507,0.001273,-0.01187,0.001835
19,-2.271744,-0.337909,0.018558,-0.721014,0.331515,0.608471,0.00688,-0.002606,-0.004483,0.01087,-0.007601,0.0035590000000000005
20,-2.271815,-0.337887,0.018711000000000002,-0.7209770000000001,0.331494,0.608526,0.004737,-0.00579,-0.005562,0.011763,-0.010006999999999999,0.003793
21,-2.271931,-0.337808,0.018849,-0.7209260000000001,0.33142,0.608627,0.001531,-0.007905,-0.00665,0.012201,-0.008117000000000001,0.004913
22,-2.272077,-0.33762800000000004,0.018971000000000002,-0.720882,0.33125,0.60877,0.003679,-0.005777,-0.007706,0.005291,-0.005399,0.006815000000000001
23,-2.2720759999999998,-0.337541,0.019175,-0.720905,0.33116799999999996,0.608788,0.006913,-0.000454,-0.009826999999999999,0.0061990000000000005,-0.005423,0.0038520000000000004
24,-2.2719720000000003,-0.337509,0.01942,-0.7209770000000001,0.331138,0.6087199999999999,0.010124,0.003788,-0.007673,0.007735,-0.007682,0.002089
25,-2.2719110000000002,-0.337446,0.01963,-0.7210300000000001,0.33107800000000004,0.60869,0.007807,0.00381,-0.007661,0.007941,-0.0063560000000000005,0.003752
26,-2.271851,-0.337354,0.019808000000000003,-0.721089,0.330992,0.608666,0.004592000000000001,0.0006259999999999999,-0.007679999999999999,0.008687,-0.00868,0.005241
27,-2.271839,-0.33725900000000003,0.01994,-0.721121,0.330902,0.6086779999999999,0.001377,-0.001498,-0.006631000000000001,0.008565999999999999,-0.007675,0.002269
28,-2.2719009999999997,-0.337122,0.019974000000000002,-0.721117,0.33077199999999995,0.6087520000000001,-0.0018280000000000002,-0.00043,-0.004519,0.006487000000000001,-0.007851,0.0017059999999999998
29,-2.271946,-0.337015,0.02002,-0.721116,0.330671,0.608807,0.001367,-0.001507,-0.004495,0.0067,-0.00987,0.00336
30,-2.271992,-0.33697699999999997,0.020089,-0.7210979999999999,0.330635,0.608848,0.00242,-0.002584,-0.00235,0.007384,-0.011238,0.003151
31,-2.272063,-0.336963,0.020131,-0.721059,0.330623,0.608902,0.003482,-0.001531,-0.000207,0.006412999999999999,-0.010707,0.0043490000000000004
32,-2.272075,-0.337009,0.020208,-0.721039,0.330665,0.608901,0.006678,-0.00048499999999999997,0.00195,0.007111,-0.008934000000000001,0.004456
33,-2.2720689999999997,-0.33710999999999997,0.020315,-0.721017,0.330761,0.608875,0.0077540000000000005,-0.000481,-0.00017900000000000001,0.005654,-0.008572,0.0035520000000000005
34,-2.272112,-0.33708699999999997,0.020387,-0.720996,0.33074000000000003,0.608911,0.004367,-0.001536,-0.00231,0.009464,-0.005758,0.0044469999999999996
35,-2.272208,-0.33703099999999997,0.020506,-0.720952,0.330687,0.608992,0.0043619999999999996,-0.005785,-0.005509,0.009267000000000001,-0.005385,0.005113
36,-2.272304,-0.336948,0.020633000000000002,-0.720915,0.330608,0.609078,0.005438,-0.004719,-0.006571,0.006422,-0.009487,0.002769
37,-2.272345,-0.336918,0.020765000000000002,-0.720897,0.33058000000000004,0.609114,0.005443,-0.00047000000000000004,-0.003372,0.009441,-0.007826000000000001,0.005052
38,-2.272367,-0.33691,0.020908000000000003,-0.720885,0.330573,0.6091310000000001,0.005443,-0.001531,-0.004439,0.012008,-0.010596,0.003875
39,-2.272404,-0.336917,0.021032,-0.720861,0.330579,0.609156,0.005448,0.000595,-0.0033729999999999997,0.00762,-0.012433,0.005452
40,-2.2723150000000003,-0.336966,0.021166,-0.720903,0.330625,0.609082,0.008662999999999999,0.006962,-0.000154,0.007829000000000001,-0.009687000000000001,0.008594
41,-2.2721150000000003,-0.337124,0.021330000000000002,-0.720985,0.33077399999999996,0.608904,0.013796000000000001,0.010104,0.0031149999999999997,0.006476999999999999,-0.010554000000000001,0.00395
42,-2.271932,-0.337301,0.021455000000000002,-0.721051,0.330941,0.608734,0.010581,0.00798,0.004164,0.00868,-0.009988,0.002304
43,-2.271832,-0.337393,0.021537999999999998,-0.721089,0.33102800000000004,0.608642,0.007370999999999999,0.003739,0.00201,0.009082999999999999,-0.006657,0.006423999999999999
44,-2.27183,-0.337405,0.021588,-0.721087,0.33103899999999997,0.608639,0.004171,0.002689,0.000921,0.005664,-0.00914,0.003971
45,-2.271782,-0.337463,0.021593,-0.721102,0.331095,0.608591,0.0030989999999999998,0.003749,0.0030489999999999996,0.0058,-0.008676,0.002493
46,-2.271779,-0.337519,0.021528,-0.72109,0.33114699999999997,0.608577,0.002027,0.003749,0.004109000000000001,0.0024920000000000003,-0.0025800000000000003,0.0055119999999999995
47,-2.271785,-0.33755799999999997,0.021558,-0.721076,0.33118400000000003,0.6085729999999999,0.006314,0.003751,-0.000134,0.006263,-0.009696999999999999,0.003243
48,-2.271729,-0.33759,0.021633000000000003,-0.721102,0.331214,0.608527,0.004171,0.001628,-0.000146,0.006716,-0.011893,0.003992
49,-2.271705,-0.33764299999999997,0.021715,-0.721104,0.331264,0.608498,0.007370999999999999,0.0016170000000000002,-0.000123,0.0038950000000000005,-0.012142,0.005455
50,-2.271693,-0.33772399999999997,0.021852,-0.72109,0.331341,0.608472,0.009308,-0.001582,-0.001131,0.011633,-0.009609,0.0062439999999999996
51,-2.2716790000000002,-0.337812,0.022061,-0.721076,0.331424,0.6084430000000001,0.012513,-0.00265,-0.003244,0.012107,-0.007541,0.005097
52,-2.271709,-0.337823,0.022308,-0.721055,0.331434,0.608463,0.010389,-0.0036950000000000004,-0.006462000000000001,0.009843000000000001,-0.008558,0.011853
53,-2.271706,-0.337794,0.022524000000000002,-0.721065,0.331406,0.608467,0.010408,0.001627,-0.0054009999999999996,0.007564,-0.005936,0.00866
54,-2.271578,-0.337818,0.022747999999999997,-0.721137,0.331429,0.6083689999999999,0.00936,0.004831,-0.00648,0.007681,-0.007744,0.004974
55,-2.2715259999999997,-0.33781700000000003,0.022924,-0.721168,0.331428,0.608332,0.006136,0.0005769999999999999,-0.005429,0.010062999999999999,-0.008674,0.00411
56,-2.271578,-0.337742,0.023038,-0.721156,0.331357,0.6083850000000001,0.002935,0.000588,-0.005452,0.009639,-0.009351,0.006848999999999999
57,-2.271586,-0.33770700000000003,0.0231,-0.72116,0.331325,0.608399,0.000792,0.001648,-0.002263,0.006926000000000001,-0.011484999999999999,0.007553
58,-2.271621,-0.337663,0.023111000000000003,-0.72115,0.331283,0.608433,0.002754,0.003786,-1e-05,0.008092,-0.011276000000000001,0.004024
59,-2.2715330000000002,-0.33771,0.02315,-0.721192,0.331327,0.60836,0.004883,0.004835,0.00214,0.007279000000000001,-0.011212999999999999,0.004998
60,-2.27144,-0.337812,0.023181,-0.721222,0.331424,0.608271,0.005945000000000001,0.005888,0.0042829999999999995,0.008057,-0.011935,0.004476
61,-2.271364,-0.3379,0.023211000000000002,-0.721246,0.33150599999999997,0.6081979999999999,0.008074,0.005877,0.005365999999999999,0.007898,-0.00953,0.00458
62,-2.271227,-0.338042,0.023297,-0.721294,0.33164,0.608069,0.009151000000000001,0.005881,0.003237,0.008281,-0.009831999999999999,0.005319
63,-2.27113,-0.338158,0.023406,-0.721324,0.33175,0.607974,0.010218000000000001,0.0037560000000000002,0.001111,0.008173999999999999,-0.00921,0.005094
64,-2.271111,-0.33824699999999996,0.023536,-0.721312,0.331834,0.607942,0.010203,0.00056,0.001115,0.0072310000000000004,-0.008485,0.0027300000000000002
65,-2.271111,-0.338323,0.023644,-0.7212930000000001,0.331906,0.607925,0.00685,-0.001521,-0.0009310000000000001,0.008159,-0.010815,0.004181
66,-2.271146,-0.33837399999999995,0.023756,-0.721259,0.33195399999999997,0.607939,0.005778,-0.0036439999999999997,-0.0020039999999999997,0.008734,-0.008758,0.0066549999999999995
67,-2.271245,-0.338363,0.023849000000000002,-0.721201,0.331943,0.608013,0.004707,-0.0036439999999999997,-0.0009429999999999999,0.007594,-0.011341,0.005757
68,-2.2712950000000003,-0.338379,0.023944999999999998,-0.721167,0.331958,0.608046,0.005788000000000001,-0.001513,-0.002007,0.009466,-0.009798999999999999,0.006502
69,-2.271316,-0.338398,0.024030000000000003,-0.7211489999999999,0.33197600000000005,0.608056,0.004716,-0.0015140000000000002,-0.0009460000000000001,0.009815,-0.010976999999999999,0.006552
70,-2.2714119999999998,-0.338381,0.024055,-0.7210949999999999,0.331961,0.608129,0.002573,-0.002576,0.000109,0.008952,-0.010244,0.0070290000000000005
71,-2.27147,-0.3384,0.024079,-0.721055,0.331978,0.608167,0.002578,-0.00045,0.001174,0.009034,-0.011162,0.007678
72,-2.271473,-0.338452,0.024124,-0.72104,0.332027,0.608158,0.005783,0.001666,0.002262,0.008958,-0.010494,0.007503
73,-2.271432,-0.33853099999999997,0.024199000000000002,-0.7210449999999999,0.33210100000000004,0.608112,0.007758,0.003804,0.0023710000000000003,0.011054000000000001,-0.011101999999999999,0.008267
74,-2.271369,-0.338638,0.024281999999999998,-0.721056,0.332202,0.6080439999999999,0.007753,0.0038,0.003439,0.011095,-0.010578,0.006977
75,-2.271302,-0.33869699999999997,0.024378999999999998,-0.721082,0.332258,0.6079829999999999,0.006695,0.002751,0.00022799999999999999,0.009061,-0.012556,0.004719
76,-2.271282,-0.33876999999999996,0.024437,-0.721076,0.332327,0.607952,0.006681,0.002738,0.003433,0.006293,-0.009467,0.006183
77,-2.271273,-0.338823,0.024462,-0.721069,0.332377,0.607935,0.0045520000000000005,0.003811,0.0034159999999999998,0.004592000000000001,-0.0066170000000000005,0.00878
78,-2.2711669999999997,-0.338859,0.024529,-0.721123,0.332412,0.60785,0.007781999999999999,0.0070090000000000005,0.00022999999999999998,0.004967,-0.006652,0.008513
79,-2.270972,-0.338898,0.024669999999999997,-0.721232,0.332448,0.6077020000000001,0.006729000000000001,0.009147,-0.000848,0.008814,-0.012059,0.001276
80,-2.270879,-0.338927,0.024743,-0.7212810000000001,0.332475,0.607629,0.005629,0.0038159999999999995,0.001287,0.010176000000000001,-0.012863999999999999,0.003638
81,-2.2708779999999997,-0.338975,0.024818,-0.72127,0.332521,0.607617,0.005614,-0.00044100000000000004,0.000225,0.011461,-0.011201000000000001,0.007174
82,-2.270925,-0.339005,0.02487,-0.721234,0.332549,0.607645,0.005439,0.000599,0.000275,0.008297,-0.012527,0.005606
83,-2.2709189999999997,-0.339035,0.024950999999999997,-0.721229,0.332577,0.607635,0.005444,0.000603,-0.000794,0.010306999999999998,-0.010205,0.008270999999999999
84,-2.270874,-0.339066,0.025087,-0.721249,0.33260700000000004,0.607596,0.007587000000000001,0.000604,-0.002915,0.009243000000000001,-0.008570999999999999,0.006784
85,-2.270826,-0.339073,0.025228,-0.721276,0.332613,0.60756,0.007601999999999999,0.0038,-0.002919,0.004357,-0.010195000000000001,0.008544
86,-2.270746,-0.339071,0.02537,-0.721326,0.332611,0.6075020000000001,0.007592,0.002731,-0.00185,0.005994,-0.009598,0.006848000000000001
87,-2.270692,-0.33910100000000004,0.025478999999999998,-0.7213510000000001,0.33263899999999996,0.607457,0.006516,0.002726,0.000279,0.010719,-0.011579,0.0088
88,-2.270675,-0.339111,0.025559000000000002,-0.721359,0.332649,0.607442,0.004382,0.0016719999999999999,-0.000802,0.009719,-0.012214000000000001,0.0057469999999999995
89,-2.270702,-0.33911199999999997,0.025581,-0.721342,0.33265,0.6074609999999999,0.002041,0.0016420000000000002,0.0013880000000000001,0.009214,-0.011224,0.007147
90,-2.270685,-0.33916799999999997,0.025587000000000002,-0.721338,0.332703,0.607437,0.003104,0.002695,0.0035299999999999997,0.007273000000000001,-0.011840999999999999,0.005752
91,-2.2706779999999998,-0.33923000000000003,0.025563,-0.721326,0.33276100000000003,0.607418,0.004175,0.004818,0.004603,0.008985,-0.009717,0.007784999999999999
92,-2.270634,-0.339326,0.025596,-0.721329,0.332851,0.607367,0.007384999999999999,0.005876,0.003556,0.008681999999999999,-0.010921,0.008463
93,-2.270541,-0.339446,0.025633999999999997,-0.721354,0.332965,0.607274,0.006304,0.0037450000000000005,0.004619,0.010462,-0.011233,0.006770999999999999
94,-2.2705319999999998,-0.339507,0.02565,-0.721344,0.333022,0.607254,0.0030989999999999998,0.0005690000000000001,0.0024649999999999997,0.008407,-0.01036,0.006973
95,-2.270604,-0.339504,0.025682,-0.721301,0.33302,0.607306,0.0041659999999999996,-0.001557,0.000338,0.008212,-0.010556,0.008508
96,-2.270621,-0.339545,0.025722000000000002,-0.72128,0.33305799999999997,0.607309,0.00417,-0.000492,0.000337,0.006986,-0.011434,0.008596
97,-2.270614,-0.3396,0.025811,-0.72127,0.33311,0.6072930000000001,0.008438,0.0005549999999999999,0.001434,0.008318,-0.012706,0.006919
98,-2.270609,-0.33965,0.025924000000000003,-0.7212609999999999,0.33315700000000004,0.607279,0.008246,0.001573,0.000397,0.008537999999999999,-0.012768,0.006735
99,-2.270588,-0.33970700000000004,0.026010000000000002,-0.721259,0.33321100000000003,0.607251,0.005045,0.000523,-0.000692,0.009481999999999999,-0.011356999999999999,0.0069299999999999995
100,-2.270595,-0.339719,0.026057999999999998,-0.721252,0.33322199999999996,0.607254,0.003978,0.001588,0.000367,0.007186,-0.012406,0.008133
101,-2.2706310000000003,-0.339717,0.026064999999999998,-0.72123,0.333221,0.60728,0.003964,0.0005139999999999999,0.0025050000000000003,0.006966,-0.011245,0.007908
102,-2.270632,-0.339804,0.026087,-0.721208,0.333303,0.607262,0.006097999999999999,0.0005070000000000001,0.00252,0.005189,-0.010320000000000001,0.0070409999999999995
103,-2.270639,-0.339861,0.026137,-0.7211890000000001,0.333356,0.607255,0.0061070000000000004,0.001576,0.001451,0.009168,-0.011594,0.008971
104,-2.270586,-0.339975,0.026229000000000002,-0.721192,0.333464,0.607193,0.008236,0.001564,0.002534,0.009278,-0.012709,0.007905
105,-2.270486,-0.34007600000000004,0.026317,-0.7212270000000001,0.333559,0.6070979999999999,0.00826,0.00583,0.00146,0.008641,-0.008089,0.008563
106,-2.270428,-0.34011199999999997,0.026404,-0.7212529999999999,0.333592,0.607049,0.0059240000000000004,0.0026149999999999997,0.000399,0.008698000000000001,-0.014149,0.006293
107,-2.270396,-0.340181,0.026487,-0.721255,0.333658,0.607011,0.003786,0.001558,0.00038500000000000003,0.00957,-0.011133,0.006469
108,-2.270413,-0.34021,0.026511,-0.721237,0.333685,0.607017,0.003781,0.001553,0.001454,0.006622,-0.008123,0.010048
109,-2.2704020000000003,-0.34018000000000004,0.026550999999999998,-0.721252,0.33365700000000004,0.607016,0.00381,0.003701,-0.002822,0.006591,-0.011604999999999999,0.007821999999999999
110,-2.270306,-0.340165,0.026645,-0.721314,0.33364299999999997,0.606949,0.004881,0.005823,-0.001749,0.00882,-0.014490000000000001,0.004867
111,-2.270195,-0.34019299999999997,0.026702999999999998,-0.721374,0.333669,0.606863,0.004877,0.00688,0.000386,0.010162000000000001,-0.015462,0.008539
112,-2.2701029999999998,-0.340264,0.026756,-0.7214109999999999,0.33373600000000003,0.6067819999999999,0.005929,0.0047420000000000006,0.001465,0.013159,-0.012813,0.007018000000000001
113,-2.270021,-0.340334,0.026826999999999997,-0.7214430000000001,0.333802,0.606708,0.005929,0.0047420000000000006,0.001465,0.014549000000000001,-0.012559,0.008511
114,-2.269935,-0.340354,0.026902,-0.72149,0.333821,0.606641,0.004671,0.003638,-0.000687,0.011590000000000001,-0.012166,0.010074
115,-2.269907,-0.340334,0.026958,-0.721512,0.333802,0.606625,0.003604,0.002581,-0.001761,0.009476,-0.011201000000000001,0.008518000000000001
116,-2.269845,-0.340355,0.027025999999999998,-0.721545,0.333822,0.606576,0.006804999999999999,0.004692,0.000395,0.005999,-0.013753999999999999,0.007941
117,-2.269733,-0.340418,0.027119,-0.721597,0.333881,0.606482,0.007881,0.00788,0.001467,0.008020000000000001,-0.012439,0.006143
118,-2.2696330000000002,-0.340507,0.027175,-0.721635,0.333965,0.606391,0.005733,0.005752,0.002522,0.009019,-0.010967,0.007698999999999999
119,-2.269567,-0.340582,0.027205,-0.7216560000000001,0.33403499999999997,0.606328,0.004661,0.004691,0.002516,0.008612,-0.013219,0.008570999999999999
120,-2.269525,-0.340631,0.027183,-0.721668,0.334082,0.606286,0.002523,0.005755,0.004636,0.008259,-0.013175,0.006629
121,-2.269468,-0.34070300000000003,0.027107,-0.721685,0.33415,0.60623,0.001261,0.006751000000000001,0.006765,0.00852,-0.014707,0.005281
122,-2.269422,-0.34081999999999996,0.027025999999999998,-0.721683,0.33426,0.606171,0.001247,0.0046170000000000004,0.007836,0.00806,-0.015305000000000001,0.00978
123,-2.2694099999999997,-0.340952,0.026933999999999996,-0.7216560000000001,0.334385,0.6061340000000001,0.0033759999999999997,0.004605,0.008919,0.008994,-0.013935,0.008581
124,-2.269399,-0.341087,0.026846,-0.7216279999999999,0.334512,0.606097,0.0044329999999999994,0.003532,0.009996,0.00799,-0.013055,0.008451
125,-2.269351,-0.34124299999999996,0.026768,-0.721617,0.33465900000000004,0.606029,0.004443,0.0056619999999999995,0.009993,0.008619,-0.012209999999999999,0.009419
126,-2.269326,-0.34142100000000003,0.02671,-0.721587,0.334826,0.605973,0.0055049999999999995,0.003532,0.008935,0.006895999999999999,-0.009904999999999999,0.007384999999999999
127,-2.269348,-0.341569,0.026685000000000004,-0.721535,0.334966,0.605957,0.005495,-0.00072,0.006804000000000001,0.011651,-0.010976,0.007751999999999999
128,-2.269479,-0.34165999999999996,0.02663,-0.721433,0.335052,0.606032,0.0033520000000000004,-0.002844,0.006792,0.00903,-0.009840999999999999,0.009889
129,-2.269567,-0.341767,0.026586000000000002,-0.721352,0.33515300000000003,0.606072,0.0022949999999999997,-0.000709,0.006781999999999999,0.008706,-0.012246,0.010765
130,-2.269573,-0.341914,0.026537,-0.7213109999999999,0.335291,0.6060439999999999,0.006393,0.003464,0.008921,0.006559000000000001,-0.012963999999999998,0.007847
131,-2.269536,-0.342077,0.02648,-0.721291,0.335445,0.6059829999999999,0.00534,0.006663,0.008909,0.009406999999999999,-0.012996,0.008336
132,-2.269473,-0.34225700000000003,0.026456999999999998,-0.721283,0.33561399999999997,0.605899,0.006398,0.003468,0.007852,0.01059,-0.013058000000000002,0.007718000000000001
133,-2.2694919999999996,-0.342396,0.026378,-0.721236,0.33574499999999996,0.6058819999999999,0.0031829999999999996,0.001344,0.008901000000000001,0.010283,-0.012944999999999998,0.009444
134,-2.269504,-0.34252,0.026274000000000002,-0.721197,0.335862,0.6058640000000001,0.004264,0.004536999999999999,0.008904,0.012136,-0.014908000000000001,0.010484
135,-2.269464,-0.342679,0.026222000000000002,-0.72118,0.336011,0.605801,0.005336,0.003476,0.006776999999999999,0.012866999999999998,-0.011136,0.011722
136,-2.2694650000000003,-0.34279299999999996,0.026215,-0.72115,0.336119,0.605777,0.00534,0.002419,0.004642,0.011890999999999999,-0.011977,0.010602
137,-2.2694970000000003,-0.34283600000000003,0.02623,-0.721119,0.33615900000000004,0.6057899999999999,0.005161,0.001301,0.003546,0.008549,-0.016137000000000002,0.011106999999999999
138,-2.269469,-0.342972,0.026216000000000003,-0.721101,0.33628800000000003,0.60574,0.005152,0.003415,0.007816,0.007097,-0.014144,0.008823000000000001
139,-2.269419,-0.343124,0.026116000000000004,-0.721092,0.33643,0.6056729999999999,0.0040939999999999995,0.007670999999999999,0.009940000000000001,0.004952000000000001,-0.00945,0.010477
140,-2.269304,-0.343279,0.026095999999999998,-0.721122,0.33657600000000004,0.6055560000000001,0.008395,0.01193,0.0067599999999999995,0.003913000000000001,-0.014112000000000001,0.008061
141,-2.269055,-0.343464,0.026121,-0.721225,0.336751,0.605336,0.007328,0.012995,0.007819,0.008868000000000001,-0.015172,0.001902
142,-2.268896,-0.343658,0.026104000000000002,-0.721271,0.336933,0.605179,0.007309,0.009795,0.008891,0.011204,-0.015385,0.006378
143,-2.268907,-0.343826,0.026076,-0.721221,0.337092,0.605151,0.006204,0.000215,0.007828,0.014449000000000002,-0.016000999999999998,0.008313
144,-2.2689630000000003,-0.343972,0.026072,-0.72115,0.337229,0.605159,0.005137,-0.0019030000000000002,0.005686,0.015827,-0.015466999999999998,0.0089
145,-2.269069,-0.344002,0.026026,-0.721078,0.33725700000000003,0.605229,0.002836,-0.000909,0.00565,0.008187,-0.010368,0.010326
146,-2.2690770000000002,-0.344099,0.026017000000000002,-0.721047,0.33734899999999995,0.605214,0.003922,0.002288,0.0045850000000000005,0.006340999999999999,-0.009239,0.009654000000000001
147,-2.268999,-0.344206,0.026052999999999996,-0.721067,0.33745,0.6051340000000001,0.0060799999999999995,0.005485,0.002459,0.0050030000000000005,-0.012376999999999999,0.008803
148,-2.268961,-0.344281,0.02609,-0.721071,0.33752,0.6050909999999999,0.00607,0.004415,0.003529,0.009355,-0.012903999999999999,0.007229000000000001
149,-2.268965,-0.344382,0.026094,-0.721042,0.337615,0.605071,0.003918,0.000162,0.0035189999999999996,0.012882,-0.012832,0.012574
150,-2.2689939999999997,-0.34444,0.026049,-0.72101,0.337669,0.6050800000000001,-0.00035,0.0012369999999999998,0.004556,0.009248000000000001,-0.01432,0.007591
151,-2.268983,-0.344503,0.025957,-0.721,0.337729,0.605058,0.000717,0.004417,0.007764,0.008353,-0.015493999999999999,0.009062
152,-2.268945,-0.34462,0.025876999999999997,-0.720992,0.337839,0.605005,0.003922,0.00441,0.006719,0.010298999999999999,-0.016016,0.009146
153,-2.268955,-0.344746,0.025814,-0.720954,0.337957,0.604985,0.006046,0.0043939999999999995,0.008870000000000001,0.009772,-0.013616,0.009563
154,-2.268914,-0.344898,0.025761000000000003,-0.720938,0.33810100000000004,0.6049220000000001,0.004825,0.005359,0.007753,0.008856000000000001,-0.011502,0.011014
155,-2.268878,-0.34503,0.025702,-0.7209260000000001,0.33822399999999997,0.604867,0.004825,0.004298,0.006686,0.009073000000000001,-0.011609999999999999,0.009314
156,-2.268856,-0.34515300000000004,0.025644,-0.720907,0.33834000000000003,0.604824,0.002691,0.004306,0.006670999999999999,0.010077,-0.013144999999999999,0.009372
157,-2.268827,-0.345275,0.025624,-0.720893,0.338455,0.6047779999999999,0.004825,0.003237,0.005619,0.010627,-0.014542,0.009557
158,-2.268782,-0.345408,0.025620999999999998,-0.7208859999999999,0.338581,0.604716,0.00483,0.004302,0.005618,0.007690000000000001,-0.013156999999999999,0.009268
159,-2.268742,-0.345515,0.025611000000000002,-0.720882,0.338681,0.6046630000000001,0.00483,0.004302,0.005618,0.009014,-0.015316999999999999,0.011136
160,-2.26871,-0.345642,0.025574,-0.720869,0.338801,0.604613,0.0048200000000000005,0.004294,0.0077540000000000005,0.006696,-0.013438,0.009142
161,-2.2686330000000003,-0.345781,0.025559000000000002,-0.720879,0.338931,0.604527,0.005906000000000001,0.007490000000000001,0.006690000000000001,0.008309,-0.0125,0.008998
162,-2.268525,-0.345921,0.025537,-0.720908,0.339064,0.6044189999999999,0.005751,0.007379999999999999,0.007645999999999999,0.009940000000000001,-0.013578,0.006711
163,-2.26848,-0.346017,0.025501,-0.72091,0.339154,0.6043649999999999,0.0036130000000000003,0.005261,0.0065650000000000005,0.010369,-0.010006999999999999,0.011373000000000001
164,-2.268446,-0.34615,0.025463999999999997,-0.720895,0.339279,0.604312,0.0036030000000000003,0.00207,0.005501,0.011469,-0.011932,0.010221
165,-2.268448,-0.346208,0.025465,-0.72088,0.339333,0.6043,0.0036079999999999997,-4.8e-05,0.002299,0.013969999999999998,-0.014596000000000001,0.009590999999999999
166,-2.268519,-0.34624099999999997,0.025463999999999997,-0.720828,0.339364,0.604345,0.0035979999999999996,-5.6999999999999996e-05,0.004435000000000001,0.00748,-0.014015999999999999,0.010447
167,-2.268527,-0.34632399999999997,0.025391,-0.720802,0.339442,0.604332,0.00147,0.0041990000000000005,0.00762,0.006004,-0.007838,0.011023999999999999
168,-2.268386,-0.346436,0.025378,-0.720858,0.339548,0.604206,0.005775,0.0074010000000000005,0.002305,0.007815,-0.007059,0.011898
169,-2.268271,-0.346502,0.025455000000000002,-0.72091,0.339609,0.604109,0.006697,0.007298999999999999,0.0010869999999999999,0.012139,-0.016245,0.007081999999999999
170,-2.268225,-0.346547,0.025580000000000002,-0.7209270000000001,0.339652,0.604066,0.008811,-0.000153,-0.002094,0.013682,-0.01493,0.007781000000000001
171,-2.268267,-0.346542,0.025730000000000003,-0.720903,0.339647,0.604097,0.004539,-0.004386,-0.005323,0.016832,-0.014452000000000001,0.009474
172,-2.268373,-0.34647100000000003,0.025823000000000002,-0.720857,0.339581,0.6041890000000001,0.001334,-0.0054399999999999995,-0.005344,0.012863999999999999,-0.009319,0.010069
173,-2.268431,-0.34631,0.025907,-0.7208640000000001,0.339429,0.604266,-0.000771,-0.001163,-0.0075,0.008339,-0.008359,0.012525
174,-2.268393,-0.346098,0.026011000000000003,-0.7209409999999999,0.33923000000000003,0.604284,0.00032900000000000003,0.004168,-0.009636,0.005869,-0.011227,0.010767
175,-2.268323,-0.345914,0.026158999999999998,-0.721032,0.33905599999999997,0.604274,0.002468,0.002043,-0.012823,0.010781,-0.015158000000000001,0.006489
176,-2.268383,-0.34569,0.026281,-0.7210529999999999,0.338846,0.604366,0.000305,-0.003281,-0.011763,0.014068,-0.019831,0.008305
177,-2.2684900000000003,-0.34549,0.026363,-0.7210409999999999,0.338658,0.604486,-0.003991,-0.005413,-0.007517,0.014055000000000002,-0.019643,0.008184
178,-2.268571,-0.345341,0.026387999999999998,-0.7210300000000001,0.338518,0.604577,0.001206,0.002951,-0.0044659999999999995,0.00521,-0.014269,0.013494999999999998
179,-2.2684759999999997,-0.345315,0.026425,-0.721094,0.338493,0.604514,0.004407,0.008245,0.000891,0.004647999999999999,-0.016106,0.004998
180,-2.268306,-0.345431,0.026506000000000002,-0.721167,0.338602,0.604367,0.009732,0.008218000000000001,0.003064,0.010931,-0.015847999999999998,0.006992
181,-2.268205,-0.345571,0.026547,-0.721191,0.33873400000000004,0.604264,0.007579000000000001,0.006086,0.005189,0.011032,-0.015874,0.011443
182,-2.268167,-0.345675,0.026558999999999996,-0.721188,0.338832,0.604214,0.005431,0.002898,0.005178,0.009228,-0.014811000000000001,0.005649
183,-2.268221,-0.34576599999999996,0.026521,-0.721132,0.338917,0.604233,0.00112,-0.005614,0.006227,0.009432,-0.013981,0.004776
184,-2.268512,-0.345796,0.026444,-0.7209479999999999,0.338945,0.604436,-0.001042,-0.015181,0.003019,0.007997,-0.011019,0.005183
185,-2.268928,-0.34577199999999997,0.026407,-0.720703,0.338924,0.604741,0.0020109999999999998,-0.017429,0.000729,0.006881,-0.009547,0.009531999999999999
186,-2.2692069999999998,-0.345788,0.026499,-0.72053,0.338938,0.604939,0.00525,-0.012101,-0.00246,0.009196,-0.010935,0.009426
187,-2.269388,-0.34575500000000003,0.026639,-0.720429,0.338907,0.6050770000000001,0.004203,-0.009958,-0.004606,0.008058,-0.013483000000000002,0.010523999999999999
188,-2.269672,-0.34565999999999997,0.026719,-0.720283,0.338818,0.605302,-9.8e-05,-0.016339,-0.0035600000000000002,0.013068000000000001,-0.015362,0.007398999999999999
189,-2.2700169999999997,-0.345556,0.026777999999999996,-0.720101,0.33871999999999997,0.6055729999999999,-0.001161,-0.018453,-0.006769,0.013969999999999998,-0.013418000000000001,0.010973
190,-2.270305,-0.345429,0.026873,-0.719959,0.3386,0.605808,0.003145,-0.008884999999999999,-0.005683,0.009998,-0.017509,0.009594
191,-2.270372,-0.34539200000000003,0.026994,-0.7199270000000001,0.338565,0.605865,0.004222,-0.003575,-0.002478,0.0096,-0.015216,0.009705
192,-2.270412,-0.345371,0.027061,-0.719909,0.338545,0.6058979999999999,0.002093,-0.002502,-0.002494,0.013625,-0.011839,0.012236
193,-2.27053,-0.345319,0.027099,-0.719851,0.338497,0.6059939999999999,0.0019489999999999998,-0.0026260000000000003,-0.002684,0.015962999999999998,-0.015377000000000002,0.012689
194,-2.2705130000000002,-0.34523899999999996,0.027152,-0.719882,0.338422,0.605999,-0.000156,0.002712,-0.003773,0.011614,-0.016125999999999998,0.015078999999999999
195,-2.2704560000000003,-0.345145,0.027103,-0.7199409999999999,0.338333,0.605979,-0.0054859999999999996,0.00804,0.000455,0.010193,-0.012847999999999998,0.011071
196,-2.270407,-0.345026,0.027012,-0.720002,0.338221,0.60597,-0.0033380000000000003,0.006984000000000001,-0.0038009999999999997,0.007294,-0.010325,0.012347
197,-2.2702869999999997,-0.344909,0.027076999999999997,-0.720104,0.338111,0.605909,0.0009539999999999999,0.009112,-0.006979000000000001,0.012142,-0.016288,0.004671
198,-2.270153,-0.344825,0.027172,-0.720208,0.338032,0.605831,0.003059,0.004835,-0.004822,0.010856999999999999,-0.017169999999999998,0.004994
199,-2.270098,-0.344771,0.027272,-0.720255,0.337982,0.6058020000000001,0.00625,0.0037549999999999997,-0.00373,0.009470000000000001,-0.015380000000000001,0.009432
200,-2.270028,-0.34478000000000003,0.027408,-0.720295,0.33799,0.60575,0.006259000000000001,0.004824,-0.0048,0.009784000000000001,-0.014152000000000001,0.007515999999999999
201,-2.269926,-0.34480900000000003,0.027555,-0.720349,0.338017,0.605671,0.007312000000000001,0.003747,-0.002654,0.009839,-0.013447999999999998,0.008419
202,-2.2698009999999997,-0.344841,0.027714,-0.720417,0.338047,0.605574,0.007174,0.004695,-0.0028239999999999997,0.007328,-0.010304,0.007219
203,-2.2697119999999997,-0.34480500000000003,0.027836,-0.72048,0.338014,0.605518,0.003979,0.0036490000000000003,-0.004981,0.008429,-0.010468,0.009472
204,-2.26968,-0.34468899999999997,0.027960000000000002,-0.720529,0.337904,0.60552,0.000773,-0.000588,-0.008203,0.009714,-0.012265999999999999,0.007486
205,-2.269724,-0.344509,0.028054000000000003,-0.720549,0.337735,0.60559,-0.002437,-0.003768,-0.009290000000000001,0.010604,-0.015590999999999999,0.007568999999999999
206,-2.269885,-0.344315,0.028081000000000002,-0.7205020000000001,0.337552,0.605749,-0.004599,-0.008029999999999999,-0.007162999999999999,0.012204000000000001,-0.015546,0.011301
207,-2.270108,-0.344116,0.028075,-0.720418,0.337365,0.605952,-0.004609,-0.0091,-0.006093,0.008672,-0.016701,0.010289
208,-2.270237,-0.343985,0.028052999999999998,-0.720374,0.337241,0.606074,-0.002456,-0.001663,-0.0028829999999999997,0.00936,-0.01551,0.01238
209,-2.270238,-0.343911,0.028055,-0.720392,0.33717199999999997,0.6060909999999999,0.0007639999999999999,0.0036479999999999998,-0.0017989999999999998,0.010232999999999999,-0.013930000000000001,0.010546999999999999
210,-2.270194,-0.34389000000000003,0.028098,-0.720424,0.337152,0.606064,0.001715,0.003563,-0.0018390000000000001,0.007640999999999999,-0.014275999999999999,0.012802000000000001
211,-2.2701580000000003,-0.34387,0.028163,-0.7204510000000001,0.337133,0.606042,0.003839,0.001425,-0.0018219999999999998,0.010185,-0.014746,0.008704
212,-2.2701729999999998,-0.343852,0.028227999999999996,-0.7204470000000001,0.33711599999999997,0.606057,0.002762,-0.0007019999999999999,-0.001827,0.01218,-0.012287000000000001,0.008475
213,-2.27021,-0.34383600000000003,0.028272000000000002,-0.720428,0.33710100000000004,0.606087,0.002762,-0.0007019999999999999,-0.001827,0.011535,-0.014058000000000001,0.010368
214,-2.270193,-0.34384699999999996,0.028364,-0.720436,0.337111,0.606072,0.005968,0.001413,-0.000739,0.008522,-0.014937,0.010947
215,-2.270151,-0.343879,0.028462,-0.720454,0.337142,0.606035,0.007039,0.003536,0.000334,0.009455,-0.012999,0.009153
216,-2.270037,-0.343965,0.028569,-0.7205010000000001,0.337223,0.605934,0.004906000000000001,0.004604,0.0013859999999999999,0.009059999999999999,-0.012958,0.008506999999999999
217,-2.2700110000000002,-0.343972,0.028614999999999998,-0.720514,0.337229,0.605915,0.0015869999999999999,0.001395,-0.000801,0.011118000000000001,-0.012477,0.008954
218,-2.27007,-0.343918,0.028630000000000003,-0.720493,0.33717800000000003,0.605969,0.000515,-0.000727,-0.0018739999999999998,0.010288,-0.011295999999999999,0.010578
219,-2.270131,-0.34387,0.028620999999999997,-0.7204689999999999,0.337133,0.606023,-0.001633,-0.001794,0.000248,0.009974,-0.012609,0.008981999999999999
220,-2.270207,-0.343775,0.028643000000000002,-0.7204470000000001,0.337044,0.6060989999999999,-0.000552,-0.002846,-0.004016,0.010608,-0.012703,0.010112000000000001
221,-2.270308,-0.343647,0.028661000000000002,-0.7204189999999999,0.33692300000000003,0.6062,-0.002681,-0.002834,-0.005099,0.011603,-0.014154,0.010134
222,-2.270339,-0.34351,0.028736,-0.720436,0.336794,0.606252,-0.000537,-0.002833,-0.00722,0.01165,-0.01671,0.010188
223,-2.270436,-0.34341900000000003,0.028817000000000002,-0.7204,0.336708,0.606341,0.001573,-0.004984000000000001,-0.003998,0.008486,-0.016838,0.008985
224,-2.270534,-0.343383,0.028834,-0.72035,0.336675,0.6064189999999999,0.001573,0.000322,0.001336,0.006848999999999999,-0.009602,0.011424
225,-2.270517,-0.34339899999999995,0.028905,-0.720356,0.33668899999999996,0.6064039999999999,0.0058590000000000005,0.001385,-0.0018399999999999998,0.007877,-0.010533,0.012005
226,-2.270467,-0.343411,0.028986,-0.720383,0.33670100000000003,0.606364,0.0047020000000000005,0.0025239999999999998,-0.000767,0.006592,-0.016145,0.006291
227,-2.270429,-0.34346,0.029047000000000003,-0.720394,0.33674699999999996,0.6063270000000001,0.006821,0.003565,0.0035189999999999996,0.011637999999999999,-0.015885,0.012341
228,-2.270404,-0.34355399999999997,0.029108999999999996,-0.720385,0.336835,0.6062890000000001,0.005745,-0.000684,0.0013800000000000002,0.015459,-0.015287,0.011753
229,-2.270444,-0.34360300000000005,0.029181,-0.7203470000000001,0.336882,0.6063069999999999,0.004682,-0.001737,-0.000762,0.015101,-0.014586000000000002,0.010789
230,-2.270491,-0.343567,0.029244,-0.720328,0.336847,0.606349,0.002558,-0.00066,-0.001847,0.010306000000000001,-0.010431000000000001,0.015127000000000002
231,-2.270432,-0.343545,0.029325999999999998,-0.7203689999999999,0.336827,0.6063109999999999,0.003654,0.0036060000000000003,-0.003981,0.010225,-0.010289,0.012952000000000002
232,-2.270396,-0.343457,0.0294,-0.720414,0.336744,0.606304,0.002606,0.005749,-0.0061270000000000005,0.010758,-0.014433000000000001,0.008152
233,-2.270275,-0.343388,0.029521,-0.7205050000000001,0.336679,0.606232,0.002516,0.004686999999999999,-0.005005,0.010117000000000001,-0.014474,0.008011
234,-2.270206,-0.34331799999999996,0.029616000000000003,-0.720565,0.336613,0.606196,0.00037200000000000004,0.002564,-0.005017,0.010665000000000001,-0.01566,0.008366
235,-2.270274,-0.34321,0.029616000000000003,-0.7205520000000001,0.336511,0.60627,-0.0028469999999999997,-0.000625,-0.003967,0.011202,-0.014641999999999999,0.009621
236,-2.2703290000000003,-0.343113,0.029613,-0.720544,0.33642,0.60633,-0.002857,-0.000633,-0.001831,0.007608,-0.0124,0.009835
237,-2.270318,-0.343077,0.029606,-0.7205600000000001,0.336386,0.60633,-0.000714,0.0025510000000000003,-0.000752,0.006586,-0.015066,0.010293
238,-2.270312,-0.343034,0.029632,-0.7205739999999999,0.336346,0.6063350000000001,0.003554,0.001475,-0.001789,0.008462,-0.013119,0.010043999999999999
239,-2.270279,-0.343044,0.0297,-0.720591,0.336356,0.606309,0.004621,0.00041,-0.002848,0.009073999999999999,-0.013647999999999999,0.011413
240,-2.270337,-0.342997,0.029758999999999997,-0.720568,0.336311,0.6063609999999999,0.0014060000000000001,-0.002775,-0.002866,0.011904000000000001,-0.013862000000000001,0.009193999999999999
241,-2.270438,-0.342937,0.029789999999999997,-0.7205229999999999,0.336254,0.606446,0.002408,-0.002769,-0.001698,0.007388,-0.013394,0.011565
242,-2.270477,-0.342928,0.029838999999999997,-0.7205020000000001,0.336246,0.606477,0.0034840000000000006,0.00041900000000000005,-0.0006259999999999999,0.011349,-0.012928,0.010055
243,-2.2704619999999998,-0.342943,0.029908999999999998,-0.720507,0.33626,0.606463,0.0045509999999999995,-0.000646,-0.001686,0.010378,-0.013003,0.009916
244,-2.2705290000000002,-0.342938,0.029947,-0.720467,0.336255,0.606513,0.0034700000000000004,-0.001716,0.00044500000000000003,0.012627,-0.014966,0.012186
245,-2.270571,-0.342955,0.02998,-0.720437,0.336271,0.606539,0.002403,-0.000651,0.001504,0.011193999999999999,-0.013456000000000001,0.014234
246,-2.270584,-0.343001,0.029969,-0.720418,0.33631500000000003,0.606538,0.003475,0.0025329999999999997,0.0036439999999999997,0.010152,-0.014903999999999999,0.012709
247,-2.270577,-0.343025,0.029952,-0.720416,0.336338,0.606528,0.0034840000000000006,0.0046630000000000005,0.0036409999999999997,0.011249,-0.014057,0.011469
248,-2.270499,-0.343123,0.029968,-0.720438,0.33643,0.60645,0.003489,0.004667,0.002573,0.010736,-0.011845,0.010646
249,-2.27045,-0.343186,0.029977999999999998,-0.7204520000000001,0.336489,0.606401,0.002418,0.002545,0.0015,0.013543000000000001,-0.012392,0.011168
250,-2.270466,-0.343177,0.029988,-0.720444,0.33648,0.6064149999999999,0.001284,0.0014880000000000002,0.000504,0.012145999999999999,-0.014627000000000001,0.011017
251,-2.270464,-0.34316399999999997,0.030001,-0.720448,0.336468,0.606416,0.001279,0.00042199999999999996,0.000505,0.009755,-0.01231,0.011687000000000001
252,-2.270466,-0.34314,0.030019,-0.720454,0.336445,0.606422,0.00236,0.001493,-0.001625,0.011744,-0.012440000000000001,0.009621
253,-2.270502,-0.34308,0.030085,-0.7204470000000001,0.336389,0.606462,0.002355,-0.001695,-0.0037579999999999996,0.01099,-0.014718,0.009078
254,-2.270594,-0.343024,0.0301,-0.7204050000000001,0.336337,0.60654,-0.0008640000000000001,-0.002762,-0.0005740000000000001,0.007956999999999999,-0.015338,0.008709999999999999
255,-2.270683,-0.342974,0.030060000000000003,-0.720364,0.33629000000000003,0.606614,0.000212,-0.001696,-0.0016359999999999999,0.005856,-0.009523,0.013015
256,-2.270664,-0.342968,0.030116000000000004,-0.720377,0.336284,0.6066020000000001,0.00558,0.004681,-0.002675,0.00886,-0.013102,0.009563
257,-2.270546,-0.342951,0.030186,-0.720453,0.336268,0.606521,0.0034409999999999996,0.004685,-0.001622,0.009043,-0.013727000000000001,0.0074010000000000005
258,-2.270477,-0.342949,0.030254000000000003,-0.720496,0.336266,0.606472,0.004437,0.002555,-0.00046699999999999997,0.012915000000000001,-0.016228,0.012562
259,-2.2705029999999997,-0.342929,0.030320999999999997,-0.720485,0.33624699999999996,0.606495,0.003351,-0.002763,-0.001536,0.014566999999999998,-0.017093999999999998,0.011531
260,-2.2705509999999998,-0.342916,0.030404,-0.720459,0.336235,0.606532,0.005494,-0.0017010000000000003,-0.002591,0.014694,-0.015907,0.011174
261,-2.2705740000000003,-0.34289400000000003,0.030470999999999998,-0.72045,0.336214,0.606553,0.004422,-0.000641,-0.000463,0.013083000000000001,-0.012941,0.014434
262,-2.270593,-0.34289000000000003,0.03053,-0.72044,0.33621,0.606568,0.003365,0.0014939999999999999,-0.00047300000000000006,0.009457,-0.01222,0.012497
263,-2.270542,-0.342864,0.030587,-0.720477,0.33618600000000004,0.606537,0.004461,0.0068200000000000005,-0.001541,0.009493999999999999,-0.012272,0.010544
264,-2.270408,-0.34289000000000003,0.030673000000000002,-0.7205520000000001,0.33621,0.6064350000000001,0.004465,0.006825,-0.0026089999999999998,0.011857,-0.014921,0.010051000000000001
265,-2.270349,-0.342869,0.030706,-0.720593,0.33619099999999996,0.6063970000000001,9.8e-05,0.002569,-0.001498,0.014325,-0.015436000000000002,0.007815
266,-2.270413,-0.3428,0.030683,-0.720572,0.33612600000000004,0.6064579999999999,-0.0009880000000000002,-0.000627,-0.000433,0.009818,-0.015706,0.010623
267,-2.2704459999999997,-0.34274099999999996,0.030645,-0.720567,0.33607,0.606494,-0.003117,0.000446,-0.000449,0.008989,-0.014186,0.013028
268,-2.270474,-0.34268899999999997,0.03059,-0.720564,0.336021,0.606525,-0.00205,0.001503,0.000625,0.00894,-0.015434,0.008419
269,-2.270516,-0.342688,0.030549,-0.720538,0.33602,0.6065560000000001,0.001141,0.001483,0.002784,0.010669,-0.014624000000000002,0.008449
270,-2.270515,-0.34273400000000004,0.030563,-0.720527,0.336063,0.606545,0.003285,0.001484,0.000662,0.010383,-0.014591,0.010047
271,-2.27052,-0.342763,0.030608,-0.720517,0.336091,0.606542,0.004351,0.00041900000000000005,-0.000397,0.011517,-0.013902000000000001,0.010416
272,-2.270552,-0.342754,0.030639999999999997,-0.7205,0.33608299999999997,0.606568,0.002208,-0.000643,0.000657,0.011027,-0.013297999999999999,0.009887
273,-2.27057,-0.34275100000000003,0.030683,-0.72049,0.33608000000000005,0.606581,0.0022129999999999997,-0.0016989999999999998,-0.001478,0.009949,-0.013813999999999998,0.010515
274,-2.270637,-0.34273899999999996,0.030706999999999998,-0.7204520000000001,0.336069,0.606632,0.001073,-0.002779,-0.000342,0.012825999999999999,-0.014749000000000002,0.011746
275,-2.270709,-0.3427,0.030737,-0.720418,0.33603099999999997,0.606692,0.003221,-0.0006519999999999999,-0.001398,0.010366,-0.012927000000000001,0.013318
276,-2.270697,-0.342674,0.030795,-0.720432,0.336007,0.606689,0.002159,0.000417,-0.001407,0.009205,-0.012306999999999998,0.011796
277,-2.270724,-0.342642,0.030833,-0.720424,0.335977,0.606716,0.001088,-0.000644,-0.001413,0.011226,-0.016015,0.012211
278,-2.270762,-0.342567,0.030857,-0.72042,0.335906,0.606759,3.5e-05,0.0014939999999999999,-0.002491,0.01168,-0.017105000000000002,0.010795
279,-2.270755,-0.342537,0.030851999999999997,-0.720432,0.335878,0.606761,0.002169,0.002548,-0.00141,0.009647,-0.014162000000000001,0.010519
280,-2.270728,-0.342526,0.030854000000000003,-0.7204510000000001,0.335867,0.606744,0.001097,0.0036079999999999997,0.000718,0.011025,-0.01583,0.012442
281,-2.270669,-0.34255,0.030900999999999998,-0.720481,0.33589,0.606696,0.0032359999999999997,0.0036049999999999997,-0.000335,0.009970999999999999,-0.014402000000000002,0.011834
282,-2.270626,-0.342561,0.030923000000000003,-0.720504,0.335901,0.606662,0.003157,0.003582,0.000772,0.010772,-0.014169,0.010846
283,-2.270626,-0.342537,0.030948000000000003,-0.720511,0.335878,0.606668,0.004214,0.001448,0.000782,0.011648,-0.013124,0.009923999999999999
284,-2.270634,-0.342534,0.030973,-0.720507,0.335875,0.6066739999999999,0.003152,0.000395,-0.0013599999999999999,0.012941,-0.014754,0.010849
285,-2.270639,-0.342496,0.031045,-0.720513,0.335839,0.606686,0.001019,-0.002781,-0.004576,0.01342,-0.015252000000000002,0.008853
286,-2.270737,-0.342448,0.031091000000000004,-0.7204659999999999,0.335794,0.6067670000000001,0.001009,-0.00279,-0.002439,0.009315,-0.0142,0.009917
287,-2.27082,-0.34242399999999995,0.031074,-0.720421,0.33577199999999996,0.6068319999999999,-6.7e-05,-0.000672,0.001823,0.006249,-0.010256,0.014125
288,-2.270783,-0.342426,0.031105,-0.7204430000000001,0.335773,0.606804,0.0053,0.002522,-0.002416,0.0064849999999999994,-0.008366,0.01577
289,-2.270668,-0.342438,0.031198000000000004,-0.72051,0.335784,0.606719,0.006314,0.008879000000000001,-0.000246,0.008976999999999999,-0.016876,0.00998
290,-2.270563,-0.342461,0.031246,-0.720568,0.335806,0.606638,0.004161,0.005686999999999999,0.000811,0.01436,-0.017615000000000002,0.009573
291,-2.2705319999999998,-0.342501,0.031306,-0.720576,0.33584400000000003,0.606607,0.00307,-0.0017579999999999998,-0.001323,0.014353,-0.015455000000000002,0.012274
292,-2.2706169999999997,-0.342476,0.031326,-0.72053,0.33582,0.6066739999999999,0.0009310000000000001,-0.002816,-0.0013369999999999999,0.013728,-0.015553999999999998,0.012055
293,-2.270684,-0.342427,0.031341,-0.7205020000000001,0.33577399999999996,0.606733,-0.000131,-0.0017469999999999999,-0.0013460000000000002,0.012020999999999999,-0.012165,0.012881
294,-2.270673,-0.34239899999999995,0.031386000000000004,-0.7205159999999999,0.335748,0.606731,0.002027,0.0025109999999999998,-0.002404,0.009288,-0.013696000000000002,0.013005000000000001
295,-2.270643,-0.342335,0.031469,-0.720551,0.335688,0.6067229999999999,0.0031079999999999997,0.004642,-0.003468,0.008621,-0.013056,0.010083
296,-2.2705889999999997,-0.342289,0.031535,-0.720595,0.335644,0.606694,0.0030989999999999998,0.003573,-0.002398,0.010573,-0.016247,0.010463
297,-2.270543,-0.342281,0.031579,-0.720625,0.33563699999999996,0.606662,0.0009460000000000001,0.001441,-0.00027400000000000005,0.012068,-0.016346,0.007428
298,-2.270577,-0.34223400000000004,0.031587,-0.720617,0.335592,0.606697,0.000859,0.000343,-0.00023700000000000001,0.011266,-0.016501,0.010520999999999999
299,-2.270614,-0.34222600000000003,0.031569,-0.720596,0.33558499999999997,0.606725,0.000849,0.000335,0.0018989999999999999,0.011535,-0.016263999999999997,0.010661
300,-2.2706,-0.342251,0.031523,-0.720597,0.335608,0.606709,-0.000213,0.0024649999999999997,0.0029579999999999997,0.008515,-0.013494999999999998,0.009531999999999999
301,-2.270632,-0.34225,0.031471,-0.7205779999999999,0.335608,0.606733,0.001916,0.001392,0.0029739999999999996,0.009839,-0.013602000000000001,0.009997
302,-2.270665,-0.34229499999999996,0.031466,-0.720547,0.33565,0.606747,0.001907,-0.0007379999999999999,0.0029760000000000003,0.009899,-0.013811000000000002,0.010440999999999999
303,-2.2707,-0.342346,0.031485,-0.720513,0.335698,0.6067600000000001,0.005117,0.00032,0.001929,0.012352,-0.013875,0.010946
304,-2.270702,-0.342379,0.031518,-0.720503,0.335729,0.606755,0.004064,0.001398,-0.00021600000000000002,0.011992000000000001,-0.014836000000000002,0.010020000000000001
305,-2.270741,-0.34237199999999995,0.031552,-0.720481,0.33572199999999996,0.606785,0.00292,-0.0007599999999999999,-0.000198,0.011618999999999999,-0.012739,0.011746
306,-2.270768,-0.342359,0.031589,-0.720468,0.33571,0.606807,0.000787,-0.001814,-0.001279,0.011056,-0.014543,0.010701
307,-2.270851,-0.34231100000000003,0.03161,-0.720429,0.335665,0.606877,0.000791,-0.0028699999999999997,-0.003414,0.00937,-0.015765,0.011775
308,-2.270916,-0.34224,0.031645,-0.720409,0.335598,0.606939,0.000796,-0.0007440000000000001,-0.002349,0.011592,-0.013562000000000001,0.012659
309,-2.2709490000000003,-0.342206,0.031657,-0.720398,0.335566,0.60697,0.000791,0.00031299999999999996,-0.00021400000000000002,0.011948,-0.014825999999999999,0.01188
310,-2.2709490000000003,-0.342175,0.031687,-0.720406,0.335537,0.606977,0.0018679999999999999,0.0013779999999999999,-0.001276,0.009712,-0.014415,0.010531
311,-2.270968,-0.342163,0.031711,-0.720398,0.335525,0.606993,0.0018579999999999998,0.000309,-0.000206,0.011718000000000001,-0.014618,0.012315000000000001
312,-2.270989,-0.342148,0.031711,-0.720388,0.335511,0.607012,0.0018579999999999998,0.000309,-0.000206,0.009512,-0.013032,0.011304
313,-2.270981,-0.342142,0.031723,-0.720395,0.33550599999999997,0.607008,0.001801,0.003474,0.00088,0.008023,-0.014949,0.010164
314,-2.270963,-0.342144,0.031727,-0.7204050000000001,0.335507,0.606995,0.001801,0.0024129999999999998,-0.00018700000000000002,0.009712,-0.013318,0.01181
315,-2.2709479999999997,-0.342142,0.031756,-0.7204149999999999,0.33550599999999997,0.606984,0.002863,0.001344,-0.00017900000000000001,0.011568,-0.014659,0.012126000000000001
316,-2.270963,-0.342145,0.031775,-0.7204050000000001,0.335508,0.6069939999999999,0.002863,0.001344,-0.00017900000000000001,0.010276,-0.013258,0.010529
317,-2.2709799999999998,-0.342122,0.031791,-0.7204010000000001,0.335487,0.607011,0.0028539999999999998,0.000275,0.000891,0.011737000000000001,-0.012473,0.010740999999999999
318,-2.270998,-0.342138,0.031797000000000006,-0.720386,0.335502,0.60702,0.0028539999999999998,0.000275,0.000891,0.009982,-0.012153,0.010564
319,-2.2709759999999997,-0.342144,0.031830000000000004,-0.7203970000000001,0.335508,0.607004,0.002858,0.000279,-0.000177,0.011397,-0.013944,0.012029999999999999
320,-2.271045,-0.342121,0.031863,-0.7203609999999999,0.335486,0.607058,0.0017870000000000002,-0.001843,-0.00125,0.011606,-0.013693,0.009351
321,-2.2710939999999997,-0.342098,0.031869999999999996,-0.720337,0.335464,0.6070979999999999,-0.0014140000000000001,-0.000771,-0.000206,0.010804000000000001,-0.012619,0.012134
322,-2.271162,-0.342043,0.031816000000000004,-0.72031,0.335412,0.607159,-0.002547,0.000266,-0.000188,0.007373,-0.009607,0.012516
323,-2.271118,-0.342035,0.031839,-0.720338,0.335405,0.607129,0.003878,0.00557,-0.00015,0.0068980000000000005,-0.011568,0.01012
324,-2.270999,-0.34205399999999997,0.031879000000000005,-0.7204050000000001,0.335423,0.607039,0.003878,0.006631000000000001,0.000917,0.0102,-0.017384,0.010789
325,-2.270946,-0.342105,0.031913,-0.720425,0.335471,0.6069899999999999,0.004921,0.002362,0.001998,0.015423,-0.017875,0.010549
326,-2.2709799999999998,-0.34218699999999996,0.031935000000000005,-0.720383,0.335548,0.606997,0.0038299999999999996,-0.0008380000000000001,0.004131,0.014283,-0.016822,0.012144
327,-2.271042,-0.34225,0.031914,-0.720329,0.335608,0.607028,0.0038350000000000003,-0.000834,0.003062,0.012688,-0.014075,0.012494
328,-2.27106,-0.342317,0.031897,-0.720302,0.335671,0.6070260000000001,0.002777,0.002361,0.004118999999999999,0.010753,-0.012642,0.013412
329,-2.270983,-0.342391,0.031925999999999996,-0.720329,0.33574,0.606955,0.006016,0.007689,0.00093,0.010856999999999999,-0.011887,0.013132
330,-2.2708209999999998,-0.342472,0.031985,-0.720407,0.335816,0.60682,0.005951,0.009778,0.002026,0.010843,-0.013550999999999999,0.010291
331,-2.270685,-0.342509,0.032027999999999994,-0.72048,0.335851,0.606715,0.003803,0.00659,0.002015,0.012304,-0.015035,0.011022
332,-2.270665,-0.342547,0.031998,-0.720482,0.335887,0.606692,0.0005690000000000001,0.001266,0.004135,0.011345000000000001,-0.015162,0.010923
333,-2.270722,-0.342569,0.031919,-0.720442,0.335908,0.6067279999999999,-0.000503,0.000205,0.004129,0.010573,-0.012742,0.011497
334,-2.270757,-0.342605,0.031818,-0.7204119999999999,0.335942,0.606746,-0.000493,0.0023350000000000003,0.0041270000000000005,0.008757,-0.015568,0.010365000000000001
335,-2.2707319999999998,-0.342673,0.03173,-0.720409,0.33600599999999997,0.6067130000000001,0.0005690000000000001,0.0033880000000000004,0.006268999999999999,0.008907,-0.015816,0.010139
336,-2.2706880000000003,-0.342756,0.031687,-0.7204149999999999,0.336084,0.6066630000000001,0.002712,0.005511,0.006281,0.009492,-0.013772999999999999,0.010448
337,-2.270692,-0.342816,0.031641,-0.7203970000000001,0.33614099999999997,0.606653,0.001573,0.0022960000000000003,0.004152,0.013609999999999999,-0.013402,0.012793
338,-2.270699,-0.342891,0.031613999999999996,-0.7203729999999999,0.33621100000000004,0.606642,0.0015630000000000002,0.000166,0.004155,0.011206,-0.013243000000000001,0.011796
339,-2.27074,-0.342943,0.031584,-0.7203350000000001,0.33626,0.6066600000000001,0.0015630000000000002,-0.000895,0.003088,0.010954,-0.012957,0.010131
340,-2.2707889999999997,-0.342965,0.031576,-0.7203,0.336281,0.606691,0.0026449999999999998,0.001236,0.0020239999999999998,0.009912,-0.015922,0.011412
341,-2.2708009999999996,-0.343047,0.031556,-0.720271,0.336358,0.6066819999999999,0.0036969999999999998,0.001219,0.005236,0.011912,-0.014184,0.012489
342,-2.270784,-0.343175,0.031542,-0.720248,0.336479,0.606642,0.004769,0.002281,0.005243,0.010318,-0.014411000000000002,0.009477
343,-2.270768,-0.34328400000000003,0.031506,-0.7202310000000001,0.336581,0.606607,0.004778,0.005472,0.006307,0.012589,-0.013324,0.011039
344,-2.270715,-0.343383,0.031478,-0.720237,0.336674,0.6065470000000001,0.0037159999999999997,0.00548,0.005231,0.013099000000000001,-0.014546000000000002,0.010990999999999999
345,-2.270644,-0.343507,0.031445,-0.720248,0.336791,0.6064689999999999,0.001578,0.004422,0.0052179999999999995,0.011126,-0.01335,0.010535
346,-2.270658,-0.34355399999999997,0.031375,-0.7202270000000001,0.336836,0.6064689999999999,0.002582,0.003334,0.004173,0.010648000000000001,-0.013288,0.011023999999999999
347,-2.270634,-0.343643,0.031314,-0.7202189999999999,0.336919,0.606432,0.001515,0.004399,0.005232,0.009281999999999999,-0.012731000000000001,0.011122
348,-2.270596,-0.343713,0.031237,-0.720224,0.336985,0.6063890000000001,0.000443,0.004399,0.006293,0.009683,-0.014719,0.011454
349,-2.2705290000000002,-0.343812,0.031172000000000002,-0.7202390000000001,0.33707800000000004,0.60632,0.0015199999999999999,0.006525,0.006297,0.012735,-0.01556,0.011737000000000001
350,-2.270467,-0.343898,0.031123,-0.720254,0.33716,0.6062569999999999,0.002587,0.005461,0.0052380000000000005,0.011758,-0.013307,0.01
351,-2.270432,-0.343955,0.031067,-0.7202609999999999,0.337213,0.60622,0.001515,0.0033380000000000003,0.004164999999999999,0.011017,-0.013284,0.010312
352,-2.270424,-0.344032,0.031025999999999998,-0.720247,0.33728600000000003,0.606197,0.0025629999999999997,0.0011949999999999999,0.006312,0.010805,-0.015188,0.009739
353,-2.270443,-0.344107,0.030987,-0.720216,0.337356,0.6061949999999999,0.002577,0.002269,0.004174000000000001,0.010284999999999999,-0.013779,0.011145
354,-2.270457,-0.344147,0.030981,-0.720198,0.337394,0.606196,0.0025239999999999998,0.001192,0.0009789999999999998,0.013028999999999999,-0.01525,0.010381
355,-2.270499,-0.34418000000000004,0.030966000000000004,-0.720163,0.337425,0.606219,0.0025050000000000003,-0.000947,0.003118,0.009134,-0.015327,0.012555
356,-2.270527,-0.34425300000000003,0.030912000000000002,-0.720128,0.337494,0.606223,0.000376,0.0033090000000000003,0.0063030000000000004,0.00919,-0.012466,0.012139
357,-2.2705,-0.344337,0.030813999999999998,-0.720122,0.337572,0.606187,0.000386,0.005439,0.0063,0.007415000000000001,-0.007951999999999999,0.013075999999999999
358,-2.2704020000000003,-0.344437,0.030812,-0.720156,0.337667,0.6060939999999999,0.004672,0.007562999999999999,0.004190999999999999,0.009691,-0.015263999999999998,0.009522
359,-2.270285,-0.344524,0.030795999999999997,-0.720204,0.33774899999999997,0.605991,0.004658,0.005429,0.005261999999999999,0.011953,-0.018275,0.008695
360,-2.2702720000000003,-0.344647,0.030781,-0.72018,0.337864,0.605954,0.0057009999999999995,0.00116,0.006343,0.014385,-0.015965,0.013324
361,-2.270324,-0.344758,0.030760000000000003,-0.72012,0.337969,0.6059680000000001,0.00242,-0.001001,0.005242,0.015561000000000002,-0.017197999999999998,0.010914
362,-2.27035,-0.344884,0.030725,-0.720072,0.338088,0.605959,0.004564,0.002183,0.006321,0.014902,-0.013732,0.010603
363,-2.27027,-0.344978,0.030723,-0.720096,0.33817600000000003,0.605881,0.0045969999999999995,0.007518,0.004178,0.013019,-0.010234,0.014099
364,-2.2701119999999997,-0.345058,0.030739999999999996,-0.720171,0.338251,0.60575,0.004621,0.010723,0.002038,0.009981,-0.0124,0.013452
365,-2.269956,-0.345104,0.030788,-0.720254,0.338294,0.605627,0.004621,0.008601000000000001,-9.6e-05,0.010797,-0.015387999999999999,0.009302
366,-2.269866,-0.34513,0.030813,-0.720302,0.338319,0.605557,0.001387,0.0032770000000000004,0.002025,0.011775,-0.016588,0.009906
367,-2.2698720000000003,-0.345169,0.030764999999999997,-0.720288,0.338356,0.605553,-0.0007610000000000001,0.00115,0.003081,0.013119,-0.015861,0.010536
368,-2.269922,-0.345194,0.030664,-0.720251,0.338379,0.605584,-0.000766,0.002206,0.005215999999999999,0.00968,-0.014618,0.009635
369,-2.269885,-0.345265,0.030585,-0.720255,0.338446,0.605542,-0.0007610000000000001,0.004333,0.006281,0.010172,-0.015097,0.011249
370,-2.269866,-0.345326,0.030488,-0.72025,0.33850399999999997,0.6055149999999999,0.00023500000000000002,0.004266,0.0062369999999999995,0.008976999999999999,-0.0125,0.009598
371,-2.269922,-0.345396,0.030402999999999996,-0.720198,0.338569,0.605539,0.00234,-0.001072,0.007326000000000001,0.009352,-0.013481,0.011679
372,-2.269965,-0.345494,0.030333,-0.720147,0.338661,0.605549,0.002345,-7.000000000000001e-06,0.007325,0.011437000000000001,-0.014503,0.012005
373,-2.2700139999999998,-0.345588,0.030264,-0.720093,0.33875,0.605564,0.00235,0.001059,0.007324,0.014725,-0.014180000000000002,0.01315
374,-2.270022,-0.345702,0.030213,-0.720059,0.338858,0.605545,0.003426,0.002125,0.006261999999999999,0.01202,-0.015936000000000002,0.013444
375,-2.270048,-0.34580900000000003,0.030164,-0.720015,0.338958,0.60554,0.00235,-2e-06,0.006257,0.011916,-0.014831,0.011037
376,-2.2700869999999997,-0.3459,0.030119999999999997,-0.719968,0.339043,0.605549,0.003431,0.002129,0.005194,0.012357,-0.015206,0.012097
377,-2.270057,-0.346006,0.030111000000000002,-0.719959,0.339144,0.605504,0.003431,0.002129,0.005194,0.011875,-0.015871,0.012721
378,-2.270043,-0.346087,0.030075,-0.719946,0.339219,0.605476,0.004436,0.005249,0.005111999999999999,0.012395999999999999,-0.01584,0.012887000000000001
379,-2.269984,-0.346211,0.030045999999999996,-0.71995,0.339336,0.6054069999999999,0.004436,0.005249,0.005111999999999999,0.011805,-0.015895,0.011094
380,-2.26991,-0.346317,0.030004000000000003,-0.719967,0.339436,0.60533,0.002302,0.005257,0.005097,0.012326,-0.015355,0.011141
381,-2.269899,-0.346377,0.029925,-0.719958,0.339492,0.605309,0.00015900000000000002,0.004194,0.006151,0.009341,-0.013153,0.011984999999999999
382,-2.2698549999999997,-0.346467,0.029829,-0.719962,0.339577,0.605258,0.0012259999999999999,0.004190999999999999,0.006159,0.011664,-0.013344,0.011442
383,-2.269794,-0.346554,0.029776999999999998,-0.7199760000000001,0.339658,0.6051949999999999,0.002307,0.005261,0.004029,0.011129,-0.014538999999999998,0.011045999999999999
384,-2.26978,-0.346602,0.029695,-0.7199720000000001,0.339704,0.605174,0.00015900000000000002,0.003133,0.005084,0.011598,-0.016019,0.009999
385,-2.269768,-0.346671,0.02965,-0.719962,0.33976799999999996,0.605151,0.0043490000000000004,0.001964,0.0050030000000000005,0.011542,-0.016603,0.012205
386,-2.269788,-0.346754,0.029615,-0.719928,0.33984699999999995,0.605147,0.002211,-0.000155,0.003922999999999999,0.011615,-0.012819999999999998,0.011308
387,-2.269838,-0.34676799999999997,0.02963,-0.7198939999999999,0.33986,0.60518,0.003297,-0.001202,-0.0014089999999999999,0.014175,-0.014985,0.011489
388,-2.269899,-0.34678200000000003,0.029675,-0.719854,0.339873,0.605221,0.003282,-0.0022760000000000002,0.000728,0.01119,-0.014968,0.011401999999999999
389,-2.269951,-0.34681,0.029647000000000003,-0.719815,0.33989899999999995,0.6052529999999999,8.2e-05,-0.000143,0.0028399999999999996,0.009045000000000001,-0.008371,0.013963999999999999
390,-2.269967,-0.34679899999999997,0.029594,-0.719808,0.339889,0.605266,-0.0009609999999999999,0.0020039999999999997,-0.000375,0.010046,-0.010376,0.011738
391,-2.270006,-0.34672800000000004,0.029611000000000002,-0.719803,0.33982199999999996,0.6053109999999999,0.00011100000000000001,-0.000117,-0.0035689999999999997,0.011245999999999999,-0.015847999999999998,0.00939
392,-2.270041,-0.34667800000000004,0.02965,-0.719795,0.339775,0.6053470000000001,0.001168,-0.002252,-0.0035590000000000005,0.01139,-0.015968,0.011154
393,-2.270114,-0.346614,0.029735,-0.7197680000000001,0.339715,0.605413,0.001163,-0.005439,-0.005692,0.015330000000000002,-0.014978,0.012125
394,-2.270259,-0.346533,0.029827,-0.719701,0.33963899999999997,0.605535,0.001084,-0.005535,-0.0058200000000000005,0.014791,-0.015665000000000002,0.01324
395,-2.270323,-0.34642399999999995,0.029919,-0.719691,0.339537,0.6056050000000001,4.1e-05,-0.002326,-0.007968000000000001,0.012477,-0.012541,0.014816999999999999
396,-2.270321,-0.34628000000000003,0.030004000000000003,-0.71973,0.339401,0.605635,-0.002073,0.0008810000000000001,-0.009055,0.011096,-0.009491,0.013322
397,-2.2703279999999997,-0.34608099999999997,0.030091000000000003,-0.719778,0.339213,0.605684,-0.001001,0.0008820000000000001,-0.010115,0.009298,-0.01031,0.008787999999999999
398,-2.270336,-0.345894,0.030195999999999997,-0.719821,0.339038,0.60573,5.6000000000000006e-05,-0.001253,-0.010105,0.011264,-0.015491,0.010984
399,-2.2703759999999997,-0.345737,0.030302999999999997,-0.719838,0.338891,0.605793,4.6e-05,-0.002322,-0.009036,0.012532,-0.018364,0.010753
400,-2.2704400000000002,-0.345607,0.030344,-0.7198319999999999,0.33876799999999996,0.6058680000000001,-0.002116,-0.004462,-0.004775,0.012526,-0.016075,0.012143000000000001
401,-2.270506,-0.34553,0.030361000000000003,-0.719812,0.338696,0.605932,2.2e-05,-0.002344,-0.0036950000000000004,0.010202,-0.015681999999999998,0.011301
402,-2.270547,-0.34548,0.030369,-0.7198,0.338649,0.6059720000000001,-5.6000000000000006e-05,-0.000332,-0.0016879999999999998,0.00662,-0.014262,0.011612
403,-2.270524,-0.345459,0.030388,-0.719819,0.338629,0.605961,0.002078,0.001782,0.00045999999999999996,0.007051000000000001,-0.010168,0.010876
404,-2.2705189999999997,-0.345439,0.030443,-0.719828,0.33860999999999997,0.605962,0.003154,0.000726,-0.002736,0.010279,-0.012681999999999999,0.012157
405,-2.270597,-0.345369,0.030492000000000002,-0.719799,0.338544,0.606032,-5.6000000000000006e-05,-0.003515,-0.004889,0.012767,-0.01431,0.011079
406,-2.270709,-0.345263,0.030532999999999998,-0.719759,0.338444,0.606136,-0.0011330000000000001,-0.004581,-0.003827,0.012865000000000001,-0.015965,0.009068000000000001
407,-2.270827,-0.345181,0.030548000000000002,-0.719708,0.33836700000000003,0.6062390000000001,-0.001137,-0.0045850000000000005,-0.002759,0.012372,-0.014530000000000001,0.013313
408,-2.2709330000000003,-0.345117,0.030562,-0.7196600000000001,0.338307,0.60633,-7.5e-05,-0.004593,-0.0016829999999999998,0.01121,-0.014699,0.013101
409,-2.2710220000000003,-0.34505399999999997,0.030605,-0.719622,0.33824699999999996,0.6064069999999999,0.001001,-0.004589,-0.003812,0.012469,-0.012045,0.012993000000000001
410,-2.271112,-0.34495,0.030656,-0.719594,0.33815,0.606495,0.0009400000000000001,-0.002547,-0.005033,0.012594,-0.013138,0.01199
411,-2.271166,-0.34489000000000003,0.030728,-0.7195779999999999,0.338093,0.606546,0.002002,-0.002555,-0.0039570000000000004,0.012501,-0.013463,0.012961000000000002
412,-2.27121,-0.344827,0.030787000000000002,-0.719567,0.338034,0.606592,0.000935,-0.001491,-0.002898,0.014153,-0.014669999999999999,0.011618
413,-2.271228,-0.344771,0.030844999999999997,-0.719571,0.337981,0.606617,0.003083,0.001698,-0.0028870000000000002,0.010479,-0.013594,0.012051000000000001
414,-2.271212,-0.34473400000000004,0.030902,-0.71959,0.337946,0.606614,0.002012,0.0006360000000000001,-0.002893,0.012772,-0.012415,0.011398
415,-2.271197,-0.34468899999999997,0.030969999999999998,-0.7196100000000001,0.337904,0.606613,0.0020210000000000002,0.0017059999999999998,-0.003961999999999999,0.012457,-0.012358,0.01149
416,-2.271209,-0.34460999999999997,0.031022000000000004,-0.7196239999999999,0.33783,0.606639,0.00095,0.000644,-0.0039689999999999994,0.012852,-0.01323,0.010198
417,-2.271198,-0.344555,0.031083,-0.719645,0.337778,0.606643,-0.000122,-0.000417,-0.003975,0.011744,-0.013834,0.009537
418,-2.271248,-0.344469,0.031113,-0.7196359999999999,0.33769699999999997,0.606697,-0.001268,-0.00158,-0.00413,0.00937,-0.012303,0.009712
419,-2.271348,-0.34434899999999996,0.031143999999999998,-0.719607,0.337584,0.606796,-0.001277,-0.004772,-0.005195,0.014238999999999998,-0.018126,0.009812000000000001
420,-2.2714689999999997,-0.34426999999999996,0.031167,-0.719554,0.33751,0.6069,0.0008470000000000001,-0.0037270000000000003,-0.001977,0.007899,-0.014649,0.01163
421,-2.2715650000000003,-0.34424099999999996,0.031159,-0.719503,0.337483,0.6069760000000001,-0.00022999999999999998,-0.002671,0.001219,0.007909999999999999,-0.011082,0.012684
422,-2.271571,-0.34424299999999997,0.031191000000000003,-0.719499,0.337485,0.606979,0.003,0.0005269999999999999,-0.001967,0.010195000000000001,-0.008261,0.014633000000000002
423,-2.271538,-0.344202,0.031278,-0.71953,0.337446,0.606965,0.004081,0.0026579999999999998,-0.00303,0.011797,-0.014768,0.009734999999999999
424,-2.271498,-0.34417600000000004,0.031382,-0.719561,0.337421,0.606941,0.004067,-0.000538,-0.003026,0.013674,-0.015018,0.009804
425,-2.2715080000000003,-0.34416599999999997,0.031476,-0.719557,0.337412,0.606951,0.003994,-0.002726,-0.003118,0.016676,-0.013956,0.013838
426,-2.271609,-0.34415,0.031555,-0.7195,0.337397,0.6070270000000001,0.002913,-0.004857,-0.002055,0.016909,-0.014582,0.012846000000000002
427,-2.271681,-0.344077,0.031637,-0.719475,0.337328,0.6070939999999999,0.0008029999999999999,-0.002706,-0.0052770000000000004,0.014565,-0.009309999999999999,0.012565
428,-2.2717,-0.343981,0.031701,-0.719488,0.33723800000000004,0.607129,-0.000254,0.000489,-0.004220000000000001,0.010366,-0.010517,0.01456
429,-2.271665,-0.343905,0.03177,-0.719529,0.33716599999999997,0.60712,0.0008269999999999999,0.00262,-0.0052829999999999995,0.009202,-0.011574,0.012081
430,-2.271649,-0.343787,0.031825,-0.719569,0.337055,0.6071340000000001,0.0008320000000000001,0.002625,-0.006352,0.01176,-0.013538,0.010556999999999999
431,-2.271613,-0.343711,0.031892000000000004,-0.7196100000000001,0.336984,0.607125,0.0008179999999999999,0.00049,-0.005281,0.012503,-0.016412,0.011054000000000001
432,-2.271633,-0.343647,0.031916,-0.719615,0.33692300000000003,0.607154,-0.00134,-0.0016460000000000001,-0.002088,0.012248,-0.014122999999999998,0.01072
433,-2.271723,-0.34358299999999997,0.031919,-0.719577,0.336863,0.607232,-0.00031600000000000004,-0.001673,-0.001001,0.01128,-0.013865,0.012153
434,-2.271736,-0.343567,0.031921,-0.7195729999999999,0.336848,0.607245,0.0007599999999999999,0.001515,7.099999999999999e-05,0.008971999999999999,-0.011454,0.01127
435,-2.271673,-0.343547,0.031962,-0.7196170000000001,0.336829,0.607204,0.001836,0.002581,-0.000991,0.007459,-0.012152,0.009175
436,-2.271681,-0.343532,0.032011000000000005,-0.719615,0.336814,0.607213,0.0028940000000000003,-0.000614,-0.002048,0.010814,-0.012825,0.009623999999999999
437,-2.271747,-0.343503,0.032059,-0.719583,0.336787,0.607266,0.000741,-0.004868,-0.0020570000000000002,0.012459999999999999,-0.014109,0.010348999999999999
438,-2.271842,-0.343467,0.032082,-0.719534,0.336754,0.6073430000000001,0.000741,-0.004868,-0.0020570000000000002,0.010824,-0.016396,0.011401
439,-2.2719549999999997,-0.34339000000000003,0.032068,-0.719485,0.336681,0.607441,-0.000312,-0.002729,-0.003136,0.011431,-0.014477,0.011868
440,-2.2720130000000003,-0.34336,0.032081,-0.719458,0.33665300000000004,0.607488,0.00075,-0.0016760000000000002,-0.000993,0.010199,-0.014341999999999999,0.01124
441,-2.27203,-0.343348,0.032122000000000005,-0.7194510000000001,0.33664099999999997,0.607504,0.001827,-0.000611,-0.002055,0.012526,-0.013047999999999999,0.011973000000000001
442,-2.272059,-0.34329699999999996,0.032159,-0.719446,0.336593,0.607536,0.0018030000000000001,0.000472,-0.002008,0.010828,-0.012847999999999998,0.012093000000000001
443,-2.2720830000000003,-0.343252,0.032195999999999995,-0.719443,0.33655100000000004,0.607563,0.0018030000000000001,-0.000589,-0.003075,0.013373,-0.014315999999999999,0.013424
444,-2.272059,-0.343221,0.032258999999999996,-0.7194649999999999,0.336522,0.6075520000000001,0.0018030000000000001,0.000472,-0.002008,0.011061,-0.013372,0.011222
445,-2.272034,-0.343186,0.032309,-0.71949,0.336489,0.607542,0.0007509999999999999,0.0026100000000000003,-0.003087,0.008506,-0.014421999999999999,0.010882
446,-2.272014,-0.34313,0.032337,-0.7195159999999999,0.336436,0.607539,-0.00032599999999999996,0.001545,-0.0020239999999999998,0.010333,-0.014521000000000001,0.011906
447,-2.272033,-0.343072,0.032336000000000004,-0.7195189999999999,0.336381,0.6075659999999999,-0.001397,0.00048300000000000003,-0.002031,0.009802,-0.013688999999999998,0.011193
448,-2.272048,-0.343,0.032333999999999995,-0.719529,0.33631300000000003,0.607592,-0.00032599999999999996,0.000484,-0.003091,0.012971000000000002,-0.013269999999999999,0.012586
449,-2.2720689999999997,-0.34292100000000003,0.032346,-0.719536,0.336239,0.6076239999999999,-0.00032599999999999996,0.000484,-0.003091,0.011376,-0.013363,0.009701000000000001
450,-2.2721080000000002,-0.342862,0.032369,-0.719528,0.33618400000000004,0.607664,0.0007070000000000001,-0.00056,-0.003009,0.0121,-0.010729,0.012483
451,-2.272165,-0.34277199999999997,0.032405,-0.7195159999999999,0.3361,0.607725,-0.00037,-0.0037479999999999996,-0.004079999999999999,0.013278,-0.014185,0.00902
452,-2.272252,-0.342685,0.032461000000000004,-0.719485,0.336017,0.607807,0.000688,-0.004821,-0.003003,0.011874,-0.015444999999999999,0.00996
453,-2.272328,-0.342623,0.03248,-0.7194550000000001,0.335958,0.607875,-0.001446,-0.0026920000000000004,-0.0008849999999999999,0.010074,-0.012152,0.012623
454,-2.2724,-0.342567,0.032465,-0.719426,0.335906,0.607939,-0.00036,-0.000557,-0.003016,0.010045,-0.008147,0.012376
455,-2.272394,-0.342498,0.03255,-0.7194470000000001,0.335841,0.60795,0.0017980000000000001,0.00264,-0.005142,0.007854,-0.010966,0.014075
456,-2.272306,-0.342454,0.032619,-0.719513,0.33579899999999996,0.607896,0.0028640000000000002,0.004759,-0.003,0.010513,-0.01712,0.010711
457,-2.2722860000000003,-0.342431,0.032677,-0.719531,0.335778,0.607887,0.003867,-0.000542,-0.001838,0.014071,-0.015923,0.01072
458,-2.272344,-0.342413,0.032723,-0.7195,0.33576100000000003,0.6079319999999999,0.0017239999999999998,-0.002665,-0.00185,0.013918,-0.014106,0.009851
459,-2.2724,-0.34237,0.032753,-0.719477,0.33571999999999996,0.607982,-0.000405,-0.002653,-0.002933,0.016413,-0.01463,0.009603
460,-2.272448,-0.342304,0.032764,-0.719464,0.335658,0.608031,-0.000395,-0.000523,-0.002936,0.012067,-0.012140999999999999,0.012620000000000001
461,-2.272421,-0.342237,0.032806,-0.719498,0.335595,0.6080260000000001,-0.000376,0.002677,-0.004007999999999999,0.011567000000000001,-0.011453,0.015128
462,-2.272333,-0.34215999999999996,0.032875,-0.719571,0.335523,0.60798,0.000705,0.004808,-0.005071,0.008405,-0.013105,0.013328
463,-2.272297,-0.342089,0.032941000000000005,-0.719611,0.335456,0.607969,0.0017579999999999998,0.00267,-0.003993,0.012121999999999999,-0.013694,0.010623
464,-2.272297,-0.342031,0.032985,-0.719626,0.335401,0.607981,-0.000405,-0.002653,-0.002933,0.012503,-0.013685,0.010487999999999999
465,-2.2723709999999997,-0.34197,0.032983,-0.719597,0.33534400000000003,0.608047,-0.0014810000000000001,-0.0026579999999999998,-0.0008039999999999999,0.011543000000000001,-0.012787999999999999,0.010849
466,-2.272447,-0.341902,0.032973,-0.719568,0.335279,0.608117,-0.001508,-0.00156,-0.001784,0.011026000000000001,-0.014463,0.00962
467,-2.272457,-0.34188,0.032964,-0.719567,0.33525900000000003,0.608129,-0.00043200000000000004,0.001627,-0.000712,0.010858,-0.013283000000000001,0.008159
468,-2.272471,-0.341857,0.032974,-0.719565,0.335237,0.6081439999999999,0.000625,-0.0005070000000000001,-0.0007019999999999999,0.010931,-0.013994,0.010584999999999999
469,-2.272552,-0.341828,0.032979,-0.7195229999999999,0.33521,0.608209,0.000611,-0.003703,-0.000698,0.014491,-0.013142,0.010352
470,-2.272621,-0.341787,0.032991,-0.719492,0.335171,0.608267,-0.00045099999999999996,-0.002634,-0.0007070000000000001,0.012797,-0.014187,0.012033
471,-2.2726740000000003,-0.34176799999999996,0.033006,-0.7194649999999999,0.335154,0.60831,0.000625,-0.001568,-0.0017690000000000002,0.013349000000000001,-0.014719,0.010754000000000001
472,-2.272725,-0.341746,0.033014,-0.719439,0.33513200000000004,0.608352,0.0016920000000000001,-0.0005110000000000001,-0.000695,0.012317,-0.01218,0.010026
473,-2.272743,-0.341751,0.033025,-0.719428,0.33513699999999996,0.608363,0.0016539999999999999,-0.000484,0.00045700000000000005,0.011908,-0.014077000000000001,0.009618000000000002
474,-2.272741,-0.34176,0.033048,-0.719426,0.335146,0.60836,0.001663,0.000585,-0.0006129999999999999,0.013066,-0.012941,0.010399
475,-2.272777,-0.34173200000000004,0.033072000000000004,-0.719411,0.33512,0.608392,0.0027199999999999998,-0.001549,-0.000603,0.013662,-0.011557,0.011618999999999999
476,-2.272801,-0.341711,0.033083999999999995,-0.7194020000000001,0.3351,0.608413,-0.000466,0.000597,-0.001696,0.013729,-0.012620999999999999,0.010849
477,-2.272816,-0.34169299999999997,0.033112,-0.719398,0.335083,0.608428,0.0016579999999999998,-0.001541,-0.001678,0.011314,-0.012953999999999999,0.010835
478,-2.2728740000000003,-0.341627,0.033128,-0.719379,0.335021,0.608484,0.000601,-0.000468,-0.002755,0.011218,-0.012603,0.010748
479,-2.2728900000000003,-0.341579,0.033142000000000005,-0.719382,0.334975,0.608506,-0.00046100000000000004,0.000601,-0.002764,0.009757,-0.012816,0.009764
480,-2.27287,-0.34156,0.033171,-0.719399,0.334957,0.608496,0.001663,0.000585,-0.0006129999999999999,0.010856999999999999,-0.013103,0.010111
481,-2.272896,-0.341495,0.03321,-0.7194,0.334896,0.608529,-0.000484,0.000624,-0.003751,0.013483000000000002,-0.012341,0.010719
482,-2.272929,-0.341427,0.033242,-0.7193970000000001,0.334833,0.608567,0.0005690000000000001,-0.000454,-0.0016059999999999998,0.011634,-0.01275,0.012206
483,-2.272987,-0.34138,0.03324,-0.719374,0.33478800000000003,0.6086189999999999,-0.000508,-0.002581,-0.00161,0.011,-0.010721,0.011773
484,-2.2730509999999997,-0.341317,0.033252,-0.7193510000000001,0.334728,0.608679,-0.000503,-0.002576,-0.002679,0.013907,-0.010326,0.009668000000000001
485,-2.273088,-0.34127199999999996,0.033292,-0.71934,0.33468600000000004,0.608715,0.0016309999999999999,-0.002584,-0.002664,0.012522,-0.015686000000000002,0.009174
486,-2.273139,-0.341264,0.033319999999999995,-0.7193109999999999,0.334679,0.608754,0.0005639999999999999,-0.000458,-0.000537,0.010616,-0.013175999999999998,0.012385
487,-2.2732040000000002,-0.34125700000000003,0.033289,-0.719274,0.33467199999999997,0.6088020000000001,-0.001575,-0.000455,0.000516,0.010457,-0.010544,0.011956
488,-2.273183,-0.341258,0.033297,-0.719286,0.334673,0.608787,0.00165,0.0037990000000000003,-0.000535,0.010957,-0.009524,0.01281
489,-2.273102,-0.341267,0.033316000000000005,-0.719333,0.334681,0.608727,0.00165,0.00486,0.000532,0.010562,-0.013896,0.007591
490,-2.273054,-0.34128800000000004,0.03333,-0.719357,0.334701,0.608688,0.0026829999999999996,0.002747,0.0006259999999999999,0.01257,-0.014372999999999999,0.010773
491,-2.2730740000000003,-0.341305,0.033345,-0.719341,0.334717,0.608698,0.001607,-0.00044100000000000004,-0.000446,0.015406999999999999,-0.012665000000000001,0.010061
492,-2.273114,-0.34129699999999996,0.033386,-0.7193189999999999,0.33470900000000003,0.608729,0.0016120000000000002,-0.001498,-0.002581,0.016331000000000002,-0.013725,0.011922
493,-2.273133,-0.341246,0.033423,-0.71932,0.334661,0.608753,0.00055,-0.000429,-0.00259,0.014577000000000001,-0.010336,0.013256
494,-2.273133,-0.341174,0.033462,-0.719338,0.334593,0.608769,0.000559,0.000641,-0.0036590000000000004,0.010338,-0.011290000000000001,0.011486
495,-2.2730810000000004,-0.341131,0.033524,-0.71938,0.33455300000000004,0.608741,0.0016359999999999999,0.0038280000000000002,-0.002587,0.007421,-0.011859999999999999,0.01127
496,-2.273041,-0.341078,0.033588,-0.719418,0.334503,0.6087229999999999,0.001626,0.001698,-0.002585,0.009549,-0.013992,0.008112999999999999
497,-2.27307,-0.34103,0.033604,-0.719413,0.334458,0.608755,-0.001594,-0.001491,-0.001535,0.013343,-0.014206,0.008555
498,-2.273167,-0.340972,0.03356,-0.7193689999999999,0.334403,0.608837,-0.003757,-0.0036049999999999997,-0.00146,0.011406999999999999,-0.013419,0.011677
499,-2.273261,-0.340916,0.033526,-0.719325,0.33435,0.608916,-0.00268,-0.0014789999999999998,-0.0014550000000000001,0.010951,-0.011887,0.012695999999999999
500,-2.2732650000000003,-0.340887,0.0335,-0.71933,0.334323,0.608925,0.000535,0.0038280000000000002,0.000697,0.009918999999999999,-0.01488,0.011848000000000001
501,-2.27319,-0.340925,0.033513999999999995,-0.719366,0.334359,0.608863,0.00374,0.004882,0.000718,0.010565,-0.015084,0.011224
502,-2.273141,-0.340964,0.033535,-0.719386,0.334395,0.608819,0.002659,0.002751,0.001782,0.012797,-0.013869,0.011497
503,-2.273135,-0.341013,0.033541,-0.719376,0.334442,0.608804,0.002649,0.00062,0.001784,0.013215000000000001,-0.012543,0.011328
504,-2.273139,-0.341031,0.033551,-0.7193689999999999,0.334459,0.608803,0.0015869999999999999,0.000628,0.000709,0.012246,-0.013521,0.011192
505,-2.273189,-0.341012,0.033524,-0.719344,0.334441,0.608843,-0.000573,-0.001477,0.0007650000000000001,0.011275,-0.011687000000000001,0.011381
506,-2.273261,-0.340957,0.033488,-0.719314,0.334389,0.608907,-0.00164,-0.002534,-0.000309,0.010801999999999999,-0.012032,0.009181
507,-2.27338,-0.340897,0.033486,-0.719256,0.334332,0.609005,-0.0005780000000000001,-0.005725,-0.002434,0.013217,-0.01315,0.010944
508,-2.273482,-0.340818,0.033485,-0.7192149999999999,0.334258,0.609096,-0.0005639999999999999,-0.00253,-0.002438,0.012916,-0.013655,0.010625
509,-2.273521,-0.340796,0.033507,-0.719197,0.33423800000000004,0.609128,0.000503,-0.001472,-0.001364,0.010487,-0.014108,0.011141
510,-2.273533,-0.34076100000000004,0.033542,-0.719199,0.334204,0.6091449999999999,0.0026420000000000003,0.000646,-0.000283,0.013846,-0.014136000000000001,0.011049
511,-2.273557,-0.34074099999999996,0.033581,-0.7191890000000001,0.33418600000000004,0.609166,0.00157,-0.0014759999999999999,-0.001356,0.012097,-0.014025999999999999,0.011012000000000001
512,-2.2735849999999997,-0.340739,0.033625999999999996,-0.719173,0.33418400000000004,0.609187,0.002637,-0.00041900000000000005,-0.00028199999999999997,0.011684,-0.013763999999999998,0.011602
513,-2.273587,-0.34074299999999996,0.033647,-0.71917,0.334188,0.6091880000000001,0.000508,0.001715,0.000769,0.01014,-0.011845999999999999,0.010487
514,-2.273566,-0.340756,0.033632,-0.71918,0.3342,0.60917,0.000488,0.002792,0.001898,0.01102,-0.012575,0.010764
515,-2.273566,-0.34075500000000003,0.033615,-0.71918,0.33419899999999997,0.60917,0.000488,0.001731,0.000831,0.012927000000000001,-0.013307,0.010642
516,-2.27357,-0.34074099999999996,0.033589,-0.7191810000000001,0.334185,0.609176,0.000488,0.00067,-0.000236,0.011433,-0.012576,0.012375
517,-2.273596,-0.34072399999999997,0.03356,-0.71917,0.33416999999999997,0.6091979999999999,-0.000583,0.000669,0.000825,0.01339,-0.013827,0.010324
518,-2.2736110000000003,-0.34070300000000003,0.033520999999999995,-0.719166,0.33415,0.609214,-0.001641,0.001743,-0.000252,0.013981,-0.012784,0.012322
519,-2.273602,-0.340673,0.033529,-0.719179,0.334122,0.609214,0.000493,0.000674,-0.0013039999999999998,0.011918999999999999,-0.011658,0.011285
520,-2.2736490000000003,-0.340673,0.033544,-0.719151,0.334122,0.609248,0.001546,-0.00040300000000000004,0.0008410000000000001,0.011677,-0.013809,0.010015000000000001
521,-2.273677,-0.340698,0.033525,-0.7191270000000001,0.33414499999999997,0.609263,0.00045599999999999997,-0.000395,0.0019579999999999997,0.00909,-0.011925,0.010168
522,-2.273673,-0.34071799999999997,0.0335,-0.719125,0.33416399999999996,0.609256,-0.000601,0.000678,0.0008810000000000001,0.008645,-0.009670999999999999,0.012158
523,-2.2736549999999998,-0.340688,0.033527999999999995,-0.719143,0.334136,0.6092489999999999,0.001557,0.003875,-0.001245,0.009823,-0.012832,0.009525
524,-2.273605,-0.340685,0.033571,-0.719174,0.33413200000000004,0.609214,0.0026089999999999998,0.000676,-0.001233,0.011899,-0.01295,0.010217
525,-2.273571,-0.340721,0.033614,-0.719186,0.334167,0.6091810000000001,0.004733,0.00066,0.000918,0.013069999999999998,-0.013961000000000001,0.009288
526,-2.273632,-0.340715,0.033632,-0.71915,0.334161,0.609226,0.00045599999999999997,-0.002517,-0.000176,0.014667,-0.013895,0.011212
527,-2.273694,-0.3407,0.033642,-0.719116,0.33414699999999997,0.609274,0.00046100000000000004,-0.001452,-0.000177,0.012237,-0.012461,0.012827000000000002
528,-2.273762,-0.340644,0.033648000000000004,-0.719089,0.334094,0.6093350000000001,-0.001678,-0.003571,-0.001258,0.012317,-0.011432,0.011133
529,-2.27382,-0.340587,0.033654,-0.719068,0.33404,0.609388,-0.000616,-0.00037799999999999997,-0.001202,0.011564,-0.009959,0.011873
530,-2.273793,-0.340559,0.033692,-0.719091,0.334014,0.609376,0.000465,0.002814,-0.001198,0.009191,-0.012740000000000001,0.01007
531,-2.273732,-0.340559,0.033729,-0.719129,0.334014,0.6093310000000001,0.0025989999999999997,0.003868,-0.000117,0.010877,-0.013046,0.009351
532,-2.273725,-0.340545,0.033743,-0.719136,0.33400100000000005,0.60933,0.001518,0.000676,-0.00011999999999999999,0.014287000000000001,-0.013475,0.010559
533,-2.273766,-0.340518,0.03373,-0.719118,0.333975,0.6093649999999999,-0.0016829999999999998,-0.0014349999999999999,-0.0022760000000000002,0.013841999999999998,-0.012808000000000002,0.012506999999999999
534,-2.2738009999999997,-0.340471,0.033699,-0.719109,0.333931,0.6094,-0.00275,0.000691,-0.00015,0.011422,-0.012642,0.010351
535,-2.273803,-0.340434,0.03366,-0.719117,0.333896,0.60941,-0.001673,0.002817,-0.000145,0.010148,-0.011844,0.013134
536,-2.273767,-0.340434,0.033652999999999995,-0.7191390000000001,0.333896,0.609383,0.00045999999999999996,0.003871,0.0009369999999999999,0.009254,-0.013004,0.011115
537,-2.273759,-0.340426,0.03366,-0.719146,0.333888,0.609379,0.001518,0.001737,0.000947,0.012359,-0.014491,0.011119
538,-2.2737439999999998,-0.340436,0.033654,-0.7191529999999999,0.333899,0.609366,0.0014990000000000001,0.00173,0.000981,0.012731999999999999,-0.013097999999999999,0.012902
539,-2.273766,-0.34042100000000003,0.033625999999999996,-0.7191420000000001,0.333884,0.609386,-0.0006450000000000001,-0.000394,0.0009689999999999999,0.014597999999999998,-0.013236000000000001,0.009969
540,-2.273786,-0.340404,0.033609,-0.7191350000000001,0.333868,0.609404,-0.0006349999999999999,0.000676,-0.0001,0.011005,-0.012762,0.011126
541,-2.273802,-0.340402,0.033622000000000006,-0.719126,0.333866,0.6094149999999999,0.00043200000000000004,0.000672,-9.300000000000001e-05,0.008524,-0.012379000000000001,0.012823
542,-2.273821,-0.340395,0.033625,-0.719115,0.333859,0.60943,0.00042699999999999997,-0.000393,-9.2e-05,0.010772,-0.01376,0.011479999999999999
543,-2.273847,-0.34039200000000003,0.033632999999999996,-0.7191,0.333856,0.609449,0.00042199999999999996,-0.001458,-9e-05,0.011977,-0.0133,0.010637
544,-2.2738680000000002,-0.340382,0.033632,-0.719089,0.333847,0.609467,0.00043200000000000004,0.000672,-9.300000000000001e-05,0.012241,-0.012527,0.011139
545,-2.273891,-0.340368,0.033625,-0.719079,0.333834,0.609486,0.00042199999999999996,-0.000397,0.000977,0.011804,-0.012010999999999999,0.010936
546,-2.273927,-0.340373,0.033622000000000006,-0.719056,0.333839,0.6095109999999999,0.0014730000000000001,-0.000392,-5.6000000000000006e-05,0.011597,-0.01197,0.009828
547,-2.273987,-0.34037399999999995,0.03361,-0.719019,0.33384,0.609554,0.000392,-0.002523,0.001007,0.011316,-0.011742,0.012272
548,-2.274063,-0.34038,0.033587,-0.718971,0.333846,0.609607,0.000397,-0.001458,0.001006,0.009956999999999999,-0.013915,0.011426
549,-2.274109,-0.34037399999999995,0.033574,-0.718945,0.33384,0.609641,0.000397,-0.001458,0.001006,0.012768,-0.013328999999999999,0.011498
550,-2.274133,-0.34038,0.033574,-0.718928,0.333846,0.609658,0.001469,-0.000396,0.0010119999999999999,0.012462,-0.011565,0.01226
551,-2.274131,-0.340389,0.033562,-0.718928,0.333853,0.609654,0.001483,0.0028,0.001008,0.012034,-0.014013999999999999,0.013163999999999999
552,-2.274115,-0.340401,0.033583999999999996,-0.718934,0.333865,0.60964,0.001478,0.0006730000000000001,-5.7999999999999994e-05,0.013505000000000001,-0.014941,0.008692
553,-2.274117,-0.340414,0.033589,-0.7189300000000001,0.333877,0.609638,0.000394,0.00067,-5.1e-05,0.011134999999999999,-0.010237999999999999,0.011791
554,-2.2741130000000003,-0.340389,0.033599000000000004,-0.718938,0.333854,0.609641,0.000408,0.001744,-0.002189,0.011739,-0.013313,0.010248
555,-2.274155,-0.340379,0.033617,-0.718915,0.33384400000000003,0.6096729999999999,0.001446,-0.001468,0.001027,0.012922,-0.013608000000000002,0.009483
556,-2.274177,-0.340364,0.033604,-0.718905,0.33383,0.609693,-0.001745,-0.000388,-6.500000000000001e-05,0.010333,-0.012236,0.011325
557,-2.274171,-0.34035,0.033589999999999995,-0.718913,0.33381700000000003,0.609691,0.000408,0.0038659999999999996,-5.5e-05,0.008235,-0.010362,0.013661000000000001
558,-2.27409,-0.34032399999999996,0.033619,-0.718968,0.33379200000000003,0.609639,0.00149,0.004936,-0.0021850000000000003,0.011342,-0.012838999999999998,0.00999
559,-2.274035,-0.340302,0.03365,-0.719008,0.33377199999999996,0.609603,0.00147,0.002797,-4.6e-05,0.011641,-0.017579,0.006821
560,-2.274023,-0.340341,0.033641000000000004,-0.719005,0.333808,0.609587,0.001446,0.000654,0.0031609999999999997,0.013163999999999999,-0.015998,0.010836
561,-2.27407,-0.34039400000000003,0.033597,-0.718963,0.333858,0.6096090000000001,0.001442,0.0006490000000000001,0.004229,0.012039,-0.014644999999999998,0.009211
562,-2.274054,-0.340484,0.033572000000000005,-0.71895,0.333943,0.609578,0.003557,0.002762,0.005321,0.014726,-0.013019999999999999,0.012416
563,-2.273994,-0.340567,0.033576,-0.718966,0.334021,0.609517,0.0035670000000000003,0.002771,0.0031850000000000003,0.015413,-0.011847,0.014369
564,-2.2739830000000003,-0.34059,0.033576,-0.718966,0.334043,0.609504,0.001438,0.002783,0.002101,0.01369,-0.0137,0.01133
565,-2.2739279999999997,-0.340594,0.033572000000000005,-0.7189989999999999,0.334047,0.609463,0.00039,0.0038640000000000002,-0.001112,0.010487,-0.012941,0.011249
566,-2.273878,-0.340611,0.033559,-0.719025,0.33406399999999997,0.6094229999999999,0.000376,0.0038520000000000004,0.002093,0.013855000000000001,-0.015918,0.011289
567,-2.273859,-0.340658,0.033507,-0.719024,0.334108,0.6094,0.000366,0.003843,0.004229,0.011276000000000001,-0.013002000000000001,0.012472
568,-2.273854,-0.34072399999999997,0.033427,-0.719011,0.33416999999999997,0.609382,0.001423,0.00277,0.005306,0.011522,-0.013461,0.011986
569,-2.2738,-0.34079699999999996,0.033331,-0.719025,0.33423800000000004,0.609328,-0.0007059999999999999,0.004903,0.006357,0.011734,-0.012598,0.012483
570,-2.273757,-0.340877,0.033217,-0.7190310000000001,0.334314,0.609279,0.000348,0.005945000000000001,0.007441,0.012747,-0.013651,0.0098
571,-2.273727,-0.340971,0.033112,-0.719025,0.334402,0.6092380000000001,0.000343,0.00488,0.007443000000000001,0.011002,-0.013678000000000001,0.008606
572,-2.273732,-0.34108299999999997,0.033031,-0.7189939999999999,0.33450799999999997,0.609217,0.0014,0.001685,0.006386,0.010269,-0.011662,0.009588
573,-2.273757,-0.341185,0.032958,-0.718952,0.334604,0.609213,0.002472,0.002746,0.006392,0.011448,-0.011255,0.013163
574,-2.273762,-0.34129899999999996,0.032902,-0.71892,0.334712,0.609192,0.002467,0.0016809999999999998,0.006393,0.011934,-0.01179,0.012969999999999999
575,-2.273776,-0.341406,0.032844,-0.718884,0.334812,0.609178,0.002467,0.0016809999999999998,0.006393,0.011563,-0.012638,0.010618
576,-2.2737580000000004,-0.341506,0.032791,-0.718869,0.334906,0.6091439999999999,0.002472,0.001685,0.005325,0.012403,-0.013891999999999998,0.011293000000000001
577,-2.273778,-0.34158299999999997,0.032736,-0.718838,0.33497899999999997,0.609142,0.001397,0.00274,0.00532,0.011639,-0.011584,0.011951999999999999
578,-2.273774,-0.34167,0.032704000000000004,-0.7188180000000001,0.335061,0.60912,0.002464,0.0016760000000000002,0.00426,0.011787,-0.013345,0.011073999999999999
579,-2.273757,-0.341739,0.032671,-0.7188100000000001,0.33512600000000003,0.609093,0.001397,0.001679,0.004253,0.011947,-0.014173,0.010962999999999999
580,-2.2737950000000002,-0.341802,0.032619999999999996,-0.718771,0.335185,0.609106,0.001393,0.000614,0.004254,0.013052000000000001,-0.013850999999999999,0.011683
581,-2.273782,-0.341887,0.032548,-0.718758,0.335266,0.609079,0.001402,0.004867,0.006385,0.010872,-0.012145,0.011557
582,-2.273748,-0.341993,0.032475,-0.718751,0.335365,0.609032,0.002464,0.0048590000000000005,0.007461,0.011903,-0.013008,0.010856999999999999
583,-2.273672,-0.342107,0.032396,-0.7187680000000001,0.335473,0.608953,0.001407,0.006993000000000001,0.007451,0.011493000000000001,-0.014077000000000001,0.010523999999999999
584,-2.2735990000000004,-0.342233,0.032317,-0.718781,0.335592,0.6088720000000001,0.0024690000000000003,0.0059240000000000004,0.007459,0.010437,-0.0127,0.010894
585,-2.273526,-0.34236500000000003,0.032226,-0.718791,0.33571599999999996,0.608792,0.001397,0.0059229999999999994,0.00852,0.012569,-0.01374,0.010348999999999999
586,-2.273502,-0.342489,0.032139,-0.718774,0.335833,0.608748,0.001376,0.0037909999999999997,0.007451,0.010583,-0.013888,0.010607
587,-2.2735,-0.342573,0.032069,-0.718754,0.335912,0.6087279999999999,0.001381,0.001673,0.004249,0.01067,-0.011327,0.010245
588,-2.273503,-0.342615,0.03204,-0.718742,0.335952,0.608721,0.000314,0.000616,0.003175,0.012962000000000001,-0.014478999999999999,0.011061
589,-2.273504,-0.34270500000000004,0.031982,-0.7187180000000001,0.336036,0.6087020000000001,0.001376,0.0027300000000000002,0.006384,0.009276000000000001,-0.014152000000000001,0.010971999999999999
590,-2.273478,-0.34281300000000003,0.031878,-0.7187060000000001,0.336138,0.6086600000000001,0.00031,0.004856,0.008511,0.008654,-0.008104,0.010129
591,-2.273429,-0.342931,0.031791,-0.7187060000000001,0.33624899999999996,0.6086,0.0024530000000000003,0.004857,0.006389,0.009554,-0.010031,0.013241999999999999
592,-2.273356,-0.343025,0.031737,-0.718727,0.336337,0.608527,0.001391,0.005926,0.006379999999999999,0.008948999999999999,-0.015581999999999999,0.006645999999999999
593,-2.273316,-0.34314,0.031655,-0.718722,0.336446,0.608474,0.001372,0.0037869999999999996,0.008519,0.010454999999999999,-0.016103,0.009736
594,-2.273377,-0.343278,0.031580000000000004,-0.71865,0.33657600000000004,0.608487,0.003464,-0.0015660000000000001,0.007462999999999999,0.016303,-0.013516,0.01105
595,-2.27343,-0.343438,0.031546,-0.718576,0.336726,0.608491,0.004536,-0.000505,0.007469,0.014275999999999999,-0.013606,0.013305
596,-2.273406,-0.343589,0.031513,-0.7185520000000001,0.336868,0.608441,0.005622,0.0026920000000000004,0.006404000000000001,0.015778,-0.011276000000000001,0.015216999999999998
597,-2.273302,-0.343699,0.031499,-0.718587,0.336972,0.608342,0.003512,0.006965000000000001,0.0053159999999999995,0.010745999999999999,-0.007932,0.011409
598,-2.27318,-0.343776,0.031497000000000004,-0.718641,0.337045,0.608237,0.003532,0.008043000000000002,0.0021100000000000003,0.012098000000000001,-0.010613,0.010965
599,-2.2730669999999997,-0.343831,0.031514,-0.718695,0.337097,0.608143,0.00245,0.004850999999999999,0.002106,0.010764,-0.013869999999999999,0.009487
600,-2.273044,-0.343884,0.031477,-0.718695,0.337146,0.608115,0.000293,0.0016539999999999999,0.004232,0.011496,-0.013462,0.010216
601,-2.2730759999999997,-0.343944,0.031393,-0.7186600000000001,0.337202,0.608126,-0.0008060000000000001,0.000541,0.004182,0.013186000000000002,-0.013425999999999999,0.010633
602,-2.273082,-0.34401,0.031272,-0.71864,0.337265,0.608116,-0.0018679999999999999,0.003732,0.006307,0.011304,-0.013092,0.011009
603,-2.273031,-0.344095,0.031154,-0.71865,0.337345,0.60806,0.000265,0.0058460000000000005,0.008456,0.01023,-0.013111000000000001,0.006899
604,-2.2730069999999998,-0.34421199999999996,0.031043,-0.718634,0.337455,0.6080180000000001,0.002385,0.002643,0.008475,0.011358,-0.013343,0.010115
605,-2.2730330000000003,-0.34434699999999996,0.030936,-0.718584,0.337582,0.608007,0.001308,0.000516,0.00847,0.010209999999999999,-0.012188,0.011378000000000001
606,-2.273079,-0.344453,0.030837,-0.718528,0.33768200000000004,0.608017,0.000251,0.000529,0.006326,0.012901,-0.012487,0.011216
607,-2.2730810000000004,-0.344552,0.030763,-0.7185010000000001,0.337775,0.607997,0.001323,0.00159,0.006332,0.013713,-0.011558,0.011204
608,-2.2730900000000003,-0.344656,0.030718000000000002,-0.7184689999999999,0.337873,0.607981,0.001327,0.000533,0.004197,0.011652,-0.010754999999999999,0.010809000000000001
609,-2.2731310000000002,-0.344721,0.030670999999999997,-0.718428,0.337934,0.607997,0.001327,0.000533,0.004197,0.0119,-0.013272999999999998,0.011678000000000001
610,-2.273184,-0.344792,0.03063,-0.718378,0.338001,0.608019,0.002359,-0.000596,0.003043,0.011987000000000001,-0.013888999999999999,0.010756
611,-2.273196,-0.34486500000000003,0.030599,-0.7183510000000001,0.338069,0.608012,0.002359,0.000465,0.00411,0.013975,-0.012813,0.011541
612,-2.273201,-0.344952,0.030557,-0.718326,0.33815100000000003,0.607997,0.002364,0.002591,0.005176,0.011356,-0.011384,0.011678000000000001
613,-2.273171,-0.345041,0.030499000000000002,-0.718321,0.338235,0.607956,0.001307,0.003665,0.004099,0.012953000000000001,-0.013177000000000001,0.011734
614,-2.273114,-0.34513,0.03045,-0.718333,0.338319,0.607895,0.001312,0.005790999999999999,0.005164,0.011851,-0.013000999999999999,0.010895
615,-2.273038,-0.345206,0.030414999999999998,-0.718359,0.338391,0.607824,0.002388,0.005796,0.003035,0.012121,-0.012799,0.010737
616,-2.273001,-0.34523200000000004,0.030402,-0.718375,0.338415,0.607791,0.001312,0.0026079999999999996,0.001964,0.014457,-0.014013,0.009885
617,-2.2730040000000002,-0.345254,0.030414,-0.718368,0.338436,0.607788,0.00023999999999999998,0.00048499999999999997,0.000891,0.012359,-0.013590999999999999,0.012924000000000001
618,-2.273016,-0.34520300000000004,0.030427,-0.7183729999999999,0.338388,0.607809,0.000217,0.00042,-0.003512,0.018086,-0.014154,0.009501
619,-2.273099,-0.345103,0.030488,-0.718349,0.338293,0.6078899999999999,0.00020299999999999997,-0.004898,-0.005640999999999999,0.010555,-0.013373,0.00913
620,-2.2732229999999998,-0.34497,0.030473,-0.718308,0.338169,0.608008,-0.005141,-0.003827,-0.002475,0.008225,-0.007266,0.012506
621,-2.2732959999999998,-0.344832,0.030420999999999997,-0.718299,0.338039,0.6080909999999999,-0.006194,-0.0016879999999999998,-0.003554,0.008887,-0.0057020000000000005,0.009265
622,-2.273382,-0.344665,0.030423000000000002,-0.71829,0.337881,0.608189,-0.002984,-0.002752,-0.006735,0.009762999999999999,-0.012609,0.011501
623,-2.273429,-0.344552,0.030497000000000003,-0.71829,0.337775,0.608248,0.001279,-0.003832,-0.006703,0.009626000000000001,-0.016577,0.009855
624,-2.273488,-0.34447300000000003,0.030605,-0.718275,0.33770100000000003,0.608306,0.003403,-0.004909,-0.005619,0.010282,-0.018319,0.008301000000000001
625,-2.2735939999999997,-0.344432,0.030695999999999998,-0.718221,0.33766199999999996,0.608391,0.00441,-0.007139,-0.004699,0.013738,-0.015152,0.011299
626,-2.273678,-0.344407,0.030793,-0.718176,0.337638,0.6084579999999999,0.003358,-0.002879,-0.0036439999999999997,0.014242,-0.013541999999999998,0.013384
627,-2.273707,-0.344352,0.030902999999999996,-0.718172,0.33758699999999997,0.60849,0.002305,-0.001801,-0.005789,0.012376999999999999,-0.010073,0.013350999999999998
628,-2.27371,-0.34424499999999997,0.030983999999999998,-0.718199,0.337486,0.608516,0.001243,-0.000732,-0.005797999999999999,0.010954,-0.01075,0.012471
629,-2.273676,-0.344138,0.031054000000000002,-0.7182470000000001,0.337385,0.6085149999999999,0.00019099999999999998,0.002467,-0.005809,0.010361,-0.012068,0.010046
630,-2.273614,-0.344014,0.031121,-0.718316,0.33726799999999996,0.608498,-0.0008710000000000001,0.002475,-0.006885,0.010522,-0.014972,0.009346
631,-2.273602,-0.343907,0.031152,-0.7183510000000001,0.33716799999999997,0.608513,-0.0030239999999999998,0.001405,-0.003694,0.015638,-0.017618,0.00869
632,-2.273659,-0.3438,0.031125,-0.718345,0.337067,0.608577,-0.00411,-0.002853,-0.003696,0.013846,-0.014542,0.011541
633,-2.273736,-0.3437,0.031075,-0.7183229999999999,0.336973,0.608654,-0.00411,-0.000731,-0.001562,0.009201,-0.010969,0.011448
634,-2.273773,-0.343614,0.031009,-0.718322,0.336892,0.6087,-0.003095,0.000231,-0.001721,0.008789,-0.012399,0.010440999999999999
635,-2.27378,-0.343558,0.031014,-0.718333,0.33684000000000003,0.608716,0.001172,0.00021600000000000002,-0.001691,0.010371,-0.011599,0.012270999999999999
636,-2.273796,-0.343533,0.031063999999999998,-0.71833,0.33681500000000003,0.608733,0.002234,-0.0008529999999999999,-0.0016820000000000001,0.0111,-0.014138,0.009446
637,-2.27383,-0.34352,0.031104000000000003,-0.718312,0.336804,0.608761,0.001168,-0.000849,-0.001689,0.01209,-0.014111000000000002,0.01096
638,-2.2738709999999998,-0.343521,0.031145999999999997,-0.718287,0.336804,0.6087899999999999,0.0032920000000000002,-0.002987,-0.0016719999999999999,0.014811000000000001,-0.012479,0.00826
639,-2.273936,-0.343479,0.031195999999999998,-0.718258,0.33676500000000004,0.608846,9.6e-05,-0.004033,-0.003829,0.011486,-0.011631,0.0115
640,-2.274038,-0.343441,0.031233999999999998,-0.718206,0.336729,0.608928,0.001153,-0.004045,-0.001686,0.012136,-0.013028999999999999,0.010823000000000001
641,-2.274152,-0.34334499999999996,0.031258,-0.7181609999999999,0.33663899999999997,0.6090300000000001,-0.002038,-0.005086,-0.004911,0.013341999999999998,-0.012251999999999999,0.011682
642,-2.274264,-0.34322600000000003,0.031269,-0.718123,0.33652600000000005,0.609137,-0.0020329999999999997,-0.004021,-0.004912,0.012694,-0.01066,0.013559
643,-2.274306,-0.343132,0.031307,-0.718122,0.336438,0.609187,6.2e-05,-0.000923,-0.004007,0.010526,-0.014676,0.013158000000000001
644,-2.274293,-0.343072,0.031336,-0.718145,0.336382,0.609191,0.001139,0.0022649999999999997,-0.002936,0.012532999999999999,-0.014727,0.012314
645,-2.27425,-0.34302699999999997,0.031377999999999996,-0.718184,0.336339,0.60917,-0.00099,0.0033380000000000003,-0.0029519999999999998,0.013472,-0.012639,0.010917
646,-2.27422,-0.342962,0.031389999999999994,-0.7182189999999999,0.336278,0.609162,-0.0020570000000000002,0.0033420000000000004,-0.002959,0.012010999999999999,-0.013050999999999998,0.012054
647,-2.274213,-0.342885,0.031431,-0.7182430000000001,0.336206,0.609174,6.7e-05,0.000143,-0.004009,0.011578,-0.013452,0.009722
648,-2.2742310000000003,-0.342833,0.031464,-0.718245,0.336156,0.6091989999999999,6.7e-05,0.000143,-0.004009,0.012053,-0.01151,0.012475
649,-2.274258,-0.342733,0.031506,-0.718254,0.33606199999999997,0.60924,-0.001042,-0.000989,-0.006298,0.012412999999999999,-0.012759,0.010298
650,-2.274337,-0.342632,0.031541,-0.718232,0.335967,0.609318,-0.002133,-0.004189,-0.004164999999999999,0.013093,-0.014816,0.009457
651,-2.274414,-0.342569,0.031542,-0.7182,0.335908,0.609387,-0.0021420000000000002,-0.003137,-0.000962,0.011261,-0.015321000000000001,0.010089
652,-2.274501,-0.342477,0.03152,-0.718171,0.335821,0.6094689999999999,-0.003195,-0.002059,-0.003107,0.009889,-0.009299,0.013013
653,-2.2745130000000002,-0.34239899999999995,0.03159,-0.718184,0.335748,0.609495,0.001092,6.500000000000001e-05,-0.005215999999999999,0.009947,-0.011696999999999999,0.011812000000000001
654,-2.274515,-0.342356,0.031682999999999996,-0.718194,0.335708,0.609506,0.003211,-0.001016,-0.0030629999999999998,0.012643000000000001,-0.016829,0.00936
655,-2.274572,-0.342335,0.03174,-0.718164,0.335687,0.6095510000000001,0.0032020000000000004,-0.003147,-0.003061,0.015054,-0.015832,0.012046
656,-2.274634,-0.342352,0.03182,-0.718122,0.335704,0.609592,0.003192,-0.0031550000000000003,-0.000924,0.015531,-0.015468,0.011838
657,-2.274683,-0.342342,0.031887,-0.718094,0.335694,0.60963,0.003211,-0.001016,-0.0030629999999999998,0.015946000000000002,-0.013184,0.013036
658,-2.274698,-0.342285,0.031925999999999996,-0.7180989999999999,0.33564099999999997,0.609653,-1e-05,0.001097,-0.002074,0.012731000000000001,-0.011117,0.01463
659,-2.274636,-0.342229,0.031966,-0.718152,0.33558699999999997,0.6096199999999999,5e-06,0.003232,-0.003145,0.011792,-0.011704,0.012435
660,-2.274555,-0.342138,0.032018,-0.718224,0.335502,0.609582,1.9e-05,0.004305,-0.0052829999999999995,0.011086,-0.011557,0.013616999999999999
661,-2.2745290000000002,-0.342048,0.032042,-0.718263,0.335417,0.609582,-0.003196,0.002182,-0.004234,0.013337,-0.013441,0.007742
662,-2.274548,-0.341946,0.032056,-0.718277,0.335321,0.609618,-0.00321,-0.0010140000000000001,-0.004229999999999999,0.014466,-0.014658000000000001,0.010148
663,-2.274634,-0.341832,0.032037,-0.718254,0.335214,0.609704,-0.004301,-0.0052759999999999994,-0.003164,0.015328,-0.014519999999999998,0.010931999999999999
664,-2.274728,-0.341729,0.031993,-0.718224,0.335117,0.609794,-0.004282,-0.001015,-0.00317,0.008583,-0.011615,0.012642
665,-2.27472,-0.34167,0.031998,-0.7182430000000001,0.335061,0.609801,0.001062,0.0021579999999999998,-0.002068,0.008435,-0.010858,0.009385
666,-2.274701,-0.34163499999999997,0.032031,-0.718263,0.335028,0.609795,0.002105,0.0010789999999999999,-0.000973,0.009355,-0.012824,0.008643999999999999
667,-2.27475,-0.341611,0.032063999999999995,-0.71824,0.335005,0.609835,0.001023,-0.0031739999999999997,-0.0020440000000000002,0.010339,-0.012419,0.008222
668,-2.27484,-0.341571,0.032101,-0.718195,0.334968,0.609908,-5.3e-05,-0.005301,-0.002048,0.013331,-0.012168,0.01059
669,-2.274945,-0.341548,0.032132,-0.718137,0.334946,0.609989,0.0010140000000000001,-0.005304,-0.002041,0.011762,-0.012512,0.012142
670,-2.275028,-0.341517,0.032148,-0.718094,0.334917,0.610056,0.0010140000000000001,-0.003182,9.300000000000001e-05,0.0121,-0.013550999999999999,0.011923
671,-2.275052,-0.341507,0.032181,-0.7180810000000001,0.334908,0.610075,0.0010279999999999998,-0.001047,-0.000978,0.013461,-0.011025,0.012179
672,-2.275055,-0.341503,0.032225,-0.7180810000000001,0.334904,0.610078,0.003167,1e-05,-0.000964,0.012484,-0.01215,0.013488
673,-2.275082,-0.341491,0.032239,-0.718068,0.334893,0.6101,-5.5e-05,-0.001024,0.000123,0.012303,-0.012245,0.011299
674,-2.275092,-0.341451,0.032254000000000005,-0.718072,0.334854,0.610115,-3.6e-05,0.001115,-0.002017,0.01072,-0.012756,0.014
675,-2.27509,-0.341425,0.032257999999999995,-0.718079,0.33483,0.610119,-0.0011070000000000001,0.001115,-0.000956,0.012085,-0.012916,0.0125
676,-2.275036,-0.34141900000000003,0.032244,-0.718113,0.334825,0.610082,0.001036,0.00536,0.00119,0.009937999999999999,-0.012178,0.010997
677,-2.274937,-0.341406,0.032254000000000005,-0.7181770000000001,0.334812,0.610013,-2.1e-05,0.005372,-0.0009539999999999999,0.01168,-0.01157,0.010775
678,-2.274873,-0.341333,0.032310000000000005,-0.718234,0.334744,0.6099829999999999,-0.002165,-0.000995,-0.005233,0.013187,-0.011562000000000001,0.008577
679,-2.2750150000000002,-0.341148,0.032342,-0.718195,0.334569,0.610125,-0.006456,-0.009489000000000001,-0.008457,0.016718,-0.013387,0.008436
680,-2.275297,-0.340907,0.032310000000000005,-0.7180840000000001,0.33434200000000003,0.61038,-0.008614,-0.013747,-0.007398999999999999,0.013174000000000002,-0.014182,0.01024
681,-2.275566,-0.34072199999999997,0.032257,-0.717968,0.334167,0.610613,-0.00647,-0.009502,-0.005253,0.007076000000000001,-0.01268,0.013853
682,-2.275715,-0.340613,0.032293999999999996,-0.717904,0.334065,0.610744,0.001019,-0.00525,-0.0051340000000000005,0.009956999999999999,-0.014591999999999999,0.011616
683,-2.275779,-0.34062600000000004,0.032369,-0.717862,0.33407800000000004,0.610787,0.005272,-0.0031550000000000003,0.00023500000000000002,0.009809,-0.017503,0.008659
684,-2.27579,-0.340758,0.032376999999999996,-0.7178220000000001,0.334202,0.610766,0.005268,0.0021449999999999998,0.0066370000000000005,0.01015,-0.012821,0.010358
685,-2.275702,-0.340944,0.03232,-0.717828,0.334377,0.610663,0.005282,0.007462999999999999,0.008767,0.00657,-0.008479,0.012795
686,-2.275531,-0.34115500000000004,0.032331,-0.717879,0.33457600000000004,0.610495,0.008497,0.010648000000000001,0.008785,0.00978,-0.010494,0.010187
687,-2.275309,-0.341362,0.032376,-0.717962,0.334771,0.61029,0.009573,0.010652,0.0066560000000000005,0.011465000000000001,-0.01162,0.009766
688,-2.275138,-0.341503,0.032442,-0.7180300000000001,0.334903,0.610137,0.005306,0.006423000000000001,0.002359,0.013744999999999999,-0.011783,0.010316
689,-2.275072,-0.341477,0.032518,-0.7180770000000001,0.334879,0.610096,0.001053,0.002207,-0.005143,0.018767,-0.008143000000000001,0.012341
690,-2.275084,-0.341329,0.032583,-0.718108,0.33474,0.610137,-0.003213,-0.0009310000000000001,-0.009356999999999999,0.017759999999999998,-0.007118000000000001,0.012695999999999999
691,-2.275084,-0.341054,0.032682,-0.718179,0.334481,0.610196,-0.005323,-0.0009019999999999999,-0.014713,0.013391,-0.005516,0.014575
692,-2.275095,-0.34071,0.032798,-0.718259,0.33415700000000004,0.610279,-0.006371,-0.0008810000000000001,-0.018993,0.010724,-0.006718000000000001,0.010768999999999999
693,-2.275096,-0.340343,0.03295,-0.718352,0.33381,0.610359,-0.006371,-0.0019420000000000001,-0.020059999999999998,0.010955,-0.009698,0.009621
694,-2.275178,-0.339972,0.033079000000000004,-0.7183970000000001,0.333461,0.6104970000000001,-0.007470999999999999,-0.007273000000000001,-0.017924000000000002,0.012647,-0.01646,0.006232
695,-2.275395,-0.339643,0.03315,-0.718348,0.33315100000000003,0.610725,-0.008586,-0.012617,-0.012584,0.013544,-0.018423,0.007347
696,-2.275667,-0.339362,0.033147,-0.7182529999999999,0.332885,0.610982,-0.008591,-0.011561,-0.010449,0.012031,-0.017135,0.011424
697,-2.275889,-0.339194,0.033155000000000004,-0.71816,0.332727,0.6111770000000001,-0.0021969999999999997,-0.008395999999999999,-0.003908,0.006933,-0.016489,0.010329000000000001
698,-2.275978,-0.33920500000000003,0.033138,-0.7181029999999999,0.33273800000000003,0.6112380000000001,0.002071,-0.000984,0.00359,0.007883,-0.016515000000000002,0.011732
699,-2.2759110000000002,-0.339382,0.033132,-0.7180989999999999,0.332904,0.611152,0.008477,0.006425,0.010034999999999999,0.008154,-0.015948,0.011040000000000001
700,-2.27578,-0.33966399999999997,0.033139999999999996,-0.718108,0.333171,0.610997,0.009539,0.007478,0.012177,0.013686000000000002,-0.013346,0.010646
701,-2.2756380000000003,-0.339952,0.033103,-0.718121,0.333442,0.610833,0.006338,0.007489,0.012155,0.012722,-0.014487,0.009177
702,-2.275561,-0.340177,0.033049,-0.7181109999999999,0.333654,0.610729,0.004195,0.004305,0.011076,0.014497,-0.010854,0.011143
703,-2.275543,-0.340307,0.032964999999999994,-0.718089,0.333777,0.610688,-7.2e-05,0.001137,0.007845999999999999,0.014002,-0.010214,0.011703
704,-2.275574,-0.340378,0.032871,-0.718051,0.333843,0.610694,-0.001125,0.001153,0.004634,0.011997,-0.010692,0.010551999999999999
705,-2.275639,-0.340386,0.032806999999999996,-0.71801,0.333851,0.61074,-0.002182,-0.000956,0.000356,0.012931,-0.008961,0.010293
706,-2.275722,-0.34031500000000003,0.032764999999999996,-0.7179770000000001,0.333784,0.6108140000000001,-0.004312,-0.003036,-0.002785,0.011709,-0.009474,0.011271
707,-2.275821,-0.340198,0.03274,-0.717947,0.333673,0.610911,-0.004312,-0.004097,-0.0038520000000000004,0.012152,-0.009363,0.011663
708,-2.2758979999999998,-0.340055,0.03275,-0.717936,0.333539,0.610997,-0.0032310000000000004,-0.0030269999999999997,-0.005982,0.011225,-0.01315,0.009531999999999999
709,-2.27598,-0.339935,0.032764999999999996,-0.717917,0.333426,0.611083,-0.002173,-0.0041,-0.004905,0.010046,-0.013479,0.008256
710,-2.2760599999999998,-0.339855,0.032772,-0.717889,0.33335,0.611158,-0.002183,-0.004109000000000001,-0.002769,0.011696999999999999,-0.011984999999999999,0.0078
711,-2.2761430000000002,-0.339808,0.032813999999999996,-0.71785,0.333306,0.6112270000000001,0.001013,-0.004124,-0.001678,0.009018,-0.015465000000000001,0.00886
712,-2.276209,-0.339796,0.032844,-0.717812,0.333295,0.6112770000000001,0.002085,-0.002002,-0.000605,0.010094,-0.01489,0.009206
713,-2.276224,-0.339836,0.032884,-0.717793,0.333332,0.611279,0.005285,0.000109,0.001551,0.011524,-0.012714,0.01099
714,-2.276184,-0.339902,0.032909,-0.7178,0.333395,0.611236,0.0042439999999999995,0.0033450000000000003,0.002687,0.0108,-0.010473,0.012787999999999999
715,-2.276122,-0.33998,0.032907,-0.717819,0.333468,0.611174,0.0021100000000000003,0.004413,0.003739,0.012512,-0.009829000000000001,0.010194
716,-2.276056,-0.34003099999999997,0.032899,-0.717846,0.333516,0.611116,0.002105,0.003348,0.00374,0.013713999999999999,-0.011327,0.009413
717,-2.276091,-0.340055,0.032835,-0.717819,0.333539,0.611136,-0.002177,0.000167,0.003714,0.014938,-0.011258,0.012582
718,-2.276106,-0.340047,0.032772,-0.717812,0.333531,0.6111479999999999,-0.0010949999999999998,0.0012369999999999998,0.001584,0.014671,-0.010472,0.010723
719,-2.2761139999999997,-0.34006,0.032715,-0.717803,0.333544,0.611151,-3.3e-05,0.0012289999999999998,0.00266,0.013885,-0.013262000000000001,0.009561
720,-2.276102,-0.34008,0.032688999999999996,-0.717806,0.33356199999999997,0.611138,-1.9e-05,0.002303,0.000522,0.01111,-0.009068999999999999,0.012809000000000001
721,-2.2760540000000002,-0.340096,0.032711000000000004,-0.71783,0.33357800000000004,0.611101,0.003168,0.002302,-0.000479,0.013942,-0.011479999999999999,0.009748999999999999
722,-2.276067,-0.340102,0.032711000000000004,-0.717821,0.333583,0.611109,-5.2000000000000004e-05,-0.0008869999999999999,0.000571,0.011126,-0.014949,0.009436
723,-2.276105,-0.340124,0.032673,-0.717792,0.333604,0.6111310000000001,-5.6999999999999996e-05,0.00016999999999999999,0.002706,0.010761,-0.009752,0.010023
724,-2.276071,-0.34017,0.032629000000000005,-0.717801,0.33364699999999997,0.611097,0.001029,0.0044280000000000005,0.002708,0.007077,-0.005582999999999999,0.010973
725,-2.2759669999999996,-0.34020900000000004,0.032637,-0.717855,0.33368400000000004,0.6110140000000001,0.0021100000000000003,0.006559000000000001,0.001645,0.008489,-0.013463,0.009454
726,-2.275867,-0.340291,0.032639,-0.717896,0.33376100000000003,0.610925,0.004220000000000001,0.004408,0.004867,0.01149,-0.015569999999999999,0.006461
727,-2.275843,-0.340416,0.032606,-0.717879,0.333879,0.610881,0.003139,0.002277,0.0059299999999999995,0.011824,-0.011231999999999999,0.01212
728,-2.27584,-0.34052899999999997,0.032572000000000004,-0.717852,0.333986,0.610854,0.003144,0.002281,0.004862,0.015093,-0.012209000000000001,0.010514
729,-2.27583,-0.340615,0.032542,-0.7178359999999999,0.334067,0.6108279999999999,0.002077,0.002285,0.004855,0.015215000000000001,-0.010794,0.011899
730,-2.275809,-0.34065300000000004,0.032514999999999995,-0.717839,0.33410300000000004,0.610805,-1.8e-05,0.00234,0.001771,0.014821,-0.007381,0.012334
731,-2.275786,-0.340624,0.032508999999999996,-0.71786,0.334075,0.610795,-0.001076,0.002352,-0.000373,0.012537999999999999,-0.009902,0.011290999999999999
732,-2.275745,-0.340579,0.032488,-0.717897,0.33403299999999997,0.610775,-0.002133,0.0044859999999999995,-0.000383,0.011918000000000002,-0.009723,0.012059
733,-2.275697,-0.34055100000000005,0.032475,-0.717933,0.33400599999999997,0.610746,-9e-06,0.003409,0.000701,0.011802,-0.01435,0.009401999999999999
734,-2.275689,-0.340565,0.032436,-0.717935,0.334019,0.610737,-0.001085,0.002344,0.0017640000000000002,0.014581,-0.016011,0.009517
735,-2.275729,-0.340607,0.032369,-0.717899,0.334059,0.6107560000000001,-4.2e-05,0.001257,0.006045,0.013736000000000002,-0.013991,0.010978
736,-2.275738,-0.34069499999999997,0.032274000000000004,-0.71787,0.33414299999999997,0.610744,-3.3e-05,0.004449,0.007109000000000001,0.010748,-0.011892,0.012181
737,-2.2756790000000002,-0.34081999999999996,0.032148,-0.717875,0.33426,0.6106739999999999,0.002101,0.006564,0.009258,0.006739,-0.011184999999999999,0.010618
738,-2.275595,-0.340984,0.032047000000000006,-0.717884,0.334415,0.610578,0.002095,0.00551,0.009299,0.00774,-0.011279,0.009386
739,-2.2755549999999998,-0.341148,0.031972,-0.717867,0.334569,0.610514,0.003157,0.004441,0.009308,0.013323,-0.010793,0.008718
740,-2.275541,-0.341312,0.031902,-0.717834,0.33472399999999997,0.610468,0.003147,0.00231,0.009311,0.013061000000000001,-0.01197,0.009939
741,-2.2755919999999996,-0.341462,0.031784,-0.7177640000000001,0.334865,0.610472,0.002066,0.00017900000000000001,0.010374,0.013159,-0.011484999999999999,0.010759000000000001
742,-2.2756279999999998,-0.34158299999999997,0.03167,-0.7177100000000001,0.33497899999999997,0.610472,0.0010140000000000001,0.001257,0.008229,0.011656,-0.010135,0.011843000000000001
743,-2.27564,-0.341711,0.031582,-0.7176710000000001,0.335099,0.610453,0.00209,0.002322,0.007167,0.012745999999999999,-0.010423,0.010153
744,-2.27562,-0.341848,0.031508,-0.717649,0.335229,0.610408,0.003157,0.0033799999999999998,0.008241,0.010648000000000001,-0.011392,0.010898999999999999
745,-2.2755669999999997,-0.341979,0.031485,-0.717647,0.335352,0.6103430000000001,0.0031829999999999996,0.0044859999999999995,0.005074,0.013987999999999999,-0.011759,0.011255
746,-2.2755099999999997,-0.342089,0.031444,-0.717654,0.335456,0.610278,0.002111,0.004485,0.006135,0.013156000000000001,-0.011771,0.01077
747,-2.275448,-0.342204,0.031383,-0.717663,0.335564,0.610208,0.002111,0.005546,0.007201999999999999,0.01202,-0.010811,0.010824
748,-2.27537,-0.342335,0.031292,-0.717677,0.335688,0.610123,0.001049,0.0076760000000000005,0.00826,0.011317,-0.012583,0.01068
749,-2.275255,-0.342459,0.031223,-0.717716,0.335804,0.610015,0.002121,0.007677,0.007199,0.010837000000000001,-0.012074,0.012376
750,-2.275148,-0.342605,0.031157,-0.7177439999999999,0.335942,0.6099060000000001,0.003187,0.007673,0.007206000000000001,0.012376,-0.010365000000000001,0.007708
751,-2.275085,-0.34270500000000004,0.031087,-0.717757,0.336036,0.609839,-2.3e-05,0.003432,0.005053,0.015365,-0.012519,0.009423
752,-2.275122,-0.34275300000000003,0.031010000000000003,-0.717722,0.336082,0.6098560000000001,-0.002176,-0.001883,0.0039770000000000005,0.015604,-0.010947,0.008659
753,-2.275257,-0.34274299999999996,0.030882,-0.717642,0.336071,0.609954,-0.005386,-0.005063000000000001,0.0028899999999999998,0.012961000000000002,-0.012387,0.010697
754,-2.2754060000000003,-0.342727,0.030755,-0.717555,0.336056,0.610065,-0.0032530000000000002,-0.002941,0.003973,0.01089,-0.010768999999999999,0.010922
755,-2.275509,-0.34275900000000004,0.030682,-0.717485,0.336086,0.610132,0.001019,-0.0029519999999999998,0.002935,0.013231,-0.013484999999999999,0.010718
756,-2.275603,-0.3428,0.030718000000000002,-0.717417,0.336125,0.610191,0.0020859999999999997,-0.006138,-0.000258,0.016214,-0.014759999999999999,0.008767
757,-2.275805,-0.3428,0.030723,-0.717294,0.336125,0.6103350000000001,-6.2e-05,-0.008265999999999999,0.000798,0.013512999999999999,-0.014790000000000001,0.012605
758,-2.275918,-0.342856,0.030722000000000003,-0.71721,0.336179,0.610404,0.004220000000000001,-0.002963,0.002957,0.009736,-0.009457,0.010797
759,-2.2759840000000002,-0.34287399999999996,0.030769,-0.7171649999999999,0.336196,0.6104470000000001,0.0021100000000000003,-0.003995,-0.0034659999999999995,0.013399000000000001,-0.006987,0.008556
760,-2.276132,-0.342791,0.030788999999999997,-0.7170949999999999,0.336117,0.610572,-0.005382,-0.009295,-0.003511,0.009193999999999999,-0.009869,0.008477
761,-2.2763880000000003,-0.342685,0.030685000000000004,-0.716967,0.336017,0.610779,-0.0054009999999999996,-0.009312,0.000762,0.004961,-0.011829000000000001,0.01178
762,-2.276494,-0.342712,0.030561,-0.716895,0.336043,0.610848,-6.9e-05,0.002328,0.008231,0.00286,-0.013106,0.01432
763,-2.2762849999999997,-0.342941,0.030561,-0.716964,0.33625900000000003,0.610649,0.012790000000000001,0.015066,0.008305,0.0046229999999999995,-0.0075840000000000005,0.014015999999999999
764,-2.275825,-0.343211,0.030713999999999998,-0.717176,0.336513,0.610259,0.017115000000000002,0.02359,0.004051,0.015714,-0.003871,0.012787999999999999
765,-2.275338,-0.343348,0.030962,-0.717438,0.33664099999999997,0.60988,0.010733,0.017263999999999998,-0.006668,0.020248,-0.005403,0.012221
766,-2.275095,-0.34321999999999997,0.031180000000000003,-0.717618,0.336521,0.609734,-0.0010400000000000001,0.003478,-0.012073,0.023633,-0.008549,0.009651
767,-2.275131,-0.342859,0.031286,-0.717689,0.336181,0.609838,-0.010647,-0.004981,-0.019607,0.016547,-0.00502,0.01211
768,-2.27526,-0.342279,0.031372000000000004,-0.717759,0.335634,0.610057,-0.019172,-0.010248,-0.027137,0.016617,-0.0044729999999999995,0.011890999999999999
769,-2.275615,-0.341615,0.031459,-0.717712,0.33501,0.610456,-0.018158,-0.019886,-0.029318,0.014938,-0.012897,0.009356
770,-2.276071,-0.340961,0.031537,-0.7176,0.334393,0.610926,-0.01711,-0.02309,-0.028238,0.010889,-0.024716,0.0077870000000000005
771,-2.276519,-0.340461,0.031559,-0.717454,0.333921,0.611355,-0.013953,-0.019957,-0.015401,0.006455,-0.022627,0.009647
772,-2.276815,-0.34024499999999996,0.031564,-0.717327,0.33371799999999996,0.6116149999999999,-0.002222,-0.011514,-0.005716,0.008587000000000001,-0.022698,0.009448
773,-2.276959,-0.340325,0.031611,-0.7172189999999999,0.333793,0.611701,0.007361,-0.004138,0.006092,0.010646,-0.022437000000000002,0.006692
774,-2.276896,-0.340636,0.031618,-0.717179,0.33408699999999997,0.611588,0.013771,0.008581,0.016803,0.005143,-0.017619,0.010268000000000001
775,-2.2765779999999998,-0.341161,0.031613999999999996,-0.71724,0.334581,0.611246,0.020201,0.021315999999999998,0.023241,0.002945,-0.013567,0.01293
776,-2.2760700000000003,-0.34179,0.03167,-0.71739,0.33517399999999997,0.610746,0.024493,0.025566,0.022197,0.009825,-0.008697,0.010912999999999999
777,-2.275544,-0.342329,0.031783,-0.7175729999999999,0.33568200000000004,0.610251,0.021311,0.023472,0.015768,0.014447999999999999,-0.005573,0.010919
778,-2.2751799999999998,-0.342629,0.031897,-0.717719,0.335964,0.609924,0.009531,0.011759,0.005956,0.02265,-0.003735,0.009170999999999999
779,-2.27513,-0.342604,0.031905,-0.717755,0.335941,0.6098939999999999,-0.004367,-0.0041329999999999995,-0.0037340000000000003,0.020368,-0.0015300000000000001,0.012634000000000001
780,-2.275314,-0.342303,0.031853,-0.71772,0.335658,0.6100909999999999,-0.012878,-0.008326,-0.013402,0.017098,-0.002421,0.012223999999999999
781,-2.275605,-0.341773,0.031812,-0.7176779999999999,0.335158,0.6104149999999999,-0.02247,-0.015711000000000003,-0.023074,0.014324000000000002,-0.0013109999999999999,0.008771
782,-2.276146,-0.341074,0.031777,-0.717526,0.334499,0.610955,-0.02358,-0.029538,-0.027337,0.013683,-0.009273,0.005576
783,-2.2768509999999997,-0.340333,0.031689,-0.717283,0.333801,0.611622,-0.026804,-0.032732,-0.025219,0.008223000000000001,-0.012893,0.005093
784,-2.277551,-0.339658,0.031548,-0.717026,0.333165,0.61227,-0.024685,-0.029568999999999998,-0.018799,0.008728,-0.020284,0.009251
785,-2.278019,-0.339248,0.031456,-0.716843,0.332778,0.612694,-0.010787,-0.014738,-0.010175,0.005753,-0.020202,0.01165
786,-2.278082,-0.33924099999999996,0.031514,-0.716806,0.332771,0.61274,0.008408,0.003168,0.002602,0.001718,-0.018989,0.009986
787,-2.277784,-0.339543,0.031727,-0.716912,0.333056,0.612462,0.021244,0.015885,0.008015999999999999,0.0073939999999999995,-0.015704,0.010128
788,-2.277315,-0.340011,0.032005,-0.7170810000000001,0.333497,0.612024,0.026592,0.021184,0.010183,0.010095,-0.015336,0.012641
789,-2.276768,-0.340516,0.032289,-0.717288,0.333973,0.611522,0.026601999999999997,0.024376,0.011248000000000001,0.015291999999999998,-0.011967,0.014744
790,-2.276204,-0.340929,0.032537,-0.717527,0.334363,0.611029,0.021272,0.023337,0.009075,0.019575,-0.005063000000000001,0.014627000000000001
791,-2.2757330000000002,-0.34117,0.032705,-0.717754,0.33459,0.610639,0.009537,0.018073,0.0036590000000000004,0.018855,-0.003749,0.012714
792,-2.275484,-0.34116799999999997,0.032731,-0.717907,0.334588,0.61046,-0.002203,0.010683,-0.002823,0.016674,-0.001534,0.010512
793,-2.275446,-0.340871,0.032707,-0.718005,0.334308,0.6104970000000001,-0.013969,-0.0020329999999999997,-0.014761000000000002,0.016788,-0.004138,0.007835
794,-2.275772,-0.340308,0.032595,-0.717949,0.333778,0.610853,-0.027895999999999997,-0.020073,-0.020176,0.017861000000000002,-0.008643000000000001,0.002703
795,-2.276446,-0.339591,0.032361,-0.717719,0.33310100000000004,0.611492,-0.035417000000000004,-0.031764999999999995,-0.020214,0.00962,-0.011247,0.0054670000000000005
796,-2.277182,-0.338879,0.032057,-0.717449,0.33243,0.612174,-0.032216,-0.027532,-0.015924,0.005261,-0.016634,0.008462
797,-2.277688,-0.338412,0.031844,-0.717258,0.331989,0.612637,-0.016189,-0.015895,-0.009417,8e-05,-0.020283000000000002,0.013477000000000001
798,-2.2778110000000003,-0.338289,0.031820999999999995,-0.717213,0.33187300000000003,0.6127520000000001,0.001986,0.001051,-0.000766,0.000797,-0.019663,0.009547
799,-2.277669,-0.33846,0.031925,-0.7172569999999999,0.332034,0.612613,0.013716999999999998,0.007372,0.006784999999999999,0.0072959999999999995,-0.020053,0.008114
800,-2.277393,-0.338861,0.03211,-0.717324,0.332414,0.612328,0.023313999999999998,0.011578,0.012188,0.014122999999999998,-0.015229,0.012733
801,-2.277034,-0.33933800000000003,0.032366000000000006,-0.717424,0.332863,0.6119680000000001,0.026538,0.01371,0.009003,0.017854,-0.011559,0.012269
