,attitude.roll,attitude.pitch,attitude.yaw,gravity.x,gravity.y,gravity.z,rotationRate.x,rotationRate.y,rotationRate.z,userAcceleration.x,userAcceleration.y,userAcceleration.z
0,0.468145,-0.891963,-0.924183,0.28331999999999996,0.778306,-0.560327,1.1614879999999999,0.115343,0.7798229999999999,0.029775,0.037047000000000004,-0.05316799999999999
1,0.47539,-0.8634930000000001,-0.918963,0.297396,0.760117,-0.577732,1.206507,0.200255,0.818484,0.027616,0.112701,-0.008602
2,0.484404,-0.8350620000000001,-0.911551,0.312533,0.741338,-0.5939180000000001,1.103384,0.132082,0.9065139999999999,-0.017519,0.1179,0.025818
3,0.49034399999999995,-0.8069430000000001,-0.9031790000000001,0.325746,0.722176,-0.610204,1.119529,-0.06826900000000001,0.9122239999999999,-0.041032,0.11351800000000001,0.047567
4,0.493655,-0.777889,-0.895943,0.337567,0.7017770000000001,-0.62734,1.180301,-0.082308,0.9073260000000001,-0.095837,0.062704,0.008855
5,0.49846899999999994,-0.748286,-0.8893770000000001,0.350364,0.680383,-0.643678,1.183236,0.10513199999999999,0.9167200000000001,-0.102088,0.030905000000000002,0.030151999999999998
6,0.506311,-0.7190350000000001,-0.883106,0.364899,0.658659,-0.658038,1.159297,0.233071,0.911048,-0.109696,0.051942999999999996,0.054599
7,0.5163439999999999,-0.689944,-0.876524,0.380784,0.636494,-0.670728,1.143428,0.302213,0.9503719999999999,-0.084733,0.05627000000000001,0.12692
8,0.527225,-0.6599520000000001,-0.869616,0.397489,0.613079,-0.6827409999999999,1.1807590000000001,0.346636,0.997577,-0.078443,0.020436000000000003,0.15179600000000001
9,0.5388390000000001,-0.6291869999999999,-0.8626790000000001,0.414876,0.588487,-0.693944,1.188218,0.380554,1.033906,-0.102773,0.029051,0.142598
10,0.5518890000000001,-0.5969220000000001,-0.855512,0.433629,0.562099,-0.704278,1.260903,0.48334099999999997,1.1069209999999998,-0.090185,0.061985000000000005,0.067712
11,0.5645600000000001,-0.562354,-0.8497,0.45264799999999994,0.533179,-0.7147220000000001,1.414292,0.446517,1.1251309999999999,-0.178463,0.105645,0.000169
12,0.573447,-0.524162,-0.848621,0.469692,0.500488,-0.727255,1.682405,0.418289,1.025559,-0.19678900000000002,0.143875,-0.060175
13,0.578647,-0.482579,-0.8538899999999999,0.484436,0.46406499999999995,-0.741595,2.020648,0.33333,0.932958,-0.164826,0.348328,-0.311963
14,0.5744640000000001,-0.433381,-0.865812,0.493149,0.419942,-0.7618739999999999,2.53326,-0.088999,0.875123,0.666656,0.378276,-0.8063939999999999
15,0.557358,-0.386614,-0.8826309999999999,0.48990500000000003,0.37705500000000003,-0.7860159999999999,2.073884,-0.9048149999999999,0.42858,0.99006,0.1919,-0.9041389999999999
16,0.533036,-0.362331,-0.8942760000000001,0.475157,0.354455,-0.805348,0.995818,-0.668431,0.058619000000000004,0.605775,-0.199746,-0.496837
17,0.5269689999999999,-0.349144,-0.8969729999999999,0.47257200000000005,0.342094,-0.812186,0.421896,-0.117951,0.356212,0.24610100000000001,-0.325996,-0.097116
18,0.5284409999999999,-0.341074,-0.889611,0.47514399999999996,0.334499,-0.813847,0.030849,-0.042828,0.556346,0.165725,-0.319256,0.063191
19,0.534125,-0.335008,-0.877393,0.480786,0.328777,-0.812865,-0.043079,0.257305,0.688973,0.15552,-0.124874,0.164199
20,0.54983,-0.32803000000000004,-0.8647440000000001,0.494679,0.322178,-0.8071510000000001,0.020885,0.717296,0.685625,0.146098,-0.14590899999999998,0.10311
21,0.567874,-0.320454,-0.853867,0.5104609999999999,0.31499699999999997,-0.800128,0.061665,0.681293,0.596226,0.12165,-0.172953,0.08766499999999999
22,0.5801310000000001,-0.314004,-0.8454780000000001,0.521332,0.30887,-0.7954939999999999,0.038383999999999995,0.346376,0.455487,0.066315,-0.183427,0.06575800000000001
23,0.584863,-0.31003600000000003,-0.840088,0.525763,0.305093,-0.794034,0.035943,0.055396,0.23151599999999997,0.00045099999999999996,-0.120004,0.073529
24,0.584126,-0.30696,-0.8401879999999999,0.5256930000000001,0.302162,-0.795201,0.201791,-0.06888899999999999,-3.8e-05,-0.024518,0.0028309999999999997,0.043522000000000005
25,0.5809380000000001,-0.301539,-0.844999,0.524046,0.296991,-0.79823,0.402376,-0.15658,-0.089324,-0.042937,0.08640199999999999,0.00842
26,0.576159,-0.29276399999999997,-0.85157,0.521625,0.2886,-0.80288,0.50356,-0.161327,-0.055496000000000004,-0.032673,0.069616,-0.071769
27,0.572195,-0.285113,-0.856807,0.5196189999999999,0.28126599999999996,-0.806774,0.406317,-0.09959,0.040954000000000004,-0.016384,0.075088,-0.073581
28,0.569612,-0.27887,-0.858092,0.51847,0.27526999999999996,-0.809577,0.24350700000000003,-0.128246,0.155221,0.0018239999999999999,0.05700499999999999,-0.061456
29,0.5668850000000001,-0.275179,-0.8571799999999999,0.516803,0.27171999999999996,-0.811839,0.19628199999999998,-0.13576,0.21044899999999997,0.006147,0.0151,-0.024755000000000003
30,0.5657399999999999,-0.270524,-0.855309,0.516545,0.267237,-0.813489,0.16248800000000002,-0.034539,0.234652,0.006618000000000001,0.029532,-0.004336
31,0.566013,-0.266714,-0.852557,0.517309,0.263563,-0.8142020000000001,0.120986,0.019811000000000002,0.265271,0.022318,0.070376,0.021859
32,0.566912,-0.262642,-0.8486440000000001,0.518613,0.25963200000000003,-0.814635,0.101408,-0.012284,0.31645,0.066195,0.054287,0.042068
33,0.567094,-0.25742600000000004,-0.8442430000000001,0.519482,0.254592,-0.8156720000000001,0.128897,-0.06353099999999999,0.32098000000000004,0.06729500000000001,0.045426,0.037916000000000005
34,0.566074,-0.252822,-0.840413,0.519273,0.250137,-0.817182,0.171303,-0.12651800000000002,0.318153,0.027419,0.001877,0.037351
35,0.5648890000000001,-0.246986,-0.837191,0.519077,0.244482,-0.819016,0.205553,-0.119112,0.301291,0.027707,-0.008978,0.018647
36,0.5644779999999999,-0.24212899999999998,-0.8335670000000001,0.519369,0.23976999999999998,-0.8202229999999999,0.153248,-0.12001600000000001,0.306268,-0.00040199999999999996,-0.044808,-0.02278
37,0.564667,-0.23827800000000002,-0.829421,0.520015,0.23603000000000002,-0.8208979999999999,0.102336,-0.081376,0.278089,-0.024974,-0.074561,-0.025858
38,0.564067,-0.234229,-0.826709,0.5200279999999999,0.232093,-0.822011,0.142078,-0.10886199999999999,0.190808,-0.043557,-0.09944800000000001,-0.032984
39,0.5622060000000001,-0.23145300000000002,-0.826042,0.518839,0.229392,-0.823519,0.126416,-0.153066,0.070046,-0.037058,-0.106071,-8.9e-05
40,0.559794,-0.22903800000000002,-0.826622,0.5171439999999999,0.22704000000000002,-0.8252360000000001,0.069395,-0.08125299999999999,0.009734999999999999,0.003013,-0.06726599999999999,0.043162
41,0.559817,-0.228329,-0.8270790000000001,0.5172479999999999,0.22635,-0.82536,-0.003399,0.06933500000000001,-0.023013,0.0034729999999999995,-0.062303,0.040844
42,0.56126,-0.227656,-0.8274540000000001,0.51852,0.225694,-0.824741,-0.085121,0.130478,-0.05784500000000001,-0.065761,-0.040575,-0.024777
43,0.562692,-0.229223,-0.8276610000000001,0.519511,0.227221,-0.8236979999999999,-0.15026199999999998,0.069112,-0.10629200000000001,-0.112666,-0.016421,-0.026826999999999997
44,0.562366,-0.23235799999999998,-0.827907,0.51886,0.230273,-0.82326,-0.131629,-0.046051,-0.094264,-0.154831,-0.028781,-0.046414
45,0.5602520000000001,-0.23378000000000002,-0.828785,0.516944,0.231656,-0.8240770000000001,-0.023005,-0.120876,-0.12438699999999998,-0.19078699999999998,0.180529,-0.029896
46,0.559347,-0.233422,-0.832857,0.516242,0.23130799999999999,-0.824615,0.188427,0.10338199999999999,-0.17874500000000001,-0.07077699999999999,0.186661,0.028319999999999998
47,0.563775,-0.23105799999999999,-0.8373200000000001,0.520179,0.22900700000000002,-0.822781,0.19867200000000002,0.35643800000000003,-0.06790299999999999,-0.003547,0.143597,0.027798000000000003
48,0.5700970000000001,-0.228219,-0.838557,0.5257189999999999,0.226244,-0.820019,0.101012,0.38385199999999997,0.08734,0.10646800000000001,0.022292,-0.030307
49,0.576377,-0.226331,-0.836685,0.531091,0.224404,-0.817058,-0.018354,0.22533699999999998,0.137984,0.144843,-0.0008470000000000001,0.019527000000000003
50,0.579946,-0.226662,-0.8331059999999999,0.5339619999999999,0.224726,-0.815096,-0.157588,0.102264,0.133964,0.153934,0.007298999999999999,0.052660000000000005
51,0.5826899999999999,-0.228454,-0.828626,0.535975,0.22647199999999998,-0.81329,-0.19606700000000002,0.082175,0.129449,0.11717799999999999,0.080932,0.036677999999999995
52,0.5846020000000001,-0.229594,-0.8248280000000001,0.5373859999999999,0.227582,-0.812048,-0.11413399999999999,0.023341,0.119414,0.051924,0.109149,0.016149
53,0.585199,-0.229032,-0.821996,0.537941,0.227035,-0.811833,-0.018419,-0.029251999999999997,0.135105,0.022941999999999997,0.132752,0.021169
54,0.5858770000000001,-0.227167,-0.819483,0.538725,0.22521799999999997,-0.81182,0.040133999999999996,-0.039117,0.153687,0.047732,0.084856,0.022483000000000003
55,0.587453,-0.225279,-0.817163,0.540238,0.22337800000000002,-0.811322,0.061716,0.019381,0.15803499999999998,0.072906,0.0032909999999999997,0.025174000000000002
56,0.5879949999999999,-0.22319499999999998,-0.815242,0.540934,0.221347,-0.811415,0.046665,-0.030536,0.133425,0.07485,0.001416,0.034453
57,0.585959,-0.22209299999999998,-0.81386,0.539416,0.22027199999999997,-0.812717,0.021613999999999998,-0.19536199999999998,0.082187,0.06564099999999999,0.007755,0.03635
58,0.581201,-0.22280999999999998,-0.812546,0.535456,0.220971,-0.8151430000000001,-0.000251,-0.318829,0.07578,0.058339999999999996,0.022483000000000003,0.009967
59,0.575332,-0.222644,-0.8103090000000001,0.530683,0.22080999999999998,-0.8183010000000001,-0.058173,-0.343308,0.120273,0.048098,0.037827,-0.011075
60,0.5713020000000001,-0.22248800000000002,-0.806351,0.5274,0.22065700000000002,-0.820462,-0.11656300000000001,-0.213405,0.185928,0.036321,0.032944,-0.028369
61,0.5713060000000001,-0.222575,-0.800764,0.527392,0.220741,-0.8204450000000001,-0.147061,-0.064364,0.23679899999999998,-0.002306,0.020958,-0.025776999999999998
62,0.572357,-0.222656,-0.794351,0.5282439999999999,0.22082100000000002,-0.819875,-0.158782,-0.029297000000000004,0.268719,-0.016113,0.017293,-0.009073999999999999
63,0.572009,-0.222637,-0.787812,0.527962,0.220802,-0.8200620000000001,-0.171992,-0.11661700000000001,0.271943,-0.018791,0.0067670000000000004,0.009622
64,0.570387,-0.22314099999999998,-0.7818689999999999,0.526571,0.22129400000000002,-0.820824,-0.150746,-0.18998199999999998,0.21877399999999997,-0.050985,0.0046429999999999996,0.032493
65,0.566763,-0.224045,-0.776968,0.5234850000000001,0.222175,-0.822557,-0.16458599999999998,-0.235531,0.166393,-0.030931,0.015022999999999998,-0.006285
66,0.562832,-0.22551,-0.772083,0.520073,0.22360300000000002,-0.824333,-0.197711,-0.24182800000000002,0.171511,-0.005821,-0.010529,-0.019036
67,0.558489,-0.226593,-0.766814,0.516359,0.22465900000000003,-0.8263780000000001,-0.167209,-0.30386199999999997,0.20705500000000002,0.026182,-0.008579,-0.027611
68,0.551991,-0.22687800000000002,-0.761675,0.510945,0.224937,-0.8296610000000001,-0.097352,-0.41813,0.21730300000000002,0.01295,-0.002967,0.015482
69,0.543673,-0.22566999999999998,-0.757536,0.504167,0.22376,-0.8341139999999999,-0.018538,-0.474758,0.191221,-0.003114,-0.001088,0.029869
70,0.535305,-0.223906,-0.75507,0.49737,0.22204000000000002,-0.838642,0.030050999999999998,-0.414994,0.122049,-0.035136,0.006659,0.014911
71,0.5288649999999999,-0.222455,-0.754192,0.49212,0.220624,-0.8421049999999999,0.038405,-0.300705,0.038639,-0.048119999999999996,0.011248000000000001,-0.018643
72,0.524624,-0.22136999999999998,-0.75446,0.48866400000000004,0.21956599999999998,-0.844392,0.066791,-0.19837,-0.002954,-0.052904,0.033760000000000005,-0.028364999999999998
73,0.5213399999999999,-0.21989099999999998,-0.755896,0.48605,0.218123,-0.8462719999999999,0.127928,-0.161158,-0.037826,-0.058316,0.059389,-0.009822
74,0.518253,-0.218248,-0.758351,0.483612,0.21652,-0.8480790000000001,0.141119,-0.10568499999999999,-0.06878300000000001,-0.046799,0.068316,-0.005651
75,0.516251,-0.217248,-0.761158,0.48202,0.21554299999999998,-0.849233,0.107478,-0.015998,-0.090498,-0.027338,0.05298099999999999,0.001241
76,0.515865,-0.217069,-0.7637010000000001,0.48171099999999994,0.21536799999999998,-0.849453,0.075807,0.06504800000000001,-0.084413,-0.014685,0.038706,-0.0052380000000000005
77,0.51713,-0.217327,-0.766045,0.482758,0.215621,-0.848794,0.085759,0.148084,-0.079109,-0.001373,0.056305999999999995,-0.0043549999999999995
78,0.520016,-0.21738000000000002,-0.76867,0.4852,0.21567199999999997,-0.8473879999999999,0.110661,0.22365300000000002,-0.084373,-0.007264,0.055782000000000005,-0.010904
79,0.5244449999999999,-0.21727399999999997,-0.771362,0.48895900000000003,0.215569,-0.84525,0.096114,0.303626,-0.090987,-0.040274000000000004,0.042732,0.009542
80,0.529904,-0.217455,-0.774041,0.493547,0.215746,-0.842534,0.07059,0.306971,-0.106124,-0.009279,0.015883,0.021383000000000003
81,0.534276,-0.218273,-0.7767970000000001,0.49713500000000005,0.21654400000000001,-0.840217,0.058625,0.237842,-0.124279,0.030376,0.015297999999999999,0.0050420000000000005
82,0.537045,-0.21916599999999997,-0.780071,0.49936099999999994,0.217416,-0.83867,0.081818,0.154755,-0.145375,0.037703,0.017936,0.002229
83,0.537409,-0.2197,-0.783824,0.49960699999999997,0.217937,-0.8383879999999999,0.114382,0.05127,-0.135401,0.053279999999999994,0.017903,0.000742
84,0.5370659999999999,-0.218889,-0.787007,0.499409,0.21714499999999998,-0.8387120000000001,0.121486,0.011663,-0.09364,0.056972,0.023898,0.001614
85,0.537241,-0.21766100000000002,-0.789424,0.49969300000000005,0.215946,-0.838852,0.11395599999999999,0.038159,-0.053134,0.044039,0.024502,0.006196
86,0.538662,-0.21693600000000002,-0.790768,0.5009640000000001,0.215238,-0.838276,0.04892,0.07131599999999999,-0.03013,-0.028658,-0.017194,-0.007458
87,0.5402319999999999,-0.21721500000000002,-0.791229,0.502249,0.21550999999999998,-0.8374370000000001,-0.020459,0.070467,-0.024204,-0.051,-0.026758999999999998,-0.007885
88,0.5422859999999999,-0.21859800000000001,-0.790862,0.5038130000000001,0.216862,-0.836147,-0.062206,0.048208,-0.015921,-0.046095,0.006497,-0.017521000000000002
89,0.5432,-0.220007,-0.7901050000000001,0.504419,0.218236,-0.8354239999999999,-0.083725,0.0269,0.0031829999999999996,-0.036173000000000004,0.017619,-0.01945
90,0.543979,-0.22110300000000002,-0.789087,0.504945,0.219306,-0.8348260000000001,-0.06135499999999999,0.029975,0.014018000000000001,-0.026536,0.015893,-0.023145
91,0.544017,-0.22121999999999997,-0.788614,0.5049640000000001,0.21941999999999998,-0.834785,-0.022905000000000002,0.040489,0.015341,0.004344,0.050203,-0.002755
92,0.5450189999999999,-0.221084,-0.788237,0.5058159999999999,0.21928699999999998,-0.834304,-0.0035810000000000004,0.071298,0.01971,0.008283,0.050794,0.006758
93,0.545667,-0.221317,-0.787734,0.506329,0.21951500000000002,-0.833932,-0.038903,0.055403999999999995,0.029097,0.004413,0.017744,0.03515
94,0.54635,-0.22213899999999998,-0.7867029999999999,0.5068050000000001,0.220317,-0.8334309999999999,-0.055054,0.023497,0.030094,-0.0017850000000000001,0.01891,0.022961000000000002
95,0.5465869999999999,-0.22316,-0.785783,0.506885,0.22131199999999998,-0.833119,-0.041252,-0.002075,0.019541,-0.005848,0.019532,-0.004772
96,0.5465909999999999,-0.22377600000000003,-0.785408,0.506818,0.221913,-0.833,0.003585,-0.009633,0.0059770000000000005,-0.001721,0.029200999999999998,-0.018608
97,0.546656,-0.22357399999999997,-0.785586,0.506895,0.221716,-0.8330059999999999,0.032447000000000004,0.001989,0.005095000000000001,0.006822,0.031061000000000002,0.0017219999999999998
98,0.547243,-0.22310100000000002,-0.7855449999999999,0.5074390000000001,0.221255,-0.8327969999999999,0.021827000000000003,0.037082,0.029545,0.012138,0.031613999999999996,0.013125999999999999
99,0.548249,-0.22274899999999997,-0.78469,0.508317,0.220912,-0.8323530000000001,-0.010294,0.043457,0.061359000000000004,0.006408,0.022878,0.013794999999999998
100,0.549192,-0.222654,-0.783297,0.509113,0.220818,-0.8318909999999999,-0.02213,0.032799,0.073041,0.009396,0.016456000000000002,0.005414
101,0.5498770000000001,-0.22247399999999998,-0.78193,0.509703,0.22064299999999998,-0.831576,-0.007242,0.014667,0.06569,0.017168,0.01155,0.0029170000000000003
102,0.550177,-0.22199499999999997,-0.7810630000000001,0.510008,0.220176,-0.831513,0.012,-0.001281,0.041276,0.019137,0.007408,0.0022440000000000003
103,0.550184,-0.22190700000000002,-0.78087,0.510024,0.22009,-0.831526,0.027007999999999997,-0.014001,0.012555,0.021349,0.020938,0.008574
104,0.549778,-0.221381,-0.780991,0.509746,0.219577,-0.831832,0.026974,-0.022519,0.011498,0.020299,0.026242,0.006834999999999999
105,0.549417,-0.22098600000000002,-0.780816,0.509491,0.219192,-0.832089,0.007737000000000001,-0.017177,0.024175,0.021209,0.027145999999999997,0.008664
106,0.549558,-0.22070399999999998,-0.7801560000000001,0.509641,0.21891599999999997,-0.8320700000000001,-0.0019079999999999998,-0.009755,0.04119,-0.007490000000000001,0.025422999999999998,0.000741
107,0.549822,-0.220379,-0.779226,0.509897,0.218599,-0.831997,-0.0094,-0.004445,0.051813,-0.019129,0.009198999999999999,-0.002598
108,0.549966,-0.220061,-0.778184,0.510054,0.21828899999999998,-0.831982,-0.008371,-0.011909999999999999,0.052898,-0.017012,0.005359,-0.005618
109,0.550128,-0.219994,-0.777175,0.510196,0.21822399999999997,-0.8319120000000001,-0.0051600000000000005,-0.015099000000000001,0.047586,-0.016605,0.005592,-0.009412
110,0.550086,-0.21992899999999999,-0.776407,0.510169,0.21816,-0.831946,-0.008255,-0.001201,0.037932,-0.013739,0.010478,-0.009119
111,0.550449,-0.21999000000000002,-0.775597,0.510464,0.21821999999999997,-0.831749,-0.021994999999999997,0.027608999999999998,0.037799,-0.008816,0.017513,-0.010017
112,0.551427,-0.22012800000000002,-0.774628,0.511261,0.21835500000000002,-0.831224,-0.031477,0.058517999999999994,0.041966,-0.007675,0.021208,-0.011351
113,0.552945,-0.22040700000000002,-0.773524,0.51249,0.218627,-0.8303950000000001,-0.040973,0.080927,0.040803,-0.008508,0.01056,-0.008961
114,0.554624,-0.22084499999999999,-0.7725350000000001,0.513833,0.21905500000000003,-0.8294520000000001,-0.040895999999999995,0.085239,0.027979,-0.0036560000000000004,0.012116,0.000381
115,0.5563739999999999,-0.22139299999999998,-0.7718149999999999,0.515221,0.21958899999999998,-0.828449,-0.032313999999999996,0.085252,0.017357,0.0045850000000000005,0.019684,0.011753
116,0.55798,-0.22190700000000002,-0.771253,0.516491,0.22009,-0.827525,-0.029137,0.077792,0.015253000000000001,0.006337,0.024875,0.012522
117,0.559251,-0.222214,-0.770605,0.517506,0.22038899999999997,-0.8268110000000001,-0.025037,0.054286,0.029198,0.0034289999999999998,0.023477,0.012617
118,0.560118,-0.22229899999999997,-0.769775,0.518213,0.22047199999999997,-0.8263450000000001,-0.017713,0.030789999999999998,0.037825,0.0018219999999999998,0.015749000000000003,0.009741
119,0.560714,-0.222241,-0.76903,0.518712,0.22041599999999997,-0.826047,-0.004954,0.017975,0.034726,0.008418,0.017894999999999998,0.003507
120,0.561287,-0.222173,-0.7683369999999999,0.519193,0.22035,-0.8257629999999999,-0.009226,0.017986000000000002,0.035764,0.007128,0.017443,-0.003385
121,0.561724,-0.22221300000000002,-0.767552,0.5195489999999999,0.22038899999999997,-0.825528,-0.013537,0.007352,0.03468,0.010297,0.022668,-0.0019399999999999999
122,0.561986,-0.222169,-0.766891,0.51977,0.22034600000000001,-0.825401,-0.003935,0.003075,0.030479000000000003,0.009618000000000002,0.021902,0.0017620000000000001
123,0.5620930000000001,-0.22196999999999997,-0.766396,0.519882,0.220152,-0.825382,0.011049,0.006248,0.023102,0.006881999999999999,0.009844,0.0045049999999999995
124,0.561995,-0.221621,-0.766267,0.519843,0.21981199999999998,-0.825498,0.016331000000000002,-0.012916,0.015686000000000002,0.0072109999999999995,0.006370000000000001,0.004575
125,0.5616800000000001,-0.22137600000000002,-0.766224,0.5196109999999999,0.219573,-0.825707,0.015253999999999998,-0.021408,0.00928,0.003048,0.011734999999999999,0.001809
126,0.5613560000000001,-0.221171,-0.766232,0.519368,0.21937199999999998,-0.8259129999999999,0.012078,-0.017131999999999998,0.008184,0.001598,0.015581999999999999,-0.004378
127,0.561212,-0.220982,-0.76618,0.519271,0.21918800000000002,-0.826023,0.005715,-0.008587000000000001,0.008129,0.002153,0.01804,-0.000515
128,0.561339,-0.22095599999999999,-0.766044,0.519378,0.219162,-0.8259620000000001,-0.003805,0.008495,0.006972,0.004288,0.016937,-0.0017510000000000002
129,0.56185,-0.22121300000000002,-0.765818,0.519771,0.21941300000000002,-0.825649,-0.017569,0.028796,0.003646,0.007679999999999999,0.017724,-0.004155
130,0.5626439999999999,-0.221656,-0.765583,0.520374,0.21984499999999998,-0.825154,-0.021769999999999998,0.040541,0.000397,0.010098000000000001,0.021442,0.004536
131,0.563499,-0.22214299999999998,-0.765342,0.521022,0.22032,-0.8246180000000001,-0.018579,0.040522,0.002555,0.002934,0.022661,0.008425
132,0.564189,-0.22235700000000003,-0.765061,0.521566,0.220529,-0.824218,-0.010144,0.026608999999999997,0.011178,-0.0026609999999999997,0.019461000000000003,0.008254000000000001
133,0.564542,-0.22240900000000002,-0.764712,0.5218510000000001,0.22058000000000003,-0.824024,-0.000696,0.002036,0.020888999999999998,-0.0064849999999999994,0.011064000000000001,0.006138
134,0.564329,-0.222176,-0.764388,0.521702,0.22035300000000002,-0.8241790000000001,0.008786,-0.025689999999999998,0.019923,-0.005116,0.013166999999999998,0.001837
135,0.563704,-0.22202199999999997,-0.764256,0.521205,0.220202,-0.824534,0.01622,-0.0406,0.012516,6.500000000000001e-05,0.013669,-0.00205
136,0.562793,-0.221725,-0.764307,0.520489,0.219913,-0.8250629999999999,0.022446,-0.045913,0.008061,0.004413,0.017865,-0.002238
137,0.561858,-0.22127199999999997,-0.764459,0.51977,0.219471,-0.825634,0.027804000000000002,-0.041667,0.007025,0.0036369999999999996,0.020047,0.000728
138,0.561179,-0.22086599999999998,-0.764662,0.519257,0.219075,-0.8260620000000001,0.026827999999999998,-0.022484,0.005925,0.004608,0.012966,0.003934
139,0.56087,-0.22057399999999996,-0.764764,0.5190359999999999,0.21879,-0.826277,0.011945,-0.008592,0.007940000000000001,0.003013,0.012853999999999999,0.000379
140,0.560757,-0.22048099999999998,-0.764664,0.518953,0.21869899999999998,-0.8263530000000001,0.001281,-0.006428,0.008931,-0.001741,0.014180000000000002,0.000547
141,0.560631,-0.22050300000000003,-0.764525,0.518846,0.21871999999999997,-0.826414,0.004453,-0.010709,0.011095,-0.003694,0.011031000000000001,-0.002001
142,0.560411,-0.22041100000000002,-0.764321,0.518676,0.218631,-0.8265450000000001,0.002257,-0.020306,0.015365,-0.006942,0.004681,-0.008554
143,0.560249,-0.22023800000000002,-0.76384,0.518562,0.218462,-0.8266610000000001,0.002262,-0.016058000000000003,0.018563999999999997,-0.0018989999999999999,0.00952,0.00705
144,0.560268,-0.22013400000000002,-0.763614,0.5185890000000001,0.21836,-0.8266709999999999,0.0034340000000000004,0.004190999999999999,0.015341999999999998,-0.000309,0.022057,0.00175
145,0.560211,-0.21999499999999997,-0.7633949999999999,0.518558,0.218225,-0.8267260000000001,0.004453,-0.007526000000000001,0.014296000000000001,0.001217,0.022818,0.003102
146,0.560003,-0.219849,-0.763283,0.518403,0.21808200000000003,-0.8268610000000001,0.011935,-0.007539,0.011143,0.004804999999999999,0.01814,0.004809000000000001
147,0.559968,-0.219597,-0.7633850000000001,0.518403,0.217837,-0.826925,0.016304,0.0042060000000000005,0.00047599999999999997,0.009215000000000001,0.019865,0.005102000000000001
148,0.560122,-0.21961799999999998,-0.76359,0.518528,0.21785700000000002,-0.8268409999999999,0.012084000000000001,0.009569,-0.004901,0.007427,0.016548,0.007840999999999999
149,0.560042,-0.21956900000000001,-0.763824,0.518467,0.217809,-0.826892,0.015203,-0.007490999999999999,-0.0037890000000000003,0.005275,0.016000999999999998,0.006
150,0.559638,-0.219297,-0.76407,0.518165,0.217543,-0.827152,0.022580000000000003,-0.023513,0.000556,0.001565,0.014253,0.003055
151,0.559207,-0.21913000000000002,-0.764284,0.517828,0.217381,-0.827406,0.016895,-0.02246,-0.000146,0.009226,0.007915,-0.003283
152,0.558773,-0.21909099999999998,-0.7644340000000001,0.517474,0.217342,-0.8276370000000001,0.006241,-0.02241,-0.003425,0.006651000000000001,0.017109,-0.004379
153,0.558447,-0.21909299999999998,-0.764487,0.517203,0.217344,-0.8278059999999999,0.004121,-0.014962,0.000824,0.002053,0.019944999999999997,0.001466
154,0.5581189999999999,-0.218989,-0.76446,0.516944,0.217243,-0.827994,0.011518,-0.022479,0.009431,-0.009940000000000001,0.018078,0.004035
155,0.5575829999999999,-0.21880100000000002,-0.764347,0.516522,0.21706,-0.828306,0.007193000000000001,-0.032064999999999996,0.012617,-0.008877,0.012967,0.000425
156,0.5570390000000001,-0.21859699999999999,-0.7642399999999999,0.5160939999999999,0.21686,-0.828624,0.009341,-0.030998,0.010495,-0.0008359999999999999,0.014707,0.0016899999999999999
157,0.556334,-0.21852199999999997,-0.764279,0.515518,0.21678699999999998,-0.829002,0.009369,-0.035217,-0.000182,0.009796,0.012355,0.0034100000000000003
158,0.555708,-0.218579,-0.764559,0.514993,0.216842,-0.829314,0.018034,-0.019216999999999998,-0.012961000000000002,0.015753,0.018128000000000002,0.0033399999999999997
159,0.55532,-0.218435,-0.76517,0.514688,0.216702,-0.8295399999999999,0.024184999999999998,-0.006816,-0.022904,0.011405,0.017154,0.002224
160,0.5551,-0.218446,-0.7658560000000001,0.514504,0.21671300000000002,-0.829651,0.018903,0.000676,-0.027224,0.0029059999999999997,0.010094,0.0019690000000000003
161,0.555114,-0.218606,-0.766417,0.514497,0.216869,-0.829615,0.006115,0.006039,-0.025183,-0.009889,0.009877,-0.009984999999999999
162,0.5552600000000001,-0.21892899999999998,-0.766845,0.5145810000000001,0.21718400000000002,-0.8294799999999999,0.00079,0.008187999999999999,-0.025223,-0.021509,0.010431000000000001,-0.011615
163,0.555534,-0.21924699999999997,-0.767346,0.514772,0.217495,-0.8292809999999999,0.00513,0.020968999999999998,-0.028414,-0.031816000000000004,0.010563,-0.015034
164,0.556017,-0.219518,-0.767858,0.515141,0.21775999999999998,-0.828981,0.003039,0.031625,-0.027374000000000002,-0.032979,0.011304999999999999,-0.011212999999999999
165,0.556623,-0.219824,-0.768296,0.515609,0.218058,-0.8286120000000001,-0.00014199999999999998,0.042263,-0.021001,-0.027404,0.011845999999999999,-0.007981
166,0.557357,-0.22015300000000002,-0.768528,0.516178,0.218379,-0.8281729999999999,-0.009754,0.049714999999999995,-0.011463,-0.016468,0.012899,-0.008817
167,0.55816,-0.22055300000000003,-0.7686069999999999,0.5167970000000001,0.21876900000000002,-0.827684,-0.014211000000000001,0.055781,-0.010426999999999999,-0.006055,0.01347,-0.004256
168,0.559264,-0.220982,-0.768699,0.5176609999999999,0.21918800000000002,-0.827033,-0.014115,0.077086,-0.010454000000000001,0.004907,0.010533,0.000343
169,0.560632,-0.221516,-0.76874,0.518729,0.21970900000000002,-0.826225,-0.021569,0.079247,-0.011576999999999999,0.012704,0.014819,0.004753
170,0.561963,-0.222119,-0.768828,0.5197579999999999,0.220297,-0.825422,-0.019435,0.073935,-0.016896,0.008425,0.021981999999999998,0.007428
171,0.56303,-0.22255999999999998,-0.769039,0.520586,0.220728,-0.824784,-0.0035280000000000003,0.051512999999999996,-0.017825,0.00572,0.024634,0.012269
172,0.563721,-0.222673,-0.769405,0.521143,0.22083699999999998,-0.8244040000000001,0.012394,0.034408,-0.016623,0.005469,0.028842000000000003,0.015901
173,0.5642550000000001,-0.22271300000000002,-0.769781,0.521578,0.22087600000000002,-0.824118,0.010198,0.021628,-0.015553999999999998,0.0068790000000000006,0.028116000000000002,0.018515
174,0.5641689999999999,-0.22294299999999997,-0.76994,0.52148,0.2211,-0.8241200000000001,-0.01247,-0.025212000000000002,-0.0039020000000000005,0.023717,0.01155,0.014381999999999999
175,0.561419,-0.223442,-0.769447,0.519153,0.22158699999999998,-0.825457,-0.05427100000000001,-0.250931,-0.00687,-0.004809000000000001,0.089982,0.05229400000000001
176,0.5535100000000001,-0.22803,-0.765073,0.5120680000000001,0.226059,-0.828664,-0.456305,-0.575943,0.100765,0.065584,0.024796000000000002,-0.027461000000000003
177,0.5475220000000001,-0.23135799999999998,-0.7605890000000001,0.506703,0.2293,-0.831068,-0.039918,-0.057447000000000005,0.07950800000000001,0.093059,0.029718,-0.053301
178,0.552909,-0.22781700000000002,-0.761817,0.511596,0.22585100000000002,-0.8290120000000001,0.287589,0.38255100000000003,0.05239,0.007370999999999999,-0.05065,-0.027235000000000002
179,0.557372,-0.224056,-0.764264,0.515736,0.22218600000000002,-0.8274360000000001,0.171515,0.072382,-0.069801,-0.063832,-0.08552799999999999,-0.004748
180,0.554325,-0.22335500000000003,-0.767899,0.5132939999999999,0.221502,-0.8291360000000001,0.08318400000000001,-0.19544,-0.15019100000000002,-0.075901,-0.057196000000000004,0.102405
181,0.5514220000000001,-0.22526500000000002,-0.76926,0.510662,0.22336399999999998,-0.83026,-0.093671,-0.052428999999999996,-0.062948,-0.015362,0.028009,-0.011414
182,0.553992,-0.22711599999999998,-0.768293,0.5125770000000001,0.22516799999999998,-0.828592,-0.08453200000000001,0.157096,0.012691,-0.0004,0.063635,-0.082968
183,0.556602,-0.227361,-0.7676109999999999,0.5147079999999999,0.22540700000000002,-0.827205,0.000204,0.080163,0.011715,0.008608,0.05495800000000001,-0.031408
184,0.5570069999999999,-0.22620500000000002,-0.768115,0.515181,0.224281,-0.827217,0.07033400000000001,0.012822,0.008018,-0.022291,0.015054,0.037513
185,0.5573779999999999,-0.22532199999999997,-0.7680680000000001,0.515592,0.223421,-0.8271930000000001,0.004131,0.026795999999999997,0.034243,-0.03938,-0.005861,0.049346
186,0.557897,-0.22607,-0.766922,0.515932,0.224149,-0.826783,-0.07270700000000001,0.025981999999999998,0.03798,-0.042681000000000004,-0.013486000000000001,-0.006072
187,0.5581550000000001,-0.227425,-0.765799,0.515984,0.22546999999999998,-0.826392,-0.069502,-0.006915999999999999,0.0038619999999999995,-0.019509000000000002,0.014993000000000001,-0.035257
188,0.5580069999999999,-0.228179,-0.7658,0.515772,0.226204,-0.826324,0.0032270000000000003,0.0046630000000000005,-0.024487000000000002,-0.0034270000000000004,0.03347,-0.022019
189,0.558466,-0.227792,-0.766742,0.516197,0.22582800000000003,-0.826161,0.05360499999999999,0.053502999999999995,-0.027402999999999997,-0.004051,0.024111,0.01151
190,0.559277,-0.22712600000000002,-0.7678119999999999,0.516947,0.22517800000000002,-0.8258700000000001,0.048318,0.06629600000000001,-0.025319,-0.008494,0.009151000000000001,0.01781
191,0.559841,-0.226908,-0.768755,0.5174380000000001,0.224966,-0.82562,0.022608,0.035523,-0.032937,-0.011777,0.002893,0.008648999999999999
192,0.559723,-0.227287,-0.769588,0.517296,0.22533499999999998,-0.825608,0.005111999999999999,-0.000328,-0.042988,-0.007956999999999999,0.001182,0.000611
193,0.5593560000000001,-0.227906,-0.7705029999999999,0.5169189999999999,0.225938,-0.82568,0.006193,-0.008806999999999999,-0.054720000000000005,-0.0033380000000000003,0.00891,-0.005817
194,0.55897,-0.228269,-0.7718109999999999,0.5165569999999999,0.22629200000000002,-0.825809,0.034008,-0.00247,-0.065216,0.002959,0.018825,-0.001369
195,0.558647,-0.228127,-0.773467,0.516307,0.22615300000000002,-0.826003,0.054298,0.005964,-0.060813,0.00536,0.023663999999999998,0.004638000000000001
196,0.5583739999999999,-0.227865,-0.774883,0.516113,0.22589800000000002,-0.8261950000000001,0.039266,0.002748,-0.042754,0.00882,0.01693,0.011085
197,0.558139,-0.22780599999999998,-0.775672,0.515926,0.22584,-0.826327,0.014613,-0.004695,-0.024756999999999998,0.006459,0.015599000000000002,0.010745000000000001
198,0.5577850000000001,-0.22794,-0.776133,0.515617,0.225971,-0.826484,0.007078,-0.017461,-0.022657,0.008095,0.012387,0.0073620000000000005
199,0.557098,-0.22825700000000002,-0.77683,0.515011,0.22628,-0.826778,0.015627000000000002,-0.033393,-0.041804,0.0061070000000000004,0.004601,0.002299
200,0.5560510000000001,-0.22851799999999997,-0.778145,0.514115,0.226534,-0.827266,0.03361,-0.042968,-0.06944600000000001,0.002762,0.002531,0.007640000000000001
201,0.5546949999999999,-0.22875900000000002,-0.7800590000000001,0.5129640000000001,0.226769,-0.827916,0.04966,-0.056774,-0.093886,0.011313,0.011131,0.011677
202,0.5528810000000001,-0.228836,-0.782618,0.511452,0.22684400000000002,-0.82883,0.075299,-0.072749,-0.11718699999999999,0.018974,0.01481,0.015887000000000002
203,0.550629,-0.22864600000000002,-0.785872,0.509606,0.22665900000000003,-0.830016,0.09990399999999999,-0.080202,-0.139438,0.018958000000000003,0.018169,0.009139
204,0.548261,-0.228413,-0.789633,0.507666,0.22643200000000002,-0.831266,0.10746300000000002,-0.076964,-0.15648099999999998,-0.0018219999999999998,0.019921,-0.003909
205,0.546203,-0.228271,-0.793571,0.505971,0.226294,-0.8323360000000001,0.107563,-0.056715999999999996,-0.158643,-0.011571,0.023675,-0.015137000000000001
206,0.544752,-0.22818000000000002,-0.7971159999999999,0.504774,0.22620500000000002,-0.8330870000000001,0.08730700000000001,-0.029046,-0.134251,-0.013731,0.020453,-0.010281
207,0.544064,-0.22828800000000002,-0.799858,0.504188,0.22630999999999998,-0.833413,0.057573,-0.001405,-0.10453599999999999,-0.008064,0.011054999999999999,-0.011573
208,0.543808,-0.22855999999999999,-0.801826,0.503942,0.226575,-0.83349,0.032968,0.011353,-0.07695,-0.000341,0.011599,-0.014197
209,0.543723,-0.228973,-0.8031020000000001,0.5038229999999999,0.22697699999999998,-0.8334530000000001,0.009396999999999999,0.01665,-0.049348,0.008520999999999999,0.018613,-0.006376
210,0.544144,-0.229467,-0.803593,0.504116,0.22745900000000002,-0.833144,-0.014103000000000001,0.042171,-0.017498,0.00861,0.022969,0.001037
211,0.545247,-0.229965,-0.803367,0.504976,0.227944,-0.832491,-0.031192,0.063434,0.007993,0.008284,0.025108000000000002,0.003527
212,0.546536,-0.23037600000000003,-0.802741,0.506,0.22834400000000002,-0.831759,-0.030220999999999998,0.053796000000000004,0.019762000000000002,0.009715999999999999,0.025501,0.005801
213,0.547442,-0.23059899999999997,-0.80218,0.506727,0.22856100000000001,-0.831257,-0.016447999999999997,0.031381,0.018819,0.01459,0.021515,0.009968000000000001
214,0.547929,-0.23069499999999998,-0.8018390000000001,0.50712,0.22865500000000002,-0.830991,-0.006889,0.015394,0.012497,0.01618,0.020597999999999998,0.012464
215,0.548091,-0.230754,-0.80161,0.507247,0.228712,-0.8308979999999999,-0.002684,-0.001652,0.009344,0.017594,0.012651,0.012843
216,0.54794,-0.230776,-0.801447,0.507119,0.228733,-0.8309700000000001,-0.00056,-0.018483000000000003,0.006258,0.01734,0.010556,0.002311
217,0.547509,-0.230744,-0.801401,0.5067649999999999,0.228702,-0.8311950000000001,0.009013,-0.028091,0.003133,0.013651,0.008374,-0.002378
218,0.546981,-0.2306,-0.801416,0.506343,0.228562,-0.83149,0.010051000000000001,-0.032364,0.005282,0.006809999999999999,0.010376,-0.0019140000000000001
219,0.546514,-0.23049299999999998,-0.801307,0.5059670000000001,0.228458,-0.8317469999999999,0.001521,-0.028086,0.008422,0.0038590000000000005,0.008008,0.000601
220,0.546144,-0.230508,-0.801056,0.5056579999999999,0.22847199999999998,-0.831932,-0.009138,-0.024857,0.009411,0.004855,0.010817,-0.001
221,0.545792,-0.230594,-0.8007380000000001,0.505355,0.22855599999999998,-0.8320930000000001,-0.011276999999999999,-0.023793,0.011531,0.006302,0.016394,0.0015869999999999999
222,0.545554,-0.230667,-0.800408,0.505149,0.228627,-0.832198,-0.010172,-0.013153,0.013662,0.0046630000000000005,0.017497,0.0017690000000000002
223,0.54555,-0.230708,-0.80001,0.5051399999999999,0.228667,-0.8321930000000001,-0.008995999999999999,-0.004782,0.018078999999999998,-0.00131,0.016008,0.002176
224,0.5455840000000001,-0.23071399999999997,-0.799575,0.505167,0.22867300000000002,-0.832174,-0.010058,-0.002652,0.019137,-0.00413,0.017283,0.0007379999999999999
225,0.545639,-0.230742,-0.7992090000000001,0.50521,0.2287,-0.832141,-0.005777,-0.0037159999999999997,0.014896000000000001,-0.008918,0.012891999999999999,-0.000317
226,0.545542,-0.230764,-0.798981,0.505127,0.228721,-0.8321860000000001,-0.000442,-0.009039,0.009599,-0.008743,0.009559999999999999,-0.000959
227,0.545295,-0.23075199999999998,-0.798894,0.504923,0.22871,-0.832313,0.001696,-0.014347,0.003211,-0.0059759999999999995,0.009953,-0.002908
228,0.5450149999999999,-0.23075199999999998,-0.798936,0.50469,0.22871,-0.8324540000000001,0.0070739999999999996,-0.010084000000000001,-0.002098,0.0019320000000000001,0.009068000000000001,-0.005116
229,0.544797,-0.230735,-0.799167,0.50451,0.22869299999999998,-0.832568,0.00926,-0.0036780000000000003,-0.007431999999999999,0.0029519999999999998,0.011937999999999999,-0.003461
230,0.5448,-0.23069299999999998,-0.799458,0.504518,0.228652,-0.8325739999999999,0.010394,0.00911,-0.009577,0.003447,0.012727,-0.002433
231,0.544896,-0.23070300000000002,-0.799771,0.504596,0.228661,-0.8325239999999999,0.010187,0.01329,-0.011126,0.003949,0.008612999999999999,0.000737
232,0.545078,-0.230748,-0.800024,0.504743,0.228706,-0.8324229999999999,0.004848,0.012244,-0.011161,0.003878,0.009651999999999999,0.002879
233,0.545226,-0.230832,-0.800246,0.5048560000000001,0.228787,-0.832332,0.000571,0.011189,-0.010121999999999999,0.005489,0.011599,0.002147
234,0.545421,-0.23095500000000002,-0.800409,0.505004,0.22890700000000003,-0.832209,0.000566,0.012246,-0.007987000000000001,0.007203,0.015905000000000002,0.001811
235,0.545674,-0.23110100000000003,-0.8004760000000001,0.505197,0.22904899999999997,-0.832053,-0.003725,0.011179000000000001,-0.003742,0.008139,0.014816999999999999,0.002738
236,0.5459109999999999,-0.231167,-0.800481,0.505386,0.229113,-0.8319209999999999,-0.0026780000000000003,0.010097,-0.000529,0.005677000000000001,0.015453999999999999,0.003353
237,0.546082,-0.23123000000000002,-0.800506,0.505521,0.229175,-0.831822,-0.000554,0.005837,-0.0026449999999999998,0.0036340000000000005,0.015743,0.005375
238,0.5461189999999999,-0.23129299999999997,-0.800507,0.505544,0.22923600000000002,-0.831791,0.002594,-0.0037700000000000003,-0.00047400000000000003,0.00268,0.013958000000000002,0.0027199999999999998
239,0.545977,-0.23132399999999997,-0.800538,0.505422,0.229267,-0.8318559999999999,0.002778,-0.010813,-1.1e-05,0.002848,0.013775,0.001565
240,0.545667,-0.231294,-0.800585,0.5051680000000001,0.229237,-0.8320190000000001,0.004879,-0.018277,1.3000000000000001e-05,0.002644,0.011913,0.003146
241,0.545293,-0.231323,-0.800657,0.504853,0.229265,-0.832202,0.004879,-0.020399,-0.002121,0.000442,0.013899000000000002,-0.0013390000000000001
242,0.5449109999999999,-0.231327,-0.800743,0.5045350000000001,0.22926999999999997,-0.8323940000000001,0.003831,-0.016134,-0.002134,-0.0017420000000000003,0.016549,-0.00046100000000000004
243,0.544554,-0.23129299999999997,-0.800754,0.5042409999999999,0.229237,-0.8325809999999999,0.0016539999999999999,-0.020409,0.003198,-0.001418,0.016827,-0.000366
244,0.544164,-0.231292,-0.800633,0.5039170000000001,0.229235,-0.832778,-0.000508,-0.021488,0.008525,0.000782,0.011426,0.000884
245,0.543821,-0.231254,-0.800461,0.503636,0.22919899999999999,-0.832958,-0.001556,-0.017223,0.008512,0.0017350000000000002,0.011722,-0.002278
246,0.543602,-0.231283,-0.800301,0.50345,0.229227,-0.8330620000000001,-0.001508,-0.008693000000000001,0.006365,0.008528,0.012944999999999998,-0.00023500000000000002
247,0.543633,-0.231307,-0.800199,0.503473,0.22925,-0.8330420000000001,-0.0021,0.007391,0.005558,0.005118,0.013502000000000002,-0.00143
248,0.543945,-0.23132199999999997,-0.800068,0.503731,0.229264,-0.832882,-0.001004,0.015901,0.007691,0.000938,0.013503,-0.00023199999999999997
249,0.544269,-0.23133,-0.7999229999999999,0.504,0.22927199999999998,-0.832717,-0.003152,0.012713,0.007679999999999999,-1.7e-05,0.01142,0.001358
250,0.5444829999999999,-0.231364,-0.7998149999999999,0.504174,0.229305,-0.8326030000000001,-0.0021,0.005268999999999999,0.0034240000000000004,-0.001183,0.012043,0.002372
251,0.544556,-0.231397,-0.799755,0.504231,0.22933800000000001,-0.832559,0.001091,0.001005,0.001315,0.000743,0.012453,0.004526
252,0.5444939999999999,-0.231429,-0.799794,0.5041760000000001,0.229368,-0.832584,0.0010869999999999999,-0.004304,-0.002951,0.0055439999999999994,0.012835,0.0019260000000000002
253,0.544387,-0.23141199999999998,-0.799967,0.504088,0.229352,-0.832642,0.009645,-0.003252,-0.007165,0.008912,0.013522,0.005753
254,0.544319,-0.23136700000000002,-0.8002560000000001,0.504037,0.22930799999999998,-0.832685,0.010745999999999999,0.0020800000000000003,-0.009301,0.008506,0.013656999999999999,-0.000246
255,0.5443979999999999,-0.23136700000000002,-0.800488,0.504103,0.22930799999999998,-0.8326450000000001,0.006078,0.008701,-0.006409999999999999,0.006273,0.015549,-0.002514
256,0.544566,-0.231402,-0.80056,0.504239,0.229343,-0.8325530000000001,0.0007099999999999999,0.007629,-3.6e-05,0.0008119999999999999,0.012784,0.000202
257,0.5447029999999999,-0.23146399999999998,-0.800546,0.504346,0.22940300000000002,-0.832472,-0.001443,0.003375,-4.6e-05,-0.000149,0.011945,0.002165
258,0.544808,-0.23149699999999998,-0.800499,0.504429,0.229435,-0.832413,-0.0004,0.000167,0.002102,-0.000721,0.013484999999999999,0.000687
259,0.544795,-0.23156500000000002,-0.8004979999999999,0.50441,0.229501,-0.832406,-0.001472,-0.003017,-3.8e-05,0.0016170000000000002,0.015234000000000001,0.001198
260,0.544782,-0.231594,-0.800488,0.504396,0.22952899999999998,-0.832407,0.000667,0.00016299999999999998,0.002109,0.003325,0.013605,0.003244
261,0.544751,-0.23155799999999999,-0.800503,0.504374,0.229494,-0.8324299999999999,0.002796,-0.00197,0.001059,0.004018,0.01193,9.300000000000001e-05
262,0.5446880000000001,-0.23154499999999997,-0.8005369999999999,0.504323,0.22948200000000002,-0.832464,0.0028,-0.0009050000000000001,0.001057,0.005915,0.011484999999999999,0.000585
263,0.544679,-0.23160100000000003,-0.800519,0.504309,0.22953600000000002,-0.832457,-0.001457,0.00017900000000000001,-4.2e-05,0.004678,0.011262999999999999,0.000884
264,0.544738,-0.231673,-0.800452,0.5043489999999999,0.229606,-0.832414,-0.002796,0.00145,0.001486,0.0025629999999999997,0.012017,-0.000808
265,0.5448029999999999,-0.231773,-0.800385,0.5043920000000001,0.229704,-0.832361,-0.004925,0.002523,0.00147,0.007403,0.011309,0.001657
266,0.544902,-0.23187,-0.80032,0.504462,0.229798,-0.832292,-0.0049299999999999995,0.002518,0.002538,0.0033200000000000005,0.014144,0.001772
267,0.544971,-0.231952,-0.80024,0.50451,0.22987800000000003,-0.832241,-0.002796,0.00145,0.001486,0.001242,0.014522,0.004437
268,0.545014,-0.23205399999999998,-0.8001159999999999,0.504534,0.229977,-0.832199,-0.006035,-0.002817,0.005742000000000001,0.001463,0.014697,0.000275
269,0.544932,-0.232106,-0.799941,0.504459,0.230027,-0.8322309999999999,-0.007126,-0.007078,0.006808,0.002499,0.014556,0.000138
270,0.5449430000000001,-0.23219800000000002,-0.799713,0.504458,0.23011700000000002,-0.8322069999999999,-0.006044,-0.0017640000000000002,0.008945,0.004209,0.011674,-0.001656
271,0.545031,-0.232242,-0.799496,0.504526,0.23016,-0.832153,-0.004949,0.0046229999999999995,0.008945,0.0048579999999999995,0.01546,-0.000381
272,0.545234,-0.232262,-0.799279,0.504692,0.230179,-0.832047,-0.005117,0.010028,0.009279,0.0045850000000000005,0.012206,0.0007639999999999999
273,0.5455439999999999,-0.232339,-0.79909,0.504941,0.23025500000000002,-0.8318760000000001,-0.005089,0.014297,0.007137,0.0013310000000000002,0.015747999999999998,0.000638
274,0.545854,-0.23240300000000003,-0.7988729999999999,0.505191,0.230317,-0.831707,-0.006175,0.011101,0.008202,-0.0016359999999999999,0.017547,0.002071
275,0.546081,-0.232413,-0.798605,0.505379,0.230327,-0.8315899999999999,-0.007285,0.007883,0.014608000000000001,-0.000588,0.016072,0.0025800000000000003
276,0.546343,-0.232467,-0.798214,0.50559,0.230379,-0.8314469999999999,-0.010504000000000001,0.007877,0.018858,0.003915999999999999,0.012587000000000001,0.000728
277,0.546615,-0.23252199999999998,-0.797717,0.50581,0.230433,-0.831298,-0.013715,0.008941,0.022039,0.009251,0.008870999999999999,0.001251
278,0.546914,-0.2326,-0.797145,0.506049,0.230508,-0.831132,-0.014782,0.010006000000000001,0.023099,0.009393,0.012473,0.001099
279,0.5472899999999999,-0.23270300000000002,-0.7965760000000001,0.5063489999999999,0.230609,-0.8309209999999999,-0.017012,0.015519999999999999,0.021113999999999997,0.007658,0.012189,0.003544
280,0.5478569999999999,-0.232844,-0.7960189999999999,0.506803,0.230746,-0.830606,-0.018036,0.025112,0.021095,0.004992,0.0155,0.001673
281,0.548512,-0.232961,-0.795441,0.507333,0.23085999999999998,-0.8302510000000001,-0.019108,0.025111,0.022156,0.003135,0.014609,0.002248
282,0.549125,-0.233092,-0.794868,0.507826,0.230987,-0.8299139999999999,-0.018055,0.019788999999999998,0.020034,2e-06,0.013596,0.001118
283,0.5495180000000001,-0.233156,-0.794419,0.5081439999999999,0.23104899999999998,-0.829702,-0.010616,0.009128,0.015826,-0.00349,0.011764,0.00443
284,0.549701,-0.23319099999999998,-0.7941050000000001,0.508292,0.23108299999999998,-0.8296020000000001,-0.00742,0.002746,0.010516,-0.002876,0.013622,0.00433
285,0.549726,-0.233244,-0.793933,0.508306,0.23113499999999998,-0.8295790000000001,-0.002095,-0.0025859999999999998,0.0073549999999999996,-0.002218,0.012975,0.000889
286,0.5495869999999999,-0.233215,-0.79385,0.5081939999999999,0.231107,-0.8296549999999999,0.004277,-0.010061,0.006340999999999999,0.001861,0.012484,-0.0025280000000000003
287,0.549371,-0.23311199999999999,-0.793784,0.5080279999999999,0.231006,-0.829785,0.003104,-0.011038,0.006428,0.0036450000000000002,0.013378999999999999,-1.8e-05
288,0.549217,-0.23304699999999998,-0.793693,0.507908,0.23094299999999998,-0.8298760000000001,0.000995,-0.0067659999999999994,0.005339,0.0032310000000000004,0.011564,-0.0008269999999999999
289,0.549147,-0.233073,-0.793626,0.507846,0.23096799999999998,-0.829907,-3.9e-05,-0.0014269999999999999,0.003189,0.004345,0.009678,-0.003803
290,0.5492060000000001,-0.23310300000000003,-0.793592,0.507892,0.23099699999999998,-0.8298709999999999,-0.0,0.004973,0.001044,0.003583,0.009588,-0.000817
291,0.54938,-0.233146,-0.793628,0.508031,0.23104,-0.829774,0.0011099999999999999,0.011373999999999999,-0.0021609999999999997,0.002696,0.011071,-0.001525
292,0.549601,-0.23321999999999998,-0.793674,0.508206,0.231111,-0.8296469999999999,-0.001019,0.010324,-0.004311,-0.00343,0.015639,0.002026
293,0.54978,-0.233287,-0.793694,0.508346,0.231177,-0.829543,-0.0010429999999999999,0.009242,-3.7e-05,-0.006622,0.016672,-0.000459
294,0.549871,-0.23331999999999997,-0.7936270000000001,0.508418,0.23120900000000003,-0.82949,-0.002182,-0.001428,0.0053100000000000005,-0.00445,0.013557,0.0005110000000000001
295,0.54978,-0.23329899999999998,-0.793504,0.5083449999999999,0.231188,-0.829541,0.0009029999999999999,-0.007797,0.006469,0.000704,0.015271999999999999,-6.4e-05
296,0.549659,-0.233208,-0.793449,0.508255,0.2311,-0.82962,0.005194,-0.004607,0.004359,0.006576,0.010752,0.000229
297,0.54962,-0.233156,-0.793461,0.508229,0.23104899999999998,-0.82965,0.005232,0.0017929999999999999,0.0022140000000000003,0.005367,0.011886,0.0013570000000000001
298,0.5496939999999999,-0.233132,-0.793514,0.508293,0.231026,-0.829617,0.0041990000000000005,0.007131,6.4e-05,0.004265,0.010719,0.000241
299,0.549862,-0.233183,-0.793568,0.5084270000000001,0.23107600000000003,-0.829522,-5.4000000000000005e-05,0.009281000000000001,-0.001037,-0.00098,0.015201,0.0008320000000000001
300,0.550028,-0.23319499999999999,-0.793579,0.508563,0.23108800000000002,-0.829435,0.0009939999999999999,0.006077,4.3e-05,-0.001864,0.01461,-0.0012380000000000002
301,0.55015,-0.23315500000000003,-0.793553,0.5086689999999999,0.231048,-0.8293809999999999,0.002041,0.0049960000000000004,0.003256,-0.002306,0.013978,0.002584
302,0.55027,-0.23313299999999998,-0.793508,0.508771,0.231027,-0.829324,0.002032,0.003926,0.004325,0.001605,0.013755000000000002,0.0016870000000000001
303,0.550341,-0.233143,-0.793403,0.508828,0.231037,-0.8292860000000001,-0.002262,0.0007559999999999999,0.004292,0.005835,0.012997,0.004106
304,0.5503979999999999,-0.233181,-0.793277,0.508872,0.23107399999999997,-0.829249,-0.004391,0.002889,0.005343,0.006157999999999999,0.011082999999999999,0.001384
305,0.550461,-0.233263,-0.7931229999999999,0.508914,0.23115300000000003,-0.8292010000000001,-0.0065439999999999995,-0.000303,0.0064,0.005643,0.012529,-0.001213
306,0.550485,-0.233356,-0.79299,0.508922,0.231244,-0.8291709999999999,-0.004396,0.000763,0.004277,0.0024,0.014163,-0.000663
307,0.550574,-0.233381,-0.792891,0.508993,0.23126799999999997,-0.8291209999999999,-0.000124,0.001814,0.004306,0.002482,0.011393,-0.00143
308,0.550665,-0.23337600000000003,-0.792863,0.509069,0.23126300000000002,-0.829075,0.002034,0.003949,0.001113,0.004145,0.007903,-0.000148
309,0.550744,-0.233407,-0.79289,0.509131,0.23129299999999997,-0.8290290000000001,-0.001147,0.003978,-0.003182,0.005075,0.009689,0.00037
310,0.550752,-0.233513,-0.792929,0.509125,0.231397,-0.8290040000000001,-0.001166,0.000778,-0.002109,-0.0021969999999999997,0.015719,0.001871
311,0.550739,-0.233529,-0.792921,0.509112,0.23141199999999998,-0.8290069999999999,-3.1e-05,-0.00147,0.002014,-0.0042450000000000005,0.016634,0.00044
312,0.5506949999999999,-0.233504,-0.792844,0.509079,0.231388,-0.8290350000000001,0.001007,-0.004682,0.005229999999999999,-0.002594,0.016247,0.000681
313,0.550579,-0.233422,-0.792774,0.508992,0.23130799999999999,-0.82911,0.0031260000000000003,-0.007886,0.005249,0.003093,0.009888,-0.000617
314,0.550505,-0.23339000000000001,-0.792737,0.508935,0.231277,-0.8291540000000001,0.002093,-0.001486,0.004164999999999999,0.004615,0.012299,-0.000604
315,0.5505329999999999,-0.233397,-0.7926989999999999,0.508957,0.231283,-0.8291379999999999,-7.000000000000001e-06,0.004917,0.003074,0.0046229999999999995,0.011026000000000001,-0.00036
316,0.550637,-0.23344099999999998,-0.792686,0.509038,0.23132600000000003,-0.8290770000000001,0.002146,0.007049,0.00095,0.007562999999999999,0.01196,0.000143
317,0.5507479999999999,-0.233368,-0.792666,0.509139,0.231256,-0.8290350000000001,0.004251,0.003833,0.004174000000000001,0.008439,0.011817,-0.0010279999999999998
318,0.550887,-0.23333800000000002,-0.792586,0.509258,0.23122600000000001,-0.8289700000000001,-0.003213,0.005985,0.005187,0.001011,0.013677000000000002,0.00292
319,0.5510729999999999,-0.233425,-0.7924260000000001,0.509402,0.23131100000000002,-0.828858,-0.006232,0.007978,0.003822,-0.010270999999999999,0.015698,0.002304
320,0.551143,-0.233474,-0.7923819999999999,0.509454,0.231359,-0.8288120000000001,0.001212,-0.002679,-0.0014529999999999999,-0.013558,0.015208000000000001,0.0005650000000000001
321,0.550851,-0.23343000000000003,-0.792499,0.509217,0.231316,-0.8289700000000001,0.009675,-0.021871,-0.004574,-0.0061189999999999994,0.010765,-0.000925
322,0.550272,-0.233321,-0.792709,0.50875,0.23121,-0.8292860000000001,0.010728,-0.026132,-0.00563,-0.0018690000000000002,0.009131,0.003221
323,0.5498149999999999,-0.23329499999999997,-0.79286,0.508374,0.231185,-0.829523,0.00436,-0.01653,-0.00355,0.002017,0.007722,0.005625
324,0.549463,-0.23335,-0.792921,0.508075,0.231238,-0.829692,9.300000000000001e-05,-0.013332,-0.000379,0.003628,0.009058,0.000926
325,0.549273,-0.233528,-0.792876,0.507896,0.23141199999999998,-0.8297530000000001,-0.009461,-0.004768,-0.002593,0.002708,0.01192,-0.0053
326,0.5492819999999999,-0.233604,-0.792884,0.507895,0.231485,-0.8297329999999999,0.002294,0.000513,-0.00145,0.008264,0.012121999999999999,-0.006647
327,0.549321,-0.23359499999999997,-0.792975,0.5079279999999999,0.231477,-0.829716,0.003505,0.005721,-0.003796,0.007835,0.01065,-0.004727
328,0.5495869999999999,-0.23356100000000002,-0.793058,0.508153,0.23144299999999998,-0.8295870000000001,0.004615,0.017427,-0.001667,0.008173999999999999,0.012667,0.001157
329,0.549988,-0.233591,-0.7931199999999999,0.508482,0.23147199999999998,-0.829377,-0.0017620000000000001,0.020653,-0.0038520000000000004,0.005755,0.013462,0.004106
330,0.550236,-0.23371599999999998,-0.793196,0.508672,0.231594,-0.829226,-0.002882,0.006817,-0.005978,0.000331,0.012714,0.00339
331,0.550261,-0.23385,-0.793262,0.508677,0.23172399999999999,-0.8291870000000001,-0.003987,-0.0017010000000000003,-0.005975,9.7e-05,0.012859,0.003793
332,0.550192,-0.233952,-0.793304,0.508608,0.231823,-0.829202,-0.0008150000000000001,-0.004921,-0.002744,0.006193,0.011615,0.001245
333,0.550092,-0.233992,-0.79337,0.50852,0.23186199999999998,-0.8292450000000001,0.002381,-0.007058,-0.0037869999999999996,0.008189,0.011775,-0.001749
334,0.5499229999999999,-0.23403200000000002,-0.793466,0.508375,0.231902,-0.8293229999999999,0.002386,-0.005993,-0.0037890000000000003,0.006594,0.012071,0.001076
335,0.54986,-0.234071,-0.793593,0.508318,0.23194,-0.829347,0.0034909999999999997,0.001464,-0.0048590000000000005,0.00569,0.013666,-0.000319
336,0.549918,-0.23409899999999997,-0.7937270000000001,0.508362,0.23196599999999998,-0.829312,0.0035670000000000003,0.004541,-0.006096,0.00122,0.012983000000000001,-0.0036950000000000004
337,0.5500649999999999,-0.23410100000000003,-0.7938529999999999,0.508484,0.23196799999999998,-0.8292370000000001,0.005715,0.009851,-0.003951,0.001312,0.010875,-0.0015119999999999999
338,0.550253,-0.23412600000000003,-0.7939689999999999,0.508637,0.23199299999999998,-0.8291370000000001,0.002515,0.009862000000000001,-0.003974,-0.000611,0.012392,-5.6999999999999996e-05
339,0.550435,-0.23413499999999998,-0.794063,0.508786,0.232001,-0.829043,0.001438,0.008796,-0.002912,-0.001416,0.01484,0.000597
340,0.550575,-0.234154,-0.7941010000000001,0.5089,0.232021,-0.828967,0.001419,0.007718000000000001,0.000294,-0.001789,0.012303,1.8e-05
341,0.5506770000000001,-0.234173,-0.794091,0.508983,0.232039,-0.8289110000000001,0.000328,0.003457,0.0013599999999999999,-0.00088,0.011415,-0.003639
342,0.550742,-0.234146,-0.794094,0.5090399999999999,0.23201300000000002,-0.8288840000000001,0.0035340000000000002,0.004511,0.001381,0.003442,0.007611,-0.0038799999999999998
343,0.550876,-0.234145,-0.7941189999999999,0.509151,0.232012,-0.828816,0.001429,0.008787999999999999,-0.000775,0.005679999999999999,0.010191,-0.002804
344,0.551094,-0.234235,-0.794146,0.50932,0.232098,-0.8286870000000001,-0.0027670000000000004,0.014032,-0.000947,0.002627,0.012012,0.000852
345,0.551395,-0.23433,-0.79411,0.509558,0.23219099999999998,-0.828515,-0.002763,0.016158000000000002,0.000118,-0.0035310000000000003,0.013338,-0.000327
346,0.5517029999999999,-0.23433,-0.794064,0.509813,0.23219099999999998,-0.828358,-0.000662,0.012938,0.00441,-0.006319,0.012575,-0.000453
347,0.5518649999999999,-0.234346,-0.793946,0.509946,0.23220700000000002,-0.8282719999999999,-0.001777,0.0022890000000000002,0.004416,-0.004697,0.009217,-6e-06
348,0.55194,-0.23438,-0.7938729999999999,0.510004,0.23224,-0.828227,-0.000701,0.002293,0.002287,-0.000436,0.012190000000000001,0.000728
349,0.552041,-0.234361,-0.793875,0.5100899999999999,0.23222199999999998,-0.8281790000000001,0.0025239999999999998,0.005487,0.000169,0.001995,0.012468,-0.004279
350,0.5521149999999999,-0.234379,-0.7939510000000001,0.510149,0.232239,-0.8281379999999999,0.003619,0.008690999999999999,-0.003032,0.0016760000000000002,0.01239,0.0019210000000000002
351,0.552249,-0.234346,-0.79409,0.510264,0.23220700000000002,-0.828076,0.005782,0.009689,-0.004201,0.001394,0.012101,0.001462
352,0.5523399999999999,-0.234305,-0.7942229999999999,0.5103449999999999,0.232167,-0.8280379999999999,0.005763,0.006489,-0.003129,0.001893,0.012537999999999999,0.00014199999999999998
353,0.552431,-0.234316,-0.7943,0.510418,0.23217800000000002,-0.827989,0.0036149999999999997,0.005423,-0.001006,-0.001294,0.008987,0.002718
354,0.5524560000000001,-0.23428400000000002,-0.7943479999999999,0.5104420000000001,0.232147,-0.827983,0.002514,-0.002031,-0.001004,-0.000479,0.010879999999999999,-0.0010119999999999999
355,0.5523140000000001,-0.234294,-0.7944060000000001,0.510324,0.23215700000000003,-0.828053,0.004629,-0.008421,-0.003118,-0.002298,0.014913999999999998,-0.000102
356,0.552184,-0.234285,-0.7944640000000001,0.5102180000000001,0.232147,-0.8281219999999999,0.0035670000000000003,-0.005229999999999999,-0.000993,0.000998,0.014022999999999999,-0.001011
357,0.5521050000000001,-0.234231,-0.794447,0.510159,0.23209499999999997,-0.8281729999999999,0.004614,-0.00419,0.004354,0.002949,0.013526,0.0009939999999999999
358,0.551988,-0.234154,-0.794442,0.510071,0.23201999999999998,-0.828248,0.004614,-0.006312,0.002221,0.00534,0.011845999999999999,6.2e-05
359,0.551891,-0.234102,-0.794458,0.509997,0.23196999999999998,-0.828307,0.003547,-0.004151,0.002152,0.005033,0.011926,-0.001374
360,0.551823,-0.234111,-0.794445,0.50994,0.23197800000000002,-0.82834,-0.001777,-0.0030629999999999998,0.001045,0.0033810000000000003,0.01114,-0.001189
361,0.551798,-0.23417800000000003,-0.794397,0.509911,0.232044,-0.82834,-0.001777,-0.002002,0.002112,0.000404,0.007458,0.000535
362,0.551755,-0.234202,-0.794373,0.509872,0.232066,-0.828357,0.000356,-0.004131,-7.000000000000001e-06,0.000733,0.009816,0.00101
363,0.5516220000000001,-0.23421,-0.794447,0.509761,0.23207399999999997,-0.8284229999999999,0.0035619999999999996,-0.007320999999999999,-0.004253,0.001134,0.012997,0.0014269999999999999
364,0.551452,-0.23425500000000002,-0.794511,0.509614,0.232119,-0.828501,0.000356,-0.007314,-0.003207,0.0007769999999999999,0.011335,0.002924
365,0.55124,-0.23428600000000002,-0.79457,0.5094350000000001,0.232148,-0.8286030000000001,0.0014039999999999999,-0.010518000000000001,-0.002128,0.000697,0.012588,-0.001811
366,0.551,-0.23427800000000001,-0.7946340000000001,0.509238,0.232141,-0.8287260000000001,0.0035329999999999997,-0.01053,-0.001045,-0.0032409999999999995,0.011068999999999999,-0.0026030000000000003
367,0.550802,-0.234258,-0.794678,0.509076,0.23212199999999997,-0.828831,0.0024530000000000003,-0.009472,-0.001052,-7.3e-05,0.009623,-0.003307
368,0.5506479999999999,-0.23428000000000002,-0.794682,0.508946,0.232143,-0.8289049999999999,-0.0007379999999999999,-0.006268999999999999,-1e-05,0.0008810000000000001,0.011174,4.8e-05
369,0.550524,-0.23430700000000002,-0.7946850000000001,0.50884,0.23216900000000001,-0.8289629999999999,0.000334,-0.006268,-0.0010710000000000001,0.00043799999999999997,0.011377,0.000212
370,0.550349,-0.234342,-0.7947029999999999,0.50869,0.23220300000000002,-0.829045,0.000319,-0.008403,-0.0,0.000373,0.010426999999999999,0.00124
371,0.5501659999999999,-0.23437199999999997,-0.794706,0.5085350000000001,0.23223200000000002,-0.829132,-0.001819,-0.010522,-0.0010810000000000001,0.000468,0.014288999999999998,-0.001236
372,0.5499890000000001,-0.234381,-0.794715,0.508387,0.23224099999999998,-0.8292209999999999,0.004573,-0.010553,0.0011,-0.003336,0.01454,-0.004596
373,0.549813,-0.2344,-0.794597,0.508238,0.23226,-0.829306,-0.005068,-0.012675,0.007445,-0.0027760000000000003,0.013803,0.00112
374,0.5496439999999999,-0.23439699999999997,-0.794401,0.508099,0.23225700000000002,-0.829392,-0.002924,-0.00843,0.009590999999999999,-0.001996,0.012676999999999999,-0.001891
375,0.549616,-0.234344,-0.794269,0.5080819999999999,0.23220500000000002,-0.829417,0.004563,7.000000000000001e-06,0.006462000000000001,0.004979,0.011997,-0.005712
376,0.549719,-0.234235,-0.794341,0.508181,0.23209899999999997,-0.8293860000000001,0.007845,0.010678,-0.001006,0.010159999999999999,0.008867,-0.0010429999999999999
377,0.550031,-0.234181,-0.794574,0.508446,0.23204699999999998,-0.829239,0.008999,0.021361,-0.009557,0.01107,0.010948999999999999,0.002365
378,0.550463,-0.23423200000000002,-0.794908,0.508798,0.232096,-0.829009,0.007984,0.027777,-0.014913999999999998,0.006278,0.011419,-0.0007639999999999999
379,0.5508689999999999,-0.234263,-0.795273,0.509131,0.23212600000000003,-0.8287959999999999,0.009032,0.023513,-0.014901,0.000269,0.010046,0.00058
380,0.551194,-0.23426599999999997,-0.795606,0.5093989999999999,0.232129,-0.82863,0.008994,0.016052,-0.013822999999999998,0.00042699999999999997,0.011904999999999999,-0.000471
381,0.551358,-0.234279,-0.795886,0.509534,0.23214200000000002,-0.8285440000000001,0.007884,0.00859,-0.011685,-0.0014320000000000001,0.012395,-0.000482
382,0.5514760000000001,-0.23427399999999998,-0.796112,0.509632,0.23213699999999998,-0.828485,0.006793,0.007511,-0.007418000000000001,0.0023309999999999997,0.012232999999999999,-0.000663
383,0.551563,-0.234258,-0.79637,0.509706,0.23212199999999997,-0.8284440000000001,0.008919,0.009512999999999999,-0.01059,0.0054,0.013102,0.000776
384,0.551716,-0.23425700000000002,-0.796704,0.509834,0.23212,-0.8283659999999999,0.010024,0.014849000000000001,-0.013793999999999999,0.004815,0.011013,0.002438
385,0.551946,-0.23425,-0.7971090000000001,0.510024,0.232113,-0.82825,0.012182,0.018046,-0.015919,0.004288,0.011158,0.002246
386,0.552203,-0.234233,-0.7975260000000001,0.510239,0.23209699999999997,-0.8281219999999999,0.012187,0.01805,-0.016987000000000002,0.0053549999999999995,0.010121,-0.001147
387,0.5524220000000001,-0.23426599999999997,-0.79793,0.510417,0.232129,-0.8280040000000001,0.010039,0.014862,-0.016998,0.001058,0.009539,-0.002761
388,0.552623,-0.234306,-0.79833,0.510578,0.23216799999999999,-0.827893,0.008967000000000001,0.0138,-0.017004,-0.001102,0.012553,-0.003588
389,0.5528529999999999,-0.234362,-0.798729,0.5107619999999999,0.232223,-0.827765,0.008986,0.017,-0.018076,-0.000188,0.012116,9.7e-05
390,0.5531149999999999,-0.23437800000000003,-0.79913,0.510977,0.232238,-0.827628,0.01112,0.018054,-0.016995,-0.0024170000000000003,0.011353,-0.00045099999999999996
391,0.553343,-0.23443899999999998,-0.7995369999999999,0.511158,0.23229699999999998,-0.827499,0.008912,0.014778999999999999,-0.015918,-0.003193,0.012667,0.00022799999999999999
392,0.5535260000000001,-0.234488,-0.799975,0.511304,0.23234499999999997,-0.8273959999999999,0.011056,0.013719,-0.019106,-0.0024230000000000002,0.013321000000000001,-0.000317
393,0.553675,-0.23449899999999999,-0.800411,0.511425,0.232355,-0.827318,0.012107999999999999,0.013702,-0.015894,-0.00317,0.012289,0.000337
394,0.5537989999999999,-0.234498,-0.800784,0.511528,0.232354,-0.827254,0.00995,0.010505,-0.013768,-0.003746,0.012763,-0.002412
395,0.553872,-0.23449499999999998,-0.801091,0.5115890000000001,0.23235100000000003,-0.827218,0.009917,0.007292,-0.009492,0.000664,0.012277,-0.001121
396,0.553938,-0.23446999999999998,-0.8013170000000001,0.5116470000000001,0.232327,-0.827189,0.006711,0.007298999999999999,-0.008445999999999999,0.001934,0.010882,-0.0016989999999999998
397,0.554072,-0.23451799999999998,-0.80147,0.5117520000000001,0.232375,-0.82711,0.00032,0.009452,-0.008493,0.002805,0.008362999999999999,-8e-06
398,0.554243,-0.234668,-0.801669,0.5118739999999999,0.23251999999999998,-0.826994,0.0035590000000000005,0.015841,-0.010615000000000001,0.004392,0.013757,-0.002199
399,0.554501,-0.234692,-0.801884,0.512085,0.232544,-0.826857,0.004606,0.013697999999999998,-0.008468999999999999,0.003693,0.015396,-0.002611
400,0.554657,-0.234685,-0.802078,0.512215,0.23253600000000002,-0.826778,0.007729000000000001,0.009437000000000001,-0.007354,0.003151,0.014275,-4e-06
401,0.55483,-0.23463299999999998,-0.8022729999999999,0.512364,0.23248600000000003,-0.8267,0.008796,0.010494,-0.00628,0.000377,0.0108,-0.0008609999999999999
402,0.554992,-0.23458400000000001,-0.802415,0.512504,0.23243899999999998,-0.826626,0.0045049999999999995,0.008366,-0.0031030000000000003,0.001534,0.012404,-0.0026739999999999997
403,0.5551510000000001,-0.23458600000000002,-0.802505,0.5126350000000001,0.23244,-0.8265450000000001,0.00238,0.010504000000000001,-0.00312,-0.000611,0.012081999999999999,0.000495
404,0.555362,-0.234658,-0.8025800000000001,0.5128010000000001,0.23251,-0.826422,0.001314,0.010506999999999999,-0.003128,-0.001189,0.012836000000000002,8.3e-05
405,0.5554859999999999,-0.234657,-0.802654,0.512903,0.23251,-0.8263590000000001,0.0034189999999999997,0.005169,-0.002038,-0.000376,0.011234000000000001,0.00035499999999999996
406,0.555537,-0.23464400000000002,-0.802743,0.512947,0.23249699999999998,-0.826335,0.004485,0.004105,-0.003097,0.000892,0.010865999999999999,0.000713
407,0.555554,-0.23465,-0.802852,0.5129600000000001,0.232502,-0.826325,0.004436,0.00206,-0.004163,0.001444,0.011043,-0.000442
408,0.5555399999999999,-0.23461500000000002,-0.803005,0.512953,0.23246799999999998,-0.8263389999999999,0.0076359999999999996,0.0009880000000000002,-0.005207,0.002778,0.013,0.000335
409,0.5555,-0.23456799999999997,-0.803199,0.512926,0.232423,-0.826369,0.006573999999999999,0.0009960000000000001,-0.0062829999999999995,0.000975,0.011489,1.4000000000000001e-05
410,0.5554979999999999,-0.234566,-0.8033399999999999,0.5129239999999999,0.23242,-0.826371,0.005497999999999999,0.000991,-0.004154,0.0016940000000000002,0.011491,-0.000533
411,0.555461,-0.23457399999999998,-0.803452,0.512893,0.232429,-0.8263879999999999,0.003355,-0.001132,-0.0041659999999999996,0.000153,0.011529000000000001,-0.001737
412,0.5554279999999999,-0.234556,-0.803521,0.512868,0.232411,-0.8264090000000001,0.004412,-8.3e-05,-0.0009550000000000001,0.000941,0.011699,-0.001289
413,0.555435,-0.23457399999999998,-0.803519,0.512872,0.232429,-0.826401,-0.000932,0.0009880000000000002,0.00221,0.001075,0.011788,-0.0009310000000000001
414,0.555439,-0.234619,-0.803478,0.5128699999999999,0.232473,-0.82639,-0.0009460000000000001,-0.002208,0.0022140000000000003,-0.002463,0.015466999999999998,0.000722
415,0.555303,-0.234641,-0.8034020000000001,0.512754,0.232494,-0.826456,-0.0010949999999999998,-0.009748,0.003382,-0.001157,0.014728999999999999,0.002893
416,0.55508,-0.234609,-0.803293,0.512574,0.232463,-0.826576,-0.0011380000000000001,-0.01403,0.008728,-0.005509,0.013936000000000002,-0.00031299999999999996
417,0.554759,-0.234544,-0.80304,0.512317,0.2324,-0.8267530000000001,-0.0044009999999999995,-0.021502,0.015124,-0.000918,0.012901,-0.002653
418,0.554384,-0.234481,-0.8026989999999999,0.5120140000000001,0.232339,-0.826958,-0.0044009999999999995,-0.020441,0.016191,0.0013369999999999999,0.010841,-0.001182
419,0.554145,-0.23441399999999998,-0.802419,0.511825,0.23227399999999998,-0.8270930000000001,-0.002224,-0.012983000000000001,0.01406,0.002534,0.013149000000000001,-0.0022370000000000003
420,0.553986,-0.234371,-0.802171,0.511699,0.232231,-0.827183,-0.0043289999999999995,-0.009767,0.010837000000000001,0.002721,0.01255,-0.001109
421,0.553934,-0.23432199999999997,-0.801955,0.5116609999999999,0.232184,-0.8272200000000001,-0.00109,-0.002317,0.009781999999999999,0.004483,0.011926,-0.000264
422,0.553977,-0.234296,-0.8017850000000001,0.5117,0.232158,-0.827203,-0.002133,0.000891,0.007634,0.003544,0.009739,0.0007559999999999999
423,0.553992,-0.234329,-0.801621,0.5117079999999999,0.23219,-0.827189,-0.00445,-0.001433,0.005714,-0.001256,0.01163,0.000376
424,0.553967,-0.234379,-0.801474,0.511681,0.232239,-0.827192,-0.004459,-0.003564,0.005717,-0.00126,0.011856,0.0029579999999999997
425,0.553778,-0.234396,-0.801294,0.511523,0.23225500000000002,-0.827285,-0.004531,-0.017421000000000002,0.00787,-0.00036899999999999997,0.007903,0.00209
426,0.5533060000000001,-0.23438,-0.801121,0.511134,0.23224,-0.8275299999999999,-0.00245,-0.030206999999999998,0.006833,0.001271,0.007751000000000001,0.004303
427,0.552638,-0.23439899999999997,-0.800996,0.510579,0.23225900000000002,-0.827867,-0.0024739999999999996,-0.037656,0.004706,0.005778,0.006908,-0.000731
428,0.551904,-0.234447,-0.800945,0.509966,0.232305,-0.828232,-0.00245,-0.036573,0.00043200000000000004,0.0036299999999999995,0.010904,-0.000976
429,0.551339,-0.234531,-0.800945,0.509487,0.23238699999999998,-0.8285040000000001,-0.002373,-0.022712,-0.00279,0.0021550000000000002,0.013585,-0.004657
430,0.5511199999999999,-0.23460100000000003,-0.800922,0.5092979999999999,0.23245500000000002,-0.828601,-0.002311,-0.006742000000000001,-0.0006730000000000001,-0.000295,0.013928999999999999,-0.006772
431,0.551078,-0.234638,-0.800912,0.509258,0.23249099999999998,-0.828615,-0.0014269999999999999,-0.001685,-0.000388,-0.004055,0.015373,-0.004148
432,0.551091,-0.23468000000000003,-0.8008649999999999,0.509264,0.23253200000000002,-0.8286,-0.003565,0.00044,0.002799,-0.003511,0.016965,0.001299
433,0.551143,-0.234698,-0.800755,0.509305,0.23254899999999998,-0.82857,-0.002499,0.001497,0.0038740000000000003,-0.0016899999999999999,0.017299000000000002,0.001132
434,0.551143,-0.234679,-0.8005800000000001,0.509307,0.232531,-0.828574,-0.0036090000000000002,-0.0038420000000000004,0.008145999999999999,-0.001418,0.017683,-0.001031
435,0.55106,-0.23464200000000002,-0.8003899999999999,0.509243,0.23249499999999998,-0.828623,-0.00042699999999999997,-0.005993,0.010306999999999998,0.0010869999999999999,0.015613,0.003626
436,0.550926,-0.234556,-0.800186,0.509143,0.232411,-0.828709,-0.00045599999999999997,-0.010262,0.012449,0.002195,0.012249,0.002644
437,0.550723,-0.234465,-0.799963,0.508985,0.23232199999999997,-0.82883,-0.000475,-0.014523,0.012454,0.0041530000000000004,0.010933,0.0027649999999999997
438,0.550466,-0.23442,-0.79977,0.508777,0.23227899999999999,-0.8289700000000001,-0.0015279999999999998,-0.014506999999999999,0.009242,0.005657,0.007162000000000001,0.000967
439,0.550168,-0.23439000000000002,-0.799606,0.508534,0.23224899999999998,-0.8291280000000001,-0.001718,-0.017963,0.0073549999999999996,0.006206000000000001,0.006963,-0.001607
440,0.549854,-0.234382,-0.79947,0.508275,0.232242,-0.8292889999999999,-0.000646,-0.017963,0.006294,0.004604,0.008694,-0.004711
441,0.5495760000000001,-0.234325,-0.799359,0.508051,0.23218699999999998,-0.829441,0.00044,-0.014766,0.005229,0.0043549999999999995,0.00936,-0.0027429999999999998
442,0.5494020000000001,-0.234327,-0.799233,0.5079060000000001,0.23218899999999998,-0.8295290000000001,-0.003804,-0.009425,0.005193,0.001417,0.011311,0.00010700000000000001
443,0.549296,-0.23438699999999998,-0.799075,0.507812,0.23224699999999998,-0.829571,-0.006995,-0.0072829999999999995,0.005168,0.0026260000000000003,0.009803000000000001,-0.003193
444,0.5492199999999999,-0.234465,-0.798926,0.507739,0.232323,-0.829594,-0.005918,-0.006218,0.004105,-0.001529,0.009956,-0.001857
445,0.549146,-0.234523,-0.798825,0.50767,0.232379,-0.82962,-0.003775,-0.005155,0.0030510000000000003,-0.002101,0.013241999999999999,-0.002594
446,0.549104,-0.23456300000000002,-0.79877,0.507631,0.23241799999999999,-0.829634,-0.00055,-0.001962,0.000933,-0.0038619999999999995,0.010745999999999999,-0.000307
447,0.5490619999999999,-0.234578,-0.798763,0.507594,0.232433,-0.8296520000000001,0.000512,-0.004092,-0.000125,0.000874,0.014302,-0.002364
448,0.548963,-0.234569,-0.798801,0.507513,0.232424,-0.8297040000000001,0.0025,-0.004261,-0.0010019999999999999,0.001413,0.010740000000000001,-0.002846
449,0.548838,-0.23459699999999997,-0.7988729999999999,0.507406,0.23245100000000002,-0.8297620000000001,0.000376,-0.0042450000000000005,-0.003154,-0.001684,0.012147,0.001637
450,0.548758,-0.234623,-0.798933,0.507337,0.23247600000000002,-0.8297969999999999,0.001443,-0.002127,-0.0010119999999999999,-0.0015689999999999999,0.013526,0.000604
451,0.548656,-0.23468899999999998,-0.7988970000000001,0.5072439999999999,0.232541,-0.829836,-0.003925,-0.007443000000000001,0.001093,0.00041600000000000003,0.011463,-0.0005780000000000001
452,0.5485359999999999,-0.23473400000000003,-0.798816,0.507139,0.232585,-0.829888,-0.001796,-0.0063939999999999995,0.003243,0.0049310000000000005,0.011770000000000001,-0.000907
453,0.5484680000000001,-0.234721,-0.798755,0.507084,0.23257199999999997,-0.829925,0.0014140000000000001,-0.003213,0.00433,0.0055049999999999995,0.013843000000000001,-0.0046240000000000005
454,0.548489,-0.23466199999999998,-0.798719,0.507108,0.232514,-0.829926,0.004644,0.003167,0.004344,0.003268,0.014571,0.001191
455,0.5486439999999999,-0.23458,-0.798667,0.507247,0.232435,-0.8298639999999999,0.0013830000000000001,0.007428,0.00646,0.0007639999999999999,0.012576,0.002365
456,0.548759,-0.23458099999999998,-0.798556,0.507342,0.232436,-0.8298049999999999,-0.003961,0.0031940000000000002,0.004292,-0.00018600000000000002,0.009584,0.0018629999999999999
457,0.54876,-0.23460100000000003,-0.798454,0.5073409999999999,0.23245500000000002,-0.829801,-0.0018510000000000002,-0.0032,0.003247,-0.000429,0.011304999999999999,0.0010810000000000001
458,0.548712,-0.234652,-0.798367,0.5072939999999999,0.232504,-0.829815,-0.0018510000000000002,-0.004261,0.00218,0.0021809999999999998,0.011881000000000001,-0.0014990000000000001
459,0.548639,-0.234671,-0.79832,0.507231,0.232523,-0.829849,0.00135,-0.004273,0.002202,0.002046,0.01145,-0.0019079999999999998
460,0.548528,-0.234657,-0.7982899999999999,0.507141,0.23250900000000002,-0.829908,0.001335,-0.0064069999999999995,0.003273,0.0012050000000000001,0.011281,0.00031800000000000003
461,0.548365,-0.234632,-0.798273,0.507009,0.232485,-0.829995,0.000273,-0.008520999999999999,6.4e-05,0.001918,0.010374,0.002374
462,0.548226,-0.234639,-0.79828,0.506893,0.232492,-0.8300639999999999,0.001355,-0.0053289999999999995,6.7e-05,0.000782,0.011008,0.001344
463,0.5481020000000001,-0.234679,-0.798296,0.506785,0.232531,-0.830119,-0.001857,-0.007253,-0.00214,0.00037200000000000004,0.011120999999999999,-0.002065
464,0.547944,-0.234672,-0.798319,0.506655,0.23252399999999998,-0.8302,0.002396,-0.008342,2.7000000000000002e-05,0.001508,0.011937,-0.001602
465,0.547841,-0.23465500000000003,-0.798367,0.506571,0.23250700000000002,-0.830256,0.0034869999999999996,-0.004079999999999999,-0.001039,0.000616,0.010657,-0.0018969999999999998
466,0.547726,-0.234668,-0.798384,0.506474,0.23251999999999998,-0.830312,0.001344,-0.006203,-0.001051,0.000484,0.010781,0.000554
467,0.547625,-0.234679,-0.798383,0.506389,0.232531,-0.830361,0.0013390000000000001,-0.006207,1.7e-05,0.000264,0.011366,-0.002327
468,0.5475180000000001,-0.234708,-0.798373,0.506296,0.23255900000000002,-0.8304090000000001,-0.001861,-0.006196,-5e-06,-0.00042199999999999996,0.010742,-0.0009660000000000001
469,0.54737,-0.234776,-0.798396,0.506165,0.23262600000000003,-0.830471,-0.00079,-0.0072569999999999996,-0.002133,0.002624,0.012339,-0.000798
470,0.547244,-0.23482399999999998,-0.79845,0.506055,0.232672,-0.830525,0.001368,-0.002999,-0.003192,0.003207,0.014352,-0.001674
471,0.547279,-0.234823,-0.798506,0.506084,0.23267100000000002,-0.830508,0.002466,0.004668,-0.00010700000000000001,0.002034,0.012111,-0.001966
472,0.547421,-0.234833,-0.798511,0.506201,0.23268000000000003,-0.830434,0.0014089999999999999,0.007863,0.00095,-0.00086,0.012406,-0.00025499999999999996
473,0.5475479999999999,-0.234833,-0.798477,0.506307,0.23268000000000003,-0.830369,-0.000754,0.0036009999999999996,0.003077,0.0010019999999999999,0.010987,0.002091
474,0.547618,-0.234843,-0.7984359999999999,0.506363,0.23269,-0.830332,-0.001816,0.002548,0.0009339999999999999,-1.6e-05,0.011984,0.002527
475,0.547638,-0.23489899999999997,-0.7984100000000001,0.506373,0.232744,-0.830311,-0.000758,0.000414,0.000944,0.0016989999999999998,0.011137000000000001,-0.000698
476,0.547638,-0.234911,-0.7984100000000001,0.506371,0.23275700000000002,-0.830308,0.000304,-0.000655,0.000953,0.0035770000000000003,0.012483,-0.000884
477,0.547639,-0.23491199999999998,-0.798362,0.506373,0.232758,-0.830307,0.000308,0.001471,0.002019,0.004522,0.010803,-0.0005639999999999999
478,0.5477609999999999,-0.23489200000000002,-0.798333,0.506476,0.232738,-0.83025,0.0014089999999999999,0.007863,0.00095,0.005563,0.008915000000000001,-0.002301
479,0.547982,-0.23488699999999998,-0.798387,0.50666,0.232733,-0.830139,0.002514,0.013198,-0.002254,0.006813,0.007745999999999999,-0.0016940000000000002
480,0.5483020000000001,-0.23488499999999998,-0.7985300000000001,0.506926,0.232731,-0.8299770000000001,0.004731,0.019852,-0.006654,0.001527,0.011715,0.000478
481,0.548671,-0.23488499999999998,-0.798722,0.507232,0.232731,-0.8297899999999999,0.005802000000000001,0.019853,-0.0077150000000000005,-0.002075,0.012126000000000001,4.7e-05
482,0.548964,-0.234888,-0.7989069999999999,0.507475,0.23273400000000002,-0.8296399999999999,0.004707,0.013465000000000001,-0.007714,-0.001784,0.009911,0.001637
483,0.549138,-0.23488699999999998,-0.799086,0.50762,0.232733,-0.8295520000000001,0.005745,0.008131000000000001,-0.006631999999999999,-0.0029809999999999997,0.009683,-0.000679
484,0.549245,-0.234886,-0.799253,0.507708,0.23273200000000002,-0.829498,0.004668,0.006004,-0.0066359999999999995,-0.000872,0.010020000000000001,-0.0008699999999999999
485,0.549385,-0.23489000000000002,-0.799395,0.5078239999999999,0.23273600000000003,-0.829427,0.004683,0.010261,-0.005574,0.003834,0.010733,-0.000529
486,0.549554,-0.234879,-0.799559,0.507965,0.232725,-0.829343,0.005754,0.011322,-0.005567,0.0053560000000000005,0.011644,-0.001468
487,0.549763,-0.234895,-0.799744,0.508137,0.23274099999999998,-0.829233,0.0036659999999999996,0.013665,-0.007829000000000001,0.00259,0.010149,0.00036
488,0.549987,-0.234918,-0.799978,0.50832,0.232763,-0.8291149999999999,0.0058189999999999995,0.014735,-0.01102,0.0020559999999999997,0.010965,0.001173
489,0.550207,-0.23496199999999998,-0.800255,0.508497,0.23280599999999999,-0.828995,0.005829,0.015805,-0.01209,0.001513,0.012173999999999999,-0.003006
490,0.550447,-0.23497300000000002,-0.800551,0.508694,0.232817,-0.8288700000000001,0.009023999999999999,0.014728,-0.012066,-0.000668,0.010851000000000001,-0.000628
491,0.5506479999999999,-0.23499499999999998,-0.800854,0.508858,0.23283800000000002,-0.828764,0.007956999999999999,0.013671,-0.013141,0.0010140000000000001,0.011822,0.000303
492,0.550863,-0.23503200000000002,-0.801134,0.5090319999999999,0.232875,-0.8286459999999999,0.0058189999999999995,0.013674,-0.012087,0.000672,0.013722999999999999,-0.001127
493,0.55107,-0.235083,-0.801369,0.509197,0.23292399999999996,-0.8285309999999999,0.004738,0.012604,-0.009956999999999999,0.0009960000000000001,0.01259,-0.000296
494,0.551259,-0.235102,-0.801606,0.509352,0.232942,-0.8284309999999999,0.005804999999999999,0.012601000000000001,-0.00995,0.002977,0.010863,-0.002212
495,0.551435,-0.23510999999999999,-0.801862,0.509497,0.23295,-0.82834,0.006867,0.011531999999999999,-0.009941,0.0008029999999999999,0.011358,-0.0018449999999999999
496,0.551616,-0.235123,-0.802114,0.509645,0.232963,-0.8282450000000001,0.005829,0.012765,-0.011115,0.001433,0.010827,-0.000338
497,0.551801,-0.235146,-0.8023640000000001,0.509795,0.232985,-0.8281459999999999,0.0068909999999999996,0.012757,-0.01004,0.000657,0.009981,-0.001261
498,0.551996,-0.23513499999999998,-0.8026,0.509958,0.232974,-0.8280489999999999,0.007953,0.012749,-0.008964,0.000647,0.011563,-0.0013880000000000001
499,0.552184,-0.2351,-0.802833,0.5101180000000001,0.23294,-0.82796,0.006876,0.011683,-0.007902,0.0027760000000000003,0.010102,-0.000898
500,0.5523680000000001,-0.235148,-0.803017,0.510264,0.232987,-0.827857,0.0026089999999999998,0.011698,-0.007932,0.000493,0.00859,-0.00011599999999999999
501,0.552538,-0.235217,-0.803193,0.510397,0.23305399999999998,-0.8277559999999999,0.0036810000000000002,0.011699,-0.008993000000000001,-2.1e-05,0.010034,0.000348
502,0.552763,-0.23524499999999998,-0.803379,0.51058,0.23308099999999998,-0.827636,0.0036810000000000002,0.012759999999999999,-0.007926,0.001948,0.010631999999999999,0.000594
503,0.552948,-0.235285,-0.80355,0.510728,0.23312,-0.827533,0.004729,0.009695,-0.005836,0.0020280000000000003,0.014422999999999998,0.00041500000000000006
504,0.553107,-0.23525900000000002,-0.803706,0.510863,0.23309499999999997,-0.827457,0.0068579999999999995,0.009683,-0.004753,0.001924,0.011397,-0.002026
505,0.5532630000000001,-0.23522600000000002,-0.803867,0.510996,0.23306300000000002,-0.827384,0.005796,0.009691,-0.005829,0.0006929999999999999,0.010298999999999999,0.000342
506,0.553437,-0.23519299999999999,-0.803998,0.511143,0.23303000000000001,-0.8273020000000001,0.00472,0.010747,-0.002633,-0.000462,0.009996,0.000688
507,0.553609,-0.235198,-0.804088,0.511285,0.233035,-0.8272129999999999,0.002571,0.007559000000000001,-0.002644,-0.000848,0.007732999999999999,-0.0009119999999999999
508,0.553669,-0.23526,-0.80418,0.511328,0.233096,-0.8271700000000001,0.001485,0.00118,-0.0047799999999999995,-0.000646,0.008237000000000001,0.001517
509,0.553582,-0.235294,-0.804327,0.511251,0.233129,-0.8272079999999999,0.0036049999999999997,-0.004145,-0.006894,-0.00086,0.008586,0.00037999999999999997
510,0.553476,-0.23535100000000003,-0.8044899999999999,0.511156,0.233184,-0.8272510000000001,0.002543,-0.003076,-0.006903,0.000349,0.009231999999999999,7.2e-05
511,0.553404,-0.235409,-0.804649,0.5110899999999999,0.23324099999999998,-0.827276,0.002558,0.00016999999999999999,-0.008012,0.0014990000000000001,0.012151,-0.000376
512,0.55335,-0.23545,-0.8048270000000001,0.5110399999999999,0.233281,-0.8272950000000001,0.002548,-0.001961,-0.008009,0.0032270000000000003,0.009654000000000001,-0.000586
513,0.553291,-0.23549099999999998,-0.804999,0.510987,0.23331999999999997,-0.827317,0.0036200000000000004,-0.0008990000000000001,-0.008003,0.002472,0.010652,-0.00035
514,0.55323,-0.235539,-0.805153,0.51093,0.23336700000000002,-0.8273389999999999,0.0025440000000000003,-0.000904,-0.005874,0.0016129999999999999,0.014297999999999998,-0.002434
515,0.553214,-0.23555900000000002,-0.805222,0.510915,0.23338699999999998,-0.827343,0.001462,0.000148,-0.00161,-0.0007059999999999999,0.014355000000000001,-0.002903
516,0.553257,-0.235562,-0.805218,0.510949,0.23338899999999999,-0.8273209999999999,0.001448,0.002257,0.003728,-0.001702,0.014641999999999999,-0.002223
517,0.553341,-0.23552199999999998,-0.8051010000000001,0.5110239999999999,0.23335,-0.8272860000000001,-0.001772,0.002251,0.007979,-0.002571,0.014407,-0.00148
518,0.553413,-0.235452,-0.804895,0.511092,0.23328200000000002,-0.827263,-0.001801,0.001165,0.013321000000000001,0.0005200000000000001,0.014933000000000002,0.001442
519,0.553415,-0.23538499999999998,-0.804639,0.5111020000000001,0.23321799999999998,-0.827275,-0.002948,-0.004259000000000001,0.013359000000000001,-0.001031,0.0146,0.001363
520,0.553308,-0.23529,-0.804389,0.511025,0.233125,-0.827349,-0.0008380000000000001,-0.008532,0.014447,0.0023870000000000002,0.012145,0.000704
521,0.553138,-0.23516700000000001,-0.8041689999999999,0.510899,0.23300500000000002,-0.8274600000000001,0.001296,-0.010661,0.012329000000000001,0.003993,0.009762,-0.00023799999999999998
522,0.552956,-0.23506300000000002,-0.804028,0.510761,0.232904,-0.827574,0.0034439999999999996,-0.010656,0.009139,0.003887,0.008536,0.000624
523,0.552764,-0.234969,-0.80391,0.510614,0.23281300000000002,-0.8276899999999999,0.00131,-0.011709,0.008057,0.003256,0.0066430000000000005,-0.000542
524,0.552597,-0.23489200000000002,-0.803828,0.5104850000000001,0.232738,-0.8277899999999999,0.0024010000000000004,-0.00957,0.004857,0.00040899999999999997,0.0061070000000000004,-0.0016010000000000002
525,0.55245,-0.23484899999999997,-0.803787,0.510369,0.23269600000000001,-0.827874,0.002416,-0.009557,0.0016530000000000002,0.004081,0.006364,-0.002173
526,0.5523,-0.234835,-0.8037380000000001,0.510246,0.232683,-0.8279540000000001,-0.001852,-0.008481,0.0026899999999999997,0.004173,0.006209,-0.0005070000000000001
527,0.552185,-0.23483,-0.803706,0.510152,0.232677,-0.8280129999999999,0.001265,-0.0055049999999999995,0.0007160000000000001,0.004634,0.007725,0.002146
528,0.552024,-0.234787,-0.803697,0.510023,0.23263499999999998,-0.8281040000000001,0.0012369999999999998,-0.010836,0.001791,0.003008,0.011398,-0.000479
529,0.551754,-0.23478000000000002,-0.803619,0.5098010000000001,0.232629,-0.8282430000000001,-0.004141,-0.017222,0.004966,-0.002523,0.01023,0.000102
530,0.551501,-0.234889,-0.8034020000000001,0.509578,0.232735,-0.82835,-0.012676,-0.015069999999999998,0.00704,-0.0036729999999999996,0.008308,-0.003894
531,0.551236,-0.23508099999999998,-0.803136,0.509335,0.232922,-0.8284469999999999,-0.013741999999999999,-0.017188,0.004899000000000001,-0.004605,0.006809,-0.005431
532,0.550946,-0.235235,-0.8029609999999999,0.509076,0.23307199999999997,-0.828564,-0.008379000000000001,-0.015059000000000001,0.000661,-0.000302,0.008429,-0.004825
533,0.550658,-0.23533600000000002,-0.803003,0.508825,0.23317,-0.828691,0.00020299999999999997,-0.010801999999999999,-0.005693999999999999,0.000102,0.008284999999999999,-0.003478
534,0.550427,-0.235381,-0.8031689999999999,0.508628,0.23321399999999998,-0.828799,0.003428,-0.007609,-0.007812,0.00158,0.010027,-0.00047000000000000004
535,0.550241,-0.235415,-0.803385,0.50847,0.23324699999999998,-0.828887,0.004378,-0.005752,-0.00975,0.002288,0.012069,0.001144
536,0.5500689999999999,-0.23547300000000002,-0.803593,0.50832,0.233303,-0.8289629999999999,0.002235,-0.006814,-0.008695,0.001873,0.014759,0.0014789999999999998
537,0.5498689999999999,-0.23554499999999998,-0.803696,0.508146,0.233373,-0.82905,-0.002061,-0.008945999999999999,-0.00445,0.0011619999999999998,0.013772999999999999,-0.00054
538,0.549683,-0.23562399999999997,-0.803642,0.5079819999999999,0.233449,-0.8291290000000001,-0.004234,-0.010034,0.003014,4.4e-05,0.015696,-0.000354
539,0.549511,-0.23568699999999998,-0.803471,0.507832,0.23351100000000002,-0.829204,-0.006391,-0.010048,0.00834,0.00031600000000000004,0.014002,-0.001866
540,0.549395,-0.23574499999999998,-0.803222,0.507728,0.23356799999999997,-0.8292510000000001,-0.006396,-0.008990999999999999,0.010475,-0.0007700000000000001,0.013013999999999998,-0.002231
541,0.5493100000000001,-0.23573400000000003,-0.80298,0.507659,0.23355700000000001,-0.829297,-0.003191,-0.005815,0.012629999999999999,0.0018170000000000003,0.015131,-0.0008119999999999999
542,0.549262,-0.235661,-0.80276,0.507628,0.233486,-0.8293360000000001,2e-05,-0.003696,0.012648999999999999,0.003022,0.011616,-0.00048300000000000003
543,0.549193,-0.235537,-0.802539,0.507586,0.23336500000000002,-0.8293950000000001,-0.00119,-0.006072999999999999,0.013909,0.004987,0.009433,0.0010869999999999999
544,0.54911,-0.235436,-0.802313,0.507529,0.233267,-0.829458,-0.00119,-0.007134000000000001,0.012842,0.003304,0.009515000000000001,-0.000331
545,0.5490430000000001,-0.23541399999999998,-0.802031,0.507476,0.233246,-0.8294959999999999,-0.00439,-0.006062,0.013887,0.001374,0.009979,-0.001513
546,0.549004,-0.235352,-0.8017340000000001,0.507452,0.233185,-0.829528,-0.005452,-0.004993,0.013878,0.000987,0.009384,-0.0029760000000000003
547,0.548945,-0.23528600000000002,-0.801453,0.507411,0.233121,-0.829571,-0.00439,-0.007123,0.012819999999999998,-2.6000000000000002e-05,0.009097,-0.0014529999999999999
548,0.548901,-0.235279,-0.8012229999999999,0.507376,0.23311500000000002,-0.8295950000000001,-0.0032990000000000003,-0.004984000000000001,0.00962,0.000727,0.009393,-0.002391
549,0.5488729999999999,-0.23522800000000002,-0.801087,0.507358,0.23306500000000002,-0.8296190000000001,-7e-05,-0.001786,0.0064340000000000005,0.000775,0.006209,-1.6e-05
550,0.548887,-0.235159,-0.800986,0.507378,0.232998,-0.829626,-5.6000000000000006e-05,0.000349,0.005363000000000001,0.001533,0.009174,-0.002344
551,0.548921,-0.235156,-0.800928,0.5074069999999999,0.232994,-0.829609,0.0009339999999999999,0.001274,0.0022949999999999997,0.0011380000000000001,0.006035,-0.0007440000000000001
552,0.548904,-0.23516399999999998,-0.800917,0.507392,0.23300300000000002,-0.829616,-0.0022670000000000004,-0.001898,-0.0009279999999999999,0.001794,0.007369,-0.000188
553,0.548819,-0.235197,-0.8009109999999999,0.507317,0.23303400000000002,-0.8296530000000001,-0.001219,-0.005102000000000001,0.000151,0.000679,0.008466,-0.0028510000000000002
554,0.548734,-0.23525,-0.800898,0.5072399999999999,0.233087,-0.829685,-0.003353,-0.004034,0.0012029999999999999,-0.002891,0.008323,-0.002666
555,0.548582,-0.2353,-0.800823,0.507108,0.233134,-0.8297530000000001,-0.004453,-0.010426000000000001,0.0022719999999999997,-0.000852,0.00771,-0.000799
556,0.548391,-0.23536300000000002,-0.8007350000000001,0.506942,0.23319600000000001,-0.829837,-0.004453,-0.010426000000000001,0.0022719999999999997,0.002503,0.008275,-0.002149
557,0.548227,-0.23543499999999998,-0.800689,0.506797,0.23326599999999997,-0.8299049999999999,-0.003357,-0.007220999999999999,-0.0009289999999999999,0.001748,0.00886,-0.003438
558,0.548144,-0.235483,-0.8006989999999999,0.506722,0.23331300000000002,-0.829938,-0.0012,-0.001902,-0.000921,0.0017010000000000003,0.011377,0.000379
559,0.548094,-0.235551,-0.800724,0.5066729999999999,0.23337800000000003,-0.82995,-0.002326,-0.001895,-0.003058,0.0005139999999999999,0.011312000000000001,0.000711
560,0.548005,-0.235634,-0.800752,0.506588,0.23346,-0.8299790000000001,-0.003403,-0.005083,-0.00413,-0.00011899999999999999,0.010193,-0.001076
561,0.547842,-0.235721,-0.8008270000000001,0.506443,0.233544,-0.830043,-0.001274,-0.008278,-0.006247,0.0005610000000000001,0.010383,-0.002797
562,0.547678,-0.23581799999999997,-0.800873,0.5062949999999999,0.233638,-0.830108,-0.002355,-0.008287000000000001,-0.00305,0.0023420000000000003,0.01212,0.000136
563,0.547531,-0.235886,-0.800895,0.5061640000000001,0.23370500000000002,-0.830168,-0.00235,-0.005099,-0.000917,0.002091,0.014891,-0.001604
564,0.547454,-0.235925,-0.8008529999999999,0.506096,0.23374299999999998,-0.8302,-0.00236,-0.004047,0.002286,-0.00011399999999999999,0.012778,-0.002778
565,0.5474100000000001,-0.235973,-0.800774,0.506053,0.233789,-0.8302120000000001,-0.002355,-0.002982,0.002284,0.0008439999999999999,0.013907,-0.000278
566,0.54737,-0.235969,-0.800689,0.506021,0.233785,-0.830233,-0.002365,-0.00299,0.0044210000000000005,0.00141,0.014994,0.000567
567,0.547346,-0.23596599999999998,-0.8005770000000001,0.506001,0.233783,-0.8302459999999999,-0.002372,-0.0017980000000000001,0.005482,0.0008349999999999999,0.013531999999999999,0.00238
568,0.547334,-0.23595,-0.800443,0.505993,0.233767,-0.830255,-0.002386,-0.0028710000000000003,0.007619,-0.000302,0.013334,-0.00046399999999999995
569,0.547295,-0.235884,-0.800301,0.505969,0.23370300000000002,-0.8302879999999999,-0.00025699999999999996,-0.003944,0.007634999999999999,0.0017219999999999998,0.012787999999999999,0.000729
570,0.5472279999999999,-0.23583600000000002,-0.800178,0.505919,0.233656,-0.830332,0.0008,-0.006078,0.007645999999999999,0.003542,0.008623,-0.002676
571,0.547172,-0.23578600000000002,-0.800078,0.505879,0.233607,-0.83037,0.000824,-0.001813,0.006572,0.001033,0.011571,-0.0008990000000000001
572,0.547187,-0.235767,-0.799946,0.505893,0.233589,-0.8303659999999999,-0.0034340000000000004,0.000332,0.006540000000000001,-0.000949,0.009972,-0.0009939999999999999
573,0.547243,-0.23576,-0.799806,0.505941,0.233582,-0.8303389999999999,-0.0013,0.000325,0.006554000000000001,0.000331,0.009261,-0.002623
574,0.5472819999999999,-0.235723,-0.799719,0.5059779999999999,0.233546,-0.830327,0.0008529999999999999,0.001396,0.003363,0.00098,0.007772,-0.0014759999999999999
575,0.5473560000000001,-0.235681,-0.799682,0.5060439999999999,0.23350500000000002,-0.830298,0.000867,0.004591,0.0033590000000000004,0.001112,0.008576,-0.002344
576,0.5474760000000001,-0.235665,-0.799642,0.506146,0.23349,-0.83024,0.000907,0.006906999999999999,0.002242,0.0026739999999999997,0.009979,-0.0021420000000000002
577,0.547658,-0.235661,-0.799635,0.5062979999999999,0.233486,-0.830149,-0.000136,0.010115,9.4e-05,0.000599,0.008046,-0.001257
578,0.54785,-0.235658,-0.7996439999999999,0.506458,0.233483,-0.830052,0.0009310000000000001,0.00905,-0.0009660000000000001,0.0009130000000000001,0.009361,0.001271
579,0.54799,-0.235671,-0.799651,0.506572,0.233496,-0.8299790000000001,-0.001217,0.005862,-0.000977,0.001393,0.007502,0.000221
580,0.548031,-0.23571799999999998,-0.799697,0.5066,0.233542,-0.8299479999999999,0.0009019999999999999,0.0015970000000000001,-0.002025,0.000999,0.009226,0.00103
581,0.548017,-0.235752,-0.799715,0.506584,0.23357399999999998,-0.8299489999999999,-0.000194,-0.002668,0.00011,-0.002327,0.011161,-0.0022649999999999997
582,0.547896,-0.23576799999999998,-0.799666,0.506482,0.23359000000000002,-0.8300069999999999,-0.001299,-0.008004,0.003314,-0.00079,0.010414,-0.001307
583,0.547764,-0.23578400000000002,-0.799571,0.506371,0.233606,-0.8300700000000001,-0.002311,-0.006756999999999999,0.0020989999999999997,0.001076,0.009436,-0.0037
584,0.547679,-0.23580900000000002,-0.7995,0.506297,0.23363,-0.830109,-0.001235,-0.0035689999999999997,0.003171,0.001668,0.012296,-0.002548
585,0.547701,-0.23583600000000002,-0.799496,0.506312,0.233656,-0.830092,-0.00011499999999999999,0.003901,-0.001104,0.003759,0.010759000000000001,0.000594
586,0.5477890000000001,-0.235875,-0.799601,0.50638,0.23369299999999998,-0.83004,0.003129,0.007111,-0.007495,0.0070480000000000004,0.008067,0.000404
587,0.547917,-0.235965,-0.799823,0.506475,0.23378200000000002,-0.829957,0.0021,0.010332,-0.012846999999999999,0.005808,0.006911,-0.001403
588,0.548076,-0.23608,-0.800137,0.5065930000000001,0.233893,-0.8298540000000001,0.004267,0.012476000000000001,-0.018175999999999998,0.005492,0.006326,0.000737
589,0.5482819999999999,-0.236195,-0.800495,0.50675,0.23400500000000002,-0.8297260000000001,0.005339,0.014599,-0.017103,0.004435000000000001,0.008168,-0.001542
590,0.548491,-0.23627199999999998,-0.800845,0.506915,0.23408,-0.8296049999999999,0.005325,0.013525,-0.014965000000000001,-0.002581,0.012182,-0.001786
591,0.54866,-0.236323,-0.801138,0.5070479999999999,0.234129,-0.829509,0.00535,0.009431,-0.013993,-0.003081,0.014803,0.0010019999999999999
592,0.548814,-0.236359,-0.801391,0.5071720000000001,0.23416399999999998,-0.8294229999999999,0.004268999999999999,0.009422,-0.010796,-0.002869,0.015805,-0.0007
593,0.549022,-0.236407,-0.801561,0.507338,0.234211,-0.829308,0.003206,0.014735,-0.006537,-0.004027,0.015408000000000002,-0.000907
594,0.549329,-0.23641399999999999,-0.801715,0.507592,0.23421799999999998,-0.829152,0.004293,0.018992,-0.006534999999999999,-0.000725,0.014638,-0.0011710000000000002
595,0.549706,-0.23636100000000002,-0.801842,0.507911,0.23416700000000001,-0.8289700000000001,0.007484,0.021095,-0.002242,0.000314,0.012872999999999999,-0.001947
596,0.550059,-0.23628600000000002,-0.801978,0.508213,0.234093,-0.8288059999999999,0.009608,0.020018,-0.001158,0.000531,0.010032,-0.002218
597,0.550467,-0.23614899999999997,-0.80214,0.508567,0.23396,-0.828626,0.010703,0.024284,-0.0032920000000000002,0.002205,0.00812,-0.0037869999999999996
598,0.550972,-0.235998,-0.802319,0.509005,0.23381300000000002,-0.828399,0.011798999999999999,0.02961,-0.004359,0.000944,0.009259,-0.003159
599,0.551492,-0.235936,-0.8025140000000001,0.509443,0.23375300000000002,-0.828147,0.00866,0.029797000000000004,-0.006587000000000001,0.002352,0.008328,-0.001336
600,0.552016,-0.23589699999999997,-0.802774,0.509882,0.233715,-0.827887,0.008675,0.028749,-0.010859,0.00041799999999999997,0.008106,-0.000802
601,0.5525100000000001,-0.23587199999999997,-0.8031550000000001,0.510293,0.23369099999999998,-0.827641,0.012966,0.028756,-0.01617,0.002799,0.007657,0.00043099999999999996
602,0.552958,-0.235848,-0.803636,0.510667,0.233668,-0.827416,0.015109000000000001,0.028756999999999998,-0.018290999999999998,0.0021809999999999998,0.009191,-0.000388
603,0.553404,-0.235801,-0.80413,0.511042,0.23362199999999997,-0.827198,0.015105,0.028752,-0.017223,0.00025,0.0070090000000000005,-0.001995
604,0.5538109999999999,-0.235788,-0.804595,0.5113800000000001,0.23360999999999998,-0.8269920000000001,0.012957,0.023441999999999998,-0.019368,0.001117,0.010211,-0.001529
605,0.5541229999999999,-0.23577800000000002,-0.805042,0.5116390000000001,0.2336,-0.826835,0.010789,0.018115,-0.017240000000000002,-0.00108,0.007504,-0.001549
606,0.554344,-0.235765,-0.805461,0.511824,0.233587,-0.826724,0.011837,0.01385,-0.017227000000000003,0.002535,0.00825,-0.003034
607,0.554453,-0.23581,-0.8058,0.511908,0.233631,-0.8266600000000001,0.005437,0.007592,-0.015228,0.003961,0.009212999999999999,-0.000138
608,0.554566,-0.235857,-0.8061470000000001,0.511995,0.233677,-0.826593,0.006528,0.012915000000000001,-0.015228,0.0035229999999999997,0.010128,0.001428
609,0.554752,-0.235909,-0.806434,0.512143,0.233727,-0.8264870000000001,0.0033079999999999997,0.011848000000000001,-0.012044,0.0019100000000000002,0.012458,0.000391
610,0.55486,-0.23599,-0.806628,0.512223,0.233805,-0.826415,0.0011359999999999999,0.006516,-0.008848,0.000198,0.013341,0.002166
611,0.5549149999999999,-0.236017,-0.806737,0.512264,0.233832,-0.826382,0.001097,0.0032990000000000003,-0.003503,-0.0037189999999999996,0.009775,-0.003208
612,0.5548569999999999,-0.236037,-0.8067449999999999,0.5122140000000001,0.23385100000000003,-0.826408,-0.002165,-0.005233,0.001827,-0.005912,0.012181,-0.001702
613,0.554696,-0.236077,-0.806671,0.512076,0.23389000000000001,-0.8264819999999999,-0.003266,-0.011625,0.002895,-0.006842,0.011883,-5.6000000000000006e-05
614,0.554434,-0.236094,-0.80655,0.511858,0.233907,-0.8266129999999999,-0.003304,-0.016965,0.006106,-0.0047009999999999994,0.010921,-0.001573
615,0.55409,-0.236053,-0.806435,0.511578,0.23386700000000002,-0.8267969999999999,-8.4e-05,-0.019058000000000002,0.006058,-0.002438,0.011235,-0.002915
616,0.553713,-0.23600300000000002,-0.8063239999999999,0.511273,0.23381799999999997,-0.827,-9.4e-05,-0.020127000000000003,0.007127,-0.0030629999999999998,0.00962,0.00047699999999999994
617,0.553338,-0.23596799999999998,-0.806171,0.5109670000000001,0.233785,-0.827198,-0.0032990000000000003,-0.02012,0.008173,0.002293,0.007609,-0.000606
618,0.552956,-0.23596999999999999,-0.805994,0.51065,0.233787,-0.827393,-0.004361,-0.021172999999999997,0.00603,0.002793,0.005334,-0.001891
619,0.552606,-0.23601399999999997,-0.805898,0.510355,0.233829,-0.8275629999999999,-0.003251,-0.015834,0.0017579999999999998,0.003744,0.0048189999999999995,-0.004666
620,0.5523239999999999,-0.236076,-0.8059,0.510115,0.23389000000000001,-0.827694,-0.001074,-0.010498,-0.002506,0.006104999999999999,0.008556999999999999,-0.005085
621,0.552215,-0.23613499999999998,-0.8059569999999999,0.510016,0.233947,-0.8277389999999999,-0.001026,-0.000906,-0.0035859999999999998,0.005334,0.010865000000000001,-0.0015
622,0.552261,-0.23615,-0.806012,0.510053,0.233961,-0.8277120000000001,0.0011220000000000002,0.004404,-0.001442,0.001132,0.013138999999999998,-0.000413
623,0.552337,-0.23618499999999998,-0.806009,0.510112,0.23399499999999998,-0.827666,-0.002088,0.003346,-0.000394,-0.00022400000000000002,0.011290000000000001,-0.000947
624,0.552354,-0.23619899999999996,-0.805954,0.510124,0.23400900000000002,-0.8276549999999999,-0.002131,-0.002036,0.0028539999999999998,-0.000496,0.013472999999999999,0.000964
625,0.5522819999999999,-0.236197,-0.8058420000000001,0.510065,0.23400700000000002,-0.827692,-0.0032359999999999997,-0.007370999999999999,0.006058,-0.002878,0.014177,-0.000128
626,0.5521520000000001,-0.23618000000000003,-0.805686,0.509959,0.23399,-0.8277620000000001,-0.002188,-0.009514,0.008204000000000001,3.5e-05,0.011371,0.000552
627,0.551984,-0.23612600000000003,-0.805513,0.509827,0.233938,-0.827858,-6.4e-05,-0.010591,0.009289,0.001297,0.009852,-0.001228
628,0.551794,-0.236052,-0.805362,0.509679,0.233866,-0.8279690000000001,0.001008,-0.010591,0.008228000000000001,0.003779,0.007849,-0.0017120000000000002
629,0.551656,-0.235969,-0.805231,0.509574,0.23378600000000002,-0.8280569999999999,0.001027,-0.00633,0.008223000000000001,0.003853,0.009882,-0.0029980000000000002
630,0.551579,-0.235859,-0.805122,0.509524,0.23367800000000002,-0.828118,0.0021079999999999996,-0.0041990000000000005,0.007159,0.002241,0.009425,-0.0022960000000000003
631,0.551531,-0.235779,-0.805008,0.509494,0.2336,-0.828158,0.000958,-0.004448,0.008325,0.000729,0.010190000000000001,-0.002668
632,0.5515,-0.23573200000000002,-0.804871,0.509474,0.233555,-0.828183,-0.001166,-0.0033710000000000003,0.007241,-0.000334,0.009091,-0.001315
633,0.551459,-0.23569299999999999,-0.8047380000000001,0.509445,0.233517,-0.8282120000000001,-0.001166,-0.004432,0.006174,-0.000183,0.007312999999999999,-0.0020039999999999997
634,0.551387,-0.23567399999999997,-0.8046260000000001,0.5093880000000001,0.233498,-0.828252,-0.0022370000000000003,-0.006554000000000001,0.005101,-0.000156,0.007911,-0.001627
635,0.551294,-0.23569400000000001,-0.80448,0.509308,0.23351799999999998,-0.8282959999999999,-0.005448,-0.007613,0.006148,-0.002381,0.009173,-0.0028510000000000002
636,0.551179,-0.235754,-0.8043100000000001,0.509206,0.23357600000000003,-0.828342,-0.005452,-0.008678,0.006149,-0.00414,0.011526,0.002491
637,0.550984,-0.235781,-0.8040930000000001,0.509041,0.23360300000000003,-0.8284360000000001,-0.006567,-0.015083000000000001,0.010423,-0.002846,0.009149,0.000769
638,0.550708,-0.235754,-0.8038569999999999,0.5088159999999999,0.23357600000000003,-0.8285819999999999,-0.0033759999999999997,-0.016163999999999998,0.011514,0.001911,0.0062770000000000005,-0.004594
639,0.550457,-0.235702,-0.803664,0.508614,0.233526,-0.8287200000000001,-0.002464,-0.014449000000000002,0.009612,0.002448,0.010645,-0.004288
640,0.5502640000000001,-0.235665,-0.803493,0.508459,0.23349,-0.828825,-0.001364,-0.009118000000000001,0.007476999999999999,0.004023,0.00943,-0.00406
641,0.550142,-0.23567,-0.803346,0.508357,0.233494,-0.828887,-0.003478,-0.00485,0.007456999999999999,0.00086,0.008877,-0.001786
642,0.550099,-0.2357,-0.803157,0.508318,0.23352399999999998,-0.828902,-0.005603,-0.003773,0.006372,-0.001131,0.011578,-0.0012369999999999998
643,0.549996,-0.235699,-0.803,0.508232,0.23352199999999998,-0.8289549999999999,-0.002421,-0.008045,0.0064,-0.000893,0.010389,-0.0033350000000000003
644,0.549833,-0.23573200000000002,-0.802872,0.508093,0.233555,-0.829031,-0.003488,-0.010163,0.004259000000000001,-0.0018679999999999999,0.009579,0.000662
645,0.549615,-0.235748,-0.8027380000000001,0.5079100000000001,0.23356999999999997,-0.829139,-0.004584,-0.014428999999999999,0.006393,-0.000647,0.010662,-0.0021449999999999998
646,0.549353,-0.23574,-0.802554,0.507694,0.233562,-0.829274,-0.004598,-0.015503,0.008531,0.001202,0.010426000000000001,-0.00020899999999999998
647,0.54905,-0.23576599999999998,-0.802357,0.50744,0.23358800000000002,-0.8294219999999999,-0.0047539999999999995,-0.016859,0.009803000000000001,0.002707,0.008783,-0.0014039999999999999
648,0.5487850000000001,-0.235765,-0.80219,0.50722,0.233587,-0.829557,-0.0036590000000000004,-0.013654,0.006601999999999999,0.000654,0.009470000000000001,-0.0021850000000000003
649,0.5485979999999999,-0.235787,-0.802044,0.507062,0.23360799999999998,-0.8296469999999999,-0.002573,-0.010458,0.005536999999999999,0.002001,0.010487,-0.002628
650,0.548466,-0.235825,-0.801909,0.506948,0.233646,-0.829707,-0.0036200000000000004,-0.007254000000000001,0.004458,0.001857,0.009137000000000001,-0.003271
651,0.548357,-0.235859,-0.801808,0.506853,0.23367800000000002,-0.8297549999999999,-0.0025440000000000003,-0.006188,0.003396,0.0009599999999999999,0.009425,-0.004336
652,0.548275,-0.23589899999999997,-0.8017029999999999,0.50678,0.23371799999999998,-0.8297889999999999,-0.004668,-0.00405,0.003378,0.0012,0.010728,-0.001052
653,0.548197,-0.23594299999999999,-0.801589,0.50671,0.23376,-0.8298200000000001,-0.004678,-0.00512,0.004448,-0.000408,0.009969,-5.9999999999999995e-05
654,0.5481,-0.235998,-0.80145,0.5066229999999999,0.23381300000000002,-0.829858,-0.004686999999999999,-0.00725,0.00445,-0.000397,0.009,-0.000785
655,0.547999,-0.236035,-0.801327,0.5065350000000001,0.23384899999999997,-0.829902,-0.004759,-0.006243,0.003483,0.0006519999999999999,0.010078,-0.002786
656,0.5479069999999999,-0.23603600000000002,-0.801234,0.506458,0.23385,-0.8299479999999999,-0.000492,-0.005197,0.00458,0.0006219999999999999,0.009375,-0.0017629999999999998
657,0.547844,-0.23603000000000002,-0.8011689999999999,0.5064069999999999,0.23384499999999997,-0.829981,-0.0015400000000000001,-0.003054,0.002434,2e-06,0.010311,-0.0016690000000000001
658,0.547794,-0.236051,-0.801117,0.506363,0.23386500000000002,-0.830002,-0.000468,-0.003054,0.001373,0.000183,0.008719,-0.00293
659,0.547778,-0.23606,-0.801049,0.5063479999999999,0.23387399999999997,-0.830008,-0.001535,-0.0009279999999999999,0.0034990000000000004,0.000976,0.008832,0.000571
660,0.547756,-0.236044,-0.801003,0.506332,0.23385799999999998,-0.830023,0.000604,-0.0019920000000000003,0.001379,0.0014960000000000002,0.009290999999999999,-0.0021149999999999997
661,0.547754,-0.236062,-0.800962,0.506328,0.23387600000000003,-0.8300200000000001,-0.000454,0.00014199999999999998,0.001369,0.0017280000000000002,0.010493,-0.0010199999999999999
662,0.547746,-0.23606100000000002,-0.800929,0.506321,0.233875,-0.830024,-0.001525,-0.0009199999999999999,0.001363,0.002346,0.008328,0.00043499999999999995
663,0.54773,-0.236123,-0.800886,0.506301,0.233935,-0.8300200000000001,-0.004779,-0.003005,0.000275,0.0008710000000000001,0.010206,-0.002912
664,0.547672,-0.236186,-0.8008460000000001,0.506245,0.233996,-0.830037,-0.00265,-0.003017,0.001358,-0.001927,0.011137000000000001,-0.002132
665,0.547608,-0.23620500000000003,-0.8007529999999999,0.506189,0.234015,-0.8300649999999999,-0.0048119999999999994,-0.006218,0.0045509999999999995,-0.002451,0.011377,-0.00021099999999999998
666,0.547487,-0.236229,-0.8005909999999999,0.5060859999999999,0.23403800000000002,-0.8301219999999999,-0.004831,-0.0072959999999999995,0.007756999999999999,-0.000394,0.011734999999999999,-0.002443
667,0.547389,-0.236225,-0.800413,0.506005,0.23403400000000002,-0.8301719999999999,-0.002688,-0.005173,0.00777,0.0008150000000000001,0.011801,-0.0008060000000000001
668,0.547411,-0.236197,-0.8002670000000001,0.506027,0.23400700000000002,-0.830167,-0.00265,0.0033490000000000004,0.007759,-0.00038199999999999996,0.010698000000000001,-0.0016820000000000001
669,0.5475399999999999,-0.236179,-0.80013,0.5061359999999999,0.23399,-0.830105,-0.0036969999999999998,0.005492,0.005612,0.000547,0.009770000000000001,0.000134
670,0.547608,-0.236225,-0.800033,0.5061869999999999,0.23403400000000002,-0.830061,-0.001573,0.000171,0.0024289999999999997,-0.001213,0.00974,-0.00078
671,0.547607,-0.23622100000000001,-0.799981,0.5061869999999999,0.23403000000000002,-0.8300629999999999,-0.000516,-0.001963,0.00244,-0.001594,0.008234,0.000976
672,0.547539,-0.236215,-0.799944,0.506131,0.23402399999999998,-0.830098,0.00054,-0.003979,0.00236,-0.002378,0.008392,-0.000651
673,0.547459,-0.236181,-0.7998970000000001,0.5060680000000001,0.23399099999999998,-0.8301459999999999,0.000531,-0.0050479999999999995,0.00343,0.00043200000000000004,0.009539,-0.003564
674,0.547391,-0.236161,-0.7998310000000001,0.506015,0.23397199999999999,-0.830184,-0.001603,-0.00398,0.004482,-0.000811,0.009742,-0.001984
675,0.5473140000000001,-0.236156,-0.799728,0.505951,0.233967,-0.830224,-0.0016079999999999998,-0.005045,0.004483,0.0007019999999999999,0.008678,0.000268
676,0.54723,-0.23616700000000002,-0.799633,0.50588,0.23397800000000002,-0.8302639999999999,-0.002675,-0.006102000000000001,0.003409,-9.7e-05,0.011322,-0.004376
677,0.5471590000000001,-0.236206,-0.799519,0.505817,0.234015,-0.830292,-0.004803,-0.0039689999999999994,0.004459,0.0011560000000000001,0.009973000000000001,-0.002212
678,0.54711,-0.236215,-0.799407,0.505775,0.23402399999999998,-0.8303159999999999,-0.00267,-0.0039759999999999995,0.0044740000000000005,0.000924,0.009613,-0.00228
679,0.54703,-0.236227,-0.799325,0.505707,0.23403600000000002,-0.8303530000000001,-0.001556,-0.004843,0.0032719999999999997,0.003204,0.009204,-0.00045700000000000005
680,0.546981,-0.23621999999999999,-0.799249,0.505667,0.234029,-0.8303799999999999,-0.001547,-0.002712,0.0032689999999999998,0.000665,0.009272,-0.002018
681,0.54697,-0.23623000000000002,-0.799204,0.505656,0.234039,-0.830383,-0.0015279999999999998,0.000488,0.0021969999999999997,0.001332,0.011139,-0.001251
682,0.5470470000000001,-0.236238,-0.799187,0.50572,0.23404699999999998,-0.830343,-0.00043200000000000004,0.0047539999999999995,6.3e-05,0.00162,0.008919,-0.00233
683,0.547147,-0.23625,-0.799211,0.5058010000000001,0.234058,-0.83029,0.0017109999999999998,0.005816,-0.000992,0.0033689999999999996,0.009365,-0.002627
684,0.5472859999999999,-0.23626799999999998,-0.799246,0.5059140000000001,0.23407600000000003,-0.830216,-0.00040300000000000004,0.009023,-0.002079,-0.000101,0.010095999999999999,-0.000167
685,0.547471,-0.236302,-0.799316,0.5060640000000001,0.234109,-0.830116,0.000688,0.011163,-0.005279,0.000711,0.009849,-0.002236
686,0.54769,-0.236327,-0.799416,0.506242,0.234134,-0.83,0.00175,0.012216,-0.003136,-3.2e-05,0.009626000000000001,-0.0017420000000000003
687,0.547924,-0.236352,-0.799543,0.506434,0.234158,-0.8298760000000001,0.001832,0.012454,-0.005425999999999999,-0.001459,0.009861,-0.000354
688,0.548142,-0.236396,-0.799661,0.506609,0.23420100000000002,-0.829757,0.002898,0.011389,-0.0064849999999999994,7.4e-05,0.010306000000000001,-0.0016179999999999999
689,0.5483439999999999,-0.23641900000000002,-0.799805,0.506774,0.23422300000000001,-0.82965,0.002903,0.012454,-0.006486,-0.001754,0.010237999999999999,-0.000383
690,0.5485479999999999,-0.23641700000000002,-0.799951,0.506943,0.234221,-0.8295469999999999,0.003965,0.011385,-0.006478,0.002166,0.007295,-0.002454
691,0.548674,-0.236421,-0.800122,0.5070479999999999,0.234225,-0.8294819999999999,0.005023,0.008190000000000001,-0.007534000000000001,0.0010400000000000001,0.007642,-0.003159
692,0.5488149999999999,-0.236506,-0.800293,0.507154,0.23430700000000002,-0.8293940000000001,0.000769,0.009279,-0.009701999999999999,-0.002165,0.010245,-0.0010199999999999999
693,0.549028,-0.236576,-0.8004939999999999,0.507323,0.234375,-0.8292709999999999,0.002927,0.014597999999999998,-0.009694,-0.001204,0.012283,-0.002333
694,0.549234,-0.23662800000000003,-0.800656,0.507487,0.23442600000000002,-0.8291569999999999,0.0039700000000000004,0.012451,-0.006479,0.002294,0.010554000000000001,-0.0026609999999999997
695,0.549471,-0.23660100000000003,-0.800806,0.507687,0.23439899999999997,-0.8290420000000001,0.006182,0.015816999999999998,-0.005534000000000001,0.001972,0.011603,-0.005294
696,0.549755,-0.236544,-0.8009850000000001,0.507929,0.234344,-0.828909,0.008320999999999999,0.016875,-0.005520000000000001,0.001363,0.011856,-0.001978
697,0.550083,-0.23649299999999998,-0.801162,0.508207,0.23429499999999998,-0.8287530000000001,0.006196,0.020074,-0.004471,-0.002195,0.011112,0.002779
698,0.5504600000000001,-0.236511,-0.801298,0.508517,0.234312,-0.828557,0.000872,0.021162,-0.0055780000000000005,-0.003421,0.008362999999999999,-0.004069
699,0.550804,-0.236544,-0.801417,0.508799,0.234344,-0.828376,0.002986,0.016894,-0.005557,-0.001169,0.009659000000000001,-0.003396
700,0.55103,-0.236539,-0.801566,0.5089859999999999,0.234339,-0.828262,0.005106,0.012629000000000001,-0.006605,-0.00183,0.007528,-0.001526
701,0.551203,-0.23656,-0.8017529999999999,0.509127,0.23435999999999998,-0.828169,0.005096,0.009438,-0.007670000000000001,0.002424,0.010833,-0.000246
702,0.551343,-0.23654499999999998,-0.80192,0.509245,0.23434499999999997,-0.828101,0.005086,0.008368,-0.0066,0.0019089999999999999,0.009687999999999999,0.000296
703,0.551409,-0.23650100000000002,-0.802099,0.509305,0.234302,-0.828076,0.007201000000000001,0.0041,-0.00658,0.001193,0.010022,-0.002231
704,0.551488,-0.236498,-0.802288,0.50937,0.2343,-0.8280370000000001,0.005149,0.007447,-0.006737000000000001,-7.8e-05,0.009276000000000001,-0.000653
705,0.551614,-0.236515,-0.802477,0.509473,0.234316,-0.8279690000000001,0.00303,0.009589,-0.007821999999999999,0.001239,0.008955,-0.001987
706,0.551797,-0.236571,-0.802656,0.509618,0.23437,-0.827865,0.004116,0.012785,-0.008887,0.0024059999999999997,0.009358,-0.001207
707,0.551992,-0.2366,-0.802886,0.509775,0.234398,-0.82776,0.006249,0.011717,-0.009939,0.001501,0.010185,-0.0013570000000000001
708,0.552192,-0.236617,-0.803131,0.509939,0.23441599999999999,-0.8276540000000001,0.006254,0.013843000000000001,-0.008873,0.000651,0.009496,-0.0016460000000000001
709,0.552391,-0.236623,-0.803348,0.510103,0.234422,-0.827551,0.004116,0.012785,-0.008887,-0.001268,0.009994,-0.0006349999999999999
710,0.5525899999999999,-0.23665799999999998,-0.8035479999999999,0.510263,0.23445500000000002,-0.827443,0.003039,0.010657999999999999,-0.008892,-0.002435,0.010662,-0.000819
711,0.552755,-0.2367,-0.803756,0.510394,0.234496,-0.82735,0.005178,0.011715999999999999,-0.008878,-0.00041500000000000006,0.010332,-0.000241
712,0.552882,-0.236719,-0.8040149999999999,0.510497,0.234514,-0.827282,0.007370999999999999,0.010779,-0.011128,0.0008710000000000001,0.010191,-0.0020329999999999997
713,0.553041,-0.236723,-0.804267,0.510628,0.23451799999999998,-0.8272,0.005232,0.010782,-0.010075,-0.000985,0.01037,-0.000941
714,0.553191,-0.23671999999999999,-0.804497,0.5107520000000001,0.23451599999999997,-0.827124,0.007361,0.01077,-0.008992,-0.001017,0.009457,-0.000513
715,0.553341,-0.23675100000000002,-0.804665,0.5108729999999999,0.234546,-0.827041,0.002012,0.009715000000000001,-0.0068920000000000006,-0.0019920000000000003,0.009427,-0.001542
716,0.553487,-0.23677600000000001,-0.804815,0.5109899999999999,0.23456999999999997,-0.8269620000000001,0.00307,0.008642,-0.005815,-0.00037,0.010334000000000001,-0.001743
717,0.55361,-0.23678000000000002,-0.804949,0.511092,0.23457399999999998,-0.8268979999999999,0.004132,0.008634000000000001,-0.004739,0.00022999999999999998,0.00946,-0.000434
718,0.553751,-0.23676,-0.805099,0.51121,0.234555,-0.82683,0.005203,0.009695,-0.004733,-0.000743,0.009403,0.000597
719,0.553897,-0.23671999999999999,-0.805246,0.511336,0.234515,-0.8267629999999999,0.005226,0.008654,-0.003739,0.0029460000000000003,0.010236,-0.000553
720,0.554031,-0.236763,-0.805376,0.511442,0.23455700000000002,-0.826686,-9.8e-05,0.008681,-0.005913,0.000155,0.007156999999999999,-0.0035450000000000004
721,0.554142,-0.236841,-0.805523,0.511524,0.23463299999999998,-0.8266129999999999,0.002045,0.007620999999999999,-0.009101,-0.000767,0.011826999999999999,-0.001786
722,0.55432,-0.23686500000000002,-0.805737,0.511668,0.234656,-0.826518,0.006327,0.011863,-0.008009,0.0013779999999999999,0.011239,-0.0022789999999999998
723,0.554469,-0.236853,-0.805906,0.511793,0.234645,-0.8264440000000001,0.004159,0.007597,-0.004814,0.001452,0.011937,-0.000339
724,0.554571,-0.236816,-0.806013,0.511881,0.234609,-0.826399,0.00415,0.007587999999999999,-0.002677,-5.6000000000000006e-05,0.010173,-0.0015279999999999998
725,0.554711,-0.23678400000000002,-0.8060689999999999,0.5120020000000001,0.234578,-0.826333,0.002002,0.006522,-0.0005549999999999999,-0.001916,0.008846,-0.002951
726,0.554829,-0.23676599999999998,-0.806072,0.512101,0.23456,-0.826277,0.0009199999999999999,0.005452,0.001576,-0.001297,0.011564,-0.0008710000000000001
727,0.5549569999999999,-0.236777,-0.806037,0.512206,0.234571,-0.826209,-0.001224,0.005352,0.000513,-0.0030039999999999997,0.009981,-0.001458
728,0.554996,-0.23675,-0.8059930000000001,0.512241,0.234544,-0.8261950000000001,0.0008710000000000001,6e-06,0.003739,-0.002216,0.010343999999999999,-0.0017170000000000002
729,0.554899,-0.23669899999999996,-0.805964,0.512167,0.23449499999999998,-0.826254,0.0019100000000000002,-0.006389,0.003754,-0.002066,0.009859,0.00041799999999999997
730,0.554712,-0.23665799999999998,-0.805904,0.5120180000000001,0.23445500000000002,-0.826358,0.000819,-0.010651,0.004821,-0.001917,0.008343000000000001,-0.0008359999999999999
731,0.554467,-0.23663,-0.805815,0.5118189999999999,0.23442800000000003,-0.8264889999999999,-0.000258,-0.013838999999999999,0.003749,-0.000466,0.007882,-0.0021850000000000003
732,0.554171,-0.23657399999999998,-0.805719,0.5115810000000001,0.234373,-0.826652,0.000785,-0.015986,0.006964,-0.00061,0.009828,-0.002648
733,0.553913,-0.236546,-0.80565,0.511371,0.234346,-0.826789,-0.000248,-0.011708,0.003746,0.003781,0.008451,-0.0034409999999999996
734,0.553741,-0.236539,-0.805605,0.5112300000000001,0.234339,-0.8268790000000001,-0.00022400000000000002,-0.007443000000000001,0.002673,0.003571,0.008856000000000001,-0.00381
735,0.553669,-0.236544,-0.8055439999999999,0.51117,0.234344,-0.8269139999999999,-0.001333,-0.003407,0.002746,0.001709,0.006333,-0.001882
736,0.553616,-0.23653600000000002,-0.805491,0.511126,0.234337,-0.826943,0.000796,-0.00448,0.002762,-0.0010400000000000001,0.009041,-0.002372
737,0.5535760000000001,-0.23654499999999998,-0.805441,0.511092,0.23434499999999997,-0.8269620000000001,-0.001328,-0.003403,0.001678,-0.001113,0.009353,0.0005769999999999999
738,0.55347,-0.23656300000000002,-0.805379,0.5110020000000001,0.23436300000000002,-0.8270129999999999,-0.002414,-0.007659999999999999,0.0016760000000000002,-0.00203,0.009120999999999999,0.00010800000000000001
739,0.553319,-0.23658099999999999,-0.805305,0.510875,0.23438,-0.8270860000000001,-0.00349,-0.008726000000000001,0.002738,-4.1e-05,0.009974,-0.002107
740,0.553148,-0.23659699999999997,-0.805232,0.510732,0.234395,-0.8271700000000001,-0.0013570000000000001,-0.008733,0.0027530000000000002,0.001032,0.011775,-0.0009699999999999999
741,0.552954,-0.236594,-0.8051649999999999,0.510572,0.234393,-0.8272700000000001,-0.001371,-0.010868000000000001,0.003824,-0.000394,0.010816,-0.002884
742,0.552791,-0.236625,-0.805072,0.510434,0.234423,-0.8273469999999999,-0.002428,-0.008734,0.003814,9.499999999999999e-05,0.009535,-0.0015869999999999999
743,0.5526310000000001,-0.236637,-0.804964,0.5103,0.234434,-0.827426,-0.001474,-0.010083,0.006113,-0.0015869999999999999,0.008440000000000001,-0.00314
744,0.55245,-0.23662600000000003,-0.804834,0.510151,0.23442399999999997,-0.827521,-0.001474,-0.010083,0.006113,0.000637,0.009228,-0.002008
745,0.5522739999999999,-0.236596,-0.804707,0.510009,0.234395,-0.827616,-0.00040300000000000004,-0.010081999999999999,0.005053,-0.001434,0.009105,-0.002859
746,0.552091,-0.23658600000000002,-0.804592,0.5098590000000001,0.23438499999999998,-0.8277120000000001,-0.001474,-0.011144,0.005047,-0.000414,0.008824,-0.002366
747,0.551895,-0.23657199999999998,-0.80447,0.509698,0.234371,-0.827815,-0.001474,-0.010083,0.006113,8.3e-05,0.009052,-0.0007070000000000001
748,0.551759,-0.236571,-0.804383,0.509586,0.23437,-0.8278840000000001,-0.00145,-0.006878,0.003973,0.002865,0.007481999999999999,-0.005002
749,0.551652,-0.236598,-0.804301,0.509494,0.23439699999999997,-0.827933,-0.002503,-0.00474,0.002895,-0.000766,0.00895,-0.0012289999999999998
750,0.5515439999999999,-0.23665100000000003,-0.804241,0.5093979999999999,0.234448,-0.8279780000000001,-0.002503,-0.005801,0.0018280000000000002,0.000246,0.010242,-0.000452
751,0.551467,-0.236663,-0.804175,0.509332,0.23446,-0.828015,-0.0026309999999999997,-0.006095000000000001,0.004154,-0.0026190000000000002,0.011831999999999999,-0.0033299999999999996
752,0.551322,-0.236668,-0.804045,0.509212,0.234465,-0.8280870000000001,-0.00266,-0.010365000000000001,0.006295,0.000691,0.011033,-0.0035009999999999998
753,0.551188,-0.236652,-0.8038890000000001,0.509103,0.23445,-0.828159,-0.0026550000000000002,-0.008237999999999999,0.007361,0.0006929999999999999,0.010256,-0.0033689999999999996
754,0.5510970000000001,-0.23662199999999997,-0.803726,0.5090319999999999,0.234421,-0.828211,-0.002646,-0.006108,0.007358,-0.000609,0.011307,-0.001074
755,0.551042,-0.23659699999999997,-0.8035479999999999,0.508989,0.234396,-0.8282440000000001,-0.003698,-0.002908,0.007347,-0.0016489999999999999,0.010416,-0.000736
756,0.551048,-0.236594,-0.803376,0.508994,0.234393,-0.828242,-0.003689,-0.000778,0.007344,-0.001975,0.010556,-0.004064
757,0.551003,-0.236589,-0.8032130000000001,0.508958,0.234388,-0.8282649999999999,-0.0015689999999999999,-0.0050420000000000005,0.006296,-0.0011,0.007784,-0.002942
758,0.550897,-0.236565,-0.803131,0.5088729999999999,0.23436500000000002,-0.828324,0.0005740000000000001,-0.006102000000000001,0.0031079999999999997,0.000268,0.009547,-0.002212
759,0.550743,-0.236523,-0.803059,0.5087510000000001,0.23432399999999998,-0.828411,0.00043799999999999997,-0.008511,0.005414,-0.00031299999999999996,0.010824,-0.001469
760,0.550582,-0.236492,-0.802942,0.508621,0.234294,-0.828499,-0.000644,-0.009581000000000001,0.0075450000000000005,0.000901,0.008626,-0.0033490000000000004
761,0.5503779999999999,-0.23647800000000002,-0.802791,0.5084529999999999,0.23428000000000002,-0.828606,-0.003854,-0.012761,0.006458,0.001419,0.010348999999999999,-0.001808
762,0.550162,-0.236483,-0.802661,0.508274,0.234285,-0.828714,-0.003839,-0.011687000000000001,0.00432,0.002255,0.008467,-0.000479
763,0.549979,-0.23653200000000002,-0.802564,0.508116,0.23433299999999999,-0.8287969999999999,-0.0038159999999999995,-0.008483,0.00218,0.000642,0.008389,-0.001006
764,0.549883,-0.23656,-0.802474,0.508034,0.23435999999999998,-0.8288399999999999,-0.0016719999999999999,-0.0042380000000000004,0.004326,0.000557,0.010193,-0.001741
765,0.549824,-0.236566,-0.802392,0.507984,0.234366,-0.8288690000000001,-0.000596,-0.003172,0.003264,0.002407,0.011285,-0.002796
766,0.54973,-0.23657399999999998,-0.802353,0.507905,0.234373,-0.828916,-0.000601,-0.006359,0.001131,-0.002869,0.009386,-0.001086
767,0.549583,-0.236575,-0.802303,0.507782,0.234375,-0.82899,-0.0017620000000000001,-0.009658,0.001204,-0.002823,0.01059,-0.0021260000000000003
768,0.5493819999999999,-0.236603,-0.802239,0.507613,0.23440100000000003,-0.8290870000000001,-0.002848,-0.011793000000000001,0.003336,-0.001387,0.00948,-0.0027
769,0.54919,-0.236636,-0.8021199999999999,0.50745,0.234433,-0.829177,-0.004986,-0.01179,0.004389,-0.0011330000000000001,0.011569,-0.0037240000000000003
770,0.549028,-0.236654,-0.802018,0.507313,0.23445100000000002,-0.829256,-0.0017760000000000002,-0.00861,0.005476,-0.001118,0.009826999999999999,-0.002455
