,attitude.roll,attitude.pitch,attitude.yaw,gravity.x,gravity.y,gravity.z,rotationRate.x,rotationRate.y,rotationRate.z,userAcceleration.x,userAcceleration.y,userAcceleration.z
0,0.9849120000000001,-1.208703,0.72547,0.29515399999999997,0.935157,-0.195867,0.8850100000000001,1.738144,-0.25385599999999997,-0.55318,0.083275,0.261038
1,0.983175,-1.201561,0.6863130000000001,0.30036399999999996,0.9326040000000001,-0.200077,0.707789,1.660249,-0.06805499999999999,-0.366526,-0.007555,0.148075
2,0.983992,-1.196519,0.6561859999999999,0.30443899999999996,0.9307719999999999,-0.202433,0.54302,1.311442,-0.076237,-0.162868,-0.01146,0.19813
3,0.9850639999999999,-1.1902780000000002,0.633204,0.30949099999999996,0.928472,-0.205314,0.539921,1.04545,0.11102100000000001,0.070789,-0.033239,0.262763
4,0.9883629999999999,-1.17856,0.6147600000000001,0.319231,0.924057,-0.21026199999999998,0.6569470000000001,1.021515,0.400289,0.147948,0.028412,0.308345
5,0.9941909999999999,-1.163937,0.5985010000000001,0.331744,0.9183680000000001,-0.21574200000000002,0.664741,1.1140860000000001,0.420521,0.08344800000000001,0.292539,0.390226
6,1.008191,-1.1521299999999999,0.5833699999999999,0.34388,0.913632,-0.21684499999999998,0.5226149999999999,1.6105969999999998,0.254386,0.037773,0.36900700000000003,0.334185
7,1.0297120000000002,-1.147084,0.5668529999999999,0.352414,0.9115690000000001,-0.211767,0.362425,1.923682,-0.11246600000000001,0.015323,0.483634,0.150763
8,1.055297,-1.1516030000000002,0.5501590000000001,0.354128,0.9134180000000001,-0.200649,0.034381999999999996,2.126693,-0.512396,0.10745,0.641605,0.076306
9,1.097149,-1.169509,0.5475409999999999,0.34760100000000005,0.920559,-0.17816700000000002,-0.659408,2.2653659999999998,-1.022689,0.076532,0.602695,0.17311700000000002
10,1.170887,-1.204963,0.572239,0.3295,0.933826,-0.139275,-1.483624,2.7043009999999996,-1.649645,0.05921799999999999,0.012844999999999999,0.260598
11,1.294859,-1.254951,0.647401,0.298867,0.950534,-0.084628,-2.283481,2.5852310000000003,-2.0813,0.245444,0.12086199999999998,0.401629
12,1.470299,-1.3037729999999998,0.776048,0.262527,0.9645610000000001,-0.026473000000000003,-2.0939,2.6882599999999996,-1.903852,0.41314700000000004,0.202676,0.375884
13,1.6503259999999997,-1.331129,0.8951020000000001,0.236627,0.971417,0.018859,-1.155702,3.7230230000000004,-0.948975,0.608466,0.197742,0.291536
14,1.7944939999999998,-1.339167,0.950625,0.22384,0.9732940000000001,0.050925,-0.266642,4.798001999999999,-0.417509,0.8572299999999999,0.096164,-0.11601900000000001
15,1.9041830000000002,-1.3584610000000001,0.9672860000000001,0.19913599999999998,0.977541,0.068964,0.21341,4.49464,-1.425373,0.938773,0.07472000000000001,-0.232965
16,2.0608720000000003,-1.392919,1.047175,0.15611,0.9842209999999999,0.08328300000000001,-0.23524499999999998,3.5483300000000004,-2.014816,0.587649,-0.052688,-0.42480500000000004
17,2.373774,-1.418514,1.2927959999999998,0.105359,0.9884270000000001,0.10912999999999999,-1.204127,3.7825349999999998,-2.467333,0.11116300000000001,0.250998,-0.072417
18,2.902647,-1.422916,1.741137,0.034871,0.989086,0.14315,-1.406564,4.407758,-3.332671,0.08771799999999999,0.398808,-0.032524000000000004
19,-2.875983,-1.389737,2.178719,-0.047267,0.9836540000000001,0.173752,-1.805262,2.816453,-3.5737669999999997,-0.381947,0.24786799999999998,-0.182343
20,-2.679749,-1.326561,2.3536650000000003,-0.10775,0.9703229999999999,0.21647600000000003,-2.51938,0.44783500000000004,-2.29599,-0.5852729999999999,-0.258912,-0.19328299999999998
21,-2.672159,-1.25809,2.368371,-0.139166,0.9515049999999999,0.274353,-3.189725,-0.566879,-1.572981,-0.003503,-0.318143,0.069885
22,-2.682258,-1.187603,2.362363,-0.165761,0.927476,0.33512600000000003,-3.08091,0.096706,-1.380792,0.15420999999999999,-0.40831100000000004,0.054476
23,-2.684382,-1.131869,2.350839,-0.187599,0.905208,0.381316,-2.2728990000000002,0.509196,-0.8073819999999999,0.055275,-0.34515,-0.181197
24,-2.693496,-1.091528,2.336291,-0.199784,0.887332,0.415602,-1.8284799999999999,0.088462,-0.40636,0.0728,-0.343479,-0.253157
25,-2.70218,-1.064724,2.320422,-0.20621399999999998,0.874655,0.43869300000000006,-1.120596,0.26484,-0.10681199999999999,-0.025705000000000002,-0.330786,-0.318332
26,-2.72285,-1.0456860000000001,2.298054,-0.203837,0.8652690000000001,0.45799399999999996,-1.052314,-0.156288,0.185829,-0.27153499999999997,-0.43642,-0.122438
27,-2.742041,-1.033662,2.281464,-0.199043,0.8591790000000001,0.471371,-0.467975,-0.288042,0.127054,-0.3321,-0.445421,-0.051022000000000005
28,-2.750987,-1.0341,2.277917,-0.194676,0.859403,0.472785,0.217205,-0.290209,0.075227,-0.38096199999999997,-0.25694,0.23107199999999997
29,-2.751679,-1.043534,2.281571,-0.19125799999999998,0.864188,0.4654,0.612682,-0.090403,0.115122,-0.36080500000000004,-0.20763299999999998,0.222802
30,-2.743944,-1.06102,2.288868,-0.188971,0.8728540000000001,0.44990399999999997,1.043193,0.118676,0.203318,-0.300119,-0.15212,-0.010893
31,-2.7357970000000003,-1.086991,2.299016,-0.183617,0.885231,0.42737299999999995,1.427326,-0.191145,0.359154,-0.136207,-0.12223099999999999,-0.263677
32,-2.736275,-1.118544,2.305022,-0.172309,0.899465,0.401582,1.452987,-0.214418,0.562326,-0.104012,-0.023763,-0.099397
33,-2.7528509999999997,-1.139109,2.285188,-0.158584,0.9082610000000001,0.387183,0.38066300000000003,-0.061073,0.9723139999999999,0.354049,0.44989300000000004,0.50773
34,-2.807594,-1.152695,2.236442,-0.133104,0.9138620000000001,0.383585,0.356224,-0.500889,1.223739,0.36136,0.469836,-0.15598499999999998
35,-2.8660229999999998,-1.174892,2.18925,-0.104931,0.9226479999999999,0.37109000000000003,1.1223969999999999,-0.743096,1.189877,0.442089,-0.178233,-0.166561
36,-2.8973970000000002,-1.21094,2.156864,-0.085138,0.935947,0.34168899999999996,1.699127,0.373198,0.98524,0.372537,-0.48173900000000003,-0.11308199999999999
37,-2.930933,-1.245747,2.1075060000000003,-0.066778,0.947635,0.312292,1.375508,0.683821,1.374619,0.297369,-0.44028,-0.163366
38,-3.008867,-1.2775590000000001,2.009375,-0.038251,0.957313,0.286506,1.3417139999999999,0.881812,1.9734009999999997,0.36485100000000004,-0.037391,-0.167304
39,-3.1363,-1.3123989999999999,1.856164,-0.001352,0.966801,0.255524,1.777543,1.009269,2.2219729999999998,0.472864,0.537762,-0.179215
40,3.0060830000000003,-1.350547,1.693844,0.029514,0.975843,0.216464,2.108193,0.690587,1.4448889999999999,0.381558,0.547091,-0.244921
41,2.883486,-1.3826049999999999,1.557608,0.047751,0.9823440000000001,0.180878,1.522327,0.604212,0.9100010000000001,0.175592,0.18173399999999998,-0.125809
42,2.7761,-1.395571,1.438819,0.06230499999999999,0.9846870000000001,0.16280899999999998,0.672834,0.230392,0.8244299999999999,0.14802200000000001,-0.14121199999999998,0.000598
43,2.649915,-1.393673,1.310985,0.08318099999999999,0.984355,0.15532,0.277089,-0.072352,1.218364,0.104502,-0.182566,0.009382999999999999
44,2.493461,-1.381868,1.155952,0.113374,0.9822059999999999,0.14971600000000002,0.266567,-0.29679,1.675777,0.069228,-0.120252,-0.009854
45,2.335299,-1.362797,0.9994790000000001,0.149034,0.9784459999999999,0.142932,0.384718,-0.036547,1.7606580000000003,-0.075655,0.030251999999999998,0.017102000000000003
46,2.212977,-1.344739,0.8659600000000001,0.179481,0.974558,0.134241,0.555729,0.545299,1.56135,0.066246,-0.040598,-0.062143
47,2.115222,-1.326475,0.7544420000000001,0.20692,0.970302,0.125282,0.583058,0.538362,1.407726,0.10538199999999999,-0.10338900000000001,-0.153801
48,2.034704,-1.3115780000000001,0.6609229999999999,0.229227,0.966591,0.11468800000000001,0.700175,0.417739,1.102118,0.022527000000000002,-0.17295,-0.26098899999999997
49,1.9566189999999999,-1.2983639999999999,0.579746,0.24928899999999998,0.9631190000000001,0.101256,0.683487,-0.287103,1.023857,-0.16857,-0.154678,-0.264846
50,1.8760689999999998,-1.284308,0.513229,0.269513,0.959242,0.08492999999999999,0.576665,-1.1194110000000002,0.9323100000000001,-0.25150700000000004,-0.07285900000000001,-0.089309
51,1.8056450000000002,-1.270517,0.466441,0.287661,0.955254,0.068827,0.40067600000000003,-1.245017,0.794509,-0.26965500000000003,-0.068871,-0.073206
52,1.756321,-1.257323,0.43365,0.30306700000000003,0.951268,0.05687999999999999,0.355577,-0.65765,0.733621,-0.17090999999999998,-0.064427,0.08983300000000001
53,1.709459,-1.244788,0.39276,0.317184,0.9473280000000001,0.044266,0.676103,-0.335917,0.717288,-0.015991,-0.069338,0.030257999999999997
54,1.6451669999999998,-1.233499,0.332549,0.330018,0.943652,0.024589,1.028416,-0.380427,0.6204609999999999,-0.028825,-0.065662,0.049935
55,1.5788,-1.223716,0.267729,0.340138,0.94037,0.002722,1.046035,-0.159419,0.48143199999999997,0.015606,-0.09196599999999999,0.046945
56,1.5301209999999998,-1.2141819999999999,0.21481799999999998,0.34881,0.937084,-0.014196,0.8460280000000001,0.19817200000000001,0.474235,0.004294,-0.016216,0.047109
57,1.498078,-1.202025,0.17008099999999998,0.359513,0.9327709999999999,-0.026188999999999997,0.8483120000000001,0.616225,0.6221979999999999,-0.006409000000000001,-0.011903,0.059102999999999996
58,1.462925,-1.187319,0.12117699999999999,0.37196799999999997,0.927369,-0.040281,1.0264280000000001,0.38012399999999996,0.636563,-0.108891,0.36679,0.00048600000000000005
59,1.414321,-1.173834,0.067506,0.381891,0.92224,-0.060249000000000004,1.124083,-0.140443,0.463792,-0.031625,0.406465,0.22765300000000002
60,1.36768,-1.163659,0.023098,0.387839,0.918258,-0.07987799999999999,0.7657229999999999,-0.297186,0.27882399999999996,0.084466,0.469208,0.307768
61,1.352394,-1.156816,0.008378,0.392698,0.9155270000000001,-0.087156,0.104822,0.067311,0.275877,0.26202600000000004,0.571946,0.184218
62,1.368784,-1.1551209999999998,0.023722,0.395594,0.9148440000000001,-0.08102000000000001,-0.48312700000000003,0.05430599999999999,0.042119,0.27146,0.656796,0.098949
63,1.405036,-1.1604,0.063941,0.39350100000000005,0.916963,-0.065831,-1.102991,0.045738,-0.207891,0.321602,0.508757,0.198247
64,1.487522,-1.170237,0.137286,0.388579,0.9208430000000001,-0.032434,-1.6612209999999998,1.269079,-0.357568,0.372819,0.276331,0.271951
65,1.607345,-1.1825700000000001,0.22339699999999998,0.378291,0.925582,0.013831999999999999,-1.6010659999999999,2.385818,-0.758093,0.192388,0.08064400000000001,0.13883199999999998
66,1.7313189999999998,-1.199631,0.300782,0.358035,0.9319059999999999,0.057972,-1.16759,2.614617,-1.074757,0.125974,0.035394999999999996,0.032132
67,1.8456580000000002,-1.2185489999999999,0.370506,0.332054,0.9386,0.093639,-0.9619340000000001,2.351609,-1.281287,0.09914400000000001,0.022933000000000002,-0.050274
68,1.968087,-1.2417790000000002,0.45459799999999995,0.297944,0.9463600000000001,0.12501800000000002,-0.9036290000000001,2.0379680000000002,-1.7515630000000002,0.160476,0.087514,0.046765
69,2.108216,-1.2719200000000002,0.564163,0.25293699999999997,0.9556680000000001,0.150732,-0.8189390000000001,1.562706,-2.319725,0.156747,0.144521,-0.009542
70,2.286794,-1.3023129999999998,0.732915,0.200127,0.964174,0.17411300000000002,-1.176102,0.32959299999999997,-2.661403,0.370201,-0.152392,-0.30727600000000005
71,2.4641330000000004,-1.3123879999999999,0.923357,0.160176,0.9667979999999999,0.19910799999999998,-1.4214639999999998,-0.642664,-1.7357220000000002,0.370967,-0.22706700000000002,-0.342907
72,2.610585,-1.3016290000000001,1.090311,0.134667,0.963993,0.229309,-1.8940240000000002,-0.639789,-1.512564,0.26873,-0.199756,-0.29586799999999996
73,2.792267,-1.2750290000000002,1.280643,0.099761,0.9565790000000001,0.27386900000000003,-2.5528,0.378787,-2.0493770000000002,-0.129805,0.164134,0.016429
74,2.9967770000000002,-1.236193,1.4738850000000001,0.047391,0.944541,0.32495599999999997,-2.5486779999999998,1.278781,-2.54402,-0.071423,0.059076,0.10488399999999999
75,3.129155,-1.194544,1.5963530000000001,0.00457,0.930048,0.367406,-1.993725,0.521382,-1.431427,0.35080700000000004,-0.527369,-0.092534
76,-3.102557,-1.1644290000000002,1.645947,-0.015425999999999999,0.9185629999999999,0.394971,-1.210173,0.256375,-0.841297,0.24067600000000003,-0.628097,-0.1974
77,-3.060876,-1.143569,1.681818,-0.033408,0.910118,0.412997,-0.92406,0.6554369999999999,-0.7191,0.207648,-0.541222,-0.087649
78,-3.0166470000000003,-1.125899,1.7062279999999999,-0.053632000000000006,0.9026549999999999,0.427009,-0.698166,1.412688,-0.608466,0.174543,-0.332754,-0.045478
79,-2.960354,-1.116528,1.7289869999999998,-0.079093,0.898582,0.431616,-0.202167,1.9305459999999999,-0.539435,0.152809,-0.191048,-0.138968
80,-2.907196,-1.114069,1.7506580000000003,-0.10242799999999999,0.8975,0.428953,-0.016687999999999998,1.3985239999999999,-0.321677,-0.041768,-0.245157,-0.257749
81,-2.887092,-1.11249,1.7497099999999999,-0.11138699999999999,0.896803,0.42817700000000003,-0.123646,0.8144779999999999,0.10561300000000001,0.04022,-0.026883999999999998,-0.178498
82,-2.882845,-1.111125,1.7453509999999999,-0.113517,0.8961979999999999,0.428883,-0.139106,0.091848,0.21218499999999998,-0.301095,-0.219898,-0.265675
83,-2.913158,-1.109628,1.717148,-0.10077,0.895533,0.433433,-0.11876300000000001,-0.36289299999999997,0.6936100000000001,-0.268279,-0.154246,-0.16901300000000002
84,-2.949119,-1.122134,1.687098,-0.082973,0.901028,0.425749,0.9428350000000001,-0.504362,0.785596,-0.45938599999999996,-0.24471700000000002,-0.270873
85,-2.97427,-1.166028,1.671316,-0.065585,0.9191940000000001,0.388303,2.811577,-0.48907799999999996,0.671511,-0.505246,-0.410329,0.069414
86,-2.983415,-1.231084,1.663477,-0.052487,0.942851,0.32905300000000004,3.1402900000000002,0.10488399999999999,0.7681180000000001,-0.042712,-0.38227300000000003,0.161685
87,-3.050204,-1.282799,1.580825,-0.025921,0.958815,0.282843,1.8400419999999997,0.853748,2.1659919999999997,0.531628,0.600588,-0.164115
88,3.0546450000000003,-1.315028,1.3958110000000001,0.021969,0.967469,0.25202800000000003,1.585124,-0.46443100000000004,2.494913,1.009159,1.60794,-0.162353
89,2.853625,-1.340765,1.2105190000000001,0.06475399999999999,0.973659,0.21861399999999998,1.632943,-1.2245549999999998,1.534822,0.558354,0.48503500000000005,-0.15291
90,2.7076569999999998,-1.357459,1.081505,0.089016,0.9773299999999999,0.19209500000000002,1.053619,-0.77747,0.788856,0.049595,-0.163319,-0.11484000000000001
91,2.6063080000000003,-1.3611719999999998,0.979877,0.10614200000000001,0.978109,0.17898,0.441726,0.327158,1.068382,0.04936,-0.253012,-0.07873
92,2.502093,-1.347557,0.8570409999999999,0.13212100000000002,0.9751850000000001,0.17763800000000002,0.022583000000000002,0.91866,1.628717,0.198796,-0.199169,-0.046122
93,2.4020599999999996,-1.3264610000000001,0.742332,0.16303199999999998,0.970298,0.17871700000000001,0.139725,0.24783400000000003,1.719057,0.230264,-0.13018,-0.0018679999999999999
94,2.2801669999999996,-1.307942,0.622475,0.197154,0.9656520000000001,0.169244,0.579386,-0.49067200000000005,1.6718,0.256184,-0.033035,0.053458000000000006
95,2.170311,-1.293747,0.513807,0.22581700000000002,0.961867,0.154329,0.803009,-0.031787,1.274327,0.162367,0.007387,-0.03586
96,2.077876,-1.2869979999999999,0.41326,0.244767,0.9599989999999999,0.13597599999999999,1.12802,0.24545300000000003,0.9258649999999999,0.08909500000000001,-0.041267,-0.100346
97,1.971803,-1.2795860000000001,0.30290100000000003,0.264331,0.9578969999999999,0.112071,1.271266,-0.219185,1.112264,-0.07722799999999999,-0.053538999999999996,-0.18245999999999998
98,1.860569,-1.264207,0.19850399999999999,0.289222,0.953368,0.08623600000000001,1.1113790000000001,-0.727454,1.283782,-0.329597,0.027252999999999996,-0.124276
99,1.774615,-1.246538,0.123142,0.31200700000000003,0.947887,0.064488,0.776841,-0.648532,1.0185620000000002,-0.418712,0.056354999999999995,-0.10480199999999999
100,1.726595,-1.231771,0.085934,0.328536,0.9430790000000001,0.051604,0.270978,-0.6979529999999999,0.762991,-0.38259699999999996,-0.130427,-0.103651
101,1.696712,-1.217632,0.072282,0.343127,0.938283,0.043435,0.126108,-0.9316209999999999,0.715277,-0.181948,-0.37967399999999996,-0.047631
102,1.658782,-1.205382,0.05475700000000001,0.35595,0.933976,0.0314,0.308062,-1.1682270000000001,0.5865279999999999,-0.125054,-0.383835,-0.036389
103,1.613253,-1.195397,0.031802,0.36630999999999997,0.9303610000000001,0.015562000000000001,0.41512200000000005,-1.172512,0.499687,-0.0046,-0.294863,-0.018415
104,1.57289,-1.1857389999999999,0.008301000000000001,0.375609,0.9267770000000001,0.000786,0.41593,-0.7496229999999999,0.50556,0.190904,-0.177143,0.047874
105,1.546913,-1.174136,-0.00903,0.386227,0.922357,-0.009226,0.26437,-0.391703,0.639707,0.214511,-0.165261,0.087412
106,1.5359969999999998,-1.158336,-0.014618,0.400619,0.9161370000000001,-0.013947,0.067785,-0.216202,0.877391,0.146393,-0.059265,0.141526
107,1.533367,-1.139206,-0.017212,0.418021,0.908302,-0.015653,0.14876199999999998,0.084646,0.965159,-0.033698,0.21706399999999998,0.150144
108,1.521757,-1.122227,-0.032537,0.43315299999999995,0.901069,-0.021258000000000003,0.506321,0.09510199999999999,0.704861,-0.23520100000000002,0.42995600000000006,0.141681
109,1.495932,-1.114831,-0.061654999999999995,0.439094,0.8978360000000001,-0.032934,0.696226,-0.033096,0.099601,-0.32613400000000003,0.492712,0.1285
110,1.467964,-1.1153959999999998,-0.088474,0.437496,0.898085,-0.045148,0.49943999999999994,-0.339471,-0.10220599999999999,-0.18473499999999998,0.5771649999999999,0.13409200000000002
111,1.441708,-1.113453,-0.104869,0.437891,0.897229,-0.056843,0.328244,-0.660583,0.161928,0.026418999999999998,0.560733,0.13924
112,1.416139,-1.107414,-0.12019200000000001,0.441641,0.894546,-0.068853,0.393806,-0.45242299999999996,0.26360100000000003,0.35148,0.322785,0.071248
113,1.4070690000000001,-1.108365,-0.12692,0.440158,0.894971,-0.07271699999999999,-0.064663,-0.071166,-0.375682,0.106977,0.674045,-0.017356
114,1.4071040000000001,-1.123889,-0.11843499999999998,0.4264,0.9017879999999999,-0.07042899999999999,-0.438429,-0.628273,-0.8582790000000001,0.101966,0.511893,0.044519
115,1.420652,-1.1449770000000001,-0.087979,0.408418,0.910701,-0.061786,-1.0393290000000002,-0.570278,-0.987533,0.13989100000000002,0.25354499999999996,0.25352800000000003
116,1.473776,-1.167728,-0.033378,0.390396,0.9198620000000001,-0.037995999999999995,-1.27941,0.631039,-0.967248,0.34581,0.245177,0.289094
117,1.5524719999999999,-1.189149,0.027444999999999997,0.37238499999999997,0.928053,-0.006823999999999999,-1.1529530000000001,1.3734790000000001,-1.0623879999999999,0.408117,0.224886,0.240177
118,1.636763,-1.21449,0.082853,0.348054,0.937192,0.022994,-0.848891,1.6967619999999999,-1.451648,0.28488,0.116122,0.029573000000000002
119,1.7128240000000001,-1.2487139999999999,0.13115,0.313354,0.948578,0.044807,-0.47860600000000003,1.4025969999999999,-2.000955,-0.007232,0.102493,-0.173804
120,1.7858779999999999,-1.294245,0.18039000000000002,0.26674499999999995,0.962003,0.058273,-0.274889,1.289153,-2.578363,-0.014685,0.148867,-0.11808800000000001
121,1.9210150000000001,-1.345991,0.289905,0.209382,0.9748379999999999,0.07648200000000001,-0.872944,1.4909,-2.9609490000000003,0.016723,0.288529,-0.013890999999999999
122,2.168733,-1.378694,0.522115,0.15779400000000002,0.981605,0.107476,-1.632833,0.5985779999999999,-2.131901,0.5326960000000001,-0.185691,-0.22535
123,2.4219060000000003,-1.378939,0.783979,0.125685,0.9816520000000001,0.14339200000000002,-1.9913330000000002,-0.509246,-1.5711,0.49942200000000003,-0.312249,-0.210394
124,2.69346,-1.361638,1.067903,0.089963,0.9782059999999999,0.18713,-2.431938,-0.10389200000000001,-2.124832,-0.079603,-0.144359,-0.048229
125,2.966925,-1.325483,1.3427229999999999,0.042204000000000005,0.9700610000000001,0.23916199999999999,-2.762969,0.47056099999999995,-2.437665,-0.116972,-0.09938,0.069569
126,-3.1368720000000003,-1.2766959999999998,1.5167549999999999,-0.001368,0.9570629999999999,0.28987199999999996,-2.4641290000000002,0.441302,-1.7743099999999998,0.14561,-0.41446099999999997,-0.05745
127,-3.070205,-1.229757,1.586509,-0.023856,0.942407,0.33361199999999996,-2.225146,-0.156218,-0.941867,0.285468,-0.584726,-0.23414000000000001
128,-3.0345299999999997,-1.187371,1.6271010000000001,-0.039975,0.9273889999999999,0.37195500000000004,-1.915271,-0.012573,-0.9024989999999999,0.205121,-0.697439,-0.174033
129,-2.996241,-1.153259,1.6610759999999998,-0.058734,0.91409,0.401233,-1.408932,0.619436,-0.883748,0.166903,-0.5818300000000001,-0.010333
130,-2.948905,-1.1269930000000001,1.689301,-0.082224,0.903125,0.421429,-1.101264,1.330443,-0.735096,0.15825899999999998,-0.24740900000000002,0.003742
131,-2.900288,-1.106488,1.71097,-0.107011,0.8941309999999999,0.434829,-0.821298,1.362865,-0.561198,0.052186,-0.157269,-0.21940500000000002
132,-2.885015,-1.0909389999999999,1.707529,-0.117154,0.8870610000000001,0.446538,-0.718767,0.6099479999999999,0.089962,0.010922,-0.07865,-0.25681
133,-2.896083,-1.0815290000000002,1.690523,-0.114228,0.882677,0.45588500000000004,-0.404447,0.02102,0.307625,-0.181472,-0.217577,-0.30589099999999997
134,-2.930369,-1.078206,1.660279,-0.099148,0.8811110000000001,0.462398,-0.264305,-0.5451600000000001,0.8477129999999999,-0.09793400000000001,-0.22467800000000002,-0.21505300000000002
135,-2.972402,-1.087991,1.623158,-0.078175,0.8856959999999999,0.457635,0.763093,-0.39171300000000003,1.010653,-0.200069,-0.272567,-0.19111
136,-3.012153,-1.1255959999999998,1.584992,-0.055586,0.902525,0.427034,2.312277,-0.197569,1.199619,-0.277239,-0.532148,-0.19761800000000002
137,-3.05043,-1.18308,1.5379530000000001,-0.034418000000000004,0.925775,0.37650300000000003,2.675393,0.8557049999999999,1.22217,-0.163946,-0.334527,0.53379
138,-3.088289,-1.222275,1.460912,-0.018195,0.9398790000000001,0.34102,1.194266,1.882123,1.833282,0.133475,-0.158171,0.5561510000000001
139,3.107544,-1.246912,1.3544049999999999,0.010834,0.9480059999999999,0.318064,1.702511,0.155121,1.440598,0.889999,2.547386,-0.23572800000000002
140,3.0210939999999997,-1.2894139999999998,1.2665,0.033379,0.960673,0.27566599999999997,1.805273,0.25151,1.223275,0.041252,0.271581,-0.3611
141,2.950929,-1.295246,1.190652,0.051561,0.962276,0.26714299999999996,0.015650999999999998,-0.414292,0.64547,0.094252,-0.030391,-0.127631
142,2.924826,-1.293216,1.155829,0.058936,0.9617209999999999,0.267613,0.244046,1.190584,0.5713020000000001,-0.24692399999999998,-0.47191400000000006,-0.039464
143,2.8580099999999997,-1.297107,1.056395,0.075624,0.96278,0.259486,0.498169,1.1649639999999999,1.694743,0.011763,-0.278729,-0.131235
144,2.725223,-1.29055,0.909458,0.111864,0.960987,0.25295700000000004,0.36996999999999997,0.07732,2.071255,0.13246,-0.16763699999999998,-0.145612
145,2.577548,-1.281539,0.765646,0.152489,0.958456,0.241052,0.680445,-0.81891,1.8854970000000002,0.554741,-0.0012720000000000001,-0.225503
146,2.4352400000000003,-1.2756379999999998,0.639349,0.188803,0.9567559999999999,0.22128699999999998,0.929608,-1.1057299999999999,1.4688620000000001,0.353891,-0.021225,-0.184055
147,2.3115650000000003,-1.274985,0.530489,0.21511999999999998,0.956566,0.19672699999999999,1.154766,-0.841548,1.009693,0.174086,0.032524000000000004,-0.154613
148,2.2038889999999998,-1.274584,0.427863,0.235325,0.956449,0.17269600000000002,1.0923479999999999,-0.25116,1.0074319999999999,-0.158619,-0.033399,-0.05058
149,2.108996,-1.265786,0.330248,0.257845,0.953844,0.15392899999999998,0.8958149999999999,-0.055453999999999996,1.253636,-0.20785700000000001,-0.045595,-0.0021809999999999998
150,2.018777,-1.250297,0.239218,0.28394899999999995,0.9490780000000001,0.136456,0.868676,-0.2806,1.3701709999999998,-0.255812,-0.015103,0.060153
151,1.935817,-1.2332940000000001,0.15878399999999998,0.309311,0.943585,0.118202,0.8275530000000001,-0.31822,1.2235850000000001,-0.25811799999999996,0.091114,0.025337000000000002
152,1.8735939999999998,-1.2172100000000001,0.100484,0.33050799999999997,0.9381370000000001,0.103252,0.527961,-0.495246,0.998461,-0.14899,0.046635,-0.11146099999999999
153,1.826947,-1.202166,0.069546,0.348577,0.9328219999999999,0.091294,0.229307,-1.13477,0.814529,-0.117849,-0.138327,-0.157654
154,1.775889,-1.188699,0.048307,0.36505,0.9278850000000001,0.075937,0.253361,-1.818354,0.713023,-0.172881,-0.330243,-0.17547000000000001
155,1.7109860000000001,-1.177074,0.023632,0.379862,0.9234870000000001,0.053604,0.426004,-2.2041619999999997,0.607901,-0.22422199999999998,-0.439082,-0.187851
156,1.643615,-1.167251,-0.004936,0.391637,0.919675,0.028569,0.5314409999999999,-1.862207,0.516333,-0.239217,-0.33186,-0.133183
157,1.591132,-1.158184,-0.032391,0.400917,0.916077,0.008154,0.491659,-1.0383790000000002,0.458383,-0.20210999999999998,-0.202682,0.031092
158,1.556865,-1.148108,-0.052655999999999994,0.410171,0.9119889999999999,-0.005715,0.388581,-0.8286370000000001,0.5770350000000001,-0.048721,-0.014483000000000001,0.16608399999999998
159,1.509066,-1.130619,-0.07539,0.425285,0.904676,-0.026287,0.629058,-1.701645,1.037034,0.071938,0.166476,0.043788
160,1.4377790000000001,-1.1048120000000001,-0.108075,0.44533100000000003,0.89338,-0.059588999999999996,0.9147270000000001,-2.2595669999999997,1.251252,-0.021182,0.317573,-0.051312
161,1.364449,-1.080208,-0.14011400000000002,0.46114799999999995,0.882056,-0.09653099999999999,0.923997,-2.1646229999999997,0.9435469999999999,-0.060635,0.281412,-0.028698
162,1.306908,-1.062142,-0.166893,0.470142,0.8734,-0.127027,0.743478,-1.323357,0.643175,0.049328,0.311155,0.025297
163,1.285535,-1.048861,-0.174233,0.47840900000000003,0.866856,-0.140298,0.014278,-0.548249,0.579404,0.448532,0.43066000000000004,0.234521
164,1.301135,-1.039187,-0.14238,0.4886,0.861992,-0.135046,-0.951933,-0.594303,0.6795359999999999,0.3846,0.544868,0.587805
165,1.332905,-1.041136,-0.103922,0.49100900000000003,0.862979,-0.11906099999999999,-0.787892,0.326036,-0.24557800000000002,0.172794,0.614621,0.419858
166,1.35124,-1.059511,-0.10271400000000001,0.47755,0.872116,-0.10656700000000001,0.001335,1.167801,-1.244204,-0.018337,0.422546,0.17890899999999998
167,1.372325,-1.09205,-0.113434,0.451621,0.887573,-0.09083,-0.222482,1.637311,-1.779412,0.049248,0.379608,0.10824
168,1.411816,-1.124498,-0.10721900000000001,0.426183,0.902051,-0.06833099999999999,-0.547184,1.709307,-1.3875979999999999,0.199427,0.18945599999999999,0.07445
169,1.476245,-1.149938,-0.072723,0.40671599999999997,0.912739,-0.038571,-1.114978,1.739848,-1.074341,0.285072,-0.031314999999999996,0.263912
170,1.576057,-1.17025,-0.008828,0.389914,0.920848,0.0020510000000000003,-1.359225,2.151259,-0.916341,0.25687600000000005,0.004475,0.14974300000000001
171,1.681195,-1.191083,0.059039,0.368395,0.9287709999999999,0.040836000000000004,-1.096501,2.0464990000000003,-1.319228,-0.048235,0.276887,-0.237492
172,1.7554509999999999,-1.230219,0.109109,0.328349,0.9425620000000001,0.061329999999999996,-0.22760100000000003,0.827976,-2.641534,-0.19453,0.344501,-0.079564
173,1.832085,-1.295859,0.172562,0.262268,0.962442,0.070131,-0.268773,0.789876,-3.7324269999999995,-0.179092,0.264776,-0.086519
174,1.993625,-1.362083,0.32564099999999996,0.18895,0.978298,0.085022,-0.916641,0.542771,-3.4471480000000003,0.183136,0.142033,0.130509
175,2.243733,-1.3868129999999999,0.577194,0.14306,0.983123,0.114025,-1.721153,-0.156861,-1.750193,0.50141,-0.203872,0.036121
176,2.480593,-1.3796979999999999,0.829641,0.1166,0.9817959999999999,0.149928,-1.8776599999999999,-0.700946,-1.416236,0.5535359999999999,-0.38816799999999996,-0.050227
177,2.7260020000000003,-1.366301,1.0866149999999999,0.081984,0.9791639999999999,0.185781,-1.9406830000000002,0.068839,-2.057527,0.21895,-0.023384000000000002,-0.066808
178,2.990584,-1.3353979999999999,1.34202,0.035085000000000005,0.9724209999999999,0.230571,-2.517353,0.9461940000000001,-2.24855,0.11776199999999999,-0.107706,-0.141124
179,-3.122073,-1.288935,1.505547,-0.005429,0.9605389999999999,0.278086,-2.177526,0.448445,-1.6783130000000002,0.141781,-0.26045100000000004,-0.177805
180,-3.0276240000000003,-1.256269,1.5953899999999999,-0.035182,0.950943,0.307356,-1.203622,0.48109799999999997,-1.3649719999999999,0.111125,-0.573318,-0.16738699999999998
181,-2.9506,-1.234595,1.6666580000000002,-0.062626,0.9440149999999999,0.323901,-0.781576,0.49196999999999996,-1.25308,0.118565,-0.437759,-0.013644
182,-2.885995,-1.2143709999999999,1.720979,-0.088216,0.93715,0.33758699999999997,-0.805563,0.7800779999999999,-1.0869739999999999,0.09854600000000001,-0.150972,0.021193
183,-2.834864,-1.192819,1.7610400000000002,-0.111428,0.9294129999999999,0.35181399999999996,-0.8311040000000001,0.53535,-0.8699889999999999,-0.016380000000000002,-0.09758,-0.156944
184,-2.815209,-1.176409,1.7784419999999999,-0.123195,0.9232319999999999,0.36395500000000003,-0.527302,-0.006614,-0.40036,-0.118718,-0.260177,-0.34183
185,-2.812378,-1.172464,1.7830150000000002,-0.125401,0.921709,0.367048,-0.008156,-0.21866100000000002,-0.037538999999999996,-0.171901,-0.307573,-0.34721199999999997
186,-2.83453,-1.1754069999999999,1.770675,-0.11642000000000001,0.922847,0.367149,0.186354,-0.587829,0.47169799999999995,-0.24881399999999998,-0.346202,-0.277549
187,-2.8652290000000002,-1.192491,1.749414,-0.100779,0.929292,0.355329,1.115723,-0.5367390000000001,0.741975,-0.202932,-0.48481899999999994,-0.270169
188,-2.897051,-1.235464,1.726534,-0.079674,0.9443010000000001,0.31929,2.4824439999999997,-0.48405,1.0323959999999999,-0.30747199999999997,-0.622829,-0.25505
189,-2.915925,-1.2957379999999998,1.7136040000000001,-0.060773,0.9624090000000001,0.264716,2.944898,-0.154402,0.778831,-0.404391,-0.566322,-0.112357
190,-2.9546930000000002,-1.3417780000000001,1.653488,-0.042183,0.9738899999999999,0.223065,1.144673,2.045008,1.6351069999999999,0.38350700000000004,-0.031507,0.557025
191,3.136923,-1.351713,1.438164,0.001015,0.9760969999999999,0.217331,0.6204310000000001,-0.835592,2.644606,1.002632,1.409081,0.208481
192,2.8763349999999996,-1.383583,1.200718,0.048793,0.982527,0.179611,2.315403,-0.815778,1.549742,0.584004,0.440691,0.209275
193,2.715616,-1.411707,1.035336,0.065459,0.9873719999999999,0.144259,1.320569,0.34487199999999996,0.67391,-0.009687999999999999,-0.07672799999999999,-0.141467
194,2.593066,-1.4134879999999999,0.8957219999999999,0.081686,0.9876520000000001,0.133674,0.226827,1.0019770000000001,1.131173,0.183192,0.017825,-0.126869
195,2.505506,-1.398407,0.788759,0.1019,0.9851780000000001,0.137987,-0.237539,0.672426,1.0963049999999999,0.175322,-0.074823,-0.110475
196,2.413852,-1.381612,0.693656,0.125091,0.982158,0.140416,-0.016526,-0.262393,1.3137590000000001,0.019486,-0.13998,-0.12010699999999999
197,2.296398,-1.358724,0.5891109999999999,0.15746300000000002,0.9775969999999999,0.139674,-0.179952,-0.9278709999999999,1.641414,0.122322,-0.062069000000000006,-0.059459000000000005
198,2.211688,-1.331917,0.5225069999999999,0.189658,0.9716040000000001,0.14147200000000001,-0.21631399999999998,-0.9926530000000001,1.3570959999999999,0.254342,-0.06865,-0.032372000000000005
199,2.12926,-1.316278,0.455297,0.213524,0.967785,0.133412,0.568294,-0.769205,1.008709,0.12108599999999999,-0.12153199999999999,-0.082326
200,2.011447,-1.305661,0.347945,0.23700500000000002,0.9650569999999999,0.111766,1.1010010000000001,-0.696381,1.249482,-0.006323,-0.30302399999999996,-0.205623
201,1.8814990000000003,-1.2895379999999999,0.227712,0.264272,0.960707,0.084858,1.2823200000000001,-0.667349,1.291304,-0.128499,-0.181151,-0.193196
202,1.7717459999999998,-1.276082,0.123259,0.284618,0.956885,0.057976,1.140093,-0.379945,0.9374290000000001,-0.294689,0.096414,-0.101266
203,1.7071880000000001,-1.257126,0.061924,0.305683,0.951207,0.041953,0.569866,-0.292478,1.136296,-0.153232,-0.171178,-0.027549
204,1.664323,-1.238009,0.026158999999999998,0.32524699999999995,0.9451360000000001,0.030507999999999997,0.404177,-0.571233,0.927192,-0.129218,-0.254126,-0.0018670000000000002
205,1.624562,-1.222836,0.000283,0.340485,0.9400700000000001,0.018324,0.369635,-0.867492,0.7190270000000001,-0.099991,-0.311469,-0.006071
206,1.583521,-1.210467,-0.023065000000000002,0.35255,0.935781,0.0044859999999999995,0.38774699999999995,-1.0065680000000001,0.5847359999999999,0.028019,-0.261235,-0.062851
207,1.544484,-1.1995870000000002,-0.044348,0.362614,0.931889,-0.009543000000000001,0.371512,-0.8752629999999999,0.529975,0.070095,-0.24571700000000002,-0.039681
208,1.518712,-1.188289,-0.059682000000000006,0.372739,0.927732,-0.019431,0.253056,-0.37006,0.566956,0.14522100000000002,-0.179318,0.001884
209,1.512777,-1.175634,-0.063917,0.384307,0.922934,-0.022322,0.022788,0.0063880000000000004,0.665277,0.081102,-0.061804,0.036299
210,1.521074,-1.161363,-0.054047000000000005,0.397594,0.9173469999999999,-0.019786,-0.242733,-0.11872100000000001,0.746904,0.008106,0.029613999999999998,0.094615
211,1.527116,-1.146336,-0.041770999999999996,0.411434,0.9112610000000001,-0.017983000000000002,-0.114568,-0.315219,0.7576649999999999,-0.170452,0.384225,0.228829
212,1.512095,-1.132155,-0.050808,0.423975,0.90533,-0.024916999999999998,0.436436,-0.330488,0.635484,-0.24729299999999999,0.43987,0.18276900000000001
213,1.478241,-1.121639,-0.0814,0.432346,0.900813,-0.04013,0.806654,-0.350975,0.376381,-0.309314,0.44887200000000005,0.005005
214,1.4324290000000002,-1.114563,-0.11969500000000001,0.436357,0.897718,-0.060765999999999994,0.8901690000000001,-0.708448,0.189416,-0.15501500000000001,0.44038599999999994,-0.026269999999999998
215,1.38052,-1.108093,-0.158249,0.43831000000000003,0.894849,-0.08442100000000001,0.8847459999999999,-0.9439420000000001,0.211044,-0.070101,0.42459399999999997,0.002848
216,1.333708,-1.097366,-0.18921500000000002,0.44318500000000005,0.890009,-0.10708800000000002,0.714022,-0.9103680000000001,0.487546,0.328879,0.28383400000000003,0.0058920000000000005
217,1.310298,-1.0859530000000002,-0.197899,0.45034300000000005,0.884748,-0.12004100000000001,0.020458,-0.74369,0.43228199999999994,0.356389,0.522998,0.081589
218,1.312905,-1.086534,-0.177788,0.450157,0.885019,-0.118736,-0.687714,-0.742294,-0.101437,0.344505,0.45665600000000006,0.2219
219,1.335651,-1.0966120000000001,-0.142101,0.44404499999999997,0.8896649999999999,-0.10638299999999999,-1.025356,-0.165883,-0.36518,0.340471,0.323851,0.324416
220,1.380693,-1.111859,-0.102281,0.435012,0.896524,-0.083708,-1.018091,0.863491,-0.716825,0.207154,0.258048,0.369704
221,1.443067,-1.135124,-0.06465499999999999,0.418579,0.906586,-0.053757000000000006,-0.960995,1.7322009999999999,-1.159783,0.187302,0.21789499999999998,0.35485900000000004
222,1.518191,-1.161852,-0.031346,0.39708699999999997,0.9175409999999999,-0.020908000000000003,-0.665504,2.522215,-1.310419,0.180397,0.204346,0.280125
223,1.589857,-1.190347,-0.012408,0.371265,0.9284979999999999,0.007078,-0.239023,2.721861,-1.523477,-0.002552,0.14926099999999998,-0.154264
224,1.662132,-1.226661,0.011762,0.335972,0.941368,0.030772000000000004,-0.520656,2.215703,-2.039678,-0.137745,0.142983,-0.407344
225,1.77465,-1.269425,0.096312,0.290679,0.95493,0.060091,-1.2365389999999998,1.347322,-2.4388080000000003,-0.046447,0.14391600000000002,-0.24038800000000002
226,1.9372790000000002,-1.3080040000000002,0.24200300000000002,0.24252100000000001,0.9656680000000001,0.093085,-1.488208,0.985655,-2.3525080000000003,0.27084600000000003,0.087753,0.212579
227,2.136646,-1.332016,0.43394099999999997,0.199646,0.971627,0.126801,-1.5872469999999999,0.479437,-1.9476950000000002,0.461578,-0.260873,-0.007812999999999999
228,2.331771,-1.337409,0.62973,0.167475,0.9728889999999999,0.159487,-1.723124,0.126581,-1.501675,0.355734,-0.420887,-0.13380699999999998
229,2.529889,-1.328619,0.833556,0.137713,0.9708180000000001,0.196324,-2.014909,-0.065977,-1.5793110000000001,-0.131549,-0.174218,-0.240331
230,2.738266,-1.3068469999999999,1.043431,0.102393,0.965367,0.23995500000000003,-2.293304,0.5998600000000001,-1.8801419999999998,-0.138801,-0.061954999999999996,0.052862
231,2.930877,-1.2757,1.222181,0.060828999999999994,0.956774,0.284393,-2.146657,1.0941,-1.729132,-0.043144,-0.13630899999999999,0.048081
232,3.034396,-1.2382360000000001,1.318886,0.034929,0.94521,0.324585,-2.045244,0.256371,-0.913365,0.217833,-0.5199010000000001,-0.199952
233,3.088839,-1.201601,1.373557,0.019028,0.9326180000000001,0.36035900000000004,-1.790098,0.20268599999999998,-0.763031,0.192749,-0.6905979999999999,-0.12334400000000001
234,-3.140804,-1.17201,1.417965,-0.000306,0.921533,0.38829600000000003,-1.368509,0.918283,-0.795187,0.212083,-0.679513,-0.151281
235,-3.075669,-1.146841,1.457907,-0.027099,0.9114690000000001,0.41047100000000003,-1.179581,1.656898,-0.7873359999999999,0.13716099999999998,-0.137436,-0.031076999999999997
236,-3.009039,-1.126454,1.491583,-0.056813,0.9028930000000001,0.42608999999999997,-0.81645,1.7557189999999998,-0.773176,0.020085,-0.07425,-0.234104
237,-2.967463,-1.110272,1.509414,-0.07699500000000001,0.895819,0.43769399999999997,-0.738911,0.9418979999999999,-0.320801,-0.030167000000000003,-0.078193,-0.259898
238,-2.956721,-1.097957,1.508933,-0.083714,0.890279,0.44765200000000005,-0.401904,0.417864,-0.100927,-0.016063,-0.072621,-0.143377
239,-2.968204,-1.092194,1.498691,-0.079452,0.88764,0.45363000000000003,-0.350161,-0.419379,0.370525,-0.190262,-0.179998,-0.203096
240,-2.995325,-1.093676,1.47919,-0.066929,0.8883209999999999,0.454316,0.335041,-0.469164,0.50463,-0.229442,-0.27119499999999996,-0.080247
241,-3.020021,-1.1202940000000001,1.461825,-0.052804,0.900228,0.4322,1.9274349999999998,-0.49208999999999997,0.594831,-0.380866,-0.38924200000000003,-0.121623
242,-3.044696,-1.182023,1.444965,-0.036670999999999995,0.925375,0.377271,3.605399,-0.402652,0.749578,-0.39068200000000003,-0.561407,-0.110776
243,-3.075809,-1.2578280000000002,1.411235,-0.020239,0.9514239999999999,0.307212,3.5297419999999997,0.373069,1.0311350000000001,-0.160166,-0.41037799999999997,0.0066
244,3.123612,-1.304618,1.294485,0.004729,0.964783,0.262997,1.431242,1.9515470000000001,2.114722,0.386063,0.735626,0.37646799999999997
245,3.0018290000000003,-1.3398940000000001,1.164972,0.031881,0.97346,0.226617,2.751443,-1.515714,0.9191600000000001,1.1985729999999999,3.218556,-0.34439899999999996
246,2.832936,-1.387059,1.025467,0.055499,0.983168,0.174061,1.7366689999999998,-1.2038010000000001,0.78669,0.077909,0.343599,-0.218831
247,2.769434,-1.381876,0.9784879999999999,0.068285,0.982208,0.17493399999999998,-0.747364,-0.9952540000000001,0.33857800000000005,-0.21063400000000002,-0.637496,-0.029807
248,2.739686,-1.363968,0.9619549999999999,0.080327,0.9786870000000001,0.188986,-0.589758,-0.435963,0.7288640000000001,-0.243565,-0.66103,0.118433
249,2.6400349999999997,-1.3487870000000002,0.86587,0.10586199999999998,0.975457,0.193064,-0.08896,-0.267234,1.521562,-0.02998,-0.447137,0.060598
250,2.501624,-1.3291110000000002,0.730891,0.142923,0.970936,0.191973,0.08124400000000001,-0.399615,1.9779830000000003,0.37908000000000003,-0.244969,-0.047579
251,2.350127,-1.307609,0.587011,0.18507,0.965566,0.182838,0.5924010000000001,-0.770297,2.05894,0.630818,-0.072774,-0.10698599999999998
252,2.194055,-1.288657,0.440143,0.22605999999999998,0.960462,0.162501,1.027297,-0.546383,1.897185,0.41928000000000004,0.042529000000000004,0.0389
253,2.07254,-1.2747760000000001,0.313415,0.255757,0.9565049999999999,0.1403,1.237458,0.32966799999999996,1.3506,0.14585399999999998,0.023735,0.05341
254,1.971625,-1.2616889999999998,0.196681,0.280093,0.9526049999999999,0.11869500000000001,1.268661,0.470908,1.433959,-0.007708,-0.08770700000000001,-0.055447
255,1.8720009999999998,-1.239969,0.092182,0.310199,0.945774,0.096366,1.06036,-0.29739,1.67277,-0.298297,0.08659,-0.114203
256,1.803104,-1.207468,0.027811000000000002,0.345837,0.9347190000000001,0.081818,0.357744,-0.428005,1.911584,-0.498288,0.20283900000000002,-0.06636
257,1.7677330000000002,-1.178733,0.005734,0.374707,0.9241229999999999,0.074763,0.018369,-1.0063360000000001,1.113061,-0.342954,0.085658,-0.100489
258,1.7283849999999998,-1.166849,-0.006475,0.388178,0.919517,0.061684,0.23743499999999998,-1.58715,0.450901,-0.279001,-0.120399,-0.087547
259,1.6717990000000003,-1.160829,-0.032355,0.396545,0.917134,0.040188999999999996,0.6006090000000001,-1.615612,0.327424,-0.228088,-0.37566,-0.094419
260,1.607219,-1.156298,-0.07005399999999999,0.40246,0.9153190000000001,0.014665000000000001,0.781054,-1.4167459999999998,0.257923,-0.132913,-0.424703,-0.14210699999999998
261,1.5542790000000002,-1.151206,-0.10243800000000002,0.407327,0.913256,-0.006729000000000001,0.533129,-0.9846370000000001,0.30477600000000005,-0.068262,-0.406725,-0.106049
262,1.527427,-1.1411069999999999,-0.11624000000000001,0.41619300000000004,0.9090950000000001,-0.018061,0.166243,-0.631,0.630772,0.138052,-0.239906,-0.013418000000000001
263,1.506715,-1.125989,-0.11963499999999999,0.42939700000000003,0.902694,-0.027554000000000002,0.15734,-1.06503,0.754112,0.201645,-0.040236,0.174771
264,1.473225,-1.113509,-0.136166,0.43941199999999997,0.8972540000000001,-0.04301,0.56647,-0.7160810000000001,0.515104,0.07902,0.034463,0.195247
265,1.441435,-1.103086,-0.16510899999999998,0.44707299999999994,0.892603,-0.058159,0.7340270000000001,-0.11429,0.392658,-0.17738900000000002,0.315023,0.12946300000000002
266,1.415037,-1.0957780000000001,-0.193044,0.45181499999999997,0.889284,-0.070949,0.631538,-0.078029,0.20495700000000003,-0.183001,0.437986,0.174755
267,1.393533,-1.09125,-0.21530100000000002,0.45414399999999994,0.8872040000000001,-0.081357,0.48248900000000006,-0.099511,0.112076,-0.150052,0.457217,0.206067
268,1.376067,-1.0869950000000002,-0.22991,0.45635299999999995,0.885233,-0.09000599999999999,0.308344,-0.330313,0.172044,0.113639,0.417242,0.15925
269,1.3631280000000001,-1.082311,-0.234781,0.459203,0.8830450000000001,-0.09675700000000001,0.058103999999999996,-0.386202,0.246211,0.25033,0.40168400000000004,0.137101
270,1.366751,-1.078437,-0.226359,0.462897,0.8812200000000001,-0.09578500000000001,-0.288217,-0.17041199999999998,0.129216,0.27669699999999997,0.471487,0.059301
271,1.37148,-1.085789,-0.20982399999999998,0.45698199999999994,0.8846719999999999,-0.092309,-0.5544100000000001,-0.6889069999999999,-0.511844,0.07606900000000001,0.45325,0.217203
272,1.385364,-1.102168,-0.18078,0.443916,0.8921889999999999,-0.083273,-0.9831690000000001,-0.406354,-0.736323,0.109306,0.346886,0.23701999999999998
273,1.430164,-1.1237700000000002,-0.134573,0.428015,0.9017360000000001,-0.060592999999999994,-1.263686,0.544801,-0.9916010000000001,0.144571,0.267255,0.22195399999999998
274,1.503344,-1.147936,-0.07794,0.409433,0.911919,-0.027658999999999996,-1.339593,1.351912,-1.099988,0.361822,0.060936000000000004,0.25957800000000003
275,1.594013,-1.170426,-0.013956,0.38965,0.920917,0.009048,-1.232406,1.707311,-1.092217,0.382979,0.1078,0.110489
276,1.679037,-1.193067,0.041054,0.36664800000000003,0.9295049999999999,0.039842,-0.802583,1.686493,-1.3199239999999999,0.306952,0.092941,0.016371
277,1.759469,-1.2249649999999999,0.088542,0.332959,0.940794,0.063577,-0.487142,1.933977,-1.944016,0.0021550000000000002,-0.060225,-0.06443099999999999
278,1.860227,-1.268415,0.14806,0.285403,0.95463,0.084991,-0.409826,2.394195,-2.547611,0.001401,0.040136,-0.012619
279,2.012466,-1.3155379999999999,0.258868,0.22826100000000002,0.967598,0.107927,-0.719969,1.991426,-2.787475,0.16811600000000002,0.289009,-0.012392
280,2.201127,-1.346999,0.434465,0.17928,0.9750620000000001,0.130806,-1.124026,0.181035,-2.049836,0.355831,0.058904,-0.177208
281,2.376843,-1.352362,0.625527,0.150029,0.9762379999999999,0.156357,-1.595024,-0.7444390000000001,-1.4387809999999999,0.236308,-0.397426,-0.279633
282,2.586459,-1.340903,0.848295,0.120098,0.973691,0.19364800000000001,-2.181483,-0.025306,-1.7471740000000002,-0.022625,-0.419278,-0.084242
283,2.823571,-1.319294,1.069232,0.077813,0.96854,0.23637399999999997,-1.962361,1.6975580000000001,-2.0149060000000003,-0.094476,-0.175067,0.246475
284,3.0195119999999998,-1.287431,1.239818,0.034047,0.9601200000000001,0.277501,-2.0528060000000004,1.4066370000000001,-1.64556,0.088268,-0.146231,0.10184800000000001
285,3.121909,-1.249096,1.328535,0.006222999999999999,0.948699,0.316112,-1.9528459999999999,0.605595,-0.945219,0.295901,-0.33908,-0.17004
286,-3.1088270000000002,-1.210491,1.374629,-0.01155,0.935789,0.352365,-1.899735,0.48647799999999997,-0.773779,0.32963400000000004,-0.43528599999999995,-0.263834
287,-3.056755,-1.172007,1.4143809999999999,-0.032902999999999995,0.921532,0.386902,-1.8790669999999998,0.9480790000000001,-0.875708,0.30817100000000003,-0.38069899999999995,-0.101837
288,-2.997733,-1.133233,1.4507780000000001,-0.060747,0.9057870000000001,0.41935100000000003,-1.8410419999999998,1.458682,-0.992532,0.307192,-0.229121,0.008094
289,-2.93898,-1.094007,1.481653,-0.092349,0.888473,0.449536,-1.800213,1.539433,-0.975259,0.158023,-0.21559099999999998,-0.10209299999999999
290,-2.8881,-1.058992,1.504804,-0.122822,0.871862,0.474096,-1.423985,1.462453,-0.9650549999999999,0.055590999999999995,-0.171621,-0.250844
291,-2.84891,-1.030982,1.522024,-0.148292,0.8578040000000001,0.49211400000000005,-1.047317,1.075317,-0.648939,0.053032,-0.179856,-0.260806
292,-2.825193,-1.0157450000000001,1.530878,-0.163969,0.849874,0.5008229999999999,-0.631664,0.61652,-0.295071,-0.090487,-0.17574,-0.157256
293,-2.826955,-1.000035,1.5207389999999998,-0.167198,0.84149,0.513746,-0.8892969999999999,0.20455399999999999,0.12026400000000001,0.019157,-0.166746,0.016558
294,-2.840812,-0.9872270000000001,1.5036530000000001,-0.163243,0.834501,0.526265,-0.672711,-0.170399,0.458747,-0.22291100000000003,-0.290495,-0.11096700000000001
295,-2.876302,-0.983348,1.468266,-0.145315,0.832357,0.5348470000000001,-0.23868699999999998,-0.37546999999999997,1.0153809999999999,-0.13706400000000002,-0.20429,-0.0044659999999999995
296,-2.920897,-0.992799,1.427925,-0.1196,0.837559,0.533093,0.474829,-0.638944,1.283485,-0.105895,-0.22931300000000002,0.0219
297,-2.972457,-1.0181639999999998,1.38437,-0.088361,0.851146,0.517436,1.3515620000000002,-0.786399,1.434008,-0.187533,-0.21564699999999998,0.045385
298,-3.024565,-1.062035,1.341166,-0.056873,0.8733489999999999,0.48376,2.460948,-0.681236,1.34655,-0.342907,-0.266125,0.0062759999999999995
299,-3.0646619999999998,-1.123226,1.299102,-0.033261,0.901501,0.43149099999999996,2.9665049999999997,0.535315,1.173334,-0.01601,0.252353,1.159986
300,-3.05567,-1.1773049999999998,1.2686469999999999,-0.032902999999999995,0.9235760000000001,0.381995,2.724693,2.286053,0.462239,0.166418,1.23806,0.26079600000000003
301,-3.033586,-1.226675,1.28112,-0.036367000000000003,0.941372,0.335396,2.2046799999999998,-1.0277040000000002,0.567539,0.596608,1.807437,-0.13455999999999999
302,-3.115168,-1.2577180000000001,1.202967,-0.008137,0.95139,0.307874,1.124295,0.129583,1.403473,0.320546,-0.44547,-0.124997
303,3.09117,-1.27518,1.122773,0.014683000000000002,0.956623,0.290952,0.778133,-0.129598,1.250768,0.139843,-0.49271000000000004,-0.102064
304,2.969955,-1.285258,1.001483,0.048108,0.9595100000000001,0.27752899999999997,0.7272609999999999,-0.353616,1.904451,-0.029126,-0.488487,0.047972
305,2.812464,-1.294504,0.8458690000000001,0.08816900000000001,0.962074,0.258143,1.116435,-0.36685300000000004,1.946711,0.225658,-0.16403900000000002,0.121465
306,2.650788,-1.302224,0.681979,0.125069,0.964151,0.234026,1.317401,-0.199673,1.7898040000000002,0.31964899999999996,0.048835,0.060072
307,2.482447,-1.3113569999999999,0.519928,0.157111,0.966534,0.202793,1.605518,-0.8084680000000001,1.404832,0.5235380000000001,0.064472,0.033047
308,2.310139,-1.317927,0.35679099999999997,0.184858,0.968198,0.168569,1.6104399999999999,-0.515173,1.314759,0.41401800000000005,-0.0038280000000000002,0.077189
309,2.148676,-1.310482,0.191445,0.215585,0.966309,0.140592,1.366322,0.15842,1.7074330000000002,0.28888600000000003,0.009184999999999999,0.081088
310,2.003716,-1.296951,0.034306,0.245481,0.9627379999999999,0.113451,1.590373,0.30490700000000004,1.3776620000000002,0.108874,0.05275,0.045713
311,1.871866,-1.290907,-0.108073,0.263818,0.9610860000000001,0.08191799999999999,1.7367290000000002,0.247058,0.799782,-0.031442000000000005,-0.222973,0.078452
312,1.748904,-1.286758,-0.24206,0.27579699999999996,0.959931,0.049648000000000005,1.7723349999999998,0.35859,0.584105,-0.278956,-0.448854,0.093434
313,1.623757,-1.280374,-0.382006,0.285952,0.958123,0.015159,2.095328,0.49928900000000004,0.5498609999999999,-0.24112199999999998,-0.6186149999999999,-0.023032
314,1.482666,-1.268709,-0.545814,0.296356,0.9547180000000001,-0.026186,2.502358,1.049866,0.506065,-0.23187199999999997,-0.601065,-0.08885
315,1.376306,-1.2515319999999999,-0.6887409999999999,0.307946,0.9494670000000001,-0.060659000000000005,2.05539,1.633744,0.600471,-0.17933,-0.410282,-0.333216
316,1.325769,-1.2323959999999998,-0.769215,0.32205900000000004,0.9432870000000001,-0.08053099999999999,1.0786149999999999,0.850749,0.6523359999999999,-0.15139,-0.179478,-0.533177
317,1.294399,-1.218512,-0.796556,0.331944,0.9385870000000001,-0.094159,0.449146,-0.9829030000000001,0.477236,-0.144154,-0.016559,-0.519291
318,1.242713,-1.208706,-0.813941,0.335334,0.935158,-0.11414200000000001,0.5112270000000001,-2.040324,0.324133,-0.058829,0.010398000000000001,-0.1578
319,1.177929,-1.200803,-0.8484659999999999,0.334059,0.9323299999999999,-0.13843699999999998,0.782546,-1.100407,0.0032890000000000003,0.06485199999999999,0.22569,0.472925
320,1.141946,-1.198484,-0.890443,0.330827,0.9314889999999999,-0.151264,0.730634,0.8471209999999999,-0.268761,0.191328,0.3246,0.679478
321,1.1244889999999998,-1.195411,-0.9359049999999999,0.330717,0.930366,-0.158251,0.871817,1.271239,-0.15936,0.27769699999999997,0.212883,0.278063
322,1.109317,-1.191139,-0.978225,0.331834,0.9287920000000001,-0.165018,0.689048,1.18882,-0.169077,0.12324500000000001,-0.019047,0.055308
323,1.107064,-1.189665,-1.003342,0.332685,0.9282440000000001,-0.166378,0.314093,0.902273,-0.11364500000000001,-0.077802,-0.11438599999999999,-0.055728999999999994
324,1.1055270000000001,-1.188836,-1.016643,0.333117,0.9279360000000001,-0.167234,0.255802,0.33339,-0.05670700000000001,-0.177385,-0.09471399999999999,-0.016848
325,1.091134,-1.18608,-1.038051,0.332943,0.926905,-0.173191,0.521672,0.354939,-0.081583,-0.19099000000000002,-0.021174000000000002,0.261646
326,1.0733030000000001,-1.182925,-1.071948,0.33237,0.925716,-0.18049400000000002,0.691978,0.8576440000000001,-0.202815,-0.09208999999999999,-0.023983,0.354811
327,1.0560610000000001,-1.1792559999999999,-1.110311,0.332163,0.924322,-0.187869,0.7239260000000001,0.8723350000000001,-0.174837,-0.018702,-0.011281999999999999,0.219592
328,1.0431489999999999,-1.174965,-1.143751,0.33313400000000004,0.922676,-0.19413699999999998,0.604534,0.958779,-0.11062000000000001,0.018017,0.014702000000000002,0.095367
329,1.052937,-1.171705,-1.166967,0.33763000000000004,0.921414,-0.192355,0.421675,2.090585,-0.072755,0.039369,-0.051404,0.051822
330,1.050977,-1.162531,-1.213876,0.344574,0.917811,-0.197207,1.359805,1.517132,-0.003511,0.10266099999999999,0.018819,-0.044461
331,1.029742,-1.152142,-1.247462,0.348464,0.913637,-0.209379,0.45437799999999995,0.115533,0.17249,0.058274,-0.072877,0.16239800000000001
332,1.034237,-1.146292,-1.244304,0.353989,0.911243,-0.21053899999999998,0.00487,0.195297,0.328413,0.058288,0.027172,0.209853
333,1.0438610000000001,-1.1384299999999998,-1.2488569999999999,0.36218,0.907977,-0.21071900000000002,0.521288,1.032361,0.208102,0.128146,0.144925,0.129405
334,1.042481,-1.131033,-1.286941,0.36768,0.904852,-0.21459899999999998,1.024974,2.024221,-0.250054,0.34380700000000003,0.165353,0.140167
335,1.048568,-1.129146,-1.3326069999999999,0.37045900000000004,0.9040469999999999,-0.21320799999999998,0.715341,2.436429,-0.500572,0.303674,0.41802,0.052945000000000006
336,1.06413,-1.1383889999999999,-1.363643,0.36640900000000004,0.90796,-0.203354,0.159401,2.0605599999999997,-0.8607600000000001,0.14616400000000002,0.515029,0.122741
337,1.0895299999999999,-1.157126,-1.387181,0.356311,0.915652,-0.186073,-0.10126900000000001,2.6389650000000002,-1.157083,0.04295,0.46197299999999997,0.186333
338,1.135401,-1.182941,-1.4076879999999998,0.342918,0.9257219999999999,-0.15951400000000002,-0.28776799999999997,3.5814239999999997,-1.45015,-0.022346,0.057905,0.223388
339,1.209101,-1.217869,-1.415645,0.32328,0.938365,-0.12230999999999999,-0.750289,4.303469000000001,-1.7950689999999998,-0.02935,-0.052943,0.25506100000000004
340,1.3312,-1.26099,-1.379054,0.296164,0.952392,-0.072349,-1.460925,4.232648999999999,-1.850148,0.166101,0.055175999999999996,0.336677
341,1.482219,-1.293347,-1.2966010000000001,0.272828,0.961757,-0.02423,-1.328023,3.251113,-1.062819,0.668014,0.043644,0.09350499999999999
342,1.619442,-1.30364,-1.214029,0.26367399999999996,0.964526,0.012837000000000001,-1.040404,2.618016,-0.166965,0.774107,-0.228487,-0.196507
343,1.7415880000000001,-1.295279,-1.138837,0.268084,0.9622850000000001,0.046237,-1.032818,2.6173599999999997,0.522092,0.848691,-0.42606000000000005,-0.098819
344,1.861961,-1.284621,-1.0826040000000001,0.270402,0.9593299999999999,0.081035,-0.71473,3.8495790000000003,0.05699,0.31999099999999997,-0.301661,-0.035792000000000004
345,1.984072,-1.2913649999999999,-1.047757,0.25258600000000003,0.9612120000000001,0.110767,-0.125052,4.643304,-0.743211,0.140465,-0.193772,-0.119831
346,2.100545,-1.309235,-1.0197180000000001,0.22314299999999998,0.965987,0.130668,0.137258,4.315474,-1.038993,-0.00624,-0.018813,-0.224281
347,2.227792,-1.328506,-0.9737790000000001,0.189979,0.970791,0.146531,-0.007031999999999999,4.077017,-1.221293,-0.044135,0.26918400000000003,-0.153977
348,2.400787,-1.347241,-0.875566,0.149618,0.975115,0.16359400000000002,-0.361657,3.6375599999999997,-1.571447,-0.109854,0.226179,-0.13208499999999998
349,2.6038930000000002,-1.3525639999999999,-0.726837,0.110883,0.976282,0.18595,-0.9827040000000001,2.4339049999999998,-1.326415,-0.33137300000000003,-0.130166,-0.066169
350,2.750903,-1.3360809999999999,-0.607418,0.08856599999999999,0.9725809999999999,0.215038,-1.5416889999999999,0.9155139999999999,-0.483411,-0.32309299999999996,-0.371247,0.068333
351,2.803025,-1.311381,-0.5614239999999999,0.08519700000000001,0.96654,0.24195,-1.036604,0.366165,0.060274,-0.160545,-0.400439,0.137322
352,2.824249,-1.302188,-0.561772,0.082812,0.964141,0.252136,-0.11873900000000001,1.5649620000000002,0.239269,-0.163684,-0.5214840000000001,-0.08906499999999999
353,2.82672,-1.300773,-0.597396,0.082611,0.963765,0.25363600000000003,0.11665899999999998,1.854516,0.617624,-0.170594,-0.42191000000000006,-0.155263
354,2.792368,-1.299173,-0.6653720000000001,0.091801,0.9633370000000001,0.25209699999999996,0.28628600000000004,1.325976,1.0435709999999998,-0.162373,-0.37421,-0.15058
355,2.717244,-1.295844,-0.761204,0.111783,0.9624379999999999,0.247419,0.365683,0.570149,1.377311,-0.21265900000000001,-0.354879,0.105181
356,2.604129,-1.293148,-0.881907,0.140324,0.9617030000000001,0.235448,0.90281,-0.051537,1.601913,-0.273457,-0.361773,0.21357199999999998
357,2.447266,-1.298856,-1.048928,0.171868,0.963251,0.206414,1.9174669999999998,0.49542299999999995,1.6691880000000001,-0.373681,-0.342585,0.390067
358,2.284996,-1.312418,-1.2332,0.19306800000000002,0.9668059999999999,0.167363,2.2634819999999998,0.9724950000000001,0.88051,-0.515441,0.405082,0.22489499999999998
359,2.172062,-1.344714,-1.378952,0.184846,0.9745520000000001,0.126803,2.45052,1.609777,-0.9392510000000001,-0.481232,0.7008939999999999,0.110303
360,2.070791,-1.4015600000000001,-1.506089,0.147809,0.985714,0.080747,2.497215,0.74775,-1.98895,-0.37852199999999997,0.9535870000000001,0.042513
361,1.935758,-1.435076,-1.632909,0.126391,0.9908040000000001,0.048291,0.775054,-0.9276770000000001,-0.29501900000000003,0.523008,1.263056,0.614841
362,1.898151,-1.4052149999999999,-1.65116,0.15607000000000001,0.986323,0.052997,-0.782922,-1.080393,2.479149,1.064175,0.762045,-0.008518000000000001
363,1.8648369999999999,-1.344468,-1.662151,0.214767,0.974497,0.065035,-0.686854,-1.011608,2.776696,1.00055,0.26282300000000003,-0.095126
364,1.818066,-1.305919,-1.7131029999999998,0.253825,0.965125,0.064075,0.658557,1.105319,1.555994,0.54865,-0.89884,-0.206866
365,1.753465,-1.2940969999999998,-1.839807,0.26863400000000004,0.9619620000000001,0.049624,1.9693599999999998,3.712024,0.693346,0.294369,-0.9342370000000001,-0.33873200000000003
366,1.663398,-1.2858559999999999,-2.019343,0.279893,0.959678,0.025993000000000002,2.606312,4.13094,0.874583,0.090316,-0.9462809999999999,-0.399726
367,1.560693,-1.262694,-2.203205,0.303234,0.9529110000000001,-0.003064,2.479003,3.302018,1.55094,0.272541,-0.542434,-0.29108
368,1.516426,-1.226351,-2.306885,0.337175,0.941263,-0.01835,1.2411299999999998,2.218021,1.7113939999999999,0.150404,0.145346,-0.513785
369,1.489057,-1.202357,-2.354388,0.358956,0.932891,-0.029406,0.902775,-0.031843,0.67467,-0.15397,0.901597,-0.514798
370,1.4361959999999998,-1.197548,-2.397227,0.361342,0.931148,-0.048933,0.700786,-0.566307,-0.024673,-0.531875,0.803609,0.189023
371,1.407222,-1.194156,-2.442278,0.362887,0.929905,-0.059894,1.008661,1.399507,0.145874,-0.510195,0.057415,0.385944
372,1.376702,-1.187662,-2.510194,0.366807,0.9274979999999999,-0.072103,1.419673,1.541439,-0.00633,-0.190858,-0.102852,0.076543
373,1.338427,-1.182993,-2.5825270000000002,0.36799,0.925742,-0.08708300000000001,1.2975860000000001,1.416252,-0.029455000000000002,0.131522,-0.16506099999999999,-0.052535000000000005
374,1.312529,-1.175662,-2.638309,0.372164,0.9229450000000001,-0.098313,1.037023,1.108407,0.19130999999999998,0.079207,-0.239427,-0.198745
375,1.2802950000000002,-1.163807,-2.684059,0.379258,0.918317,-0.113383,1.018818,0.090391,0.376222,-0.141511,-0.149274,-0.250128
376,1.238718,-1.152182,-2.721692,0.384285,0.913653,-0.13252,0.775948,-0.407941,0.266205,-0.433174,0.134366,0.262235
377,1.222596,-1.14554,-2.748966,0.387795,0.910933,-0.140766,0.642317,0.984618,0.055184000000000004,-0.31733,0.180757,0.340366
378,1.218975,-1.140292,-2.7812810000000003,0.39176500000000003,0.908755,-0.143815,0.729152,1.272111,0.012693000000000001,-0.20309000000000002,0.047849,0.108002
379,1.209611,-1.1359780000000002,-2.811228,0.394065,0.9069459999999999,-0.148861,0.620897,0.632474,-0.041723,-0.240852,0.009634,-0.09776699999999999
380,1.193597,-1.133083,-2.8371049999999998,0.394071,0.905723,-0.156119,0.535085,0.28127800000000003,-0.053622,-0.292249,0.017983000000000002,0.042685
381,1.177622,-1.1279780000000001,-2.860973,0.39579200000000003,0.9035479999999999,-0.164163,0.616567,0.30268,0.117835,-0.22733499999999998,0.104066,0.269784
382,1.1593870000000002,-1.117839,-2.8881080000000003,0.401109,0.899157,-0.175007,0.805616,0.297013,0.305033,-0.036592,0.090986,0.257252
383,1.140131,-1.103688,-2.91423,0.40918699999999997,0.892874,-0.18799200000000002,0.79569,0.15151099999999998,0.469656,0.07370800000000001,0.168237,0.165241
384,1.127435,-1.08768,-2.93135,0.419626,0.885552,-0.199277,0.614696,0.120754,0.592345,0.078528,0.246238,0.18411
385,1.122824,-1.07315,-2.940468,0.430256,0.878708,-0.206762,0.46285299999999996,0.214234,0.523867,0.12215799999999999,0.353851,0.24964
386,1.12364,-1.059807,-2.9505779999999997,0.440957,0.8722610000000001,-0.21146199999999998,0.551628,0.697724,0.483275,0.213706,0.576012,0.116721
387,1.129246,-1.0485229999999999,-2.9649099999999997,0.451006,0.8666870000000001,-0.21318,0.496198,0.915248,0.213417,0.171598,0.6098899999999999,0.040481
388,1.1403370000000002,-1.0476020000000001,-2.9716650000000002,0.454068,0.8662270000000001,-0.208498,-0.012492,0.894817,-0.09669,0.21994299999999997,0.5520470000000001,0.111223
389,1.173317,-1.051456,-2.961633,0.457614,0.8681469999999999,-0.192118,-0.45495699999999994,1.4757049999999998,-0.05779600000000001,0.419217,0.562334,0.176813
390,1.227264,-1.059555,-2.945497,0.460672,0.872138,-0.16479000000000002,-0.517939,2.28171,-0.43314600000000003,0.304908,0.578164,0.074839
391,1.294543,-1.0779590000000001,-2.932591,0.455187,0.880994,-0.129046,-0.677325,3.108818,-0.9405879999999999,0.084104,0.297946,0.092425
392,1.390994,-1.105238,-2.899696,0.441684,0.8935709999999999,-0.08028300000000001,-1.2439280000000001,3.4456599999999997,-1.301764,0.163892,0.149825,0.179602
393,1.498797,-1.138067,-2.851889,0.41826199999999997,0.907825,-0.030167000000000003,-1.115461,3.020253,-1.588741,0.212628,0.186093,0.1241
394,1.584745,-1.1712770000000001,-2.816585,0.388936,0.921248,0.005425999999999999,-0.522839,2.575359,-1.6673529999999999,0.176585,0.126298,0.06594
395,1.646622,-1.207905,-2.804319,0.353957,0.934874,0.026891,0.044547,2.471246,-1.963427,0.158662,0.002046,0.126033
396,1.701532,-1.252897,-2.797559,0.30990300000000004,0.949894,0.040748,0.051736000000000004,2.4336189999999998,-2.416254,0.24524200000000002,0.183727,0.228356
397,1.810875,-1.296886,-2.733972,0.262738,0.96272,0.064318,-0.9126350000000001,2.306768,-2.092747,0.44899300000000003,-0.149839,-0.017291
398,1.977298,-1.311819,-2.59346,0.235222,0.9666520000000001,0.101258,-1.837192,0.9757629999999999,-0.907501,0.436058,-0.253212,-0.213273
399,2.1724810000000003,-1.302906,-2.404046,0.21821,0.9643309999999999,0.149826,-2.685886,0.67491,-0.859632,0.112692,-0.218146,-0.212128
400,2.418334,-1.2797,-2.173441,0.189945,0.95793,0.21515,-3.3408160000000002,1.4777129999999998,-1.518988,-0.08089099999999999,-0.034956,-0.232118
401,2.671495,-1.249599,-1.941857,0.143003,0.948858,0.281453,-2.969621,1.64037,-2.289996,-0.098966,-0.000509,0.172206
402,2.865986,-1.221454,-1.7681419999999999,0.093144,0.9395979999999999,0.329359,-1.984823,1.337067,-1.887486,-0.09804199999999999,-0.103248,0.22522199999999998
403,2.968594,-1.194843,-1.67481,0.063201,0.930158,0.36167699999999997,-1.568829,0.485378,-1.050276,0.038132,-0.457639,-0.000898
404,3.027133,-1.165923,-1.620506,0.044987,0.9191520000000001,0.391323,-1.6453259999999998,0.44052299999999994,-0.6896939999999999,0.103572,-0.47292399999999996,-0.110805
405,3.071448,-1.133773,-1.586325,0.029664,0.9060159999999999,0.4222,-1.6590029999999998,0.746311,-0.425262,0.088577,-0.429896,-0.176625
406,3.0991560000000002,-1.105774,-1.57186,0.019024,0.893812,0.448036,-1.192036,0.708429,-0.14848699999999998,0.002689,-0.313444,-0.26055100000000003
407,3.107103,-1.089372,-1.579019,0.015967,0.886336,0.462765,-0.57414,0.7055899999999999,0.291667,-0.080863,-0.216948,-0.32374200000000003
408,3.093911,-1.078114,-1.598657,0.022543999999999998,0.881067,0.472451,-0.524437,0.017929,0.6539550000000001,-0.096275,-0.21090100000000003,-0.26500799999999997
409,3.064028,-1.0702479999999999,-1.629842,0.037186000000000004,0.8773200000000001,0.47846099999999997,-0.20824299999999998,-0.226629,0.79855,-0.111054,-0.20144700000000001,-0.216758
410,3.026618,-1.072041,-1.6654900000000001,0.054875,0.878178,0.47517299999999996,0.46550600000000003,-0.29946300000000003,0.8460790000000001,-0.24236,-0.26093,-0.121779
411,2.988844,-1.09538,-1.704098,0.069643,0.8891020000000001,0.45237700000000003,1.896616,-0.180036,0.6422770000000001,-0.352663,-0.267246,-0.162277
412,2.9484369999999998,-1.152261,-1.7471439999999998,0.078015,0.9136850000000001,0.398862,3.334333,0.305379,0.283161,-0.465344,-0.362462,0.338305
413,2.917545,-1.210391,-1.801273,0.078351,0.9357540000000001,0.343837,2.6766099999999997,1.319072,0.6992149999999999,0.203372,-0.182473,0.574162
414,2.817723,-1.2416559999999999,-1.924225,0.10286300000000001,0.946321,0.30642199999999997,2.054362,-0.168504,1.8825009999999998,0.6003539999999999,0.42948800000000004,-0.035045
415,2.638893,-1.267722,-2.090596,0.143793,0.9544229999999999,0.26153000000000004,2.2208799999999997,-1.252918,1.729093,0.6422640000000001,0.693968,-0.341502
416,2.471684,-1.280614,-2.2450759999999996,0.17765799999999998,0.958192,0.224286,1.4278170000000001,-0.6811659999999999,1.426924,0.227386,0.111846,-0.182035
417,2.372002,-1.27291,-2.346321,0.204228,0.955959,0.21078899999999998,0.239177,0.16272899999999998,1.3427639999999998,0.09421900000000001,-0.028988,-0.094913
418,2.333141,-1.249351,-2.3963,0.22849099999999997,0.94878,0.218191,-0.495658,0.494306,1.377799,0.143091,0.108654,0.034372
419,2.3053470000000003,-1.226214,-2.430254,0.250692,0.941217,0.226412,-0.204263,0.022438,1.113383,0.254846,0.06969299999999999,0.071531
420,2.25487,-1.213646,-2.482198,0.270944,0.936897,0.220933,0.569154,-0.046099,1.0654620000000001,0.23349699999999998,-0.12453399999999999,-0.059877
421,2.182168,-1.2075280000000002,-2.561321,0.290964,0.9347409999999999,0.203955,1.075072,0.072228,1.1393469999999999,0.064703,-0.199206,-0.088415
422,2.095081,-1.196716,-2.657152,0.316332,0.930844,0.182924,1.191138,0.196931,1.554468,-0.044145,-0.157376,-0.097551
423,2.01118,-1.176434,-2.758883,0.347558,0.923242,0.163786,1.230312,0.701455,1.890585,-0.096474,-0.020135,-0.12620399999999998
424,1.936641,-1.150396,-2.8522529999999997,0.381115,0.912925,0.146001,1.154064,0.328971,1.865961,-0.14396199999999998,0.21991799999999997,-0.158025
425,1.8641159999999999,-1.129328,-2.925726,0.409016,0.904125,0.12353599999999999,1.115319,-0.614318,1.231307,-0.255726,0.42978299999999997,-0.173203
426,1.796745,-1.118689,-2.979079,0.425756,0.8995290000000001,0.09787,0.800218,-1.0858079999999999,0.599459,-0.399434,0.36853800000000003,-0.18096900000000002
427,1.760243,-1.110534,-2.993934,0.436234,0.8959360000000001,0.083646,-0.088224,-1.168418,0.45021700000000003,-0.29635700000000004,-0.082505,-0.087949
428,1.744982,-1.099713,-2.9836009999999997,0.446982,0.891077,0.07865499999999999,-0.380436,-1.3083040000000001,0.520995,-0.18093,-0.345636,-0.075862
429,1.7194349999999998,-1.087806,-2.976907,0.45930600000000005,0.88561,0.06877799999999999,-0.127642,-1.738723,0.579928,-0.137376,-0.420537,-0.077262
430,1.67566,-1.076838,-2.98579,0.471509,0.8804629999999999,0.049625999999999997,0.291865,-1.711336,0.5603899999999999,-0.097012,-0.404068,-0.057835000000000004
431,1.636562,-1.066511,-3.0030799999999997,0.48213599999999995,0.8755200000000001,0.031754000000000004,0.340614,-0.837968,0.557475,-0.016544,-0.361177,0.008057
432,1.622044,-1.053977,-3.011683,0.493467,0.869395,0.025311,0.082739,-0.157969,0.692603,0.045382,-0.21752399999999997,0.125782
433,1.6143100000000001,-1.039423,-3.0189880000000002,0.506236,0.8621120000000001,0.022042,0.263389,-0.039456,0.735374,0.015553999999999998,0.080515,0.230094
434,1.5922370000000001,-1.0258559999999999,-3.041932,0.518246,0.855158,0.011113,0.725909,-0.22613200000000003,0.664068,-0.187314,0.493734,0.049953
435,1.5556729999999999,-1.015696,-3.073662,0.5269659999999999,0.8498479999999999,-0.00797,0.8405879999999999,-0.6057939999999999,0.40471,-0.26176900000000003,0.512854,0.08049500000000001
436,1.521819,-1.008426,-3.0975650000000003,0.532552,0.845994,-0.026104000000000002,0.487504,-0.654384,0.341417,-0.307531,0.325912,0.13758499999999999
437,1.504337,-1.002257,-3.106214,0.537211,0.8426889999999999,-0.035755,0.132476,-0.44296199999999997,0.258549,0.062749,0.33692300000000003,0.134129
438,1.496717,-0.997036,-3.106579,0.541304,0.839866,-0.040173,-0.012128,-0.31788299999999997,0.273402,0.197115,0.356133,0.085537
439,1.490258,-0.9937889999999999,-3.1043,0.543748,0.8380989999999999,-0.043887999999999996,-0.083675,-0.5829439999999999,0.021141999999999998,0.203612,0.5946100000000001,-0.0017670000000000001
440,1.479792,-0.9997719999999999,-3.095648,0.538255,0.841348,-0.049119,-0.427166,-0.9997450000000001,-0.41014799999999996,0.24020300000000003,0.414191,0.116975
441,1.488384,-1.009275,-3.0659099999999997,0.5306649999999999,0.8464459999999999,-0.043833,-1.079739,-0.617424,-0.348967,0.261479,0.35056,0.172525
442,1.5290709999999998,-1.01845,-3.015703,0.524227,0.8512959999999999,-0.021886000000000003,-1.487243,0.210119,-0.48426499999999995,0.174763,0.238868,0.270864
443,1.595921,-1.034126,-2.954772,0.5111140000000001,0.859416,0.012844,-1.583914,1.083487,-0.8930520000000001,0.181314,0.186406,0.331944
444,1.677097,-1.050694,-2.898745,0.494162,0.867768,0.052729,-1.099631,1.9704139999999999,-0.9346030000000001,0.118921,0.341109,0.320242
445,1.747756,-1.074083,-2.874299,0.469095,0.8791540000000001,0.083888,-0.096559,2.675312,-1.458338,0.007956,0.229275,0.056614
446,1.8100759999999998,-1.113864,-2.867032,0.428625,0.89741,0.104565,0.375741,2.917923,-2.331292,-0.041083,0.18157,0.006275
447,1.892952,-1.168281,-2.841084,0.371579,0.9200790000000001,0.124027,0.083741,2.860656,-2.941076,-0.059536,0.037913999999999996,-0.20860599999999999
448,2.012137,-1.2194559999999999,-2.7584720000000003,0.311177,0.9389120000000001,0.147006,-0.8709030000000001,1.57146,-2.859566,0.096294,0.029089999999999998,-0.18792999999999999
449,2.1753549999999997,-1.240192,-2.601859,0.267075,0.945846,0.18450899999999998,-2.205775,0.33669899999999997,-1.677309,0.237777,-0.063614,-0.153701
450,2.307432,-1.225067,-2.451593,0.25101799999999996,0.9408290000000001,0.227658,-2.4315919999999998,-0.95765,-0.674167,0.387135,-0.525988,-0.30679
451,2.4065,-1.199401,-2.32211,0.243389,0.9318219999999999,0.26919699999999996,-2.615215,-0.932823,-0.8624209999999999,0.160603,-0.42168999999999995,-0.188172
452,2.545301,-1.170231,-2.172133,0.21898,0.920841,0.322642,-3.041433,0.5949399999999999,-1.596951,0.033569,-0.17186300000000002,-0.0009570000000000001
453,2.711941,-1.138744,-2.016557,0.174425,0.908108,0.380673,-2.6886,1.435223,-2.113651,0.024581,-0.16538699999999998,0.029177999999999996
454,2.8463439999999998,-1.115026,-1.8982580000000002,0.128074,0.8979219999999999,0.42110600000000004,-1.573839,1.28609,-1.749955,0.106224,-0.333866,-0.09740599999999999
455,2.93451,-1.101429,-1.8239419999999997,0.092999,0.891855,0.442655,-0.867577,0.9826219999999999,-1.331231,0.133411,-0.41919799999999996,-0.236127
456,3.011922,-1.091697,-1.759724,0.059608,0.88741,0.457107,-0.600109,1.107558,-1.371184,0.156426,-0.415059,-0.272704
457,3.095931,-1.09101,-1.69717,0.021069,0.887094,0.46110500000000004,-0.050057,1.554773,-1.531353,0.10705899999999999,-0.29335900000000004,-0.22833299999999998
458,-3.1025560000000003,-1.075607,-1.6352209999999998,-0.018545,0.8798790000000001,0.474833,-1.140519,1.301924,-1.290818,-0.055016999999999996,-0.14663299999999999,0.157796
459,-3.049668,-1.064681,-1.598867,-0.044501,0.874634,0.482734,-0.22769899999999998,1.049356,-0.726506,0.016775,-0.174485,0.189858
460,-3.023315,-1.062052,-1.585246,-0.057476,0.8733569999999999,0.483675,-0.049946,0.428224,-0.063239,-0.193363,-0.21202600000000002,-0.17010699999999998
461,-3.027313,-1.065441,-1.594463,-0.055203999999999996,0.8750020000000001,0.480958,0.263714,0.173877,0.399681,-0.170626,-0.199389,-0.100983
462,-3.049444,-1.077736,-1.620961,-0.043554,0.8808889999999999,0.471312,0.753546,-0.044886,0.869128,-0.231791,-0.204009,-0.080717
463,-3.093299,-1.1049639999999998,-1.6624560000000002,-0.021683,0.8934479999999999,0.44864,1.70386,-0.598774,1.096529,-0.469558,-0.22229000000000002,-0.223557
464,3.125712,-1.15765,-1.711903,0.006376,0.9158620000000001,0.401439,3.116635,-1.067987,1.0610629999999999,-0.618421,-0.256347,-0.29414
465,3.047307,-1.222715,-1.7776450000000001,0.032112,0.9400290000000001,0.33957600000000004,3.267098,-0.756655,1.1290129999999998,-0.450463,-0.21473299999999998,-0.137138
466,2.9490939999999997,-1.2601790000000002,-1.9052169999999997,0.058473000000000004,0.952145,0.29999699999999996,1.531261,1.8034990000000002,2.0258689999999997,0.41059700000000005,1.576938,0.178747
467,2.798156,-1.282348,-2.049966,0.09578500000000001,0.958686,0.267849,1.760245,-2.085655,1.785693,0.766672,0.852593,-0.057308000000000005
468,2.634859,-1.296037,-2.178353,0.131673,0.96249,0.23721599999999998,0.9242239999999999,-1.6118370000000002,0.9706020000000001,0.291132,0.134235,-0.055423
469,2.5616689999999998,-1.2947469999999999,-2.2311229999999997,0.149348,0.96214,0.227991,0.087043,-0.9353370000000001,0.6188520000000001,-0.043147000000000005,-0.460797,-0.052453999999999994
470,2.4896279999999997,-1.282551,-2.295337,0.172478,0.958744,0.225962,0.063428,-0.196924,1.39327,0.06387999999999999,-0.2551,0.123938
471,2.394829,-1.266205,-2.3972740000000003,0.20371199999999998,0.9539700000000001,0.220094,0.545813,0.19941199999999998,1.7603950000000002,0.083611,-0.16580699999999998,0.046432
472,2.278731,-1.251922,-2.52159,0.238164,0.9495889999999999,0.203855,1.054738,0.07045,1.867733,0.108852,-0.243504,-0.022611000000000003
473,2.1589099999999997,-1.2363879999999998,-2.651072,0.273065,0.9446049999999999,0.182087,1.1866860000000001,0.230846,1.8684490000000002,0.151785,-0.175394,-0.064778
474,2.06543,-1.215118,-2.755566,0.30648600000000004,0.9374110000000001,0.165305,0.8101689999999999,0.166457,1.780443,0.100404,0.035368000000000004,-0.119849
475,1.9982849999999999,-1.187529,-2.8269,0.34029899999999996,0.9274479999999999,0.15503499999999998,0.39650100000000005,-0.214658,1.809021,-0.033277,0.19431700000000002,-0.16474
476,1.9439970000000002,-1.158264,-2.872093,0.37333099999999997,0.916108,0.146178,0.164218,-0.8478469999999999,1.581747,-0.094828,0.193236,-0.092299
477,1.8997700000000002,-1.133728,-2.899278,0.40058499999999997,0.9059959999999999,0.136751,0.08629099999999999,-1.027034,1.172303,-0.124706,0.153101,-0.021029
478,1.864005,-1.116358,-2.917195,0.42022299999999996,0.898508,0.12687,0.115961,-0.917191,0.850834,-0.251827,-0.065164,0.027366
479,1.832913,-1.101734,-2.9336889999999998,0.436609,0.891993,0.11713699999999999,0.172373,-0.75422,0.806154,-0.268075,-0.177592,-0.01408
480,1.8028849999999998,-1.087318,-2.950372,0.45239700000000005,0.885383,0.106923,0.20970300000000003,-0.8095319999999999,0.753075,-0.256337,-0.197258,-0.104192
481,1.7682939999999998,-1.076614,-2.96583,0.465092,0.880357,0.093068,0.261337,-1.214528,0.490104,-0.23756799999999997,-0.170167,-0.163976
482,1.7261790000000001,-1.0721829999999999,-2.98237,0.472447,0.8782469999999999,0.074007,0.419837,-1.395974,0.174181,-0.184788,-0.259945,-0.141069
483,1.6824259999999998,-1.072033,-3.004797,0.47536300000000004,0.878175,0.053286,0.584052,-1.049891,0.064858,-0.179083,-0.336335,-0.105868
484,1.6468669999999999,-1.070275,-3.0281,0.478495,0.877333,0.036469999999999995,0.47894200000000003,-0.568543,0.19489800000000002,-0.004511,-0.143125,0.194381
485,1.62923,-1.064119,-3.040707,0.484446,0.8743620000000001,0.028339999999999997,0.1786,-0.22008699999999998,0.427363,0.05179400000000001,-0.038104,0.262233
486,1.617832,-1.052725,-3.049191,0.49465699999999996,0.868776,0.023284,0.22978800000000002,-0.22760300000000003,0.6638069999999999,0.089709,0.056258,0.25113
487,1.601102,-1.037849,-3.065322,0.507841,0.8613129999999999,0.015394999999999999,0.453151,-0.022203,0.785813,-0.092512,0.331405,0.187211
488,1.586441,-1.024815,-3.085298,0.519193,0.854618,0.008123,0.517109,0.192692,0.537089,-0.279584,0.393856,0.080592
489,1.57358,-1.020716,-3.107151,0.522753,0.852483,0.0014550000000000001,0.592661,0.330919,0.004397,-0.31679,0.398814,0.007654
490,1.55875,-1.025601,-3.1303919999999996,0.518546,0.8550260000000001,-0.006247,0.593395,0.127858,-0.363875,-0.280692,0.44928,-0.033105
491,1.534584,-1.033005,3.131846,0.511903,0.858842,-0.018546,0.49061000000000005,-0.625095,-0.32410300000000003,-0.14708,0.541838,-0.045328
492,1.499994,-1.034835,3.114224,0.509386,0.859778,-0.036126,0.40935900000000003,-1.059647,-0.00792,0.106672,0.547662,-0.057944
493,1.477192,-1.03484,3.107272,0.508426,0.8597809999999999,-0.04773,-0.027074,-0.659479,-0.068098,0.19415,0.567771,0.051499
494,1.484083,-1.038513,3.125891,0.5055930000000001,0.86165,-0.043952,-0.782099,-0.406273,-0.13031199999999998,0.266334,0.49760299999999996,0.146705
495,1.517312,-1.040784,-3.1066130000000003,0.504818,0.862801,-0.027025999999999998,-1.575302,-0.589536,0.033162,0.31551,0.346534,0.269808
496,1.570617,-1.0417379999999998,-3.035397,0.504718,0.863283,-9.1e-05,-1.841827,-0.17061600000000002,-0.06858099999999999,0.31951599999999997,0.244261,0.394179
497,1.64315,-1.047967,-2.968045,0.49802399999999997,0.86641,0.036097000000000004,-1.533992,1.350492,-0.5747180000000001,0.330482,0.15440299999999998,0.483129
498,1.729785,-1.064452,-2.9192970000000003,0.478864,0.8745229999999999,0.076782,-0.774772,2.548739,-1.1851770000000001,0.20035,0.146122,0.153443
499,1.796961,-1.09594,-2.899787,0.445564,0.889358,0.102525,0.225294,2.358662,-1.9363860000000002,-0.010917,0.247025,-0.179627
500,1.837468,-1.149502,-2.905871,0.394484,0.91256,0.10776400000000001,1.140678,2.498167,-2.983438,-0.194579,0.370383,-0.05393099999999999
501,1.879288,-1.219539,-2.919604,0.327831,0.938941,0.104468,1.112635,2.531837,-3.120409,0.038456,0.050485,-0.081458
502,1.9186590000000001,-1.263901,-2.899787,0.284001,0.953276,0.10298099999999999,-0.20670999999999998,0.21173499999999998,-1.7294169999999998,0.29130100000000003,-0.16053599999999998,-0.203521
503,2.032259,-1.279591,-2.77742,0.25707199999999997,0.957899,0.127834,-1.855839,-0.321902,-1.382398,0.310098,-0.320569,-0.255764
504,2.222226,-1.284084,-2.580715,0.224885,0.9591790000000001,0.171466,-2.456117,0.452388,-1.885375,0.265716,-0.235515,-0.184604
505,2.466161,-1.281906,-2.3439360000000002,0.178119,0.9585610000000001,0.222334,-2.400649,1.0330709999999999,-2.492482,-0.098285,0.16766,0.07737999999999999
506,2.706757,-1.2745950000000001,-2.1196669999999997,0.12295999999999999,0.9564520000000001,0.264721,-1.7219830000000003,1.364933,-2.421937,-0.154637,-0.37335300000000005,-0.08985599999999999
507,2.863022,-1.256304,-1.9683869999999999,0.08506,0.950953,0.297404,-1.9536209999999998,-0.32016999999999995,-1.4642680000000001,-0.158943,-0.355952,-0.341883
508,2.933601,-1.20618,-1.866832,0.073633,0.934261,0.348901,-2.829008,-0.80948,-0.885439,0.11923800000000001,-0.550975,-0.15462599999999999
509,3.0000310000000003,-1.165073,-1.795073,0.055685000000000005,0.918817,0.39073,-1.971336,0.209709,-1.026032,0.078333,-0.7777649999999999,-0.336913
510,3.0598229999999997,-1.132499,-1.73665,0.034664,0.9054760000000001,0.422976,-1.758488,0.34844,-1.005495,0.24355,-0.6682020000000001,-0.360003
511,3.111814,-1.107378,-1.697143,0.013309,0.8945299999999999,0.44680600000000004,-0.887653,1.037308,-0.603985,0.100491,-0.491957,0.072268
512,-3.132578,-1.095652,-1.677647,-0.004124,0.889227,0.45744399999999996,-0.533323,1.121177,-0.306788,0.150532,-0.437353,-0.212525
513,-3.1019900000000002,-1.0860370000000001,-1.666451,-0.01845,0.8847870000000001,0.465625,-0.457976,0.887244,-0.21302600000000002,0.06756799999999999,-0.291358,-0.24850799999999998
514,-3.091962,-1.078192,-1.669069,-0.023461000000000003,0.8811040000000001,0.47233500000000006,-0.31432,0.49098400000000003,0.189068,-0.022529,-0.24389699999999997,-0.184417
515,-3.0973479999999998,-1.078971,-1.6831610000000001,-0.020887,0.881473,0.47176899999999994,0.255275,0.246144,0.45080200000000004,-0.139727,-0.184665,-0.146619
516,-3.1194290000000002,-1.091452,-1.7064529999999998,-0.010221,0.8872969999999999,0.46108000000000005,0.8146439999999999,-0.21035500000000001,0.639027,-0.309817,-0.146498,-0.146261
517,3.128174,-1.1194549999999999,-1.737579,0.005853,0.899863,0.436129,1.836136,-0.529436,0.693573,-0.5008319999999999,-0.164115,-0.21506
518,3.086174,-1.172489,-1.772916,0.021483000000000002,0.9217190000000001,0.387258,3.105371,-0.261708,0.5728409999999999,-0.667327,-0.216702,-0.049763999999999996
519,3.0405189999999997,-1.2339360000000001,-1.827861,0.03335,0.9437969999999999,0.328833,3.012124,0.361996,1.056363,-0.26206399999999996,-0.226527,-0.137458
520,2.939165,-1.263288,-1.968477,0.060853,0.953091,0.296498,1.1680549999999998,2.2434939999999997,2.331483,0.686675,1.05315,0.680141
521,2.83443,-1.297044,-2.079255,0.081738,0.9627629999999999,0.257686,2.697749,-1.275299,0.522154,1.2586389999999998,2.506414,-0.148204
522,2.723729,-1.3271030000000001,-2.174347,0.097914,0.970453,0.220521,1.046485,-0.7146279999999999,0.537675,0.063234,-0.168573,-0.2193
523,2.672016,-1.327824,-2.2255380000000002,0.108865,0.970627,0.21454099999999998,0.042526,0.176576,0.7164590000000001,-0.22205500000000003,-0.649079,0.009122
524,2.591661,-1.313161,-2.317392,0.13316,0.966995,0.217223,-0.12443199999999999,0.572662,1.708232,-0.105145,-0.184006,0.006227
525,2.476896,-1.2875459999999999,-2.444387,0.17238399999999998,0.960152,0.219973,0.018466999999999997,0.162996,2.266299,-0.060735000000000004,-0.10813199999999999,-0.064425
526,2.3491720000000003,-1.264243,-2.571222,0.214875,0.9533799999999999,0.211878,0.519845,-0.574917,2.017578,0.390166,-0.092326,-0.11603800000000002
527,2.2404900000000003,-1.243039,-2.6711720000000003,0.25238499999999997,0.946767,0.199827,0.408697,-0.673484,1.722098,0.18015499999999998,-0.27469299999999996,-0.131483
528,2.1601220000000003,-1.223862,-2.744206,0.282657,0.940419,0.188979,0.44682700000000003,-0.396208,1.347064,-0.016696000000000003,-0.06314600000000001,-0.09489299999999999
529,2.0992889999999997,-1.208489,-2.810748,0.30607199999999996,0.935082,0.178713,0.659384,0.2735,1.2504819999999999,0.024846,0.13472699999999999,-0.125155
530,2.034138,-1.193099,-2.8842779999999997,0.329893,0.929516,0.164821,0.875375,-0.0014039999999999999,1.345278,0.028566,0.133152,-0.11846400000000001
531,1.9574580000000001,-1.177805,-2.958247,0.35467600000000005,0.923768,0.14440899999999998,0.992917,-0.612567,1.1674209999999998,-0.234681,0.017593,-0.032669
532,1.881248,-1.166983,-3.025619,0.374139,0.9195690000000001,0.12003299999999999,1.051716,-0.68386,0.8303649999999999,-0.484903,0.040651,-0.003075
533,1.82112,-1.158929,-3.0802509999999996,0.387839,0.916375,0.099165,0.810682,-0.360623,0.65842,-0.584204,0.087287,0.004625
534,1.782835,-1.1452229999999999,-3.114558,0.403592,0.910802,0.086883,0.330973,-0.44433100000000003,0.9617559999999999,-0.42385600000000007,0.10537200000000001,-0.07588099999999999
535,1.753799,-1.125122,-3.128257,0.423863,0.9023200000000001,0.078446,-0.026485,-1.096386,1.031666,-0.158467,-0.071479,-0.091477
536,1.723596,-1.106668,-3.130051,0.44242299999999996,0.8942120000000001,0.068133,-0.151516,-1.566051,0.8433870000000001,-0.088267,-0.17067100000000002,-0.082721
537,1.6952450000000001,-1.0911520000000001,-3.125929,0.457891,0.887159,0.05728,-0.226741,-1.570626,0.72109,0.007731,-0.343198,-0.078627
538,1.671877,-1.076386,-3.119382,0.47208599999999995,0.880249,0.047882,-0.22702199999999997,-1.3959190000000001,0.7208640000000001,-0.044168,-0.322128,-0.038055
539,1.6489630000000002,-1.061896,-3.115311,0.485725,0.873281,0.038044999999999995,-0.1047,-1.280073,0.682046,-0.075386,-0.209432,0.042658999999999996
540,1.623746,-1.049156,-3.120733,0.497601,0.8670030000000001,0.026373,0.23894,-0.811369,0.655004,0.000919,0.065126,0.293513
541,1.596228,-1.0346629999999999,3.140555,0.510646,0.85969,0.012988999999999999,0.691116,-0.23189200000000001,0.803766,-0.002925,0.212331,0.171215
542,1.5659,-1.018045,3.1080080000000003,0.525021,0.851083,-0.002571,0.8502940000000001,-0.157986,0.8314889999999999,-0.171093,0.364691,-0.0017929999999999999
543,1.535513,-1.0036450000000001,3.0826580000000003,0.536894,0.843435,-0.018951,0.5676359999999999,-0.609883,0.599358,-0.236326,0.398325,-0.002472
544,1.510869,-0.996397,3.0691450000000002,0.5423520000000001,0.839519,-0.032541,0.283323,-0.652019,0.194706,0.009894,0.37102199999999996,0.074686
545,1.490964,-0.994334,3.06265,0.543322,0.8383959999999999,-0.043467,0.151864,-0.8003100000000001,0.09677000000000001,0.16256500000000002,0.387755,0.11608399999999999
546,1.473334,-0.988456,3.05932,0.547367,0.8351780000000001,-0.053516999999999995,0.068241,-0.5701430000000001,0.418494,0.335095,0.38550999999999996,0.14618399999999998
547,1.482008,-0.978929,3.068952,0.555712,0.8299,-0.049471,-0.444089,0.326488,0.41269799999999995,0.43546899999999994,0.725703,0.204012
548,1.5137129999999999,-0.981793,3.0962,0.554624,0.8314950000000001,-0.031694,-0.928225,0.510432,-0.411314,0.259783,0.343325,0.343599
549,1.560936,-0.9963059999999999,3.13511,0.543377,0.839469,-0.005358,-1.1296059999999999,0.9418049999999999,-0.7529680000000001,0.192798,0.11713499999999999,0.349688
550,1.6170229999999999,-1.011352,-3.1116610000000002,0.530145,0.84755,0.024524,-0.842434,1.396981,-0.811366,0.024557,0.31606999999999996,0.077984
551,1.671345,-1.030949,-3.082264,0.511406,0.8577870000000001,0.051595,-0.6193069999999999,1.5160129999999998,-1.2009290000000001,-0.027687,0.313874,-0.029897000000000003
552,1.7321819999999999,-1.0603129999999998,-3.053434,0.48224700000000004,0.872508,0.07851,-0.463239,1.9683529999999998,-1.7676439999999998,-0.018807,0.26048699999999997,-0.054508
553,1.797827,-1.1011870000000001,-3.0238810000000003,0.44092200000000004,0.8917450000000001,0.101859,-0.150553,1.884369,-2.347534,-0.031971,0.221673,-0.154334
554,1.8478759999999999,-1.151741,-3.000164,0.391374,0.913474,0.111305,0.308127,1.081863,-2.656291,-0.023103,0.19251400000000002,-0.197746
555,1.873788,-1.203232,-2.980959,0.34297,0.933205,0.10721800000000001,0.29840900000000004,0.049982,-2.474507,0.017976,0.24552100000000002,-0.027583
556,1.9344400000000002,-1.2396559999999999,-2.9170849999999997,0.30385700000000004,0.945672,0.115638,-0.979416,0.10488800000000001,-1.778476,0.303001,-0.039605,0.12731199999999998
557,2.0621959999999997,-1.2511729999999999,-2.780941,0.277024,0.9493540000000001,0.14826,-2.076722,-0.244775,-1.297515,0.41505299999999995,-0.296171,-0.04122
558,2.212886,-1.2481719999999998,-2.61543,0.25390799999999997,0.948407,0.189872,-2.3189189999999997,-0.274715,-1.325874,0.22236399999999998,-0.393933,-0.138236
559,2.378315,-1.2421440000000001,-2.44132,0.223122,0.946478,0.233219,-2.244053,0.242524,-1.801373,-0.042381999999999996,-0.32071500000000003,-0.153583
560,2.5565189999999998,-1.233132,-2.267045,0.182952,0.9435309999999999,0.276177,-2.037773,0.910243,-1.9279060000000001,-0.117797,-0.32966999999999996,-0.056405
561,2.7002759999999997,-1.217365,-2.134623,0.147835,0.938191,0.31295100000000003,-1.632127,0.8520700000000001,-1.319316,0.037224,-0.39960100000000004,0.023139
562,2.79491,-1.197819,-2.046737,0.12380999999999999,0.9312469999999999,0.34270500000000004,-1.4471399999999999,0.5698989999999999,-0.979036,0.21923800000000002,-0.44650500000000004,-0.032921
563,2.873436,-1.176557,-1.9763830000000002,0.10176900000000001,0.9232889999999999,0.370372,-1.419927,0.7517189999999999,-0.9171219999999999,0.264915,-0.576167,-0.144054
564,2.950606,-1.1518389999999998,-1.9170900000000002,0.077222,0.9135139999999999,0.399406,-1.455501,1.485403,-0.813625,0.17752300000000001,-0.6420140000000001,-0.16645
565,3.049283,-1.141017,-1.866442,0.038408,0.909058,0.414892,-0.254801,2.9620330000000004,-1.094482,0.166548,-0.731888,-0.185857
566,3.133312,-1.13598,-1.822102,0.003488,0.906947,0.421225,-0.325687,1.7869240000000002,-0.7388239999999999,-0.0033810000000000003,-0.133876,-0.21449899999999997
567,-3.102166,-1.130586,-1.799034,-0.016796000000000002,0.9046620000000001,0.425795,-0.162902,1.1211440000000001,-0.352274,-0.063968,-0.129683,-0.182662
568,-3.075459,-1.124719,-1.7971970000000002,-0.028511,0.9021459999999999,0.43048400000000003,-0.799371,1.847264,0.032251,-0.157539,0.119048,-0.50278
569,-3.072188,-1.118562,-1.802703,-0.030304,0.899473,0.435921,0.16355699999999998,0.001407,0.196235,-0.454193,0.095568,-0.080575
570,-3.10426,-1.130503,-1.8289099999999998,-0.015908000000000002,0.9046270000000001,0.42590500000000003,0.832134,-0.590611,0.878916,-0.583137,0.11096800000000001,-0.145509
571,3.108327,-1.165062,-1.886555,0.013127000000000002,0.9188129999999999,0.394472,2.339209,-1.129485,1.3975389999999999,-0.49782299999999996,-0.109456,-0.282884
572,2.987037,-1.2215799999999999,-1.9892880000000002,0.052672000000000004,0.939641,0.33807800000000005,3.112859,-1.1011549999999999,1.633642,-0.339415,-0.518254,0.135601
573,2.828938,-1.267772,-2.150095,0.091784,0.9544379999999999,0.283936,2.5357979999999998,0.318135,2.313591,0.385221,-0.212648,0.152099
574,2.630588,-1.277799,-2.374596,0.141247,0.957383,0.251921,1.338393,0.599007,2.908413,1.398472,2.63858,-0.394499
575,2.397183,-1.288502,-2.572607,0.18873,0.960419,0.20487199999999997,2.646057,-2.955085,1.327246,1.487829,2.756485,-0.378273
576,2.240084,-1.3086799999999998,-2.705216,0.203217,0.965844,0.16076400000000002,1.209508,-0.7378779999999999,0.084847,-0.16819800000000001,-0.185128,-0.090543
577,2.228877,-1.302772,-2.71422,0.209517,0.9642959999999999,0.161964,-0.630737,0.11308599999999999,0.661629,-0.330458,-0.669908,0.005211
578,2.20864,-1.27395,-2.736827,0.23498899999999998,0.9562639999999999,0.174173,-0.436497,-0.06417300000000001,1.663069,-0.242954,-0.550075,0.059164
579,2.1314900000000003,-1.240739,-2.811929,0.274469,0.946024,0.172344,0.255262,-0.391496,2.199226,0.070761,-0.363108,-0.036006
580,2.0434189999999997,-1.202508,-2.897223,0.320548,0.932945,0.16388599999999998,0.318215,-0.416004,2.412274,0.31963400000000003,-0.19123099999999998,-0.07639299999999999
581,1.97229,-1.165268,-2.965769,0.363128,0.9188940000000001,0.154168,0.483333,-0.304551,2.1035,0.319947,-0.10451700000000001,0.018821
582,1.905024,-1.1361219999999999,-3.037611,0.397808,0.907007,0.138141,1.103062,0.006908,1.733552,0.11685599999999999,-0.107615,-0.036579
583,1.830034,-1.116685,-3.121264,0.42400299999999996,0.898651,0.112448,1.553158,0.051694000000000004,1.332851,-0.11135,-0.22244299999999997,-0.0922
584,1.76135,-1.099278,3.0852619999999997,0.44601499999999994,0.8908799999999999,0.086033,1.353597,-0.100445,1.1906459999999999,-0.199356,-0.198954,-0.06831799999999999
585,1.7148400000000001,-1.0785120000000001,3.034646,0.467742,0.8812549999999999,0.067845,0.743452,-0.034562,1.227961,-0.316741,-0.101989,-0.029179000000000004
586,1.6970669999999999,-1.055917,3.015462,0.48850600000000005,0.870352,0.062014,0.039491000000000005,-0.07333200000000001,1.144045,-0.5919,0.165429,0.0026219999999999998
587,1.697871,-1.034866,3.01952,0.506521,0.8597940000000001,0.064715,-0.310095,-0.19381700000000002,0.942,-0.610571,0.15479400000000001,0.035169
588,1.691301,-1.020311,3.02257,0.519304,0.8522709999999999,0.06288300000000001,-0.029922000000000004,-0.656701,0.5717409999999999,-0.5649430000000001,0.097665,0.028105
589,1.6618099999999998,-1.013384,3.011577,0.526799,0.848627,0.048079000000000004,0.41175200000000006,-1.1992530000000001,0.27107800000000004,-0.308064,-0.20851999999999998,-0.091032
590,1.613176,-1.010817,2.988723,0.5306890000000001,0.847266,0.022504,0.66574,-1.5829879999999998,0.10990599999999999,-0.17816500000000002,-0.27210100000000004,-0.194715
591,1.560454,-1.00919,2.9640150000000003,0.532515,0.8464010000000001,-0.005508,0.617875,-1.539191,0.12126600000000001,-0.117247,-0.259166,-0.19602999999999998
592,1.51631,-1.00324,2.946371,0.536772,0.843217,-0.029276,0.387665,-1.437274,0.407947,0.090196,-0.15474100000000002,-0.149679
593,1.477729,-0.9907520000000001,2.937821,0.545686,0.8364379999999999,-0.050933,0.26033,-1.7075049999999998,0.696892,0.073775,0.22520700000000002,0.256758
594,1.434798,-0.9757170000000001,2.927572,0.555396,0.8281040000000001,-0.076002,0.44342,-1.569628,0.690516,0.024835,0.29566,0.398909
595,1.403096,-0.961957,2.9157610000000003,0.56389,0.820312,-0.095461,0.364863,-0.8552770000000001,0.6046630000000001,-0.055925,0.23939499999999997,0.338045
596,1.393481,-0.951491,2.915964,0.571366,0.814282,-0.10238799999999999,-0.090336,-0.23831799999999997,0.425504,-0.130113,0.31241199999999997,0.22078000000000003
597,1.4056520000000001,-0.949018,2.9250540000000003,0.574555,0.812844,-0.09575700000000001,-0.271807,0.50332,-0.000798,-0.145875,0.365043,0.172112
598,1.423369,-0.9536309999999999,2.927821,0.572446,0.8155220000000001,-0.085011,0.037513,0.883811,-0.315318,-0.19061,0.290877,0.076649
599,1.42908,-0.960852,2.9125080000000003,0.567078,0.81968,-0.08090599999999999,0.585403,0.8643850000000001,-0.46101800000000004,-0.178315,0.173408,-0.045528
600,1.4172200000000001,-0.9670629999999999,2.883512,0.561037,0.8232219999999999,-0.086846,0.82514,0.39665,-0.3829,-0.015688,0.243245,-0.076316
601,1.393225,-0.9680469999999999,2.857239,0.557994,0.82378,-0.10013899999999999,0.616919,-0.456349,-0.008315000000000001,0.204656,0.350887,-0.011174
602,1.379512,-0.9609620000000001,2.853075,0.562285,0.819743,-0.10888699999999998,-0.158407,-0.348129,0.506354,0.469896,0.422566,0.131394
603,1.3965809999999999,-0.95721,2.879248,0.567086,0.817589,-0.099807,-0.9424600000000001,-0.261707,0.087365,0.257728,0.712792,0.047729
604,1.415108,-0.964902,2.910118,0.562608,0.821993,-0.088306,-0.8562649999999999,-0.296375,-0.374529,0.154631,0.718854,0.167927
605,1.434059,-0.9781799999999999,2.9314240000000003,0.553319,0.8294819999999999,-0.07613500000000001,-0.6140979999999999,0.342118,-0.682371,0.11878499999999999,0.454301,0.370767
606,1.468148,-0.993223,2.950615,0.543117,0.8377899999999999,-0.055947000000000004,-0.672122,1.252918,-0.629464,0.32375,0.11721199999999998,0.430489
607,1.527076,-1.006167,2.9794650000000003,0.534591,0.8447870000000001,-0.023387,-0.87702,1.963065,-0.620055,0.38466,0.022095,0.347652
608,1.590538,-1.023353,3.004518,0.520404,0.853858,0.010275,-0.487242,2.120968,-1.018118,0.092389,0.14866,-0.08692000000000001
609,1.638993,-1.052398,3.014568,0.49433599999999994,0.868614,0.033763999999999995,-0.031405,1.902969,-1.774161,-0.050321,0.168648,-0.178738
610,1.6805759999999998,-1.098266,3.0197700000000003,0.4524,0.8904190000000001,0.049865,0.08721,1.846167,-2.589381,-0.23946399999999998,0.141487,-0.080749
611,1.7383369999999998,-1.1552870000000002,3.047653,0.398003,0.914911,0.067313,-0.47306499999999996,1.4203860000000001,-2.984786,0.053581,0.16651,0.034341
612,1.846343,-1.198697,-3.140854,0.349855,0.931566,0.09891799999999999,-1.8560759999999998,0.8016840000000001,-2.109166,0.27635,0.011778,-0.004007999999999999
613,2.004743,-1.213126,-2.982614,0.317642,0.936715,0.147198,-2.552737,0.457607,-1.507909,0.316849,-0.218804,-0.042019
614,2.166802,-1.211999,-2.821421,0.290603,0.93632,0.197113,-2.3802689999999997,0.6296229999999999,-1.2516200000000002,-0.058288,-0.289118,-0.141342
615,2.31494,-1.2063540000000001,-2.682664,0.262212,0.9343229999999999,0.241423,-1.9247560000000001,1.177271,-1.404032,-0.109624,-0.153256,-0.087324
616,2.477773,-1.2036930000000001,-2.548402,0.221136,0.933371,0.282694,-1.650554,2.250471,-1.7581419999999999,0.133845,-0.108923,-0.019816
617,2.6240080000000003,-1.191122,-2.437582,0.183375,0.9287850000000001,0.32207199999999997,-1.680078,1.8906889999999998,-1.004791,0.184667,-0.288038,-0.16983499999999999
618,2.722324,-1.166079,-2.361376,0.160295,0.919214,0.35965199999999997,-1.8213869999999999,1.168649,-0.669434,0.102476,-0.47516800000000003,-0.270434
619,2.804749,-1.137316,-2.2978330000000002,0.138824,0.907509,0.396425,-1.763722,1.378466,-0.708824,0.150422,-0.393715,-0.063814
620,2.892419,-1.111391,-2.2374400000000003,0.109347,0.896316,0.42971899999999996,-1.5518459999999998,1.7536720000000001,-0.9492430000000001,0.169553,-0.263214,-0.051087
621,2.9741720000000003,-1.0873030000000001,-2.184371,0.077466,0.8853770000000001,0.458373,-1.330763,1.6396970000000002,-0.87705,0.15820599999999999,-0.23448200000000002,-0.138076
622,3.0368060000000003,-1.0687959999999999,-2.148149,0.050329,0.8766219999999999,0.478538,-0.856769,1.478321,-0.6257050000000001,0.001887,-0.37444,-0.36949899999999997
623,3.075141,-1.051628,-2.129799,0.032945999999999996,0.868232,0.495061,-0.9724450000000001,0.896265,-0.15575,-0.142748,-0.328941,-0.326375
624,3.0865299999999998,-1.0319049999999999,-2.133064,0.028243,0.8582780000000001,0.512405,-0.8772030000000001,0.667342,0.266088,-0.10839700000000001,-0.25963,-0.247864
625,3.0854880000000002,-1.02042,-2.144056,0.029327999999999996,0.8523280000000001,0.522184,-0.35112,0.261586,0.31408,-0.117569,-0.062457000000000006,-0.168714
626,3.077617,-1.020235,-2.154864,0.033447000000000005,0.852231,0.522094,0.128199,-0.10140700000000001,0.36489499999999997,-0.34407,-0.153821,-0.194992
627,3.060816,-1.030269,-2.169142,0.041520999999999995,0.8574370000000001,0.5129100000000001,0.825261,-0.30496799999999996,0.316614,-0.335985,-0.21426399999999998,-0.116975
628,3.0349310000000003,-1.057542,-2.188958,0.052273,0.871151,0.488224,1.801304,-0.49725,0.40272600000000003,-0.549374,-0.43412399999999995,-0.087009
629,2.995524,-1.1068850000000001,-2.223306,0.065126,0.894309,0.442684,2.9446779999999997,-0.418757,0.561231,-0.5287649999999999,-0.490287,-0.058834000000000004
630,2.934819,-1.162244,-2.28417,0.081563,0.917697,0.388818,2.636724,0.014477,0.9110379999999999,-0.335942,-0.49870600000000004,1.2665469999999999
631,2.8782490000000003,-1.207414,-2.359526,0.092524,0.9347,0.343184,3.4000230000000005,0.735418,0.578956,0.906637,2.910393,-0.205931
632,2.857752,-1.280182,-2.397232,0.08024400000000001,0.958068,0.275075,2.7593799999999997,0.220152,-0.544355,1.336626,3.011277,-0.8721049999999999
633,2.783435,-1.2801930000000001,-2.454899,0.10044199999999999,0.9580709999999999,0.268347,-0.06525299999999999,-1.558943,1.1238489999999999,0.0034549999999999997,-0.014819,0.393595
634,2.7199310000000003,-1.2760989999999999,-2.4967479999999997,0.11887400000000001,0.95689,0.26500799999999997,0.040014999999999995,-0.95975,0.373925,0.10855799999999999,-0.280972,0.191824
635,2.654189,-1.266661,-2.546029,0.14025,0.9541059999999999,0.264594,-0.149339,-0.971957,1.1919440000000001,0.24622399999999997,-0.284078,0.027596
636,2.553219,-1.2493610000000002,-2.626896,0.175342,0.948783,0.262802,-0.026217,-1.3662590000000001,1.654781,0.327817,-0.33972800000000003,0.018813999999999997
637,2.433421,-1.232259,-2.723239,0.21601700000000001,0.943241,0.252252,0.463758,-1.423841,1.77685,0.6091479999999999,-0.028782,-0.179361
638,2.299867,-1.223152,-2.834505,0.254078,0.9401780000000001,0.226954,1.32444,-1.4494850000000001,1.583137,0.519664,0.065025,-0.178675
639,2.142626,-1.21935,-2.978471,0.289487,0.938876,0.1863,2.1337490000000003,-0.734733,1.6925599999999998,0.219775,0.40228,-0.182409
640,1.9895650000000002,-1.214086,-3.141451,0.31901799999999997,0.937051,0.141994,2.374542,0.358444,1.433263,0.23065,0.27002600000000004,-0.184505
641,1.8651360000000001,-1.208585,2.996228,0.339102,0.9351149999999999,0.102797,2.259462,0.597371,0.9247479999999999,-0.091833,-0.149196,-0.09629700000000001
642,1.75203,-1.203185,2.869485,0.35349899999999995,0.9331879999999999,0.064777,2.0451479999999997,-0.021177,0.749923,-0.41293199999999997,-0.37357199999999996,0.039746
643,1.6445400000000001,-1.194583,2.761959,0.36640100000000003,0.930063,0.027069,1.794097,-0.43322200000000005,0.647217,-0.458625,-0.396173,0.113526
644,1.560849,-1.180827,2.671249,0.380139,0.9249209999999999,-0.003781,1.5922370000000001,0.401966,0.818857,-0.362255,-0.374704,0.084638
645,1.516757,-1.1616600000000001,2.602052,0.39723400000000003,0.917465,-0.021487,1.2188459999999999,1.24433,0.943356,-0.242616,-0.316101,-0.059476
646,1.501651,-1.140388,2.560582,0.41624300000000003,0.908795,-0.028827,0.722024,0.950564,1.044948,-0.171232,-0.090436,-0.149273
647,1.4956,-1.12155,2.546415,0.43305699999999997,0.900775,-0.032626,0.18173499999999998,-0.11393699999999998,0.787233,-0.183515,-0.019641,-0.19273099999999999
648,1.4798120000000001,-1.111848,2.548778,0.441171,0.8965190000000001,-0.040251,-0.115845,-1.301888,0.288885,-0.22054400000000002,-0.105397,-0.061220000000000004
649,1.457563,-1.110398,2.557489,0.441458,0.895875,-0.050203,-0.17611400000000002,-1.412599,0.055733000000000005,-0.059592,-0.315431,0.046144
650,1.439008,-1.108637,2.553866,0.442013,0.895092,-0.058592,0.29385100000000003,-0.346821,0.055514,0.127872,-0.12340899999999999,-0.012392
651,1.417502,-1.108975,2.527159,0.440353,0.895242,-0.068037,0.710811,0.28241900000000003,-0.22118600000000002,0.030061,0.022879,0.14836
652,1.393169,-1.113697,2.493421,0.4344,0.897337,-0.07798300000000001,0.644308,0.268431,-0.39468400000000003,0.034578,0.17566199999999998,0.303035
653,1.373151,-1.1178629999999998,2.4662830000000002,0.429084,0.899167,-0.08592799999999999,0.510073,0.221433,-0.247079,0.00039,0.178836,0.209006
654,1.358716,-1.118501,2.442598,0.427237,0.899446,-0.09199199999999999,0.5039060000000001,0.44023100000000004,-0.079692,-0.07421,0.104155,0.041729
655,1.352284,-1.116519,2.4207229999999997,0.42837700000000006,0.8985780000000001,-0.095125,0.469678,0.783927,0.046747000000000004,-0.057115,0.02055,-0.060088
656,1.351477,-1.11201,2.4047110000000003,0.43225,0.89659,-0.09635099999999999,0.343908,0.483367,0.193669,0.05864,-0.116149,0.0018679999999999999
657,1.342347,-1.105917,2.394245,0.436666,0.893875,-0.101529,0.281885,-0.18359,0.271002,0.010889,-0.153702,0.168988
658,1.330099,-1.099218,2.380082,0.441195,0.8908520000000001,-0.108294,0.493334,0.270811,0.20566700000000002,-0.151568,-0.005614,0.192202
659,1.31989,-1.093674,2.353263,0.44484399999999996,0.8883200000000001,-0.11401700000000001,0.722726,0.860676,0.08153099999999999,-0.07755,0.08931,0.027819999999999998
660,1.309756,-1.089755,2.321389,0.44702700000000006,0.8865139999999999,-0.11941700000000001,0.7862600000000001,0.867346,-0.043015,0.010829,-0.033227,-0.075056
661,1.300051,-1.0854270000000001,2.290474,0.449539,0.884503,-0.124775,0.7050109999999999,0.953421,0.080221,0.06456,-0.080319,-0.090054
662,1.299188,-1.079468,2.263983,0.45450100000000004,0.881707,-0.126575,0.685757,1.22389,0.124605,0.07610800000000001,-0.044808,-0.005261
663,1.302471,-1.073445,2.236119,0.460027,0.878849,-0.126487,0.7287060000000001,1.489128,0.09145,0.146373,0.087032,0.13503199999999999
664,1.308583,-1.07007,2.203297,0.463653,0.8772340000000001,-0.12444100000000001,0.874705,1.9380119999999998,-0.13563699999999998,0.25706599999999996,0.14666099999999999,-0.008431999999999999
665,1.3161100000000001,-1.0712469999999998,2.1637619999999997,0.463577,0.877798,-0.12068699999999999,0.867265,2.136253,-0.42008999999999996,0.237015,0.307748,-0.08620599999999999
666,1.328738,-1.080327,2.131972,0.45730600000000005,0.8821120000000001,-0.112909,0.460654,2.040892,-0.7283189999999999,0.15524200000000002,0.43597299999999994,0.010492
667,1.359665,-1.095492,2.1126810000000003,0.447446,0.8891540000000001,-0.095899,0.15805999999999998,2.6647830000000003,-0.908557,0.043765,0.366584,0.151838
668,1.41685,-1.1166610000000001,2.106395,0.433496,0.898641,-0.067267,-0.185126,3.427655,-1.176851,-0.047037,0.221202,0.23165
669,1.50495,-1.143964,2.118118,0.413091,0.9102819999999999,-0.027239999999999997,-0.5319,4.132899,-1.4162549999999998,-0.024358,0.059002,0.301257
670,1.625422,-1.1729530000000001,2.154162,0.386851,0.921899,0.021153,-0.834791,4.415102,-1.3963,0.44530200000000003,-0.062966,0.230647
671,1.7282259999999998,-1.192282,2.192482,0.364969,0.929215,0.057936,-0.5344760000000001,2.970417,-0.815511,0.598364,-0.20459000000000002,0.034714999999999996
672,1.8340490000000003,-1.1971180000000001,2.2310529999999997,0.35246500000000003,0.930991,0.094992,-0.733291,3.587217,-0.11266300000000001,0.652097,-0.319571,-0.172125
673,1.94432,-1.187671,2.280525,0.348044,0.927501,0.136406,-1.139208,3.114239,0.237621,0.494867,-0.23247800000000002,-0.019341
674,2.0491639999999998,-1.178475,2.319368,0.339416,0.924024,0.176,-0.633691,3.5777690000000004,0.032254000000000005,0.37655700000000003,-0.15917699999999999,-0.083135
675,2.138408,-1.175211,2.336816,0.324921,0.9227709999999999,0.207171,-0.21253699999999998,3.687364,-0.034379,0.086197,-0.184109,-0.21151999999999999
676,2.211992,-1.177232,2.339289,0.307315,0.9235479999999999,0.229381,0.147842,3.483256,-0.18649200000000002,-0.026157,-0.136653,-0.281139
677,2.280695,-1.185727,2.339512,0.284883,0.926773,0.244815,0.31708200000000003,3.370802,-0.449017,-0.133623,0.010131999999999999,-0.30530100000000004
678,2.358466,-1.199899,2.3549889999999998,0.255709,0.932003,0.256874,0.203321,3.035212,-0.875602,-0.316668,0.064961,-0.194923
679,2.456901,-1.2153120000000002,2.4005360000000002,0.220115,0.937478,0.2696,-0.042413,2.6177189999999997,-1.2186139999999999,-0.439949,-0.069924,-0.07382999999999999
680,2.55095,-1.227381,2.452976,0.18750899999999998,0.9416100000000001,0.279661,-0.028442000000000002,2.015547,-0.8919370000000001,-0.521295,-0.268499,0.027467000000000002
681,2.597783,-1.231816,2.468165,0.172049,0.9430940000000001,0.284557,0.066825,1.344643,0.034668,-0.37538699999999997,-0.368448,0.071064
682,2.590983,-1.228294,2.444035,0.175716,0.941917,0.286209,0.07332799999999999,0.49656300000000003,0.591276,-0.120098,-0.413109,0.066803
683,2.547295,-1.224974,2.388887,0.189798,0.9407969999999999,0.280851,0.6216149999999999,0.46720600000000007,1.063024,-0.05834400000000001,-0.379304,-0.003568
684,2.459329,-1.227802,2.284496,0.21205900000000003,0.941752,0.261025,1.477675,0.46694399999999997,1.4514280000000002,-0.167397,-0.20704099999999998,-0.040718
685,2.345716,-1.234333,2.154147,0.235884,0.9439280000000001,0.230992,1.804787,0.469566,1.311636,-0.17146199999999998,-0.045795999999999996,-0.080342
686,2.2198759999999997,-1.2421799999999998,2.011578,0.257101,0.9464899999999999,0.195076,2.142553,0.465771,1.168722,-0.19853800000000002,0.095609,0.141701
687,2.096076,-1.249572,1.862281,0.273162,0.94885,0.158323,2.15047,1.231754,0.883648,-0.30787600000000004,0.289798,0.233736
688,1.999523,-1.259803,1.730633,0.278308,0.9520299999999999,0.127209,2.022559,1.281841,0.191551,-0.495212,0.66766,0.363437
689,1.907398,-1.280638,1.62544,0.270047,0.958199,0.09449400000000001,1.622635,-0.078739,-0.736716,-0.098126,1.08358,-0.110073
690,1.8330389999999999,-1.310712,1.561696,0.248369,0.966368,0.06666799999999999,1.020186,-0.795592,-1.298685,0.32997,1.133516,0.34152
691,1.828296,-1.330657,1.5642909999999999,0.22999499999999998,0.971305,0.060568,-0.280794,-0.173965,-0.58111,0.7665420000000001,0.314279,0.39605100000000004
692,1.863851,-1.323852,1.607669,0.234019,0.969664,0.070614,-0.463175,-0.234275,0.538258,0.855535,-0.801131,0.010014
693,1.8265919999999998,-1.313069,1.561811,0.246588,0.9669719999999999,0.064489,0.9652850000000001,0.838216,0.69214,0.5710390000000001,-0.913673,-0.256536
694,1.732677,-1.301597,1.426125,0.26248,0.9639840000000001,0.042866,1.8556700000000002,2.419302,1.197329,0.228334,-0.655146,-0.457462
695,1.646082,-1.276519,1.275455,0.289225,0.9570120000000001,0.021816,1.8743919999999998,2.947077,1.597367,0.286535,-0.304394,-0.28065
696,1.605048,-1.240661,1.1853989999999999,0.323979,0.945998,0.011101,0.8194319999999999,1.808975,2.075361,0.27282199999999995,0.036805000000000004,-0.182671
697,1.601574,-1.202526,1.156652,0.35983000000000004,0.932952,0.011078,0.411278,0.6747989999999999,1.545193,0.15047,0.44250600000000007,-0.175019
698,1.5579,-1.1899600000000001,1.118319,0.371665,0.9283540000000001,-0.004794,0.9217200000000001,-0.825644,0.172675,-0.3525,0.12995,-0.155119
699,1.49053,-1.188117,1.057844,0.372204,0.927668,-0.029939999999999998,1.139735,-0.145233,0.059026999999999996,-0.455243,0.048773000000000004,0.189074
700,1.461597,-1.188113,1.0054020000000001,0.371187,0.927666,-0.040695,0.903048,1.500478,-0.23315500000000003,-0.458665,0.171593,0.269943
701,1.439808,-1.1929809999999998,0.952571,0.36573,0.929473,-0.048182,0.9874620000000001,1.1417899999999999,-0.383794,0.143516,-0.009551,-0.10541199999999999
702,1.408736,-1.195272,0.8987870000000001,0.361954,0.930315,-0.059177,0.902334,0.9239360000000001,-0.175806,0.13124,-0.099185,-0.163219
703,1.386119,-1.192791,0.853447,0.362791,0.9294030000000001,-0.067771,0.8574709999999999,0.9474950000000001,0.098384,-0.063963,-0.202321,-0.20932800000000001
704,1.349687,-1.185136,0.798832,0.367012,0.92655,-0.082499,1.2556559999999999,0.547603,0.12304200000000001,-0.245324,-0.014929,-0.09389299999999999
705,1.293676,-1.1797469999999999,0.733668,0.366616,0.924509,-0.10428,1.190146,0.22808499999999998,-0.102401,-0.20586500000000002,0.037633,0.40930300000000003
706,1.261892,-1.174869,0.682176,0.367408,0.922639,-0.117247,0.946023,1.07546,-0.011189,-0.11023699999999999,0.053221000000000004,0.335753
707,1.245377,-1.168117,0.641227,0.371317,0.9200139999999999,-0.125288,0.7730020000000001,0.955051,0.146922,-0.047694,-0.021256,0.058119000000000004
708,1.236793,-1.159241,0.618976,0.37792800000000004,0.9165,-0.131143,0.44702299999999995,0.33000100000000004,0.362295,-0.089354,-0.048366,-0.05240499999999999
709,1.226587,-1.146285,0.6113689999999999,0.387716,0.9112399999999999,-0.138988,0.346283,-0.41338,0.670192,-0.147024,-0.020875,0.08570499999999999
710,1.213042,-1.129933,0.606464,0.399702,0.904384,-0.149425,0.390058,-0.354086,0.722765,-0.177428,0.000157,0.268474
711,1.206408,-1.116312,0.599096,0.41017600000000004,0.898487,-0.156449,0.392726,0.21156799999999998,0.456071,-0.128254,0.039791,0.201295
712,1.202237,-1.108711,0.586909,0.41587799999999997,0.895125,-0.160615,0.39253299999999997,0.35972,0.170665,-0.017883,-0.010954,0.095231
713,1.195541,-1.104583,0.57304,0.418228,0.8932770000000001,-0.164749,0.342472,0.250684,0.042268,0.064286,0.028110000000000003,0.11499000000000001
714,1.1909530000000002,-1.1004770000000001,0.560531,0.42086999999999997,0.891424,-0.168024,0.352419,0.42071800000000004,0.136123,0.313703,0.216319,0.230814
715,1.193928,-1.092414,0.546964,0.428037,0.887741,-0.16941099999999998,0.50462,1.007443,0.330851,0.43413,0.325714,0.26717399999999997
716,1.2073129999999999,-1.081707,0.530223,0.439126,0.882761,-0.167037,0.5319149999999999,1.6113959999999998,0.32172199999999995,0.433067,0.408911,0.265914
717,1.23835,-1.079115,0.521065,0.446259,0.88154,-0.154076,0.021169,2.1381930000000002,-0.171766,0.242416,0.482687,0.02369
718,1.287843,-1.091605,0.533411,0.44272799999999995,0.887368,-0.128725,-0.730513,1.7284970000000002,-0.693511,0.046255000000000004,0.573051,0.141954
719,1.351855,-1.116031,0.56171,0.428766,0.8983639999999999,-0.095404,-0.928601,2.26381,-1.1901680000000001,0.064993,0.388349,0.156393
720,1.437676,-1.145802,0.5880989999999999,0.408667,0.911041,-0.054725,-0.795296,3.610015,-1.494341,-0.02555,-0.127151,0.379814
721,1.567018,-1.183208,0.633484,0.377954,0.925823,-0.001428,-1.193235,4.7915410000000005,-1.981471,0.21124899999999996,0.10332100000000001,0.340936
722,1.7353439999999998,-1.219882,0.7120989999999999,0.339113,0.939059,0.056309000000000005,-1.194709,4.445514,-1.760984,0.377913,0.22366100000000003,0.13308299999999998
723,1.8610119999999999,-1.239474,0.786361,0.311691,0.9456129999999999,0.093086,-1.086164,1.880909,-0.935477,0.6831520000000001,-0.0028640000000000002,-0.124672
724,1.995279,-1.2449860000000001,0.872334,0.291669,0.947392,0.131823,-1.243391,2.974561,-0.702968,1.1001610000000002,-0.06461,-0.075182
725,2.153859,-1.251334,0.965925,0.26216799999999996,0.9494040000000001,0.172914,-1.0319909999999999,3.817871,-1.321073,1.0604790000000002,-0.090472,-0.055603999999999994
726,2.346918,-1.271004,1.084437,0.210752,0.955398,0.206877,-0.701543,3.9327419999999997,-2.0944409999999998,-0.060025,-0.163879,-0.183577
727,2.561363,-1.284953,1.2325629999999999,0.154579,0.9594239999999999,0.23581999999999997,-0.962101,3.413761,-2.08705,-0.18972,0.022006,-0.176005
728,2.793661,-1.27989,1.407657,0.09779299999999999,0.9579840000000001,0.26963400000000004,-1.625984,3.0711009999999996,-2.1339770000000002,-0.25640799999999997,0.282647,-0.216061
729,3.012318,-1.246921,1.58818,0.041026,0.948009,0.315587,-2.618138,1.65021,-2.385846,-0.356944,0.405674,-0.301763
730,-3.130889,-1.191084,1.725961,-0.003967,0.9287709999999999,0.370631,-2.928317,0.099214,-1.862596,-0.373535,-0.24841300000000002,0.096715
731,-3.0926240000000003,-1.13824,1.7694009999999998,-0.020519,0.907897,0.41868999999999995,-2.348086,-0.06356,-0.556172,0.182476,-0.467056,0.112758
732,-3.0646169999999997,-1.1020299999999998,1.7907830000000002,-0.034742,0.892126,0.45044700000000004,-1.432238,0.696204,-0.6062960000000001,0.24752600000000002,-0.488379,-0.029869
733,-3.026174,-1.081335,1.8106380000000002,-0.054144000000000005,0.8825860000000001,0.46702200000000005,-0.752853,1.2111969999999999,-0.51248,0.142248,-0.328036,-0.17757699999999998
734,-2.990589,-1.067333,1.825166,-0.072577,0.8759170000000001,0.47697,-0.6175069999999999,1.083382,-0.368229,-0.028725999999999998,-0.237657,-0.30472899999999997
735,-2.973831,-1.054258,1.8251240000000002,-0.082465,0.869534,0.48693800000000004,-0.644895,0.641788,0.063708,-0.115244,-0.207943,-0.305191
736,-2.9838869999999997,-1.041147,1.810509,-0.079348,0.862984,0.49896,-0.7418130000000001,-0.204921,0.367491,-0.175733,-0.366967,-0.184568
737,-3.012268,-1.031275,1.7905060000000002,-0.06625199999999999,0.8579549999999999,0.509434,-0.392552,-0.73278,0.467815,-0.275392,-0.440382,-0.020482
738,-3.0442009999999997,-1.033418,1.772243,-0.049774,0.8590540000000001,0.5094569999999999,0.353026,-0.766296,0.477339,-0.317459,-0.31509299999999996,0.091739
739,-3.069613,-1.050306,1.7575290000000001,-0.035765,0.867575,0.496016,1.075515,-0.555469,0.408408,-0.358172,-0.168006,0.05301
740,-3.0863419999999997,-1.0809959999999998,1.747298,-0.025979000000000002,0.8824270000000001,0.469729,1.7783849999999999,-0.232587,0.306081,-0.344748,0.039647,-0.125933
741,-3.085214,-1.121889,1.748543,-0.024454,0.9009219999999999,0.433287,2.090457,0.207862,-0.086477,-0.018866,0.252521,0.358903
742,-3.0811479999999998,-1.158898,1.746372,-0.024184,0.9163620000000001,0.399615,1.704853,-0.032789,0.48797799999999997,0.446334,0.343159,0.21276599999999998
743,-3.115663,-1.183402,1.707603,-0.009794,0.9258959999999999,0.37764699999999995,0.903359,-0.33972399999999997,0.949585,0.45206999999999997,0.9946510000000001,-0.372749
744,3.082537,-1.1972,1.644434,0.021541,0.9310209999999999,0.36432600000000004,0.736585,-1.129459,1.18551,0.20573899999999998,-0.187063,-0.05385499999999999
745,3.017259,-1.215485,1.580838,0.043141000000000006,0.9375379999999999,0.345192,1.152755,0.11201300000000002,0.9849319999999999,0.042125,-0.29280900000000004,-0.06237
746,2.951518,-1.236489,1.501679,0.061989999999999996,0.9446379999999999,0.322201,1.268461,0.5597840000000001,1.328065,0.250479,0.247257,0.022785
747,2.855808,-1.257696,1.3897680000000001,0.08682999999999999,0.951383,0.295513,1.621233,0.32290599999999997,1.6513,0.42348500000000006,0.28493,-0.091183
748,2.7239970000000002,-1.283413,1.253647,0.114953,0.958989,0.259083,2.077656,-0.12247100000000001,1.0130569999999999,0.290275,0.225948,-0.198536
749,2.642121,-1.316517,1.167724,0.12047999999999999,0.9678450000000001,0.22081399999999998,1.8746169999999998,0.27823600000000004,-0.182079,0.023365,0.26685,-0.160893
750,2.5896630000000003,-1.339621,1.1050959999999999,0.12013399999999999,0.973398,0.195097,1.104396,0.43609899999999996,0.434044,0.578597,-0.31250900000000004,0.002199
751,2.469445,-1.3449659999999999,0.976735,0.139422,0.974608,0.175207,0.9905139999999999,-0.071778,1.532032,0.561567,-0.80786,-0.022619
752,2.290668,-1.3263459999999998,0.8126800000000001,0.181971,0.9702709999999999,0.15955899999999998,0.520413,-1.329391,2.085835,0.11199,-0.451533,-0.045012
753,2.1411849999999997,-1.304697,0.684249,0.221336,0.9648040000000001,0.141991,0.7420869999999999,-1.06545,1.6896669999999998,-0.009438,-0.270773,0.012794
754,2.031857,-1.2840790000000002,0.579388,0.253271,0.9591770000000001,0.125817,0.701509,0.005727,1.5811879999999998,-0.073827,-0.084635,0.000281
755,1.960709,-1.259694,0.49495,0.28312800000000005,0.951997,0.116352,0.5874699999999999,0.59805,1.672568,-0.176805,0.124999,-0.133702
756,1.897248,-1.231143,0.42349799999999993,0.31556100000000004,0.9428700000000001,0.10683800000000002,0.58089,-0.100962,1.725761,-0.303553,0.425996,-0.143276
757,1.8349389999999999,-1.204114,0.368661,0.346083,0.933522,0.093602,0.425737,-0.716101,1.446659,-0.322371,0.242229,-0.112828
758,1.797834,-1.180043,0.347223,0.371107,0.924623,0.085734,-0.12011300000000001,-0.94515,1.12481,-0.29872,0.097884,-0.11698399999999999
759,1.780419,-1.16444,0.351477,0.38661,0.918567,0.08225,-0.263533,-1.130953,0.5621619999999999,-0.149015,-0.22362100000000001,-0.100363
760,1.7598490000000002,-1.1533069999999999,0.354324,0.39824,0.9141100000000001,0.076198,-0.087559,-1.152839,0.554873,-0.088364,-0.302309,-0.026545999999999997
761,1.7318759999999997,-1.141365,0.347175,0.410962,0.9092030000000001,0.066776,0.11650899999999999,-1.00793,0.636229,-0.058362,-0.23168200000000003,0.013287
762,1.7005860000000002,-1.129471,0.33115,0.423544,0.904186,0.055282000000000005,0.328019,-0.712517,0.63626,0.09081499999999999,-0.12829200000000002,0.06219500000000001
763,1.669994,-1.1171870000000002,0.307208,0.436057,0.8988709999999999,0.043398,0.520511,-0.302282,0.7097180000000001,0.097085,0.039620999999999996,0.057524
764,1.6363530000000002,-1.101947,0.27337100000000003,0.450888,0.8920889999999999,0.029601,0.7861600000000001,-0.137693,0.8780049999999999,0.030327999999999997,0.174028,0.054353
765,1.598425,-1.086186,0.234996,0.465684,0.884857,0.01287,0.835408,-0.225775,0.751344,-0.071336,0.353013,0.10720199999999999
766,1.567432,-1.074822,0.204434,0.47588400000000003,0.8795059999999999,-0.0016010000000000002,0.623541,-0.157909,0.48058500000000004,-0.013359999999999999,0.35548,0.3161
767,1.551136,-1.067774,0.18642,0.48198100000000005,0.876129,-0.009477,0.321259,0.036772000000000006,0.27633,0.08292999999999999,0.404983,0.350008
768,1.5478379999999998,-1.063685,0.180479,0.48552399999999996,0.874151,-0.011149,0.032271,0.182087,0.15128,0.247768,0.49242600000000003,0.190546
769,1.566308,-1.06515,0.19211099999999998,0.48436599999999996,0.8748610000000001,-0.0021739999999999997,-0.502307,0.495492,-0.237416,0.148477,0.5640270000000001,0.08564
770,1.603168,-1.073118,0.22364099999999998,0.477134,0.8786930000000001,0.015451,-0.843993,0.45069499999999996,-0.45979899999999996,0.193459,0.20407,0.22131900000000002
771,1.6544590000000001,-1.082249,0.264621,0.46770100000000003,0.883016,0.039221,-0.996634,1.054541,-0.552438,0.215802,0.09800199999999999,0.22632800000000003
772,1.7235880000000001,-1.092927,0.308159,0.45453000000000005,0.887977,0.069994,-0.8403719999999999,1.708753,-0.720964,0.196929,0.170449,-0.025544999999999998
773,1.77455,-1.109521,0.333569,0.435882,0.895486,0.090062,-0.17158900000000002,1.306294,-1.087518,0.047776,0.171714,0.08011900000000001
774,1.8208810000000002,-1.139859,0.34426799999999996,0.40472600000000003,0.908575,0.10338,0.254716,2.137597,-1.8194740000000003,0.022321,0.182032,0.061354
775,1.8781919999999999,-1.1848049999999999,0.361813,0.35882800000000004,0.926426,0.11391300000000001,0.27963899999999997,1.814139,-2.469432,0.01489,0.259594,0.056635000000000005
776,1.9425560000000002,-1.2347190000000001,0.403756,0.307255,0.9440559999999999,0.119795,-0.049893,1.01043,-2.5935490000000003,0.144191,0.26882,0.121797
777,2.043091,-1.269034,0.49435500000000004,0.264664,0.9548139999999999,0.135205,-0.9125709999999999,0.47229499999999996,-1.804129,0.376083,-0.13943,-0.210934
778,2.172485,-1.278891,0.62848,0.23723400000000003,0.9576969999999999,0.16289,-1.731395,-0.09571,-1.308124,0.429208,-0.20461500000000002,-0.254809
779,2.339,-1.274589,0.800875,0.209916,0.95645,0.202818,-2.2171369999999997,0.305374,-1.554518,0.42373599999999995,-0.14691099999999999,-0.06555
780,2.554637,-1.262968,1.005875,0.167802,0.952994,0.252275,-2.489043,1.374121,-2.185901,0.179168,-0.068991,-0.075883
781,2.767865,-1.241731,1.202415,0.11798,0.9463450000000001,0.300848,-2.134139,1.086196,-2.1520740000000003,0.086641,-0.27932199999999996,-0.101156
782,2.8925,-1.225293,1.3190879999999998,0.08349,0.9409049999999999,0.328214,-0.888865,0.643462,-1.2070459999999998,0.149146,-0.434237,-0.031522
783,2.966897,-1.22097,1.379969,0.059569000000000004,0.9394319999999999,0.337514,-0.353724,1.0750540000000002,-0.911169,0.19856400000000002,-0.531061,-0.067113
784,3.042456,-1.211893,1.433062,0.034763999999999996,0.936283,0.349518,-0.717079,1.29635,-0.7922130000000001,0.166271,-0.516208,-0.132156
785,3.1029430000000002,-1.196374,1.47149,0.014131999999999999,0.9307190000000001,0.365456,-0.8530280000000001,1.1851200000000002,-0.564421,0.05218300000000001,-0.38004499999999997,-0.145043
786,-3.136097,-1.179109,1.494782,-0.002098,0.924266,0.381737,-0.848151,1.098862,-0.310039,-0.031609,-0.238231,-0.179787
787,-3.108676,-1.164228,1.502912,-0.013015,0.9184829999999999,0.39524000000000004,-0.663305,0.9214950000000001,-0.071375,-0.026857,-0.130748,-0.245567
788,-3.102893,-1.153506,1.4948620000000001,-0.01568,0.91419,0.404976,-0.459924,0.49423999999999996,0.30446999999999996,-0.10928900000000001,-0.088354,-0.24716999999999997
789,-3.125175,-1.148461,1.468133,-0.006729000000000001,0.912134,0.40983,-0.11433199999999999,-0.099696,0.681523,-0.164414,-0.197016,-0.16334
790,3.116357,-1.157533,1.429865,0.010134,0.9158149999999999,0.401467,0.8917299999999999,-0.46903100000000003,0.795846,-0.357317,-0.304304,-0.298134
791,3.058589,-1.1915149999999999,1.383407,0.030697000000000002,0.928931,0.368973,2.248884,-0.934998,0.795241,-0.48818599999999995,-0.48897399999999996,-0.153855
792,2.985262,-1.2435610000000001,1.323244,0.050044,0.9469350000000001,0.317502,2.837533,-0.642546,0.676132,-0.260859,-0.516133,-0.042371
793,2.90415,-1.286612,1.224313,0.065948,0.9598909999999999,0.272502,1.869393,1.9038099999999998,1.427749,0.3098,-0.06175800000000001,0.027363
794,2.763439,-1.2968979999999999,1.041431,0.099863,0.962724,0.25137,1.009835,0.790964,2.612102,1.0912540000000002,1.6967759999999998,-0.139706
795,2.540006,-1.298516,0.8348260000000001,0.152196,0.96316,0.22170900000000002,1.6674919999999998,-1.81682,2.039993,0.828364,0.8522540000000001,0.009675
796,2.378918,-1.306914,0.692008,0.18019200000000002,0.965385,0.188573,1.274482,-0.774992,0.787161,0.072936,-0.145332,-0.135656
797,2.305719,-1.308697,0.62502,0.192224,0.9658479999999999,0.173736,0.3444,-0.240308,0.549243,-0.013529,-0.322354,-0.10594200000000001
