,attitude.roll,attitude.pitch,attitude.yaw,gravity.x,gravity.y,gravity.z,rotationRate.x,rotationRate.y,rotationRate.z,userAcceleration.x,userAcceleration.y,userAcceleration.z
0,-2.3837099999999998,-0.364448,2.8724220000000003,-0.642238,0.35643400000000003,0.6785909999999999,0.013097,0.408688,1.275671,-0.172673,-0.692692,0.126677
1,-2.376645,-0.390217,2.85555,-0.640441,0.380389,0.667187,0.833404,0.6508149999999999,1.552419,-0.449402,-0.718554,-0.125424
2,-2.360475,-0.437877,2.854862,-0.6376470000000001,0.424018,0.643129,2.09367,0.962859,1.811854,-0.45601099999999994,-0.825034,-0.523546
3,-2.3370580000000003,-0.498475,2.863122,-0.632831,0.478087,0.609063,2.560014,0.667661,1.969314,-0.373623,-0.764677,-0.53074
4,-2.33715,-0.5624819999999999,2.865059,-0.609448,0.533287,0.586667,2.34395,0.290529,2.428691,0.09422,0.387153,0.087787
5,-2.2823130000000003,-0.655026,2.8865380000000003,-0.600621,0.60918,0.517837,3.8230269999999997,2.5036259999999997,3.146554,1.226582,1.416028,-0.540832
6,-2.262255,-0.734827,2.8844939999999997,-0.571534,0.670459,0.47311099999999995,2.3824959999999997,1.035124,2.669425,0.959519,1.7378360000000002,0.25336
7,-2.200195,-0.792133,2.911598,-0.567749,0.711853,0.41343199999999997,2.479083,2.405974,1.295678,0.041107,0.381515,-0.23478200000000002
8,-2.133524,-0.8352290000000001,2.945863,-0.567541,0.74145,0.35798,1.982321,1.879895,1.1497620000000002,0.13702899999999998,0.18959600000000001,0.000998
9,-2.078852,-0.879915,2.972526,-0.5567310000000001,0.7706850000000001,0.30999299999999996,1.9323970000000001,1.755393,1.6911619999999998,0.06213200000000001,0.208273,0.052128999999999995
10,-2.018463,-0.937308,2.998417,-0.533628,0.805967,0.256238,2.043533,2.138408,2.513978,-0.011918999999999999,0.155047,0.06488300000000001
11,-1.9581709999999999,-1.0063549999999999,3.01852,-0.495307,0.844888,0.20207999999999998,1.7594560000000001,2.130871,3.0461139999999998,0.102698,0.102576,0.109444
12,-1.9122290000000002,-1.07103,3.030404,-0.451558,0.8776950000000001,0.160461,1.295139,1.5827959999999999,2.780791,0.280934,-0.025567,0.218018
13,-1.8688619999999998,-1.125122,3.043541,-0.412059,0.9023200000000001,0.126592,1.043934,1.699618,2.289641,0.336375,0.027047,0.275721
14,-1.8162639999999999,-1.171111,3.051844,-0.37746399999999997,0.921183,0.09456200000000001,0.610012,2.592202,2.16262,0.185997,0.207814,0.24407600000000002
15,-1.7719200000000002,-1.215549,3.04562,-0.34081100000000003,0.9375600000000001,0.069485,0.277621,2.224772,2.161838,-0.141427,0.315766,0.09798
16,-1.758686,-1.2543879999999998,3.02684,-0.30568,0.9503590000000001,0.058120000000000005,-0.118344,1.134567,1.8132970000000002,-0.391266,0.24292399999999997,-0.06272799999999999
17,-1.811991,-1.2816450000000001,2.966999,-0.276885,0.9584860000000001,0.068109,-0.8112590000000001,-0.367543,1.367069,-0.587052,-0.078649,-0.158914
18,-1.905973,-1.299718,2.883843,-0.25287,0.963483,0.08807899999999999,-0.7977449999999999,-0.68833,1.12402,-0.558272,-0.531979,-0.011968000000000001
19,-1.998429,-1.314916,2.802233,-0.230305,0.967441,0.10496400000000002,-0.6636989999999999,-0.822823,1.0749229999999999,-0.471919,-0.6786840000000001,-0.08219800000000001
20,-2.091494,-1.3259239999999999,2.7286040000000003,-0.21030300000000002,0.970168,0.12060699999999999,-0.47555699999999995,-1.04914,0.765674,-0.222421,-0.86534,-0.5560470000000001
21,-2.153871,-1.330193,2.67423,-0.198917,0.971194,0.1312,-0.529329,-0.071743,0.411533,-0.20988099999999998,-0.92876,-0.549901
22,-2.211974,-1.325653,2.6037779999999997,-0.194494,0.970102,0.14516600000000002,-0.9334450000000001,0.742163,0.220728,-0.020548,-0.872965,0.17313199999999998
23,-2.236054,-1.317568,2.5644709999999997,-0.197107,0.968109,0.154643,-0.314304,0.663821,-0.171157,0.24573699999999998,-0.49021899999999996,0.673833
24,-2.1784830000000004,-1.3171950000000001,2.588107,-0.205975,0.968015,0.143252,0.449668,2.616858,-0.130935,0.356823,-0.095853,-0.199633
25,-2.096061,-1.326318,2.61388,-0.209419,0.9702639999999999,0.121374,0.502607,2.4956840000000002,0.55432,0.134209,0.078763,-0.719381
26,-2.073455,-1.359528,2.595629,-0.18376099999999998,0.977766,0.101025,0.763804,2.188848,2.199463,-0.287842,0.52727,0.097691
27,-2.062908,-1.424001,2.5505970000000002,-0.128913,0.989245,0.06911,1.4723190000000002,2.667439,3.377775,-0.48166800000000004,1.17851,-0.581943
28,-1.986639,-1.504363,2.584102,-0.060726999999999996,0.9977940000000001,0.026817,2.101366,1.7029889999999999,3.459248,-1.07555,1.971353,-0.1874
29,-0.375131,-1.5487360000000001,-2.075071,-0.008083,0.999757,-0.020526,2.528497,-1.6286209999999999,2.414302,-1.483113,1.318252,-0.12431099999999999
30,0.46511,-1.482708,-1.1992180000000001,0.039458999999999994,0.996123,-0.07862999999999999,2.99527,-1.85352,2.307824,-1.516769,0.738496,0.17646900000000001
31,0.47546499999999997,-1.4173870000000002,-1.128796,0.069949,0.9882559999999999,-0.13585899999999998,2.5047639999999998,-3.860469,1.660696,-1.262377,0.852992,0.371348
32,0.42752299999999993,-1.3661780000000001,-1.092914,0.084248,0.979139,-0.18490499999999999,1.9380169999999999,-4.100722,1.228688,-0.271366,1.5190299999999999,0.71022
33,0.381521,-1.3395489999999999,-1.059587,0.085336,0.9733809999999999,-0.212713,0.277818,-3.497203,0.660842,0.006187,0.324623,0.48906499999999997
34,0.41163299999999997,-1.365466,-0.9922979999999999,0.081578,0.978994,-0.186859,-2.462989,-0.583313,-0.24866,-0.310093,0.201655,0.616729
35,0.440974,-1.433028,-0.9967370000000001,0.058616999999999995,0.990525,-0.124195,-3.250798,2.964516,-2.075755,-0.44091,0.598388,0.846608
36,0.196242,-1.522055,-1.332531,0.0095,0.998812,-0.047787,-3.9066629999999996,5.176641,-3.2571470000000002,-0.20228,0.25813,0.9091610000000001
37,-1.9779330000000002,-1.499158,2.680308,-0.06572599999999999,0.9974350000000001,0.028343,-3.863324,3.810838,-4.06267,-0.028176999999999997,0.095796,0.71035
38,-2.12893,-1.397071,2.501759,-0.146621,0.9849479999999999,0.091543,-2.7798279999999997,0.060940999999999995,-3.905018,0.33370900000000003,0.547447,0.001322
39,-2.111459,-1.3070709999999999,2.533341,-0.22349699999999997,0.965426,0.134172,-1.8169669999999998,-0.737466,-4.343786,0.6880970000000001,0.833357,-0.689958
40,-2.073142,-1.19177,2.596623,-0.324303,0.929025,0.17815599999999998,-2.204756,-1.686608,-6.140959,0.559013,0.45493199999999995,-1.510416
41,-2.096803,-1.0466790000000001,2.626728,-0.43279799999999996,0.865766,0.251267,-3.646926,-2.520509,-6.806921000000001,-0.093173,-0.074476,-1.001328
42,-2.137477,-0.880919,2.60721,-0.536959,0.771324,0.34166399999999997,-5.318302,-0.506595,-6.559463,-0.078321,0.366539,0.5756180000000001
43,-2.1470119999999997,-0.731755,2.589184,-0.623869,0.668176,0.40537399999999996,-3.7019589999999996,0.171192,-5.632505999999999,0.37956100000000004,0.522543,-0.146951
44,-2.157856,-0.611096,2.607018,-0.681894,0.573765,0.453668,-2.443301,-1.804845,-5.404333,0.512674,0.483425,-0.596643
45,-2.199066,-0.49570600000000004,2.6310439999999997,-0.7116640000000001,0.475652,0.517001,-2.424144,-2.924719,-5.087639,0.49990200000000007,-0.565496,-0.7248100000000001
46,-2.242369,-0.403544,2.648557,-0.719962,0.392681,0.572239,-1.975123,-2.4357830000000003,-3.6077779999999997,0.665549,-0.6114310000000001,-0.668659
47,-2.292693,-0.340997,2.6613919999999998,-0.707338,0.334427,0.622761,-1.2247379999999999,-2.95072,-2.293305,0.782991,-0.607467,-0.505467
48,-2.350906,-0.305505,2.6733439999999997,-0.677921,0.300775,0.670788,-0.622559,-3.135415,-1.3840780000000001,0.7489359999999999,-0.43499099999999996,-0.66557
49,-2.402629,-0.281481,2.683333,-0.647016,0.277779,0.7100770000000001,-0.475146,-2.3381060000000002,-1.099923,0.900418,-0.373985,-0.8319639999999999
50,-2.4452409999999998,-0.269381,2.689315,-0.618291,0.26613400000000004,0.73952,-0.037391,-2.325103,-0.203848,1.092,-0.694662,-0.8548610000000001
51,-2.482018,-0.284001,2.690931,-0.588234,0.280198,0.7585970000000001,0.950051,-1.3975229999999998,0.606232,0.664299,-0.8315290000000001,-0.522666
52,-2.488182,-0.307927,2.691118,-0.5793050000000001,0.303083,0.756668,0.885666,0.384092,0.809666,-0.036829,-0.7503029999999999,0.233002
53,-2.453795,-0.336534,2.691275,-0.599226,0.330217,0.729304,1.361918,2.659806,0.858146,-1.122301,-0.5777,0.231008
54,-2.381975,-0.376681,2.698608,-0.640364,0.367836,0.6742630000000001,2.015127,3.438572,1.344547,-1.377535,-0.627221,-0.253929
55,-2.345111,-0.445197,2.710748,-0.645216,0.43063599999999996,0.631069,3.3272480000000004,0.618658,2.368932,-0.528825,-0.865267,-0.68121
56,-2.349519,-0.516185,2.715663,-0.6190680000000001,0.493566,0.610858,1.558259,-0.742364,2.204496,-0.5393939999999999,-0.331563,1.014066
57,-2.3765080000000003,-0.552804,2.701921,-0.589439,0.525076,0.613887,1.60976,0.372176,1.828482,-0.013146000000000001,1.209864,0.743795
58,-2.31294,-0.640774,2.722659,-0.590821,0.597816,0.5418,3.850825,1.8672,2.970262,1.7297060000000002,1.641487,-0.973928
59,-2.3011169999999996,-0.710205,2.715957,-0.56485,0.651989,0.5058199999999999,1.690848,1.274589,2.257333,0.88144,0.32016300000000003,0.058816
60,-2.256005,-0.76321,2.724728,-0.559516,0.691245,0.45729899999999996,2.138379,2.298823,1.744264,0.003333,-0.053962,-0.033958999999999996
61,-2.1860939999999998,-0.8164319999999999,2.742203,-0.55923,0.728707,0.395283,1.988018,2.752238,1.7063130000000002,0.059351999999999995,0.19200899999999999,-0.281315
62,-2.1289279999999997,-0.86867,2.760237,-0.547833,0.763471,0.34204,1.927872,1.980116,1.9739380000000002,0.15965,0.294162,-0.261549
63,-2.082965,-0.9265770000000001,2.776613,-0.523511,0.799569,0.294323,1.9754169999999998,1.363528,2.413031,0.088986,0.232001,-0.08164600000000001
64,-2.039214,-0.994367,2.797497,-0.486324,0.838414,0.246069,2.1126709999999997,1.439219,2.8123400000000003,0.029797000000000004,0.151133,-0.137777
65,-1.992739,-1.057704,2.814788,-0.447822,0.871231,0.20102899999999999,1.514127,1.65008,2.548311,-0.029718,-0.03157,-0.124109
66,-1.959207,-1.118499,2.800784,-0.404479,0.899445,0.165512,0.358101,2.831068,3.383686,-0.19134600000000002,-0.144715,-0.079972
67,-1.953269,-1.179822,2.7713959999999997,-0.353554,0.924538,0.142229,1.145253,0.766099,2.5522080000000003,0.722572,0.207801,0.13813599999999998
68,-1.8824900000000002,-1.22919,2.818441,-0.318859,0.942218,0.10273499999999999,1.6809020000000001,1.9071930000000001,1.7768220000000001,0.42745600000000006,0.016706,0.044664999999999996
69,-1.798959,-1.2715319999999999,2.873297,-0.28717600000000004,0.9555540000000001,0.06668400000000001,1.194131,1.092106,1.9699509999999998,-0.09374400000000001,-0.129107,-0.218662
70,-1.7655509999999999,-1.315726,2.899194,-0.24754400000000001,0.9676450000000001,0.048829000000000004,0.5359470000000001,0.040376999999999996,2.083138,-0.544097,0.08595900000000001,-0.04094
71,-1.7868990000000002,-1.347954,2.87977,-0.215862,0.975273,0.047388,-0.11798499999999999,-0.020215,1.287095,-0.907856,0.067314,0.047124
72,-1.834947,-1.3626479999999999,2.822629,-0.199481,0.9784149999999999,0.053953999999999995,-0.653971,0.505935,0.711178,-0.8405879999999999,-0.18295899999999998,-0.049559
73,-1.9624979999999999,-1.3677290000000002,2.694105,-0.1864,0.979453,0.07699099999999999,-1.360117,-0.5117430000000001,0.609273,-0.308321,-0.21315599999999998,-0.017253
74,-2.074605,-1.363795,2.585007,-0.17999,0.9786520000000001,0.099221,-0.8406,0.375929,0.085131,0.117352,-0.413497,0.06298
75,-2.075256,-1.35743,2.5482150000000003,-0.185375,0.977324,0.10234700000000001,-0.315603,2.3838060000000003,-0.061189,0.17245,-0.5343760000000001,-0.062659
76,-2.052559,-1.363277,2.521388,-0.182583,0.9785450000000001,0.095464,-0.008876,2.286037,0.6781520000000001,0.22311,-0.579299,-0.14339200000000002
77,-2.042826,-1.379139,2.49094,-0.169656,0.98169,0.086613,0.12281600000000001,1.843884,0.846281,0.07413600000000001,-0.530015,-0.252751
78,-2.000239,-1.3951870000000002,2.501728,-0.158844,0.98462,0.072742,0.7495029999999999,1.4050610000000001,0.5521189999999999,0.038238999999999995,-0.405763,-0.726276
79,-1.909621,-1.4076540000000002,2.559015,-0.153186,0.986722,0.053985000000000005,0.39675900000000003,2.261372,0.368028,-0.08584299999999999,-0.39269699999999996,-0.508026
80,-1.821247,-1.424399,2.598119,-0.141323,0.989303,0.036154,0.8058569999999999,2.121824,1.077159,-0.296085,0.690995,-0.182501
81,-1.6950169999999998,-1.465748,2.695135,-0.104048,0.9944879999999999,0.012991999999999998,0.977891,1.302288,2.343117,-0.110873,1.119969,-0.10906099999999999
82,-1.362746,-1.517464,3.012995,-0.052159000000000004,0.9985780000000001,-0.011011,1.28482,0.325345,2.6306599999999998,-0.114223,1.114291,-0.097983
83,-0.003171,-1.523144,-1.899218,-0.000151,0.998865,-0.047633,2.1661650000000003,-0.9300219999999999,2.783703,-0.844942,0.752981,-0.08478200000000001
84,0.533277,-1.453531,-1.34378,0.059476,0.993132,-0.100752,2.923736,-0.869873,3.0687919999999997,-0.83444,0.647981,0.254606
85,0.607019,-1.371233,-1.244333,0.113081,0.980153,-0.162826,2.962069,-1.518237,2.6725119999999998,-0.677535,0.9144540000000001,0.23953200000000002
86,0.583083,-1.306265,-1.2260209999999998,0.143958,0.9652149999999999,-0.218256,2.31105,-2.392668,1.599795,-0.714332,1.1883489999999999,0.426188
87,0.5267850000000001,-1.260039,-1.230062,0.15373299999999998,0.952102,-0.264325,1.8015830000000002,-2.509497,0.889223,-0.38606399999999996,0.773255,0.80914
88,0.481991,-1.237439,-1.254717,0.15168,0.9449489999999999,-0.289939,0.604183,-0.0691,-0.164852,-0.12926400000000002,0.24171199999999998,0.7429720000000001
89,0.506894,-1.2559360000000002,-1.263531,0.15034,0.95084,-0.27074299999999996,-1.4968299999999999,2.662004,-0.9403969999999999,-0.084163,0.388913,0.736746
90,0.533151,-1.318418,-1.300345,0.126914,0.9683209999999999,-0.21505100000000002,-2.882111,3.0335919999999996,-2.619112,-0.519065,0.469286,0.30668
91,0.46019499999999997,-1.403067,-1.436269,0.074144,0.985966,-0.149577,-2.998453,3.089748,-3.506621,-0.604722,0.143901,0.5118199999999999
92,0.092288,-1.476953,-1.8769360000000002,0.008636,0.9956,-0.093307,-2.42442,3.7759519999999998,-3.779092,0.139726,-0.153574,1.316406
93,-0.7390979999999999,-1.4905760000000001,-2.77069,-0.053979,0.996784,-0.059225,-1.378205,1.445534,-2.923834,1.285852,0.600643,-0.6136729999999999
94,-1.022041,-1.473883,-3.030221,-0.082554,0.995308,-0.050473000000000004,0.261048,-1.7666220000000001,-0.531474,1.541569,0.617394,-1.402591
95,-1.111148,-1.464817,-3.088324,-0.094802,0.994389,-0.046928,-0.5992109999999999,-1.422627,-0.8284799999999999,1.091445,0.028789,-0.6708609999999999
96,-1.575744,-1.436328,2.742429,-0.134062,0.990973,0.000663,-3.444936,-0.371492,-2.814165,0.593855,-0.12212200000000001,-0.065589
97,-1.928145,-1.333872,2.364627,-0.21988600000000003,0.972065,0.082101,-4.136006,1.858468,-4.694443,-0.615975,0.101742,0.827003
98,-1.959825,-1.2563090000000001,2.288527,-0.286215,0.9509549999999999,0.117325,-1.503199,2.3931869999999997,-2.172825,0.116995,-0.021268000000000002,-0.06503300000000001
99,-1.9404919999999999,-1.214019,2.2439880000000003,-0.32566,0.937027,0.126197,-1.722745,3.110225,-1.743716,0.50112,-0.037766,-0.488105
100,-1.959893,-1.164043,2.177059,-0.366057,0.9184100000000001,0.150083,-2.1987099999999997,1.348074,-1.817421,0.537337,-0.324004,-0.30439499999999997
101,-2.01116,-1.11404,2.107859,-0.398962,0.897488,0.188001,-2.371341,0.32765500000000003,-1.696611,0.27736500000000003,-0.344219,-0.097913
102,-2.057493,-1.062967,2.051111,-0.429816,0.8738020000000001,0.227438,-2.296678,0.122715,-1.659507,0.385352,-0.324104,-0.41135200000000005
103,-2.10772,-1.0131629999999998,1.996066,-0.454717,0.84851,0.270673,-2.565639,-0.302642,-1.3489200000000001,0.666875,-0.339812,-0.491116
104,-2.16595,-0.965723,1.9377810000000002,-0.47102,0.8224600000000001,0.318902,-2.553229,-0.542604,-1.0248540000000002,0.724743,-0.641216,-0.292139
105,-2.203761,-0.927212,1.8968189999999998,-0.48382,0.79995,0.354962,-1.779577,0.126247,-0.861142,0.661463,-0.864174,-0.184186
106,-2.19972,-0.896915,1.875203,-0.5046229999999999,0.781406,0.367097,-1.28511,1.5780040000000002,-0.703588,0.521713,-1.056247,-0.46193100000000004
107,-2.180275,-0.8809790000000001,1.846259,-0.5218109999999999,0.771362,0.364299,-1.189114,2.314095,0.28104,0.43596499999999994,-1.1730040000000002,-0.5699569999999999
108,-2.167895,-0.8817370000000001,1.8050259999999998,-0.5257970000000001,0.771844,0.357482,-0.930168,1.9897509999999998,0.9797450000000001,0.48072299999999996,-0.981943,-0.457916
109,-2.172185,-0.8951389999999999,1.769425,-0.515683,0.780296,0.35385,-0.292323,0.615222,1.3064280000000001,0.23498200000000002,-0.866539,-0.361235
110,-2.195759,-0.921841,1.7482990000000003,-0.490122,0.796715,0.353588,0.569325,-0.9099079999999999,1.536604,-0.17932599999999999,-0.729302,0.102497
111,-2.242844,-0.95645,1.738046,-0.45108000000000004,0.81715,0.35887600000000003,0.746424,-2.5023310000000003,1.608248,-0.881439,-0.5005609999999999,0.940608
112,-2.28516,-0.9858899999999999,1.7248299999999999,-0.417134,0.833764,0.361715,1.0919969999999999,0.073094,0.8799030000000001,-1.800609,0.19297,0.674845
113,-2.165946,-1.0121930000000001,1.7917830000000001,-0.43887600000000004,0.8479959999999999,0.297136,2.4610819999999998,4.4181989999999995,-0.532564,-0.866574,0.558177,0.328474
114,-2.0072200000000002,-1.004785,1.872326,-0.486004,0.8440469999999999,0.22668200000000002,0.9172540000000001,4.111155,-1.7949110000000001,-0.31499099999999997,1.099129,0.679904
115,-1.969501,-0.9741540000000001,1.887211,-0.517798,0.827227,0.218131,-0.18079,-0.486522,-1.123709,0.336997,0.343519,0.048776
116,-1.960029,-0.980718,1.9257689999999998,-0.514806,0.8308969999999999,0.211152,1.8769919999999998,-0.8834639999999999,0.451845,0.9576309999999999,-0.420009,-0.602463
117,-1.889231,-1.029413,1.9949119999999998,-0.489415,0.8569969999999999,0.16133699999999998,2.8237759999999996,1.421226,2.433852,1.515248,-0.261294,-0.255789
118,-1.8548740000000001,-1.102457,2.046928,-0.433313,0.8923190000000001,0.12651700000000002,1.309877,-2.382556,3.133178,1.453333,1.027008,0.101633
119,-1.85401,-1.130552,2.059136,-0.409184,0.904647,0.11908699999999998,1.0172729999999999,1.8132259999999998,0.01296,-0.206921,2.591279,-1.152352
120,-1.7522529999999998,-1.11014,2.098289,-0.437238,0.895761,0.080222,-0.014780000000000001,3.657916,-1.3959840000000001,-0.093677,1.822318,-0.7322609999999999
121,-1.6991900000000002,-1.093381,2.073688,-0.45570299999999997,0.888186,0.058833,-0.867983,3.6680639999999998,-0.265368,0.744552,0.13841099999999998,0.245763
122,-1.657025,-1.105916,2.058687,-0.44665,0.893875,0.038610000000000005,0.291179,2.439291,1.252632,1.455042,-0.287048,-0.159307
123,-1.5333,-1.1491069999999999,2.107917,-0.409015,0.912399,-0.015344,1.37737,5.356848,2.498823,1.568851,-0.500595,-0.47792700000000005
124,-1.327768,-1.18731,2.178646,-0.363161,0.927366,-0.09003799999999999,0.945508,7.289331,1.524453,1.2187370000000002,-0.31408400000000003,-0.836003
125,-1.166201,-1.194418,2.240389,-0.337879,0.930002,-0.14468699999999998,1.034159,3.5884699999999996,0.407113,0.382939,0.324378,-1.3455629999999998
126,-1.088141,-1.194706,2.285828,-0.32533,0.930108,-0.17047,0.42454,1.31003,0.356636,-0.459704,0.9206770000000001,-1.0453350000000001
127,-1.037834,-1.195694,2.250875,-0.31555500000000003,0.93047,-0.186147,-1.015599,5.7816160000000005,-0.680373,-1.5887120000000001,0.466167,-0.567729
128,-1.013833,-1.200297,2.1759310000000003,-0.307358,0.932147,-0.1914,-1.4776340000000001,3.860646,-0.211121,-1.1267399999999999,-0.654986,-1.228049
129,-0.996683,-1.2166139999999999,2.10162,-0.291219,0.9379299999999999,-0.188357,-1.445006,5.027755,-0.131204,-0.764506,-0.795169,-0.569547
130,-0.9359629999999999,-1.219342,2.043382,-0.27719099999999997,0.938873,-0.204163,-0.530683,6.0159650000000005,-0.5651229999999999,-0.629761,-0.766189,-0.47595200000000004
131,-0.832608,-1.211959,2.0222580000000003,-0.259768,0.936306,-0.23633,0.13526,6.1889,-0.433575,-0.33810100000000004,-0.48234099999999996,0.476076
132,-0.744776,-1.2054799999999999,2.004569,-0.242143,0.934011,-0.26266100000000003,-0.149571,4.23854,-0.492885,-0.270049,-0.23650100000000002,0.418789
133,-0.6909890000000001,-1.206819,1.995339,-0.226875,0.9344879999999999,-0.274334,-0.045987,3.076277,0.227173,-0.258156,-0.278269,0.286114
134,-0.592778,-1.209663,2.019126,-0.197397,0.9354969999999999,-0.293053,0.181505,4.0896989999999995,0.47635900000000003,-0.075171,-0.524135,-0.167244
135,-0.48092299999999993,-1.213085,2.05038,-0.16197,0.9367,-0.31041599999999997,0.09216,4.0564089999999995,0.619987,-0.082384,-0.451913,-0.017572
136,-0.369937,-1.217892,2.094265,-0.124963,0.9383729999999999,-0.322243,0.119948,2.963116,0.942049,-0.274665,0.20591399999999999,0.472512
137,-0.28070100000000003,-1.222575,2.152284,-0.09452999999999999,0.939981,-0.327871,0.047375,1.08412,0.9674510000000001,-0.6112810000000001,1.3359590000000001,0.394216
138,-0.202486,-1.22859,2.211806,-0.067484,0.942017,-0.32871,-0.09487999999999999,1.400364,1.126285,-0.382833,0.608963,0.727209
139,-0.126977,-1.2367920000000001,2.26342,-0.041514999999999996,0.944737,-0.325189,-0.365772,1.0820299999999998,0.7829699999999999,-0.423329,0.681621,0.535272
140,-0.075305,-1.245935,2.299172,-0.024013,0.9476950000000001,-0.31827300000000003,-0.436404,0.9949709999999999,0.50485,-0.6688430000000001,0.724272,0.34938600000000003
141,-0.026749000000000002,-1.257687,2.319866,-0.008237999999999999,0.9513809999999999,-0.307908,-0.656576,1.622002,0.2675,-0.686388,0.691503,0.358506
142,0.0010279999999999998,-1.274921,2.3221529999999997,0.0003,0.9565469999999999,-0.291577,-0.9573520000000001,0.9972409999999999,-0.142929,-0.779413,0.9528459999999999,0.17158199999999998
143,-0.026410000000000003,-1.298848,2.274064,-0.007093,0.963249,-0.268515,-1.4103809999999999,1.171678,-1.0137129999999999,-0.480746,0.8864059999999999,0.39501
144,-0.145582,-1.336048,2.122893,-0.033742,0.9725729999999999,-0.23013699999999998,-2.403562,1.223471,-2.180806,-0.29481,0.770438,0.538975
145,-0.451771,-1.3734110000000002,1.799655,-0.085612,0.980583,-0.176432,-2.861277,0.152478,-3.016912,0.067439,1.0495379999999999,0.335093
146,-0.912008,-1.377263,1.327288,-0.15208,0.981331,-0.11773499999999999,-3.218544,0.276593,-3.6412720000000003,0.168468,1.107353,0.17494
147,-1.347953,-1.334017,0.867351,-0.228773,0.9720989999999999,-0.051842,-3.5356419999999997,0.88702,-4.170902,0.36404200000000003,1.097451,-0.067452
148,-1.589209,-1.2522280000000001,0.604047,-0.313154,0.949685,0.005767,-2.9062240000000004,0.317265,-4.491583,0.569395,0.936683,-0.160705
149,-1.717899,-1.1587370000000001,0.47698999999999997,-0.39617199999999997,0.916298,0.058702,-2.549626,-0.989185,-4.428666000000001,0.695915,0.9711989999999999,-0.191957
150,-1.8143610000000001,-1.0609030000000002,0.398171,-0.473678,0.8727959999999999,0.117708,-2.8456509999999997,-1.217777,-4.549014,0.8570709999999999,1.294089,-0.393511
151,-1.897173,-0.944628,0.31472,-0.555107,0.810279,0.187893,-4.551325,-0.36239299999999997,-5.192275,0.6464,1.285226,-0.9159510000000001
152,-1.9757689999999999,-0.803614,0.218171,-0.637965,0.719869,0.273475,-5.626598,-0.161396,-5.506623,0.523921,0.322596,-0.295631
153,-2.029692,-0.668315,0.146053,-0.703666,0.6196649999999999,0.347663,-4.841708000000001,-0.328444,-4.639939,0.790183,0.062602,-0.104621
154,-2.058321,-0.556107,0.10416099999999999,-0.750367,0.527884,0.397854,-3.74211,-0.06616699999999999,-4.050414,0.606034,0.010065000000000001,-0.360791
155,-2.079844,-0.452651,0.07677300000000001,-0.785269,0.43735100000000005,0.438266,-3.441159,-0.894279,-3.9468379999999996,0.636496,-0.170535,-0.622088
156,-2.123647,-0.354068,0.055958,-0.798242,0.34671599999999997,0.492542,-3.2110689999999997,-2.103227,-3.6488519999999998,0.946084,-0.201956,-0.7314189999999999
157,-2.171122,-0.265494,0.041925,-0.796241,0.262386,0.545118,-2.873672,-2.025434,-3.1498720000000002,0.981834,-0.197399,-0.736525
158,-2.207097,-0.186719,0.028458999999999998,-0.790319,0.185636,0.583896,-2.7055029999999998,-1.7886,-2.582843,0.9433959999999999,-0.139845,-0.746341
159,-2.250952,-0.12694,0.019939,-0.771219,0.126599,0.623854,-1.775068,-2.36084,-1.745602,0.78779,-0.165235,-0.561873
160,-2.297766,-0.091862,0.015046,-0.744041,0.09173300000000001,0.661806,-1.1126770000000001,-2.24093,-0.8726649999999999,0.824425,-0.479612,-0.5038779999999999
161,-2.342157,-0.073813,0.010295,-0.71501,0.073746,0.695214,-0.582335,-2.3548270000000002,-0.290896,0.719817,-0.96167,-0.5584640000000001
162,-2.386742,-0.073174,0.008745000000000001,-0.683346,0.07310900000000001,0.726425,0.29441999999999996,-1.9113930000000001,0.210315,0.22727600000000003,-0.894367,-0.204269
163,-2.392068,-0.096945,0.009370999999999999,-0.678092,0.09679299999999999,0.728576,1.16352,1.055048,1.141938,-0.515725,-0.567313,0.302598
164,-2.350283,-0.13499,0.004055,-0.704804,0.134581,0.69652,1.208974,2.154448,1.6258190000000001,-0.1884,-0.004423,-0.090914
165,-2.328918,-0.18062899999999998,0.00294,-0.7143149999999999,0.179649,0.676373,1.6656389999999999,0.569579,1.69727,-0.26652,0.020638,-0.047268
166,-2.313365,-0.228971,0.004342,-0.7175060000000001,0.226975,0.658535,2.009583,0.975002,1.777133,-0.654671,0.339599,0.11986199999999998
167,-2.303008,-0.292443,0.011472,-0.712122,0.28829299999999997,0.640133,2.511365,-0.289216,2.340938,0.246241,0.39302800000000004,0.42802799999999996
168,-2.298371,-0.374267,0.020408000000000003,-0.695094,0.365591,0.6190220000000001,3.426096,1.252357,2.849553,0.11121600000000001,0.779215,-0.612827
169,-2.260503,-0.460143,0.023361,-0.691195,0.444076,0.570128,2.061937,1.6034389999999998,3.3469800000000003,0.8699979999999999,0.728333,-0.409987
170,-2.235392,-0.53062,0.01441,-0.678926,0.5060680000000001,0.531935,2.123052,1.6509150000000001,2.611341,1.319948,0.6650590000000001,0.277941
171,-2.1870540000000003,-0.591424,0.02592,-0.6774399999999999,0.5575439999999999,0.479814,2.0979080000000003,2.287472,1.954461,0.528666,0.401365,-0.308778
172,-2.130925,-0.643809,0.040598,-0.677593,0.6002460000000001,0.42493800000000004,1.9379819999999999,2.435493,1.839923,0.298152,0.44171499999999997,-0.070232
173,-2.06822,-0.697122,0.058699,-0.6737810000000001,0.6420140000000001,0.36583699999999997,1.9336520000000001,2.628555,2.047948,0.367598,0.630401,-0.133278
174,-2.006875,-0.756948,0.075311,-0.658905,0.686706,0.30704899999999996,1.851219,2.412472,2.609534,0.196976,0.5917359999999999,-0.128277
175,-1.953393,-0.820665,0.08919500000000001,-0.632445,0.731599,0.254513,1.657036,2.029273,2.702672,0.06702999999999999,0.487288,-0.06216
176,-1.9044450000000002,-0.878545,0.10828099999999999,-0.603073,0.7698109999999999,0.209029,1.564591,1.527121,2.352293,-0.018341,0.032984,-0.10327
177,-1.861102,-0.9273600000000001,0.128667,-0.5748449999999999,0.8000390000000001,0.171732,1.174862,1.3646909999999999,2.018631,0.013184,-0.034138999999999996,-0.027110000000000002
178,-1.8196439999999998,-0.971241,0.14213299999999998,-0.546894,0.8255870000000001,0.13897400000000001,0.8727600000000001,1.607386,2.061074,0.086384,-0.030268,-0.005811
179,-1.7884790000000002,-1.034384,0.14522100000000002,-0.49899499999999997,0.859548,0.110371,0.647992,1.37421,2.22752,0.250582,0.097285,0.004161
180,-1.773062,-1.080659,0.14425,-0.46115,0.882268,0.094568,0.319644,0.40625500000000003,2.150624,0.181976,0.141703,0.001074
181,-1.789607,-1.117859,0.129269,-0.427174,0.899166,0.09499099999999999,-0.115252,-0.405454,1.721337,-0.17415899999999998,0.171345,-0.067998
182,-1.821777,-1.1418840000000001,0.101312,-0.402852,0.9094190000000001,0.10328599999999999,-0.368196,-0.2627,1.406397,-0.228358,-0.29809,-0.03015
183,-1.8625150000000001,-1.160874,0.060409000000000004,-0.3817,0.9171520000000001,0.114619,-0.679237,-0.161665,0.9191219999999999,-0.124984,-0.398048,-0.06801900000000001
184,-1.9123080000000001,-1.16611,0.013341,-0.370992,0.919226,0.131865,-0.842675,-0.520008,0.365101,0.043829,-0.5698300000000001,-0.158553
185,-1.962236,-1.164527,-0.024411000000000002,-0.365294,0.918601,0.15077100000000002,-0.6040800000000001,-0.640123,0.093457,0.15392899999999998,-0.606086,0.058717
186,-1.9660830000000002,-1.159808,-0.036243,-0.368708,0.916726,0.153843,-0.25416300000000003,0.71278,-0.21027600000000002,0.148844,-0.596765,0.035
187,-1.956435,-1.155237,-0.046436,-0.374053,0.914891,0.151853,-0.264031,1.0519889999999998,-0.04841,0.38363600000000003,-0.530262,-0.084913
188,-1.9504669999999997,-1.155462,-0.062769,-0.374762,0.914982,0.149541,-0.307669,1.099027,0.214007,0.560904,-0.34943,0.033442
189,-1.9251200000000002,-1.1592799999999999,-0.074301,-0.375152,0.916515,0.138782,-0.11208399999999999,2.2483470000000003,0.338883,0.38058400000000003,-0.064098,-0.32941
190,-1.8865180000000001,-1.171334,-0.091838,-0.3697,0.92127,0.120762,-0.018619999999999998,2.9552259999999997,0.905856,0.194941,0.25738,0.279598
191,-1.838368,-1.19679,-0.09550299999999999,-0.35234699999999997,0.9308709999999999,0.096595,0.45906499999999995,2.242989,1.448489,0.297507,0.615272,-0.025519
192,-1.775341,-1.2360719999999998,-0.082788,-0.32166,0.944501,0.066727,0.757017,2.975366,2.121543,0.269323,0.8514280000000001,-0.319108
193,-1.6882540000000001,-1.2885959999999999,-0.044661,-0.27655100000000005,0.9604450000000001,0.032632999999999995,1.2093450000000001,1.575175,2.632834,-0.7520899999999999,1.393925,-0.33271300000000004
194,-1.5681129999999999,-1.33392,0.084864,-0.23466700000000001,0.972076,-0.00063,2.171141,-1.117526,1.721128,-1.162611,1.649659,-0.185863
195,-1.3385340000000001,-1.3616059999999999,0.35739299999999996,-0.202092,0.9781989999999999,-0.047800999999999996,3.184592,-1.9916669999999999,2.061543,-1.556514,1.0547440000000001,-0.195745
196,-0.998898,-1.369996,0.749654,-0.167715,0.979907,-0.10795,3.5011550000000002,-2.702738,1.654469,-0.9171540000000001,0.854001,0.184839
197,-0.762325,-1.354091,1.064991,-0.148489,0.976611,-0.155505,2.579186,-3.834533,1.506337,-0.541147,1.084058,0.24777399999999997
198,-0.626278,-1.3461100000000001,1.2811860000000002,-0.130591,0.974864,-0.180516,1.339077,-3.725639,1.456943,0.066839,0.9698379999999999,0.572499
199,-0.6183569999999999,-1.351516,1.346333,-0.1261,0.9760540000000001,-0.177248,-0.580276,-1.8785060000000002,0.20630500000000002,0.026536,0.200871,0.630724
200,-0.788452,-1.364778,1.169665,-0.14509,0.9788530000000001,-0.144206,-2.26397,1.188041,-1.69907,-0.094122,0.5598890000000001,0.618266
201,-1.142204,-1.360767,0.7673399999999999,-0.189631,0.978025,-0.086646,-3.892331,2.309586,-2.90188,-0.067663,0.551623,0.60102
202,-1.5230059999999999,-1.3149309999999998,0.322335,-0.252794,0.9674450000000001,-0.01209,-4.43098,2.833041,-3.600658,-0.129195,0.20949600000000002,1.104269
203,-1.707197,-1.2368430000000001,0.089689,-0.324736,0.9447540000000001,0.044571,-2.882405,0.951023,-3.6921150000000003,0.434004,0.485544,0.401337
204,-1.7977490000000003,-1.163845,0.013396000000000002,-0.38566100000000003,0.9183319999999999,0.089061,-1.6628479999999999,-1.837789,-3.171549,1.0218459999999998,0.8219479999999999,-0.634487
205,-1.873589,-1.0838450000000002,-0.029517,-0.446646,0.883764,0.139532,-2.348763,-1.607752,-4.1583309999999996,1.279181,0.9121040000000001,-1.313711
206,-1.956219,-0.96215,-0.082286,-0.529813,0.8204229999999999,0.21495300000000003,-3.950597,-2.086938,-5.744534,0.69058,0.322842,-1.4698360000000001
207,-2.0255520000000002,-0.815253,-0.144886,-0.615997,0.727899,0.301182,-5.231364,-0.147587,-5.837149,0.266662,0.09516000000000001,-0.737797
208,-2.047082,-0.674871,-0.202012,-0.693889,0.624796,0.357977,-4.610656,1.128351,-4.978803,0.41497399999999995,0.246313,0.6237739999999999
209,-2.045467,-0.558994,-0.225766,-0.7540600000000001,0.530334,0.38747800000000004,-2.951701,0.275343,-4.622155,0.48405600000000004,0.20517,-0.260815
210,-2.077253,-0.45164899999999997,-0.234498,-0.786784,0.43645,0.436442,-2.997218,-2.362648,-4.490905000000001,0.353496,-0.096179,-0.9207709999999999
211,-2.145611,-0.348601,-0.248371,-0.7888109999999999,0.34158299999999997,0.5109779999999999,-3.191105,-3.2776620000000003,-3.805289,0.380486,-0.16314700000000001,-0.681128
212,-2.211226,-0.25921700000000003,-0.26051599999999997,-0.77505,0.256324,0.577577,-2.899131,-3.1132619999999998,-3.082402,0.56512,0.147866,-0.704637
213,-2.27946,-0.18668900000000002,-0.268985,-0.7460399999999999,0.185606,0.6395109999999999,-2.355184,-3.303721,-2.279329,0.877388,0.312029,-0.6421359999999999
214,-2.341137,-0.13317400000000001,-0.274032,-0.7113189999999999,0.13278099999999998,0.690214,-1.7745009999999999,-2.80245,-1.5997299999999999,0.819092,0.078981,-0.525907
215,-2.389321,-0.09274500000000001,-0.27749,-0.680362,0.092612,0.727001,-1.399553,-2.1720349999999997,-1.069149,0.826923,-0.256384,-0.541179
216,-2.434943,-0.073223,-0.277831,-0.64755,0.073157,0.7585029999999999,-0.268853,-2.289343,-0.42016800000000004,0.9663209999999999,-0.501197,-0.660984
217,-2.470407,-0.07728099999999999,-0.27084400000000003,-0.620059,0.077205,0.7807470000000001,0.692543,-1.308173,0.06492200000000001,0.5976279999999999,-1.022761,-0.40460300000000005
218,-2.467381,-0.096194,-0.268748,-0.621395,0.096045,0.7775880000000001,0.7209720000000001,0.8413930000000001,0.8784879999999999,-0.06966,-0.8967959999999999,0.051269
219,-2.434899,-0.12371199999999999,-0.276408,-0.64436,0.123396,0.7547010000000001,1.051323,1.867688,1.2822,-0.111392,-0.643386,0.315184
220,-2.390821,-0.17266900000000002,-0.276238,-0.672059,0.171812,0.72029,2.378082,2.478061,2.003189,-0.5651689999999999,-0.765119,0.18304600000000001
221,-2.3212759999999997,-0.259314,-0.26973800000000003,-0.70691,0.256417,0.659188,3.650547,3.748671,3.36175,0.16125499999999998,-0.943566,-0.500237
222,-2.278304,-0.345198,-0.283394,-0.715152,0.338383,0.6116,1.537511,0.519881,3.5797269999999997,0.61629,-0.7437630000000001,-0.18676500000000001
223,-2.2675520000000002,-0.421408,-0.287808,-0.699832,0.409045,0.585591,3.7027879999999995,2.676952,2.531343,1.148777,0.141507,0.993099
224,-2.216659,-0.50061,-0.24749000000000002,-0.700587,0.47996099999999997,0.52803,3.2680029999999998,0.805836,1.9666830000000002,0.758387,2.830876,-0.381393
225,-2.1995810000000002,-0.561344,-0.235165,-0.684634,0.532324,0.497903,1.944921,0.802879,1.988423,0.36985999999999997,2.604089,0.26052
226,-2.157835,-0.612178,-0.21427800000000002,-0.6813859999999999,0.574652,0.453309,2.1941200000000003,1.517132,1.3771579999999999,0.25859499999999996,0.706064,-0.324937
227,-2.122377,-0.654243,-0.188612,-0.675829,0.608559,0.41582600000000003,1.915957,0.9594309999999999,1.226378,0.337527,0.07611799999999999,-0.355599
228,-2.083192,-0.702828,-0.164021,-0.665025,0.646378,0.374082,2.248231,1.262363,1.904495,0.319673,-0.155304,0.06790399999999999
229,-2.038396,-0.768099,-0.133865,-0.642025,0.694769,0.32419000000000003,2.5981360000000002,1.223248,2.590652,0.392559,-0.11607999999999999,-0.11903599999999999
230,-1.9868439999999998,-0.840224,-0.103177,-0.610371,0.744793,0.26968600000000004,2.4230240000000003,1.676669,2.838811,0.42531199999999997,0.169025,-0.183612
231,-1.926382,-0.904048,-0.072361,-0.579747,0.785837,0.21530100000000002,1.903109,1.8613979999999999,2.382017,0.384327,0.276694,-0.10865799999999999
232,-1.8694240000000002,-0.95595,-0.044920999999999996,-0.551303,0.816862,0.169709,1.471351,1.6934330000000002,2.13673,0.349887,0.394945,-0.06288300000000001
233,-1.813793,-1.002948,-0.019556999999999998,-0.522019,0.84306,0.129406,1.213009,1.778964,2.017311,0.248887,0.33070700000000003,-0.040722
234,-1.76511,-1.043887,-0.001255,-0.4934,0.864366,0.0971,0.69491,1.4512639999999999,1.8325150000000001,0.150871,0.14677300000000001,-0.01957
235,-1.7437340000000001,-1.080917,0.004803,-0.463501,0.88239,0.080966,0.390692,0.423446,1.7868419999999998,0.048065,-0.006428,-0.036853
236,-1.7396340000000001,-1.116049,0.002897,-0.43299,0.898372,0.073808,0.171981,0.318106,1.6796950000000002,-0.009225,-0.326808,0.033492
237,-1.745439,-1.143382,-0.009706999999999999,-0.40821399999999997,0.91004,0.07202599999999999,-0.182659,0.18929100000000001,1.167841,0.045482,-0.394812,-0.029225
238,-1.7678009999999997,-1.156041,-0.031744999999999995,-0.395171,0.915215,0.078874,-0.3505,-0.37817399999999995,0.43352700000000005,0.057387,-0.364586,-0.146791
239,-1.8023939999999998,-1.15721,-0.049112,-0.39116599999999996,0.9156850000000001,0.092248,-0.32964899999999997,-1.161593,-0.006499,-0.066414,-0.24072800000000003,-0.261331
240,-1.827537,-1.153399,-0.062776,-0.392096,0.9141469999999999,0.10293800000000002,-0.29992399999999997,-0.127895,-0.12725699999999998,-0.09360700000000001,-0.257119,-0.16373
241,-1.8279189999999998,-1.152249,-0.077317,-0.393073,0.9136799999999999,0.10335599999999999,-0.265982,1.0384790000000002,0.13533699999999999,0.224478,-0.293533,0.168907
242,-1.808429,-1.158699,-0.080947,-0.389276,0.916283,0.094286,0.187818,0.9515120000000001,0.444129,0.540445,-0.258873,-0.08152999999999999
243,-1.7838720000000001,-1.172317,-0.065458,-0.379242,0.921652,0.082053,0.570243,0.560488,0.662014,0.649826,-0.23987399999999998,-0.468527
244,-1.7295209999999999,-1.190142,-0.036795999999999995,-0.366857,0.928422,0.058723000000000004,0.8637790000000001,1.9967110000000001,0.8822780000000001,0.20331400000000002,0.159194,0.000481
245,-1.611668,-1.218431,0.031738999999999996,-0.344831,0.938559,0.014102000000000002,1.614929,2.964866,1.607334,0.26399,1.042261,-0.019198
246,-1.451562,-1.260686,0.149083,-0.30299699999999996,0.9523,-0.0363,1.848507,1.927202,2.49051,0.259815,1.659028,-0.131226
247,-1.261592,-1.303505,0.320495,-0.25159499999999996,0.96449,-0.080372,2.031136,0.801558,2.51032,-0.559395,1.477176,0.14156
248,-1.033623,-1.328539,0.554495,-0.206107,0.970799,-0.12275599999999999,2.2817369999999997,-0.13489500000000001,2.3124439999999997,-0.71563,0.6950029999999999,0.341384
249,-0.787661,-1.331416,0.812362,-0.168034,0.971485,-0.167275,2.240812,-0.266877,1.7878310000000002,-0.580593,0.7641720000000001,0.27323200000000003
250,-0.602845,-1.325966,1.010998,-0.137433,0.9701780000000001,-0.199665,1.411901,-0.66065,1.612698,-0.302691,0.6332760000000001,0.48357
251,-0.501962,-1.3249469999999999,1.144966,-0.117102,0.969931,-0.21335700000000002,0.49547399999999997,-1.830583,1.140983,-0.21486799999999998,0.31987899999999997,0.7221920000000001
252,-0.519922,-1.337299,1.171429,-0.114953,0.9728629999999999,-0.20080599999999998,-0.9554969999999999,-2.31807,0.16686800000000002,-0.477362,0.157783,0.708466
253,-0.692501,-1.3566719999999999,1.025764,-0.135669,0.9771629999999999,-0.163545,-2.041028,-0.621853,-1.361899,-0.666272,0.307292,0.7904979999999999
254,-0.960568,-1.356072,0.7272770000000001,-0.174621,0.977035,-0.12210499999999999,-2.448338,2.064494,-2.5357529999999997,-0.506608,0.356217,0.385945
255,-1.222272,-1.329027,0.406352,-0.22502600000000003,0.970916,-0.081765,-2.701507,2.554839,-2.928051,-0.254207,0.249131,0.082772
256,-1.443711,-1.292011,0.139882,-0.272969,0.96139,-0.034878,-2.87635,1.319301,-2.2899599999999998,0.132603,0.31346599999999997,0.394223
257,-1.581423,-1.254255,-0.017817,-0.311264,0.950318,0.0033079999999999997,-1.7587110000000001,0.326698,-1.9860529999999998,1.040222,0.617279,0.29076
258,-1.6607180000000001,-1.206236,-0.09561499999999999,-0.355098,0.9342809999999999,0.032017000000000004,-1.33887,-0.9354709999999999,-2.660892,1.278606,0.522033,-0.455693
259,-1.768893,-1.13291,-0.155203,-0.415733,0.90565,0.08345,-2.034592,-3.644425,-3.9313279999999997,1.258369,0.466634,-1.350753
260,-1.901952,-1.026746,-0.22712800000000002,-0.489483,0.855619,0.168292,-3.6877449999999996,-2.597291,-5.152376,-0.804447,0.459841,0.507733
261,-1.9388330000000003,-0.886393,-0.299209,-0.589875,0.7747970000000001,0.22746,-4.467635,2.802145,-5.6956489999999995,-0.785751,0.416228,0.544559
262,-1.9536810000000002,-0.786555,-0.358817,-0.655147,0.707924,0.263868,-3.238322,0.61674,-3.1707349999999996,-0.43857299999999994,0.41178100000000006,0.160021
263,-1.977489,-0.705942,-0.403013,-0.698929,0.648751,0.301032,-3.053446,-0.010361,-3.1526110000000003,1.093475,0.20917399999999997,-0.520011
264,-2.0166880000000003,-0.622104,-0.44013100000000005,-0.7331979999999999,0.582746,0.35046700000000003,-2.999816,-1.1991319999999999,-3.21801,0.970884,0.035189,-0.510837
265,-2.053169,-0.541872,-0.46496400000000004,-0.758987,0.515741,0.397428,-2.5268900000000003,-0.9522360000000001,-3.033426,0.799301,-0.124902,-0.423216
266,-2.074763,-0.47242399999999996,-0.47934799999999994,-0.779759,0.455046,0.43000900000000003,-2.000756,-0.683258,-2.556873,0.916997,-0.465239,-0.5605939999999999
267,-2.0966240000000003,-0.41985500000000003,-0.487422,-0.78979,0.40762800000000005,0.45833599999999997,-1.365084,-1.183765,-1.820059,0.922221,-0.44652299999999995,-0.657692
268,-2.128022,-0.386375,-0.491105,-0.786159,0.376833,0.48984799999999995,-0.808689,-1.530553,-1.0946790000000002,0.8659319999999999,-0.464556,-0.742503
269,-2.154214,-0.370319,-0.492316,-0.7780100000000001,0.361913,0.513536,-0.24728200000000003,-1.023973,-0.393857,0.71345,-0.7533770000000001,-0.740434
270,-2.158589,-0.368888,-0.489083,-0.7761859999999999,0.360578,0.5172220000000001,0.278941,0.13271,0.000373,0.764406,-0.8429690000000001,-0.6856939999999999
271,-2.145278,-0.38042600000000004,-0.48103100000000004,-0.779457,0.371316,0.50455,0.877835,0.672071,0.46320100000000003,0.8265309999999999,-0.978799,-0.587299
272,-2.12637,-0.41025200000000006,-0.46737,-0.779099,0.39884000000000003,0.48366400000000004,1.585616,0.609959,1.2619129999999998,0.918213,-1.040533,-0.154975
273,-2.117295,-0.46115600000000007,-0.45335299999999995,-0.765103,0.444983,0.46541000000000005,2.006357,-0.13734000000000002,2.0968869999999997,0.8367129999999999,-1.012839,-0.012010999999999999
274,-2.1250139999999997,-0.518882,-0.440321,-0.7383890000000001,0.495909,0.457007,1.8014270000000001,-0.8748379999999999,2.089991,0.599076,-0.9402149999999999,0.207986
275,-2.111462,-0.554895,-0.441219,-0.728723,0.526854,0.437478,0.45213400000000004,2.013259,1.0962370000000001,-1.041205,0.192247,0.272498
276,-2.037624,-0.562501,-0.434829,-0.7554109999999999,0.533303,0.380713,0.66101,3.9651680000000002,-0.2294,-0.789557,0.296348,0.275186
277,-1.9834740000000002,-0.578554,-0.400129,-0.766967,0.546814,0.33579200000000003,2.1828,-0.052302,0.660183,-0.119676,0.385346,-0.29889699999999997
278,-1.984141,-0.628097,-0.36776,-0.741003,0.5876060000000001,0.32501399999999997,2.279211,-0.375975,2.396064,0.364584,0.650934,-0.221254
279,-1.9367009999999998,-0.709064,-0.33898,-0.708728,0.6511239999999999,0.271556,2.11426,1.93423,3.4313309999999997,0.64725,0.8342280000000001,0.855535
280,-1.895575,-0.7124739999999999,-0.344122,-0.7171850000000001,0.653708,0.241477,-0.216719,2.900588,-2.5693,-1.9392779999999998,3.816812,-0.6439729999999999
281,-1.817,-0.6878920000000001,-0.322929,-0.7492880000000001,0.6349100000000001,0.188298,0.037939999999999995,2.56109,-0.210588,0.24126199999999998,0.40210799999999997,-0.229817
282,-1.787246,-0.685919,-0.319254,-0.75578,0.6333850000000001,0.166192,0.5034350000000001,0.344423,-0.12437999999999999,0.951535,-0.13015,0.176642
283,-1.8116150000000002,-0.696534,-0.290283,-0.744935,0.641563,0.182945,1.677314,-2.647549,0.624727,1.7175150000000001,-0.9610209999999999,0.039619999999999995
284,-1.782716,-0.7319720000000001,-0.240129,-0.727217,0.668338,0.156461,2.27676,1.399734,1.626788,1.640807,-1.043902,0.114703
285,-1.722175,-0.777457,-0.21586599999999997,-0.704549,0.7014699999999999,0.107476,0.57936,2.371051,2.351829,1.290853,-0.675438,-0.28901
286,-1.6721849999999998,-0.830874,-0.23303800000000002,-0.670768,0.738521,0.068242,-0.5471630000000001,3.5779129999999997,2.8188400000000002,1.196891,0.837498,-0.008153
287,-1.595803,-0.8810610000000001,-0.23775300000000002,-0.636134,0.771415,0.015911,0.423054,4.5365910000000005,2.2625040000000003,0.986567,2.133874,0.10681500000000001
288,-1.4647350000000001,-0.909615,-0.215836,-0.610599,0.789267,-0.065005,0.701612,6.189571,1.039217,0.47446000000000005,1.861459,-0.198103
289,-1.309579,-0.9274479999999999,-0.183086,-0.5795279999999999,0.800091,-0.154923,0.8824049999999999,6.515108000000001,1.2579799999999999,0.167327,0.16406600000000002,-0.528808
290,-1.140916,-0.953435,-0.13231800000000002,-0.526216,0.815409,-0.241258,0.989417,6.090106,1.952549,0.085084,-0.14152,-0.562942
291,-0.998185,-0.974826,-0.069396,-0.47177700000000006,0.8276040000000001,-0.304135,1.07641,3.4473870000000004,1.553823,-0.200373,-0.163389,-0.704685
292,-0.919901,-0.98326,-0.031521,-0.440978,0.832309,-0.335857,0.189796,2.034218,0.61261,-0.513306,-0.367206,-0.48286899999999994
293,-0.880711,-0.993107,-0.031684,-0.42113999999999996,0.837727,-0.347642,-0.355858,1.893407,0.335514,-0.578097,-0.41457,-0.549697
294,-0.8314389999999999,-0.997539,-0.023859,-0.40075900000000003,0.840139,-0.36545700000000003,0.156496,2.588602,0.265563,-0.422712,-0.21547399999999997,-0.535636
295,-0.7514770000000001,-0.999876,-0.019993,-0.368946,0.841404,-0.394865,-0.15856800000000001,4.5088349999999995,0.120965,-0.09161,-0.091145,0.285032
296,-0.654338,-1.005984,-0.021705000000000002,-0.325776,0.8446889999999999,-0.4247,-0.199709,4.909285,0.17998499999999998,-0.052154,-0.019143,0.441439
297,-0.562621,-1.0024600000000001,-0.014325,-0.287095,0.8427979999999999,-0.45526700000000003,0.501849,3.8574370000000004,-0.056253,0.260361,0.293875,0.289725
298,-0.490839,-0.99245,-0.014766999999999999,-0.25766700000000003,0.837368,-0.48210200000000003,0.271148,3.5588089999999997,-0.301037,0.016624,0.191487,0.162827
299,-0.423055,-0.9930680000000001,-0.017182,-0.22421,0.8377049999999999,-0.49797600000000003,-0.23075199999999998,3.4436480000000005,0.16135,-0.275256,-0.012647,0.259527
300,-0.343516,-1.003816,-0.004572,-0.180891,0.843527,-0.505708,-0.407913,3.4868699999999997,0.694168,-0.41878000000000004,-0.113668,0.36284
301,-0.250813,-1.015257,0.023227,-0.130897,0.849616,-0.510899,-0.266866,3.3244589999999996,0.9602799999999999,-0.352486,-0.21363000000000001,0.278539
302,-0.164047,-1.021807,0.061702999999999994,-0.08522,0.853052,-0.5148199999999999,0.001843,2.260814,1.1184129999999999,-0.317184,-0.325709,0.32524400000000003
303,-0.091465,-1.020391,0.109759,-0.047772,0.8523120000000001,-0.5208470000000001,0.31766700000000003,1.242782,1.2842930000000001,-0.393512,-0.191912,0.46803599999999995
304,-0.028906,-1.0156180000000001,0.15843,-0.015234000000000001,0.849807,-0.526875,0.288056,1.016174,1.236306,-0.42887299999999995,0.201753,0.5511050000000001
305,0.030017000000000002,-1.008689,0.200008,0.015996,0.846134,-0.53273,0.334353,1.332349,0.9830559999999999,-0.43196599999999996,0.065548,0.725021
306,0.08491,-1.007343,0.22969299999999998,0.045297000000000004,0.845416,-0.532184,-0.120858,1.570629,0.664446,-0.554879,0.22997800000000002,0.6115149999999999
307,0.13006600000000001,-1.009711,0.246702,0.06901399999999999,0.846678,-0.5276109999999999,-0.170792,1.499793,0.307402,-0.52281,0.37597800000000003,0.42479700000000004
308,0.16661600000000001,-1.014226,0.24921,0.087613,0.8490719999999999,-0.520961,-0.30112300000000003,1.952707,-0.15449300000000002,-0.582516,0.62363,0.681636
309,0.201818,-1.027724,0.23400900000000002,0.10358699999999998,0.856125,-0.5062800000000001,-0.818435,2.593859,-0.734699,-0.568156,0.6672359999999999,0.833932
310,0.226921,-1.0583209999999998,0.202174,0.11031500000000001,0.871533,-0.47776599999999997,-1.64032,2.5992290000000002,-1.3642889999999999,-0.6262300000000001,0.660022,0.881971
311,0.22551500000000002,-1.110652,0.143262,0.099299,0.8959889999999999,-0.43283299999999997,-2.570004,2.545411,-2.282975,-0.472529,0.435799,0.682955
312,0.189525,-1.1791280000000002,0.03996,0.07191499999999999,0.924273,-0.374896,-3.043136,3.274754,-3.110814,-0.165101,0.38459499999999996,0.625598
313,0.096515,-1.2511700000000001,-0.14635399999999998,0.030279,0.9493530000000001,-0.31275,-3.0812169999999997,4.550584,-4.049544999999999,0.14357999999999999,0.434055,0.576116
314,-0.095105,-1.311642,-0.437375,-0.024335,0.966607,-0.255105,-2.883702,3.859633,-4.059025,0.61926,1.310783,0.529733
315,-0.401883,-1.3402,-0.806002,-0.089401,0.9735299999999999,-0.210348,-2.156527,1.9223150000000002,-3.994847,0.7878109999999999,1.35873,0.210623
316,-0.78355,-1.320099,-1.22238,-0.175094,0.9687399999999999,-0.175743,-1.8054259999999998,0.562144,-5.143264,0.405334,1.3397780000000001,0.39849
317,-1.13935,-1.242783,-1.5636139999999998,-0.292641,0.946684,-0.134724,-1.9545849999999998,-2.6350990000000003,-6.2565,-0.25803400000000004,1.291307,0.073216
318,-1.438684,-1.1429209999999999,-1.830093,-0.411322,0.90985,-0.054659000000000006,-4.442197,-1.549428,-5.737952,-0.267892,1.212862,-0.074125
319,-1.632768,-1.056585,-2.0848459999999998,-0.490904,0.8706809999999999,0.030461000000000002,-5.709741999999999,2.9291240000000003,-3.609691,0.228316,1.435243,0.386409
320,-1.754802,-0.9800629999999999,-2.25469,-0.547568,0.8305319999999999,0.101909,-5.066092,-1.1019459999999999,-4.150164,1.567038,0.393879,0.17957
321,-1.8535549999999998,-0.8872180000000001,-2.3681099999999997,-0.606492,0.7753180000000001,0.17621199999999998,-3.3733410000000004,0.9838979999999999,-2.431858,2.876603,-0.640827,-0.469654
322,-1.8792119999999999,-0.823953,-2.436982,-0.6472720000000001,0.733837,0.206209,-3.146688,1.472438,-2.522768,0.18526600000000001,-0.10633499999999999,-0.232667
323,-1.904932,-0.755533,-2.506801,-0.687649,0.6856760000000001,0.23871900000000001,-3.5831150000000003,0.796346,-2.234394,0.375729,-0.352943,-0.5453140000000001
324,-1.971971,-0.701921,-2.5769,-0.702975,0.645686,0.298187,-3.092453,-1.9847080000000001,-1.4241,0.74657,-0.523753,-0.612671
325,-2.037144,-0.647967,-2.624573,-0.712173,0.6035659999999999,0.358494,-2.665164,-1.848956,-1.6434790000000001,0.49171400000000004,-0.48653100000000005,-0.282505
326,-2.0994189999999997,-0.604901,-2.660038,-0.710281,0.568681,0.41485299999999997,-2.009371,-2.19582,-0.718715,0.455383,-0.813645,-0.43208
327,-2.151678,-0.595567,-2.6949520000000002,-0.692049,0.560978,0.45428100000000005,-1.1983219999999999,-1.1975930000000001,0.9574379999999999,0.5832689999999999,-1.431691,-0.350827
328,-2.1814270000000002,-0.6087319999999999,-2.73228,-0.672121,0.5718270000000001,0.47038900000000006,-0.8055899999999999,-0.129689,1.29103,0.606387,-1.7480669999999998,-0.372794
329,-2.1985259999999998,-0.6107090000000001,-2.750523,-0.663064,0.573449,0.48114700000000005,-0.297269,-0.518616,0.078375,-0.11090799999999999,-1.0937270000000001,0.306359
330,-2.209908,-0.616553,-2.7430830000000004,-0.654844,0.578226,0.48665600000000003,0.804566,-0.8545520000000001,0.281986,-1.030993,-0.714808,0.9943930000000001
331,-2.2199400000000002,-0.643386,-2.73486,-0.637336,0.599908,0.483646,1.0495370000000002,-0.6200100000000001,1.0888360000000001,-0.536065,-0.46978100000000006,0.5078090000000001
332,-2.244324,-0.672633,-2.7372959999999997,-0.611376,0.6230479999999999,0.487885,0.9546549999999999,-1.377799,1.265401,-0.420363,-0.249268,0.164993
333,-2.261255,-0.723147,-2.721864,-0.578005,0.661748,0.477494,2.747224,-1.193712,1.892982,-0.179151,-0.062123000000000005,-0.776963
334,-2.256641,-0.802353,-2.706163,-0.537863,0.718993,0.440173,2.56595,0.328375,3.162018,1.341421,0.152192,0.321179
335,-2.334818,-0.8549129999999999,-2.756903,-0.473876,0.754514,0.454038,0.116816,-2.541199,2.55252,1.6011959999999998,1.450061,1.7877990000000001
336,-2.219189,-0.914467,-2.708158,-0.486374,0.792237,0.36851100000000003,4.083336,6.17532,0.87272,0.422867,1.667434,-0.025677
337,-2.0951150000000003,-0.946965,-2.672617,-0.505677,0.811647,0.292439,0.923674,3.327438,0.5156729999999999,0.688813,0.9993280000000001,-0.267246
338,-2.014896,-0.9709700000000001,-2.6308119999999997,-0.509741,0.825434,0.24253400000000003,1.706364,1.786557,0.493204,0.784003,0.25804699999999997,-0.512935
339,-1.9407450000000002,-1.0000639999999998,-2.5885,-0.503698,0.841506,0.19533599999999998,1.737732,2.374735,1.227606,0.663427,0.127443,-0.225503
340,-1.856897,-1.048541,-2.545204,-0.478559,0.8666959999999999,0.140779,1.9990459999999999,1.802644,2.3411150000000003,0.15199100000000001,0.382358,-0.586808
341,-1.78718,-1.112234,-2.485778,-0.43233599999999994,0.89669,0.095038,2.071112,0.49981400000000004,2.810101,-0.117621,0.668297,-0.433753
342,-1.7192040000000002,-1.1638950000000001,-2.424589,-0.391415,0.9183520000000001,0.05851900000000001,1.5108979999999999,1.065473,1.965841,-0.322864,0.540755,-0.154192
343,-1.6221370000000002,-1.202935,-2.373872,-0.359147,0.933098,0.018455000000000003,0.987941,3.2983879999999997,1.862118,0.009309,0.122047,0.226097
344,-1.491554,-1.241663,-2.3199509999999997,-0.322208,0.9463229999999999,-0.025586,0.884883,4.2038400000000005,1.959583,0.373737,-0.131382,0.293744
345,-1.3358889999999999,-1.273519,-2.2454509999999996,-0.28487399999999996,0.9561370000000001,-0.068178,0.8782129999999999,4.211894,1.550397,0.31259899999999996,-0.261924,0.12748900000000002
346,-1.1882549999999998,-1.290835,-2.167983,-0.256346,0.961066,-0.103144,0.6999380000000001,3.1855849999999997,1.018492,-0.12219400000000001,-0.313132,-0.12227400000000001
347,-1.077272,-1.307561,-2.103771,-0.22915500000000003,0.9655530000000001,-0.123268,0.22885100000000003,2.082736,1.2323959999999998,-0.517442,-0.447517,-0.126121
348,-0.9957459999999999,-1.331921,-2.054305,-0.198555,0.9716049999999999,-0.128687,-0.253759,1.6598939999999998,1.366299,-0.990532,-0.5803689999999999,0.130991
349,-0.95324,-1.355574,-2.041169,-0.174118,0.976929,-0.12366300000000001,-0.8106869999999999,0.840709,0.781278,-1.388656,-0.574707,-0.121347
350,-1.035585,-1.376577,-2.124215,-0.166012,0.9811989999999999,-0.09843500000000001,-1.389837,0.08118099999999999,0.21525300000000003,-1.2408489999999999,-0.241529,0.236145
351,-1.1413520000000001,-1.38053,-2.252043,-0.171948,0.9819540000000001,-0.078743,-1.097661,1.2122030000000001,-0.7605109999999999,-0.91965,-0.43846599999999997,0.291939
352,-1.2698639999999999,-1.366295,-2.398619,-0.19395199999999999,0.9791620000000001,-0.060195000000000005,-0.9839709999999999,0.558874,-1.312218,-0.19914500000000002,-0.525885,0.01158
353,-1.350195,-1.34769,-2.499016,-0.215898,0.9752149999999999,-0.048415,-0.767888,1.1930049999999999,-1.040193,0.145922,-0.530497,0.685928
354,-1.415015,-1.338082,-2.5823709999999997,-0.227827,0.973044,-0.035781,-0.814308,0.350898,-0.333343,0.729032,-0.19112300000000002,0.145202
355,-1.440328,-1.344244,-2.624853,-0.22271,0.974447,-0.029223000000000002,-0.369213,1.4719659999999999,0.512224,0.962075,0.012675,-0.43563599999999997
356,-1.359604,-1.3620139999999998,-2.606034,-0.202664,0.978284,-0.043449,0.328786,4.078965,1.170716,0.24436599999999997,0.329944,0.147621
357,-1.154384,-1.390706,-2.481712,-0.16381199999999999,0.983828,-0.07245,0.863345,3.820934,2.0966560000000003,0.326104,0.814894,0.636491
358,-0.829692,-1.423494,-2.2072439999999998,-0.108276,0.9891709999999999,-0.099085,0.9464379999999999,2.145239,2.826843,0.357986,1.731761,-0.33785
359,-0.42566499999999996,-1.439365,-1.826084,-0.054114999999999996,0.991375,-0.11935799999999999,0.9711190000000001,0.529917,2.364408,-0.757195,1.81171,-0.089382
360,-0.040089,-1.4230559999999999,-1.421368,-0.0059,0.9891059999999999,-0.147085,1.7851689999999998,-1.2013530000000001,2.772896,-1.324011,0.9375600000000001,-0.011027
361,0.239418,-1.373162,-1.101833,0.046562,0.980534,-0.19075,2.203052,-2.2826619999999997,2.9566619999999997,-1.276405,0.859081,0.34274299999999996
362,0.36640700000000004,-1.320076,-0.9185110000000001,0.088886,0.968734,-0.231633,1.6949490000000003,-2.557102,2.498402,-0.532993,1.127167,0.341435
363,0.411419,-1.283452,-0.8224100000000001,0.113337,0.959,-0.259758,0.8231719999999999,-2.1368080000000003,1.513283,-0.278453,0.933243,0.6394270000000001
364,0.445978,-1.274478,-0.758882,0.125952,0.956418,-0.26344,-0.39621,-1.068134,0.656296,-0.7950649999999999,0.18111,1.016462
365,0.458474,-1.295662,-0.756432,0.12023900000000001,0.9623889999999999,-0.24361999999999998,-1.373424,1.8784720000000001,-1.1724139999999998,-1.100768,0.369627,0.7585890000000001
366,0.422683,-1.364135,-0.8540979999999999,0.084172,0.978721,-0.187135,-3.370911,3.0666599999999997,-3.268786,-1.061803,0.425225,0.16281199999999998
367,0.112399,-1.463079,-1.210438,0.012059,0.9942040000000001,-0.106832,-4.0558190000000005,1.415292,-4.224308000000001,-0.898518,0.010435,-0.125468
368,-1.095891,-1.4919639999999998,-2.46026,-0.070037,0.9968940000000001,-0.03601,-2.9660900000000003,2.27947,-4.163323999999999,-0.9095780000000001,-0.43799499999999997,1.300612
369,-1.537226,-1.424863,-2.8714009999999996,-0.145334,0.9893709999999999,-0.004881,-0.448166,-5.121764,-3.492114,0.22399299999999997,0.598596,-0.055376
370,-1.7203490000000001,-1.3531819999999999,-2.898061,-0.213491,0.9764149999999999,0.032168,-1.147893,-8.004991,-3.803092,1.09374,1.097544,-1.461642
371,-1.977785,-1.243945,-3.039966,-0.294837,0.947058,0.127091,-4.683784999999999,-4.400518,-5.15914,0.49332299999999996,1.180734,-1.172395
372,-2.1173349999999997,-1.1001729999999998,3.105352,-0.387388,0.891286,0.23566900000000002,-5.7401860000000005,1.29818,-4.645052,-0.531725,0.823024,0.15826700000000002
373,-2.163637,-0.985261,3.0244560000000003,-0.45833999999999997,0.833417,0.308773,-4.3242199999999995,0.366048,-3.47281,0.551144,0.607273,0.233417
374,-2.1997430000000002,-0.8747530000000001,2.982989,-0.518494,0.767385,0.377206,-4.236011,0.070259,-4.170432,1.428391,0.628641,-0.341256
375,-2.223751,-0.753301,2.961559,-0.579384,0.6840510000000001,0.443158,-4.136893,-0.7288939999999999,-4.473159,0.6845319999999999,0.312241,-0.715512
376,-2.240567,-0.63474,2.953937,-0.631268,0.592968,0.49988999999999995,-3.6857330000000004,-0.47604799999999997,-4.425466,0.220623,-0.185879,-0.44126499999999996
377,-2.254562,-0.530643,2.949467,-0.6685949999999999,0.506088,0.544844,-3.223246,-0.7227939999999999,-3.5951150000000003,0.43820299999999995,-0.248108,-0.610915
378,-2.279488,-0.447276,2.944684,-0.6845289999999999,0.432511,0.586817,-2.560857,-1.390884,-2.79808,0.701756,-0.203599,-0.8232370000000001
379,-2.319357,-0.386205,2.945706,-0.678704,0.376676,0.6304569999999999,-1.638348,-2.353844,-2.012737,0.7206199999999999,-0.568616,-0.949823
380,-2.3585220000000002,-0.347434,2.949654,-0.663308,0.340486,0.666402,-1.045858,-1.681728,-1.177314,0.737725,-0.63698,-0.857503
381,-2.392388,-0.325287,2.942535,-0.645342,0.31958000000000003,0.693832,-1.026051,-1.7390700000000001,-0.176179,0.928011,-0.832306,-0.84111
382,-2.443882,-0.316217,2.929528,-0.610611,0.310974,0.72832,-0.497504,-2.885636,0.24665700000000002,0.954758,-1.1697229999999998,-0.640521
383,-2.501529,-0.316569,2.9260099999999998,-0.5675680000000001,0.311308,0.762203,0.109904,-2.436725,0.14563900000000002,0.226596,-0.8971540000000001,0.145344
384,-2.516339,-0.32797600000000005,2.919652,-0.554104,0.322127,0.7675960000000001,0.36186599999999997,0.555728,0.968232,-0.517811,-0.796508,0.377058
385,-2.473792,-0.35633000000000004,2.90386,-0.580361,0.348837,0.735862,1.0150780000000001,3.315578,1.536484,-0.680595,-0.505469,0.205773
386,-2.405289,-0.402097,2.902404,-0.617992,0.391349,0.681859,2.0132470000000002,3.050822,1.612162,-0.7058,-0.43904799999999994,-0.482885
387,-2.378429,-0.46260200000000007,2.906063,-0.6185609999999999,0.44627799999999995,0.646698,2.4552259999999997,0.473783,2.0618630000000002,-0.490692,-0.12244100000000001,-0.237945
388,-2.369049,-0.533593,2.914684,-0.6009329999999999,0.50863,0.616584,3.073904,-0.031058999999999996,2.299704,-0.13881300000000002,-0.249658,0.108392
389,-2.354917,-0.620423,2.933774,-0.57606,0.581379,0.5745899999999999,3.893651,0.757722,2.535155,-0.07045499999999999,0.42423599999999995,-0.66985
390,-2.329187,-0.6973520000000001,2.945051,-0.556469,0.6421899999999999,0.527195,2.550512,0.807966,2.323815,0.718929,1.117789,-0.071003
391,-2.301359,-0.755612,2.958489,-0.542103,0.6857340000000001,0.485688,2.345472,1.208907,1.3380370000000001,0.632618,0.557079,0.21017399999999997
392,-2.244639,-0.8006340000000001,2.990009,-0.544072,0.7177979999999999,0.434457,2.244116,1.951416,0.8909290000000001,0.426548,0.182532,0.059501
393,-2.172698,-0.844802,3.024069,-0.5472090000000001,0.74784,0.375895,2.26003,2.561249,1.2855,0.302534,0.009362,0.04453
394,-2.098245,-0.899148,3.055217,-0.537706,0.7827970000000001,0.313211,2.316103,2.5068479999999997,2.0529450000000002,0.21119899999999997,-0.009588,-0.1616
395,-2.024265,-0.963374,3.0840919999999996,-0.513069,0.8211219999999999,0.250039,2.2283180000000002,2.510287,2.600325,0.052878999999999995,-0.023377000000000002,-0.019479
396,-1.950309,-1.029215,3.120028,-0.478812,0.856894,0.190973,2.238968,1.9555470000000001,2.5241990000000003,0.037802999999999996,0.071221,-0.046243
397,-1.8719669999999997,-1.086756,-3.110481,-0.44441400000000003,0.885122,0.138043,2.1061549999999998,1.467483,2.148951,-0.05230599999999999,0.17920899999999998,0.006412
398,-1.7933599999999998,-1.1359700000000001,-3.0531490000000003,-0.410862,0.906943,0.092984,1.667933,1.434233,2.052997,-0.178371,0.441384,0.08353
399,-1.7258740000000001,-1.18638,-3.0188490000000003,-0.37051799999999996,0.927017,0.057924,0.807917,1.922006,2.562316,-0.13738599999999998,0.729309,0.10413900000000001
400,-1.703372,-1.240808,-3.0214630000000002,-0.32118800000000003,0.9460459999999999,0.042832999999999996,0.101249,0.53167,2.67987,-0.087152,0.43812399999999996,-0.090547
401,-1.7453880000000002,-1.289273,-3.0532220000000003,-0.273596,0.960633,0.048258999999999996,-0.137451,-0.951048,2.317976,-0.010537999999999999,-0.072389,0.031514
402,-1.80968,-1.329386,-3.0994330000000003,-0.232283,0.971002,0.05656900000000001,-0.18899200000000002,-0.942893,1.922363,-0.081361,-0.365304,0.033733
403,-1.874683,-1.357532,3.130984,-0.201953,0.977345,0.063332,-0.233202,-0.50869,1.269883,-0.21806,-0.521672,0.112647
404,-1.9517060000000002,-1.371467,3.06146,-0.18382,0.9802,0.073614,-0.5915050000000001,-0.5573779999999999,0.703421,-0.253756,-0.704427,-0.247381
405,-2.0750610000000003,-1.373299,2.950882,-0.171793,0.980561,0.094804,-1.150889,-0.635417,0.458196,-0.23634899999999998,-0.697419,-0.21159499999999998
406,-2.1876900000000004,-1.3651659999999999,2.8328759999999997,-0.166549,0.978932,0.118122,-1.137801,0.6129399999999999,0.217406,-0.213944,-0.683904,0.02229
407,-2.224818,-1.3595979999999999,2.775043,-0.166373,0.97778,0.12753699999999998,-0.353953,1.124196,0.089766,0.322196,-0.587216,-0.207065
408,-2.215665,-1.359568,2.7543849999999996,-0.16755699999999998,0.977774,0.126026,-0.153814,1.606711,0.1963,0.342087,-0.543509,-0.7659189999999999
409,-2.223119,-1.365742,2.713761,-0.16181199999999998,0.97905,0.12360399999999999,-0.130839,1.78879,0.72927,0.176033,-0.495072,-0.790673
410,-2.2280279999999997,-1.3839139999999999,2.656933,-0.147093,0.9825879999999999,0.113508,0.308909,2.76546,1.19363,-0.12291099999999999,0.264604,-0.30821
411,-2.239032,-1.406592,2.596638,-0.128308,0.986549,0.101285,0.10721900000000001,2.287824,1.2003110000000001,-0.088733,0.516671,-0.412869
412,-2.290073,-1.423872,2.504782,-0.11013099999999999,0.989226,0.096452,0.11329000000000002,1.632026,1.092235,-0.167075,0.7316600000000001,-0.104295
413,-2.337475,-1.448621,2.4365419999999998,-0.087775,0.9925459999999999,0.084548,0.633546,0.8918520000000001,1.3916469999999999,-0.179544,0.897316,-0.12034500000000001
414,-2.477852,-1.48397,2.275379,-0.053423000000000005,0.996233,0.06830599999999999,0.9319879999999999,0.74553,2.026306,-0.380948,0.9302040000000001,0.255653
415,-3.02955,-1.52915,1.728634,-0.004654999999999999,0.9991329999999999,0.041375,1.622058,-0.6291180000000001,2.6033180000000002,-0.924529,1.000913,-0.11928599999999999
416,1.555527,-1.5249540000000001,0.046343,0.045821,0.998949,-0.0007,2.3181529999999997,-0.958849,2.4056450000000003,-1.01599,1.0691959999999998,-0.13698
417,1.010546,-1.468779,-0.47859799999999997,0.086271,0.994801,-0.05411799999999999,2.755928,-1.2339040000000001,1.8140560000000001,-0.906049,1.1665299999999998,0.040385000000000004
418,0.7929,-1.410261,-0.663804,0.113873,0.987142,-0.112178,2.632997,-1.9349049999999999,1.400694,-0.929425,0.46403,0.281199
419,0.691354,-1.364708,-0.723303,0.13047,0.9788389999999999,-0.157645,1.608255,-2.238556,0.969841,-0.918449,0.24490100000000004,0.5323100000000001
420,0.630155,-1.349201,-0.741067,0.12951400000000002,0.975548,-0.177574,0.218806,-2.070251,-0.21939699999999998,-0.8851899999999999,0.09824400000000001,0.711372
421,0.509845,-1.374276,-0.8234020000000001,0.095294,0.9807520000000001,-0.170426,-1.1437709999999999,-2.002873,-2.0321599999999997,-0.8591799999999999,0.43308199999999997,0.29891999999999996
422,0.299646,-1.437624,-1.001667,0.039194,0.9911459999999999,-0.126862,-3.01539,-1.385092,-2.7863029999999998,-0.617121,0.313633,0.532502
423,-0.33814299999999997,-1.510899,-1.635248,-0.019859,0.998207,-0.056473,-3.555047,0.335965,-3.010195,-0.478417,0.229577,0.767517
424,-1.548546,-1.4923600000000001,-2.842451,-0.078336,0.996925,-0.001743,-2.156741,-1.128412,-2.718677,0.383542,0.382576,0.46461899999999995
425,-1.8981729999999999,-1.44289,3.1360669999999997,-0.12078299999999999,0.9918309999999999,0.041018,-2.0583419999999997,-2.676511,-1.9426130000000001,0.649439,0.528433,0.005339
426,-2.132406,-1.375338,2.935722,-0.164385,0.980959,0.10343,-3.430678,-0.9989629999999999,-2.817472,1.051607,0.7643260000000001,-0.356192
427,-2.215574,-1.268599,2.850404,-0.237867,0.954685,0.178875,-4.0786169999999995,0.326873,-4.276478,0.623182,0.7349060000000001,-0.838925
428,-2.215414,-1.1408399999999999,2.820935,-0.333185,0.908984,0.250471,-4.350118,2.119256,-4.986766,0.056391,0.30646999999999996,-0.100401
429,-2.189855,-1.0070569999999999,2.800103,-0.43518900000000005,0.8452629999999999,0.310067,-4.274476,1.953381,-5.129167,0.23506999999999997,0.177992,0.007285
430,-2.160768,-0.8821209999999999,2.78953,-0.528085,0.772088,0.353561,-3.4657080000000002,1.784273,-4.832745,0.260263,0.171408,-0.20288
431,-2.149106,-0.7698,2.788341,-0.601286,0.695992,0.392493,-3.046809,-0.194258,-4.584797,0.15775899999999998,0.014854,-0.673346
432,-2.179272,-0.662543,2.783042,-0.6469229999999999,0.615124,0.45068100000000005,-3.187443,-1.855207,-4.151021,0.24116100000000001,-0.476925,-0.6535770000000001
433,-2.223496,-0.565063,2.776777,-0.670954,0.535469,0.512927,-2.974355,-2.068079,-3.583102,0.41363,-0.631324,-0.5535909999999999
434,-2.268589,-0.480232,2.776538,-0.679588,0.46198500000000003,0.56985,-2.40483,-2.400936,-3.155682,0.48793800000000004,-0.359858,-0.612438
435,-2.321796,-0.41405600000000004,2.78495,-0.669235,0.402326,0.624707,-1.597309,-3.1331580000000003,-2.43019,0.513259,-0.30532600000000004,-0.746869
436,-2.378068,-0.367664,2.795626,-0.6452600000000001,0.35943600000000003,0.674125,-1.174285,-2.829422,-1.765326,0.597729,-0.377884,-0.7455510000000001
437,-2.4300479999999998,-0.33305799999999997,2.798743,-0.61712,0.326935,0.715735,-1.172711,-2.636607,-0.968669,0.743279,-0.567429,-0.8671479999999999
438,-2.482025,-0.310551,2.7971470000000003,-0.5834630000000001,0.305583,0.752456,-0.696457,-2.33645,-0.520278,1.001264,-0.909755,-0.510817
439,-2.502479,-0.302313,2.799857,-0.569434,0.297729,0.7662260000000001,0.010173,-0.09438099999999999,-0.250092,0.994025,-0.876663,-0.137701
440,-2.4745619999999997,-0.306548,2.806175,-0.589815,0.301769,0.749035,0.479264,1.887953,-0.088054,0.614214,-0.612576,-0.174847
441,-2.437615,-0.315238,2.814706,-0.61536,0.310042,0.724711,0.752367,1.4967549999999998,0.0019489999999999998,-0.006131,-0.355712,-0.18523699999999999
442,-2.40945,-0.340087,2.8307900000000004,-0.630179,0.333569,0.7011470000000001,1.872267,0.9317340000000001,0.468763,-0.74235,-0.29436999999999997,-0.280721
443,-2.381975,-0.382846,2.8465759999999998,-0.63879,0.373562,0.672606,1.9553650000000002,1.309165,1.114066,-1.190205,-0.594952,-0.028349
444,-2.3517240000000004,-0.43257299999999993,2.855289,-0.644839,0.41920799999999997,0.639099,2.425471,1.148359,1.758489,-1.5510540000000002,-0.043476,0.625671
445,-2.3354790000000003,-0.5092270000000001,2.864933,-0.630046,0.48750200000000005,0.6044689999999999,3.1288139999999998,0.390527,2.850755,-0.819356,0.30644299999999997,0.271934
446,-2.3315599999999996,-0.601765,2.867453,-0.597076,0.566099,0.5683600000000001,3.250305,-0.16755599999999998,3.513548,0.46173000000000003,0.4341,-0.815613
447,-2.352625,-0.692969,2.844525,-0.545953,0.638824,0.5420699999999999,2.11626,-0.12090899999999999,4.019381,1.145303,0.279114,-0.494462
448,-2.337024,-0.768949,2.8315650000000003,-0.517804,0.695381,0.49832200000000004,2.322048,1.801294,2.4,0.939526,0.160225,0.042922
449,-2.2806040000000003,-0.8297450000000001,2.843568,-0.5120279999999999,0.737759,0.439931,2.497736,2.750269,1.762282,0.053226,0.129673,0.10700499999999999
450,-2.2013990000000003,-0.8834719999999999,2.86843,-0.5124449999999999,0.772946,0.374105,2.138523,3.130371,1.591575,0.053384,0.312946,-0.109792
451,-2.124441,-0.9375100000000001,2.8878049999999997,-0.503391,0.806087,0.311161,1.981799,3.019933,2.171735,0.217975,0.54015,-0.204503
452,-2.0549020000000002,-1.00296,2.905786,-0.47601000000000004,0.843067,0.250305,2.098258,2.425001,2.729854,-0.004947,0.611874,-0.196991
453,-1.9870189999999999,-1.06987,2.938905,-0.439237,0.877138,0.194164,2.286184,1.788102,2.5332939999999997,-0.191378,0.354017,-0.150982
454,-1.900036,-1.124607,3.002764,-0.408352,0.902098,0.139524,2.345586,1.1848290000000001,1.7653619999999999,-0.254062,-0.100829,-0.20178
455,-1.8217,-1.170669,3.073714,-0.377339,0.921011,0.096714,1.8589509999999998,0.615908,1.936812,-0.33282,-0.296072,-0.029544
456,-1.737355,-1.226348,3.133332,-0.333004,0.941262,0.055983000000000005,1.520149,2.118604,2.864009,-0.276493,-0.206002,0.113099
457,-1.62814,-1.294734,-3.095272,-0.272121,0.9621360000000001,0.015622,0.9824280000000001,2.917168,3.427524,-0.180547,-0.076806,0.167759
458,-1.552267,-1.35705,-3.047664,-0.21208600000000002,0.9772430000000001,-0.0039299999999999995,0.44833999999999996,0.459805,2.768918,0.173817,0.52442,0.026864
459,-1.53874,-1.397198,-3.033388,-0.17263900000000001,0.9849700000000001,-0.005536,-0.138006,0.08313200000000001,1.572101,0.127946,0.433457,0.154202
460,-1.5810620000000002,-1.421122,-3.0780950000000002,-0.149108,0.98882,0.001531,-0.47648999999999997,-0.004224,1.067784,-0.04268,0.23792600000000003,0.17277
461,-1.692173,-1.432021,3.08906,-0.137312,0.9903860000000001,0.016749,-0.543704,0.46051499999999995,1.057105,-0.278917,-0.277587,-0.011042
462,-1.7930810000000001,-1.452387,2.969068,-0.115227,0.9929979999999999,0.026044,-0.609486,1.133528,1.174356,-0.278251,-0.364992,-0.159314
463,-1.933787,-1.4701540000000002,2.7958529999999997,-0.093926,0.9949399999999999,0.035675,-0.677901,1.910926,1.030808,-0.2714,-0.44154899999999997,-0.251343
464,-2.103806,-1.4764540000000002,2.5761849999999997,-0.081135,0.995553,0.047867,-0.9170729999999999,2.593269,0.564655,-0.07120900000000001,-0.7209409999999999,0.176925
465,-2.230203,-1.473012,2.40422,-0.07716100000000001,0.995223,0.059812,-0.615096,1.9876,0.185117,-0.058749,-0.560546,0.215319
466,-2.259949,-1.466693,2.334044,-0.080201,0.9945860000000001,0.066078,-0.42350200000000005,2.054223,-0.124483,-0.237945,-0.420566,-0.172997
467,-2.251547,-1.459427,2.305967,-0.086366,0.9938049999999999,0.069948,-0.309152,1.553418,-0.19354200000000002,-0.309859,-0.5196529999999999,-0.390948
468,-2.258642,-1.4534200000000002,2.274263,-0.09047899999999999,0.9931190000000001,0.074348,-0.386397,1.099412,-0.07706299999999999,-0.275229,-0.701097,-0.022011000000000003
469,-2.289596,-1.444895,2.2245340000000002,-0.094503,0.992085,0.08268500000000001,-0.42739499999999997,0.657879,-0.180401,-0.12176,-0.354145,-0.150983
470,-2.28747,-1.441131,2.221063,-0.09749400000000001,0.991605,0.084936,-0.098849,0.28131100000000003,-0.067597,-0.204585,-0.177289,-0.123083
471,-2.312564,-1.440659,2.18931,-0.095677,0.9915440000000001,0.087672,-0.053707000000000005,-0.01318,0.278131,-0.22475799999999999,0.287219,-0.072673
472,-2.3921099999999997,-1.456726,2.1066759999999998,-0.077543,0.993501,0.083324,0.154783,0.702889,1.376802,0.075804,0.9013959999999999,-0.018046
473,-2.679958,-1.48069,1.797232,-0.040080000000000005,0.995943,0.080566,0.156503,0.788782,2.271874,0.163509,1.196623,-0.13623
474,3.005121,-1.499732,1.1821469999999998,0.00966,0.997476,0.070345,0.71796,0.714086,2.615586,0.031325,1.0266790000000001,0.056822000000000004
475,2.266711,-1.492538,0.436996,0.059999000000000004,0.9969389999999999,0.050119,1.2271299999999998,-0.07014,2.4866200000000003,-0.561693,1.141748,-0.10338699999999999
476,1.744119,-1.4616639999999999,-0.078279,0.10728399999999999,0.994051,0.018783,1.696013,-0.468012,2.211599,-0.690277,1.277662,0.148041
477,1.443934,-1.422648,-0.376317,0.146421,0.9890459999999999,-0.018675999999999998,1.9077110000000002,-0.276518,1.826136,-0.419462,1.140867,0.326949
478,1.262665,-1.384392,-0.551878,0.176598,0.982677,-0.05620599999999999,1.720327,-0.525918,1.487589,-0.374138,0.7693369999999999,0.459251
479,1.189095,-1.346343,-0.614265,0.20655500000000002,0.974916,-0.082909,0.8905209999999999,-0.572585,1.622858,-0.5482600000000001,0.052992,0.6108779999999999
480,1.200086,-1.318298,-0.5974470000000001,0.232854,0.968291,-0.09050599999999999,0.000553,0.068522,1.110551,-0.586888,-0.073409,0.5593319999999999
481,1.271408,-1.3147790000000001,-0.543614,0.241965,0.967406,-0.074686,-0.918141,1.47413,-0.08339400000000001,-0.677603,-0.031966,0.408411
482,1.409271,-1.337241,-0.44249499999999997,0.228425,0.97285,-0.037221,-1.692982,2.2099130000000002,-1.194291,-0.695421,-0.11646500000000001,0.16580699999999998
483,1.581337,-1.370663,-0.30706500000000003,0.19878900000000002,0.9800399999999999,0.002095,-1.364479,1.679243,-1.704062,-0.7059449999999999,-0.305312,-0.057454
484,1.713163,-1.408051,-0.190363,0.160389,0.986786,0.02299,-0.655049,0.320148,-2.101153,-0.451618,-0.383133,-0.033152
485,1.8393119999999998,-1.450494,-0.05532,0.115712,0.992772,0.031839,-0.513397,-0.6552979999999999,-2.310422,-0.034993,0.11246700000000001,0.108374
486,2.16962,-1.487369,0.285145,0.06883099999999999,0.9965219999999999,0.046971,-0.961885,-0.138772,-2.421039,0.45506499999999994,0.509063,0.40067600000000003
487,2.821411,-1.504051,0.948307,0.020992,0.9977729999999999,0.063306,-0.622991,-1.1223370000000001,-2.369341,0.790272,0.422362,-0.20651
488,-2.831024,-1.497747,1.625527,-0.022304,0.997333,0.069493,-0.33116100000000004,-2.454809,-2.4029830000000003,0.866634,0.076153,-0.481678
489,-2.442496,-1.448533,2.037216,-0.078484,0.9925350000000001,0.09335,-1.7038970000000002,-0.07556,-3.198627,0.357323,0.009356999999999999,0.145786
490,-2.310748,-1.372606,2.148238,-0.14540799999999998,0.980424,0.132758,-2.111109,1.5902180000000001,-3.033759,-0.106499,0.026945999999999998,0.517252
491,-2.2526770000000003,-1.321004,2.177522,-0.191925,0.9689639999999999,0.1558,-1.0816430000000001,1.389877,-1.779696,0.226944,0.17002799999999998,0.090248
492,-2.207974,-1.27778,2.185841,-0.232165,0.957377,0.17184000000000002,-1.481638,2.0477790000000002,-1.8559720000000002,0.523119,0.11473599999999999,-0.29565
493,-2.19212,-1.227292,2.166554,-0.273846,0.94158,0.196049,-1.769453,1.416967,-1.830469,0.460034,-0.105826,-0.393284
494,-2.188841,-1.1791610000000001,2.147441,-0.311091,0.924286,0.22117399999999998,-1.6058270000000001,0.90355,-1.717573,0.305018,-0.294769,-0.256284
495,-2.185747,-1.136393,2.133052,-0.343767,0.907121,0.24280700000000002,-1.395146,0.786775,-1.469192,0.22603,-0.45767399999999997,-0.24175500000000003
496,-2.1848389999999998,-1.1008040000000001,2.118888,-0.37015,0.8915719999999999,0.260938,-1.201025,0.586804,-1.180228,0.254305,-0.5553899999999999,-0.27519
497,-2.185228,-1.071348,2.110182,-0.391344,0.8778469999999999,0.276107,-0.887396,0.249563,-1.032327,0.286165,-0.607049,-0.34063699999999997
498,-2.183647,-1.04914,2.107789,-0.407629,0.8669950000000001,0.28663299999999997,-0.576353,0.185556,-0.7469939999999999,0.269919,-0.7459319999999999,-0.34008499999999997
499,-2.177316,-1.037621,2.107965,-0.41761400000000004,0.8611979999999999,0.28972,-0.148405,0.41983400000000004,-0.298856,0.288509,-0.865974,-0.28128200000000003
500,-2.157893,-1.041208,2.114175,-0.420587,0.863015,0.279841,0.486904,0.8892770000000001,0.301048,0.402231,-0.928933,-0.30848200000000003
501,-2.120103,-1.064527,2.1334720000000003,-0.41358,0.87456,0.253173,1.391546,1.0528600000000001,0.965182,0.56867,-0.9830190000000001,-0.269638
502,-2.0663080000000003,-1.105306,2.179384,-0.394874,0.893602,0.213425,2.202629,0.324022,1.374501,0.546363,-0.929063,-0.218766
503,-2.0159580000000004,-1.155044,2.245413,-0.364517,0.9148129999999999,0.17391099999999998,2.389535,-0.974353,1.6958,0.275375,-0.769046,-0.053611
504,-1.9946490000000001,-1.2015069999999999,2.289845,-0.329013,0.932584,0.148451,1.204442,-0.49068500000000004,1.649515,-0.29949699999999996,-0.407941,0.616152
505,-1.9265880000000002,-1.214581,2.3233740000000003,-0.32689,0.9372229999999999,0.121474,0.741685,3.4552660000000004,-0.652246,-1.699829,0.518938,0.403413
506,-1.769005,-1.1881030000000001,2.377481,-0.366109,0.9276620000000001,0.073532,0.51993,5.901216000000001,-1.809541,-1.219325,1.1809040000000002,0.41981599999999997
507,-1.645673,-1.156181,2.4064229999999998,-0.40170900000000004,0.915271,0.030135000000000002,0.23408299999999999,3.6573339999999996,-1.459354,-0.661752,0.541333,0.801271
508,-1.573232,-1.1383459999999999,2.4456599999999997,-0.419095,0.907942,0.001021,1.21445,1.0040229999999999,-0.5186850000000001,0.461301,-0.49981499999999995,-0.457503
509,-1.506083,-1.147669,2.5189060000000003,-0.40975500000000004,0.911809,-0.026554,1.50505,-0.678801,1.280115,0.676707,-0.402944,-0.239315
510,-1.506081,-1.197459,2.579428,-0.36396100000000003,0.9311159999999999,-0.023587,0.486073,-3.671567,3.061831,1.035577,0.66474,0.13056600000000002
511,-1.5394780000000001,-1.245871,2.595429,-0.319081,0.947675,-0.009996,0.15428599999999998,-1.4248290000000001,1.7352439999999998,0.507954,1.6855189999999998,-0.805921
512,-1.55,-1.24843,2.569881,-0.316743,0.9484879999999999,-0.006587999999999999,-0.7242109999999999,2.1337040000000003,-0.558243,0.425889,0.9248940000000001,0.785976
513,-1.5041069999999999,-1.246919,2.564461,-0.317537,0.948009,-0.021208,0.4897,2.262254,0.3399,0.955858,0.0062,0.711637
514,-1.359942,-1.264553,2.651654,-0.294802,0.9534729999999999,-0.063098,1.536749,4.225777,1.506923,1.368121,-0.615155,-0.24580100000000002
515,-1.076646,-1.289799,2.8072209999999997,-0.244139,0.960779,-0.131526,1.6132739999999999,7.7262070000000005,1.9890130000000001,1.1919389999999999,-0.356348,-0.704778
516,-0.8252510000000001,-1.2979610000000001,2.94354,-0.19798,0.9630110000000001,-0.18279700000000002,1.134654,4.090304,1.102637,0.49895900000000004,0.04558,-1.4586059999999998
517,-0.715173,-1.294899,3.0480650000000002,-0.17863199999999999,0.962181,-0.20566399999999999,1.072865,-1.139981,0.835443,-0.222323,0.45667299999999994,-1.093194
518,-0.657878,-1.286883,3.1092419999999996,-0.171273,0.959966,-0.221652,0.607507,2.2292419999999997,-0.032041,-1.317908,0.683268,0.581317
519,-0.5672560000000001,-1.2737120000000002,3.105531,-0.15729100000000001,0.9561940000000001,-0.246885,0.532127,4.983844,-0.448431,-0.949734,-0.347155,-0.581286
520,-0.48216800000000004,-1.264275,3.1136310000000003,-0.13991900000000002,0.9533889999999999,-0.267342,0.388847,3.275762,0.052685,-0.33159299999999997,-0.793492,-0.381675
521,-0.413317,-1.263536,3.122115,-0.121478,0.953166,-0.27698,-0.129857,3.001637,0.056891,0.058841,-0.634654,-0.008359
522,-0.37235100000000004,-1.268041,3.104063,-0.10846900000000001,0.954519,-0.27771999999999997,-0.291401,2.753418,-0.332752,0.121393,-0.201375,0.233073
523,-0.361153,-1.263724,3.068988,-0.10680799999999999,0.9532229999999999,-0.28276999999999997,0.15859,1.9603540000000002,-0.597785,-0.082722,0.315012,0.138712
524,-0.32905999999999996,-1.258513,3.059684,-0.099284,0.951634,-0.290749,0.20605500000000002,2.270686,0.075129,-0.428961,0.28924099999999997,0.048287000000000004
525,-0.246265,-1.256049,3.089237,-0.07546900000000001,0.950875,-0.300237,0.24997600000000003,2.979334,0.5092939999999999,-0.609116,-0.05812899999999999,0.0127
526,-0.147999,-1.258315,3.122595,-0.045332,0.951574,-0.30406,-0.268165,3.522355,0.493228,-0.634798,-0.072652,0.18327100000000002
527,-0.049091,-1.2719040000000001,-3.137222,-0.01445,0.9556629999999999,-0.294107,-0.636109,3.929898,0.393996,-0.643708,-0.0398,0.626093
528,0.029456,-1.275291,-3.117947,0.008577,0.9566549999999999,-0.291097,-0.002281,2.291309,0.160173,-0.39174000000000003,-0.051199,0.49524399999999996
529,0.05973,-1.276176,-3.119996,0.017334,0.9569129999999999,-0.289858,-0.077862,1.366853,-0.09127,-0.330704,0.207806,0.216036
530,0.07309,-1.279028,-3.129838,0.021005000000000003,0.9577370000000001,-0.286878,-0.20893,1.045015,-0.212482,-0.7157680000000001,0.500103,0.36388899999999996
531,0.08190599999999999,-1.289574,3.1358669999999997,0.022706,0.960717,-0.2766,-0.710101,1.453139,-0.341488,-0.8766950000000001,0.44921099999999997,0.564778
532,0.067366,-1.31399,3.091141,0.017097,0.9672059999999999,-0.253417,-1.512334,1.349667,-0.941959,-0.454643,0.44542200000000004,0.8580610000000001
533,-0.015782,-1.357919,2.9788580000000002,-0.003334,0.977427,-0.211247,-2.492995,1.344088,-1.626054,-0.084816,0.586431,1.033406
534,-0.248038,-1.414161,2.712527,-0.038297000000000005,0.987758,-0.151221,-3.427453,1.681236,-2.277151,0.073408,0.450291,0.9513
535,-0.807692,-1.4574639999999999,2.093083,-0.081729,0.993585,-0.078164,-4.029684,3.606447,-2.618178,0.539431,0.166434,0.5017020000000001
536,-1.488326,-1.432501,1.309459,-0.13738599999999998,0.990452,-0.011356,-3.7505129999999998,5.196638,-3.325429,0.9279290000000001,0.568691,0.168949
537,-1.765893,-1.349293,0.952594,-0.215529,0.975568,0.042591000000000004,-3.077932,2.374359,-4.349017,0.727003,1.4533260000000001,-0.45157200000000003
538,-1.8375279999999998,-1.245866,0.850823,-0.30795300000000003,0.947673,0.084146,-2.204962,1.266317,-4.799766,0.838974,1.550023,-0.193429
539,-1.84159,-1.1309049999999998,0.8391209999999999,-0.41032299999999994,0.904798,0.11391099999999998,-1.510416,-0.42074799999999996,-6.015867,-0.046632,2.044772,-0.39951
540,-1.8738849999999998,-0.9984360000000001,0.8319629999999999,-0.516931,0.840625,0.161656,-2.591167,-1.7564919999999997,-6.172324,-0.504554,1.7350740000000002,-0.254567
541,-1.9605970000000001,-0.879851,0.755915,-0.589461,0.770644,0.242164,-4.895162,-0.850856,-3.9495169999999997,-0.073869,1.249696,-0.453437
542,-2.043986,-0.779243,0.663588,-0.633271,0.702741,0.324226,-4.728675,-0.605969,-2.99795,0.622987,0.7418239999999999,-0.193168
543,-2.0951720000000003,-0.696673,0.60423,-0.663927,0.64167,0.384006,-3.5940339999999997,-0.8784879999999999,-2.4320630000000003,0.7422350000000001,0.320397,-0.224766
544,-2.148743,-0.621306,0.5652119999999999,-0.681057,0.582098,0.44421099999999997,-2.972954,-1.563469,-2.435393,0.928097,-0.045263,-0.574842
545,-2.185184,-0.548617,0.546025,-0.6972109999999999,0.521508,0.491861,-2.610996,-1.131802,-2.5402400000000003,0.993094,-0.394875,-0.730157
546,-2.220325,-0.48472200000000004,0.5294409999999999,-0.704631,0.465962,0.53514,-2.423797,-1.584516,-1.9113060000000002,0.700725,-0.203557,-0.715773
547,-2.268032,-0.426879,0.507022,-0.697825,0.41403199999999996,0.584481,-2.7183610000000002,-2.14548,-1.499243,0.737117,-0.426864,-0.9850700000000001
548,-2.347868,-0.381763,0.47865100000000005,-0.661643,0.372557,0.6507149999999999,-2.181315,-3.993839,-0.34158,0.614844,-0.43420299999999995,-1.08263
549,-2.421191,-0.36840700000000004,0.45254700000000003,-0.6154229999999999,0.36013,0.701114,-0.772564,-2.195895,0.893343,0.230902,-0.615532,-0.53725
550,-2.428816,-0.38034,0.427738,-0.607205,0.371236,0.702485,-0.1878,1.406045,1.3906040000000002,0.247998,-0.719609,-0.0038619999999999995
551,-2.3822509999999997,-0.390434,0.406289,-0.6366350000000001,0.38059,0.6707069999999999,-0.338535,3.210927,0.6469600000000001,0.8752969999999999,-0.8009850000000001,-0.005592
552,-2.327302,-0.389102,0.40679,-0.672878,0.379358,0.635077,0.350718,2.053248,-0.284641,-0.10080399999999999,-0.49628599999999995,0.337625
553,-2.31685,-0.401294,0.42066899999999996,-0.676032,0.39061,0.6248239999999999,1.010057,-0.760234,0.23097600000000001,-0.45736000000000004,-0.31845100000000004,-0.175788
554,-2.34298,-0.420676,0.42876099999999995,-0.653929,0.408377,0.636871,0.943132,-1.550708,0.564806,-0.48649799999999993,-0.28827600000000003,-0.33581500000000003
555,-2.354197,-0.45326000000000005,0.434277,-0.636975,0.437899,0.6344350000000001,1.6474779999999998,-0.040312,1.326228,-0.17416700000000002,-0.08981499999999999,-0.24466500000000002
556,-2.339632,-0.509726,0.434065,-0.627356,0.48793800000000004,0.606911,1.823549,1.05088,2.416714,0.490439,0.056327999999999996,0.801673
557,-2.345489,-0.569137,0.414509,-0.601985,0.538905,0.589232,1.883676,-0.531025,2.889179,0.8996379999999999,0.438267,0.9805459999999999
558,-2.308503,-0.654962,0.405927,-0.586883,0.609129,0.533414,2.485265,3.8500389999999998,3.270191,0.7031390000000001,1.9319169999999999,-0.522245
559,-2.251467,-0.703012,0.388517,-0.5928869999999999,0.646518,0.480103,0.8557309999999999,2.8438830000000004,1.622514,0.49633,1.348126,-0.554825
560,-2.172721,-0.7406689999999999,0.398346,-0.608309,0.674782,0.417887,1.406468,4.0817190000000005,1.149416,0.48594899999999996,0.321846,-0.275996
561,-2.09803,-0.770649,0.410671,-0.6200289999999999,0.696601,0.36098600000000003,1.26285,2.662556,1.061569,0.54401,0.038049,-0.524514
562,-2.043075,-0.808479,0.42791599999999996,-0.615002,0.723237,0.314165,1.46365,2.032368,1.572252,0.255002,0.170302,-0.561129
563,-1.991712,-0.853202,0.44008400000000003,-0.600178,0.75339,0.26868200000000003,1.244624,2.133754,1.9818580000000001,-0.200542,0.501233,-0.45859300000000003
564,-1.945916,-0.902329,0.446117,-0.576687,0.7847729999999999,0.227079,1.076022,1.9424849999999998,2.273618,-0.337971,0.66086,-0.30412
565,-1.9103290000000002,-0.947685,0.451342,-0.550249,0.812067,0.194354,0.811817,1.398498,1.878296,-0.093,0.611548,-0.193408
566,-1.8817869999999999,-0.981756,0.45115299999999997,-0.528913,0.8314739999999999,0.170004,0.401448,1.574052,1.489576,0.293119,0.168953,-0.034246
567,-1.845434,-1.008809,0.44501199999999996,-0.512899,0.846198,0.144513,0.128628,2.359977,1.2559280000000002,0.49069700000000005,-0.207038,0.113925
568,-1.8064779999999998,-1.0297020000000001,0.43233599999999994,-0.500835,0.857146,0.120273,-0.152729,2.407798,0.99646,0.43368100000000004,-0.375761,-0.032825
569,-1.7817450000000001,-1.048816,0.415667,-0.487545,0.866834,0.1044,-0.218671,1.8462020000000001,1.101407,0.085888,-0.42521400000000004,-0.052444000000000005
570,-1.7569419999999998,-1.073325,0.398338,-0.46896099999999996,0.878792,0.08831699999999999,-0.114651,2.022551,1.398873,-0.314852,-0.549446,-0.08197
571,-1.726664,-1.1026690000000001,0.386252,-0.44574600000000003,0.892415,0.070046,0.011143,2.070832,1.470193,-0.6137630000000001,-0.5934189999999999,-0.017647
572,-1.698663,-1.124591,0.37344099999999997,-0.428022,0.902091,0.055029999999999996,-0.25902800000000004,1.8899,0.864992,-0.685778,-0.368583,-0.068275
573,-1.689253,-1.132984,0.347975,-0.42098800000000003,0.905681,0.050102999999999995,-0.601011,1.388608,0.25008600000000003,-0.6594869999999999,-0.16259400000000002,0.010718
574,-1.6992779999999998,-1.126454,0.314429,-0.426321,0.9028930000000001,0.055077999999999995,-0.8548020000000001,0.863237,-0.5468390000000001,-0.510889,-0.181107,0.21004299999999998
575,-1.717855,-1.10382,0.27421999999999996,-0.445329,0.892934,0.065966,-1.059288,0.982771,-1.223536,-0.294829,-0.198689,0.307264
576,-1.717352,-1.074793,0.25145300000000004,-0.470812,0.879492,0.069498,-0.5117149999999999,0.9259290000000001,-1.336075,-0.059338999999999996,-0.075903,0.42598500000000006
577,-1.7154669999999999,-1.052722,0.239258,-0.490034,0.868775,0.071392,-0.379907,0.334494,-0.8665149999999999,0.24030900000000002,-0.039856,0.10795899999999999
578,-1.707171,-1.0455,0.247216,-0.49681400000000003,0.865175,0.068176,0.411438,0.12396900000000001,-0.055277999999999994,0.489733,-0.378847,-0.919845
579,-1.691511,-1.060924,0.25414699999999996,-0.48451400000000006,0.872807,0.058774,0.225771,0.570647,1.353974,0.6285569999999999,-0.305424,0.505923
580,-1.636064,-1.1156629999999998,0.280273,-0.438647,0.8982020000000001,0.028669999999999998,1.2816,2.529488,3.4162339999999998,1.6730369999999999,0.62554,-0.21673499999999998
581,-1.547419,-1.189915,0.333671,-0.371638,0.9283370000000001,-0.008689,0.944948,1.2012450000000001,3.402766,1.534922,1.539116,-0.028511
582,-1.480302,-1.2308059999999998,0.41031999999999996,-0.332113,0.942758,-0.030137,1.608328,-0.6125010000000001,1.393989,-0.136027,2.996832,-0.129959
583,-1.347457,-1.252644,0.557697,-0.305043,0.949815,-0.069284,2.456596,0.112374,1.867935,-1.30508,1.501326,-0.297781
584,-1.1373870000000001,-1.286314,0.772644,-0.25471,0.959807,-0.117868,2.321781,-0.21905100000000002,2.813862,-1.8437849999999998,0.711549,0.043222000000000003
585,-0.916457,-1.306319,1.014897,-0.20741199999999999,0.9652290000000001,-0.1591,2.2509919999999997,-0.518452,2.357621,-0.646638,1.162288,0.22575
586,-0.7536430000000001,-1.3159100000000001,1.207898,-0.172536,0.967692,-0.183857,1.014238,-1.826496,1.8037290000000001,0.095235,1.1205040000000002,0.505406
587,-0.709075,-1.328052,1.277189,-0.15651099999999998,0.9706819999999999,-0.18243,-0.5320159999999999,-0.14857599999999999,0.45443199999999995,0.034181,0.399527,1.396771
588,-0.807643,-1.340942,1.147815,-0.164648,0.9737,-0.15748099999999998,-1.863117,2.18025,-1.352463,-0.6642710000000001,0.193857,0.890315
589,-1.02757,-1.331227,0.86654,-0.203126,0.97144,-0.122653,-2.761765,2.7476119999999997,-2.8613869999999997,-0.9685959999999999,0.32970700000000003,0.108767
590,-1.337503,-1.296442,0.494697,-0.263587,0.9626,-0.06263300000000001,-4.116644,2.310893,-3.561431,-0.648858,0.077408,0.15096700000000002
591,-1.5695729999999999,-1.235207,0.19481800000000002,-0.329326,0.9442159999999999,-0.00040300000000000004,-3.7385610000000002,3.222077,-3.44993,-0.380407,-0.322253,0.886542
592,-1.6468080000000003,-1.163157,0.078019,-0.395298,0.9180590000000001,0.030105,-1.481319,-0.5647439999999999,-3.600226,0.450672,0.21009899999999998,0.858475
593,-1.774239,-1.085481,0.031824,-0.456867,0.8845280000000001,0.09425,-1.839853,-5.78034,-3.8203739999999997,1.362827,0.935419,-1.090573
594,-1.959614,-0.983626,-0.037718,-0.512655,0.832512,0.210021,-4.163454,-5.875441,-4.662218,1.066824,1.166878,-1.476745
595,-2.062933,-0.8525309999999999,-0.124449,-0.579982,0.752949,0.310949,-5.452154,0.9451430000000001,-4.516522,-0.29431599999999997,0.33669699999999997,0.15090399999999998
596,-2.0812049999999997,-0.738152,-0.199703,-0.645433,0.672922,0.361375,-4.756569,1.447959,-3.524202,0.434251,0.482962,-0.10135
597,-2.093834,-0.633039,-0.24884099999999998,-0.698445,0.591597,0.402725,-3.983275,0.725953,-3.724042,1.096531,0.44955600000000007,-0.08342000000000001
598,-2.1072830000000002,-0.528161,-0.277997,-0.7423890000000001,0.503946,0.44147200000000003,-3.561142,-0.15306199999999998,-4.04898,0.27518000000000004,0.140036,-0.47867299999999996
599,-2.126156,-0.42334499999999997,-0.296451,-0.774698,0.410812,0.480704,-3.3501019999999997,-0.8061659999999999,-3.943051,0.246592,-0.121734,-0.527991
600,-2.166721,-0.327665,-0.31455700000000003,-0.783597,0.321833,0.531412,-3.3047809999999997,-2.249973,-3.36084,0.5671970000000001,-0.18273399999999998,-0.718928
601,-2.22559,-0.241944,-0.331936,-0.770072,0.23959,0.591258,-3.031406,-2.791265,-2.7664419999999996,0.610617,0.084888,-0.6124069999999999
602,-2.2790310000000003,-0.171874,-0.34119099999999997,-0.748321,0.171029,0.6409100000000001,-2.239312,-2.401984,-2.235843,0.709548,0.109794,-0.665934
603,-2.321638,-0.11879200000000001,-0.343839,-0.725962,0.11851300000000001,0.677446,-1.742145,-1.8827599999999998,-1.710675,0.916636,0.051836,-0.721346
604,-2.35832,-0.073324,-0.348796,-0.703706,0.073258,0.706704,-1.7374020000000001,-1.8789509999999998,-1.3357,1.103304,-0.11024500000000001,-0.8924799999999999
605,-2.395638,-0.037818,-0.349581,-0.678188,0.037808999999999995,0.733916,-0.939399,-1.7342689999999998,-1.179693,1.011333,-0.644559,-0.670744
606,-2.4173150000000003,-0.019219,-0.337181,-0.662473,0.019218,0.74884,0.0804,-0.5808220000000001,-0.936902,0.6230289999999999,-0.9757,-0.106826
607,-2.417399,-0.020178,-0.32732100000000003,-0.662396,0.020176,0.7488819999999999,0.429071,0.122402,0.055942,0.40495,-0.935475,0.033116
608,-2.4128700000000003,-0.033576999999999996,-0.32761999999999997,-0.665542,0.033571,0.7456050000000001,0.589896,0.397568,0.6335529999999999,-0.152115,-0.662691,0.11723399999999999
609,-2.382706,-0.061247,-0.324665,-0.686824,0.061209000000000006,0.724242,1.5006950000000001,2.3349900000000003,0.987809,-1.040059,-0.5877439999999999,0.045883999999999994
610,-2.324778,-0.108073,-0.321484,-0.724716,0.10786300000000001,0.680553,1.8229959999999998,2.490255,1.839098,-1.1454010000000001,-0.609892,0.076909
611,-2.3103279999999997,-0.164735,-0.31956100000000004,-0.7287819999999999,0.163991,0.664818,2.245232,-0.120196,2.1370169999999997,-0.094032,0.135936,0.286506
612,-2.338094,-0.238936,-0.31399499999999997,-0.69934,0.23666900000000002,0.674471,2.953914,-1.417032,2.686286,0.624999,0.28884299999999996,0.48306099999999996
613,-2.323599,-0.32327100000000003,-0.302607,-0.691974,0.31767,0.648273,3.197347,1.1403370000000002,2.831055,0.742786,0.981525,-0.6512640000000001
614,-2.302108,-0.39924,-0.31097600000000003,-0.685765,0.388718,0.615324,1.906998,1.234574,3.0270200000000003,0.900533,1.770461,0.12230099999999999
615,-2.264162,-0.460696,-0.313747,-0.688916,0.444572,0.572495,1.876268,2.2101189999999997,2.0513369999999997,0.535626,0.943917,-0.152757
616,-2.2153490000000002,-0.509097,-0.309742,-0.697997,0.487389,0.5246460000000001,1.56616,2.461694,1.745473,0.527388,0.27401,-0.015338
617,-2.162783,-0.5590430000000001,-0.305371,-0.7035020000000001,0.530375,0.47306099999999995,1.636317,2.471939,2.05253,0.322353,0.21194899999999997,-0.19844900000000001
618,-2.1143389999999997,-0.615975,-0.300606,-0.69858,0.577755,0.42212,1.717646,2.2313549999999998,2.4721490000000004,0.09805499999999999,0.22409400000000002,-0.22110100000000002
619,-2.069619,-0.6808420000000001,-0.298033,-0.682357,0.629448,0.371731,1.7021400000000002,2.064541,2.909158,0.020339,0.310051,-0.24204699999999998
620,-2.030986,-0.748527,-0.29316,-0.656469,0.68056,0.325402,1.7268740000000002,1.5619290000000001,2.8373369999999998,-0.003016,0.370771,-0.217324
621,-1.999816,-0.809018,-0.280489,-0.6276579999999999,0.7236100000000001,0.287113,1.6818669999999998,0.788546,2.342359,-0.012844,0.331871,-0.216175
622,-1.98249,-0.859981,-0.261596,-0.5979359999999999,0.75783,0.26108600000000004,1.565086,-0.188452,1.9464849999999998,0.032674,0.184614,-0.194436
623,-1.97953,-0.9059590000000001,-0.244585,-0.5661109999999999,0.787017,0.245198,1.289182,-0.6091810000000001,1.905573,0.122446,-0.020263,-0.147297
624,-1.985039,-0.9505379999999999,-0.23801399999999998,-0.532085,0.813728,0.23395,0.942787,-0.453825,1.9830709999999998,0.16663699999999998,-0.145759,-0.11108599999999999
625,-1.9913869999999998,-0.992134,-0.239355,-0.499241,0.837195,0.22330100000000003,0.790187,-0.130999,1.8373810000000002,0.049198,-0.12746300000000002,-0.057026
626,-1.9854459999999998,-1.028,-0.232471,-0.47276,0.856268,0.20809499999999997,0.9306120000000001,0.035463999999999996,1.379882,-0.141147,0.026208999999999996,-0.130473
627,-1.975212,-1.055459,-0.220806,-0.453074,0.8701260000000001,0.193919,0.7430140000000001,-0.028558999999999998,1.036822,-0.121511,0.046729,-0.10728
628,-1.974,-1.077734,-0.214454,-0.43536899999999995,0.8808879999999999,0.18571700000000002,0.451883,-0.344563,0.9273030000000001,-0.05137100000000001,0.019594,-0.08380399999999999
629,-1.9888119999999998,-1.0943180000000001,-0.21894299999999997,-0.41916099999999995,0.888616,0.18618900000000002,0.13131600000000002,-0.67599,0.704367,0.192614,-0.233235,-0.09439199999999999
630,-2.011155,-1.1043450000000001,-0.228208,-0.406816,0.89317,0.191699,-0.062491,-0.5955229999999999,0.463628,0.232057,-0.351437,-0.12257699999999999
631,-2.027735,-1.109532,-0.24395,-0.399419,0.89549,0.196371,-0.29648,0.175899,0.35952399999999995,0.386006,-0.6331,0.105951
632,-2.040637,-1.112087,-0.269838,-0.394811,0.896625,0.200471,-0.5171439999999999,0.712417,0.379728,0.617589,-0.5492130000000001,0.114531
633,-2.0363130000000003,-1.115422,-0.293622,-0.392999,0.8980969999999999,0.197418,-0.314504,1.669303,0.403418,0.6131989999999999,-0.437968,0.033157
634,-2.004317,-1.1222809999999999,-0.308627,-0.393515,0.901092,0.18215399999999998,0.021977,2.561538,0.494356,0.574362,-0.308334,-0.195917
635,-1.960325,-1.138277,-0.308838,-0.38776,0.907913,0.15917699999999999,0.491654,1.8911790000000002,0.9610360000000001,-0.10354300000000001,0.343064,-0.34213000000000005
636,-1.897546,-1.174364,-0.284909,-0.3657,0.922444,0.12393499999999999,1.489012,2.290952,1.886161,-0.164772,0.6265970000000001,-0.686267
637,-1.801909,-1.230325,-0.227056,-0.32505300000000004,0.9425969999999999,0.076491,1.871186,1.6432689999999999,2.618188,-0.272924,0.866347,-0.37609699999999996
638,-1.673664,-1.286243,-0.09443700000000001,-0.27924499999999997,0.9597870000000001,0.028827,2.891945,-0.708691,2.224544,-0.760199,1.344366,-0.373233
639,-1.448966,-1.329823,0.16071,-0.236879,0.9711059999999999,-0.029002999999999998,3.4496029999999998,-1.238018,2.245141,-0.740858,1.0271540000000001,-0.325245
640,-1.1027209999999998,-1.353133,0.54184,-0.192721,0.976405,-0.09742999999999999,4.002966000000001,-1.3833799999999998,2.419039,-0.68179,0.8551690000000001,-0.213148
641,-0.734546,-1.341466,0.965974,-0.152365,0.9738190000000001,-0.168706,3.8663519999999996,-2.916509,2.320705,-0.743845,1.154828,0.202092
642,-0.508554,-1.317053,1.266397,-0.12222999999999999,0.967979,-0.21926199999999998,2.439742,-3.054951,2.214778,0.013725,1.458748,0.854073
643,-0.393773,-1.319761,1.448636,-0.095308,0.968656,-0.22939600000000002,0.052111000000000005,-3.187823,1.8158470000000002,0.304002,0.8751549999999999,1.223902
644,-0.404179,-1.3270620000000002,1.468565,-0.09490599999999999,0.9704430000000001,-0.22188400000000003,-0.282296,-0.232571,-0.599116,0.013271000000000002,0.29289299999999996,0.742376
645,-0.569033,-1.340308,1.3010030000000001,-0.12309500000000001,0.973555,-0.192454,-2.577659,-0.492842,-1.718289,-0.43623199999999995,0.302507,0.7127479999999999
646,-0.973988,-1.3643370000000001,0.899508,-0.169559,0.9787629999999999,-0.11520899999999999,-4.1746360000000005,-0.190621,-2.650639,-0.8377959999999999,0.24995100000000003,1.010229
647,-1.3810850000000001,-1.3374190000000001,0.45933199999999996,-0.227115,0.972891,-0.043611000000000004,-3.6865650000000003,1.7889979999999999,-3.157172,-0.690014,0.07334299999999999,0.5009779999999999
648,-1.604277,-1.277517,0.186887,-0.288931,0.9573010000000001,0.009677,-3.07849,1.910869,-3.2588340000000002,-0.155909,0.20517399999999997,0.084836
649,-1.7183389999999998,-1.208835,0.038094,-0.350261,0.935204,0.052057000000000006,-2.442046,0.9834629999999999,-3.123945,0.8907280000000001,0.8593209999999999,-0.309701
650,-1.792041,-1.141628,-0.049381,-0.405972,0.9093120000000001,0.09131399999999999,-2.279932,-0.088215,-2.995389,1.125866,0.857442,-0.48908
651,-1.874696,-1.0597290000000001,-0.11826199999999999,-0.466696,0.872223,0.146362,-2.7381189999999997,-1.634849,-3.9654849999999997,1.001638,0.616577,-0.826355
652,-1.959586,-0.9575790000000001,-0.166044,-0.532551,0.817801,0.21815500000000002,-3.120425,-2.3234939999999997,-4.579364,0.151249,0.350763,-0.369613
653,-2.021498,-0.8370059999999999,-0.206414,-0.602815,0.742642,0.291715,-3.8879019999999995,-0.889797,-5.203995,0.05360499999999999,0.450672,-0.20713499999999999
654,-2.052167,-0.709214,-0.238986,-0.672637,0.651237,0.351354,-3.7382800000000005,-0.446696,-5.053967,0.254637,0.602348,-0.06743400000000001
655,-2.075739,-0.593992,-0.25304699999999997,-0.725291,0.559673,0.40089600000000003,-2.858899,-1.077083,-4.549225,0.33597899999999997,0.342533,-0.545489
656,-2.115681,-0.497179,-0.259511,-0.7516510000000001,0.476948,0.455567,-2.689088,-2.258602,-3.8660669999999997,0.505984,0.259472,-0.5659489999999999
657,-2.1670119999999997,-0.400278,-0.271884,-0.762058,0.389675,0.517129,-3.218757,-2.4226099999999997,-3.6847540000000003,0.9337489999999999,-0.051905999999999994,-0.585717
658,-2.223175,-0.309234,-0.28028800000000004,-0.75695,0.304329,0.578283,-2.753118,-2.633554,-3.2849209999999998,1.042564,-0.054465999999999994,-0.648123
659,-2.266844,-0.23245700000000002,-0.281801,-0.746742,0.23036900000000002,0.6239439999999999,-2.308951,-1.813684,-2.773327,1.072075,0.01696,-0.649701
660,-2.291211,-0.16733299999999998,-0.279441,-0.741035,0.166554,0.650482,-1.850052,-0.948534,-2.409103,1.038353,-0.051273,-0.667877
661,-2.303814,-0.115745,-0.27602600000000005,-0.738186,0.11548599999999999,0.6646380000000001,-1.456109,-0.528341,-1.804413,1.033017,-0.269142,-0.821682
662,-2.314584,-0.07588099999999999,-0.273287,-0.733791,0.075809,0.675132,-1.092726,-0.723928,-1.4266780000000001,0.8703120000000001,-0.6398189999999999,-0.7362890000000001
663,-2.3336650000000003,-0.049552,-0.26745399999999997,-0.72197,0.049531,0.69015,-0.421695,-1.025172,-1.000726,0.583878,-0.7394569999999999,-0.41038
664,-2.350022,-0.039041,-0.258565,-0.710916,0.039031,0.7021930000000001,0.119548,-0.653175,-0.459038,0.14348699999999998,-0.598449,-0.20642
665,-2.357357,-0.040074,-0.254244,-0.705717,0.040063,0.70736,0.170234,-0.27610100000000004,0.037556,-0.06064,-0.31609499999999996,-0.18723399999999998
666,-2.355975,-0.040688999999999996,-0.25515,-0.706676,0.040677,0.706367,-0.084022,0.36287800000000003,0.038166000000000005,-0.211094,-0.152524,-0.292503
667,-2.338388,-0.043761,-0.254445,-0.718896,0.043747,0.6937399999999999,0.35576599999999997,1.177141,0.09146900000000001,-0.39012800000000003,0.016937999999999998,-0.279708
668,-2.315238,-0.058338,-0.242087,-0.734215,0.058303999999999995,0.676409,1.3591540000000002,0.900594,0.181086,-0.598594,-0.211365,0.094649
669,-2.312116,-0.084172,-0.225135,-0.734967,0.084073,0.672871,1.35209,-0.20605500000000002,0.40998599999999996,-1.170291,0.14488499999999999,1.216365
670,-2.301952,-0.11532,-0.209554,-0.739459,0.11506500000000001,0.663295,2.015597,0.8905350000000001,1.060558,-0.923475,0.527193,0.42857799999999996
671,-2.276655,-0.179009,-0.192099,-0.748894,0.178054,0.6383220000000001,2.841071,0.983325,2.179294,0.01757,0.493699,-0.19487100000000002
672,-2.271241,-0.246258,-0.191641,-0.74149,0.243777,0.625113,1.856293,0.237125,2.626297,0.388295,0.570157,-0.008169
673,-2.251667,-0.309276,-0.192696,-0.740158,0.304369,0.599604,2.108668,1.287684,2.35859,0.407044,0.37635599999999997,-0.145243
674,-2.222658,-0.369255,-0.187003,-0.741373,0.360921,0.5657760000000001,2.039336,1.5126540000000002,2.103581,0.5109199999999999,0.15034,0.025502
675,-2.1887529999999997,-0.425146,-0.176981,-0.742506,0.412454,0.527795,2.053541,1.425902,1.9414220000000002,0.4288,0.138663,0.12845499999999999
676,-2.150346,-0.482324,-0.161688,-0.7412569999999999,0.46384,0.485171,2.227039,1.652945,2.022459,0.309998,0.12054200000000001,0.105054
677,-2.109093,-0.5428390000000001,-0.14297200000000002,-0.735158,0.516569,0.438975,2.322824,1.5368629999999999,2.197397,0.276402,0.404589,-0.131526
678,-2.070624,-0.604521,-0.123323,-0.72212,0.568368,0.394335,2.204998,1.314152,2.3165,0.26366999999999996,0.464545,-0.16151600000000002
679,-2.03443,-0.667691,-0.104807,-0.702357,0.619175,0.351166,2.0692310000000003,1.242341,2.543175,0.258707,0.49196999999999996,-0.109925
680,-1.997736,-0.7329289999999999,-0.086362,-0.676504,0.66905,0.307757,2.010155,1.2867549999999999,2.676234,0.39607800000000004,0.317736,-0.160601
681,-1.9564560000000002,-0.796411,-0.068511,-0.647915,0.714851,0.263047,1.839965,1.2252040000000002,2.4988669999999997,0.6063189999999999,0.20027899999999998,-0.122422
682,-1.915571,-0.849774,-0.04003,-0.621304,0.751131,0.223122,1.7947490000000001,1.207804,2.094786,0.616009,0.06364199999999999,-0.050926
683,-1.854534,-0.901277,-0.013041,-0.5957939999999999,0.7841199999999999,0.173737,1.541201,2.543214,2.15967,0.580856,-0.007631000000000001,-0.077317
684,-1.766461,-0.9518620000000001,0.022238,-0.5690970000000001,0.814497,0.112795,1.694997,3.155868,2.262508,0.48265600000000003,0.017748,-0.078692
685,-1.667166,-1.002251,0.060601,-0.535909,0.842685,0.051806,1.154601,3.3629800000000003,2.352472,0.38913400000000004,0.089551,-0.11632
686,-1.597856,-1.0507360000000001,0.08509,-0.496751,0.8677889999999999,0.013444999999999999,0.711359,1.508094,2.264158,-0.178924,0.269357,-0.222887
687,-1.572806,-1.092942,0.103322,-0.459874,0.887984,0.000924,0.394646,-0.046507,2.097296,-0.648463,0.006379999999999999,-0.024117
688,-1.563097,-1.132208,0.126533,-0.42465,0.905352,-0.0032700000000000003,0.618215,-0.677836,1.8091099999999998,-0.497042,-0.24014499999999997,0.13360999999999998
689,-1.5634780000000001,-1.162427,0.139767,-0.39710300000000004,0.9177690000000001,-0.0029059999999999997,0.040704000000000004,-0.702972,1.137469,-0.11960599999999999,-0.322341,-0.156945
690,-1.5938370000000002,-1.176035,0.1274,-0.384486,0.9230879999999999,0.00886,-0.41281599999999996,-1.026255,0.592059,-0.19473800000000002,-0.314934,-0.089991
691,-1.6323860000000001,-1.186848,0.103199,-0.373874,0.927193,0.023056,-0.364223,-0.536999,0.476404,-0.021268000000000002,-0.350945,0.365769
692,-1.642791,-1.190433,0.08970299999999999,-0.370296,0.92853,0.026705,-0.20385,0.485962,-0.00235,0.26588,-0.345537,0.43578900000000004
693,-1.635048,-1.183406,0.075273,-0.376994,0.925898,0.024256,-0.395189,1.3408149999999999,-0.49402799999999997,0.45733100000000004,-0.334757,0.29022800000000004
694,-1.6350209999999998,-1.1729530000000001,0.049832,-0.38663200000000003,0.921899,0.024866,-0.537177,0.9478120000000001,-0.391967,0.590154,-0.410332,0.17507
695,-1.640196,-1.170081,0.020996,-0.389138,0.920782,0.027049,-0.633463,1.32987,0.051251,0.466103,-0.320318,0.016972
696,-1.6412959999999999,-1.172966,-0.020636,-0.386456,0.9219040000000001,0.02729,-0.8621969999999999,2.146936,0.24943200000000001,0.391797,-0.257765,-0.10518599999999999
697,-1.6384759999999998,-1.175127,-0.066447,-0.384544,0.922739,0.026066000000000002,-0.878193,2.245563,0.10818900000000001,-0.084405,0.12444100000000001,0.05717100000000001
698,-1.63022,-1.1751969999999998,-0.10349100000000001,-0.384681,0.922766,0.022886,-0.541397,1.869664,0.04693,-0.132638,0.378717,0.018908
699,-1.623846,-1.181068,-0.12088199999999999,-0.37940300000000005,0.9250120000000001,0.020146,-0.199199,0.653085,0.5572159999999999,-0.023277000000000003,0.417105,-0.49661700000000003
700,-1.615465,-1.202587,-0.121875,-0.359586,0.9329729999999999,0.016073,0.192223,0.74743,1.398384,-0.078784,0.34925300000000004,-0.160589
701,-1.572199,-1.242133,-0.092308,-0.322777,0.946475,0.000453,0.785177,0.38814699999999996,2.286405,-0.16384100000000001,0.472821,-0.122401
702,-1.508502,-1.292398,-0.011343,-0.274283,0.9614969999999999,-0.017108,1.3488639999999998,-1.350424,2.6066279999999997,-0.303095,0.957937,-0.27438
703,-1.389208,-1.337675,0.15658699999999998,-0.227217,0.97295,-0.04172,2.074154,-2.522966,2.429462,-0.253298,1.2515370000000001,-0.331785
704,-1.1702219999999999,-1.368128,0.43192600000000003,-0.18535,0.979533,-0.07849,2.577195,-2.3620099999999997,2.2351490000000003,-0.11558399999999999,1.084188,-0.059342
705,-0.863635,-1.3789790000000002,0.789512,-0.144929,0.9816590000000001,-0.123857,2.7067259999999997,-2.189126,2.311676,0.48106499999999996,1.140655,0.278444
706,-0.585453,-1.369518,1.1131799999999998,-0.110472,0.9798120000000001,-0.166627,2.148478,-1.767702,1.837219,0.282225,1.4071360000000002,0.5273909999999999
707,-0.39977199999999996,-1.357261,1.328362,-0.082479,0.9772879999999999,-0.195206,1.297547,-0.986008,1.564286,0.06906699999999999,0.683982,0.511246
708,-0.26027100000000003,-1.3480020000000001,1.4849860000000001,-0.056861,0.975284,-0.21351399999999998,0.818542,-0.43928999999999996,1.389324,0.047401,0.335111,0.647932
709,-0.15742899999999999,-1.342714,1.588851,-0.035449,0.974102,-0.22331399999999998,0.279818,0.470195,0.8566940000000001,-0.146466,0.039616000000000005,0.81038
710,-0.095614,-1.346883,1.626718,-0.021199000000000003,0.975036,-0.22103299999999998,-0.434155,1.622791,0.15268099999999998,-0.432705,-0.056853999999999995,0.596399
711,-0.113311,-1.3681889999999999,1.568597,-0.022752,0.9795450000000001,-0.199933,-1.599637,2.125416,-0.9200530000000001,-0.636428,-0.016380000000000002,0.29992399999999997
712,-0.283481,-1.4071690000000001,1.350757,-0.045563,0.986643,-0.156397,-2.591356,2.205252,-1.9087779999999999,-0.682297,-0.07934,0.096689
713,-0.6898890000000001,-1.432413,0.900008,-0.08779400000000001,0.99044,-0.106397,-2.57056,1.8012970000000001,-2.670826,-0.507314,-0.227898,0.186399
714,-1.123509,-1.412328,0.429491,-0.142282,0.9874700000000001,-0.068254,-1.761277,1.453228,-2.908282,0.10320399999999999,-0.152509,0.295885
715,-1.3315860000000002,-1.370227,0.20526,-0.193554,0.9799530000000001,-0.047204,-0.8604569999999999,-0.136915,-2.436343,0.80978,0.176373,0.008767
716,-1.441505,-1.332194,0.132388,-0.23437199999999997,0.971669,-0.030472000000000003,-0.194172,-2.925424,-1.7786369999999998,1.335172,0.475688,-0.851318
717,-1.550675,-1.297922,0.090561,-0.269446,0.963,-0.005422,-0.788853,-3.3246879999999996,-1.849577,1.3226229999999999,0.370771,-0.772181
718,-1.711918,-1.249796,-0.036349,-0.31238,0.9489200000000001,0.044377999999999994,-2.765187,-1.025758,-2.548922,0.47755600000000004,0.060662,0.513636
719,-1.8429360000000001,-1.181432,-0.18085,-0.365631,0.92515,0.102034,-3.0060119999999997,0.631754,-2.8582389999999998,0.23440500000000003,-0.037592,0.5834060000000001
720,-1.8965490000000003,-1.119173,-0.248741,-0.413475,0.89974,0.139666,-1.8178290000000001,0.574501,-2.358485,0.389351,-0.015813,0.398389
721,-1.8879580000000002,-1.068659,-0.28823699999999997,-0.457295,0.876556,0.150103,-1.7499330000000002,3.0037,-1.9776310000000001,0.9299209999999999,0.10493499999999999,-0.279513
722,-1.8833119999999999,-1.022753,-0.34542399999999995,-0.495781,0.8535459999999999,0.160189,-2.208369,2.291007,-1.576131,0.9271780000000001,-0.123123,-0.33742
723,-1.899568,-0.9817290000000001,-0.40732199999999996,-0.525829,0.8314590000000001,0.17938800000000002,-2.2242029999999997,1.575472,-1.3787719999999999,0.814861,-0.20136300000000001,-0.289175
724,-1.9213639999999998,-0.9396110000000001,-0.465053,-0.554211,0.807329,0.20265899999999998,-2.271512,1.152079,-1.484313,0.48540900000000003,-0.300859,-0.15756900000000001
725,-1.940809,-0.896596,-0.514796,-0.582024,0.781207,0.225754,-2.081976,0.88807,-1.4271040000000002,0.513313,-0.347003,-0.25676
726,-1.9594040000000001,-0.8594450000000001,-0.556631,-0.60418,0.75748,0.24736799999999998,-1.8414400000000002,0.594097,-1.1141940000000001,0.5600510000000001,-0.357562,-0.315209
727,-1.9749709999999998,-0.829462,-0.592564,-0.6208640000000001,0.737568,0.265558,-1.5763209999999999,0.557794,-0.7907609999999999,0.5782010000000001,-0.396534,-0.36739499999999997
728,-1.984445,-0.808699,-0.623397,-0.632209,0.72339,0.277524,-1.244251,0.789349,-0.377473,0.563605,-0.681291,-0.261228
729,-1.9767849999999998,-0.799077,-0.647113,-0.6406810000000001,0.716713,0.27541,-0.74578,1.501773,0.050249,0.5575060000000001,-0.70655,-0.21709099999999998
730,-1.946013,-0.801926,-0.658925,-0.646949,0.718697,0.254818,-0.078294,2.261755,0.42674700000000004,0.532126,-0.711907,-0.193737
731,-1.895301,-0.815606,-0.659158,-0.649654,0.728141,0.21854099999999999,0.369674,2.570961,0.7681060000000001,0.324413,-0.70034,-0.164662
732,-1.848759,-0.8357030000000001,-0.6511520000000001,-0.644914,0.741768,0.184026,0.6908890000000001,1.558266,0.9265389999999999,0.25660900000000003,-0.684288,-0.089361
733,-1.821768,-0.8595700000000001,-0.630506,-0.632313,0.757562,0.16211099999999998,1.12437,0.025724,0.98601,0.16048099999999998,-0.684183,-0.005449
734,-1.798588,-0.8810379999999999,-0.593271,-0.619912,0.7714,0.143705,1.60768,-0.175523,0.5452640000000001,-0.9608979999999999,-0.323112,0.53998
735,-1.746833,-0.8935850000000001,-0.5418029999999999,-0.616938,0.779323,0.109739,1.7693189999999999,1.248561,0.18671400000000002,-1.155981,-0.16730799999999998,0.5567489999999999
736,-1.623975,-0.901331,-0.47687700000000005,-0.61969,0.784153,0.032986,2.151217,4.965326999999999,0.11732100000000001,-0.307983,0.716472,0.7878
737,-1.481017,-0.9059309999999999,-0.431371,-0.6144689999999999,0.787,-0.055314999999999996,0.9146120000000001,5.001487,0.404534,0.308103,0.646777,0.177004
738,-1.382077,-0.923956,-0.403997,-0.591968,0.797992,-0.113061,0.54361,3.237759,1.431832,0.634738,0.781369,0.3742
739,-1.340115,-0.960024,-0.37909699999999996,-0.558309,0.819205,-0.131126,0.524746,-1.095905,2.010889,1.093465,2.163186,-0.013238
740,-1.386482,-0.9729110000000001,-0.345048,-0.553361,0.826528,-0.103163,0.6468520000000001,-3.2921769999999997,-0.304554,0.722475,2.263316,-0.39207600000000004
741,-1.394911,-0.944308,-0.356239,-0.5772579999999999,0.810092,-0.102591,-0.435123,1.3697110000000001,-1.556154,0.034776999999999995,0.580991,-0.443353
742,-1.351716,-0.9337270000000001,-0.37855300000000003,-0.580624,0.8038420000000001,-0.129278,-0.405369,3.654576,0.052003999999999995,1.3852200000000001,-0.395426,0.393072
743,-1.274545,-0.953779,-0.357381,-0.553399,0.815608,-0.168916,0.769112,2.705136,1.765239,1.6657349999999997,-0.47552,-0.11038099999999999
744,-1.133002,-0.994481,-0.28224299999999997,-0.493544,0.838476,-0.23102199999999998,1.3916819999999999,5.057415,3.050576,1.571624,-0.46755,-0.22980799999999998
745,-0.936494,-1.032437,-0.188849,-0.412995,0.8585510000000001,-0.30385100000000004,1.0039559999999998,5.666837,2.567455,0.887177,0.39115900000000003,-0.888914
746,-0.797053,-1.043159,-0.10716600000000001,-0.360149,0.863999,-0.35185,1.477761,1.9921209999999998,1.23806,0.13557,1.0230860000000002,-0.6651630000000001
747,-0.725722,-1.0283149999999999,-0.052867,-0.342631,0.8564299999999999,-0.386175,1.288931,1.372941,0.135129,-0.237188,1.1600489999999999,-0.334894
748,-0.656072,-1.017241,-0.044245,-0.320691,0.8506610000000001,-0.416574,0.300475,4.1574,-0.296223,-0.691272,-0.121611,-0.040214
749,-0.559434,-1.012076,-0.043117,-0.281328,0.847934,-0.44928999999999997,0.198107,4.740183999999999,0.038805,-0.303435,-0.763034,-0.33305799999999997
750,-0.470055,-1.0098610000000001,-0.032411,-0.240952,0.846758,-0.474282,0.279861,3.609062,0.183968,-0.11361600000000001,-0.801592,-0.356071
751,-0.405765,-1.0052809999999999,-0.030313999999999997,-0.21151199999999998,0.8443120000000001,-0.492341,0.18973399999999999,2.894975,-0.182147,-0.235616,-0.376585,0.021287
752,-0.354092,-0.997899,-0.038861,-0.18795599999999998,0.840334,-0.50844,0.341988,3.0403700000000002,-0.442984,-0.461107,0.05554,0.19145399999999999
753,-0.30036599999999997,-0.988675,-0.050605000000000004,-0.162668,0.835298,-0.5251819999999999,0.22119499999999997,3.273892,-0.394989,-0.620321,0.458388,0.409963
754,-0.231316,-0.989498,-0.051724,-0.125888,0.835751,-0.534484,-0.125127,3.543057,0.258135,-0.606931,0.299534,0.603805
755,-0.157344,-0.9895799999999999,-0.030513,-0.08603200000000001,0.8357959999999999,-0.542258,0.265836,2.1700630000000003,0.681369,-0.393261,-0.14149,0.49517
756,-0.109078,-0.987649,-0.008611,-0.059945000000000005,0.834734,-0.547381,0.028508999999999996,1.4056950000000001,0.495888,-0.382606,-0.023684,0.515688
757,-0.060425,-0.9901690000000001,0.005212,-0.033125999999999996,0.8361190000000001,-0.547547,-0.078418,2.1449380000000002,0.337165,-0.271577,0.100969,0.400865
758,-0.004261,-0.990341,0.01662,-0.002337,0.8362129999999999,-0.5484,0.00687,2.366227,0.335341,-0.23650900000000002,0.469237,0.48858500000000005
759,0.055829,-0.992268,0.033535,0.030511,0.837268,-0.54594,-0.160392,2.1391240000000002,0.529948,-0.30785500000000005,0.584225,0.550014
760,0.102289,-0.9932639999999999,0.051364,0.055748,0.8378120000000001,-0.543104,-0.062078999999999995,1.350926,0.41841300000000003,-0.650261,0.21368600000000001,0.556074
761,0.1352,-0.996216,0.059247,0.073255,0.83942,-0.538523,-0.265315,1.3318450000000002,0.038868,-0.682249,0.445644,0.74235
762,0.160838,-1.005584,0.054059,0.085773,0.844475,-0.528683,-0.5610890000000001,1.608187,-0.345976,-0.611591,0.631966,0.849468
763,0.17777,-1.0273219999999998,0.0347,0.09144400000000001,0.855917,-0.508963,-1.330659,1.668581,-0.928268,-0.522459,0.808527,0.936881
764,0.172147,-1.075608,-0.007745,0.0814,0.8798790000000001,-0.46817299999999995,-2.674861,1.52233,-1.815549,-0.084772,0.5779,0.9062690000000001
765,0.139456,-1.142837,-0.0876,0.057689,0.9098149999999999,-0.41098599999999996,-3.253833,2.363251,-2.482968,0.114232,0.376242,0.726278
766,0.09320099999999999,-1.218412,-0.213463,0.032121,0.9385530000000001,-0.343638,-3.534965,4.307366,-3.034353,0.345412,0.315659,0.572719
767,-0.012555,-1.294108,-0.428979,-0.00343,0.961966,-0.273149,-3.6906830000000004,4.812443,-3.7315,0.732418,1.063028,0.009156999999999998
768,-0.31333,-1.349599,-0.7949729999999999,-0.067625,0.975635,-0.20871599999999998,-3.0347720000000002,1.2771780000000001,-4.1293809999999995,0.8067300000000001,1.0090139999999999,-0.137079
769,-0.7661939999999999,-1.346575,-1.258756,-0.154175,0.9749680000000001,-0.16021300000000002,-2.223025,-0.50772,-4.691854,0.397095,1.3316430000000001,-0.190083
770,-1.171281,-1.278937,-1.6487189999999998,-0.265074,0.9577110000000001,-0.11192,-2.379337,-1.379075,-6.162771,-0.715654,1.618125,0.128918
771,-1.433454,-1.169391,-1.9284700000000001,-0.387033,0.9205129999999999,-0.05349299999999999,-3.827772,0.912855,-6.103186,-0.628119,1.167073,-0.19200599999999998
772,-1.617901,-1.083507,-2.172491,-0.467713,0.883606,0.022047999999999998,-5.3860790000000005,1.711971,-3.7297550000000004,0.363144,1.107285,0.20751999999999998
773,-1.7633349999999999,-1.008349,-2.345161,-0.523404,0.8459530000000001,0.10203999999999999,-4.249003,-0.457446,-2.990504,0.9788180000000001,0.254709,0.137355
774,-1.870059,-0.9372440000000001,-2.449949,-0.565699,0.80593,0.174534,-3.4626980000000005,-1.276597,-2.61863,0.640177,-0.225241,-0.125523
775,-1.943323,-0.868625,-2.516006,-0.601577,0.763441,0.23508,-2.823753,-0.761372,-2.547529,0.48290900000000003,-0.484099,-0.23376799999999998
776,-1.982405,-0.8034359999999999,-2.557771,-0.636254,0.719746,0.277754,-2.417363,-0.400113,-2.399875,0.518486,-0.540333,-0.48186999999999997
777,-2.0230900000000003,-0.7465149999999999,-2.5915169999999996,-0.660248,0.679085,0.320806,-2.209767,-1.1423299999999998,-1.8516130000000002,0.459229,-0.357078,-0.6457109999999999
778,-2.0775919999999997,-0.700619,-2.622504,-0.6683560000000001,0.644691,0.371044,-2.011904,-2.146589,-1.29881,0.521323,-0.5409,-0.719723
779,-2.155073,-0.665381,-2.651175,-0.65618,0.617359,0.43393100000000007,-1.730852,-3.327179,-0.677901,0.592627,-0.747791,-0.52469
780,-2.230709,-0.6460670000000001,-2.675405,-0.630818,0.602051,0.489493,-1.069187,-2.584479,0.028658999999999997,0.613103,-0.851456,-0.38324600000000003
781,-2.266842,-0.641908,-2.692688,-0.614639,0.598725,0.513563,-0.47989,-0.529668,0.343131,0.595123,-1.1314549999999999,0.163714
782,-2.261692,-0.641373,-2.700784,-0.6175229999999999,0.598296,0.510595,-0.10669100000000001,0.9990030000000001,0.020108,-0.08215399999999999,-0.864898,0.27981
783,-2.2344630000000003,-0.642189,-2.692309,-0.63081,0.59895,0.493292,0.5099,0.951066,-0.247921,-0.299396,-0.751492,0.385797
784,-2.219036,-0.648188,-2.6748279999999998,-0.63547,0.603743,0.481324,0.8867959999999999,-0.23659699999999997,-0.071782,-0.41847,-0.725371,0.14013599999999998
785,-2.227109,-0.667684,-2.6573860000000002,-0.622119,0.619169,0.47916400000000003,1.309402,-1.185733,0.620321,-0.360914,-0.5318890000000001,-0.072517
786,-2.228644,-0.710327,-2.636402,-0.59993,0.6520819999999999,0.46354399999999996,2.456601,-0.152856,1.599092,-0.382629,-0.436964,-0.276974
787,-2.193125,-0.784081,-2.610842,-0.5752970000000001,0.706175,0.412736,2.8217529999999997,1.387652,2.849489,0.9938610000000001,0.518908,0.27310100000000004
788,-2.232216,-0.862367,-2.644061,-0.5134350000000001,0.7593850000000001,0.399649,0.918062,-2.618391,4.382769000000001,1.103309,3.083846,0.49236499999999994
789,-2.254387,-0.935858,-2.6912380000000002,-0.459858,0.805108,0.374608,1.286606,2.567064,2.810549,1.010471,2.8014900000000003,0.263438
790,-2.181908,-0.9664299999999999,-2.672677,-0.465396,0.8228620000000001,0.326045,1.510837,3.0637060000000003,0.166561,0.68442,0.059432000000000006,-0.5226390000000001
791,-2.0742439999999998,-0.980085,-2.62454,-0.48784799999999995,0.8305450000000001,0.268701,1.265976,3.289738,-0.20183900000000002,0.755594,-0.43482299999999996,-0.424249
792,-1.983,-0.993475,-2.596136,-0.500067,0.8379280000000001,0.218656,0.986675,3.7325019999999998,0.6694479999999999,0.603246,-0.386237,-0.287031
793,-1.884,-1.026614,-2.57605,-0.492533,0.8555510000000001,0.15951400000000002,1.186884,3.9896309999999997,1.7269889999999999,0.167597,0.088327,-0.5749489999999999
794,-1.793193,-1.076875,-2.547462,-0.46240600000000004,0.880481,0.10456700000000001,1.367967,3.004897,2.472998,-0.272457,0.540662,-0.428679
