,attitude.roll,attitude.pitch,attitude.yaw,gravity.x,gravity.y,gravity.z,rotationRate.x,rotationRate.y,rotationRate.z,userAcceleration.x,userAcceleration.y,userAcceleration.z
0,1.748457,-1.415173,-1.775264,0.152548,0.987915,0.027391000000000002,-3.203035,-0.162223,-0.782971,0.456491,0.378159,0.040664
1,2.131218,-1.4053309999999999,-1.390156,0.139509,0.986342,0.087547,-2.909653,0.547401,-0.542549,0.567263,0.41603199999999996,-0.409096
2,2.435753,-1.3764459999999998,-1.11,0.125273,0.981173,0.146979,-2.829,1.794884,-0.6237010000000001,0.429857,0.555478,0.053262000000000004
3,2.662348,-1.337712,-0.8988389999999999,0.106504,0.972959,0.204954,-2.795242,-0.003322,-0.913854,0.36331399999999997,0.612598,0.072451
4,2.81294,-1.29544,-0.7347100000000001,0.087755,0.9623280000000001,0.257332,-2.6764419999999998,-0.082974,-1.077428,0.089201,0.473646,-0.130715
5,2.931381,-1.254186,-0.624509,0.064967,0.9502959999999999,0.304489,-2.271587,0.841993,-0.9614159999999999,0.097738,0.137976,-0.117263
6,3.019006,-1.216384,-0.5387890000000001,0.042435,0.937851,0.34443,-2.005228,-0.204017,-1.214588,0.08831699999999999,0.015366,-0.42629399999999995
7,3.077522,-1.177432,-0.451686,0.024541,0.923625,0.38250700000000004,-2.1959720000000003,-1.602069,-1.479048,0.041087,-0.07017000000000001,-0.619766
8,3.109573,-1.133505,-0.37141599999999997,0.013557,0.9059020000000001,0.42326499999999995,-2.240479,-2.286727,-1.519074,0.005684000000000001,-0.279071,-0.5854050000000001
9,3.117388,-1.091908,-0.30630999999999997,0.011152,0.8875069999999999,0.460654,-2.0319830000000003,-2.645339,-1.26399,0.079515,-0.415416,-0.59838
10,3.103395,-1.055862,-0.260834,0.018807,0.870325,0.49211499999999997,-1.6955080000000002,-2.689429,-0.919752,0.091072,-0.5606939999999999,-0.614444
11,3.079885,-1.0293459999999999,-0.23001999999999997,0.031782,0.8569620000000001,0.5143949999999999,-1.1268799999999999,-2.385856,-0.606384,0.171221,-0.590422,-0.48448800000000003
12,3.052504,-1.016349,-0.210601,0.04684,0.850191,0.524382,-0.42554899999999996,-2.054793,-0.356219,0.24576199999999998,-0.613085,-0.43655299999999997
13,3.024076,-1.016273,-0.20327699999999999,0.061734000000000004,0.850152,0.522903,0.21059099999999997,-1.507266,-0.102513,0.267169,-0.631676,-0.377075
14,2.998027,-1.028491,-0.205831,0.07384099999999999,0.8565209999999999,0.510798,0.87146,-1.0318040000000002,0.03609,0.012051000000000001,-0.617217,-0.26574200000000003
15,2.9726049999999997,-1.054258,-0.218231,0.083061,0.869534,0.486834,1.578425,-0.559488,0.122676,-0.051292,-0.571072,-0.205645
16,2.9529400000000003,-1.09121,-0.235382,0.08653,0.887186,0.45321999999999996,2.020978,-0.007692,0.009692000000000001,-0.089002,-0.46007700000000007,-0.12115899999999999
17,2.945067,-1.129478,-0.249617,0.083402,0.9041889999999999,0.418905,1.796066,0.41214700000000004,-0.091762,0.009249,0.058045000000000006,0.583216
18,2.9516299999999998,-1.151651,-0.25863,0.076846,0.913437,0.399654,0.548374,0.698153,0.062595,0.015805,0.048797,0.602467
19,2.948594,-1.141742,-0.253988,0.079791,0.909359,0.408283,-0.927951,-0.901143,-0.176404,0.22715500000000002,0.754123,0.7540859999999999
20,2.9568779999999997,-1.121733,-0.21939099999999997,0.079733,0.900854,0.42673199999999994,-1.202205,-1.227144,-0.730173,0.031336,0.7130529999999999,0.314891
21,2.975759,-1.102933,-0.164851,0.07444500000000001,0.892534,0.444787,-1.034592,-1.649907,-1.17925,-0.030942,0.487059,0.158972
22,2.990843,-1.092251,-0.116477,0.069155,0.887666,0.45526099999999997,-0.458983,-1.142128,-0.7902520000000001,-0.21026799999999998,-0.38098200000000004,0.42978
23,2.9835700000000003,-1.094041,-0.100397,0.072214,0.888489,0.45317399999999997,0.31695,-1.149528,-0.146026,-0.023934999999999998,-0.5728449999999999,0.546856
24,2.9695869999999998,-1.11125,-0.0989,0.075915,0.8962540000000001,0.43699,1.1918959999999998,-0.355041,-0.319325,0.029874,-0.185652,0.313483
25,3.00542,-1.148234,-0.08398,0.055671000000000005,0.912041,0.406296,2.0426279999999997,2.095174,-0.810041,0.304238,0.43047299999999994,-0.25473
26,3.0930299999999997,-1.171913,-0.045243,0.018854,0.9214950000000001,0.387925,0.118083,2.31618,-0.8632920000000001,0.336981,1.50955,-1.457673
27,3.108641,-1.155196,-0.021686,0.013300999999999999,0.914874,0.403513,-0.87351,-1.030638,-0.074377,0.66689,0.822293,-0.195917
28,3.076498,-1.151337,-0.045764,0.026492,0.913309,0.40639699999999995,0.37153800000000003,-0.640061,0.80442,0.773954,-1.3449799999999998,-0.314523
29,3.040718,-1.1763549999999998,-0.082637,0.038699000000000004,0.923211,0.382331,2.3573209999999998,1.297043,0.30733499999999997,0.536664,-1.253061,0.034386
30,3.092311,-1.254838,-0.116496,0.015306,0.950499,0.310342,4.308205,5.2392959999999995,0.563738,-0.035707,-0.641997,0.31092
31,3.112222,-1.312119,-0.196485,0.0075120000000000004,0.9667290000000001,0.255681,1.6991490000000002,3.744267,1.071926,-0.094288,0.611625,-1.36974
32,3.058955,-1.328332,-0.265872,0.019818000000000002,0.970749,0.23926599999999998,0.938116,-0.519007,0.6768310000000001,-0.187664,0.9889680000000001,-0.262886
33,2.9978599999999997,-1.3592870000000001,-0.32558200000000004,0.030069,0.977715,0.20775900000000003,1.960229,0.44350200000000006,0.448797,-0.105722,0.20987600000000003,0.076284
34,2.9184069999999998,-1.4012360000000001,-0.42649799999999993,0.037347000000000005,0.9856590000000001,0.164549,2.291236,0.925243,0.6352939999999999,0.075766,-0.250155,-0.035993
35,2.7625040000000003,-1.438123,-0.592331,0.048949,0.9912120000000001,0.122876,1.973094,0.175297,0.642579,0.11273399999999999,-0.336381,-0.169019
36,2.539029,-1.463271,-0.8219989999999999,0.060811000000000004,0.994225,0.088401,1.649511,0.321388,0.619835,0.070963,-0.338219,-0.169455
37,2.236475,-1.479068,-1.139222,0.072025,0.9957959999999999,0.056557,1.706605,0.8646959999999999,0.566127,0.007534000000000001,-0.025306,-0.003442
38,1.836739,-1.488293,-1.55916,0.07949400000000001,0.996599,0.021654,1.852897,0.9214870000000001,0.356636,-0.017741999999999997,0.058638,0.052503999999999995
39,1.4355,-1.482285,-1.982103,0.08757000000000001,0.996085,-0.011921,1.6923139999999999,1.1431950000000002,0.463121,-0.098327,-0.12386300000000001,0.100879
40,1.178027,-1.46365,-2.2663,0.098786,0.994265,-0.040926,1.51111,1.2585620000000002,0.540755,-0.087937,-0.196536,0.013506
41,1.027809,-1.440762,-2.4417310000000003,0.111008,0.991557,-0.066993,1.424138,1.162879,0.568044,-0.11108499999999999,-0.141017,-0.010888
42,0.934026,-1.413927,-2.557356,0.125602,0.987721,-0.092887,1.435047,0.8874120000000001,0.71482,-0.100287,-0.118703,0.095481
43,0.866207,-1.383337,-2.63598,0.141981,0.9824809999999999,-0.120707,1.520399,0.261452,0.801676,-0.091612,-0.027723,0.133921
44,0.8058350000000001,-1.350857,-2.701767,0.157385,0.9759110000000001,-0.15108,1.5815649999999999,0.24776199999999998,0.7091850000000001,-0.211096,0.080623,0.17874500000000001
45,0.765005,-1.322702,-2.750092,0.170053,0.969382,-0.177135,1.2262879999999998,0.296628,0.518634,-0.290476,0.054314999999999995,0.24184699999999998
46,0.742749,-1.3032979999999998,-2.7792380000000003,0.178759,0.964435,-0.194696,0.814371,0.34879099999999996,0.352252,-0.328295,0.076886,0.437021
47,0.746492,-1.290142,-2.786692,0.18808699999999998,0.960874,-0.203323,0.401636,0.668551,0.39916599999999997,-0.194984,0.07036,0.287521
48,0.770969,-1.280667,-2.772951,0.19934300000000002,0.9582069999999999,-0.205181,0.134295,0.36134499999999997,0.466058,-0.179751,0.092636,0.20377699999999999
49,0.78573,-1.275241,-2.757124,0.20602399999999998,0.9566399999999999,-0.205887,-0.07721900000000001,-0.125053,0.275061,-0.360092,0.323282,0.295335
50,0.806232,-1.279862,-2.7349,0.20700900000000003,0.957976,-0.19855899999999999,-0.581071,-0.067538,-0.08425,-0.397332,0.45076099999999997,0.311977
51,0.841843,-1.298474,-2.691226,0.200613,0.963149,-0.179154,-1.466495,-0.375254,-0.41905299999999995,-0.425863,0.614946,0.307191
52,0.914596,-1.337848,-2.607176,0.182898,0.9729899999999999,-0.14083800000000002,-2.380408,-0.462117,-1.0801459999999998,-0.357642,0.591921,-0.025101
53,1.087165,-1.390317,-2.425336,0.158905,0.983758,-0.083463,-3.3058339999999995,-0.158183,-1.159638,0.047744999999999996,0.6583319999999999,0.469495
54,1.4523469999999998,-1.430183,-2.0533200000000003,0.139154,0.99013,-0.01656,-3.387147,-0.17391199999999998,-0.885653,0.466635,0.535291,0.11853499999999999
55,1.923845,-1.435842,-1.5767790000000002,0.12623199999999998,0.990907,0.046515,-3.032714,0.26113200000000003,-0.497039,0.615803,0.41366400000000003,-0.454504
56,2.308657,-1.41104,-1.2162389999999998,0.11769400000000001,0.987266,0.107004,-2.864223,2.07508,-0.313314,0.627027,0.394936,-0.093317
57,2.612037,-1.372331,-0.951433,0.099593,0.9803700000000001,0.170151,-3.015272,1.6898009999999999,-0.802053,0.5806439999999999,0.478522,0.079635
58,2.791771,-1.326281,-0.761264,0.082968,0.970255,0.227417,-2.949234,-0.926932,-1.0214969999999999,0.11208499999999999,0.601278,-0.487396
59,2.918415,-1.2782209999999998,-0.633173,0.063834,0.9575040000000001,0.28126100000000004,-2.629453,0.83645,-0.8538120000000001,-0.015052000000000001,0.23332199999999997,-0.035869
60,3.0133970000000003,-1.23324,-0.549192,0.042339,0.943567,0.32846,-2.3504259999999997,0.357694,-0.9837090000000001,-0.018841,0.087622,-0.214705
61,3.075463,-1.1879950000000001,-0.47043900000000005,0.024683,0.927622,0.372699,-2.463788,-1.1811260000000001,-1.277358,0.114508,-0.004038,-0.6152529999999999
62,3.105467,-1.137585,-0.390032,0.015162,0.9076219999999999,0.419509,-2.622169,-2.757111,-1.56166,0.081777,-0.097457,-0.7136680000000001
63,3.108125,-1.088581,-0.320009,0.015517,0.88597,0.46348,-2.374172,-2.922844,-1.356753,0.080201,-0.165129,-0.745081
64,3.0967189999999998,-1.047583,-0.2713,0.022414,0.866218,0.49916000000000005,-1.917775,-2.54798,-0.925689,0.06916900000000001,-0.631919,-0.6327510000000001
65,3.076761,-1.017158,-0.24114000000000002,0.034064,0.850617,0.524678,-1.323533,-2.1818880000000003,-0.551334,0.10204500000000001,-0.741807,-0.528417
66,3.048532,-1.00118,-0.225246,0.050116,0.842108,0.536972,-0.526081,-1.980402,-0.214873,0.128443,-0.729819,-0.516968
67,3.01689,-1.000852,-0.22245700000000002,0.067113,0.841931,0.535392,0.271934,-1.531311,0.005906000000000001,0.184947,-0.707242,-0.40168000000000004
68,2.982795,-1.015406,-0.22998000000000002,0.083378,0.8496950000000001,0.5206390000000001,1.030857,-1.3150540000000002,0.145526,0.13322,-0.719842,-0.328836
69,2.944718,-1.0439049999999999,-0.24814099999999997,0.09836,0.864375,0.493133,1.7563779999999998,-0.9823719999999999,0.23669400000000002,-0.022157,-0.647776,-0.228027
70,2.9030419999999997,-1.083334,-0.276362,0.110677,0.883524,0.45511999999999997,2.2095860000000003,-0.804942,0.22788200000000003,-0.161519,-0.462107,-0.044674
71,2.8626,-1.1250129999999998,-0.308268,0.118737,0.902273,0.414492,2.102614,-0.310723,0.071609,-0.168679,-0.136801,0.39468200000000003
72,2.856903,-1.146048,-0.317565,0.11573900000000001,0.911142,0.395502,0.07681900000000001,0.084624,-0.069098,-0.165407,0.473959,0.722921
73,2.855975,-1.127872,-0.297915,0.120753,0.903502,0.41121899999999995,-1.0694860000000002,-1.1327,-0.47826499999999994,0.289022,1.073045,0.991858
74,2.887857,-1.114916,-0.24375,0.11051300000000001,0.897874,0.426154,-0.9249719999999999,-0.738512,-1.144331,0.443122,0.547927,0.668878
75,2.9280470000000003,-1.104757,-0.178539,0.095229,0.8933549999999999,0.439141,-0.709754,-0.957026,-1.29744,0.273866,0.204225,0.086631
76,2.95404,-1.09958,-0.136021,0.08464400000000001,0.8910170000000001,0.44600500000000004,-0.412096,-0.427454,-0.5237149999999999,0.204754,-0.132426,0.300195
77,2.96179,-1.084731,-0.12601300000000001,0.08354299999999999,0.884178,0.459617,-0.9583969999999999,0.10383599999999998,0.019786,0.515228,0.525399,0.6063930000000001
78,2.973209,-1.071137,-0.12155999999999999,0.080296,0.8777459999999999,0.472347,-0.46386499999999997,0.515133,-0.16743,0.397884,0.9912270000000001,0.197956
79,3.013488,-1.069223,-0.082386,0.061425,0.876827,0.476862,0.064332,-0.057661000000000004,-1.237638,-0.11734800000000001,0.46593100000000004,-1.237528
80,3.049219,-1.094401,-0.04431,0.0423,0.888654,0.456621,1.570207,0.6367520000000001,-0.6426229999999999,0.5687840000000001,-1.594113,-0.718218
81,3.054,-1.1139270000000001,-0.061484000000000004,0.038591,0.897438,0.439446,0.27277399999999996,1.043728,0.736481,0.8565200000000001,-1.7250290000000001,-0.690728
82,3.091514,-1.146857,-0.099212,0.020590999999999998,0.911475,0.410836,3.3168010000000003,5.314639,0.706337,-0.219185,0.21266999999999997,-0.363656
83,3.13268,-1.221278,-0.162858,0.003052,0.9395379999999999,0.342428,3.144012,3.8616260000000002,1.382109,-0.053329999999999995,1.136527,-1.305715
84,3.082249,-1.256725,-0.238447,0.018322,0.951084,0.30838499999999996,1.449126,0.197262,0.941267,-0.11658900000000001,1.262829,-0.91715
85,3.031119,-1.2929979999999999,-0.295116,0.030233999999999997,0.9616620000000001,0.272564,2.138046,0.199697,0.5348109999999999,-0.193198,0.20943499999999998,-0.18095
86,2.97798,-1.3364530000000001,-0.366023,0.037821,0.9726670000000001,0.229098,2.292838,1.086976,0.690715,0.101049,-0.255824,-0.059253
87,2.88538,-1.3749,-0.48255600000000004,0.049326,0.980874,0.18828699999999998,2.0244020000000003,0.8614459999999999,0.846158,0.192633,-0.350152,-0.240472
88,2.7320130000000002,-1.406201,-0.644675,0.065248,0.9864850000000001,0.150296,1.950034,-0.003358,0.860634,0.21034099999999997,-0.287892,-0.121716
89,2.50775,-1.431599,-0.871374,0.08217,0.9903280000000001,0.111793,1.9191740000000002,0.253474,0.862225,0.034377,-0.20228800000000002,0.05689299999999999
90,2.237184,-1.4481709999999999,-1.155751,0.09614400000000001,0.992491,0.07560700000000001,1.8332220000000001,0.634871,0.663515,-0.075072,-0.092146,0.073655
91,1.9465599999999998,-1.457706,-1.460847,0.104969,0.993612,0.041411,1.722213,0.6075149999999999,0.408538,-0.206654,0.050089,-0.036071
92,1.673141,-1.457179,-1.751106,0.112775,0.993553,0.011581999999999999,1.537873,0.905334,0.416483,-0.205258,-0.176353,0.080978
93,1.450042,-1.447889,-1.999796,0.121701,0.9924559999999999,-0.014768,1.417641,1.265614,0.46645600000000004,-0.16717200000000002,-0.263117,0.125898
94,1.281785,-1.432707,-2.1905799999999997,0.131938,0.990481,-0.03923,1.367801,0.891742,0.49970200000000004,-0.079112,-0.14169500000000002,0.001434
95,1.144327,-1.412643,-2.342083,0.14338399999999998,0.9875200000000001,-0.065147,1.415585,0.440665,0.574321,-0.08743,-0.054323,0.059288
96,1.026953,-1.388413,-2.465359,0.155203,0.9834139999999999,-0.093846,1.542214,0.129165,0.5745359999999999,-0.09749400000000001,-0.063096,0.048207
97,0.926882,-1.3616549999999998,-2.574209,0.16604100000000002,0.97821,-0.12463800000000001,1.6640080000000002,0.5435270000000001,0.47658,-0.19231600000000001,0.024369,0.161884
98,0.856397,-1.335218,-2.66233,0.176332,0.9723799999999999,-0.152916,1.457782,0.8503729999999999,0.377538,-0.22549499999999997,0.057817999999999994,0.333244
99,0.828693,-1.315127,-2.707647,0.186392,0.9674940000000001,-0.170913,0.8674959999999999,0.794864,0.385236,-0.20956999999999998,0.048207,0.48150600000000005
100,0.831308,-1.301941,-2.722748,0.196246,0.964076,-0.179006,0.404952,0.8786010000000001,0.35839699999999997,-0.21008600000000002,0.165853,0.39298099999999997
101,0.8569620000000001,-1.294751,-2.710248,0.206008,0.962141,-0.178448,-0.009496,0.534881,0.360216,-0.394408,0.244356,0.030788
102,0.8794879999999999,-1.291074,-2.6928549999999998,0.2127,0.961132,-0.176017,-0.11219000000000001,0.14040999999999998,0.26279600000000003,-0.46474399999999993,0.354694,0.092231
103,0.91565,-1.294445,-2.6583200000000002,0.216354,0.9620569999999999,-0.166237,-0.737269,0.191383,0.045788,-0.374435,0.304956,0.447075
104,0.9762149999999999,-1.311817,-2.595886,0.212141,0.9666520000000001,-0.143452,-1.504964,-0.110044,-0.365113,-0.470732,0.519417,0.283467
105,1.094519,-1.3453110000000001,-2.468326,0.198693,0.974686,-0.102504,-2.506659,-0.358031,-0.8834700000000001,-0.6962520000000001,0.463135,0.017405
106,1.322561,-1.388153,-2.230755,0.176057,0.983367,-0.044624000000000004,-3.317197,-0.118565,-1.190677,-0.265718,0.552583,0.389671
107,1.714895,-1.4149450000000001,-1.829838,0.153605,0.98788,0.022289,-3.3343550000000004,-0.313699,-1.12859,0.375279,0.544423,0.129521
108,2.126847,-1.414894,-1.408213,0.131873,0.987872,0.081954,-2.9275290000000003,0.08720399999999999,-1.038668,0.5813229999999999,0.466138,-0.342848
109,2.459545,-1.389759,-1.0985209999999999,0.113497,0.983657,0.139765,-2.663911,2.139695,-0.653756,0.687437,0.603333,-0.181162
110,2.709099,-1.352709,-0.8883209999999999,0.090682,0.9763129999999999,0.196434,-2.67562,1.659234,-0.9042549999999999,0.567918,0.772649,0.14693499999999998
111,2.871632,-1.312373,-0.715245,0.06815399999999999,0.966794,0.246294,-2.570439,-0.8340120000000001,-1.40239,0.186973,0.736514,-0.505358
112,3.0014819999999998,-1.270027,-0.581629,0.041372000000000006,0.955109,0.29334499999999997,-2.327307,0.687986,-1.276591,0.00268,0.629989,-0.285975
113,3.105171,-1.231874,-0.48878699999999997,0.012106,0.9431139999999999,0.33224499999999996,-1.8214150000000002,0.400034,-1.366692,0.095011,0.083345,-0.367874
114,-3.117909,-1.196581,-0.401546,-0.008657,0.930795,0.365435,-1.8403779999999998,-1.9063880000000002,-1.5914,0.087926,0.052039,-0.574084
115,-3.09484,-1.153901,-0.32303200000000004,-0.018924,0.91435,0.404477,-2.2056259999999996,-2.613874,-1.505451,0.07322999999999999,-0.005934,-0.6463439999999999
116,-3.095592,-1.109126,-0.263311,-0.020483,0.89531,0.44497,-2.105105,-2.8514619999999997,-1.318574,0.037024,-0.45243900000000004,-0.596749
117,-3.113728,-1.068817,-0.21965900000000002,-0.013405000000000002,0.876632,0.480971,-1.883823,-2.826159,-0.9122040000000001,0.097634,-0.60855,-0.647033
118,3.1368240000000003,-1.0369469999999998,-0.194301,0.002426,0.8608549999999999,0.508842,-1.355676,-2.668701,-0.5209520000000001,0.07896399999999999,-0.691498,-0.6747810000000001
119,3.097267,-1.0181639999999998,-0.17943299999999998,0.02326,0.851146,0.524411,-0.703346,-2.588748,-0.301786,0.236643,-0.548183,-0.531918
120,3.0565990000000003,-1.012417,-0.172176,0.044976,0.848115,0.5278970000000001,-0.063111,-2.134759,-0.103479,0.257499,-0.556702,-0.5078010000000001
121,3.017289,-1.0179200000000002,-0.175109,0.065108,0.851018,0.521083,0.485349,-1.6624330000000003,0.117664,0.270097,-0.5646260000000001,-0.461024
122,2.978868,-1.034669,-0.18743900000000002,0.082755,0.859693,0.504061,1.132259,-1.240053,0.223123,-0.000891,-0.594663,-0.36146799999999996
123,2.938376,-1.065122,-0.209601,0.097761,0.874848,0.47442799999999996,1.8823560000000001,-0.9498629999999999,0.26324200000000003,-0.063047,-0.5429390000000001,-0.277147
124,2.8989990000000003,-1.1057649999999999,-0.23829099999999998,0.107727,0.893808,0.435317,2.1494880000000003,-0.484862,0.16303,-0.085022,-0.07644,0.330598
125,2.885836,-1.138223,-0.259213,0.10605,0.90789,0.405571,1.233349,0.8251059999999999,-0.027712999999999998,0.035643,0.440133,0.836815
126,2.892839,-1.13539,-0.260175,0.10384000000000002,0.906699,0.40879499999999996,-0.951119,-0.39907600000000004,0.046191,0.38792,1.172464,0.901523
127,2.90295,-1.113479,-0.225313,0.104374,0.8972399999999999,0.429029,-1.244592,-1.200246,-0.7431800000000001,0.28294,0.683967,0.647784
128,2.928922,-1.0958379999999999,-0.169074,0.096523,0.8893120000000001,0.44699799999999995,-1.0434450000000002,-1.277996,-1.187124,0.07323099999999999,0.23544400000000001,0.231667
129,2.958454,-1.086141,-0.108296,0.08484900000000001,0.8848360000000001,0.45811199999999996,-0.539562,-1.038729,-1.252277,-0.067744,-0.056192,0.195438
130,2.97358,-1.084263,-0.07264,0.078188,0.883959,0.46098,-0.087202,-0.727087,-0.45903299999999997,-0.22256599999999999,-0.85396,0.341221
131,2.9567419999999998,-1.088219,-0.07082100000000001,0.08529400000000001,0.8858020000000001,0.456157,0.48377299999999995,-0.9068219999999999,0.036568,0.11868499999999998,-0.08067200000000001,0.3084
132,2.9598880000000003,-1.115157,-0.069368,0.07951699999999999,0.8979799999999999,0.432792,1.716884,1.0970469999999999,-0.520339,0.11005799999999999,0.20632899999999998,0.169274
133,3.033624,-1.143915,-0.03613,0.044616,0.9102620000000001,0.41162299999999996,0.729622,1.91963,-1.043172,0.12599200000000002,1.6613939999999998,-1.463014
134,3.0709419999999996,-1.135787,0.011590999999999999,0.029749,0.906866,0.420367,-0.6942470000000001,-1.07828,-0.818541,0.714697,0.444483,-0.28049
135,3.069971,-1.130465,0.020352000000000002,0.030501999999999998,0.904611,0.425145,0.056398000000000004,-0.51449,0.328978,0.743226,-0.8266690000000001,-0.157567
136,3.032736,-1.1435540000000002,-0.023271,0.045017,0.910112,0.41191000000000005,1.723482,1.559173,0.854984,0.375775,-1.0677649999999999,0.382997
137,3.069193,-1.2179010000000001,-0.069771,0.025001,0.938376,0.344711,4.3598870000000005,4.617024,0.573584,-0.34377199999999997,0.325937,-1.055144
138,3.072877,-1.2743950000000002,-0.140153,0.020055,0.9563940000000001,0.291389,1.6528509999999998,2.32282,0.954994,-0.245457,0.88107,-1.182808
139,3.028637,-1.295112,-0.189466,0.030682,0.962239,0.27047,1.225327,-0.753262,0.418633,-0.361385,1.086147,-0.258644
140,2.974456,-1.327173,-0.235889,0.040129000000000005,0.97047,0.237857,1.940898,0.040353,0.335021,-0.11944400000000001,0.086216,-0.108798
141,2.91222,-1.367889,-0.30964200000000003,0.045818,0.979485,0.196237,2.1441169999999996,0.545031,0.49068599999999996,0.086751,-0.304116,-0.101999
142,2.793412,-1.400648,-0.43476099999999995,0.057772000000000004,0.98556,0.159165,1.761939,0.001123,0.709835,0.22285300000000002,-0.42454,-0.056824
143,2.6276770000000003,-1.426002,-0.601004,0.07092999999999999,0.9895360000000001,0.125648,1.650638,0.084912,0.632038,0.33860100000000004,-0.43452799999999997,-0.018653
144,2.420416,-1.445563,-0.8255819999999999,0.08247,0.9921690000000001,0.093806,1.710577,1.092394,0.647189,0.191776,-0.23325700000000002,0.097951
145,2.176501,-1.461401,-1.095952,0.08975,0.994022,0.062155999999999996,1.654822,1.233236,0.373154,0.0049299999999999995,0.053538999999999996,-0.067069
146,1.916997,-1.4688459999999999,-1.383429,0.095728,0.994808,0.034532,1.443322,1.429918,0.388517,-0.136439,-0.065334,0.022917
147,1.672005,-1.4657149999999999,-1.660855,0.10434500000000001,0.994484,0.010597,1.2927549999999999,1.519444,0.508059,-0.163244,-0.140709,0.081261
148,1.478531,-1.455489,-1.8796580000000003,0.11455699999999999,0.993359,-0.0106,1.169922,1.0191700000000001,0.513183,-0.162165,-0.14086600000000002,-0.079152
149,1.313042,-1.441103,-2.063815,0.125053,0.9916020000000001,-0.032966,1.284276,0.8195889999999999,0.507829,-0.228584,-0.053171,0.07675900000000001
150,1.163124,-1.422247,-2.230452,0.135871,0.9889870000000001,-0.058677999999999994,1.487471,0.695289,0.51368,-0.24167600000000003,-0.030521,0.144341
151,1.020685,-1.397534,-2.387184,0.14695999999999998,0.985028,-0.090125,1.783594,0.600471,0.5254840000000001,-0.12559800000000002,0.016163,0.164908
152,0.919816,-1.369149,-2.504766,0.159321,0.9797379999999999,-0.12136400000000001,1.56277,0.8557889999999999,0.537501,-0.179341,0.013502000000000002,0.207713
153,0.870764,-1.3457059999999998,-2.5729,0.170702,0.974774,-0.14379,1.185144,0.7616569999999999,0.42923,-0.20593499999999998,0.019794,0.19332
154,0.8441420000000001,-1.326574,-2.6096880000000002,0.180721,0.970326,-0.160645,0.723356,0.37106300000000003,0.47243900000000005,-0.211742,0.161938,0.258088
155,0.859608,-1.313714,-2.602832,0.19262200000000002,0.9671360000000001,-0.165962,0.24638200000000002,0.424642,0.540609,-0.23704,0.156659,0.179558
156,0.8708459999999999,-1.302758,-2.596621,0.202568,0.964292,-0.170604,0.29725100000000004,0.223631,0.41517200000000004,-0.264015,0.250902,0.124827
157,0.8863190000000001,-1.2965209999999998,-2.591343,0.209839,0.962622,-0.171248,-0.007888,0.7134689999999999,0.203103,-0.207794,0.20293599999999998,0.449187
158,0.929908,-1.301218,-2.562714,0.213475,0.963883,-0.159237,-0.7055939999999999,0.687171,-0.074133,-0.278356,0.328368,0.45490600000000003
159,0.991542,-1.320258,-2.506845,0.20748000000000003,0.9687790000000001,-0.135713,-1.4232280000000002,0.277273,-0.575344,-0.39083,0.5899369999999999,0.290315
160,1.08975,-1.356682,-2.408416,0.188366,0.977165,-0.098316,-2.176822,0.030006,-1.222292,-0.539806,0.469033,-0.052349
161,1.30976,-1.400503,-2.184898,0.163726,0.985535,-0.043736000000000004,-3.110077,0.114126,-1.203282,-0.042358,0.639206,0.45964499999999997
162,1.7138099999999998,-1.426501,-1.783996,0.14232,0.989607,0.020494,-3.149803,0.50332,-0.9946860000000001,0.421995,0.459153,0.268142
163,2.141299,-1.420936,-1.364692,0.12565,0.988792,0.080627,-2.824271,0.847132,-0.676659,0.679602,0.338021,-0.41813599999999995
164,2.46435,-1.3928,-1.072386,0.110949,0.984201,0.137978,-2.6650970000000003,2.20961,-0.545902,0.522245,0.45322299999999993,0.088692
165,2.7022,-1.3541530000000002,-0.8677040000000001,0.091437,0.9766239999999999,0.19453099999999998,-2.7580419999999997,0.9975290000000001,-0.782143,0.390176,0.535995,0.137287
166,2.8543529999999997,-1.30817,-0.703637,0.073551,0.9657110000000001,0.248979,-2.741594,-0.47638199999999997,-1.1700409999999999,-0.185108,0.615267,-0.151719
167,2.9859720000000003,-1.267836,-0.578244,0.046241000000000004,0.954457,0.29474,-2.143314,1.039917,-1.258604,-0.171592,0.20543899999999998,-0.050095999999999995
168,3.091497,-1.232568,-0.48001499999999997,0.016616,0.9433440000000001,0.331398,-1.8365770000000001,0.016962,-1.451703,0.011247,0.032425,-0.517189
169,-3.1236330000000003,-1.1934,-0.387176,-0.006618000000000001,0.9296270000000001,0.36844,-2.064083,-1.45779,-1.684275,0.11652699999999999,-0.14177,-0.629212
170,-3.088391,-1.14914,-0.304666,-0.021764,0.9124120000000001,0.40869,-2.071196,-2.269741,-1.6256,0.123753,-0.286436,-0.54811
171,-3.0810869999999997,-1.112892,-0.241128,-0.026731,0.8969809999999999,0.44125699999999995,-1.574742,-2.652786,-1.370609,0.187467,-0.42286,-0.47293500000000005
172,-3.093302,-1.08261,-0.192832,-0.022640999999999998,0.883185,0.468476,-1.366152,-2.710099,-1.0721129999999999,0.203534,-0.488867,-0.577576
173,-3.111959,-1.059498,-0.157725,-0.014497999999999999,0.87211,0.48909300000000006,-0.9238379999999999,-2.27713,-0.7736810000000001,0.220568,-0.552606,-0.375644
174,-3.132535,-1.048616,-0.133935,-0.004518,0.866734,0.498749,-0.305933,-1.955512,-0.48669799999999996,0.20868,-0.566517,-0.37706
175,3.1258340000000002,-1.049023,-0.122352,0.007854,0.8669370000000001,0.498355,0.194617,-1.603776,-0.170664,0.22154699999999997,-0.664666,-0.38009899999999996
176,3.097587,-1.058499,-0.12189900000000001,0.021564,0.8716209999999999,0.48970600000000003,0.660071,-1.347309,0.024539,0.089627,-0.6178819999999999,-0.32610100000000003
177,3.0682650000000002,-1.078692,-0.129617,0.034615,0.8813409999999999,0.471211,1.2425700000000002,-0.956889,0.186204,0.029426,-0.625954,-0.267338
178,3.042824,-1.110554,-0.147723,0.043798000000000004,0.8959450000000001,0.442,1.8326040000000001,-0.11997200000000001,0.30462100000000003,-0.07076,-0.401698,0.08566499999999999
179,3.026889,-1.147818,-0.171966,0.04698,0.9118700000000001,0.40778000000000003,1.853186,0.420067,0.30086799999999997,0.0063490000000000005,-0.161672,0.313305
180,3.0112970000000003,-1.17539,-0.190894,0.050046,0.92284,0.381918,0.9930889999999999,-0.233654,0.157897,0.100879,0.020855000000000002,0.408335
181,2.987435,-1.172336,-0.195472,0.059576,0.92166,0.383397,-0.733959,-1.296494,-0.019447,0.144144,0.782625,0.795833
182,2.999959,-1.157265,-0.160465,0.056725,0.915708,0.397821,-0.831011,-0.728082,-0.888249,-0.050423,0.909274,0.62226
183,3.043956,-1.1411799999999999,-0.092966,0.040603,0.909126,0.414538,-0.997833,-1.139626,-1.4550450000000001,0.017700999999999998,0.639123,0.278302
184,3.081772,-1.1288559999999999,-0.022053,0.02557,0.9039229999999999,0.42693000000000003,-0.514915,-1.321907,-1.311501,-0.129253,-0.391869,0.499904
185,3.088006,-1.125478,0.010514,0.023071,0.902473,0.43012799999999995,-0.053749,-0.9929680000000001,-0.322732,-0.238312,-0.958992,0.512972
186,3.081554,-1.134218,0.017164,0.025372,0.9062040000000001,0.42207799999999995,0.9419780000000001,-0.32156,-0.191655,-0.008907,-0.09475700000000001,0.13961300000000001
187,3.10255,-1.172693,0.02905,0.015132,0.921798,0.387373,2.023103,1.219071,-0.390108,0.270086,0.701707,-0.901076
188,-3.107093,-1.1877229999999999,0.060478,-0.012891999999999999,0.9275200000000001,0.37354699999999996,-0.257421,2.042789,-0.874975,0.378752,1.6548470000000002,-1.373349
189,-3.09012,-1.1605219999999998,0.093842,-0.020521,0.917011,0.39833,-1.313999,-1.305949,-0.34822600000000004,0.657179,0.47134,0.395448
190,-3.122372,-1.146996,0.074446,-0.007904000000000001,0.911533,0.41115,-0.18642,-1.114314,0.832313,0.908142,-0.773273,0.061568
191,3.118309,-1.171088,0.030846,0.009059999999999999,0.921175,0.389042,2.612925,1.714702,0.626051,0.42947799999999997,-1.140947,0.263912
192,-3.094677,-1.2550700000000001,0.011077,-0.014562,0.9505709999999999,0.310163,4.34733,5.13589,0.5739609999999999,-0.158945,-0.45098299999999997,-0.0027600000000000003
193,-3.074178,-1.306217,-0.045364,-0.017616,0.965203,0.260907,1.236905,2.319076,0.9286540000000001,-0.302697,0.8941879999999999,-1.220151
194,-3.118838,-1.32433,-0.091561,-0.0055509999999999995,0.969781,0.243916,1.044683,-0.747642,0.510362,-0.23080799999999999,0.5141060000000001,-0.125172
195,3.113362,-1.354659,-0.141713,0.0060539999999999995,0.976733,0.214373,1.844589,0.271719,0.642829,-0.054103,0.001126,-0.062152
196,3.022149,-1.396111,-0.23618699999999998,0.02071,0.9847809999999999,0.17256,2.171316,-0.220102,0.8081109999999999,0.049816,-0.178446,-0.080122
197,2.863787,-1.431856,-0.384447,0.037981,0.9903629999999999,0.133183,1.8527900000000002,-0.644879,0.750883,0.34031500000000003,-0.359748,-0.07373500000000001
198,2.6406709999999998,-1.457998,-0.600296,0.054054,0.9936450000000001,0.098729,1.6580400000000002,-0.23432600000000003,0.8141579999999999,0.32424200000000003,-0.36303,-0.039281
199,2.317923,-1.475678,-0.936282,0.069677,0.9954799999999999,0.064538,1.8641849999999998,0.9550690000000001,0.764936,0.18223,-0.183178,0.151633
200,1.907343,-1.484414,-1.36748,0.081432,0.9962709999999999,0.028489999999999998,1.839906,0.846102,0.597195,0.015597999999999999,0.038488,0.062285
201,1.523792,-1.477054,-1.7714150000000002,0.09349600000000001,0.995609,-0.004398,1.687299,1.100065,0.622509,-0.181875,-0.08797100000000001,0.10594500000000001
202,1.255455,-1.458835,-2.068706,0.10621300000000002,0.9937389999999999,-0.034649,1.61001,1.4540680000000001,0.606561,-0.193356,-0.17657,0.089154
203,1.0970870000000001,-1.436532,-2.2558119999999997,0.11911500000000001,0.991,-0.061063,1.443201,1.332298,0.567096,-0.116704,-0.260852,-0.072131
204,0.992461,-1.4115440000000001,-2.3861790000000003,0.132786,0.987346,-0.08668200000000001,1.441734,1.0731700000000002,0.6347149999999999,-0.12383,-0.21279499999999998,0.011470999999999999
205,0.92196,-1.383781,-2.471638,0.148142,0.982564,-0.112346,1.39467,0.43376800000000004,0.7345510000000001,-0.103174,-0.083531,0.12156199999999999
206,0.8599530000000001,-1.353796,-2.541994,0.163155,0.976548,-0.140476,1.547376,0.413204,0.683301,-0.12162,0.016525,0.07893700000000001
207,0.811516,-1.325707,-2.602908,0.175995,0.970116,-0.167033,1.346225,0.583992,0.50542,-0.20719899999999997,-0.01989,0.120708
208,0.785899,-1.304884,-2.6414299999999997,0.185912,0.9648530000000001,-0.185726,0.929953,0.600011,0.332704,-0.24105700000000002,0.003851,0.311168
209,0.778619,-1.29044,-2.663059,0.194323,0.960957,-0.196975,0.556237,0.756895,0.318142,-0.20790300000000003,0.211773,0.422836
210,0.7980659999999999,-1.281406,-2.6595590000000002,0.204324,0.958418,-0.199212,0.166406,0.714375,0.366748,-0.25208400000000003,0.320986,0.251641
211,0.818025,-1.275403,-2.646706,0.212454,0.9566879999999999,-0.199024,-0.034857,0.24772800000000003,0.289028,-0.419576,0.45008100000000006,0.167163
212,0.844168,-1.2791350000000001,-2.6248560000000003,0.21491500000000002,0.957767,-0.19103,-0.579695,0.209498,-0.067242,-0.463663,0.619442,0.38806599999999997
213,0.891342,-1.299012,-2.575947,0.208831,0.9632930000000001,-0.168685,-1.5361479999999998,-0.11135999999999999,-0.516824,-0.503875,0.6020449999999999,0.272323
214,0.955227,-1.338798,-2.4982919999999997,0.187717,0.973209,-0.132761,-2.155698,-0.791155,-1.273377,-0.371402,0.7670100000000001,-0.030111000000000002
215,1.088407,-1.391174,-2.3482990000000004,0.15826800000000002,0.9839110000000001,-0.08287699999999999,-3.045927,-0.531914,-1.3952950000000002,0.069469,0.707114,0.420951
216,1.444275,-1.4341139999999999,-1.983257,0.135163,0.9906729999999999,-0.017193,-3.4180699999999997,-0.06041799999999999,-0.9680049999999999,0.571029,0.466571,0.203442
217,1.9261439999999999,-1.438452,-1.504856,0.12370999999999999,0.9912549999999999,0.045909,-2.90407,0.740653,-0.34480500000000003,0.647957,0.23210300000000003,-0.350123
218,2.301187,-1.412993,-1.160081,0.117058,0.987575,0.10483900000000002,-2.7593240000000003,2.180026,-0.250566,0.637916,0.163914,-0.10969200000000001
219,2.590557,-1.3755870000000001,-0.904192,0.10155499999999999,0.981007,0.165256,-2.923337,1.354549,-0.668329,0.41806800000000005,0.396801,0.045132
220,2.769674,-1.3286850000000001,-0.724943,0.087125,0.970834,0.223356,-2.855819,-0.31785399999999997,-0.746899,0.175845,0.5389470000000001,-0.225813
221,2.897908,-1.2864520000000002,-0.5982970000000001,0.06768400000000001,0.9598459999999999,0.272235,-2.321744,0.763594,-0.9913139999999999,0.025867,0.333092,-0.08947999999999999
222,3.004524,-1.248084,-0.500931,0.043332999999999997,0.9483790000000001,0.314161,-2.0789880000000003,0.475838,-1.1687100000000001,0.019913999999999998,0.102235,-0.257154
223,3.087222,-1.210504,-0.409666,0.019159,0.935794,0.352023,-2.027414,-0.6365729999999999,-1.413684,0.05164199999999999,-0.065051,-0.521868
224,3.135065,-1.168875,-0.331351,0.002554,0.9203110000000001,0.391176,-2.149265,-1.563232,-1.340709,0.029901999999999998,-0.29738600000000004,-0.584687
225,-3.138734,-1.1259299999999999,-0.274928,-0.00123,0.902668,0.430332,-2.107709,-2.226115,-1.040467,0.011973000000000001,-0.470951,-0.645618
226,3.135852,-1.0878649999999999,-0.236947,0.002666,0.8856379999999999,0.464366,-1.7753029999999999,-2.057923,-0.765964,0.084248,-0.613924,-0.5284989999999999
227,3.1233310000000003,-1.05914,-0.20928200000000002,0.008941,0.871935,0.48953800000000003,-1.208186,-1.7537880000000001,-0.591477,0.172959,-0.589846,-0.39529899999999996
228,3.107279,-1.043708,-0.187168,0.017256999999999998,0.864275,0.50272,-0.524849,-1.755581,-0.46919700000000003,0.21537800000000001,-0.540758,-0.41402100000000003
229,3.0863240000000003,-1.041523,-0.173996,0.027891000000000003,0.863174,0.5041329999999999,0.112149,-1.5158260000000001,-0.23965999999999998,0.217363,-0.5491020000000001,-0.37869
230,3.06224,-1.051826,-0.169497,0.039316000000000004,0.8683299999999999,0.49442299999999995,0.746229,-1.3140040000000002,-0.111576,0.129416,-0.565001,-0.291084
231,3.037455,-1.074977,-0.171491,0.049454000000000005,0.8795790000000001,0.47317200000000004,1.4205940000000001,-0.985341,-0.036784,-0.026702999999999998,-0.541353,-0.176785
232,3.0170939999999997,-1.109337,-0.178229,0.05529,0.8954040000000001,0.441804,1.818212,-0.612701,-0.063326,-0.12989,-0.372562,-0.00464
233,3.003862,-1.142458,-0.18161,0.057027,0.9096569999999999,0.411422,1.4418030000000002,-0.475513,-0.211409,-0.16779000000000002,-0.07172100000000001,0.206604
234,3.004443,-1.156902,-0.171291,0.054985,0.9155620000000001,0.398397,0.14172,-0.507729,-0.35184,-0.12448900000000002,0.427105,0.45003699999999996
235,3.004416,-1.147958,-0.153427,0.056114,0.9119280000000001,0.406492,-0.67575,-0.939891,-0.260857,-0.10707799999999999,0.571867,0.595675
236,3.013519,-1.136556,-0.125113,0.053736,0.9071899999999999,0.417271,-0.6818930000000001,-0.860282,-0.716064,0.311361,0.465689,0.489421
237,3.0300279999999997,-1.1213030000000002,-0.077922,0.048375,0.900667,0.431805,-0.9390729999999999,-1.590256,-0.9604799999999999,0.301448,0.39604,0.24652399999999997
238,3.0407900000000003,-1.107704,-0.028595999999999996,0.044954,0.894675,0.44444700000000004,-0.649805,-1.561426,-0.961701,0.220046,0.23732899999999998,0.15765
239,3.0455099999999997,-1.104873,0.000503,0.043098000000000004,0.893407,0.44717299999999993,0.114855,-0.8450979999999999,-0.40928000000000003,0.073876,-0.46410100000000004,0.41446099999999997
240,3.0378,-1.113443,0.007464,0.04575,0.897225,0.439195,0.5102220000000001,-0.452287,-0.150648,0.140453,-0.361717,0.35694699999999996
241,3.0507470000000003,-1.130818,0.015041999999999998,0.038639,0.904761,0.42416000000000004,1.08512,0.741737,-0.344715,0.46461099999999994,0.571283,0.042163
242,3.106728,-1.144475,0.046062,0.014413999999999998,0.910493,0.41326899999999994,0.054611,1.590375,-0.9522729999999999,0.028508999999999996,1.646422,-0.988159
243,-3.1292709999999997,-1.142711,0.093125,-0.005115,0.9097620000000001,0.415096,0.24396500000000002,-0.048201,-0.8046409999999999,0.228397,0.232816,-0.65536
244,-3.123695,-1.1511959999999999,0.086622,-0.007291,0.9132520000000001,0.407327,0.312886,0.409967,0.7067869999999999,0.546628,-0.985533,-0.46752299999999997
245,3.116352,-1.159282,0.037773,0.010095,0.916516,0.39986700000000003,1.0726440000000002,1.022613,0.8192,0.143561,-0.475583,0.420613
246,-3.120988,-1.2236559999999999,0.008145,-0.0070090000000000005,0.940349,0.340134,4.056178,4.326819,0.700141,-0.322687,0.452427,-0.343979
247,-3.106753,-1.2904440000000001,-0.051074,-0.009637999999999999,0.960958,0.276522,2.354803,2.7879959999999997,0.9839899999999999,-0.364996,0.846857,-1.204348
248,3.14004,-1.318314,-0.10586,0.000388,0.9682950000000001,0.24980300000000003,1.283784,-0.150187,0.619215,-0.20705300000000001,0.446744,-0.069505
249,3.0822830000000003,-1.351149,-0.164097,0.012915000000000001,0.975974,0.217496,1.844991,0.401511,0.693999,-0.10314000000000001,0.066506,-0.058194
250,2.9958299999999998,-1.388707,-0.269227,0.026300999999999998,0.983468,0.17915699999999998,2.00684,0.791006,0.918957,-0.002009,-0.197854,-0.050052
251,2.845501,-1.4233770000000001,-0.42739799999999994,0.042856,0.9891530000000001,0.140485,1.9290200000000002,-0.026375,0.798752,0.188192,-0.32155100000000003,-0.14202599999999999
252,2.6369130000000003,-1.45181,-0.6319859999999999,0.057391,0.9929290000000001,0.103895,1.7833849999999998,-0.258709,0.684801,0.194089,-0.275553,-0.086744
253,2.353222,-1.4736129999999998,-0.9268059999999999,0.06880399999999999,0.995281,0.068396,1.860698,0.8772559999999999,0.522584,0.008909,0.004169,0.029107
254,1.979543,-1.489032,-1.322324,0.074929,0.996659,0.032455,1.851473,0.961335,0.284198,-0.05285,0.09350499999999999,-0.006712999999999999
255,1.565628,-1.490113,-1.7560919999999998,0.08058,0.9967469999999999,-0.00041600000000000003,1.660567,1.022534,0.329788,-0.11695699999999999,-0.115247,0.113652
256,1.243637,-1.476459,-2.106734,0.089189,0.995554,-0.030267000000000002,1.57902,1.52298,0.4589,-0.098985,-0.231927,0.109902
257,1.0600379999999998,-1.454909,-2.3208990000000003,0.100861,0.993293,-0.05651799999999999,1.4029610000000001,1.3613469999999999,0.539062,-0.090775,-0.20932699999999999,-0.075394
258,0.9463719999999999,-1.42993,-2.459335,0.113901,0.9900950000000001,-0.082078,1.444121,1.078686,0.594191,-0.087305,-0.11063900000000002,-0.002654
259,0.863339,-1.402126,-2.559346,0.127581,0.985809,-0.109097,1.481291,0.593733,0.632518,-0.054736,-0.034835000000000005,0.07029400000000001
260,0.794242,-1.371497,-2.637309,0.141224,0.9802049999999999,-0.138748,1.620837,0.31305900000000003,0.638125,-0.08975599999999999,0.071812,0.141693
261,0.74095,-1.340614,-2.700837,0.154,0.973625,-0.16833599999999999,1.4784549999999999,0.565421,0.522508,-0.23850300000000002,0.10382899999999999,0.222215
262,0.715068,-1.3174700000000001,-2.74137,0.164325,0.9680840000000001,-0.18923199999999998,1.0283799999999998,0.656135,0.33871799999999996,-0.319797,0.09713200000000001,0.362236
263,0.702449,-1.301714,-2.769172,0.171759,0.964015,-0.202908,0.694685,0.8239770000000001,0.213327,-0.180502,0.192937,0.462109
264,0.7184619999999999,-1.292088,-2.769299,0.181085,0.961412,-0.20710900000000002,0.189129,0.762315,0.354084,-0.183252,0.144484,0.289094
265,0.74238,-1.285425,-2.754034,0.190313,0.959557,-0.207434,0.11752,0.250204,0.34462600000000004,-0.293035,0.371085,0.197897
266,0.764807,-1.283291,-2.7388049999999997,0.19633399999999998,0.9589540000000001,-0.204591,-0.25793499999999997,0.550573,0.147203,-0.29530300000000004,0.35841300000000004,0.45161599999999996
267,0.7990470000000001,-1.291684,-2.712225,0.197448,0.9613,-0.19213,-0.786185,0.23928600000000003,-0.137031,-0.278441,0.44678100000000004,0.38907600000000003
268,0.860082,-1.315245,-2.650642,0.191577,0.9675239999999999,-0.164904,-1.764128,-0.012669,-0.48323299999999997,-0.537525,0.435644,0.10495299999999999
269,0.954997,-1.355748,-2.5480959999999997,0.17419400000000002,0.976966,-0.12325699999999999,-2.4657810000000002,-0.268905,-1.0635780000000001,-0.391357,0.46523400000000004,0.12284500000000001
270,1.1709180000000001,-1.405493,-2.3242979999999998,0.151566,0.986368,-0.064059,-3.2846330000000004,-0.175413,-1.0897139999999998,-0.199631,0.488195,0.391757
271,1.570024,-1.438059,-1.9170330000000002,0.13234200000000002,0.9912030000000001,-0.000102,-3.1811689999999997,-0.221308,-0.8913110000000001,0.32678,0.415459,-0.244038
272,2.0240720000000003,-1.438046,-1.4617,0.11898800000000001,0.991202,0.057959000000000004,-2.767529,0.561902,-0.509138,0.509659,0.373316,-0.465171
273,2.396818,-1.4135,-1.113828,0.106173,0.987654,0.11516900000000001,-2.757648,1.714882,-0.6056189999999999,0.529478,0.331071,-0.24065799999999998
274,2.671944,-1.3755879999999998,-0.85549,0.087783,0.981007,0.172963,-2.8748650000000002,0.280422,-0.88661,0.36990500000000004,0.5645100000000001,0.009853
275,2.8389599999999997,-1.330489,-0.6714680000000001,0.07092999999999999,0.9712649999999999,0.227179,-2.728745,-0.616345,-1.061765,0.186348,0.46858500000000003,-0.299902
276,2.9696580000000004,-1.28952,-0.5475909999999999,0.04749,0.9607020000000001,0.273484,-2.152701,1.0688799999999998,-1.01824,0.15481099999999998,0.17386500000000002,0.011413
277,3.069531,-1.253556,-0.4574,0.022459,0.9501,0.311132,-1.853602,0.24197600000000002,-1.214849,0.140871,-0.022456999999999998,-0.334828
278,3.138607,-1.216513,-0.36798800000000004,0.001036,0.937895,0.346911,-1.9819669999999998,-1.292607,-1.48938,0.039919,-0.112227,-0.535846
279,-3.1022540000000003,-1.174634,-0.28627800000000003,-0.015175999999999999,0.922549,0.38557800000000003,-2.074134,-1.870685,-1.501033,0.0561,-0.185366,-0.47503999999999996
280,-3.0892020000000002,-1.132889,-0.222419,-0.022205000000000003,0.905641,0.42346000000000006,-1.9780220000000002,-2.33533,-1.272235,0.074299,-0.547182,-0.5408149999999999
281,-3.0952919999999997,-1.09623,-0.179779,-0.02115,0.889491,0.456459,-1.658773,-2.15892,-0.910241,0.14911,-0.664882,-0.48912799999999995
282,-3.115046,-1.069208,-0.154731,-0.012763,0.87682,0.480646,-1.104434,-2.095348,-0.505867,0.195105,-0.624989,-0.438333
283,3.136853,-1.055391,-0.14144400000000001,0.002336,0.870093,0.492878,-0.43053800000000003,-2.147784,-0.23190100000000002,0.250945,-0.615653,-0.385654
284,3.098947,-1.055231,-0.138369,0.021019,0.870014,0.492575,0.23743699999999998,-1.878395,0.019178999999999998,0.17424800000000001,-0.625614,-0.271475
285,3.0615759999999996,-1.0670620000000002,-0.144812,0.038583,0.8757860000000001,0.481151,0.8193450000000001,-1.404791,0.158301,0.039848,-0.5133439999999999,-0.224636
286,3.029157,-1.089958,-0.15522,0.051894,0.886608,0.45959799999999995,1.352742,-1.0090270000000001,0.092085,-0.041518,-0.44785600000000003,-0.191105
287,3.007176,-1.120025,-0.16243,0.058383000000000004,0.9001110000000001,0.431726,1.532271,-0.657355,-0.09618600000000001,-0.102146,-0.095836,0.13004100000000002
288,2.994913,-1.1448909999999999,-0.16331400000000001,0.060383000000000006,0.910665,0.408706,0.953823,-0.521942,-0.158084,-0.10538099999999999,0.037333,0.308854
289,2.981843,-1.150814,-0.161995,0.06486,0.9130959999999999,0.40255,-0.117532,-0.8821049999999999,-0.003805,-0.041651,0.29240900000000003,0.789772
290,2.972322,-1.1432129999999998,-0.156737,0.069857,0.9099709999999999,0.40874299999999997,-0.430782,-0.43524399999999996,-0.12620599999999998,-0.02698,0.280566,0.877192
291,2.992112,-1.133795,-0.129574,0.063028,0.906025,0.41850299999999996,-0.6601560000000001,-0.348826,-0.75817,0.084952,0.46090299999999995,0.63147
292,3.02192,-1.1226040000000002,-0.076289,0.051735,0.9012319999999999,0.43023500000000003,-0.705179,-1.2335200000000002,-1.122683,0.31293499999999996,0.290113,0.21855300000000003
293,3.03524,-1.113401,-0.033891000000000004,0.046877999999999996,0.897206,0.439115,-0.466631,-1.063805,-0.614897,0.23037399999999997,-0.14796900000000002,0.41696400000000006
294,3.0370340000000002,-1.106169,-0.021113,0.046766,0.8939889999999999,0.44564,-0.27708499999999997,-0.171638,-0.11372,0.359209,0.26198699999999997,0.368829
295,3.037559,-1.108172,-0.023637000000000002,0.046346,0.894885,0.44388199999999994,0.271999,0.43705,0.10511600000000001,0.375819,0.977979,-0.325855
296,3.068377,-1.103949,-0.008426000000000001,0.032923,0.892992,0.44886400000000004,-0.631843,0.8182550000000001,-0.667601,0.142645,1.362349,-0.801709
297,3.0976060000000003,-1.105107,0.017225,0.019745,0.8935120000000001,0.448601,0.638839,0.261511,-0.27024699999999996,0.167251,0.150524,-0.692971
298,3.093438,-1.126134,0.00024900000000000004,0.020706,0.902756,0.429651,1.168662,0.55129,0.595137,0.5502630000000001,-1.0754549999999998,-0.6362399999999999
299,3.095193,-1.155972,-0.025221,0.018694,0.9151870000000001,0.402592,2.117218,2.33701,0.226665,-0.144304,-0.294216,0.003841
300,3.140889,-1.216175,-0.053232,0.000244,0.9377780000000001,0.347233,3.128963,3.549487,0.898749,-0.430908,0.649884,-0.997181
301,3.119638,-1.261095,-0.12204300000000001,0.006691,0.952425,0.304698,1.616061,1.065717,1.031301,-0.188133,0.702788,-0.72848
302,3.0558330000000002,-1.286879,-0.180036,0.023993,0.959965,0.279086,1.443747,-0.890008,0.618134,-0.2517,0.30697199999999997,-0.142718
303,2.993117,-1.324101,-0.239263,0.036124,0.969725,0.241511,2.217175,0.22287800000000002,0.56229,-0.150947,0.033922,3.6e-05
304,2.906319,-1.368957,-0.33514099999999997,0.046731,0.979699,0.194946,2.415118,0.199464,0.651297,0.16348900000000002,-0.22507600000000003,-0.15728699999999998
305,2.764553,-1.406675,-0.478808,0.060153,0.986562,0.15190599999999999,2.022815,-0.183821,0.67148,0.262998,-0.278371,-0.17969300000000002
306,2.562452,-1.4340680000000001,-0.6696979999999999,0.074598,0.990667,0.114074,1.8305069999999999,-0.7370180000000001,0.651618,0.147921,-0.285635,-0.053009
307,2.278522,-1.4534479999999999,-0.9579629999999999,0.08896,0.993123,0.076113,1.974832,0.593758,0.7310369999999999,0.072676,-0.051625,0.110075
308,1.948434,-1.4625780000000002,-1.307871,0.100395,0.99415,0.039824,1.859821,0.9410780000000001,0.5546,-0.068993,0.045401,0.031587
309,1.633546,-1.4604709999999999,-1.644426,0.109883,0.99392,0.006904,1.69422,1.076083,0.5030640000000001,-0.122899,-0.029945999999999997,0.07218200000000001
310,1.39372,-1.448229,-1.9133209999999998,0.12034700000000001,0.992498,-0.021536000000000003,1.521119,1.492135,0.512058,-0.111222,-0.197164,-0.053796000000000004
311,1.231396,-1.430649,-2.106191,0.131717,0.990195,-0.046504000000000004,1.418784,1.300635,0.5382939999999999,-0.126056,-0.155357,-0.083852
312,1.100644,-1.40842,-2.255831,0.144121,0.9868459999999999,-0.073236,1.514445,0.568218,0.598653,-0.15085,-0.10887000000000001,-0.065848
313,0.984642,-1.382039,-2.377275,0.156315,0.9822379999999999,-0.10379400000000001,1.633772,0.041616,0.584138,-0.19705599999999998,0.09567300000000001,0.023609
314,0.8804299999999999,-1.3527209999999998,-2.488544,0.16680899999999999,0.976316,-0.137776,1.826228,0.46125900000000003,0.436462,-0.314255,0.129992,0.257863
315,0.815286,-1.327719,-2.570286,0.175204,0.9706020000000001,-0.16503199999999998,1.233004,0.754847,0.25889,-0.309832,0.085398,0.379357
316,0.794916,-1.313023,-2.6037529999999998,0.18196800000000002,0.96696,-0.178537,0.635497,0.5034069999999999,0.252902,-0.06452100000000001,0.157216,0.33564099999999997
317,0.800164,-1.303051,-2.6103110000000003,0.18981099999999998,0.9643700000000001,-0.18428699999999998,0.24891100000000002,0.735607,0.328953,-0.112892,0.107438,0.149696
318,0.8322440000000001,-1.2973370000000002,-2.594127,0.199697,0.962842,-0.181812,-0.017699,0.745121,0.312123,-0.27325900000000003,0.256747,0.084979
319,0.849348,-1.292638,-2.584337,0.206171,0.961563,-0.181355,0.065622,0.21994499999999997,0.238603,-0.48388100000000006,0.340699,0.16045
320,0.862143,-1.2926090000000001,-2.575063,0.208497,0.9615549999999999,-0.178721,-0.20438299999999998,0.162346,-0.040947000000000004,-0.367478,0.539407,0.282893
321,0.8963200000000001,-1.304753,-2.5415650000000003,0.205346,0.9648190000000001,-0.164188,-1.1185209999999999,-0.043332,-0.29382800000000003,-0.381723,0.511378,0.179386
322,0.9502870000000001,-1.335115,-2.4747310000000002,0.189975,0.972355,-0.135771,-1.782411,-0.795655,-0.9897090000000001,-0.395908,0.5838270000000001,0.100829
323,1.042233,-1.380737,-2.363638,0.163136,0.981993,-0.095269,-2.559246,-0.716907,-1.360568,-0.007908,0.594072,0.472909
324,1.300835,-1.4275209999999998,-2.093817,0.13761400000000001,0.9897540000000001,-0.03808,-3.0902819999999998,-0.223683,-1.167289,0.440511,0.376625,0.177957
325,1.755671,-1.448393,-1.632539,0.12001700000000001,0.992518,0.022444,-2.996539,-0.029863999999999998,-0.701137,0.5892270000000001,0.206289,-0.34391700000000003
326,2.197182,-1.436434,-1.199395,0.108527,0.9909870000000001,0.078529,-2.6532459999999998,1.050514,-0.513185,0.5111479999999999,0.201976,-0.139808
327,2.5441439999999997,-1.405461,-0.878192,0.092584,0.9863629999999999,0.136073,-2.848739,1.471859,-0.750099,0.326301,0.344783,0.12389100000000002
328,2.771527,-1.363134,-0.654515,0.074568,0.9785159999999999,0.192215,-2.77018,-0.456904,-0.9308129999999999,0.115816,0.48919700000000005,-0.263352
329,2.919073,-1.318932,-0.495751,0.054998000000000005,0.968449,0.24306599999999998,-2.544701,0.166182,-1.1009520000000002,0.103953,0.203899,-0.150246
330,3.036461,-1.276685,-0.38605500000000004,0.03042,0.95706,0.28828899999999996,-2.201416,0.5263479999999999,-1.1577680000000001,0.155523,0.157335,-0.305104
331,3.119593,-1.235852,-0.294367,0.0072310000000000004,0.9444290000000001,0.328637,-2.123712,-0.674701,-1.370399,0.158937,0.058317999999999995,-0.481088
332,-3.112034,-1.192093,-0.213625,-0.010927,0.9291450000000001,0.369554,-2.170492,-1.387061,-1.407201,0.121965,-0.164603,-0.465883
333,-3.091773,-1.148333,-0.14945899999999998,-0.020418000000000002,0.912082,0.4095,-2.1184119999999997,-2.259127,-1.28501,0.054109000000000004,-0.24158000000000002,-0.618682
334,-3.0963580000000004,-1.106495,-0.103404,-0.020249,0.894135,0.44733999999999996,-1.9340380000000001,-2.183443,-0.924897,0.106232,-0.496399,-0.49427600000000005
335,-3.111129,-1.073719,-0.076038,-0.014525,0.8789799999999999,0.476638,-1.389958,-1.830986,-0.560489,0.18476700000000001,-0.6160399999999999,-0.40884299999999996
336,-3.134574,-1.053888,-0.06186799999999999,-0.003469,0.869351,0.494183,-0.74679,-1.8131009999999999,-0.263327,0.20033800000000002,-0.604718,-0.41651499999999997
337,3.116756,-1.046608,-0.05687999999999999,0.01243,0.8657299999999999,0.500356,-0.140513,-1.773464,-0.045498000000000004,0.262625,-0.572868,-0.418096
338,3.0811189999999997,-1.051599,-0.060296,0.029988,0.868218,0.49527600000000005,0.495644,-1.523955,0.143428,0.184078,-0.618477,-0.3198
339,3.044314,-1.069223,-0.073168,0.046698,0.876827,0.47853100000000004,1.146763,-1.075116,0.288406,-0.014837999999999999,-0.576961,-0.239472
340,3.011931,-1.098273,-0.093177,0.058848000000000004,0.890423,0.451312,1.6709080000000003,-0.527284,0.296707,-0.10288499999999999,-0.44193599999999994,-0.103183
341,2.986426,-1.1327559999999999,-0.115192,0.065552,0.9055850000000001,0.419067,1.7313349999999998,-0.238402,0.196346,-0.08203200000000001,-0.195578,0.197541
342,2.9702599999999997,-1.157957,-0.130924,0.06840399999999999,0.915985,0.395334,0.9078370000000001,0.13359400000000002,0.05765700000000001,-0.032531,0.30099499999999996,0.654196
343,2.976948,-1.157281,-0.129753,0.06586,0.9157139999999999,0.396394,-0.574838,0.092326,-0.0584,0.016659,0.615246,0.9279930000000001
344,2.993879,-1.142557,-0.105637,0.06111799999999999,0.909698,0.41074399999999994,-0.857384,-0.383984,-0.578919,0.071649,0.520996,0.768822
345,3.021286,-1.128327,-0.056688,0.051387999999999996,0.903697,0.425075,-0.74415,-1.13533,-1.1273,0.08137899999999999,0.526998,0.754491
346,3.045713,-1.121534,0.002867,0.041576,0.900768,0.432303,-0.319949,-1.489322,-1.148452,-0.124279,-0.163509,0.210519
347,3.048021,-1.121318,0.033272,0.040597,0.900674,0.432591,0.065496,-1.09124,-0.33549,0.07462200000000001,-0.262841,0.328944
348,3.038034,-1.1266530000000001,0.037299,0.044418,0.9029790000000001,0.427379,0.431137,-0.44154099999999996,-0.090214,0.305573,0.179952,0.26253200000000004
349,3.051687,-1.143775,0.035252,0.037185,0.9102040000000001,0.41248500000000005,0.974101,1.547131,0.021058,0.318314,1.255309,-0.588404
350,3.098935,-1.138592,0.05516,0.017862,0.9080450000000001,0.41848900000000006,-1.405326,0.824018,-0.897284,0.358053,2.1422939999999997,-0.646807
351,-3.135004,-1.1207719999999999,0.107778,-0.002866,0.900436,0.43497600000000003,-0.023029,0.026626,-0.8887430000000001,0.143399,0.7231449999999999,-0.32271700000000003
352,-3.139961,-1.135834,0.09662000000000001,-0.000688,0.9068860000000001,0.42137299999999994,1.0303209999999998,0.07294099999999999,0.998626,0.902726,-1.557215,-0.429979
353,3.103001,-1.161201,0.044765,0.015365,0.9172819999999999,0.397939,1.638112,1.3631309999999999,0.703184,-0.449508,0.129685,0.231456
354,-3.125826,-1.226046,0.014183000000000001,-0.005328,0.94116,0.337915,4.0750779999999995,5.1632690000000006,0.912958,-0.74252,1.103869,-0.631174
355,-3.136765,-1.289273,-0.07918700000000001,-0.001341,0.960633,0.27781100000000003,1.9909290000000002,2.727863,1.433495,-0.155977,0.830428,-0.7703800000000001
356,3.072706,-1.303266,-0.150778,0.018196,0.964427,0.263719,0.5257189999999999,-1.860843,0.7145,-0.068351,0.189397,0.20844899999999997
357,2.980235,-1.323402,-0.214666,0.039341,0.9695540000000001,0.241693,1.546071,-0.600913,0.701853,0.043499,-0.270701,0.319098
358,2.88351,-1.362276,-0.323919,0.052834000000000006,0.9783379999999999,0.200152,2.398371,0.721708,0.874891,0.260139,-0.32100500000000004,-0.152911
359,2.727553,-1.402455,-0.489526,0.06740499999999999,0.985864,0.153387,2.286351,0.08996,0.715753,0.154,-0.23467399999999997,-0.20905100000000001
360,2.526685,-1.43016,-0.692045,0.080861,0.9901270000000001,0.114494,1.807277,0.040659,0.672945,0.039622000000000004,-0.168777,-0.10980999999999999
361,2.282639,-1.4481549999999999,-0.9483959999999999,0.092623,0.992489,0.07990900000000001,1.8249119999999999,0.789832,0.593114,-0.140368,0.071873,0.090394
362,1.991452,-1.4595790000000002,-1.258462,0.10130800000000001,0.993822,0.045321,1.7688720000000002,0.7522810000000001,0.442151,-0.228093,0.042738,0.08881900000000001
363,1.706318,-1.4598229999999999,-1.557928,0.109725,0.993849,0.014962,1.486381,0.59443,0.468154,-0.196212,-0.077497,0.11900999999999999
364,1.47891,-1.449481,-1.801437,0.120504,0.99265,-0.011104000000000001,1.379141,0.83611,0.595282,-0.040945,-0.294484,0.001766
365,1.308101,-1.431295,-1.9909029999999999,0.134274,0.9902860000000001,-0.036108,1.36129,0.780303,0.713801,-0.058575999999999996,-0.18979400000000002,-0.133417
366,1.1732879999999999,-1.408331,-2.13729,0.149137,0.9868309999999999,-0.06261599999999999,1.4594129999999998,0.314373,0.730039,-0.08834600000000001,-0.04425,-0.11829200000000001
367,1.0527739999999999,-1.3820700000000001,-2.260697,0.162991,0.982244,-0.092895,1.604058,-0.067324,0.686673,-0.088635,0.046458,0.060377999999999994
368,0.944009,-1.351968,-2.372322,0.17582,0.976152,-0.127329,1.857219,0.178115,0.627238,-0.216545,0.114347,0.232417
369,0.8648870000000001,-1.321695,-2.4637029999999998,0.187616,0.969134,-0.159932,1.601856,0.649425,0.467822,-0.31702600000000003,0.089673,0.32913600000000004
370,0.835184,-1.300103,-2.5080259999999996,0.198255,0.963586,-0.17943499999999998,0.8848959999999999,0.587184,0.404141,-0.226911,0.146674,0.478996
371,0.827681,-1.286997,-2.526477,0.20618499999999998,0.9599979999999999,-0.189447,0.480637,0.489996,0.283938,-0.216729,0.20618499999999998,0.28396
372,0.8391049999999999,-1.279717,-2.52297,0.21353000000000003,0.957935,-0.191743,0.070113,0.321974,0.300514,-0.387785,0.28515300000000005,0.049974
373,0.8540909999999999,-1.2763950000000002,-2.509818,0.21877800000000003,0.956976,-0.190611,-0.110553,-0.06275700000000001,0.232447,-0.4427,0.318811,0.23445
374,0.873181,-1.281275,-2.483371,0.218795,0.9583809999999999,-0.183398,-0.665532,-0.413258,-0.07862899999999999,-0.449371,0.595925,0.24509
375,0.918665,-1.3015940000000001,-2.431225,0.21138400000000002,0.963983,-0.161407,-1.617908,-0.0715,-0.5354399999999999,-0.37300500000000003,0.600775,0.096634
376,0.9989600000000001,-1.34142,-2.340399,0.191196,0.973808,-0.123047,-2.253197,-0.615196,-1.2142979999999999,-0.259799,0.704277,-0.040985
377,1.1552559999999998,-1.3909200000000002,-2.169384,0.16368,0.983866,-0.07222100000000001,-2.9813970000000003,-0.393777,-1.3425129999999998,0.036485000000000004,0.589087,0.40168899999999996
378,1.512923,-1.42875,-1.8045759999999997,0.141329,0.989928,-0.008187999999999999,-3.3402849999999997,-0.032158,-0.888285,0.26277,0.412995,0.324579
379,1.968221,-1.426684,-1.3479379999999999,0.132418,0.989634,0.055584,-3.077093,0.294593,-0.245932,0.627409,0.302068,-0.454769
380,2.309132,-1.397835,-1.018561,0.12728,0.985079,0.11582999999999999,-2.935681,1.1123290000000001,-0.269493,0.32671500000000003,0.367765,0.10491900000000001
381,2.571819,-1.358895,-0.77553,0.113453,0.977633,0.17709,-2.998398,1.0670190000000002,-0.605294,0.17316800000000002,0.38956999999999997,0.06991900000000001
382,2.748527,-1.312567,-0.600067,0.097811,0.966844,0.23589200000000002,-2.945392,0.075882,-0.809821,0.121824,0.364135,-0.162543
383,2.873181,-1.267187,-0.483309,0.07928500000000001,0.9542639999999999,0.288258,-2.468626,1.0041719999999998,-0.799134,0.084457,0.050039,-0.295033
384,2.97728,-1.228172,-0.394375,0.054953999999999996,0.941876,0.331432,-2.090601,0.773991,-1.105983,0.044670999999999995,0.05791,-0.4033
385,3.065412,-1.190915,-0.301058,0.028221,0.928709,0.36973,-2.072855,-0.507784,-1.591326,-0.025825,0.118578,-0.5586180000000001
386,3.1210880000000003,-1.149047,-0.210048,0.008393000000000001,0.912374,0.409267,-2.215185,-1.8715830000000002,-1.672826,-0.07457000000000001,-0.056478,-0.662532
387,-3.140374,-1.106018,-0.13810899999999998,-0.000546,0.893921,0.448221,-2.082411,-2.211871,-1.405475,0.011334,-0.354523,-0.587869
388,-3.138116,-1.069361,-0.086613,-0.0016710000000000002,0.876893,0.480678,-1.619625,-2.1785740000000002,-1.0764770000000001,0.14646199999999998,-0.56981,-0.479595
389,3.132794,-1.0454379999999999,-0.050249,0.004413,0.865144,0.5015,-0.9754440000000001,-2.1936299999999997,-0.8006300000000001,0.279233,-0.570787,-0.424336
390,3.113824,-1.033323,-0.022472,0.014215,0.8590049999999999,0.511767,-0.4114,-2.0982790000000002,-0.625897,0.271598,-0.5089229999999999,-0.42314399999999996
391,3.093702,-1.031443,-0.001362,0.024586,0.8580409999999999,0.51299,0.051414999999999995,-1.767033,-0.48101499999999997,0.22112600000000002,-0.486932,-0.39265900000000004
392,3.077066,-1.037859,0.013124,0.032761,0.861318,0.507005,0.462921,-1.240579,-0.357038,0.11988800000000001,-0.513616,-0.338792
393,3.068768,-1.054316,0.022930000000000002,0.035930000000000004,0.869563,0.49251000000000006,1.020158,-0.598416,-0.257829,0.032032,-0.578974,-0.258395
394,3.0680669999999997,-1.0821020000000001,0.025778,0.034487000000000004,0.8829459999999999,0.46820100000000003,1.604196,0.113794,-0.11686099999999999,-0.024843,-0.45965200000000006,-0.06562899999999999
395,3.0758419999999997,-1.119828,0.023255,0.028636,0.900025,0.434892,1.997911,0.6459229999999999,-0.064586,-0.023265,-0.268571,0.233947
396,3.083221,-1.157176,0.020814,0.023448,0.9156719999999999,0.40123600000000004,1.685546,0.20605700000000002,-0.08329600000000001,0.07048600000000001,0.037041000000000004,0.48067600000000005
397,3.070648,-1.173571,0.021172999999999997,0.027422000000000002,0.9221379999999999,0.385881,0.188807,-1.187461,-0.08341900000000001,-0.095843,0.6928979999999999,0.8009930000000001
398,3.0609669999999998,-1.16641,0.04096,0.031688,0.919344,0.39216999999999996,-0.568227,-1.320341,-0.561759,-0.18204800000000002,0.7713300000000001,0.550563
399,3.080835,-1.1529559999999999,0.088349,0.024638999999999998,0.913967,0.405032,-0.806653,-1.221622,-1.065616,-0.187557,0.691196,0.34229699999999996
400,3.1001939999999997,-1.139483,0.143603,0.017302,0.9084180000000001,0.41769799999999996,-0.615842,-1.703907,-1.035891,-0.229857,-0.422303,0.46216899999999994
401,3.095702,-1.135442,0.178395,0.019346000000000002,0.9067209999999999,0.42128000000000004,0.064083,-1.824491,-0.508627,-0.146055,-0.472883,0.49758900000000006
402,3.070808,-1.147102,0.186976,0.029077,0.911576,0.41009300000000004,0.807729,-1.398406,-0.08203099999999999,-0.141778,-0.182283,0.38359299999999996
403,3.062173,-1.173802,0.185008,0.030675,0.922227,0.38542,1.7307310000000002,0.545647,-0.064188,0.66946,1.095092,-0.643446
404,3.087767,-1.206964,0.17674,0.019145,0.9345399999999999,0.35533200000000004,1.17872,1.970394,0.029475,0.737966,1.735962,-1.2509620000000001
405,-3.140921,-1.190292,0.215206,-0.00024900000000000004,0.928477,0.37137800000000004,-1.634312,0.096572,-0.9929690000000001,0.388662,1.306661,-0.47730500000000003
406,-3.103787,-1.177826,0.259786,-0.014473,0.923776,0.38265,0.078135,-0.184828,-0.5715180000000001,0.9160229999999999,-1.7497490000000002,-0.27927199999999996
407,-3.1153,-1.195912,0.24751900000000002,-0.009626000000000001,0.93055,0.366028,1.145415,0.046732,0.533772,0.721891,-1.2288290000000002,-0.17968800000000001
408,-3.093747,-1.2366709999999999,0.23868000000000003,-0.015684,0.9446969999999999,0.327558,3.046862,2.8759509999999997,-0.009911,0.16918699999999998,-0.594493,0.161959
409,-3.0076169999999998,-1.319709,0.22437800000000002,-0.033186,0.968643,0.24622,4.085507,5.540616,1.116631,-0.34439200000000003,0.87146,-1.631901
410,-3.020125,-1.3718629999999998,0.12958499999999998,-0.023944,0.9802780000000001,0.196156,1.255209,2.651218,1.2650700000000001,-0.19595,0.845665,-0.626988
411,-3.126559,-1.380307,0.029319,-0.002846,0.9819120000000001,0.189305,0.43963100000000005,-2.029804,0.965245,0.0756,-0.025247,0.17994300000000002
412,3.006641,-1.4058469999999998,-0.089875,0.022090000000000002,0.986427,0.162694,1.907325,-0.708547,0.9460299999999999,0.248311,-0.48426,0.20902600000000002
413,2.806738,-1.448086,-0.298721,0.040219,0.992481,0.115587,2.524778,0.6645300000000001,0.959266,0.150897,-0.376315,-0.08011
414,2.471893,-1.481567,-0.650582,0.055300999999999996,0.996022,0.069845,2.114235,0.774255,0.782138,0.087262,-0.192769,-0.29595
415,2.042841,-1.492697,-1.0962180000000001,0.069462,0.9969520000000001,0.035463,1.6755669999999998,0.6589109999999999,0.703378,-0.056232000000000004,0.085125,-0.16410999999999998
416,1.571733,-1.4905950000000001,-1.586301,0.080089,0.9967860000000001,7.5e-05,1.9436919999999998,1.204369,0.46206499999999995,-0.24047399999999997,0.121027,0.12758
417,1.198317,-1.4755200000000002,-1.988606,0.088591,0.9954649999999999,-0.034614,1.752203,1.2713079999999999,0.405094,-0.104643,-0.06651,-0.027183999999999996
418,0.991526,-1.451027,-2.216848,0.099977,0.992836,-0.065397,1.600047,0.853433,0.608597,0.014875999999999999,-0.226677,-0.013826
419,0.8889889999999999,-1.420863,-2.3312779999999997,0.115967,0.9887809999999999,-0.094125,1.441997,0.32048899999999997,0.8218209999999999,0.050827,-0.190365,0.020608
420,0.832095,-1.3908200000000002,-2.3913330000000004,0.132338,0.983848,-0.120522,1.3354709999999999,0.081327,0.782927,-0.056288,-0.089561,0.048073000000000005
421,0.7789,-1.361122,-2.451359,0.14621099999999998,0.9780989999999999,-0.148124,1.5257319999999999,0.442567,0.590445,-0.255556,0.00916,0.131354
422,0.7295699999999999,-1.331749,-2.5139110000000002,0.157817,0.971564,-0.176501,1.518573,0.6178239999999999,0.458779,-0.20563800000000002,0.015314,0.18219200000000002
423,0.700417,-1.306271,-2.556937,0.168509,0.965217,-0.19989200000000001,1.146367,0.620301,0.42840200000000006,-0.17121,0.05973099999999999,0.309648
424,0.6959489999999999,-1.287273,-2.574352,0.17934,0.960076,-0.21468,0.753935,0.6536569999999999,0.419209,-0.113148,0.116478,0.470554
425,0.705651,-1.274089,-2.5815770000000002,0.189608,0.956304,-0.222546,0.458025,0.9299870000000001,0.303557,-0.09549099999999999,0.21866799999999997,0.32645799999999997
426,0.723703,-1.26718,-2.580841,0.197964,0.954262,-0.224032,0.127163,0.792032,0.191395,-0.185299,0.267586,0.19205
427,0.743107,-1.264882,-2.5721689999999997,0.203757,0.953572,-0.221764,-0.08178300000000001,0.35068299999999997,0.187297,-0.46532399999999996,0.339915,0.228417
428,0.767653,-1.269091,-2.54861,0.20635,0.954831,-0.21380700000000002,-0.5855859999999999,0.11031700000000001,-0.00499,-0.415807,0.625232,0.384079
429,0.817724,-1.2873059999999998,-2.5013389999999998,0.204068,0.9600850000000001,-0.19128299999999998,-1.498286,0.17116900000000002,-0.31161300000000003,-0.45080200000000004,0.532637,0.128646
430,0.882798,-1.324373,-2.4271830000000003,0.18843900000000002,0.969791,-0.154892,-2.131334,-0.630154,-1.0349899999999999,-0.405602,0.587322,-0.105117
431,0.991293,-1.376174,-2.301453,0.16181099999999998,0.9811209999999999,-0.105898,-3.037675,-0.585278,-1.347958,0.178094,0.494816,0.47032399999999996
432,1.268594,-1.427318,-2.013385,0.13649,0.989725,-0.042551,-3.2966019999999996,-0.314591,-1.150356,0.420562,0.43446999999999997,0.19103399999999998
433,1.735155,-1.449223,-1.5359180000000001,0.119618,0.992619,0.019839,-3.044295,-0.171549,-0.644576,0.5507920000000001,0.39223800000000003,-0.203647
434,2.1868119999999998,-1.436091,-1.096507,0.10959400000000001,0.990941,0.077583,-2.7961099999999997,1.3703379999999998,-0.43544700000000003,0.40058299999999997,0.231364,0.151283
435,2.537903,-1.402317,-0.773985,0.09518099999999999,0.985841,0.13802899999999999,-2.932609,1.450335,-0.608486,0.350391,0.289123,0.181123
436,2.747385,-1.357227,-0.572974,0.081398,0.977281,0.195677,-2.8490849999999996,0.099253,-0.602967,0.303978,0.369262,0.010591
437,2.873822,-1.308613,-0.447246,0.068573,0.9658260000000001,0.249939,-2.678465,0.538687,-0.61943,0.173004,0.13411900000000002,-0.141708
438,2.977728,-1.2641200000000001,-0.35846500000000003,0.049246,0.953342,0.297833,-2.311697,0.9962840000000001,-0.819348,0.136026,0.051373,-0.237546
439,3.06586,-1.223962,-0.276492,0.025718,0.9404530000000001,0.338935,-2.075561,0.181148,-1.23967,0.027749,-0.001092,-0.47597399999999995
440,3.13103,-1.183555,-0.196691,0.003989,0.925954,0.377602,-2.128128,-0.9824139999999999,-1.390234,0.002954,-0.067037,-0.5994649999999999
441,-3.1261970000000003,-1.138881,-0.129494,-0.006445,0.908165,0.41855,-2.218745,-2.054168,-1.290149,-0.025126,-0.20508600000000002,-0.703295
442,-3.1234439999999997,-1.098902,-0.082592,-0.008249,0.890709,0.45448900000000003,-1.813364,-1.932422,-0.9189370000000001,0.117151,-0.540748,-0.510596
443,-3.133595,-1.0683340000000001,-0.050237000000000004,-0.003851,0.8764,0.481559,-1.322657,-1.9765130000000002,-0.708218,0.22052600000000003,-0.573986,-0.46727700000000005
444,3.131318,-1.050309,-0.024424,0.005109000000000001,0.867577,0.497267,-0.627959,-2.060377,-0.584685,0.211565,-0.565163,-0.48298500000000005
445,3.1077939999999997,-1.046722,-0.004979,0.016909999999999998,0.8657879999999999,0.500116,0.056659,-1.9442110000000001,-0.392045,0.275937,-0.591892,-0.360163
446,3.083586,-1.05595,0.006222,0.028546,0.870368,0.49156400000000006,0.687656,-1.4856200000000002,-0.27071999999999996,0.195697,-0.61277,-0.289034
447,3.065106,-1.07796,0.010415,0.036152,0.8809950000000001,0.47173400000000004,1.345996,-0.8620700000000001,-0.133393,0.01466,-0.645521,-0.23723699999999998
448,3.0544580000000003,-1.112123,0.009001,0.03853,0.896641,0.44106999999999996,1.884159,-0.268531,-0.11223499999999999,-0.09472799999999999,-0.385792,-0.06715399999999999
449,3.051797,-1.151183,0.008229,0.036532999999999996,0.9132469999999999,0.40575700000000003,1.8972229999999999,-0.041398000000000004,-0.180801,-0.133183,-0.13858800000000002,0.33109
450,3.055817,-1.177877,0.009545,0.032801,0.923795,0.38147,0.7996340000000001,0.34448,-0.090686,-0.08695499999999999,0.052966,0.611526
451,3.068806,-1.166721,0.014752000000000001,0.028591000000000002,0.919466,0.39211799999999997,-1.260769,0.24213600000000002,-0.149812,-0.011273,1.4200110000000001,0.8791680000000001
452,3.091901,-1.1358219999999999,0.050516000000000005,0.02093,0.9068809999999999,0.420857,-1.667085,-1.004885,-0.9661049999999999,-0.021541,1.177332,0.389964
453,3.1100790000000003,-1.106287,0.116469,0.014115,0.894041,0.44775299999999996,-1.358675,-2.530111,-1.561269,0.012740000000000001,0.579775,0.112473
454,3.114312,-1.089764,0.174841,0.012620999999999999,0.886518,0.462513,-0.6208229999999999,-2.063038,-0.990556,0.033216,-0.9002959999999999,0.26771100000000003
455,3.101852,-1.086072,0.19363,0.018512999999999998,0.8848030000000001,0.465587,0.081607,-1.370039,-0.144779,0.337856,-0.150383,0.25995300000000005
456,3.08395,-1.1011819999999999,0.19078299999999998,0.026070999999999997,0.8917430000000001,0.45178100000000004,1.260723,-0.157416,0.079821,0.370246,0.3045,0.21009899999999998
457,3.107948,-1.1331440000000002,0.179292,0.014256,0.905749,0.42356499999999997,1.3104360000000002,2.587657,0.072378,0.291133,2.2812930000000002,-1.204906
458,-3.112117,-1.118961,0.214338,-0.012866999999999998,0.899647,0.43641800000000003,-1.7655020000000001,0.5614520000000001,-1.242265,0.060413999999999995,0.631664,-0.183748
459,-3.078992,-1.105075,0.252172,-0.028093,0.8934979999999999,0.44817799999999997,0.166467,-0.047402,-0.37554899999999997,1.102449,-2.088231,-0.405484
460,-3.116173,-1.125327,0.21581,-0.010951,0.902409,0.43073100000000003,1.3211,-0.45019799999999993,1.315482,0.9586600000000001,-1.716679,-0.37316
461,-3.1270700000000002,-1.16363,0.186539,-0.005751,0.9182469999999999,0.395955,2.6606,2.411685,0.017941,-0.576097,0.116818,0.402049
462,-3.034836,-1.246699,0.173745,-0.033931,0.947939,0.316626,4.397837,5.582781,1.237424,-0.717687,0.9543590000000001,-1.794302
463,-3.040869,-1.3033649999999999,0.091292,-0.02657,0.9644530000000001,0.262899,1.392732,2.1946209999999997,1.324392,-0.237377,0.9219,-1.7459470000000001
464,-3.119834,-1.314526,0.028504,-0.005514,0.967342,0.253398,0.5454359999999999,-2.333466,0.627796,0.037512000000000004,-0.2196,0.335027
465,3.077832,-1.338441,-0.029318,0.014671,0.9731270000000001,0.229783,1.663415,-0.358495,0.736692,0.017327000000000002,-0.225385,0.358642
466,2.993674,-1.383165,-0.13211199999999998,0.027487,0.982449,0.184472,2.5812,1.014127,0.8695299999999999,0.353479,-0.345456,-0.11940799999999999
467,2.8511849999999996,-1.4277799999999998,-0.289057,0.040804,0.989791,0.136535,2.253645,0.338545,0.6704869999999999,0.409879,-0.219084,-0.27954
468,2.652933,-1.4559790000000001,-0.489234,0.053765999999999994,0.993416,0.101128,1.566884,-0.038411,0.6950149999999999,0.29624,-0.22186999999999998,-0.294182
469,2.3849400000000003,-1.47255,-0.768785,0.06731000000000001,0.9951780000000001,0.071296,1.5814350000000001,0.824416,0.6940109999999999,-0.084736,0.040955,0.119699
470,2.048311,-1.48386,-1.127063,0.07707699999999999,0.996223,0.039883999999999996,1.665659,1.0498459999999998,0.457165,-0.25356,0.121117,0.084857
471,1.681673,-1.485482,-1.515608,0.084641,0.9963629999999999,0.009423,1.583545,1.009844,0.408573,-0.125031,-0.131022,0.024863
472,1.3672600000000001,-1.474016,-1.849564,0.094595,0.9953200000000001,-0.019524,1.476473,0.8285520000000001,0.550131,0.022761,-0.283788,-0.037529
473,1.1664510000000001,-1.453981,-2.06612,0.107119,0.993185,-0.045839,1.396475,0.680415,0.635219,-0.08121,-0.095617,-0.105956
474,1.0212510000000001,-1.4286709999999998,-2.224875,0.120769,0.989917,-0.07396799999999999,1.537601,0.529636,0.656695,-0.10758499999999999,-0.059299,-0.057898000000000005
475,0.907063,-1.39963,-2.350896,0.134152,0.9853870000000001,-0.104921,1.6947029999999998,0.532514,0.600104,-0.161831,0.025355000000000003,0.078676
476,0.8144399999999999,-1.368142,-2.458754,0.14637999999999998,0.9795360000000001,-0.13811500000000002,1.8154810000000001,0.727406,0.508831,-0.200045,0.127093,0.14147200000000001
477,0.752492,-1.3386120000000001,-2.535231,0.15725699999999998,0.973166,-0.167963,1.427654,0.520309,0.42093,-0.180206,0.20850500000000002,0.328806
478,0.724921,-1.317768,-2.568955,0.165984,0.968159,-0.18738,0.856463,0.17297,0.39815700000000004,-0.16708199999999998,0.26671999999999996,0.64165
479,0.7218680000000001,-1.304422,-2.583398,0.17393499999999998,0.9647319999999999,-0.197568,0.46703100000000003,0.774507,0.288912,-0.21581999999999998,0.26589,0.399823
480,0.748807,-1.2979969999999998,-2.5741099999999997,0.183409,0.9630209999999999,-0.197347,-9.1e-05,0.8473719999999999,0.320807,-0.269392,0.33519699999999997,0.05975900000000001
481,0.779185,-1.294074,-2.552029,0.191972,0.9619559999999999,-0.194372,-0.114151,0.203092,0.36677,-0.35649200000000003,0.29602399999999995,0.270376
482,0.810868,-1.296402,-2.523542,0.196409,0.96259,-0.18665,-0.48705299999999996,0.24399,0.05326,-0.319151,0.531414,0.415547
483,0.8428959999999999,-1.309458,-2.48998,0.192885,0.966045,-0.171888,-1.071501,-0.048755,-0.290142,-0.39021100000000003,0.513981,0.20471
484,0.91574,-1.3398299999999999,-2.414108,0.181523,0.9734459999999999,-0.139448,-1.9103240000000001,-0.136467,-0.804363,-0.287586,0.44621700000000003,0.024137
485,1.031784,-1.3829360000000002,-2.287816,0.16025899999999998,0.982406,-0.095849,-2.608431,-0.519509,-1.112123,-0.126095,0.407029,0.365975
486,1.315754,-1.4272479999999999,-1.9904490000000001,0.138399,0.989715,-0.036083,-3.2432279999999998,-0.41756899999999997,-1.0130700000000001,0.010939,0.34813,0.318691
487,1.7722790000000002,-1.446188,-1.518691,0.12173599999999998,0.992246,0.024865,-3.05991,-0.6441479999999999,-0.720943,0.435943,0.287066,-0.471063
488,2.202166,-1.4322059999999999,-1.081772,0.11148800000000002,0.9904120000000001,0.081522,-2.775434,0.25604699999999997,-0.444508,0.367363,0.28433800000000004,-0.12409400000000001
489,2.5192069999999998,-1.401477,-0.7778930000000001,0.098221,0.9857,0.13689,-2.722097,0.9705360000000001,-0.678992,0.339844,0.31740100000000004,0.033536
490,2.736487,-1.360722,-0.563247,0.082176,0.978015,0.19163,-2.7515680000000002,-0.216781,-0.769543,0.18702,0.33005999999999996,-0.18473299999999998
491,2.865894,-1.317275,-0.423388,0.06827000000000001,0.9680350000000001,0.24131799999999998,-2.449591,-0.008879000000000001,-0.808293,0.20443499999999998,0.142225,-0.066727
492,2.973896,-1.277801,-0.326284,0.048204000000000004,0.957383,0.284747,-2.090853,0.929723,-0.876424,0.200957,0.043059,-0.170993
493,3.0603860000000003,-1.240988,-0.24306599999999998,0.026269,0.9461040000000001,0.322774,-1.9150330000000002,-0.196479,-1.243358,0.079993,0.028322000000000003,-0.469868
494,3.127785,-1.204051,-0.151385,0.004951,0.933499,0.358525,-1.987373,-1.372258,-1.517958,0.013817,-0.07902200000000001,-0.571858
495,-3.121157,-1.162641,-0.072141,-0.00811,0.917855,0.396814,-2.072294,-2.1711400000000003,-1.463048,0.010186,-0.263848,-0.526072
496,-3.109927,-1.122206,-0.011894,-0.013731,0.901059,0.433461,-1.899407,-2.142939,-1.2065709999999998,0.047361,-0.460858,-0.457768
497,-3.114164,-1.088568,0.029278,-0.012718,0.885964,0.463563,-1.49712,-2.000929,-0.8386110000000001,0.118172,-0.579079,-0.417451
498,-3.128155,-1.063972,0.05790599999999999,-0.006522,0.874291,0.48534099999999997,-1.0240040000000001,-1.9383709999999998,-0.643107,0.208671,-0.549767,-0.398976
499,3.1383970000000003,-1.050899,0.08132,0.001588,0.86787,0.49677,-0.43488000000000004,-1.7725990000000003,-0.5184949999999999,0.23115500000000003,-0.5342979999999999,-0.35870799999999997
500,3.119625,-1.048734,0.096874,0.010953000000000001,0.866793,0.49853000000000003,0.08192200000000001,-1.486479,-0.32404,0.180972,-0.588228,-0.258158
501,3.106304,-1.0576219999999998,0.10725,0.017321,0.8711909999999999,0.49062,0.672136,-0.882713,-0.241643,0.083952,-0.616567,-0.208668
502,3.1028130000000003,-1.079583,0.115128,0.018287,0.881761,0.471322,1.308139,-0.36088200000000004,-0.22184600000000002,0.0038840000000000003,-0.388322,-0.045205
503,3.103952,-1.110367,0.121101,0.01672,0.895862,0.44399700000000003,1.608833,-0.127703,-0.18692899999999998,0.023181999999999998,-0.289096,0.058460000000000005
504,3.1054630000000003,-1.139162,0.126617,0.015111000000000001,0.908283,0.41806000000000004,1.249792,-0.25322100000000003,-0.188208,0.021128,-0.070622,0.274429
505,3.107046,-1.153694,0.13702899999999998,0.013992,0.914267,0.40484899999999996,0.359157,-0.524626,-0.275266,-0.170928,0.406992,0.479108
506,3.103069,-1.151483,0.150106,0.015679,0.9133690000000001,0.40680900000000003,-0.279973,-0.747287,-0.24953499999999998,-0.119226,0.287742,0.668325
507,3.1139069999999998,-1.145802,0.170471,0.011413,0.911041,0.41213500000000003,-0.332998,-0.247412,-0.534693,0.010559,0.271744,0.6361140000000001
508,3.138051,-1.137468,0.206193,0.0014869999999999998,0.907573,0.41986899999999994,-0.452721,-0.590968,-0.82885,0.148827,0.223927,0.25914699999999996
509,-3.126994,-1.130093,0.244304,-0.006227,0.904452,0.426508,-0.260475,-0.896803,-0.70427,0.117219,0.199277,0.38815900000000003
510,-3.135967,-1.1280459999999999,0.25874400000000003,-0.0024100000000000002,0.9035770000000001,0.42839700000000003,-0.027576,-1.1462290000000002,-0.069936,0.141463,0.335239,0.509347
511,3.129187,-1.1295680000000001,0.25299,0.005297,0.904228,0.42699499999999996,0.130443,-0.010772,0.091014,0.213758,1.534844,0.051124
512,-3.1392990000000003,-1.1201299999999998,0.264994,-0.000999,0.900157,0.435542,-1.0126469999999999,0.11012999999999999,-0.646721,0.112419,1.16042,-0.734676
513,-3.0705240000000003,-1.106775,0.31695300000000004,-0.031778,0.89426,0.44639700000000004,0.24330100000000002,1.8947880000000001,-1.2822360000000002,-0.0016690000000000001,-0.160205,-0.795762
514,-3.003302,-1.135801,0.352852,-0.058088,0.9068719999999999,0.417361,1.8185349999999998,1.405756,0.038008999999999994,1.3129709999999999,-2.006741,-0.621844
515,-3.029994,-1.160212,0.313692,-0.044449,0.9168879999999999,0.39664,0.677527,0.256939,1.138189,0.854965,-1.047793,0.15128699999999998
516,-2.966311,-1.1949290000000001,0.317823,-0.064009,0.93019,0.36143200000000003,3.041786,4.867765,-0.188619,-0.725801,1.358842,0.049776999999999995
517,-2.879645,-1.272665,0.313632,-0.076059,0.955887,0.28368699999999997,3.244519,3.7574110000000003,1.3161399999999999,-0.48152799999999996,0.9312440000000001,-1.623531
518,-2.893059,-1.306166,0.265148,-0.06433,0.965189,0.253486,0.6754680000000001,0.265391,0.8914049999999999,-0.270814,0.45838,-0.331825
519,-2.962348,-1.326442,0.21738000000000002,-0.043127,0.9702940000000001,0.23801999999999998,1.2029290000000001,-1.321505,0.875758,0.067754,-0.282122,0.254701
520,-3.034198,-1.364351,0.146517,-0.021967,0.978766,0.203761,2.024795,0.424904,1.122816,0.350306,-0.49358199999999997,-0.090861
521,-3.137004,-1.409158,0.035085000000000005,-0.0007379999999999999,0.986965,0.160883,2.199854,0.220773,1.137119,0.302237,-0.2812,-0.278589
522,2.993998,-1.4507139999999998,-0.128614,0.017606999999999998,0.992799,0.118427,2.046175,0.655949,0.868432,0.140047,0.0023190000000000003,-0.134723
523,2.76809,-1.481746,-0.366096,0.032417,0.9960379999999999,0.082717,1.717703,0.348563,0.767187,-0.107353,0.093135,-0.101623
524,2.4087709999999998,-1.505472,-0.732695,0.04359,0.9978670000000001,0.048433,1.768102,0.360177,0.48337700000000006,-0.162395,0.127209,0.09702899999999999
525,1.8343049999999999,-1.516564,-1.3200209999999999,0.052199,0.9985299999999999,0.014081999999999999,1.7210439999999998,0.798215,0.47180500000000003,-0.101225,-0.114802,0.203371
526,1.295823,-1.504664,-1.881995,0.06348999999999999,0.997814,-0.017912,1.622274,1.2709979999999999,0.6072420000000001,-0.025557,-0.328915,0.070539
527,1.040155,-1.4802389999999999,-2.166266,0.077926,0.9959020000000001,-0.045725,1.423732,1.339502,0.697634,-0.051757000000000004,-0.254447,-0.181783
528,0.9091459999999999,-1.451854,-2.318909,0.093573,0.992935,-0.07287,1.514989,0.804215,0.748096,-0.100333,-0.08038300000000001,-0.16921
529,0.807778,-1.418925,-2.428677,0.10930999999999999,0.98849,-0.104524,1.712611,0.158986,0.760985,-0.054042999999999994,0.000722,0.105546
530,0.728496,-1.382737,-2.511644,0.12444000000000001,0.982369,-0.139473,1.784446,0.204675,0.728313,-0.092961,-0.015801,0.244698
531,0.69376,-1.350219,-2.553522,0.13988499999999998,0.9757709999999999,-0.168196,1.296518,0.353419,0.717237,-0.20327,0.086362,0.388182
532,0.6820689999999999,-1.327612,-2.5759939999999997,0.15178,0.970576,-0.186901,0.917112,0.619071,0.414076,-0.20311099999999999,0.21799200000000002,0.44872700000000004
533,0.687728,-1.312689,-2.587988,0.16201300000000002,0.966875,-0.197211,0.493237,0.9765360000000001,0.365792,-0.17521199999999998,0.22326500000000002,0.317069
534,0.721579,-1.3033709999999998,-2.572216,0.17454,0.964455,-0.198371,0.09919299999999999,0.810052,0.516009,-0.300531,0.293724,0.106299
535,0.7542770000000001,-1.297128,-2.548971,0.185051,0.962786,-0.196943,-0.032138,0.344744,0.309521,-0.532723,0.473829,0.294523
536,0.767878,-1.299324,-2.5388029999999997,0.186244,0.963377,-0.192887,-0.283839,0.130201,-0.165185,-0.469996,0.627123,0.262726
537,0.784051,-1.316872,-2.52347,0.177371,0.967934,-0.17785,-1.105746,0.012584999999999999,-0.674976,-0.436191,0.621101,-0.092948
538,0.799689,-1.354506,-2.498324,0.153882,0.9767,-0.149546,-1.740629,-0.703585,-1.379246,-0.225919,0.7151029999999999,0.06603400000000001
539,0.835149,-1.407767,-2.445565,0.120304,0.98674,-0.108892,-2.520369,-0.69342,-1.64642,0.154568,0.5827640000000001,0.490453
540,1.080538,-1.466159,-2.197434,0.092083,0.9945299999999999,-0.049147,-3.236645,0.356661,-1.222276,0.706882,0.303458,0.38209299999999996
541,1.7474049999999999,-1.491538,-1.5420129999999999,0.077849,0.9968610000000001,0.013894,-2.933662,0.890451,-0.44211000000000006,0.8000649999999999,0.115475,-0.27874
542,2.351527,-1.469748,-0.961508,0.071608,0.994899,0.07094199999999999,-2.72353,1.561079,-0.23426599999999997,0.6772779999999999,0.112874,-0.255284
543,2.713207,-1.427133,-0.629424,0.05945,0.989698,0.130181,-2.9649259999999997,1.4002860000000001,-0.573304,0.27188,0.329836,0.110847
544,2.909321,-1.373979,-0.446829,0.045002999999999994,0.9806940000000001,0.19025599999999998,-2.9212990000000003,0.350074,-0.648566,0.214732,0.429172,0.060628999999999995
545,3.021687,-1.324826,-0.33815500000000004,0.029122000000000002,0.969902,0.24171399999999998,-2.464008,0.589816,-0.792025,0.07906200000000001,0.293496,-0.155379
546,3.121203,-1.280608,-0.25664000000000003,0.005833,0.95819,0.286041,-2.1874689999999997,1.143625,-0.9980379999999999,0.035381,0.037446,-0.303879
547,-3.078201,-1.239547,-0.180152,-0.020600999999999998,0.9456370000000001,0.324542,-1.93671,0.11076099999999998,-1.328249,0.043626,0.003261,-0.469195
548,-3.0268490000000003,-1.198368,-0.10578299999999999,-0.041658,0.9314459999999999,0.36146,-1.970059,-1.5226600000000001,-1.477008,0.053285,-0.167225,-0.596979
549,-3.014055,-1.156123,-0.048479,-0.051240999999999995,0.915248,0.399595,-1.919446,-2.1341810000000003,-1.24193,0.050325999999999996,-0.39738,-0.503095
550,-3.017721,-1.118092,-0.008416,-0.05404,0.8992680000000001,0.434025,-1.670977,-1.9059700000000002,-0.985182,0.081613,-0.44859899999999997,-0.460118
551,-3.029688,-1.088395,0.020375,-0.051802999999999995,0.885884,0.460984,-1.212161,-1.893614,-0.743779,0.290206,-0.542637,-0.360398
552,-3.049527,-1.069941,0.041964999999999995,-0.044143,0.877172,0.47812,-0.6618689999999999,-1.956091,-0.515529,0.282547,-0.533926,-0.37753400000000004
553,-3.074027,-1.061674,0.055656,-0.032906,0.873173,0.48627700000000007,-0.233922,-1.6816060000000002,-0.26506399999999997,0.287987,-0.637959,-0.376963
554,-3.0977959999999998,-1.06261,0.059595,-0.021304,0.8736280000000001,0.486105,0.22914600000000002,-1.178251,-0.003965,0.150622,-0.6459520000000001,-0.317404
555,-3.119472,-1.073925,0.055598,-0.010543,0.879078,0.476538,0.778688,-0.735624,0.184109,0.068313,-0.605259,-0.258048
556,-3.135784,-1.096761,0.047159,-0.002652,0.889734,0.456449,1.34721,-0.267907,0.20884499999999998,-0.040027,-0.37130100000000005,-0.091642
557,3.1397169999999996,-1.128219,0.039467,0.0008029999999999999,0.903651,0.428246,1.6464889999999999,0.0317,0.14966300000000002,-0.043726,-0.221156,0.12448900000000002
558,3.133539,-1.158327,0.034434,0.003228,0.916134,0.400835,1.343026,-0.1544,0.06552899999999999,-0.054025,-0.132152,0.280607
559,3.124302,-1.175174,0.031284,0.006663,0.9227569999999999,0.385299,0.487429,-0.41758900000000004,0.024638999999999998,-0.060038,0.33765,0.686692
560,3.128441,-1.174847,0.043554,0.005072,0.922631,0.385625,-0.24279699999999999,-0.29590900000000003,-0.466659,-0.091513,0.575004,0.734904
561,-3.1181229999999998,-1.163756,0.09034299999999999,-0.009290000000000001,0.9182969999999999,0.395759,-0.721363,-0.408637,-1.164201,0.10747999999999999,0.698326,0.48181999999999997
562,-3.077244,-1.147626,0.15369000000000002,-0.026405,0.911791,0.409778,-0.671719,-1.154923,-1.3252680000000001,0.153618,0.156385,0.324871
563,-3.057697,-1.1412440000000001,0.202451,-0.034895999999999996,0.9091520000000001,0.41497399999999995,0.090502,-1.219433,-0.766483,0.282043,-0.35075700000000004,0.436008
564,-3.066723,-1.148601,0.21280900000000003,-0.030648,0.912191,0.408591,0.465333,-0.5677939999999999,0.050354,0.174554,-0.071676,0.379327
565,-3.064825,-1.160841,0.208831,-0.030565,0.9171389999999999,0.397369,0.688181,0.9309200000000001,0.155744,0.466005,0.588507,-0.007461
566,-3.043256,-1.169842,0.200398,-0.038316,0.920689,0.388384,-0.005242,1.418038,0.152412,0.562517,1.472682,-0.82976
567,-3.017672,-1.15079,0.21385,-0.050398,0.9130860000000001,0.404614,-0.634283,0.370424,-0.521482,0.33261,0.388763,-0.307874
568,-3.000619,-1.164758,0.220423,-0.055492999999999994,0.918693,0.39103000000000004,1.1956790000000002,0.9162299999999999,0.45841000000000004,0.83746,-1.5519479999999999,-0.41774799999999995
569,-3.026494,-1.193073,0.180633,-0.042352,0.929507,0.36633899999999997,1.3203690000000001,0.421684,0.947024,0.033731,-0.638842,0.12371199999999999
570,-2.973443,-1.248669,0.174637,-0.052978,0.948564,0.312091,3.68356,4.585314,0.364264,-0.526047,0.329192,-0.194339
571,-2.910317,-1.324131,0.148527,-0.05596,0.9697319999999999,0.23763499999999999,2.901609,3.6881800000000005,1.350193,-0.24373699999999998,0.904063,-1.03979
572,-2.958689,-1.351903,0.07185,-0.039488999999999996,0.976138,0.21348899999999998,0.521957,-0.340539,0.977675,-0.23381100000000002,0.42023900000000003,0.10090299999999999
573,-3.0514200000000002,-1.37323,0.004869,-0.017672,0.980547,0.195442,1.403389,-1.2322309999999999,0.760648,0.109758,-0.286043,0.10631600000000001
574,-3.128587,-1.413449,-0.072931,-0.002037,0.9876459999999999,0.156632,2.203021,0.61085,0.827965,0.241905,-0.406882,0.017379
575,3.0284240000000002,-1.457841,-0.21240599999999998,0.01272,0.993627,0.11192300000000001,2.196853,0.397927,0.800421,0.34315999999999997,-0.35996,-0.069747
576,2.788247,-1.492146,-0.459085,0.027154,0.996909,0.073624,1.8050979999999999,0.301491,0.7476010000000001,0.259223,-0.279471,-0.069733
577,2.3463979999999998,-1.514053,-0.916767,0.040398,0.998391,0.039615,1.7088740000000002,1.107569,0.648688,-0.046745999999999996,0.073005,0.058210000000000005
578,1.696535,-1.520327,-1.593433,0.049902999999999996,0.998727,0.006308,1.7084560000000002,1.273558,0.431623,-0.13178099999999998,0.125373,0.06737699999999999
579,1.177196,-1.507416,-2.1390830000000003,0.058387,0.997992,-0.024246,1.536003,1.351952,0.42390900000000004,-0.16997400000000001,-0.004797999999999999,0.127182
580,0.934695,-1.484956,-2.412122,0.0689,0.996318,-0.050883,1.355933,1.4885950000000001,0.507934,-0.036963,-0.28863099999999997,0.007716
581,0.8402059999999999,-1.460259,-2.535045,0.082111,0.9938969999999999,-0.07357000000000001,1.210507,1.2756530000000001,0.605467,-0.11078299999999999,-0.181428,-0.083763
582,0.784375,-1.4332610000000001,-2.609096,0.096812,0.990557,-0.09701,1.314718,0.576109,0.695754,-0.102259,-0.016024,-0.059851
583,0.725605,-1.4026299999999998,-2.671537,0.111042,0.985893,-0.125184,1.53395,-0.019084,0.698048,-0.123448,0.047035,0.03708
584,0.667103,-1.368491,-2.733263,0.124298,0.979606,-0.157828,1.709459,0.271394,0.6316039999999999,-0.22447199999999998,0.068993,0.187476
585,0.6372329999999999,-1.3382450000000001,-2.773963,0.137103,0.973082,-0.185211,1.21941,0.580259,0.540191,-0.215457,0.019716,0.5056149999999999
586,0.642986,-1.3183129999999998,-2.781271,0.149769,0.9682950000000001,-0.199906,0.706781,0.6758930000000001,0.511918,-0.142811,0.180799,0.53386
587,0.66776,-1.303475,-2.771831,0.163555,0.964482,-0.207396,0.365975,0.866469,0.568046,-0.17635699999999999,0.189876,0.19578399999999999
588,0.71103,-1.2934729999999999,-2.744389,0.178661,0.961792,-0.20742600000000003,0.048565,0.7270340000000001,0.547848,-0.451244,0.409348,0.077925
589,0.736382,-1.287392,-2.723682,0.18778599999999998,0.960109,-0.207161,0.035437,0.035233,0.402296,-0.627255,0.363347,0.325706
590,0.7568010000000001,-1.287524,-2.703087,0.19189,0.9601459999999999,-0.203191,-0.357734,0.051799,0.06410700000000001,-0.414454,0.519178,0.402547
591,0.788741,-1.300949,-2.6662150000000002,0.189117,0.9638120000000001,-0.187857,-1.218037,-0.316913,-0.22344099999999997,-0.465316,0.473017,0.076132
592,0.835182,-1.334362,-2.6034770000000003,0.173647,0.9721790000000001,-0.157165,-1.921841,-0.9889610000000001,-0.979524,-0.32901199999999997,0.539188,-0.008073
593,0.914473,-1.385597,-2.503055,0.145857,0.9829,-0.11234300000000001,-2.840872,-0.758374,-1.36973,0.041704000000000005,0.528163,0.425133
594,1.156469,-1.4405729999999999,-2.251399,0.11881800000000001,0.991533,-0.052253999999999995,-3.1450150000000003,-0.219678,-1.289224,0.270312,0.480116,0.333764
595,1.6455509999999998,-1.471537,-1.7509689999999998,0.098742,0.995078,0.0073950000000000005,-2.927132,-0.36207,-0.768363,0.693036,0.348779,-0.43194099999999996
596,2.196016,-1.459889,-1.211393,0.08968200000000001,0.993856,0.064734,-2.8271889999999997,1.4509379999999998,-0.299971,0.65574,0.341944,-0.013312000000000001
597,2.602945,-1.424164,-0.8368979999999999,0.074918,0.9892690000000001,0.125366,-2.925871,1.5311190000000001,-0.817782,0.58353,0.417103,0.12413099999999999
598,2.849145,-1.377977,-0.594923,0.055230999999999995,0.981468,0.183443,-2.8812889999999998,-0.283853,-0.920899,0.24957800000000002,0.423058,-0.23176799999999997
599,2.9778729999999998,-1.329115,-0.463685,0.039001999999999995,0.970937,0.23609499999999997,-2.566654,0.514637,-0.810766,0.209945,0.211146,-0.095302
600,3.082134,-1.284578,-0.37464000000000003,0.016775,0.959318,0.281792,-2.202523,0.868878,-1.002025,0.12041700000000001,0.151354,-0.163719
601,-3.1113869999999997,-1.244758,-0.286127,-0.009672,0.947319,0.320115,-1.9174669999999998,-0.24990700000000002,-1.453663,0.053526,0.014306000000000001,-0.49904
602,-3.057635,-1.203151,-0.20604099999999997,-0.030137999999999998,0.933176,0.358124,-2.0626279999999997,-1.462703,-1.465941,0.0066549999999999995,-0.211786,-0.558624
603,-3.0402080000000002,-1.15897,-0.144505,-0.040510000000000004,0.916391,0.398202,-2.100015,-2.260053,-1.3028110000000002,0.018919,-0.358164,-0.6277699999999999
604,-3.049325,-1.116417,-0.102121,-0.040437,0.898534,0.437011,-1.93998,-2.3675509999999997,-0.933018,0.097886,-0.5465899999999999,-0.5539850000000001
605,-3.0728009999999997,-1.081119,-0.076085,-0.032327999999999996,0.8824850000000001,0.469204,-1.547449,-2.3264400000000003,-0.6322949999999999,0.242152,-0.647057,-0.440792
606,-3.103155,-1.058282,-0.058904,-0.018843000000000002,0.8715139999999999,0.489983,-0.8384510000000001,-2.203073,-0.39676500000000003,0.233717,-0.620843,-0.41634399999999994
607,-3.132953,-1.050124,-0.048617,-0.004298,0.8674850000000001,0.497421,-0.150131,-1.7237189999999998,-0.189609,0.292063,-0.5785140000000001,-0.357528
608,3.128131,-1.055116,-0.04375,0.006638,0.869958,0.493058,0.49778,-1.0967360000000002,-0.102566,0.216125,-0.581994,-0.287827
609,3.113778,-1.074114,-0.042369,0.013252000000000002,0.8791680000000001,0.47630200000000006,1.205941,-0.586113,-0.006406,0.063378,-0.527011,-0.145522
610,3.10277,-1.1045049999999998,-0.046508999999999995,0.017447999999999998,0.893242,0.44921300000000003,1.6786880000000002,-0.250362,0.069105,-0.11281600000000001,-0.363548,0.038
611,3.096675,-1.138064,-0.049484,0.018829,0.9078229999999999,0.418904,1.544376,-0.13000799999999998,-0.07513,-0.18212899999999999,-0.081941,0.33121799999999996
612,3.102042,-1.154066,-0.040097,0.016004,0.9144180000000001,0.404429,0.240963,-0.274793,-0.299829,-0.181821,0.307857,0.625265
613,3.108904,-1.147151,-0.021799000000000002,0.013434999999999999,0.9115969999999999,0.410839,-0.491288,-0.475228,-0.42326,-0.15883599999999998,0.430979,0.968036
614,3.130988,-1.1378629999999998,0.010368,0.004449,0.907739,0.41948500000000005,-0.514614,-0.391419,-0.8422350000000001,0.047401,0.460089,0.7219479999999999
615,-3.116571,-1.12695,0.065411,-0.010743,0.903107,0.429256,-0.5366029999999999,-0.971232,-1.279616,0.119309,0.434601,0.42107
616,-3.093718,-1.11694,0.11702699999999999,-0.020981,0.8987629999999999,0.437907,-0.34819,-1.237299,-0.9735159999999999,0.26026900000000003,0.319743,0.504552
617,-3.0966,-1.109667,0.138748,-0.020012000000000002,0.89555,0.444484,-0.46320900000000004,-0.902283,-0.205629,0.40783,0.470554,0.5879260000000001
618,-3.09545,-1.093826,0.141006,-0.021175,0.88839,0.45857600000000004,-0.906018,0.33579499999999995,-0.145147,0.422252,1.1836010000000001,-0.033177
619,-3.064881,-1.079035,0.166948,-0.036184,0.881502,0.470767,-0.153042,0.159689,-0.979284,0.199621,-0.6849689999999999,-1.12398
620,-3.0256,-1.1023889999999998,0.20464100000000002,-0.052247,0.8922889999999999,0.44840699999999994,1.800096,0.644913,-0.406515,0.937867,-1.595078,-1.051312
621,-3.017807,-1.133127,0.19579100000000002,-0.052327,0.905742,0.42056099999999996,0.979289,0.528085,0.7479899999999999,0.871816,-1.07928,-0.005415
622,-3.012856,-1.15652,0.162741,-0.051674,0.915408,0.39916999999999997,2.137292,3.4472629999999995,0.728837,-0.078286,0.9725309999999999,-0.668519
623,-2.965593,-1.225355,0.12290699999999999,-0.059283,0.940926,0.333351,3.121239,3.7266470000000003,1.6689779999999999,-0.266279,0.965202,-1.1238629999999998
624,-2.995118,-1.264693,0.053954999999999996,-0.043976999999999995,0.953515,0.298086,1.281485,0.511576,1.150706,-0.413024,0.6306069999999999,-0.09361799999999999
625,-3.041905,-1.300611,0.017597,-0.026560000000000004,0.9637209999999999,0.265547,2.015727,-0.523975,0.540797,-0.201147,-0.142997,-0.074156
626,-3.067167,-1.3452790000000001,-0.014431,-0.016624,0.9746790000000001,0.222948,2.207895,0.562565,0.650774,0.022178,-0.314232,-0.235384
627,-3.1155459999999997,-1.3880940000000002,-0.073678,-0.004731,0.9833559999999999,0.181574,2.036368,0.44571400000000005,0.717024,0.10775799999999999,-0.28039899999999995,-0.140666
628,3.0752610000000002,-1.426265,-0.176805,0.009542,0.989574,0.14365,1.8363369999999999,0.48201700000000003,0.8694040000000001,0.199961,-0.270015,-0.023014
629,2.90393,-1.4580879999999998,-0.357417,0.026461000000000002,0.993655,0.109234,1.720114,0.279938,0.8891469999999999,0.23699699999999999,-0.11604600000000001,0.002018
630,2.613081,-1.4861309999999999,-0.655346,0.042591000000000004,0.996418,0.07293999999999999,1.9002430000000001,0.38727,0.798401,0.08482,0.053616,0.115704
631,2.148413,-1.5038799999999999,-1.133601,0.055916999999999994,0.997762,0.036445,1.7861939999999998,0.745102,0.65614,-0.068735,-0.025182,0.13259200000000002
632,1.6502689999999998,-1.501901,-1.65365,0.068507,0.9976280000000001,0.005456,1.528219,1.280715,0.668607,-0.115855,-0.20617,0.128974
633,1.324676,-1.485455,-2.0126020000000002,0.08258,0.996361,-0.020745,1.399869,1.7050560000000001,0.689599,-0.12408399999999999,-0.192528,-0.050162
634,1.118303,-1.4632129999999999,-2.251504,0.096506,0.994218,-0.046915,1.538799,1.4619209999999998,0.6321289999999999,-0.172526,-0.076112,-0.170782
635,0.9489049999999999,-1.434982,-2.44199,0.11000499999999999,0.990791,-0.078848,1.7933259999999998,0.642922,0.6285470000000001,-0.169819,-0.039879000000000005,-0.144846
636,0.818235,-1.401339,-2.579582,0.123073,0.985676,-0.115245,1.896616,0.135444,0.640601,-0.167201,-0.00591,0.041423
637,0.734404,-1.365995,-2.668373,0.136268,0.979101,-0.150926,1.7499069999999999,0.242519,0.630894,-0.201774,0.042475,0.199693
638,0.6992550000000001,-1.338454,-2.711334,0.14818699999999999,0.9731299999999999,-0.176201,1.065151,0.37758,0.482796,-0.147013,0.14569100000000001,0.443412
639,0.69885,-1.322544,-2.724539,0.158059,0.9693430000000001,-0.188093,0.548044,0.797491,0.350459,-0.085931,0.219835,0.321302
640,0.721226,-1.313701,-2.721573,0.167882,0.967133,-0.19094,0.171568,1.0354139999999998,0.318682,-0.072774,0.244446,0.19486199999999998
641,0.765029,-1.3097239999999999,-2.696934,0.17874500000000001,0.9661139999999999,-0.18617899999999998,-0.169466,0.909718,0.34637199999999996,-0.38562399999999997,0.36221,0.172767
642,0.797909,-1.307558,-2.675103,0.18626700000000002,0.9655520000000001,-0.18166300000000002,-0.07508300000000001,0.43684399999999995,0.23761,-0.445758,0.345208,0.227836
643,0.824048,-1.307855,-2.6566509999999997,0.19074000000000002,0.9656299999999999,-0.176538,-0.297511,0.413706,0.089739,-0.367894,0.321449,0.205087
644,0.854798,-1.317053,-2.626173,0.189368,0.967979,-0.164752,-0.862266,-0.177656,-0.185844,-0.478796,0.49716899999999997,0.27678200000000003
645,0.918443,-1.343468,-2.5535330000000003,0.179074,0.9742719999999999,-0.136799,-1.8384099999999999,-0.448061,-0.714677,-0.569836,0.429353,0.176472
646,1.037906,-1.387904,-2.4181220000000003,0.156625,0.9833219999999999,-0.092378,-2.7849060000000003,-0.720892,-1.195229,-0.13775,0.40355,0.407518
647,1.3531469999999999,-1.433009,-2.0903389999999997,0.13405999999999998,0.9905219999999999,-0.029648,-3.3869620000000005,-0.13788499999999998,-1.015379,0.341053,0.361849,0.189743
648,1.875791,-1.4485299999999999,-1.563258,0.116272,0.9925350000000001,0.036605,-3.252017,-0.051842,-0.805175,0.44313,0.331837,-0.227996
649,2.327448,-1.4277819999999999,-1.113081,0.103595,0.989791,0.097804,-2.959784,0.668324,-0.535933,0.476117,0.32829400000000003,-0.48247799999999996
650,2.634372,-1.3895540000000002,-0.832817,0.087534,0.983621,0.15751500000000002,-2.857072,1.713831,-0.742722,0.23454899999999998,0.651771,-0.169005
651,2.848765,-1.343115,-0.62695,0.06514500000000001,0.974193,0.216072,-3.007087,-0.27389600000000003,-1.164239,0.058696000000000005,0.603109,-0.27459
652,2.977707,-1.291251,-0.477487,0.045012,0.961181,0.272188,-2.7732740000000002,-0.532275,-1.221027,-0.057553999999999994,0.524644,-0.22065900000000002
653,3.072943,-1.245975,-0.377474,0.021889,0.947708,0.318358,-2.2416080000000003,-0.017314,-1.2574969999999999,0.013953,0.17898599999999998,-0.424742
654,-3.1373349999999998,-1.204968,-0.284987,-0.001523,0.9338280000000001,0.357691,-2.062636,-1.200864,-1.6713369999999999,0.037366,0.192866,-0.464075
655,-3.089788,-1.161474,-0.19154100000000002,-0.020607,0.917391,0.397428,-2.1497479999999998,-2.259736,-1.865005,0.058296,-0.065691,-0.624021
656,-3.0682110000000002,-1.116131,-0.111276,-0.032195999999999995,0.898408,0.437957,-2.139343,-2.713898,-1.785302,0.013977000000000002,-0.28082399999999996,-0.606246
657,-3.065292,-1.073356,-0.047062,-0.036372,0.878807,0.475767,-1.911214,-2.718991,-1.509169,0.07299299999999999,-0.481865,-0.554685
658,-3.0740529999999997,-1.038889,0.004083,-0.034227,0.861841,0.5060020000000001,-1.448426,-2.5828830000000003,-1.315967,0.13836800000000002,-0.625238,-0.531438
659,-3.086268,-1.016249,0.045380000000000004,-0.029116000000000003,0.850139,0.525732,-0.818703,-2.245319,-1.031059,0.215883,-0.662227,-0.432379
660,-3.101063,-1.007321,0.077944,-0.021641,0.845404,0.533669,-0.166908,-2.023776,-0.788576,0.311177,-0.532355,-0.420937
661,-3.115214,-1.010636,0.102828,-0.014013,0.8471700000000001,0.5311170000000001,0.380409,-1.598199,-0.597291,0.342489,-0.539858,-0.38762399999999997
662,-3.124344,-1.024448,0.12299600000000001,-0.008961,0.8544280000000001,0.519473,0.916417,-1.132944,-0.46168400000000004,0.21945599999999998,-0.508221,-0.321887
663,-3.1282330000000003,-1.050553,0.137216,-0.006640000000000001,0.867698,0.497026,1.5408979999999999,-0.623505,-0.263558,0.169482,-0.48995200000000005,-0.264314
664,-3.130833,-1.088203,0.143124,-0.004993,0.8857940000000001,0.46403,2.070651,-0.259846,-0.017803,-0.030376999999999998,-0.257285,-0.005564
665,-3.133836,-1.131983,0.139878,-0.003295,0.905256,0.424829,2.173101,0.11531,0.11489100000000001,-0.06749,-0.028380000000000002,0.329505
666,-3.135215,-1.167266,0.137575,-0.0025039999999999997,0.919681,0.392633,1.3830280000000001,-0.087233,0.035925,-0.076033,0.164792,0.447622
667,3.1317470000000003,-1.173255,0.138009,0.003811,0.922016,0.38710700000000003,-0.358715,-1.473195,-0.042832,-0.11102000000000001,0.7175560000000001,0.9079219999999999
668,3.1161689999999997,-1.162416,0.154443,0.010095,0.9177649999999999,0.39697,-0.43330799999999997,-1.201566,-0.5062409999999999,0.15972,0.536291,0.8291959999999999
669,-3.1397880000000002,-1.156302,0.198076,-0.000727,0.91532,0.4027,-0.295001,-0.42214799999999997,-1.0670899999999999,0.188502,0.588449,0.544337
670,-3.09206,-1.149529,0.256912,-0.020245,0.9125709999999999,0.40839000000000003,-0.32322399999999996,-0.166998,-1.179777,-0.177875,-0.197697,0.328884
671,-3.065915,-1.14458,0.292037,-0.031255,0.910537,0.41222,-0.062834,-0.539708,-0.375246,-0.14843199999999998,-0.256407,0.48124300000000003
672,-3.0899650000000003,-1.1515739999999999,0.292158,-0.021004,0.9134059999999999,0.406482,0.654485,-1.618024,0.132142,0.14536300000000002,0.070267,0.198864
673,-3.1160200000000002,-1.1766290000000001,0.289215,-0.009819,0.923317,0.383888,1.522152,-0.42769799999999997,0.075789,0.343437,0.895043,-0.543968
674,-3.09282,-1.2001389999999998,0.290304,-0.017659,0.93209,0.361769,0.52044,1.641721,-0.01825,0.36056900000000003,1.380471,-1.023619
675,-3.0489080000000004,-1.18155,0.312676,-0.03512,0.9251950000000001,0.377835,-1.1219139999999999,1.010345,-0.807646,0.17086199999999999,1.219916,-0.433759
676,-2.991945,-1.180783,0.349844,-0.056679999999999994,0.9249040000000001,0.375925,0.651682,1.017516,-0.40963900000000003,1.0073940000000001,-1.712425,-0.268015
677,-3.015124,-1.1980520000000001,0.326384,-0.04593,0.9313309999999999,0.361238,0.713484,-0.7044199999999999,0.9795520000000001,1.065202,-1.4054520000000001,-0.136872
678,-3.011843,-1.230775,0.314709,-0.043147000000000005,0.9427469999999999,0.330675,2.691423,2.376327,-0.193102,-0.6010939999999999,0.29796,0.15376099999999998
679,-2.8923,-1.31019,0.351997,-0.06356200000000001,0.966234,0.249666,4.01791,4.481928,0.8987790000000001,-0.671728,0.926466,-1.771654
680,-2.878727,-1.358283,0.297214,-0.054796000000000004,0.977504,0.203632,0.8193879999999999,2.358334,1.132327,-0.263823,0.66628,-0.664371
681,-2.98584,-1.359025,0.196934,-0.032599,0.9776600000000001,0.20760599999999998,-0.076057,-2.195908,1.156477,0.047827999999999996,-0.053908000000000005,0.33109
682,-3.128927,-1.383283,0.087016,-0.00236,0.9824709999999999,0.186354,1.828986,-0.6683899999999999,1.125098,0.324061,-0.472049,0.11604400000000001
683,3.0246299999999997,-1.430101,-0.053155999999999995,0.016358,0.9901190000000001,0.139216,2.565023,0.573915,0.971619,0.28218000000000004,-0.226859,-0.237788
684,2.808322,-1.4756,-0.278445,0.031068000000000002,0.9954719999999999,0.089744,2.289238,0.37058,0.645213,0.28424,-0.049855000000000003,-0.209495
685,2.4915580000000004,-1.503169,-0.607175,0.040826999999999995,0.997714,0.053702,1.632571,0.601346,0.515349,0.00266,0.002255,-0.087424
686,1.979293,-1.516055,-1.1363370000000002,0.050082,0.998502,0.021678,1.747614,0.988894,0.468654,-0.033832,-0.007993,0.16301400000000002
687,1.32434,-1.509951,-1.8158880000000002,0.05885599999999999,0.998149,-0.014806,1.918693,1.300462,0.45983599999999997,-0.076693,-0.041072000000000004,0.208273
688,0.9732049999999999,-1.485291,-2.199331,0.070534,0.996347,-0.048006,1.612477,1.6398599999999999,0.5651520000000001,-0.12334500000000001,-0.259439,0.035555
689,0.865431,-1.4592559999999999,-2.340792,0.084703,0.9937860000000001,-0.072125,1.235462,1.631261,0.644783,-0.081315,-0.23388299999999998,-0.11258299999999999
690,0.809872,-1.430451,-2.423059,0.101272,0.990168,-0.096432,1.4454120000000001,1.019518,0.797653,-0.062743,-0.182551,-0.12922999999999998
691,0.760437,-1.3958899999999999,-2.4831540000000003,0.11991500000000001,0.984743,-0.126056,1.5950280000000001,0.239821,0.9129280000000001,-0.05625499999999999,-0.029405,0.099597
692,0.715942,-1.3618780000000001,-2.5318,0.136105,0.9782559999999999,-0.15645799999999999,1.5051350000000001,0.20794899999999997,0.70297,-0.347454,0.002259,0.31225
693,0.686581,-1.335903,-2.56895,0.147517,0.9725389999999999,-0.17998599999999998,1.097689,0.418258,0.411434,-0.407984,0.07747899999999999,0.435921
694,0.672004,-1.318813,-2.597544,0.15520499999999998,0.9684200000000001,-0.195098,0.744401,0.885868,0.19685999999999998,-0.30948600000000004,0.203257,0.529891
695,0.689095,-1.309539,-2.599797,0.16422,0.966066,-0.19934100000000002,0.15950599999999998,0.9449790000000001,0.306998,-0.252294,0.26397600000000004,0.233079
696,0.727667,-1.305013,-2.575806,0.17469200000000001,0.964887,-0.196124,-0.10500799999999999,0.578014,0.397488,-0.436075,0.409609,0.23645300000000002
697,0.755131,-1.306255,-2.551759,0.17919000000000002,0.9652129999999999,-0.190379,-0.409514,0.12668800000000002,0.041289,-0.5080479999999999,0.395185,0.314235
698,0.78518,-1.320238,-2.522886,0.17527,0.968774,-0.175346,-0.950507,-0.072143,-0.382046,-0.43709499999999996,0.5501159999999999,0.21874200000000002
699,0.830478,-1.349851,-2.469224,0.161771,0.975691,-0.147806,-1.8422939999999999,-0.47317,-0.8193229999999999,-0.512891,0.518694,0.065881
700,0.9191239999999999,-1.398377,-2.3625439999999998,0.136379,0.985173,-0.10403599999999999,-2.669421,-0.891883,-1.418495,-0.43639700000000003,0.564983,-0.11106700000000001
701,1.188549,-1.45523,-2.080419,0.106931,0.9933299999999999,-0.042988,-3.26838,-0.228452,-1.3733229999999998,0.741687,0.572268,0.132649
702,1.804848,-1.4818639999999998,-1.459938,0.086312,0.9960479999999999,0.020579,-3.11951,-0.006490000000000001,-0.8,0.879584,0.5008090000000001,-0.25452600000000003
703,2.378422,-1.460804,-0.898856,0.075824,0.993957,0.07927200000000001,-2.802634,1.4041780000000001,-0.337054,0.8944059999999999,0.461899,-0.406619
704,2.71738,-1.4183219999999999,-0.599849,0.06249299999999999,0.988398,0.13837,-2.858532,2.266049,-0.570354,0.6017680000000001,0.43523100000000003,0.157529
705,2.921659,-1.368532,-0.42102399999999995,0.043817,0.979614,0.19600599999999999,-2.8099529999999997,0.5207390000000001,-0.7814220000000001,0.261862,0.544205,-0.172309
706,3.035473,-1.317224,-0.303744,0.026568,0.9680219999999999,0.249416,-2.689906,0.159125,-1.030084,-0.123721,0.254664,-0.11558099999999999
707,3.134782,-1.26937,-0.21438400000000002,0.002022,0.9549139999999999,0.29684299999999997,-2.277287,0.767203,-1.072846,-0.11513499999999999,-0.062671,-0.294401
708,-3.075599,-1.229775,-0.140767,-0.022054,0.942414,0.33369099999999996,-1.782629,-0.271125,-1.313752,0.004598,-0.091553,-0.491254
709,-3.0333040000000002,-1.1911180000000001,-0.07122300000000001,-0.040053,0.928784,0.368423,-1.8725009999999997,-1.6116030000000001,-1.4120059999999999,0.060912,-0.195676,-0.555145
710,-3.026447,-1.1505729999999998,-0.014628,-0.046869,0.912998,0.405238,-1.870569,-2.6499669999999997,-1.217314,0.065256,-0.439075,-0.640162
711,-3.048104,-1.113748,0.022654,-0.041194,0.897359,0.43935,-1.677266,-2.71921,-0.8526799999999999,0.141612,-0.627599,-0.603748
712,-3.074199,-1.081718,0.047548,-0.031637,0.8827659999999999,0.46872299999999995,-1.430593,-2.2032689999999997,-0.6208819999999999,0.26450100000000004,-0.662155,-0.482105
713,-3.096307,-1.059388,0.067607,-0.022155,0.8720559999999999,0.488882,-0.844253,-1.9055509999999998,-0.45693500000000004,0.289428,-0.6079720000000001,-0.473394
714,-3.121943,-1.0521,0.079158,-0.00974,0.868466,0.49563100000000004,-0.057076,-1.700495,-0.20494,0.314413,-0.596616,-0.411037
715,3.134532,-1.060025,0.083311,0.003452,0.872368,0.488817,0.660737,-1.378614,-0.064639,0.205945,-0.620934,-0.312929
716,3.110702,-1.082601,0.083719,0.014486,0.883181,0.468787,1.422714,-1.05969,-0.027679000000000002,0.070323,-0.49696599999999996,-0.215507
717,3.094415,-1.1193549999999999,0.08442100000000001,0.020572999999999998,0.899819,0.435755,2.017969,-0.736308,-0.161736,-0.053364,-0.27524699999999996,-0.053003999999999996
718,3.096101,-1.1605809999999999,0.098717,0.018135,0.917035,0.39837,1.9591310000000002,-0.431004,-0.5353479999999999,-0.10831400000000001,0.059009000000000006,0.354636
719,3.122935,-1.1856959999999999,0.13225,0.0070079999999999995,0.9267610000000001,0.375562,0.589432,-0.081473,-0.709869,-0.20277799999999999,0.650708,0.8072229999999999
720,-3.1378060000000003,-1.172245,0.161636,-0.001469,0.921624,0.38805700000000004,-1.127612,-0.226438,-0.5315340000000001,-0.12499500000000001,0.588569,1.209096
721,-3.101029,-1.154147,0.191206,-0.016411000000000002,0.91445,0.40434200000000003,-0.735681,0.69624,-0.642142,-0.12134600000000001,0.523874,0.741273
722,-3.067816,-1.13949,0.23224,-0.030813,0.9084200000000001,0.416897,-0.65817,-0.973836,-1.044316,0.192099,0.340908,0.19430899999999998
723,-3.057627,-1.124269,0.283864,-0.036215,0.9019520000000001,0.430292,-0.657352,-2.084495,-1.150778,0.36023499999999997,-0.23651599999999998,0.118796
724,-3.066872,-1.114788,0.316011,-0.032872000000000005,0.897817,0.439117,-0.196776,-1.712798,-0.464375,0.561437,-0.19454000000000002,0.287369
725,-3.079159,-1.1197270000000001,0.322321,-0.027197000000000002,0.8999809999999999,0.43505699999999997,0.609761,-0.311294,0.000935,0.24062199999999997,0.311948,-0.49033999999999994
726,-3.056748,-1.145049,0.32624699999999995,-0.034997,0.9107299999999999,0.41149399999999997,1.481052,1.74485,0.004386,0.198236,0.8322360000000001,-0.741099
727,-2.989178,-1.157683,0.345487,-0.060949,0.915875,0.396785,-0.20941300000000002,2.283402,-0.541155,0.28922,1.3124879999999999,-0.7138479999999999
728,-2.9590419999999997,-1.143994,0.361356,-0.075145,0.910294,0.40706,-0.259006,0.36049499999999995,-0.21109299999999998,1.093364,-1.353318,-0.330766
729,-2.9656599999999997,-1.157516,0.33965500000000004,-0.070289,0.915808,0.39539,1.003179,0.595324,0.973535,1.07128,-1.300818,-0.5925189999999999
730,-2.984641,-1.191956,0.304658,-0.057804999999999995,0.9290940000000001,0.365271,2.266029,1.46329,0.736621,0.735158,-1.078722,-0.299765
731,-2.90089,-1.2646899999999999,0.311496,-0.07182899999999999,0.953514,0.292629,3.9922519999999997,4.865832,0.8255030000000001,-0.521524,0.832268,-1.033001
732,-2.846368,-1.331525,0.283699,-0.068944,0.971511,0.22670500000000002,2.251463,3.159671,1.165907,-0.43450500000000003,0.868241,-1.378362
733,-2.866837,-1.356961,0.24241100000000002,-0.057562999999999996,0.977224,0.204208,0.850259,-0.22227800000000003,0.707527,-0.32914,0.40694600000000003,-0.06072999999999999
734,-2.912982,-1.388882,0.20521799999999998,-0.040988,0.983499,0.17615899999999998,1.842427,-0.135573,0.80835,0.070423,-0.23096599999999998,0.067463
735,-2.960261,-1.435019,0.14305,-0.0244,0.9907959999999999,0.13308,2.234954,0.9861530000000001,1.003002,0.19934200000000002,-0.327573,0.037712
736,-3.064808,-1.479216,0.023257,-0.0070090000000000005,0.995809,0.091099,1.957482,0.621106,0.8915049999999999,0.324788,-0.236898,-0.10593
737,3.026795,-1.513623,-0.18733699999999998,0.006529999999999999,0.998366,0.056635000000000005,1.6372659999999999,1.104515,0.693164,0.091462,-0.129546,-0.158365
738,2.526137,-1.538003,-0.710404,0.018799,0.9994620000000001,0.026588,1.478361,1.046767,0.6205579999999999,0.008087,-0.050411000000000004,-0.12358800000000002
739,1.475175,-1.541701,-1.782311,0.028717000000000003,0.999577,-0.002754,1.498409,1.053816,0.439091,-0.109253,0.00581,0.047478
740,0.885863,-1.521641,-2.397668,0.037943,0.998792,-0.030994,1.418981,1.4438959999999998,0.46046899999999996,-0.085627,-0.158735,0.14163599999999998
741,0.7136680000000001,-1.495462,-2.601241,0.049210000000000004,0.9971639999999999,-0.056829,1.328437,1.530278,0.515273,-0.07725499999999999,-0.159853,0.10851
742,0.652251,-1.469517,-2.689712,0.061328999999999995,0.994876,-0.080299,1.236401,1.220641,0.505413,-0.119969,-0.051623,-0.0016710000000000002
743,0.609945,-1.4424700000000001,-2.753935,0.073278,0.991777,-0.10485699999999999,1.3386209999999998,0.9496600000000001,0.517157,-0.09792100000000001,-0.069841,-0.047685000000000005
744,0.5810649999999999,-1.412907,-2.796036,0.086286,0.987561,-0.131395,1.4405139999999999,0.46841700000000003,0.62958,-0.028562,-0.076429,0.030213999999999998
745,0.559674,-1.379658,-2.825765,0.10084299999999999,0.9817889999999999,-0.16096400000000002,1.571201,0.41549200000000003,0.697859,-0.12176300000000001,0.09185,0.150573
746,0.551963,-1.348116,-2.842645,0.11578800000000002,0.975309,-0.188026,1.288823,0.448613,0.652047,-0.255116,0.030611000000000003,0.36576
747,0.5550189999999999,-1.326265,-2.847661,0.127565,0.970251,-0.20574,0.803091,0.40960699999999994,0.43826400000000004,-0.298266,0.17943800000000001,0.543982
748,0.5631649999999999,-1.311313,-2.85292,0.136969,0.9665229999999999,-0.21694000000000002,0.551435,0.799768,0.322775,-0.27061999999999997,0.270858,0.364386
749,0.589906,-1.303377,-2.842722,0.146983,0.964456,-0.219567,0.12166700000000001,0.807794,0.286648,-0.31856799999999996,0.332419,0.172204
750,0.613107,-1.299648,-2.826379,0.154105,0.963464,-0.21903899999999998,-0.039488,0.08078300000000001,0.283249,-0.45948,0.33834000000000003,0.312819
751,0.629659,-1.302671,-2.8079560000000003,0.155993,0.964269,-0.214102,-0.398306,-0.065866,-0.027786,-0.33388,0.470896,0.465246
752,0.654684,-1.317492,-2.779802,0.152581,0.96809,-0.198771,-1.142569,-0.149904,-0.21126999999999999,-0.250619,0.477559,0.273417
753,0.697697,-1.350791,-2.7264180000000002,0.140188,0.9758959999999999,-0.167218,-1.993139,-0.525008,-0.773274,-0.295431,0.568797,0.001644
754,0.7937,-1.400993,-2.619663,0.12045399999999999,0.985618,-0.118471,-2.868086,-0.305831,-1.0125389999999999,-0.114641,0.447533,0.331377
755,1.066122,-1.454259,-2.344268,0.101725,0.993217,-0.056192,-3.23431,0.018687,-0.863825,0.42244499999999996,0.300026,-0.08000800000000001
756,1.6407939999999999,-1.48232,-1.76342,0.088061,0.9960889999999999,0.006174,-3.029377,-0.15254700000000002,-0.5780270000000001,0.560742,0.269887,-0.443812
757,2.251385,-1.469244,-1.161238,0.078731,0.994848,0.06374400000000001,-2.794284,1.058203,-0.398475,0.437413,0.297892,-0.054451
758,2.654584,-1.4332200000000002,-0.783176,0.064153,0.9905510000000001,0.121147,-2.779553,1.365333,-0.759825,0.268519,0.41923900000000003,0.20813800000000002
759,2.887676,-1.387694,-0.5601649999999999,0.045727,0.983284,0.176199,-2.706228,0.018951,-0.8547959999999999,0.24448000000000003,0.354165,-0.248587
760,3.006766,-1.341064,-0.434721,0.030604000000000003,0.973727,0.225611,-2.414721,0.151845,-0.774949,0.266027,0.259183,-0.189967
761,3.095434,-1.297482,-0.35893800000000003,0.012453,0.962881,0.269604,-2.175001,0.78381,-0.7804939999999999,0.085767,0.032083,-0.267742
762,-3.11096,-1.256502,-0.285221,-0.009468,0.9510149999999999,0.308971,-1.983409,0.003016,-1.22574,0.051094,0.044057,-0.338756
763,-3.052876,-1.216446,-0.211431,-0.030739999999999996,0.9378719999999999,0.345588,-1.91895,-0.970375,-1.349025,-0.027045,-0.099707,-0.464271
764,-3.024429,-1.176048,-0.149954,-0.044952,0.923093,0.381913,-1.84998,-1.6899849999999998,-1.271777,0.013900999999999998,-0.260496,-0.518388
765,-3.0235689999999997,-1.1394870000000001,-0.10606700000000001,-0.049224000000000004,0.9084190000000001,0.415128,-1.587202,-2.0382919999999998,-0.9768020000000001,0.050429,-0.35728699999999997,-0.502347
766,-3.0355950000000003,-1.110688,-0.074068,-0.046977,0.8960040000000001,0.441529,-1.2073639999999999,-2.0840509999999997,-0.7817729999999999,0.29436799999999996,-0.562249,-0.472916
767,-3.053851,-1.091621,-0.047768,-0.040399000000000004,0.887375,0.459251,-0.6786939999999999,-2.0364720000000003,-0.617908,0.294763,-0.580399,-0.421821
768,-3.0737799999999997,-1.084393,-0.028741000000000003,-0.031673,0.88402,0.46635299999999996,-0.123374,-1.670813,-0.367739,0.270946,-0.594057,-0.428679
769,-3.0923599999999998,-1.088768,-0.019631,-0.022813,0.886056,0.46299300000000004,0.460528,-1.120948,-0.12080999999999999,0.241517,-0.681726,-0.282131
770,-3.107481,-1.106479,-0.018239,-0.015271999999999999,0.894128,0.447529,1.145489,-0.682042,0.08103300000000001,0.10970799999999999,-0.6118859999999999,-0.186909
771,-3.1215450000000002,-1.1370200000000001,-0.023389,-0.008425,0.907385,0.420191,1.724543,-0.406416,0.18193299999999998,-0.020322999999999997,-0.439551,-0.048792
772,-3.138366,-1.172079,-0.031655,-0.001253,0.92156,0.388209,1.655598,-0.562738,0.17310599999999998,-0.061078999999999994,-0.158956,0.313848
773,3.133528,-1.191545,-0.031989,0.002986,0.928942,0.370187,0.39735,-0.466624,-0.127431,-0.177775,0.537794,0.625495
774,3.138227,-1.171892,-0.013361000000000001,0.001307,0.9214870000000001,0.388382,-1.646037,-0.8247760000000001,-0.431802,-0.152827,0.758704,0.9360649999999999
775,-3.1284509999999996,-1.142506,0.013194999999999998,-0.005457,0.9096770000000001,0.415256,-1.2271969999999999,-0.139535,-0.595328,0.101756,0.43321800000000005,0.826885
776,-3.104188,-1.1231950000000002,0.048493,-0.016184,0.901488,0.432479,-0.773323,-0.61275,-0.9301780000000001,0.16627,0.249879,0.31042600000000004
777,-3.079288,-1.110357,0.093678,-0.027665,0.895858,0.443457,-0.5342279999999999,-0.8329989999999999,-0.9367719999999999,0.09575,-0.028776999999999997,0.19491
778,-3.0822599999999998,-1.10198,0.114521,-0.026791000000000002,0.8921040000000001,0.451013,-0.23224,-1.2865,-0.21089499999999997,0.095456,-0.45153699999999997,0.12471600000000001
779,-3.119637,-1.106557,0.10850599999999999,-0.009829000000000001,0.8941629999999999,0.44761300000000004,0.508614,-1.628832,0.306397,0.26671100000000003,0.046069,0.214207
780,-3.137872,-1.126205,0.101798,-0.0016,0.9027860000000001,0.43006300000000003,1.181713,0.187375,0.011806,0.37058800000000003,0.360062,0.329702
781,-3.096002,-1.14456,0.120377,-0.018841999999999998,0.9105280000000001,0.41299399999999997,0.427159,1.5468629999999999,-0.71412,0.19079300000000002,2.314707,-0.391036
782,-3.02759,-1.13076,0.17972,-0.048454000000000004,0.9047360000000001,0.423184,-0.333027,0.24206399999999997,-1.427058,0.113578,-0.060405999999999994,-0.387677
783,-2.977125,-1.1461860000000001,0.216579,-0.067446,0.911199,0.406383,1.2812370000000002,1.254233,0.062408000000000005,1.1295030000000001,-2.02062,-0.633861
784,-2.997998,-1.178374,0.17698599999999998,-0.054722,0.9239860000000001,0.37846599999999997,1.363319,0.332855,1.300095,1.27393,-1.886159,-0.758776
785,-2.973019,-1.224267,0.14978699999999998,-0.056977999999999994,0.940557,0.334794,3.274493,4.6956,0.5996229999999999,-0.35327,0.29889899999999997,0.132079
786,-2.907975,-1.30198,0.114407,-0.061475999999999996,0.9640860000000001,0.258344,3.3123519999999997,4.03792,1.731977,-0.5658890000000001,1.055277,-1.119504
787,-2.94778,-1.3403260000000001,0.037864999999999996,-0.043989999999999994,0.9735590000000001,0.22412100000000001,0.827015,0.341279,0.990827,-0.32647800000000005,0.938199,-0.48561099999999996
788,-3.029292,-1.362542,-0.024402,-0.023165,0.9783930000000001,0.20540999999999998,1.380183,-1.182064,0.7776569999999999,-0.242963,-0.024916999999999998,0.32500100000000004
789,-3.098323,-1.401122,-0.096718,-0.0073019999999999995,0.98564,0.168654,2.046759,0.794377,0.9101040000000001,-0.003043,-0.31149099999999996,0.267152
790,3.063653,-1.4435879999999999,-0.234698,0.009873,0.99192,0.126417,2.149648,0.478476,0.965707,0.36083899999999997,-0.322868,-0.155775
791,2.844474,-1.4798719999999999,-0.459499,0.026558,0.995869,0.086739,1.8577720000000002,0.18292,0.8048810000000001,0.341698,-0.215718,-0.088112
792,2.476384,-1.5029059999999999,-0.8373280000000001,0.041805,0.9976959999999999,0.053288999999999996,1.678869,0.686538,0.758121,0.058583,-0.037125,0.022593000000000002
793,1.904238,-1.5158280000000002,-1.4304059999999998,0.051789999999999996,0.99849,0.017939,1.861525,1.094257,0.404225,-0.173021,0.173477,0.011236
794,1.291527,-1.510362,-2.068,0.057944,0.998174,-0.016616,1.7362509999999998,1.350837,0.284448,-0.239524,0.009669,0.073547
795,0.950732,-1.489914,-2.445237,0.065684,0.9967309999999999,-0.046899,1.57835,1.908193,0.367021,-0.089808,-0.273083,0.076424
796,0.808362,-1.463118,-2.6202799999999997,0.077674,0.994208,-0.074186,1.43143,1.271754,0.611433,0.047983,-0.313102,-0.15404
