,attitude.roll,attitude.pitch,attitude.yaw,gravity.x,gravity.y,gravity.z,rotationRate.x,rotationRate.y,rotationRate.z,userAcceleration.x,userAcceleration.y,userAcceleration.z
0,0.850877,-0.978281,-0.386319,0.41987399999999997,0.8295389999999999,-0.368198,2.92216,-0.458297,1.851959,0.024401,0.683721,0.374683
1,0.8260360000000001,-0.919537,-0.40926,0.4457,0.7953210000000001,-0.410871,2.118642,0.073473,1.7003869999999999,-0.299032,0.273329,0.758466
2,0.832147,-0.8806709999999999,-0.410803,0.47071199999999996,0.771166,-0.428638,0.87484,0.273921,1.137035,-0.13185999999999998,0.083341,0.40967200000000004
3,0.833844,-0.865549,-0.402451,0.48002100000000003,0.761451,-0.43562700000000004,-0.0038299999999999996,-0.437637,0.556038,-0.165354,0.056878,0.38277
4,0.8482360000000001,-0.867268,-0.384892,0.485257,0.7625649999999999,-0.427807,-0.756851,0.409172,0.165133,-0.29401900000000003,0.01896,0.291103
5,0.874649,-0.879548,-0.364492,0.48916499999999996,0.770451,-0.408806,-0.9266549999999999,0.534592,-0.149203,-0.43112,0.011669,0.194146
6,0.89494,-0.897842,-0.347965,0.486279,0.781984,-0.389913,-1.049874,0.256457,-0.55029,-0.509091,-0.053940999999999996,0.117361
7,0.904603,-0.926417,-0.334394,0.47225900000000004,0.799473,-0.371232,-1.31218,-0.199783,-1.043993,-0.555359,-0.159397,0.113374
8,0.906958,-0.965727,-0.321554,0.44801899999999995,0.8224629999999999,-0.35047399999999995,-1.644524,-0.502667,-1.467874,-0.567038,-0.127746,0.153453
9,0.909365,-1.013984,-0.305675,0.41703199999999996,0.848944,-0.32461799999999996,-1.929503,-0.5252359999999999,-1.7037759999999997,-0.447245,-0.090811,0.15462
10,0.925005,-1.068609,-0.280161,0.384412,0.876532,-0.289687,-2.302891,-0.160212,-1.821152,-0.25356799999999996,-0.090567,0.115309
11,0.948017,-1.128134,-0.24864899999999998,0.347928,0.9036139999999999,-0.249852,-2.34458,-0.424329,-2.0689319999999998,-0.06323,-0.167714,-0.096263
12,0.960326,-1.188243,-0.21354099999999998,0.305865,0.927715,-0.21398899999999998,-2.277947,-1.397583,-1.962534,0.127088,-0.068324,-0.091416
13,0.981468,-1.236936,-0.164088,0.272415,0.9447840000000001,-0.182132,-1.8380869999999998,-1.0230290000000002,-1.17373,0.8338780000000001,0.030588,-0.329328
14,1.004535,-1.267567,-0.119253,0.251994,0.954377,-0.160194,-1.261205,-0.9997299999999999,-0.8407180000000001,0.9621790000000001,-0.094636,-0.367852
15,1.022307,-1.289051,-0.071838,0.23724800000000001,0.960572,-0.144966,-1.072529,-1.687517,-0.301203,0.609263,-0.288407,-0.254448
16,1.038492,-1.298707,-0.014431999999999999,0.23156100000000002,0.963211,-0.13639300000000001,-0.8290370000000001,-1.9414,0.10674700000000001,0.299796,-0.526886,0.057887
17,1.062584,-1.301209,0.032357,0.232673,0.963881,-0.129602,-0.488511,-0.10658,0.24030300000000002,0.071892,-0.773802,0.082819
18,1.0935190000000001,-1.294945,0.036844999999999996,0.24193,0.9621940000000001,-0.125115,0.6131489999999999,1.401542,0.427663,-0.152254,-0.661428,-0.949058
19,1.027289,-1.267907,0.018747,0.255297,0.9544790000000001,-0.154253,0.95637,-4.154418,1.597269,-0.601458,-0.010341,-0.27110100000000004
20,0.9996659999999999,-1.224532,0.030432,0.285522,0.9406469999999999,-0.18346700000000002,1.0947209999999998,0.026369999999999998,1.582196,-0.05873099999999999,2.106335,-0.43308
21,1.022729,-1.2283030000000001,0.019577,0.286648,0.9419200000000001,-0.174984,-1.005296,1.9959040000000001,-1.614025,1.162067,2.734136,-0.788349
22,1.0100870000000002,-1.254385,-0.097179,0.263513,0.950358,-0.16547,2.362475,4.416082,-0.507221,-0.250909,-1.119181,-0.045239
23,0.980334,-1.202972,-0.13476300000000002,0.298702,0.933112,-0.20019800000000001,1.687342,-0.583497,2.531425,-0.25080399999999997,-0.22454000000000002,0.614748
24,0.960901,-1.145893,-0.15418199999999999,0.33791,0.9110790000000001,-0.236119,2.014222,0.08139199999999999,1.6772099999999999,-0.238744,0.07886599999999999,0.608113
25,0.9306540000000001,-1.117842,-0.18345999999999998,0.350979,0.899158,-0.261397,0.677476,-0.347233,0.27011999999999997,-0.185131,0.38158800000000004,0.31048400000000004
26,0.9224620000000001,-1.127476,-0.17865999999999999,0.341905,0.903332,-0.25902,-0.9292040000000001,-0.695138,-0.577075,-0.084977,0.191745,0.204073
27,0.957257,-1.160077,-0.133275,0.326448,0.916834,-0.22988499999999998,-2.150811,-0.010184,-0.844995,-0.042009,0.190451,0.08564400000000001
28,1.056246,-1.2075069999999999,-0.044154,0.309338,0.934733,-0.17488299999999998,-3.020356,1.617285,-1.354151,0.450275,0.042043000000000004,-0.437406
29,1.166511,-1.236182,0.015472999999999999,0.301929,0.9445370000000001,-0.129182,-0.126136,2.2311,-0.18958699999999998,0.21271900000000002,-0.091388,-0.671722
30,1.144105,-1.227198,-0.018086,0.306672,0.9415479999999999,-0.13942000000000002,0.684208,0.101625,0.170247,-0.009446,0.006083,-0.309402
31,1.131025,-1.2230860000000001,-0.051832,0.308323,0.940155,-0.145066,0.70399,1.3873540000000002,-0.09831799999999999,0.525891,-0.016114,-0.553146
32,1.098691,-1.204755,-0.111401,0.318769,0.933752,-0.162769,1.679444,0.873501,0.750913,0.632434,0.020030000000000003,-0.650738
33,1.049241,-1.165208,-0.175468,0.3421,0.9188700000000001,-0.196581,2.273417,0.19587000000000002,1.329566,0.167971,0.070311,-0.32090599999999997
34,0.981325,-1.111117,-0.24872600000000003,0.368786,0.8961950000000001,-0.24664,2.860009,-0.109571,1.5466309999999999,-0.12626300000000001,-0.172165,0.065106
35,0.9255059999999999,-1.0498239999999999,-0.309477,0.39764299999999997,0.8673360000000001,-0.29934499999999997,3.008028,-0.196167,1.76142,-0.21990900000000002,-0.159328,0.132903
36,0.8726370000000001,-0.9823770000000001,-0.361699,0.42518,0.8318190000000001,-0.35678899999999997,3.174519,-0.437434,1.7458,-0.302118,-0.093416,0.431908
37,0.837219,-0.9169719999999999,-0.398521,0.45178100000000004,0.793763,-0.40722600000000003,2.78934,-0.182653,1.768421,-0.394865,0.17192000000000002,0.75505
38,0.8293360000000001,-0.8678899999999999,-0.41244200000000003,0.47673699999999997,0.7629670000000001,-0.43658100000000005,1.321102,0.25366,1.289725,-0.372168,0.499134,0.793866
39,0.8342229999999999,-0.8532190000000001,-0.407744,0.487104,0.753401,-0.441719,-0.129386,-0.160188,0.28133600000000003,-0.034376,0.558992,0.6323770000000001
40,0.857875,-0.865447,-0.384774,0.49040900000000004,0.7613850000000001,-0.42401700000000003,-1.348319,0.814783,-0.054236,0.010705,0.32411,0.24079
41,0.9016149999999999,-0.8850399999999999,-0.354912,0.496683,0.773941,-0.392838,-1.283601,1.030462,-0.233521,-0.061472000000000006,0.034684,0.19409200000000001
42,0.932803,-0.908492,-0.333066,0.49397299999999994,0.7885770000000001,-0.366246,-1.304489,0.411418,-0.717847,-0.356491,-0.201343,0.0019420000000000001
43,0.9437700000000001,-0.94368,-0.312834,0.47518599999999994,0.809723,-0.344305,-1.6802400000000002,-0.649307,-1.262837,-0.5432560000000001,-0.121262,0.041525
44,0.9410639999999999,-0.99136,-0.286846,0.44252299999999994,0.8367709999999999,-0.322469,-2.1883060000000003,-1.494208,-1.586838,-0.520984,-0.10169500000000001,0.017171000000000002
45,0.936219,-1.046721,-0.24905100000000002,0.402993,0.8657870000000001,-0.296663,-2.543158,-1.9825650000000001,-1.6965810000000001,-0.427834,-0.037967,0.017458
46,0.947891,-1.106335,-0.200997,0.363811,0.8940629999999999,-0.261327,-2.638441,-1.224346,-1.815723,-0.112606,0.29388000000000003,0.000906
47,0.958232,-1.165748,-0.169149,0.322413,0.919083,-0.226573,-2.014898,-0.754264,-2.163415,-0.19980799999999999,0.343017,-0.18654300000000001
48,0.959307,-1.2221090000000001,-0.155125,0.279752,0.9398219999999999,-0.196145,-1.956129,-0.725741,-2.1544950000000003,-0.058591,0.186399,-0.361869
49,1.003157,-1.2799770000000001,-0.10256400000000002,0.24176799999999998,0.958009,-0.154162,-2.2411,0.577735,-1.536451,0.811058,-0.204545,-0.298429
50,1.0655299999999999,-1.312553,-0.054689,0.22346999999999997,0.9668399999999999,-0.123615,-0.901509,0.57823,-0.9577319999999999,0.653346,-0.245115,-0.23681300000000002
51,1.072427,-1.326203,-0.041621,0.212705,0.9702360000000001,-0.11575099999999999,-0.33885,-0.7507550000000001,-0.234254,0.514941,-0.177008,-0.148119
52,1.0795700000000001,-1.33041,-0.010279,0.20992399999999997,0.9712459999999999,-0.112302,-0.559316,-1.320034,0.061902,0.33168600000000004,-0.060022000000000006,-0.135745
53,1.111106,-1.337567,0.054235000000000005,0.20712600000000003,0.972925,-0.10254100000000001,-0.9673440000000001,-1.717871,0.005082,0.128186,-0.170191,-0.170195
54,1.151729,-1.345605,0.130643,0.203968,0.974751,-0.09085900000000001,-0.8780319999999999,-1.54562,0.00869,-0.017825999999999998,-0.45218400000000003,-0.0868
55,1.179953,-1.351197,0.17673699999999998,0.201409,0.975985,-0.082989,-0.380986,-0.269602,-0.11018199999999999,-0.166192,-0.683092,0.075634
56,1.170579,-1.352296,0.164409,0.19963499999999998,0.976224,-0.084455,0.394395,0.022335,0.0038179999999999998,-0.227329,-0.842618,-0.013491
57,1.100877,-1.336865,0.108801,0.206675,0.9727629999999999,-0.10496300000000001,1.129952,-1.487466,0.771469,-0.359446,-0.9229430000000001,-0.7308680000000001
58,1.025425,-1.312434,0.076636,0.21843200000000002,0.9668100000000001,-0.132535,1.027955,-1.469757,0.693822,-0.049517,0.284884,0.662488
59,0.965432,-1.289736,0.001111,0.228082,0.9607620000000001,-0.157842,1.315971,0.9692649999999999,0.293194,-0.11814300000000001,1.279763,0.47636999999999996
60,0.991612,-1.290749,0.008601000000000001,0.231321,0.961042,-0.151285,-0.891697,1.175829,-0.164736,0.14790599999999998,0.678988,0.039529
61,1.0930030000000002,-1.322774,0.092125,0.217993,0.9694,-0.112879,-2.278347,0.730723,-1.403374,0.767023,1.246421,-0.962866
62,1.1588459999999998,-1.362315,0.11843499999999998,0.189657,0.9783459999999999,-0.082871,0.404798,2.271977,-1.015935,0.30221,-0.5544720000000001,0.023575
63,1.074453,-1.3329719999999998,0.0359,0.20715799999999998,0.9718530000000001,-0.11218900000000001,1.588079,-0.793605,1.6134030000000001,-0.01917,-0.188848,0.306464
64,1.01176,-1.294303,-0.006663,0.231425,0.962018,-0.144781,1.278881,-1.31755,1.040416,-0.129237,0.139971,0.288718
65,0.9495889999999999,-1.279642,-0.040698000000000005,0.233427,0.9579129999999999,-0.167071,0.516891,-1.513953,-0.063856,-0.149839,-0.13802799999999998,0.527316
66,0.91038,-1.289091,-0.058835000000000005,0.21954,0.960583,-0.170533,-0.520125,-0.8425739999999999,-0.826124,-0.22150799999999998,-0.306133,0.620835
67,0.912176,-1.322523,-0.037582,0.19433,0.9693379999999999,-0.150392,-1.5399399999999999,-1.167827,-1.187481,-0.207132,-0.110818,0.25206100000000004
68,0.9626030000000001,-1.362144,0.044561,0.169993,0.978311,-0.118355,-2.044572,-1.673963,-0.98419,0.062444000000000006,0.22824699999999998,0.188881
69,1.147918,-1.4109209999999999,0.23881799999999997,0.14516500000000002,0.987247,-0.065329,-3.306542,1.0538020000000001,-1.386401,0.410972,0.37556100000000003,-0.15805999999999998
70,1.3890870000000002,-1.44157,0.386054,0.126736,0.991662,-0.023286,0.46404700000000004,6.30575,-0.42889499999999997,0.658848,-0.219888,-1.158919
71,1.210084,-1.425906,0.158559,0.13508299999999998,0.9895219999999999,-0.050956,1.315666,-0.674908,0.140406,0.27415700000000004,-0.033955,-1.576211
72,1.071683,-1.4243299999999999,0.067439,0.128132,0.989293,-0.069851,1.022407,-2.303986,-0.335982,0.24966,-0.055638,-0.280612
73,0.808296,-1.41306,-0.16433,0.11358399999999999,0.987585,-0.108497,1.9402119999999998,-1.8786040000000002,-0.682629,0.41278400000000004,-0.026022000000000003,-0.538185
74,0.574804,-1.3810559999999998,-0.359009,0.10253499999999999,0.9820530000000001,-0.15829000000000001,2.524763,-2.119017,0.056699,0.492695,0.147768,-0.286839
75,0.452851,-1.325703,-0.440324,0.10616400000000001,0.970115,-0.21818600000000002,3.050321,-2.143168,0.844476,0.763312,0.537988,0.259262
76,0.395077,-1.2586760000000001,-0.457318,0.11818699999999999,0.951684,-0.283421,2.93974,-2.065731,1.553972,0.502785,0.38501599999999997,0.8719520000000001
77,0.38211799999999996,-1.196833,-0.41605600000000004,0.136218,0.9308870000000001,-0.338959,2.330759,-2.5319540000000003,1.989354,0.434309,0.6442319999999999,1.2269139999999998
78,0.408403,-1.1380780000000001,-0.351042,0.16653800000000002,0.9078290000000001,-0.38485,2.179441,-1.027201,2.506593,0.37490500000000004,1.13105,1.4295280000000001
79,0.477329,-1.092789,-0.281443,0.21133200000000002,0.887913,-0.408592,0.701074,0.950614,2.024783,0.10420399999999999,0.960643,0.820197
80,0.553348,-1.092211,-0.22771999999999998,0.242022,0.887648,-0.391798,-1.288411,1.5446819999999999,0.6438689999999999,0.035047,0.32239,0.506254
81,0.6446890000000001,-1.121424,-0.15845599999999999,0.26105100000000003,0.9007200000000001,-0.347209,-2.447788,1.412134,0.430842,0.039837,0.20043,0.399287
82,0.758404,-1.155265,-0.059537,0.277632,0.914902,-0.293041,-2.620629,1.030986,0.525195,-0.033826999999999996,0.048721,0.29414
83,0.87765,-1.183052,0.057420000000000006,0.290848,0.9257639999999999,-0.24159,-2.657311,0.248056,0.5451699999999999,-0.004654,0.10426500000000001,0.204725
84,0.995117,-1.208594,0.194327,0.297221,0.935119,-0.1929,-2.8201680000000002,-0.9557979999999999,0.44302600000000003,0.19484400000000002,0.117524,0.104505
85,1.095078,-1.227378,0.336488,0.299317,0.941609,-0.154203,-2.386625,-2.160653,0.340776,0.31808400000000003,0.14976,0.029249
86,1.13781,-1.241565,0.44658100000000006,0.293476,0.946291,-0.135656,-1.6596229999999998,-3.502277,0.087995,0.062664,0.091032,0.20627399999999999
87,1.136735,-1.25206,0.523162,0.28430300000000003,0.9496319999999999,-0.131787,-1.201501,-3.7749949999999997,-0.040915,-0.232285,0.024350999999999998,0.028821
88,1.109017,-1.265556,0.581688,0.269043,0.953775,-0.133894,-1.0227540000000002,-4.371167,-0.291002,-0.370682,-0.14016099999999998,-0.012728
89,1.0587790000000001,-1.27814,0.6228560000000001,0.251496,0.9574809999999999,-0.141343,-0.720407,-4.455555,-0.228962,-0.326127,-0.191719,0.051881
90,1.0065549999999999,-1.284913,0.651995,0.23829,0.959413,-0.150807,-0.421504,-3.6874279999999997,0.028515,-0.245187,-0.134523,-0.016383
91,0.968198,-1.284675,0.6798109999999999,0.23251999999999998,0.9593459999999999,-0.15996400000000002,-0.290846,-3.0382130000000003,0.331971,-0.1789,-0.12964900000000001,-0.035547
92,0.94306,-1.280144,0.712517,0.23194099999999998,0.9580569999999999,-0.168309,-0.249831,-2.768438,0.497486,-0.11833900000000001,-0.18725899999999998,-0.019878
93,0.922012,-1.275703,0.747707,0.231735,0.956775,-0.175722,-0.27376999999999996,-2.680817,0.451273,-0.081893,-0.265567,0.12578
94,0.9006190000000001,-1.272491,0.776826,0.23033,0.955836,-0.182546,-0.211907,-2.3226459999999998,0.338014,-0.054762,-0.256404,0.16933199999999998
95,0.877675,-1.272644,0.797826,0.225969,0.955881,-0.18768900000000002,-0.296132,-2.085915,0.085022,-0.007234,-0.22652600000000003,0.09312999999999999
96,0.8549329999999999,-1.278449,0.816075,0.217452,0.95757,-0.189134,-0.425716,-1.924848,-0.121188,0.21701199999999998,-0.24240599999999998,0.078462
97,0.831357,-1.285836,0.827448,0.20770100000000002,0.959673,-0.189436,-0.329289,-1.644824,-0.168943,0.48216400000000004,-0.201067,0.21005
98,0.8146479999999999,-1.2920209999999999,0.8410540000000001,0.200184,0.961393,-0.188803,-0.389338,-1.336243,-0.029820999999999997,0.708202,-0.188078,0.114951
99,0.820687,-1.296044,0.869617,0.198489,0.962493,-0.184952,-0.395111,-0.9653719999999999,0.202536,0.661496,-0.193221,0.035676
100,0.83629,-1.295607,0.9020389999999999,0.201663,0.962374,-0.182115,-0.293848,-0.576526,0.375797,0.361264,-0.153139,0.095415
101,0.867215,-1.293246,0.9337719999999999,0.20893,0.96173,-0.177262,-0.147145,0.24645799999999998,0.367221,-0.087211,0.361406,0.144898
102,0.887734,-1.287647,0.953548,0.21669699999999997,0.9601799999999999,-0.176334,-0.17536500000000002,-0.083736,0.381334,-0.093375,1.5199989999999999,-0.837933
103,0.9106989999999999,-1.282609,0.9878600000000001,0.224507,0.9587610000000001,-0.174276,0.223302,-0.45444399999999996,0.566192,-0.146946,1.337001,-0.179621
104,0.8465940000000001,-1.2567549999999998,0.940268,0.231375,0.9510930000000001,-0.204658,1.852785,-1.373945,0.5274770000000001,-0.372717,-0.321424,0.607582
105,0.742676,-1.224204,0.871822,0.22971999999999998,0.940536,-0.250237,1.8410119999999999,-2.142947,0.239961,-0.382369,-0.45535200000000003,0.8353659999999999
106,0.652189,-1.204721,0.8212879999999999,0.21725,0.933739,-0.284484,0.873137,-2.084816,-0.137548,-0.32763200000000003,-0.495721,1.0812979999999999
107,0.586175,-1.205281,0.803445,0.197721,0.93394,-0.297759,-0.14413299999999998,-2.887897,-0.355132,-0.017575999999999998,0.08907000000000001,1.005584
108,0.504529,-1.213409,0.794801,0.169104,0.9368139999999999,-0.306237,-0.46745699999999996,-3.991839,-0.260908,0.20771199999999998,0.374359,0.94584
109,0.44744700000000004,-1.237739,0.816769,0.141452,0.945047,-0.294746,-1.8319509999999999,-3.4737419999999997,-0.23692,0.674909,0.62644,0.6588510000000001
110,0.467449,-1.29788,0.882325,0.121456,0.962989,-0.240621,-3.7100239999999998,-1.454836,-0.525022,0.090031,0.195382,0.273152
111,0.5523170000000001,-1.36425,0.994467,0.107596,0.9787450000000001,-0.174584,-3.250641,-1.1810770000000002,-0.386499,-0.077261,0.104949,0.175484
112,0.6901930000000001,-1.413701,1.157465,0.099606,0.9876860000000001,-0.12063800000000001,-2.668886,-1.109512,-0.140041,-0.498196,0.069123,-0.375166
113,0.9009780000000001,-1.448444,1.403058,0.095669,0.992524,-0.075766,-2.261519,-2.150329,0.050009,-0.494259,0.06428400000000001,-0.420038
114,1.074418,-1.469159,1.629793,0.08920800000000001,0.9948389999999999,-0.048316000000000005,-1.174906,-2.46133,-0.373564,-0.32098899999999997,0.252261,-0.254922
115,1.104381,-1.4855479999999999,1.700045,0.076041,0.9963690000000001,-0.038284,-0.433371,-1.771463,-0.6416649999999999,0.153314,-0.09256,0.046951
116,1.081744,-1.499983,1.7071419999999997,0.062447,0.9974940000000001,-0.033232,-0.41866499999999995,-1.2669,-0.559956,0.230766,-0.215679,0.170439
117,1.1872530000000001,-1.512984,1.8308959999999999,0.053562,0.9983290000000001,-0.021613999999999998,-0.749084,-0.760541,-0.362087,0.27729499999999996,-0.291802,0.13478800000000002
118,1.4437229999999999,-1.523287,2.1014909999999998,0.047082,0.998872,-0.0060149999999999995,-0.832256,-0.690186,-0.30186999999999997,0.05170399999999999,-0.199433,0.14159000000000002
119,1.854265,-1.529179,2.5280099999999996,0.039909,0.999134,0.011626000000000001,-0.997624,-0.8095060000000001,-0.422513,-0.128364,-0.11096600000000001,0.216707
120,2.454509,-1.526709,-3.1398900000000003,0.027932,0.999028,0.034045,-1.22291,-0.683897,-0.736168,-0.16472699999999998,-0.084722,0.17349
121,2.959227,-1.511009,-2.621542,0.010832,0.9982129999999999,0.058738,-1.2302799999999998,-0.6446350000000001,-0.957392,-0.08026,-0.097426,0.065316
122,-3.030437,-1.488907,-2.3159099999999997,-0.009072,0.996649,0.081277,-1.063718,-0.497729,-1.076058,0.006768000000000001,-0.10307899999999999,0.029624
123,-2.848263,-1.465532,-2.1253599999999997,-0.030376,0.9944649999999999,0.10057,-0.9027200000000001,-0.31493499999999996,-1.107214,0.215633,-0.09793500000000001,-0.034698
124,-2.725241,-1.442914,-1.9972990000000002,-0.051573,0.991834,0.116628,-0.747364,-0.130273,-1.067909,0.40328800000000004,-0.018186,-0.01563
125,-2.64735,-1.422084,-1.915863,-0.070278,0.9889629999999999,0.130423,-0.6568649999999999,-0.22189099999999998,-0.8791530000000001,0.520702,0.085332,-0.062552
126,-2.618637,-1.402917,-1.874534,-0.08344700000000001,0.985941,0.14475,-0.732232,-0.8839799999999999,-0.6758689999999999,0.615125,0.107427,-0.17275
127,-2.6469240000000003,-1.3793469999999999,-1.878652,-0.09033,0.9817290000000001,0.167464,-1.249351,-1.339923,-0.493026,0.683683,0.269583,-0.546431
128,-2.6850009999999997,-1.35219,-1.8896130000000002,-0.095612,0.976201,0.19464700000000001,-1.127599,-1.3317450000000002,-0.512482,0.6979989999999999,0.271968,-0.555746
129,-2.700312,-1.34071,-1.875327,-0.097401,0.9736469999999999,0.20620700000000003,0.033186,-1.6156540000000001,-0.317071,0.7813,0.210405,-0.590713
130,-2.697981,-1.358674,-1.835875,-0.09035900000000001,0.9775860000000001,0.190149,1.591132,-1.9259400000000002,0.268912,1.099469,0.380644,-0.534281
131,-2.716423,-1.406158,-1.8145419999999999,-0.067599,0.9864780000000001,0.149295,2.472534,-2.0302860000000003,1.0891870000000001,1.2032040000000002,0.222552,-0.6958489999999999
132,-2.810508,-1.4642899999999999,-1.850888,-0.034552,0.994334,0.100518,2.7093700000000003,-3.5856800000000004,1.438939,0.684454,0.250158,0.099784
133,3.093852,-1.525547,-2.151297,0.002157,0.998976,0.045151,2.962713,-3.973061,1.656986,0.473841,0.527208,0.811401
134,1.1871969999999998,-1.520731,2.309295,0.046386000000000004,0.9987469999999999,-0.018721,3.053496,-4.376987000000001,2.422984,0.39265500000000003,0.425249,0.957533
135,0.889284,-1.449215,2.084305,0.094183,0.992618,-0.07639800000000001,2.319328,-3.137985,2.504931,0.187433,0.453854,0.968671
136,0.8462559999999999,-1.3941,2.082963,0.131618,0.9844299999999999,-0.1165,1.562791,-1.428333,1.858659,-0.02766,0.511572,0.9491870000000001
137,0.8517379999999999,-1.351872,2.099984,0.163407,0.976132,-0.143047,1.096623,-0.174267,1.67113,-0.090242,0.408588,0.641979
138,0.896069,-1.3125639999999998,2.145105,0.19941,0.966843,-0.159524,0.740984,0.049453,1.976007,-0.086938,0.387466,0.386727
139,0.943937,-1.270714,2.1950830000000003,0.239394,0.955312,-0.173396,0.739977,-0.040566000000000005,2.1107110000000002,-0.052336,0.284617,0.316173
140,0.979132,-1.229395,2.238859,0.277891,0.9422860000000001,-0.18673399999999998,0.5419109999999999,-0.489191,2.052218,-0.030592,0.0873,0.404615
141,1.0030219999999999,-1.193008,2.285119,0.310988,0.929483,-0.198358,0.139095,-1.232933,1.913625,-0.036192,0.034156,0.508233
142,1.026598,-1.164811,2.339849,0.337871,0.9187139999999999,-0.204463,-0.29669,-1.370962,1.644771,-0.093669,0.017596,0.47806800000000005
143,1.0444149999999999,-1.1420569999999999,2.394285,0.35944499999999996,0.9094909999999999,-0.20886100000000002,-0.406112,-1.858008,1.527126,-0.23349899999999998,-0.013311000000000002,0.317717
144,1.049407,-1.120978,2.4506229999999998,0.37702600000000003,0.900526,-0.216567,-0.6363880000000001,-2.596247,1.461302,-0.276363,-0.061735000000000005,0.30656300000000003
145,1.042916,-1.106525,2.5130310000000002,0.386816,0.8941479999999999,-0.22554200000000002,-0.882125,-3.3848769999999995,1.223451,-0.326422,-0.14965599999999998,0.39142
146,1.023133,-1.0973870000000001,2.566312,0.38923800000000003,0.890019,-0.237395,-0.763738,-3.2709509999999997,0.869482,-0.506273,-0.259846,0.330702
147,1.001498,-1.093972,2.610464,0.38656999999999997,0.8884569999999999,-0.24739699999999998,-0.782131,-2.902214,0.58153,-0.5761149999999999,-0.26657,0.330557
148,0.9906309999999999,-1.095572,2.654029,0.38266999999999995,0.8891899999999999,-0.25080399999999997,-0.963801,-2.172315,0.42657,-0.674921,-0.32510300000000003,0.30956500000000003
149,1.002106,-1.102857,2.7034849999999997,0.380054,0.8925,-0.24290100000000003,-1.237454,-1.308725,0.218453,-0.645587,-0.374204,0.274456
150,1.030491,-1.1163299999999998,2.754929,0.376447,0.898496,-0.22580999999999998,-1.3526850000000001,-0.662616,-0.085487,-0.620817,-0.365216,0.243098
151,1.065353,-1.133821,2.801535,0.37028099999999997,0.9060360000000001,-0.20490999999999998,-1.252308,-0.215468,-0.37164200000000003,-0.594676,-0.341537,0.14221199999999998
152,1.0934549999999998,-1.153402,2.839666,0.360063,0.914148,-0.18623699999999999,-1.130227,-0.5358,-0.556249,-0.450563,-0.23659699999999997,-0.14963900000000002
153,1.097724,-1.17872,2.874397,0.34013899999999997,0.924118,-0.174096,-1.243927,-2.0283450000000003,-0.9663959999999999,-0.354284,-0.21350100000000002,-0.27773200000000003
154,1.071357,-1.210836,2.911639,0.309208,0.935911,-0.168696,-1.394763,-3.4833339999999997,-1.146115,-0.18271199999999999,-0.184416,-0.20882199999999998
155,1.038327,-1.243067,2.945841,0.277325,0.9467760000000001,-0.163411,-1.17131,-2.8855,-1.12716,0.16786500000000001,-0.067976,0.01746
156,1.004383,-1.270707,2.945924,0.249437,0.95531,-0.158622,-0.366002,-0.8173090000000001,-1.148755,0.423888,-0.031711,-0.066277
157,0.9727049999999999,-1.279327,2.9024360000000002,0.237473,0.957823,-0.1618,0.48913599999999996,0.797925,-0.36184499999999997,0.616577,-0.014921,-0.091237
158,0.970985,-1.275097,2.892372,0.240537,0.956599,-0.164494,0.100884,0.287438,0.29519,0.338564,-0.258067,0.099079
159,1.000308,-1.26836,2.913575,0.250675,0.954614,-0.160848,-0.186022,0.49754,0.485191,0.254986,-0.308297,-0.143718
160,1.03986,-1.264142,2.952442,0.260309,0.953349,-0.152847,-0.489171,-0.247102,0.485096,0.033026,-0.289943,-0.134018
161,1.0637809999999999,-1.2627469999999998,2.996657,0.26505300000000004,0.9529270000000001,-0.147223,-0.59221,-1.269775,0.31049899999999997,-0.060722000000000005,-0.279984,-0.076288
162,1.0735569999999999,-1.266367,3.042949,0.263445,0.954018,-0.142978,-0.719051,-1.916223,0.11068299999999999,-0.141298,-0.43972100000000003,0.191684
163,1.068819,-1.271582,3.086516,0.258399,0.9555680000000001,-0.141828,-0.667321,-2.574495,0.048863,-0.240348,-0.120272,0.48626499999999995
164,1.0502989999999999,-1.278601,3.1213040000000003,0.24990300000000001,0.957614,-0.14325,-0.718605,-2.4715740000000004,-0.0702,-0.324473,0.5550510000000001,0.09211799999999999
165,1.0759370000000001,-1.296432,-3.089033,0.238427,0.962598,-0.128666,-1.426698,-2.1253900000000003,-0.51356,-0.48255200000000004,0.719928,0.900394
166,1.0821319999999999,-1.312576,-3.055869,0.225467,0.9668459999999999,-0.119875,-1.018894,-0.626977,-0.493404,1.259595,4.280835,-4.491468
167,1.137345,-1.319788,-3.01757,0.22540500000000002,0.9686620000000001,-0.10431900000000001,2.962767,1.436343,0.877724,0.067853,0.32838,0.516199
168,0.9823270000000001,-1.262416,3.1112740000000003,0.252458,0.9528260000000001,-0.168475,3.08373,-0.343942,1.623264,-0.672059,0.002069,1.158267
169,0.927717,-1.194032,3.030243,0.294421,0.92986,-0.22062199999999998,3.147251,1.94205,2.122843,-0.733965,-0.21494000000000002,1.059763
170,0.9103829999999999,-1.1240729999999999,2.951232,0.341174,0.901868,-0.265013,3.3820360000000003,2.683345,1.4217110000000002,-0.686587,0.08652,1.01779
171,0.876022,-1.0864209999999999,2.88309,0.357714,0.884966,-0.298117,1.4041540000000001,0.14977000000000001,0.028863,-0.24847600000000003,0.39408699999999997,0.545996
172,0.859792,-1.106213,2.885109,0.339488,0.894008,-0.29239299999999996,-1.792429,-0.965018,-1.066668,0.06831799999999999,0.37454699999999996,0.494526
173,0.913698,-1.163725,2.958866,0.313475,0.918284,-0.241835,-3.7045739999999996,-0.408403,-1.408682,0.460588,0.052266,0.28776399999999996
174,1.076298,-1.245231,3.123577,0.281523,0.94747,-0.151792,-5.000891,0.9776729999999999,-1.920509,0.44983,0.026773,0.196012
175,1.3254620000000001,-1.3042209999999999,-2.927505,0.25553200000000004,0.9646790000000001,-0.06398,-3.207753,1.304549,-1.0378020000000001,0.770652,-0.190814,-1.422699
176,1.353192,-1.302758,-2.897104,0.258587,0.964292,-0.057175,0.668963,-1.182701,0.6182979999999999,0.011311,-0.10829000000000001,-0.706054
177,1.256031,-1.2907469999999999,-2.949677,0.262816,0.961042,-0.08557000000000001,0.6804479999999999,-2.489794,0.076329,-0.28826799999999997,-0.101514,-0.250398
178,1.2163979999999999,-1.298461,-2.9611650000000003,0.252259,0.963145,-0.093341,-0.393492,-0.685199,-0.594715,-0.15904300000000002,-0.317027,-0.060269
179,1.241167,-1.313177,-2.935508,0.241056,0.9669989999999999,-0.082468,-0.426763,0.304222,-0.510757,0.05166900000000001,-0.300465,-0.344244
180,1.2249139999999998,-1.317112,-2.960435,0.236102,0.967994,-0.085084,0.601892,0.475979,-0.13311900000000002,0.061811000000000005,-0.331092,-0.300216
181,1.1785700000000001,-1.3105639999999998,-3.0323689999999996,0.23775900000000003,0.9663299999999999,-0.098351,1.1260219999999999,1.678219,0.059145,0.354481,-0.20085799999999998,-0.295325
182,1.141318,-1.29065,-3.109251,0.25138,0.961015,-0.11513,1.5353430000000001,1.889952,0.832989,0.620629,0.019484,-0.732359
183,1.086967,-1.248988,3.088955,0.279975,0.948665,-0.147123,2.34617,0.716653,1.568683,0.5920340000000001,0.031833999999999994,-0.700365
184,1.0005,-1.189991,2.9992799999999997,0.312844,0.928366,-0.200654,3.043087,-0.428663,1.799346,0.127402,-0.016027,-0.14840599999999998
185,0.911947,-1.124641,2.913539,0.341183,0.9021129999999999,-0.264166,3.3711839999999995,-0.507815,1.595572,-0.32533,-0.285627,0.482687
186,0.8351959999999999,-1.057857,2.840689,0.363846,0.8713059999999999,-0.3293,3.4616230000000003,-0.765112,1.392503,-0.508851,-0.480239,0.57457
187,0.765948,-0.992562,2.785,0.378875,0.8374290000000001,-0.393908,3.1497330000000003,-1.156811,1.316051,-0.560729,-0.538616,0.669894
188,0.733741,-0.940162,2.758347,0.394864,0.807653,-0.43792200000000003,1.875637,-0.128208,1.202216,-0.31951599999999997,-0.247869,0.615855
189,0.743518,-0.9154180000000001,2.7706180000000002,0.41253100000000004,0.792817,-0.44861599999999996,0.03007,0.23249299999999998,1.0446520000000001,0.105322,0.732436,0.798195
190,0.782892,-0.910906,2.802514,0.432389,0.79006,-0.434562,-0.790996,0.8179,0.814908,0.476654,1.534129,0.811423
191,0.863593,-0.923185,2.861832,0.458604,0.7975270000000001,-0.391958,-2.261287,2.11667,0.707902,-0.074998,0.424626,-0.397135
192,0.969418,-0.9443790000000001,2.941211,0.48339099999999996,0.810133,-0.331685,-2.473626,1.953987,0.549599,-0.200906,0.21293800000000002,-0.531337
193,1.051516,-0.9649459999999999,3.011094,0.49439099999999997,0.822018,-0.282598,-2.145219,0.8176180000000001,-0.070493,-0.50463,0.048664,-0.39771599999999996
194,1.103376,-0.992391,3.069572,0.488046,0.8373360000000001,-0.246329,-2.0711209999999998,-0.11143,-0.634942,-0.661279,-0.121973,-0.16543
195,1.144126,-1.027348,3.125105,0.47073000000000004,0.855931,-0.213993,-2.136245,-0.38403000000000004,-1.13818,-0.586758,-0.247731,-0.12105999999999999
196,1.195976,-1.072614,-3.095841,0.44465299999999996,0.878452,-0.17493499999999998,-2.408514,0.236868,-1.661102,-0.47866400000000003,-0.374882,0.012215
197,1.263883,-1.1265040000000002,-3.035239,0.40973000000000004,0.9029149999999999,-0.129855,-1.983787,0.769688,-2.340343,-0.22830300000000003,-0.118934,-0.194639
198,1.283574,-1.1802540000000001,-3.008114,0.365091,0.924703,-0.10784400000000001,-0.958751,-1.138779,-2.290145,0.074652,0.116801,-0.537313
199,1.277518,-1.218979,-2.970564,0.329886,0.9387479999999999,-0.099621,-1.474232,-2.33722,-1.310514,0.322488,0.159946,-0.288364
200,1.304231,-1.247517,-2.902977,0.306452,0.948199,-0.08368099999999999,-1.321995,-1.422722,-1.032885,0.653356,0.364454,-0.033812
201,1.324324,-1.268497,-2.858073,0.28871199999999997,0.9546549999999999,-0.072636,-0.754065,-0.9649719999999999,-0.647081,0.590667,-0.171558,0.061025
202,1.351583,-1.278239,-2.820967,0.281492,0.9575100000000001,-0.06271499999999999,-0.621842,-0.055371000000000004,-0.193329,0.425249,-0.510549,0.041658
203,1.4017629999999999,-1.280198,-2.7823279999999997,0.282435,0.958073,-0.048201,-0.480286,1.108379,0.098861,0.12978199999999998,-0.945499,-0.130052
204,1.4496639999999998,-1.277024,-2.769541,0.287435,0.957159,-0.034989,0.093635,1.9431330000000002,0.239601,0.015925,-1.037649,-0.327011
205,1.4353280000000002,-1.268637,-2.799268,0.29484899999999997,0.9546959999999999,-0.040188999999999996,0.628179,-0.7162609999999999,0.42513599999999996,-0.357623,-0.940017,-0.7306239999999999
206,1.3666639999999999,-1.2564870000000001,-2.82057,0.302734,0.95101,-0.062671,0.24786999999999998,-2.5808169999999997,0.569079,-0.32929899999999995,0.541223,0.181842
207,1.3055510000000001,-1.246812,-2.852984,0.307206,0.947975,-0.083451,0.748215,-1.327112,0.167179,-0.329743,1.298333,0.177873
208,1.27734,-1.249671,-2.8652580000000003,0.302135,0.948881,-0.091299,-0.55819,0.117872,-0.415297,0.102345,2.066836,-0.183649
209,1.366426,-1.278749,-2.820424,0.281915,0.957656,-0.058431,0.532542,3.3879900000000003,-1.023959,0.993552,-0.25769000000000003,0.139379
210,1.2573459999999999,-1.245966,-2.95566,0.303591,0.9477049999999999,-0.09840499999999999,2.39391,-0.163847,1.937616,0.06643500000000001,-0.6099359999999999,0.621568
211,1.180488,-1.1919790000000001,-3.0357950000000002,0.342003,0.929103,-0.140705,2.124543,0.14410499999999998,1.882997,-0.237648,-0.038508,0.47002
212,1.136579,-1.160217,-3.086065,0.36209600000000003,0.91689,-0.167916,1.025875,-0.20880900000000002,0.516997,-0.195088,0.22986900000000002,0.395318
213,1.1155959999999998,-1.1611049999999998,-3.087841,0.35776199999999997,0.9172440000000001,-0.175119,-0.55661,-1.307967,-0.292747,-0.17874600000000002,0.334938,0.42969700000000005
214,1.121629,-1.179732,-3.050475,0.343359,0.9245040000000001,-0.165509,-1.257733,-1.410839,-0.598751,-0.12557100000000002,0.167034,0.305462
215,1.166118,-1.207609,-2.981982,0.326556,0.9347690000000001,-0.13987,-2.15049,-0.418162,-0.849814,0.047574,0.228729,0.032601
216,1.319719,-1.242898,-2.83937,0.31195,0.9467209999999999,-0.080012,-3.0369900000000003,1.822728,-0.768079,0.135041,0.255855,-0.161779
217,1.453454,-1.250801,-2.790234,0.312392,0.9492370000000001,-0.036826,1.092559,4.887271,0.508796,0.395387,0.046094,-1.486993
218,1.410614,-1.225642,-2.866038,0.334005,0.9410229999999999,-0.053964,0.9759459999999999,-0.385304,1.007188,0.07056699999999999,0.24980300000000003,-0.51557
219,1.370233,-1.206013,-2.918452,0.34959,0.9342010000000001,-0.07107000000000001,1.516161,0.955725,0.8436680000000001,0.319859,0.14519,-0.672231
220,1.28601,-1.172333,-3.0203130000000002,0.37237,0.921658,-0.109009,2.514026,0.364237,1.374825,0.006445,-0.076184,-0.300094
221,1.201653,-1.126768,-3.120574,0.400638,0.9030290000000001,-0.154998,2.775983,0.295088,1.656618,-0.12021199999999999,-0.268522,-0.269257
222,1.119176,-1.067561,3.069938,0.433908,0.876027,-0.21046900000000002,3.3778589999999995,-0.158528,1.88573,-0.259103,-0.21523,0.023244
223,1.0237,-1.0024959999999998,2.976516,0.45964099999999997,0.842817,-0.279975,3.542514,-1.053944,1.623108,-0.516785,-0.218565,0.507209
224,0.944124,-0.9439049999999999,2.90937,0.475159,0.809855,-0.344029,3.016069,-1.216038,1.323741,-0.449082,-0.134898,0.702458
225,0.895486,-0.8960229999999999,2.870483,0.487601,0.780849,-0.390536,1.813352,-0.823097,1.071282,-0.121726,0.5519609999999999,0.873431
226,0.8924690000000001,-0.8760950000000001,2.8736900000000003,0.498439,0.768245,-0.401692,0.028346,0.21895799999999999,0.700692,0.261525,0.704045,0.677998
227,0.914082,-0.8677040000000001,2.886805,0.512092,0.762846,-0.394748,-0.119895,0.5429109999999999,0.535804,-0.15235,0.284868,0.337955
228,0.936558,-0.8652549999999999,2.904464,0.5223369999999999,0.761261,-0.384245,-0.623726,0.548565,0.358157,-0.574812,0.026886,0.33314299999999997
229,0.981096,-0.879639,2.937527,0.529771,0.770509,-0.354481,-1.633355,1.077469,-0.22961700000000002,-0.532838,0.019698,0.081669
230,1.038418,-0.90904,2.9802779999999998,0.529456,0.788914,-0.311911,-2.08869,1.135268,-0.7018220000000001,-0.5485300000000001,-0.079609,-0.09313300000000001
231,1.095069,-0.9483280000000001,3.033787,0.518299,0.812442,-0.267024,-2.466793,0.44029300000000005,-1.068904,-0.624256,-0.139773,-0.024846
232,1.147822,-0.9925639999999999,3.09395,0.49837700000000007,0.8374299999999999,-0.224342,-2.48228,-0.007888,-1.396382,-0.528879,-0.108991,-0.026757
233,1.193908,-1.04389,-3.1324330000000002,0.467566,0.864367,-0.185067,-2.27283,-0.116753,-2.058145,-0.406454,-0.073153,-0.07109800000000001
234,1.223639,-1.1010280000000001,-3.090226,0.42567200000000005,0.8916729999999999,-0.154013,-1.730191,-0.583719,-2.434043,-0.220381,-0.135982,-0.130869
235,1.231916,-1.1559270000000001,-3.060845,0.380144,0.915169,-0.133992,-1.433384,-1.068052,-2.25082,0.17971600000000001,-0.088951,-0.336268
236,1.2446959999999998,-1.20186,-3.014992,0.341615,0.9327120000000001,-0.115525,-1.6727459999999998,-1.5858450000000002,-1.494459,0.64958,0.16334200000000001,-0.213515
237,1.292545,-1.229356,-2.944761,0.321963,0.9422729999999999,-0.091973,-1.493767,-0.548193,-0.8696290000000001,0.742795,0.208484,-0.28322600000000003
238,1.344317,-1.2539870000000002,-2.882197,0.303577,0.950234,-0.069954,-1.2046270000000001,-0.357252,-0.91806,0.48457,-0.111825,-0.1576
239,1.393485,-1.271161,-2.8191080000000004,0.290541,0.9554440000000001,-0.052063,-1.04136,-0.633323,-0.486073,0.284487,-0.353531,-0.05271900000000001
240,1.444448,-1.2792540000000001,-2.755007,0.28513499999999997,0.957802,-0.036219,-0.9618770000000001,-0.40383800000000003,-0.135435,0.077567,-0.325508,-0.146764
241,1.4918930000000001,-1.280829,-2.7023029999999997,0.285028,0.958253,-0.022537,-0.548872,-0.171745,0.07331900000000001,-0.145806,0.021605000000000003,-0.315324
242,1.47959,-1.273673,-2.688586,0.291549,0.956183,-0.026664999999999998,0.050419,-1.69258,0.523835,-0.39413400000000004,0.7872859999999999,0.13126400000000002
243,1.4597360000000001,-1.266791,-2.675201,0.297496,0.954145,-0.033176,-0.46684200000000003,-1.5423,0.154697,-0.32918800000000004,1.088778,-0.10934100000000001
244,1.4804030000000001,-1.2751940000000002,-2.640715,0.290122,0.956627,-0.026297000000000004,-0.266596,0.08213999999999999,-0.524307,-0.158821,1.7202990000000002,-0.124643
245,1.485028,-1.286062,-2.6658169999999997,0.279866,0.959736,-0.024063,1.244168,1.814098,-0.457221,0.666774,-0.204091,-0.026917
246,1.337875,-1.265181,-2.829141,0.292752,0.9536620000000001,-0.069449,2.448598,-0.357111,1.204377,0.033389,-0.503009,0.674628
247,1.224064,-1.218815,-2.947331,0.324239,0.9386909999999999,-0.117157,2.5558259999999997,0.319918,1.765075,0.022975,-0.42967299999999997,0.773316
248,1.170064,-1.177434,-3.027786,0.352927,0.9236260000000001,-0.14952000000000001,1.6537060000000001,1.3444530000000001,1.015046,-0.155128,0.267521,0.537688
249,1.180099,-1.1719899999999999,-3.041492,0.359054,0.921525,-0.147884,-0.444043,0.878936,-0.363129,-0.22888200000000003,0.372908,0.42690600000000006
250,1.232618,-1.197463,-2.990466,0.344061,0.931117,-0.121003,-1.740978,-0.115449,-0.9819370000000001,-0.285391,0.178136,0.22235100000000002
251,1.309579,-1.2279579999999999,-2.896829,0.324755,0.9418040000000001,-0.086815,-2.150576,-0.578451,-0.991682,-0.049944,-0.065492,-0.045295
252,1.4539950000000001,-1.260584,-2.7497990000000003,0.303177,0.952269,-0.035573,-2.8600529999999997,0.837571,-1.243075,0.083389,-0.161436,-0.237696
253,1.651648,-1.289038,-2.580648,0.277133,0.960568,0.022456,-1.766641,2.496423,-1.445867,0.6644100000000001,-0.24761599999999998,-0.6190439999999999
254,1.652997,-1.2980559999999999,-2.606477,0.268458,0.963036,0.022116999999999998,1.0673350000000001,0.08872999999999999,0.133413,0.058355,-0.392999,-0.313743
255,1.59541,-1.29429,-2.654836,0.27291,0.962015,0.006719,0.352231,-0.36718,0.213392,-0.06597,-0.38401199999999996,0.089778
256,1.600805,-1.293239,-2.661833,0.27388,0.961728,0.008221,-0.028523000000000003,1.054175,-0.058145,0.027327999999999998,-0.26162399999999997,-0.24755500000000003
257,1.6157920000000001,-1.293627,-2.671214,0.273354,0.961834,0.012308,0.39610700000000004,1.219285,0.108048,0.111381,-0.247906,-0.534647
258,1.569346,-1.285477,-2.738627,0.28146,0.959572,-0.000408,1.1131790000000001,0.795061,0.61246,0.12901700000000002,-0.203789,-0.49594499999999997
259,1.506034,-1.267147,-2.8249869999999997,0.298375,0.954252,-0.019351,1.401805,1.07796,1.010424,0.045909,-0.09951499999999999,-0.263334
260,1.4380680000000001,-1.2409219999999999,-2.9253299999999998,0.32107199999999997,0.946083,-0.042867,1.8897080000000002,1.5857379999999999,1.209734,0.027362,-0.077736,-0.27884899999999996
261,1.3549360000000001,-1.209031,-3.046007,0.34571,0.9352739999999999,-0.075806,2.497836,1.342891,1.2068139999999998,-0.021963999999999997,-0.069551,-0.39797899999999997
262,1.257757,-1.169086,3.11333,0.37199,0.920393,-0.120406,2.921406,0.650095,1.463829,0.498615,0.5291,-0.284669
263,1.145189,-1.109024,2.991854,0.405787,0.895264,-0.183949,3.6526400000000003,-0.489659,2.138036,0.514791,0.792312,0.005132
264,1.043656,-1.036196,2.894727,0.44033100000000003,0.8604719999999999,-0.256309,3.736964,-1.2142549999999999,2.117121,0.403343,0.8470469999999999,0.119056
265,0.951151,-0.968475,2.831053,0.46122399999999997,0.824023,-0.329025,3.103418,-2.134634,1.862843,-0.18043199999999998,0.612531,0.997986
266,0.901626,-0.904315,2.794285,0.48489499999999996,0.7860020000000001,-0.383506,2.3891560000000003,-0.5577850000000001,1.8889479999999998,-0.178254,0.48893100000000006,0.827766
267,0.8905200000000001,-0.866373,2.794405,0.503438,0.761985,-0.407341,0.47002299999999997,-0.242626,1.196818,-0.555074,0.363976,0.644097
268,0.9223020000000001,-0.855808,2.817341,0.522516,0.755101,-0.395978,-0.550575,1.0676809999999999,0.745766,-0.5034569999999999,-0.163167,0.078687
269,0.9594799999999999,-0.852885,2.841068,0.538678,0.753181,-0.377548,-0.48208999999999996,0.784338,0.415459,-0.50932,-0.003593,0.05790700000000001
270,0.983993,-0.8587870000000001,2.855886,0.544058,0.757051,-0.361764,-0.681421,0.699029,-0.188301,-0.594824,0.042266000000000005,0.17516400000000001
271,1.009865,-0.87659,2.870509,0.5417350000000001,0.768562,-0.340344,-0.9907969999999999,0.7168800000000001,-0.654094,-0.515871,-0.12726500000000002,0.144955
272,1.039994,-0.903903,2.8891150000000003,0.533435,0.785747,-0.31312399999999996,-1.328778,0.9175040000000001,-0.9814510000000001,-0.575335,-0.133129,0.234724
273,1.08417,-0.9385020000000001,2.909551,0.522389,0.806674,-0.276376,-1.4147290000000001,1.5893979999999999,-1.365336,-0.572347,-0.170779,0.035944
274,1.126233,-0.981374,2.932208,0.501846,0.8312620000000001,-0.239063,-1.624958,0.6990569999999999,-1.7726560000000002,-0.29036,-0.341806,-0.20838600000000002
275,1.1436879999999998,-1.0352190000000001,2.959741,0.46448999999999996,0.859974,-0.21140100000000003,-1.88507,-0.794371,-2.3675580000000003,-0.044614,-0.40123400000000004,-0.084665
276,1.1433,-1.096294,2.985243,0.41577600000000003,0.8895200000000001,-0.189425,-1.777468,-1.25631,-2.558495,0.221202,-0.39112199999999997,0.033358
277,1.1375540000000002,-1.153501,3.013274,0.367842,0.9141889999999999,-0.170146,-1.7403810000000002,-1.8079509999999999,-2.101398,0.421205,-0.408283,0.010936
278,1.137314,-1.1961709999999999,3.060912,0.33207600000000004,0.9306450000000001,-0.153699,-1.6468669999999999,-2.252624,-1.2712350000000001,0.750825,-0.22582600000000003,-0.118914
279,1.157223,-1.2260209999999998,3.123862,0.30948600000000004,0.9411510000000001,-0.135829,-1.649461,-1.805282,-0.718487,0.883675,-0.051655999999999994,-0.47253900000000004
280,1.207904,-1.248417,-3.07041,0.296187,0.948484,-0.11246500000000001,-1.8289819999999999,-1.474939,-0.323854,0.6506970000000001,-0.020109000000000002,-0.07486699999999999
281,1.2982870000000002,-1.261687,-2.957383,0.29298,0.9526049999999999,-0.08187699999999999,-1.8649630000000001,-0.530478,0.082745,0.185596,-0.000975,0.026914999999999998
282,1.4169889999999998,-1.2634239999999999,-2.837376,0.29898,0.953132,-0.046350999999999996,-1.6589009999999997,0.776724,0.409385,0.083741,0.075005,-0.20763099999999998
283,1.4978639999999999,-1.251676,-2.775012,0.312894,0.9495120000000001,-0.022861000000000003,-0.387261,0.489266,0.863016,-0.505628,0.09980499999999999,-0.097333
284,1.471101,-1.23529,-2.7786419999999996,0.32760900000000004,0.9442440000000001,-0.03277,0.34173200000000004,-1.793168,0.650979,-1.022418,0.756165,-0.039648
285,1.438977,-1.2270530000000002,-2.782241,0.33408699999999997,0.9415,-0.044295999999999995,-0.265043,-0.747324,0.442439,-1.021648,1.001616,-0.34881599999999996
286,1.452094,-1.227331,-2.7766509999999998,0.334379,0.941593,-0.039879000000000005,-0.002441,0.711916,-0.27010100000000004,-0.03903,0.8892629999999999,-0.720817
287,1.440626,-1.225475,-2.832068,0.33563200000000004,0.940967,-0.043938,2.126564,2.632323,0.35226399999999997,0.9879760000000001,0.531461,-0.198769
288,1.336657,-1.191279,-2.961656,0.360362,0.928843,-0.085951,2.398762,0.08153400000000001,1.576275,-0.173045,0.054311,0.617308
289,1.275242,-1.155231,-3.0402,0.3862,0.9148879999999999,-0.11758699999999998,1.5877649999999999,1.125348,0.987092,-0.077378,0.09339700000000001,0.46136800000000006
290,1.263536,-1.147748,-3.0733610000000002,0.391313,0.911842,-0.12416700000000001,0.20068,0.331958,-0.266059,-0.025575,0.052041,0.23888299999999998
291,1.283261,-1.164065,-3.045291,0.379366,0.9184190000000001,-0.11219000000000001,-1.321576,-0.390323,-0.8045359999999999,0.19883599999999998,-0.0025859999999999998,0.20925100000000002
292,1.348546,-1.1921110000000001,-2.971963,0.360604,0.9291510000000001,-0.08148999999999999,-1.851851,0.24129099999999998,-1.119902,0.36054200000000003,0.115969,0.063027
293,1.4257389999999999,-1.216378,-2.909275,0.343398,0.9378489999999999,-0.050164999999999994,-0.7447239999999999,0.8269850000000001,-0.696313,0.07498300000000001,-0.054242,-0.7612369999999999
294,1.4129120000000002,-1.2214770000000001,-2.9150869999999998,0.337999,0.9396059999999999,-0.053813,0.258759,-0.687968,-0.202389,-0.015474000000000002,-0.010376,-0.42986
295,1.390767,-1.228652,-2.932287,0.330083,0.9420370000000001,-0.060075,0.231828,-0.075281,-0.48323699999999997,0.053203,-0.0958,-0.18391300000000002
296,1.371369,-1.232193,-2.962596,0.325583,0.9432200000000001,-0.065805,0.609794,0.862433,-0.080147,0.41053199999999995,-0.22064,-0.296363
297,1.3614549999999999,-1.225551,-3.0030229999999998,0.331036,0.940992,-0.07032999999999999,0.777356,1.48991,0.29943800000000004,0.25857800000000003,-0.18054,-0.286543
298,1.342804,-1.214445,-3.0463009999999997,0.339827,0.937176,-0.078849,0.9394790000000001,0.8816790000000001,0.41458199999999995,0.246462,-0.247707,-0.514901
299,1.299258,-1.197922,-3.106372,0.35094200000000003,0.931284,-0.097708,1.455165,0.493287,0.657963,0.303736,-0.195795,-0.449945
300,1.228125,-1.167758,3.097053,0.369408,0.919874,-0.13178499999999999,2.111543,-0.117248,1.1867590000000001,0.280555,-0.13931,-0.336828
301,1.147551,-1.122923,3.018714,0.394836,0.9013700000000001,-0.177862,2.517369,-0.571967,1.595033,-0.047637,0.009183,-0.007456
302,1.061936,-1.068074,2.938964,0.42076499999999994,0.876274,-0.23473000000000002,2.9746240000000004,-0.8932,1.611457,-0.23067100000000001,0.020653,0.21538200000000002
303,0.977873,-1.010631,2.868341,0.440634,0.847167,-0.296898,3.0881380000000003,-1.437293,1.447373,-0.279333,0.069413,0.365807
304,0.8892959999999999,-0.953693,2.805112,0.44941400000000004,0.815558,-0.364541,2.95532,-1.8617,1.137204,-0.41743199999999997,0.34996900000000003,0.837518
305,0.835184,-0.9137780000000001,2.778188,0.45282799999999995,0.791817,-0.409844,1.1460549999999998,-1.101321,0.8981969999999999,-0.173745,0.39777399999999996,0.9038010000000001
306,0.84775,-0.9008639999999999,2.789771,0.46557,0.783864,-0.41085299999999997,-0.147002,0.77381,0.626116,-0.17788099999999998,0.412654,0.643443
307,0.8800549999999999,-0.8952540000000001,2.806939,0.48198,0.7803680000000001,-0.398397,-0.30295300000000003,0.891848,0.546895,-0.403092,0.172147,0.178457
308,0.915881,-0.897508,2.8311029999999997,0.494544,0.781775,-0.379805,-0.904335,0.883524,0.220102,-0.452613,0.018365,0.138319
309,0.959938,-0.9145840000000001,2.86154,0.499783,0.792309,-0.349946,-1.468603,1.050777,-0.35662,-0.405697,-0.077541,0.064912
310,1.0063819999999999,-0.946189,2.896574,0.494079,0.811193,-0.31281,-1.8970770000000001,0.783032,-0.9596110000000001,-0.395599,0.0033060000000000003,-0.114955
311,1.045995,-0.990505,2.936719,0.47448199999999996,0.836303,-0.274704,-2.235236,0.002395,-1.517516,-0.3912,0.11061199999999999,-0.083817
312,1.076273,-1.045112,2.983666,0.44168500000000005,0.864981,-0.23816199999999998,-2.5174220000000003,-0.72165,-1.8903020000000001,-0.329929,0.158457,-0.065549
313,1.111569,-1.103795,3.04585,0.403565,0.8929219999999999,-0.19955699999999998,-2.692745,-1.059707,-1.9135259999999998,-0.097077,0.148902,-0.107129
314,1.147521,-1.161001,3.112959,0.36325799999999997,0.9172020000000001,-0.16365,-2.381607,-1.53742,-2.065633,-0.059410000000000004,0.190433,-0.308579
315,1.1766299999999998,-1.216861,-3.0950509999999998,0.320011,0.938016,-0.133103,-2.4124220000000003,-2.005839,-1.8483990000000001,-0.009434,0.111529,-0.234832
316,1.251166,-1.2608270000000001,-2.993983,0.289577,0.952343,-0.095844,-2.131105,-0.8254889999999999,-1.2999479999999999,0.8237049999999999,-0.164379,-0.726513
317,1.308637,-1.290778,-2.912452,0.266927,0.96105,-0.071626,-1.163136,-1.148679,-0.9712379999999999,0.925105,-0.618445,-0.359114
318,1.30326,-1.303401,-2.883814,0.254815,0.964462,-0.069847,-0.17485599999999998,-1.7654729999999998,-0.230744,0.681052,-0.9261020000000001,0.13272799999999998
319,1.27306,-1.3008790000000001,-2.888215,0.254915,0.963793,-0.078223,0.126869,-0.81414,0.295709,0.553129,-1.1524219999999998,-0.019785
320,1.274637,-1.287685,-2.894182,0.267179,0.960191,-0.081525,0.399431,0.832666,0.8851620000000001,-0.033933,-0.613588,-0.9765809999999999
321,1.248645,-1.261311,-2.8860959999999998,0.28889699999999996,0.95249,-0.096428,0.345481,-2.244024,1.507228,-1.1557950000000001,0.25818800000000003,0.542778
322,1.233882,-1.2294450000000001,-2.861959,0.315938,0.9423030000000001,-0.11066300000000001,-0.391492,-1.940136,1.2762959999999999,-0.668035,2.1234319999999998,0.07157000000000001
323,1.258263,-1.2350510000000001,-2.843684,0.313512,0.9441649999999999,-0.101303,-0.251108,1.3478139999999998,-0.5685520000000001,-0.26974899999999996,0.29899899999999996,0.188217
324,1.299535,-1.247954,-2.829802,0.305661,0.9483370000000001,-0.085009,-0.49733299999999997,1.386007,-0.582071,0.139423,0.292919,-0.17053
325,1.3906459999999998,-1.2772729999999999,-2.769604,0.284643,0.9572299999999999,-0.05184,-1.573559,2.2198740000000003,-1.7176310000000001,1.290583,0.765167,-0.366739
326,1.450766,-1.3007790000000001,-2.747664,0.264825,0.963766,-0.031941000000000004,0.341525,0.44182899999999997,-0.158395,0.9155790000000001,-0.000769,-0.17651
327,1.375391,-1.2851059999999999,-2.800607,0.276454,0.959467,-0.054719000000000004,0.9206549999999999,-1.627893,0.9090469999999999,-0.05952,0.0008900000000000001,0.420411
328,1.301959,-1.271367,-2.8440380000000003,0.284378,0.9555049999999999,-0.078348,0.524253,-1.502276,0.20963600000000002,-0.095307,-0.08694400000000001,0.333841
329,1.282017,-1.275687,-2.840806,0.278798,0.9567700000000001,-0.082827,-0.470258,-0.920212,-0.365282,-0.171849,-0.29485900000000004,0.294634
330,1.3232549999999998,-1.289109,-2.7911330000000003,0.2695,0.9605879999999999,-0.068109,-1.035138,0.285953,-0.47652700000000003,0.036942,-0.257173,0.016397
331,1.388832,-1.297008,-2.764148,0.265913,0.9627540000000001,-0.048928,0.26179600000000003,2.584717,0.022036,0.413454,-0.123886,-0.7892979999999999
332,1.372257,-1.2818530000000001,-2.820484,0.27933800000000003,0.9585459999999999,-0.0562,0.964757,1.586651,0.7193649999999999,0.10022400000000001,0.147045,-0.47701800000000005
333,1.335967,-1.267141,-2.882526,0.29080100000000003,0.95425,-0.06957200000000001,1.1766510000000001,0.767727,0.467658,0.196626,-0.029125,-0.709541
334,1.255126,-1.246308,-2.972572,0.303068,0.9478139999999999,-0.098979,1.9200959999999998,0.023783000000000002,0.717359,0.185839,-0.07362300000000001,-0.5330239999999999
335,1.162302,-1.217871,-3.0727450000000003,0.317203,0.938366,-0.137299,2.067947,0.161753,0.7182149999999999,0.16506700000000002,-0.11899900000000001,-0.339386
336,1.0766850000000001,-1.181733,3.112706,0.33395,0.925265,-0.179892,2.652288,0.178651,1.047014,0.12326400000000001,-0.079867,-0.42006800000000005
337,0.98965,-1.127322,3.023905,0.358639,0.903266,-0.23555700000000002,3.031358,-0.42023699999999997,1.5674489999999999,0.026126999999999997,0.285912,-0.20092100000000002
338,0.907876,-1.063992,2.951986,0.382579,0.8743,-0.298716,3.3152690000000002,-1.268422,1.6442259999999997,0.04958,0.331419,0.36233000000000004
339,0.830335,-0.9972469999999999,2.9002529999999997,0.400536,0.839981,-0.366064,2.886778,-1.8402560000000001,1.694309,-0.011681,0.500504,0.716604
340,0.7873439999999999,-0.949269,2.8835349999999997,0.41253199999999995,0.81299,-0.41093,1.316201,-0.9899389999999999,1.135319,-0.002376,0.45081899999999997,1.2999829999999999
341,0.797266,-0.939785,2.895651,0.422087,0.807431,-0.412185,-0.49372200000000005,0.516147,0.361241,0.057253,0.278903,0.41729700000000003
342,0.83919,-0.9440209999999999,2.92521,0.436442,0.809923,-0.391844,-0.814237,1.109744,0.579363,-0.115962,0.346114,0.21078400000000003
343,0.8966639999999999,-0.946678,2.962359,0.45654700000000004,0.811479,-0.364782,-0.991907,1.370644,0.49019399999999996,-0.287281,0.170913,0.0008300000000000001
344,0.948593,-0.9562719999999999,2.9978380000000002,0.468517,0.817048,-0.33604,-1.18832,0.9457700000000001,0.085578,-0.339519,0.010314,-0.024464
345,0.9877610000000001,-0.976402,3.033428,0.46748999999999996,0.8284879999999999,-0.308317,-1.541161,0.2174,-0.47676899999999994,-0.5163949999999999,-0.29568099999999997,-0.017611
346,1.015241,-1.0082959999999999,3.07115,0.453097,0.845924,-0.281271,-1.820399,-0.41574399999999995,-0.940449,-0.523913,-0.370155,0.011771
347,1.039456,-1.047929,3.113063,0.430517,0.866391,-0.253023,-2.0067009999999996,-0.636488,-1.253388,-0.423178,-0.34116799999999997,0.025804
348,1.058943,-1.092654,-3.129568,0.401158,0.8878510000000001,-0.22536799999999999,-1.8915380000000002,-0.969036,-1.573692,-0.150654,-0.27479899999999996,-0.085392
349,1.061205,-1.137438,-3.09746,0.366566,0.9075610000000001,-0.20484499999999997,-1.6092790000000001,-1.5590709999999999,-1.583783,0.117626,-0.155791,-0.165745
350,1.047233,-1.180074,-3.06914,0.329837,0.9246340000000001,-0.190416,-1.529772,-2.195125,-1.631551,0.32952600000000004,0.030505,0.117601
351,1.028066,-1.228895,-3.057799,0.287098,0.942119,-0.17316199999999998,-1.480583,-1.133785,-2.0214,0.363674,-0.331493,-0.48472
352,1.032576,-1.273708,-3.014183,0.251348,0.9561930000000001,-0.150058,-1.6961709999999999,-2.10316,-1.30916,0.796549,-0.179673,-0.294721
353,1.040338,-1.298471,-2.9650529999999997,0.23200500000000002,0.963148,-0.136079,-0.9986700000000001,-1.9240419999999998,-0.35486799999999996,0.7929579999999999,-0.212385,-0.263351
354,1.064627,-1.3058049999999999,-2.909847,0.229057,0.965095,-0.126975,-0.7431989999999999,-1.032302,0.195908,0.8493120000000001,-0.127082,-0.22290900000000002
355,1.110306,-1.30199,-2.8421849999999997,0.237913,0.964089,-0.118019,-0.637107,-1.05951,0.779933,0.47233800000000004,-0.24030300000000002,-0.477425
356,1.1424159999999999,-1.291355,-2.781878,0.250892,0.96121,-0.11457300000000001,-0.424153,-1.379881,0.792513,0.06967999999999999,-0.37631,-0.344931
357,1.140257,-1.277123,-2.75925,0.263049,0.9571870000000001,-0.12081199999999999,0.262735,-0.770562,0.734574,-0.09151000000000001,-0.377399,-0.197105
358,1.115265,-1.260367,-2.792487,0.27431500000000003,0.952203,-0.13438599999999998,1.266057,0.271956,0.494555,-0.65789,0.672706,-0.194441
359,0.996124,-1.233702,-2.861639,0.277616,0.9437200000000001,-0.179779,1.776857,-4.533028,0.731811,-0.494871,0.41466400000000003,0.581268
360,0.8450799999999999,-1.194999,-2.922029,0.274534,0.930215,-0.243575,1.8180779999999999,-4.255642,0.8588620000000001,-0.228528,0.9767370000000001,0.9783620000000001
361,0.823574,-1.190718,-2.906342,0.272152,0.928635,-0.252127,-0.864383,-0.51935,-0.10363,0.173542,1.845595,0.8662780000000001
362,0.812217,-1.193865,-2.907391,0.267148,0.9297979999999999,-0.25319,0.25008,-0.6626,-0.1448,0.370303,-0.096501,0.144456
363,0.782076,-1.183858,-2.910889,0.265941,0.926069,-0.267714,0.536762,-1.785643,0.467524,-0.026683,-0.13375599999999999,0.384291
364,0.726668,-1.173746,-2.915262,0.256916,0.922206,-0.289015,0.15262799999999999,-2.870498,0.10303499999999999,0.0011560000000000001,0.339239,1.096403
365,0.678716,-1.187465,-2.9033990000000003,0.234802,0.927424,-0.291122,-1.301792,-2.9370849999999997,-0.631293,0.223313,0.8905540000000001,0.984375
366,0.6560010000000001,-1.240449,-2.874556,0.19785,0.9459299999999999,-0.257042,-2.971291,-1.9971439999999998,-1.405801,0.193737,0.594109,0.631844
367,0.707109,-1.312547,-2.793988,0.165907,0.9668389999999999,-0.194154,-3.774829,-1.195897,-1.282118,0.158281,0.23555399999999999,0.166978
368,0.866489,-1.383701,-2.6096880000000002,0.141743,0.982549,-0.12043599999999999,-3.988789,-0.765015,-0.958357,-0.333775,0.09315,-0.606279
369,1.166302,-1.431135,-2.2927150000000003,0.127966,0.9902629999999999,-0.054782000000000004,-2.746955,-1.093581,-0.32221500000000003,-0.33472199999999996,0.07690599999999999,-0.718121
370,1.359879,-1.443864,-2.05404,0.123774,0.9919549999999999,-0.0265,-1.343346,-2.429733,-0.133374,-0.34481300000000004,-0.162899,0.096401
371,1.561018,-1.454425,-1.821963,0.11608800000000001,0.993237,-0.001135,-1.635137,-0.8598879999999999,-0.5860770000000001,-0.185973,-0.371609,0.11528599999999999
372,1.9053380000000002,-1.4634049999999998,-1.470367,0.101226,0.994239,0.035187,-1.9260509999999997,-0.029299000000000002,-0.784658,-0.142715,-0.559379,0.065002
373,2.446296,-1.4668700000000001,-0.923784,0.066444,0.994604,0.07964199999999999,-2.4500830000000002,-0.22458899999999998,-2.373309,0.21520300000000003,-0.573004,0.13889400000000002
374,2.858707,-1.440561,-0.48990900000000004,0.036245,0.9915309999999999,0.12469000000000001,-2.483612,-1.121724,-1.502861,0.16378199999999998,-0.22196999999999997,0.043996
375,3.104294,-1.4109209999999999,-0.21452100000000002,0.005936,0.987247,0.159073,-1.254994,-1.458476,-1.7374020000000001,0.467193,0.15408,0.076614
376,-3.019832,-1.387349,-0.012354,-0.022156,0.9832209999999999,0.18106,-1.098559,-2.715057,-1.7176080000000002,0.16403199999999998,0.30802399999999996,-0.349975
377,-2.965563,-1.356487,0.11325,-0.037242000000000004,0.977124,0.209377,-1.454305,-3.5646230000000005,-1.274624,0.18774000000000002,0.32579400000000003,-0.536266
378,-2.9607740000000002,-1.335744,0.183559,-0.041881,0.9725020000000001,0.22909000000000002,-0.37387800000000004,-2.992655,-0.8586809999999999,-0.066761,0.402803,-0.9610540000000001
379,-2.907889,-1.34388,0.289721,-0.052098,0.9743649999999999,0.21885,1.323086,-2.0362169999999997,-1.218726,-0.214488,0.41755699999999996,-0.7265560000000001
380,-2.784846,-1.3759299999999999,0.444738,-0.067619,0.981074,0.18143499999999999,2.042884,-1.2627030000000001,-1.074753,-0.037468,0.285848,-1.322548
381,-2.656248,-1.3953,0.561298,-0.081448,0.98464,0.154425,1.1686860000000001,0.9947819999999999,-0.6254850000000001,0.090054,0.755732,-1.474494
382,-2.5551169999999996,-1.401282,0.6917399999999999,-0.093361,0.985667,0.140506,1.62394,-2.1430439999999997,-0.606533,0.12578599999999998,0.389913,-0.313815
383,-2.279331,-1.4501979999999999,1.0334079999999999,-0.09134400000000001,0.9927370000000001,0.07828,4.131231,-3.611789,-0.184418,0.557271,0.811264,0.24580100000000002
384,-1.516745,-1.4796799999999999,1.8810240000000003,-0.090849,0.9958520000000001,-0.004915,4.638653,-4.214124,0.021792,0.791593,0.9742559999999999,0.593279
385,-0.770664,-1.4437209999999998,2.701155,-0.08828,0.9919370000000001,-0.09092,4.480112,-2.817349,0.375681,0.977058,0.544196,1.0515370000000002
386,-0.503016,-1.384372,3.007812,-0.089347,0.9826729999999999,-0.162383,3.54218,-1.304218,0.013609,0.642173,0.11628,0.9944149999999999
387,-0.38889,-1.326899,-3.141074,-0.091561,0.970404,-0.223451,2.909774,-0.649491,0.13333499999999998,0.291894,0.067743,0.7275560000000001
388,-0.309323,-1.287666,-3.049789,-0.08504099999999999,0.9601860000000001,-0.26610100000000003,2.018407,-0.263832,0.631883,0.21680100000000002,0.23245700000000002,0.48363100000000003
389,-0.226505,-1.2675239999999999,-2.9554549999999997,-0.067067,0.954364,-0.291013,0.998619,-0.291653,1.279616,0.28592399999999996,0.292401,0.5702189999999999
390,-0.124572,-1.256838,-2.843403,-0.038370999999999995,0.951119,-0.306431,0.784459,-0.255425,1.728863,0.23408099999999998,0.203896,0.524433
391,-0.018705,-1.246517,-2.725245,-0.00596,0.94788,-0.31856799999999996,0.516918,-0.34435,1.8211119999999998,0.180764,0.128505,0.497813
392,0.069865,-1.24044,-2.615189,0.022644,0.9459270000000001,-0.32358600000000004,0.073653,-1.0220870000000002,1.7280849999999999,0.119003,0.019969999999999998,0.495095
393,0.140982,-1.2386620000000002,-2.515204,0.045816,0.945349,-0.322824,-0.076712,-1.206121,1.527513,-0.032526,-0.21884699999999999,0.474084
394,0.191664,-1.235636,-2.423665,0.06265599999999999,0.944358,-0.322895,-0.14873,-2.121668,1.442726,-0.11793900000000002,-0.29849899999999996,0.47671899999999995
395,0.214391,-1.236353,-2.34742,0.06983400000000001,0.944593,-0.320726,-0.347761,-2.605321,1.087305,-0.164286,-0.336088,0.537355
396,0.220119,-1.2396639999999999,-2.285428,0.07098600000000001,0.945675,-0.317267,-0.41746400000000006,-2.657494,0.8753770000000001,-0.162295,-0.232357,0.509833
397,0.214502,-1.244839,-2.234366,0.068161,0.9473450000000001,-0.312874,-0.41575500000000004,-2.700428,0.6885060000000001,-0.150573,-0.116198,0.48008
398,0.1969,-1.250645,-2.195682,0.061565999999999996,0.9491879999999999,-0.308626,-0.438138,-2.699379,0.44586099999999995,-0.169247,-0.08258,0.41325600000000007
399,0.169074,-1.26122,-2.168544,0.051264,0.952463,-0.300308,-0.730595,-2.6879779999999998,0.24618299999999999,-0.174906,-0.113107,0.241454
400,0.127978,-1.2819180000000001,-2.1488,0.036358,0.958564,-0.282544,-1.250682,-3.222326,0.059501,-0.137692,-0.139869,0.17422200000000002
401,0.061145000000000005,-1.308837,-2.147157,0.015825,0.965885,-0.258486,-1.371419,-3.547795,-0.228277,-0.168291,-0.075763,0.091738
402,-0.038342,-1.3369659999999999,-2.172798,-0.008882,0.972786,-0.231531,-1.3966,-3.852788,-0.3915,-0.171569,0.012032,-0.011191
403,-0.18174400000000002,-1.359102,-2.235995,-0.037977,0.977676,-0.20665100000000003,-0.9798540000000001,-4.262025,-0.7096,-0.136431,0.134323,-0.21189699999999997
404,-0.369702,-1.366311,-2.337132,-0.07337300000000001,0.979166,-0.189339,-0.48028000000000004,-4.509671,-1.016645,0.040902,0.155905,-0.23781599999999997
405,-0.560879,-1.3637270000000001,-2.4377020000000003,-0.109358,0.9786379999999999,-0.17408900000000002,-0.303753,-4.767453,-0.907192,0.154646,0.110275,-0.432829
406,-0.713903,-1.356391,-2.496027,-0.13931500000000002,0.977103,-0.160808,0.192427,-4.626824,-0.541779,0.358782,0.281961,-0.600132
407,-0.77144,-1.343479,-2.486913,-0.157114,0.974275,-0.161563,0.7362390000000001,-2.297876,-0.27818200000000004,0.314646,0.134978,-0.16575399999999998
408,-0.75942,-1.3308149999999999,-2.445913,-0.163644,0.971342,-0.172375,0.72836,-1.4073,-0.0069819999999999995,0.5228970000000001,0.02263,-0.154041
409,-0.742483,-1.318835,-2.397678,-0.16855699999999998,0.968425,-0.18368299999999999,0.9415959999999999,-1.583123,0.087668,0.18323599999999998,-0.226329,0.197828
410,-0.714912,-1.307769,-2.339352,-0.170444,0.965607,-0.19634000000000001,0.7594479999999999,-1.174916,0.19376300000000002,0.095752,0.34184200000000003,0.603887
411,-0.718933,-1.305524,-2.323968,-0.17265899999999998,0.9650209999999999,-0.197284,-0.165134,-1.1533010000000001,0.11891099999999999,0.086844,0.513159,0.271869
412,-0.771502,-1.321636,-2.345541,-0.171923,0.9691200000000001,-0.176769,-1.050684,-1.468229,0.5211899999999999,-0.262144,0.350064,0.44633100000000003
413,-0.815028,-1.344492,-2.379092,-0.163287,0.9745020000000001,-0.153886,-0.9928969999999999,-0.095989,0.430105,-0.060896000000000006,-0.217315,0.396837
414,-0.873755,-1.358199,-2.429795,-0.161779,0.9774860000000001,-0.135449,-0.776518,-0.788586,0.018035,0.000647,-0.333779,0.348507
415,-0.938631,-1.36248,-2.470259,-0.16684300000000002,0.9783799999999999,-0.122202,-0.251894,-1.456755,-0.109904,-0.016171,-0.26460500000000003,0.49086899999999994
416,-0.9809,-1.361774,-2.477627,-0.172431,0.978234,-0.115427,-0.041221,-2.027536,-0.077791,0.136878,-0.243463,0.501749
417,-1.0513569999999999,-1.359516,-2.506448,-0.18204700000000001,0.9777629999999999,-0.104098,-0.230981,-2.02049,-0.342976,0.249613,-0.063701,0.568133
418,-1.1609399999999999,-1.35832,-2.569346,-0.193412,0.977512,-0.08403,-0.7759050000000001,-2.6535830000000002,-0.32353899999999997,0.185508,-0.06026,0.3591
419,-1.3226280000000001,-1.363608,-2.661859,-0.199403,0.978613,-0.050526999999999996,-1.1271879999999999,-4.20717,0.08405900000000001,0.054475,0.003488,0.160634
420,-1.512979,-1.367067,-2.773431,-0.20198,0.979319,-0.011691,-1.1657899999999999,-3.6908269999999996,-0.069628,0.191528,0.042638,0.18341300000000002
421,-1.707071,-1.367904,-2.9022360000000003,-0.199632,0.9794879999999999,0.027374000000000002,-1.376794,-3.319589,0.248889,0.09286699999999999,0.052815,0.017669
422,-1.9119130000000002,-1.370147,-3.051899,-0.187819,0.9799370000000001,0.066675,-1.455871,-2.541931,0.5816939999999999,-0.058441999999999994,0.097623,0.062689
423,-2.12551,-1.366231,3.055571,-0.172677,0.9791489999999999,0.106993,-1.823187,-1.925874,0.551633,-0.183478,0.075874,-0.077284
424,-2.331346,-1.349358,2.888643,-0.15911199999999998,0.975583,0.151395,-1.895309,-2.3081560000000003,0.310201,-0.11966600000000001,0.025516,-0.25668
425,-2.488444,-1.326158,2.78117,-0.14718399999999998,0.970225,0.192351,-1.5131780000000001,-2.729366,0.085879,-0.11188,0.059621,-0.26524200000000003
426,-2.569044,-1.303282,2.734301,-0.143209,0.9644309999999999,0.22217699999999999,-1.3554540000000002,-1.477789,-0.28636500000000004,-0.043696,-0.061155999999999995,-0.075937
427,-2.62363,-1.279659,2.711638,-0.14211600000000002,0.957918,0.249387,-1.206468,-1.620818,-0.344961,0.122172,-0.09099,0.065874
428,-2.680283,-1.250975,2.678501,-0.139944,0.949292,0.281531,-1.6934220000000002,-1.046807,-0.146136,0.194555,-0.039044,0.080728
429,-2.736683,-1.214404,2.6331740000000003,-0.137441,0.937162,0.32068,-2.095275,-0.392788,-0.049368,0.18973299999999998,0.014421999999999999,-0.100236
430,-2.781057,-1.176153,2.587548,-0.135633,0.923134,0.359756,-2.026095,-0.035727999999999996,0.10875399999999999,0.1192,0.187538,-0.228714
431,-2.8155189999999997,-1.143197,2.551901,-0.13283399999999998,0.909964,0.392834,-1.6698490000000001,-0.060391999999999994,0.107002,-0.064492,-0.021277,-0.413433
432,-2.8431490000000004,-1.115491,2.527945,-0.129296,0.898127,0.420295,-1.308715,-0.37300300000000003,-0.084492,-0.086814,0.221273,-0.42415600000000003
433,-2.851871,-1.0951879999999998,2.5297419999999997,-0.13080899999999998,0.889014,0.43879399999999996,-0.765843,-0.565072,-0.474628,-0.10553499999999999,0.26864,-0.343472
434,-2.844225,-1.0810959999999998,2.550782,-0.137817,0.882474,0.44971400000000006,-0.409053,-0.531007,-0.77769,-0.125244,0.32461799999999996,-0.311775
435,-2.824831,-1.073001,2.5871880000000003,-0.148733,0.8786370000000001,0.45373199999999997,0.07269099999999999,-0.676461,-1.050809,-0.09636900000000001,0.5077,-0.375256
436,-2.784621,-1.073992,2.6452299999999997,-0.166548,0.8791100000000001,0.44656999999999997,0.808454,-0.428233,-1.426274,0.164244,0.726649,-0.376227
437,-2.716503,-1.088877,2.7232830000000003,-0.19114,0.886107,0.422229,1.727273,0.392852,-1.363225,0.380486,0.810091,-0.345127
438,-2.602382,-1.117397,2.8232150000000003,-0.22490500000000002,0.898963,0.375872,2.659813,1.598683,-1.3571879999999998,0.20725100000000002,0.827355,-0.28286999999999995
439,-2.450697,-1.153789,2.9600400000000002,-0.258092,0.9143049999999999,0.31214200000000003,3.4403349999999997,1.130017,-1.248586,0.279454,0.5348069999999999,-0.2127
440,-2.266524,-1.192536,-3.141375,-0.28347100000000003,0.929309,0.236702,3.979743,0.594396,-0.9706670000000001,0.265313,0.367368,0.016198
441,-2.076111,-1.225765,-2.9374689999999997,-0.295953,0.9410649999999999,0.16372799999999998,3.750806,-0.280148,-0.518219,0.299661,-0.017435,0.505492
442,-1.896907,-1.245475,-2.737948,-0.302766,0.947548,0.102391,3.1782369999999998,-0.473915,-0.316872,0.420259,-0.074791,0.769374
443,-1.735785,-1.2636100000000001,-2.56929,-0.29827,0.9531879999999999,0.049662,2.4806,0.44318900000000006,0.577591,0.13225399999999998,-0.060839,0.799367
444,-1.596013,-1.280578,-2.435027,-0.286069,0.958181,0.007215000000000001,1.789441,0.560343,0.650593,0.084424,-0.045889,0.731371
445,-1.488756,-1.292994,-2.331588,-0.273319,0.9616600000000001,-0.022474,1.2710299999999999,0.359687,0.663253,0.092563,0.16369,0.197049
446,-1.386774,-1.300889,-2.230228,-0.26214,0.9637959999999999,-0.048792,1.4402780000000002,0.131698,0.5215850000000001,0.04339,0.106807,0.15425999999999998
447,-1.2588219999999999,-1.3040200000000002,-2.099067,-0.250897,0.964626,-0.080916,1.668795,-0.01204,0.5714359999999999,0.099179,0.060215,0.155302
448,-1.1480629999999998,-1.302699,-1.9768080000000001,-0.241579,0.964277,-0.108675,1.423556,-0.545587,0.47853900000000005,0.116441,-0.19764500000000002,0.304537
449,-1.0700049999999999,-1.2992139999999999,-1.885313,-0.235315,0.963348,-0.128795,1.032183,-0.42959200000000003,0.315424,0.095194,-0.396987,0.268962
450,-1.012629,-1.293677,-1.816395,-0.23206300000000002,0.9618469999999999,-0.1449,0.8992760000000001,-0.48071499999999995,0.161805,0.10445399999999999,-0.428385,0.204028
451,-0.97129,-1.2840129999999998,-1.757868,-0.23354,0.959159,-0.159604,0.967701,-0.884956,-0.038025,0.08463,-0.411963,0.24401599999999998
452,-0.9491370000000001,-1.27104,-1.716765,-0.24004299999999998,0.955408,-0.171971,0.7236130000000001,-0.813987,-0.257738,0.10898599999999999,-0.30430100000000004,0.375126
453,-0.9506879999999999,-1.260329,-1.7010330000000002,-0.24862399999999998,0.952191,-0.177535,0.409042,-0.855191,-0.336794,0.017422,-0.24604499999999999,0.41059799999999996
454,-0.972599,-1.249423,-1.7081819999999999,-0.26102,0.948802,-0.17788299999999999,0.099613,-0.658077,-0.610537,-0.11921400000000001,-0.152263,0.33984000000000003
455,-1.010859,-1.237668,-1.7334310000000002,-0.277064,0.945024,-0.173681,-0.070268,-0.828527,-0.727941,-0.11343900000000001,-0.18113900000000002,0.235891
456,-1.050007,-1.229043,-1.757961,-0.290709,0.942168,-0.16675299999999998,-0.137854,-0.627034,-0.442388,-0.142092,-0.22135900000000003,0.290304
457,-1.0698969999999999,-1.2270729999999999,-1.776882,-0.295595,0.941507,-0.16183,-0.374151,0.243023,-0.169552,-0.31466500000000003,-0.171975,0.26763400000000004
458,-1.098957,-1.2298719999999999,-1.821822,-0.297824,0.9424459999999999,-0.151974,-0.91812,0.8993530000000001,-0.260719,0.282977,-0.44485699999999995,0.28577800000000003
459,-1.141772,-1.236394,-1.894222,-0.29846,0.944607,-0.136528,-1.389429,1.519565,-0.174007,0.42439099999999996,-0.515682,0.315239
460,-1.185908,-1.245611,-1.9828700000000001,-0.296111,0.947591,-0.119952,-1.515476,2.199642,-0.17255399999999999,0.326308,-0.204214,0.156527
461,-1.225741,-1.250759,-2.0717209999999997,-0.296058,0.949224,-0.10641400000000001,-1.322683,2.1720580000000003,-0.367725,0.160652,0.081996,-0.11171099999999999
462,-1.266777,-1.248038,-2.152643,-0.302637,0.948364,-0.094951,-0.948657,1.180767,-0.5454399999999999,0.406564,-0.39357,-0.34320500000000004
463,-1.317333,-1.246744,-2.216445,-0.308237,0.947953,-0.07984400000000001,-1.141355,0.632636,-0.23416199999999998,0.47141400000000006,-0.141099,-0.016256
464,-1.309484,-1.2515319999999999,-2.2476580000000004,-0.303213,0.949466,-0.081087,-0.132232,2.455498,0.44459799999999994,0.43066899999999997,-0.49429700000000004,0.091921
465,-1.224275,-1.264951,-2.21845,-0.28320100000000004,0.953593,-0.102262,0.358404,2.645722,0.667833,0.129912,-0.8233590000000001,-0.5422239999999999
466,-1.187494,-1.263405,-2.191088,-0.280616,0.953126,-0.113157,0.43272299999999997,-1.177409,-0.23046399999999997,0.21396500000000002,-0.803972,-0.520174
467,-1.279134,-1.265884,-2.243128,-0.287529,0.953873,-0.086323,-1.545641,-2.026647,-0.060529,0.233727,-0.15168800000000002,-0.307643
468,-1.4368379999999998,-1.265392,-2.3337790000000003,-0.297983,0.9537260000000001,-0.040158,-0.75707,-3.916132,-0.555732,0.442042,0.144297,0.480099
469,-1.412572,-1.2539049999999998,-2.278211,-0.30772,0.950209,-0.049099000000000004,1.974088,0.17335,-0.232111,0.183925,0.160661,-0.501667
470,-1.225384,-1.239984,-2.0790599999999997,-0.305625,0.945779,-0.109976,3.621107,-0.44000900000000004,0.41043,-0.147286,0.7896489999999999,-0.67187
471,-1.131599,-1.246602,-1.933312,-0.288312,0.947908,-0.135449,0.820465,-3.911432,1.6932060000000002,0.136548,0.38861,-0.595249
472,-1.159553,-1.274909,-1.837141,-0.267275,0.9565440000000001,-0.11656099999999998,0.989807,-6.585764,1.9349610000000002,0.5106069999999999,0.664809,0.623153
473,-1.096769,-1.301703,-1.684125,-0.23654099999999997,0.9640120000000001,-0.12135599999999999,1.640218,-1.6918970000000002,2.172515,-0.649415,1.946525,0.216311
474,-0.976815,-1.342058,-1.611102,-0.187909,0.9739530000000001,-0.126902,-1.70724,3.840135,2.130293,-0.77283,1.760071,-0.641332
475,-0.9305629999999999,-1.3755629999999999,-1.6170950000000002,-0.155573,0.9810030000000001,-0.115888,0.055189,1.30093,1.033839,-0.11606400000000001,-0.220077,0.079175
476,-0.786726,-1.370607,-1.473035,-0.140797,0.980029,-0.140424,1.548431,-0.057067999999999994,0.481988,-0.152675,-0.07095599999999999,0.470624
477,-0.706159,-1.35346,-1.388657,-0.139924,0.976475,-0.16406300000000001,0.940815,-0.267873,-0.086007,-0.047103,-0.17979900000000001,0.460449
478,-0.70448,-1.3468719999999998,-1.371873,-0.143812,0.9750340000000001,-0.169195,0.044635,-0.965751,-0.077486,0.122129,-0.130795,0.300604
479,-0.7669100000000001,-1.349594,-1.408052,-0.152246,0.975634,-0.15798199999999998,-0.611298,-1.612408,-0.299156,0.13553800000000002,0.118833,0.026329
480,-0.9431719999999999,-1.363556,-1.545459,-0.166547,0.9786020000000001,-0.120827,-2.4595580000000004,-2.317009,-0.447896,0.269758,0.366124,-0.548851
481,-1.2410809999999999,-1.392083,-1.8247419999999999,-0.168188,0.984073,-0.057554999999999995,-2.476148,-0.16429100000000002,0.415558,0.24675500000000003,0.052868,-0.724992
482,-1.171362,-1.398358,-1.7688490000000001,-0.158077,0.9851690000000001,-0.066729,1.8279470000000002,0.724539,0.316296,0.08114299999999999,-0.083756,-0.34924099999999997
483,-0.9609049999999999,-1.375721,-1.554553,-0.158892,0.981033,-0.111027,2.018536,-0.5270630000000001,-0.139036,-0.012570999999999999,-0.164306,-0.317577
484,-0.889993,-1.362741,-1.4652049999999999,-0.16050899999999999,0.978434,-0.13001,0.762271,-0.648269,0.091626,-0.039076,-0.045619,-0.241587
485,-0.789725,-1.347342,-1.365867,-0.15737,0.975138,-0.156014,1.7851,0.543103,0.172019,-0.149957,-0.119913,-0.378471
486,-0.648586,-1.314683,-1.2318120000000001,-0.153022,0.967382,-0.201882,2.431629,0.420959,0.053846000000000005,-0.219308,-0.11391199999999999,-0.471916
487,-0.540875,-1.269379,-1.129685,-0.152856,0.954917,-0.254497,2.765479,0.653987,-0.168447,-0.061423,-0.189353,0.061733
488,-0.434065,-1.219285,-1.0446030000000002,-0.144807,0.9388540000000001,-0.312386,2.94112,1.668077,0.224586,0.10345499999999999,0.185872,0.0018390000000000001
489,-0.326058,-1.163252,-0.9642719999999999,-0.126957,0.9180969999999999,-0.375472,3.230691,1.440631,0.37538299999999997,0.081623,0.334466,0.04634
490,-0.263171,-1.098809,-0.902136,-0.11827599999999999,0.890667,-0.439003,3.630649,-0.329861,0.296056,0.149862,0.455967,0.4329
491,-0.216295,-1.036948,-0.8445799999999999,-0.109206,0.8608549999999999,-0.496993,2.941743,0.26802600000000004,0.825657,0.041960000000000004,0.629242,0.9868
492,-0.160494,-0.9994040000000001,-0.7981779999999999,-0.086424,0.8411489999999999,-0.533853,1.506779,0.729024,0.804361,-0.006258,0.657737,0.9321530000000001
493,-0.128748,-0.996715,-0.7694479999999999,-0.069725,0.839691,-0.538569,-0.546614,0.77574,0.75898,-0.49675699999999995,0.426407,0.3231
494,-0.07686699999999999,-1.021327,-0.7427600000000001,-0.040103,0.8528020000000001,-0.520692,-1.2676049999999999,1.621616,0.8393860000000001,-0.1871,0.063854,0.191881
495,-0.028006,-1.044804,-0.723104,-0.014059,0.864826,-0.501875,-1.0811110000000002,1.604647,0.393125,-0.143335,-0.083454,0.297621
496,0.006909,-1.0664930000000001,-0.7182029999999999,0.0033380000000000003,0.8755120000000001,-0.48318599999999995,-1.121842,1.390188,-0.019218,-0.32610700000000004,-0.31856599999999996,0.33816599999999997
497,0.018468000000000002,-1.093538,-0.727596,0.008483,0.888257,-0.459268,-1.528572,0.758071,-0.36308,-0.51274,-0.35992199999999996,0.39942300000000003
498,0.007629,-1.1309850000000001,-0.749862,0.0032479999999999996,0.904832,-0.425756,-2.052505,0.27504,-0.592584,-0.49232299999999996,-0.34636,0.367788
499,-0.025061,-1.1771559999999999,-0.784961,-0.009611,0.9235190000000001,-0.383432,-2.461681,-0.225782,-0.734738,-0.364733,-0.290081,0.29486999999999997
500,-0.091935,-1.2295479999999999,-0.84109,-0.030724,0.9423379999999999,-0.33325,-2.787754,-1.067468,-0.9549219999999999,-0.156151,-0.244706,0.184797
501,-0.21676199999999998,-1.284837,-0.935686,-0.060666,0.959391,-0.27547699999999997,-3.058067,-2.138055,-0.99069,-0.035495,-0.289393,-0.031774000000000004
502,-0.408666,-1.337616,-1.0786229999999999,-0.091825,0.972936,-0.212044,-2.9624919999999997,-2.9140509999999997,-0.954845,0.043988,-0.20508400000000002,-0.17936
503,-0.643886,-1.3680510000000001,-1.26724,-0.120877,0.979517,-0.16104100000000002,-1.8852830000000003,-2.033662,-0.9409709999999999,0.405087,0.07578,-0.431596
504,-0.800005,-1.3787969999999998,-1.4089129999999999,-0.13688699999999998,0.981625,-0.132945,-1.087401,-0.318395,-0.6107199999999999,0.570267,0.173344,-0.700535
505,-0.9160590000000001,-1.381204,-1.5146110000000002,-0.14948599999999998,0.982081,-0.11476199999999999,-0.753686,-0.950722,-0.479392,0.645992,0.022695,-0.611587
506,-1.0127979999999999,-1.385774,-1.587723,-0.156063,0.9829319999999999,-0.09740900000000001,-0.651393,-1.236275,-0.021112,0.49834799999999996,-0.07106699999999999,-0.295444
507,-1.071757,-1.398151,-1.634326,-0.150837,0.9851340000000001,-0.082215,-0.699436,-0.220975,0.529522,0.244327,-0.246502,-0.12854000000000002
508,-1.12124,-1.418095,-1.68943,-0.136993,0.9883639999999999,-0.0661,-0.9861030000000001,0.27781300000000003,0.718092,-0.291001,-0.08089299999999999,-0.495805
509,-1.21434,-1.436548,-1.772819,-0.125431,0.991002,-0.046706,-0.56695,-0.927565,0.49289700000000003,-0.572689,0.34089200000000003,-0.43609799999999993
510,-1.0599129999999999,-1.429334,-1.618392,-0.12298800000000001,0.9900110000000001,-0.068937,2.04705,0.570171,-0.163744,-0.29598800000000003,0.210398,0.512312
511,-0.9011020000000001,-1.402992,-1.443106,-0.130943,0.9859540000000001,-0.103675,1.1603219999999999,-2.0443439999999997,-0.37809499999999996,-0.444008,0.78872,-0.37658
512,-0.967772,-1.388933,-1.460235,-0.14896199999999998,0.9835079999999999,-0.102573,0.129655,-1.457695,-0.7364229999999999,0.129278,1.73544,-0.786877
513,-0.904083,-1.375657,-1.436257,-0.152379,0.9810209999999999,-0.11990999999999999,1.074251,3.045841,-0.11175399999999999,0.824391,0.810834,-1.3016290000000001
514,-0.67471,-1.344874,-1.236548,-0.139929,0.9745879999999999,-0.174922,3.2092099999999997,1.110824,0.5529810000000001,0.41184,-0.12435299999999999,0.6646989999999999
515,-0.49133699999999997,-1.3069520000000001,-1.076223,-0.123043,0.9653950000000001,-0.22994099999999998,2.052839,1.795798,0.489546,0.17063499999999998,0.0352,1.097495
516,-0.386046,-1.290074,-1.022733,-0.10431700000000001,0.9608549999999999,-0.256659,0.515622,2.949707,0.171815,0.11133599999999999,0.09578500000000001,1.04711
517,-0.353049,-1.295691,-1.024608,-0.093925,0.962397,-0.254892,-0.763484,0.677239,0.007696,-0.039391,0.013372,0.393839
518,-0.432978,-1.324388,-1.079517,-0.10234299999999999,0.9697950000000001,-0.22141100000000002,-2.0606150000000003,-2.480568,-0.116959,0.045519,0.185372,-0.024301
519,-0.621324,-1.370011,-1.198854,-0.116094,0.9799100000000001,-0.162163,-2.918723,-4.048465,0.046767,0.104207,0.147058,-0.082069
520,-0.939901,-1.414075,-1.443762,-0.126032,0.9877440000000001,-0.092065,-3.02335,-3.410831,-0.012465,-0.043325,-0.13165,-0.366477
521,-1.2215049999999998,-1.434124,-1.694684,-0.12801700000000002,0.990675,-0.046626999999999995,-1.274201,-0.421476,0.02156,0.002879,-0.219648,-0.30315
522,-1.214045,-1.432676,-1.706184,-0.12900999999999999,0.990476,-0.048082,0.453196,1.304365,-0.167275,0.047452,-0.28578000000000003,-0.23286300000000001
523,-1.148479,-1.42337,-1.654353,-0.133986,0.989152,-0.060207000000000004,0.408547,0.19741199999999998,-0.361653,0.06272799999999999,-0.346056,-0.120121
524,-1.1698110000000002,-1.416428,-1.666402,-0.141557,0.988109,-0.060014,-0.165582,-0.7307859999999999,-0.31106300000000003,0.036714,-0.320415,-0.158858
525,-1.230832,-1.4142700000000001,-1.7172040000000002,-0.146963,0.987775,-0.05198,-0.317484,-0.260813,-0.2262,-0.059198,-0.325253,-0.251013
526,-1.2349709999999998,-1.409671,-1.7274919999999998,-0.15146500000000002,0.9870469999999999,-0.052868,0.217495,0.528928,-0.250181,-0.020746,-0.17440999999999998,-0.504795
527,-1.174142,-1.402443,-1.680549,-0.154548,0.9858620000000001,-0.064733,0.6550060000000001,0.890241,-0.142902,0.013113999999999999,-0.094718,-0.5412239999999999
528,-1.047541,-1.392931,-1.5773709999999999,-0.153254,0.984224,-0.088411,1.221241,1.463929,0.022687,0.048991,-0.0028699999999999997,-0.470671
529,-0.8897719999999999,-1.37571,-1.450291,-0.150607,0.981031,-0.122045,1.541863,1.677525,-0.12383,-0.044507,-0.13175699999999999,-0.296244
530,-0.764757,-1.3484180000000001,-1.352723,-0.152699,0.975376,-0.159137,1.787121,1.341283,-0.43253800000000003,-0.004634,-0.16333399999999998,-0.381833
531,-0.643474,-1.308574,-1.256163,-0.15553,0.965816,-0.20738499999999999,2.641798,1.5081639999999998,-0.282572,0.30389099999999997,0.038471,-0.45220600000000005
532,-0.492438,-1.248499,-1.126831,-0.14975,0.9485100000000001,-0.279111,4.099957,0.990715,-0.017487,0.049484,1.072654,-0.12868
533,-0.389858,-1.16867,-1.016561,-0.14874500000000002,0.9202309999999999,-0.362008,4.380566,-0.450325,0.202101,-0.076353,0.9757809999999999,0.273079
534,-0.32606799999999997,-1.0939290000000002,-0.938627,-0.147026,0.888437,-0.434813,3.9496900000000004,-0.174006,0.20621399999999998,-0.06436900000000001,0.733496,0.576079
535,-0.276049,-1.028886,-0.889603,-0.140577,0.856725,-0.496246,2.97128,0.8379049999999999,0.280337,-0.272692,0.428126,1.0405879999999998
536,-0.22830799999999998,-0.998283,-0.852666,-0.12261300000000001,0.840542,-0.527688,0.9826389999999999,0.6912189999999999,0.5913729999999999,-0.314734,0.157627,0.661203
537,-0.208598,-0.995742,-0.8357379999999999,-0.112632,0.8391629999999999,-0.53209,-0.070083,0.278275,0.343131,-0.262414,0.12020299999999999,0.37500100000000003
538,-0.176044,-1.008969,-0.822377,-0.093301,0.846283,-0.5245,-0.915063,1.4871299999999998,0.600599,-0.082175,0.048462,0.425256
539,-0.123582,-1.036941,-0.8045939999999999,-0.062726,0.860851,-0.504975,-1.480601,1.9959580000000001,0.651544,-0.089496,-0.14458900000000002,0.41804600000000003
540,-0.072951,-1.0696940000000001,-0.791343,-0.035013999999999997,0.8770540000000001,-0.47911499999999996,-1.6482689999999998,1.9103419999999998,0.363131,-0.182088,-0.42830799999999997,0.41566800000000004
541,-0.034198,-1.106098,-0.78895,-0.015323,0.893957,-0.447892,-1.957815,1.7870380000000001,0.032114,-0.311779,-0.60111,0.386627
542,-0.014336000000000002,-1.1498959999999998,-0.7993819999999999,-0.005857,0.9127209999999999,-0.408541,-2.285468,1.2046270000000001,-0.28989499999999996,-0.278017,-0.609132,0.324556
543,-0.034260000000000006,-1.1957520000000001,-0.831392,-0.012548,0.930491,-0.366098,-2.293278,-0.051552,-0.760494,-0.135737,-0.608455,0.291635
544,-0.11823199999999999,-1.238652,-0.9002129999999999,-0.038462,0.9453450000000001,-0.323794,-2.17643,-1.507674,-1.15519,-0.049352,-0.367388,0.276248
545,-0.266074,-1.2755670000000001,-1.000143,-0.07650599999999999,0.956735,-0.28071999999999997,-2.065987,-3.4397309999999996,-1.072894,-0.026139,0.226675,0.006856
546,-0.460941,-1.311313,-1.102121,-0.114125,0.9665229999999999,-0.229803,-2.2970330000000003,-5.598466,-0.485288,0.066594,0.23237600000000003,-0.165949
547,-0.737032,-1.352148,-1.268651,-0.145784,0.9761920000000001,-0.160615,-3.1273720000000003,-4.920317,-0.45670600000000006,0.382585,0.421498,-0.625945
548,-0.954831,-1.386542,-1.474098,-0.149542,0.983073,-0.105851,-2.228312,1.118298,0.203065,0.652227,0.192693,-0.8617239999999999
549,-1.07671,-1.412723,-1.623085,-0.13858900000000002,0.987532,-0.074651,-1.477095,0.7755489999999999,0.549515,0.470559,-0.16426,-0.83401
550,-1.135398,-1.431743,-1.677731,-0.125673,0.990348,-0.058460000000000005,-0.36736599999999997,-0.7329600000000001,0.672431,0.17241099999999998,-0.42815299999999995,-0.803769
551,-1.067069,-1.4412280000000002,-1.595011,-0.11315599999999999,0.991618,-0.062366,0.682905,-0.15499100000000002,0.680095,-0.338336,-0.590144,-0.514813
552,-0.8109529999999999,-1.4269610000000001,-1.351744,-0.10391199999999999,0.9896729999999999,-0.098732,2.5583970000000003,0.7967920000000001,-0.002369,0.05375599999999999,-0.168918,0.419716
553,-0.626514,-1.374018,-1.1513149999999999,-0.114632,0.9807020000000001,-0.158378,2.882747,-1.706246,-0.37290999999999996,0.158745,0.191143,0.144858
554,-0.6165069999999999,-1.35188,-1.075905,-0.125566,0.976133,-0.17719100000000002,0.22404200000000002,-3.5187440000000003,0.18234,-0.552321,1.437853,0.3151
555,-0.681471,-1.3687209999999999,-1.115758,-0.12643,0.9796520000000001,-0.155876,-1.2223680000000001,-0.08158,0.224448,-0.587208,1.021523,0.243126
556,-0.75302,-1.3881649999999999,-1.176318,-0.124199,0.983369,-0.13251400000000002,-0.6722239999999999,-0.542065,0.085739,0.026664999999999998,0.139922,-0.667978
557,-0.70665,-1.38018,-1.143457,-0.12301600000000001,0.9818879999999999,-0.144094,1.003096,1.1057299999999999,0.012009,0.324265,0.23744200000000001,0.47170100000000004
558,-0.62331,-1.364506,-1.0794920000000001,-0.119564,0.9787969999999999,-0.166312,0.7696189999999999,0.844735,-0.051245000000000006,0.169293,0.43540200000000007,0.541891
559,-0.622981,-1.362688,-1.087381,-0.120548,0.9784229999999999,-0.167796,-0.410347,0.048114,-0.144992,0.084766,0.537705,0.34218899999999997
560,-0.709725,-1.375467,-1.15978,-0.126474,0.980984,-0.147225,-1.1946219999999999,-1.21025,-0.195859,0.232904,0.12183,0.027841
561,-0.847914,-1.392009,-1.27338,-0.13335999999999998,0.98406,-0.117648,-1.325908,-1.1674069999999999,-0.140215,0.274138,0.047968000000000004,-0.165388
562,-0.943334,-1.4015,-1.364088,-0.13639500000000002,0.9857030000000001,-0.098919,-0.47171199999999996,0.24295,-0.064485,0.157055,0.031997000000000005,-0.747899
563,-0.8787280000000001,-1.396089,-1.312967,-0.133828,0.984778,-0.110919,0.9385450000000001,0.8286620000000001,0.092029,-0.222877,-0.242956,-0.156918
564,-0.79481,-1.386261,-1.246726,-0.130961,0.983022,-0.128518,0.49582299999999996,0.962749,-0.022330000000000003,-0.349935,-0.277211,-0.11826199999999999
565,-0.787091,-1.383544,-1.2534809999999998,-0.131857,0.982519,-0.131411,-0.08002100000000001,0.584203,-0.228829,-0.15632000000000001,-0.190253,-0.335096
566,-0.785958,-1.375705,-1.267567,-0.137152,0.98103,-0.136998,0.396279,0.9583430000000001,-0.432149,-0.083689,-0.103726,-0.364085
567,-0.7289220000000001,-1.358466,-1.239419,-0.14036500000000002,0.977542,-0.157187,1.07566,1.6917919999999997,-0.356772,-0.027665,0.016034,-0.515787
568,-0.6415310000000001,-1.3303129999999999,-1.1825,-0.142527,0.971223,-0.19081800000000002,1.7983939999999998,1.521093,-0.386756,0.164865,0.258361,-0.501916
569,-0.537,-1.280967,-1.093061,-0.146198,0.9582930000000001,-0.245563,3.229173,0.5638489999999999,-0.405445,0.253269,0.098501,-0.333661
570,-0.435962,-1.215545,-1.004624,-0.14688099999999998,0.937559,-0.315292,3.5970190000000004,1.201933,-0.187912,0.237472,0.038942000000000004,-0.100617
571,-0.35385300000000003,-1.150622,-0.9425209999999999,-0.14135,0.913018,-0.38264699999999996,3.452981,0.9521379999999999,-0.19927999999999998,0.10498800000000001,-0.211998,0.559587
572,-0.31054699999999996,-1.076544,-0.9038200000000001,-0.144959,0.880324,-0.451682,3.852978,0.163626,-0.49351000000000006,0.004639,-0.346785,0.8106760000000001
573,-0.285584,-1.010024,-0.870094,-0.149829,0.8468450000000001,-0.510299,3.008276,-0.357848,0.110145,0.04964,-0.237683,0.910751
574,-0.27150799999999997,-0.9718190000000001,-0.837435,-0.151202,0.8259129999999999,-0.543144,1.605197,-0.764426,0.437355,0.075244,0.558227,0.815285
575,-0.25238499999999997,-0.9585940000000001,-0.809567,-0.143504,0.818384,-0.556465,0.332379,0.187126,0.676141,0.079493,0.715383,0.659263
576,-0.21742899999999998,-0.9687309999999999,-0.789151,-0.122172,0.824168,-0.5530109999999999,-0.645095,1.301725,0.6443840000000001,-0.053899,0.507848,0.562654
577,-0.179971,-0.986692,-0.775867,-0.09871,0.834206,-0.5425449999999999,-0.913274,1.300078,0.489757,-0.30195500000000003,0.011923999999999999,0.348575
578,-0.14399,-1.0142149999999999,-0.767386,-0.075806,0.849066,-0.5228189999999999,-1.590614,1.487055,0.405738,-0.309235,-0.152319,0.255119
579,-0.11746,-1.054724,-0.768176,-0.05782999999999999,0.869764,-0.490066,-2.2454330000000002,1.2752299999999999,0.13331199999999999,-0.335832,-0.244062,0.25088499999999997
580,-0.11068399999999999,-1.105824,-0.784559,-0.049529000000000004,0.893834,-0.445654,-2.7757490000000002,0.8929239999999999,-0.237371,-0.262559,-0.241444,0.248495
581,-0.13503099999999998,-1.164748,-0.821642,-0.053173000000000005,0.918689,-0.391385,-3.123575,0.156934,-0.497367,-0.144322,-0.17808800000000002,0.226056
582,-0.197995,-1.2224540000000002,-0.877655,-0.067143,0.93994,-0.33466999999999997,-2.8638779999999997,-0.9867889999999999,-0.551772,0.017033,-0.299956,0.186339
583,-0.297428,-1.267471,-0.9466049999999999,-0.087536,0.954349,-0.28557899999999997,-2.168069,-2.1173919999999997,-0.535849,0.084774,-0.28026100000000004,0.104823
584,-0.436754,-1.295464,-1.0359049999999999,-0.114999,0.962335,-0.246344,-1.587065,-2.975823,-0.818042,0.22355,-0.104486,-0.158288
585,-0.62055,-1.3155059999999998,-1.1614959999999999,-0.14683800000000002,0.96759,-0.205442,-1.848556,-3.046095,-0.8667799999999999,0.443087,0.21960500000000002,-0.560473
586,-0.796786,-1.3410389999999999,-1.294629,-0.162858,0.973722,-0.159191,-1.97927,-1.900469,-0.069063,0.505296,0.319827,-0.870167
587,-0.9363950000000001,-1.3649930000000001,-1.405309,-0.164588,0.9788969999999999,-0.121117,-1.533971,-1.536668,0.208114,0.42664300000000005,0.092239,-0.580376
588,-1.049022,-1.3835680000000001,-1.4935049999999999,-0.161365,0.982524,-0.09277200000000001,-1.014091,-1.07359,0.369249,0.272068,-0.2279,-0.34308
589,-1.107127,-1.396406,-1.535191,-0.155183,0.984833,-0.077596,-0.42672200000000005,-0.913839,0.403057,-0.181609,-0.22926300000000002,-0.725627
590,-1.07492,-1.4028530000000001,-1.4776129999999998,-0.147018,0.985931,-0.07953099999999999,0.842377,-1.1286610000000001,0.543589,-0.633042,0.063081,0.19484200000000002
591,-0.888468,-1.3895389999999999,-1.305949,-0.139902,0.983618,-0.113673,1.791643,1.8868479999999999,0.05924600000000001,-0.5324,0.52157,0.395335
592,-0.76486,-1.371836,-1.215256,-0.136857,0.980273,-0.142598,0.721595,1.24679,-0.121528,-0.724395,1.0213139999999998,0.08849
593,-0.7801680000000001,-1.367715,-1.237775,-0.14186500000000002,0.97945,-0.14335599999999998,-0.133236,0.133683,-0.47217700000000007,-0.30459200000000003,0.808484,0.5614779999999999
594,-0.854418,-1.356663,-1.289855,-0.16026300000000002,0.9771610000000001,-0.13953800000000002,-0.5902189999999999,-3.208021,-0.890898,0.09196499999999999,1.1502350000000001,-1.442402
595,-1.054454,-1.353721,-1.4267020000000001,-0.18729300000000002,0.9765309999999999,-0.10632899999999999,-0.201043,-0.8541860000000001,-0.8559450000000001,0.9215,0.146378,0.21308000000000002
596,-0.907151,-1.333602,-1.3034299999999999,-0.1851,0.972001,-0.144742,2.2591330000000003,1.579094,0.425033,0.291012,-0.341783,0.519925
597,-0.735691,-1.3163049999999998,-1.1572120000000001,-0.168949,0.967791,-0.186639,1.4880799999999998,1.6945119999999998,0.46863699999999997,0.023381,0.078138,0.806405
598,-0.667341,-1.313105,-1.131633,-0.157724,0.966981,-0.200173,-0.45644700000000005,2.299602,0.020581,0.008829,0.37654,0.559182
599,-0.694752,-1.3318459999999999,-1.186021,-0.15152100000000002,0.9715870000000001,-0.18182,-1.320059,0.430356,0.157949,0.295625,0.18548699999999999,0.12389800000000001
600,-0.7880659999999999,-1.3590719999999998,-1.2627899999999999,-0.148989,0.97767,-0.148196,-1.853735,-1.649766,0.263709,0.181399,-0.127588,-0.076581
601,-1.015139,-1.393309,-1.4422469999999998,-0.149991,0.98429,-0.093132,-2.697387,-2.995549,0.280905,-0.08580299999999999,-0.201667,-0.187264
602,-1.378968,-1.418252,-1.7507009999999998,-0.14916,0.9883879999999999,-0.028968999999999998,-2.713332,-2.626431,0.161748,-0.126155,-0.169311,-0.501426
603,-1.627089,-1.420185,-1.9842509999999998,-0.149799,0.9886799999999999,0.008440999999999999,-0.961519,0.41951099999999997,-0.104451,-0.058133000000000004,-0.162813,-0.485721
604,-1.592699,-1.417341,-1.9773720000000001,-0.152813,0.9882489999999999,0.003348,0.410318,1.480349,-0.183822,0.121563,-0.15446300000000002,-0.388739
605,-1.506116,-1.411568,-1.9089180000000001,-0.158221,0.98735,-0.010248,0.49341199999999996,0.6282909999999999,-0.29645,0.09952000000000001,-0.111755,-0.394125
606,-1.483423,-1.406675,-1.891025,-0.162759,0.986562,-0.014256999999999999,0.001893,0.11283800000000001,-0.172104,0.017616999999999997,-0.12233499999999999,-0.489451
607,-1.461978,-1.4037709999999999,-1.874913,-0.16526300000000002,0.986084,-0.018055,0.389833,0.506663,-0.16028499999999998,-0.092687,-0.13948,-0.448162
608,-1.3345770000000001,-1.396356,-1.764246,-0.168733,0.984824,-0.040616,1.3196729999999999,1.066066,-0.200441,-0.059370000000000006,-0.174536,-0.46432799999999996
609,-1.1586040000000002,-1.382601,-1.606488,-0.171414,0.9823440000000001,-0.074949,1.618644,1.1098059999999998,-0.209091,-0.160083,-0.05612,-0.500674
610,-0.990806,-1.361772,-1.471865,-0.17357,0.978234,-0.11371500000000001,1.686188,2.237168,-0.342523,-0.163298,-0.19553399999999999,-0.15632000000000001
611,-0.838886,-1.332853,-1.368762,-0.17533900000000002,0.971825,-0.15751800000000002,1.9151799999999999,2.483021,-0.48438000000000003,0.114105,-0.15815,-0.353194
612,-0.692132,-1.28524,-1.246636,-0.179769,0.9595049999999999,-0.21686999999999998,3.4252830000000003,0.9786870000000001,-0.42063,0.41490699999999997,0.20205499999999998,-0.291691
613,-0.535848,-1.216443,-1.115756,-0.17715899999999998,0.9378709999999999,-0.298348,4.0713230000000005,2.216832,-0.255334,0.131078,0.361201,0.112603
614,-0.41995299999999997,-1.1425040000000002,-1.0315969999999999,-0.16933199999999998,0.909676,-0.379229,4.202623,0.9724290000000001,-0.32866599999999996,0.017828,0.217094,0.28174099999999996
615,-0.38350300000000004,-1.053995,-0.976305,-0.184878,0.8694040000000001,-0.45820900000000003,4.536989,-1.099617,-0.59714,0.175097,0.037731,0.791934
616,-0.362553,-0.98754,-0.936744,-0.195328,0.834674,-0.514943,2.661567,-0.189088,0.032731,0.038056,0.5413640000000001,0.662801
617,-0.325019,-0.962441,-0.9076700000000001,-0.182501,0.8205889999999999,-0.541597,0.8432639999999999,1.057874,0.395515,0.072012,0.8341049999999999,0.593476
618,-0.29235,-0.960335,-0.8918530000000001,-0.165211,0.819384,-0.548922,-0.11368199999999999,0.946775,0.505404,0.110417,0.895597,0.500613
619,-0.238656,-0.9814309999999999,-0.8702799999999999,-0.131397,0.8312930000000001,-0.540079,-1.242377,2.146183,0.9734780000000001,-0.220135,0.011617,0.12362100000000001
620,-0.185478,-1.014589,-0.8541129999999999,-0.097366,0.8492639999999999,-0.518913,-1.612507,1.7910439999999999,0.5964020000000001,-0.013275,-0.300741,0.232719
621,-0.153503,-1.049174,-0.852001,-0.076188,0.8670120000000001,-0.492428,-1.798548,1.34677,0.23888600000000001,-0.086836,-0.41548900000000005,0.276043
622,-0.141672,-1.092973,-0.8620540000000001,-0.06493,0.887998,-0.45524,-2.491968,0.860216,-0.028117000000000003,-0.401791,-0.179929,0.407785
623,-0.157013,-1.149525,-0.8902629999999999,-0.063942,0.9125700000000001,-0.40389,-3.0695639999999997,0.28371799999999997,-0.280308,-0.37632,-0.049944999999999996,0.37116
624,-0.21632800000000002,-1.210227,-0.9440270000000001,-0.075728,0.9356959999999999,-0.344584,-3.180231,-1.136839,-0.580499,-0.271959,-0.016537,0.223902
625,-0.36177,-1.262643,-1.040694,-0.107347,0.952895,-0.283667,-2.705909,-3.676882,-0.884784,-0.094939,0.18518199999999999,-0.195627
626,-0.5699649999999999,-1.289417,-1.160468,-0.149837,0.960673,-0.23378400000000002,-1.546259,-4.999244,-1.002108,-0.027195999999999998,0.354054,-0.26171500000000003
627,-0.7163189999999999,-1.311585,-1.250357,-0.168301,0.966592,-0.193321,-2.111968,-0.9065270000000001,0.303677,0.052929,0.44246499999999994,-0.103691
628,-0.830485,-1.3454840000000001,-1.366768,-0.164934,0.9747239999999999,-0.150693,-2.023329,-0.201625,0.038474,0.32600500000000004,0.136817,-0.837008
629,-0.9542200000000001,-1.364494,-1.4746780000000002,-0.167121,0.9787950000000001,-0.118448,-1.128652,-1.247657,0.044996,0.507835,-0.5234880000000001,-0.459784
630,-1.026255,-1.372673,-1.523255,-0.16835999999999998,0.9804379999999999,-0.101962,-0.401548,-1.109637,0.06378500000000001,0.535578,-0.7651060000000001,-0.331662
631,-1.0288030000000001,-1.377838,-1.52355,-0.164278,0.981441,-0.098919,0.08340499999999999,0.696498,0.31909499999999996,0.548586,-1.1273,0.022213
632,-0.945947,-1.3762809999999999,-1.464893,-0.15676600000000002,0.981142,-0.113068,0.7619020000000001,1.214728,0.137299,0.40231,-1.008745,0.355836
633,-0.849692,-1.3617700000000001,-1.377151,-0.155852,0.978233,-0.136998,1.233632,-0.124144,-0.04997,0.30178699999999997,-1.031639,0.203267
634,-0.834815,-1.356529,-1.315022,-0.157595,0.977132,-0.142741,0.11750899999999999,-4.076941000000001,0.540162,-0.115721,-0.176763,-0.251256
635,-0.89804,-1.3687479999999999,-1.288964,-0.156948,0.979658,-0.125049,-0.215838,-3.81319,0.672092,-0.270557,1.422045,0.103717
636,-1.099831,-1.3963860000000001,-1.404891,-0.154633,0.9848290000000001,-0.078736,-2.259944,-4.217605000000001,0.482075,-0.698943,2.742573,-0.276549
637,-1.275349,-1.417259,-1.547415,-0.146305,0.988236,-0.044529,-0.605677,-0.030529,0.510698,-0.252102,-0.316102,-0.091641
638,-1.194174,-1.419719,-1.49775,-0.139951,0.988609,-0.055351,0.506092,1.877572,0.032114,-0.12066900000000001,0.024863999999999997,-0.507698
639,-1.110571,-1.4081,-1.447451,-0.145123,0.9867940000000001,-0.07194199999999999,0.7790590000000001,1.8295830000000002,-0.4573,0.458111,0.952659,-0.150135
640,-0.9777110000000001,-1.395543,-1.343887,-0.14457799999999998,0.984682,-0.09745,0.9693940000000001,1.045877,0.091963,0.40980600000000006,0.402219,0.41738100000000006
641,-0.943308,-1.3915540000000002,-1.309909,-0.14432,0.983979,-0.104671,0.037351,-0.40237399999999995,-0.030195999999999997,0.18818900000000002,-0.299241,-0.009892
642,-0.975036,-1.394814,-1.328403,-0.14491099999999998,0.984555,-0.09824,-0.299523,-0.692527,0.094941,0.126112,-0.40926799999999997,-0.043469
643,-0.9971479999999999,-1.399116,-1.342668,-0.143489,0.9852989999999999,-0.092712,-0.193928,-0.181732,0.137753,0.110622,-0.253274,-0.33287100000000003
644,-0.9918959999999999,-1.401096,-1.341028,-0.14136600000000002,0.985635,-0.092397,0.15246800000000002,0.334202,0.018803,-0.14224900000000001,-0.017496,-0.169505
645,-0.952275,-1.394121,-1.306849,-0.14319300000000001,0.984433,-0.10190700000000001,0.502667,0.152847,-0.219937,-0.19485,-0.002561,-0.265509
646,-0.939925,-1.383035,-1.291402,-0.150727,0.982425,-0.110098,0.50571,-0.131654,-0.470583,-0.126648,-0.05934400000000001,-0.343881
647,-0.910644,-1.363497,-1.2636209999999999,-0.162572,0.97859,-0.12621300000000002,0.934717,0.1373,-0.701872,-0.092738,-0.15103,-0.369225
648,-0.875848,-1.336657,-1.231808,-0.178198,0.972714,-0.148561,1.245325,0.254011,-0.853676,-0.08266699999999999,-0.076276,-0.39312600000000003
649,-0.807349,-1.3028620000000002,-1.172369,-0.191261,0.9643200000000001,-0.183044,2.0080430000000002,0.626753,-0.689661,-0.07296,0.289556,-0.238313
650,-0.710973,-1.261477,-1.082474,-0.198648,0.952541,-0.230658,2.460613,0.5258520000000001,-0.358426,0.08255900000000001,0.8325540000000001,-0.11503
651,-0.6160979999999999,-1.215188,-0.993057,-0.201185,0.937435,-0.284146,3.059857,0.321979,-0.243952,0.29693400000000003,0.700535,0.149396
652,-0.541377,-1.156039,-0.900186,-0.207655,0.915214,-0.345342,3.355193,-0.967684,-0.06398,0.407179,0.544258,0.391393
653,-0.499612,-1.109085,-0.8341129999999999,-0.213423,0.895291,-0.39102800000000004,2.348391,-0.753804,0.069719,0.437467,0.548419,0.5772619999999999
654,-0.470159,-1.082645,-0.791273,-0.21246700000000002,0.883201,-0.418105,1.119459,-0.135214,0.419264,-0.07531399999999999,0.23708400000000002,0.671966
655,-0.43336800000000003,-1.0869950000000002,-0.766727,-0.195329,0.885233,-0.42214700000000005,-0.49850500000000003,0.9665459999999999,0.68963,-0.31861799999999996,0.056813999999999996,0.155027
656,-0.413992,-1.107246,-0.75608,-0.17986400000000002,0.8944709999999999,-0.409353,-0.8512930000000001,0.190697,0.545018,-0.318305,0.089782,0.037512000000000004
657,-0.408582,-1.122314,-0.7510600000000001,-0.172272,0.901106,-0.397906,-0.55535,0.080756,0.343196,-0.132675,0.018312000000000002,0.181505
658,-0.403933,-1.1359629999999998,-0.7516689999999999,-0.16557,0.90694,-0.387356,-0.710496,0.321525,0.20720700000000003,-0.10631099999999999,-0.123707,0.34020700000000004
659,-0.41043500000000005,-1.1523450000000002,-0.762491,-0.162135,0.9137190000000001,-0.37259699999999996,-0.917259,-0.008490000000000001,0.06518099999999999,-0.11246199999999999,-0.224541,0.318779
660,-0.43998400000000004,-1.171727,-0.785568,-0.165498,0.921423,-0.351553,-1.161704,-0.6473220000000001,-0.07244,-0.088027,-0.240515,0.25871900000000003
661,-0.49306400000000006,-1.192105,-0.822889,-0.174991,0.929149,-0.32566799999999996,-1.2398120000000001,-1.095948,-0.234781,-0.054211,-0.219783,0.193877
662,-0.566086,-1.210236,-0.87235,-0.189217,0.935699,-0.297763,-1.2408620000000001,-1.4406459999999999,-0.34651,-0.030937,-0.26709,0.139255
663,-0.6488510000000001,-1.226469,-0.9292360000000001,-0.203979,0.9413030000000001,-0.268962,-1.198437,-1.4781520000000001,-0.328006,-0.019074,-0.319629,0.09723899999999999
664,-0.732839,-1.23997,-0.986037,-0.21730100000000002,0.945774,-0.241434,-1.08381,-1.561841,-0.27796,0.024491,-0.343586,0.047067000000000005
665,-0.8215899999999999,-1.2512969999999999,-1.044416,-0.22998600000000002,0.949393,-0.21391300000000002,-1.060173,-1.744159,-0.25940100000000005,0.061849,-0.39581900000000003,-0.08229
666,-0.919842,-1.261933,-1.109869,-0.241813,0.95268,-0.18419100000000002,-1.1522540000000001,-1.798244,-0.240747,0.055823000000000005,-0.362912,-0.22466799999999998
667,-1.0171620000000001,-1.2710110000000001,-1.1806530000000002,-0.251198,0.9554,-0.15527,-1.0748799999999998,-1.1510200000000002,-0.191898,0.199547,-0.14322000000000001,-0.479023
668,-1.072262,-1.279684,-1.227554,-0.25208,0.957925,-0.137232,-0.5957060000000001,-0.26896,0.18847,0.305059,-0.036844,-0.8769889999999999
669,-1.08958,-1.288634,-1.240805,-0.24680900000000003,0.960456,-0.12887300000000002,-0.303631,-0.18107,0.334604,0.310713,-0.17302599999999999,-0.604312
670,-1.086502,-1.296401,-1.241343,-0.23980100000000001,0.9625889999999999,-0.126155,-0.097325,0.397658,0.351326,0.336069,-0.383961,-0.367268
671,-1.05459,-1.301418,-1.217743,-0.23145100000000002,0.963937,-0.131357,0.332189,0.32362399999999997,0.377922,0.31908200000000003,-0.426339,-0.409064
672,-1.0115610000000002,-1.302107,-1.166628,-0.225023,0.9641200000000001,-0.14083800000000002,0.685092,-0.691697,0.366733,0.28433400000000003,-0.44996,-0.3909
673,-0.968316,-1.2982049999999998,-1.100195,-0.221822,0.963076,-0.152566,0.924276,-1.203534,0.28573899999999997,-0.018962,-0.15121700000000002,-0.49449799999999994
674,-0.9318299999999999,-1.286359,-1.031995,-0.225252,0.9598200000000001,-0.167348,1.421918,-1.48919,-0.104593,-0.37251100000000004,0.568272,0.7211810000000001
675,-0.83859,-1.244423,-0.901494,-0.23843499999999998,0.947211,-0.214329,3.451001,-1.7542939999999998,-0.5686439999999999,-0.242339,0.700875,0.899357
676,-0.762216,-1.196405,-0.810649,-0.252527,0.930731,-0.264515,2.088881,0.33141,-0.692994,-0.247412,1.0158479999999999,0.575581
677,-0.8047350000000001,-1.195068,-0.828734,-0.264439,0.930241,-0.254405,-1.0008709999999998,-1.730962,-0.146844,-0.15237,1.0036889999999998,1.248317
678,-0.871653,-1.207344,-0.8838790000000001,-0.272097,0.934675,-0.228787,-1.68534,-0.9465290000000001,-0.183609,-0.41344899999999996,1.347933,0.764324
679,-1.0096459999999998,-1.228357,-1.014736,-0.284287,0.9419379999999999,-0.17869000000000002,-1.7590459999999999,0.202059,-0.4409,0.756272,0.14335799999999999,-0.109122
680,-0.9876219999999999,-1.223975,-0.993168,-0.28372600000000003,0.940458,-0.187178,1.213908,-0.639853,0.26353899999999997,0.437824,0.214633,0.582106
681,-0.951643,-1.217047,-0.9278139999999999,-0.282109,0.9380799999999999,-0.20104,0.8768020000000001,-1.2324899999999999,0.375175,0.33939,0.379882,0.820836
682,-0.9380799999999999,-1.22756,-0.906098,-0.271387,0.9416709999999999,-0.199004,-0.632953,0.151525,0.8286,0.21207600000000001,0.691127,0.8014359999999999
683,-0.978232,-1.2614370000000001,-0.946733,-0.25254,0.9525290000000001,-0.17002899999999999,-1.9332369999999999,-0.5138510000000001,1.0511059999999999,-0.20218699999999998,0.50583,0.11193900000000001
684,-1.12276,-1.303778,-1.059292,-0.23780900000000002,0.964562,-0.114299,-2.705664,-2.7000990000000002,0.997238,-0.304931,0.359245,-0.078419
685,-1.389918,-1.335866,-1.251161,-0.228971,0.9725309999999999,-0.041874,-2.617106,-4.767533,0.588172,-0.43892200000000003,0.028187,-0.26791
686,-1.642738,-1.341821,-1.4201350000000001,-0.226385,0.973899,0.016315,-1.5788280000000001,-3.6576739999999996,-0.00527,-0.25715,-0.223304,-0.09408899999999999
687,-1.781975,-1.336439,-1.528848,-0.227052,0.972664,0.048674,-1.246546,-0.553198,-0.09238500000000001,0.163026,-0.326546,-0.157897
688,-1.884241,-1.331367,-1.648255,-0.225586,0.9714729999999999,0.073119,-1.492858,1.261443,0.267833,0.40802,-0.380821,-0.054716999999999995
689,-1.9776479999999999,-1.328101,-1.777205,-0.220696,0.9706940000000001,0.095096,-1.496282,1.596424,0.415862,0.372444,-0.435904,-0.037982999999999996
690,-2.072273,-1.319521,-1.897693,-0.218018,0.9685959999999999,0.119522,-1.4904600000000001,0.747301,0.169164,0.25911,-0.39099,-0.023361
691,-2.16655,-1.305814,-1.9967419999999998,-0.216768,0.965097,0.146952,-1.418654,-0.300493,-0.0020440000000000002,0.09421,-0.17818599999999998,0.009497
692,-2.257612,-1.287444,-2.075488,-0.216182,0.960124,0.177268,-1.385834,-0.983902,-0.154763,0.014766,-0.032954000000000004,-0.092033
693,-2.339501,-1.2656399999999999,-2.134522,-0.21595599999999998,0.9538,0.208864,-1.376633,-1.454207,-0.299374,0.034957,0.0016899999999999999,-0.24547
694,-2.434545,-1.2378790000000002,-2.188599,-0.212283,0.9450930000000001,0.24845599999999998,-1.773159,-2.806759,-0.30895700000000004,0.12729200000000002,0.064139,-0.731779
695,-2.5624990000000003,-1.206884,-2.2457830000000003,-0.194786,0.9345110000000001,0.297896,-1.603397,-3.9545879999999998,-0.058473000000000004,-0.180977,0.340071,-1.003935
696,-2.612289,-1.203603,-2.244113,-0.181266,0.9333389999999999,0.309866,0.774004,-1.451254,-0.23842199999999997,-0.419732,0.275524,-0.757193
697,-2.5611580000000003,-1.220517,-2.184484,-0.188181,0.939277,0.286954,1.3060370000000001,0.284595,-0.56167,-0.569005,0.198479,-0.65257
698,-2.486909,-1.231441,-2.114677,-0.202689,0.9429690000000001,0.264049,1.121717,0.414793,-0.726562,-0.24401199999999998,0.269219,-0.676234
699,-2.374478,-1.242415,-2.015672,-0.223838,0.946566,0.23217600000000002,1.757194,1.345378,-0.894231,0.26009299999999996,0.426939,-0.5992569999999999
700,-2.203562,-1.262404,-1.861647,-0.24475700000000003,0.952823,0.17949500000000002,2.93865,0.778575,-0.8339780000000001,0.054541,0.8308840000000001,-0.91976
701,-1.9809240000000001,-1.2783360000000001,-1.624044,-0.264393,0.9575370000000001,0.114953,3.548805,-0.547334,-1.185871,-0.061871,0.666822,-0.23468899999999998
702,-1.7575759999999998,-1.275634,-1.371205,-0.285829,0.9567549999999999,0.054016999999999996,3.535903,-1.391501,-1.057761,0.20843699999999998,0.685503,0.397949
703,-1.528737,-1.27014,-1.100283,-0.29588000000000003,0.955142,-0.012452,4.185129,-1.332454,-0.403823,0.725644,0.613919,0.455308
704,-1.2980610000000001,-1.245686,-0.84475,-0.307602,0.947616,-0.086038,3.788442,-0.203709,-0.746667,0.723618,0.46946800000000005,0.40175700000000003
705,-1.143429,-1.2106370000000002,-0.691796,-0.320723,0.935841,-0.14607,2.544748,0.9017620000000001,-0.662767,0.559126,0.400478,0.352536
706,-1.02599,-1.18611,-0.5915279999999999,-0.320936,0.926916,-0.194482,2.093079,1.294615,0.052488,0.464567,0.325739,0.448617
707,-0.9047559999999999,-1.170133,-0.490806,-0.306667,0.920802,-0.240988,1.950652,1.499519,0.615252,0.359798,0.22996999999999998,0.4737
708,-0.7939039999999999,-1.1583379999999999,-0.39858499999999997,-0.285851,0.9161379999999999,-0.281029,1.6691,1.02665,0.8307399999999999,0.35041100000000003,0.176574,0.321968
709,-0.714918,-1.148831,-0.315554,-0.26848299999999997,0.912286,-0.309271,1.400074,-0.317266,0.9480879999999999,0.391011,0.074897,0.46893900000000005
710,-0.6602279999999999,-1.1430360000000002,-0.242036,-0.254414,0.909897,-0.327654,1.045069,-0.6720729999999999,1.006951,0.39056799999999997,0.011656999999999999,0.563433
711,-0.613444,-1.143675,-0.177049,-0.238477,0.910162,-0.338719,0.609252,-0.615857,1.179023,0.341505,-0.056616,0.553258
712,-0.572496,-1.15244,-0.114926,-0.22008200000000003,0.913758,-0.341479,0.210939,-0.9731989999999999,1.376456,0.317784,-0.15551800000000002,0.552294
713,-0.54555,-1.164987,-0.051117,-0.20483600000000002,0.918783,-0.337456,0.129408,-1.9691619999999999,1.429506,0.27000599999999997,-0.174963,0.5624319999999999
714,-0.536879,-1.179015,0.011595999999999999,-0.19529000000000002,0.9242299999999999,-0.328112,-0.061318,-2.659726,1.394876,0.261452,-0.17861,0.585238
715,-0.543564,-1.192975,0.06880700000000001,-0.19078699999999998,0.9294709999999999,-0.315724,-0.014426,-3.117118,1.18535,0.201453,-0.12142599999999999,0.526113
716,-0.5604939999999999,-1.20318,0.11783800000000001,-0.191053,0.9331870000000001,-0.304399,0.064404,-3.140949,0.9498540000000001,0.072385,-0.027547000000000002,0.42987200000000003
717,-0.580806,-1.2108809999999999,0.16400599999999999,-0.193246,0.9359270000000001,-0.294439,0.13078,-3.156891,0.8830399999999999,-0.106696,-0.0043170000000000005,0.36682600000000004
718,-0.598601,-1.220006,0.208405,-0.193634,0.9391010000000001,-0.283886,-0.011807999999999999,-2.81771,0.9008370000000001,-0.195617,0.008561,0.258831
719,-0.614406,-1.23281,0.24627399999999997,-0.191149,0.9434239999999999,-0.270943,-0.236262,-2.457832,0.875307,-0.191938,0.019313999999999998,0.107124
720,-0.632019,-1.2464030000000001,0.278019,-0.188297,0.947844,-0.25716300000000003,-0.24195,-2.394574,0.779045,-0.207394,0.004379999999999999,0.046179000000000005
721,-0.656651,-1.258892,0.307077,-0.187332,0.951751,-0.24305100000000002,-0.21669699999999997,-2.7715229999999997,0.7177479999999999,-0.158829,-0.034255,0.0009550000000000001
722,-0.688484,-1.270371,0.334615,-0.188019,0.955211,-0.22851300000000002,-0.17653,-2.9162939999999997,0.656257,-0.014084000000000001,-0.066356,-0.025424000000000002
723,-0.72027,-1.2807899999999999,0.359051,-0.188611,0.958242,-0.21493,-0.15465399999999999,-2.628466,0.586607,0.032468000000000004,-0.07456,-0.056402
724,-0.7466109999999999,-1.29008,0.382317,-0.18815199999999999,0.960857,-0.203345,-0.116827,-2.343925,0.525618,0.051372,-0.072292,-0.105554
725,-0.7750560000000001,-1.2986520000000001,0.401073,-0.188088,0.963197,-0.19202,-0.15479300000000001,-2.309446,0.461215,0.241952,-0.102387,-0.18143900000000002
726,-0.80169,-1.30821,0.418483,-0.18651099999999998,0.965722,-0.180531,-0.176402,-2.056142,0.537651,0.331226,-0.06600299999999999,-0.21331399999999998
727,-0.8163600000000001,-1.318459,0.44342600000000004,-0.181918,0.9683309999999999,-0.170988,-0.070485,-1.9108889999999998,0.618322,0.421893,0.092811,-0.326189
728,-0.814769,-1.327201,0.48661099999999996,-0.175479,0.970477,-0.165463,0.177905,-2.091127,0.720701,0.5508460000000001,0.248777,-0.396015
729,-0.796536,-1.3342530000000001,0.550239,-0.167537,0.9721540000000001,-0.163846,0.380755,-2.221038,0.798128,0.610057,0.22062600000000002,-0.319125
730,-0.762454,-1.336618,0.632679,-0.160268,0.9727049999999999,-0.167796,0.7281449999999999,-2.380706,0.7323930000000001,0.452748,0.055157000000000005,-0.191945
731,-0.7257600000000001,-1.3351979999999999,0.720468,-0.15492,0.972375,-0.174595,0.6566649999999999,-2.42714,0.684951,0.18507200000000001,-0.18451800000000002,0.045354000000000005
732,-0.713673,-1.33828,0.7763979999999999,-0.150837,0.97309,-0.17419,0.096818,-1.8215709999999998,0.51469,-0.098919,-0.145316,0.327235
733,-0.7178100000000001,-1.345056,0.791455,-0.147215,0.9746290000000001,-0.168593,-0.249423,-0.341648,0.21875100000000003,-0.47932600000000003,0.258297,0.596205
734,-0.7683949999999999,-1.352076,0.737585,-0.150793,0.976176,-0.15600999999999998,-1.034635,-0.059236000000000004,-0.46007600000000004,-0.903834,1.7941790000000002,-1.348156
735,-0.9223809999999999,-1.363113,0.624001,-0.164339,0.978511,-0.124521,-0.627274,-2.859393,-0.127834,-0.407835,0.987233,-1.0763459999999998
736,-0.833153,-1.339646,0.732274,-0.169541,0.973403,-0.154075,2.640034,0.263443,-0.42413900000000004,-0.160583,-0.5166930000000001,0.700217
737,-0.717394,-1.2968709999999999,0.824557,-0.17783800000000002,0.962717,-0.203833,1.587572,1.5072530000000002,-0.735391,0.0052,-0.7751100000000001,1.1346040000000002
738,-0.740751,-1.286807,0.794378,-0.189079,0.959945,-0.20676399999999998,-0.482088,-0.44946400000000003,-0.588176,0.009422,-0.425796,0.7435689999999999
739,-0.816819,-1.288606,0.740826,-0.202986,0.960448,-0.190614,-0.542716,-1.613416,-0.368122,0.14796199999999998,-0.176406,0.667833
740,-0.8820309999999999,-1.289168,0.715545,-0.21456,0.9606040000000001,-0.17663900000000002,-0.030448000000000003,-2.313817,-0.15107,0.397833,0.28777800000000003,0.68642
741,-0.910567,-1.283197,0.740448,-0.22403800000000001,0.9589280000000001,-0.17396,0.636421,-2.740151,0.12546300000000002,0.45023500000000005,0.38438,0.591074
742,-0.9571149999999999,-1.289474,0.752512,-0.226965,0.9606889999999999,-0.159877,-1.143304,-3.213355,0.391375,0.449133,0.214405,-0.450871
743,-1.1893790000000002,-1.321086,0.592934,-0.229358,0.9689840000000001,-0.091986,-2.706026,-4.054993,0.43174399999999996,0.136783,0.12205,-0.081217
744,-1.371266,-1.337144,0.474042,-0.22693200000000002,0.972827,-0.04589,-0.8204940000000001,-2.659245,0.336304,-0.030361000000000003,-0.047229,-0.081139
745,-1.402218,-1.3468930000000001,0.478656,-0.21888200000000002,0.975038,-0.037252,0.19324000000000002,-1.445,0.565088,-0.026861000000000003,-0.008912999999999999,0.12174000000000001
746,-1.41551,-1.359262,0.488529,-0.207425,0.9777100000000001,-0.032472,-0.181267,-0.885856,0.65469,-0.055163,-0.038683999999999996,0.24111999999999997
747,-1.479095,-1.371872,0.440887,-0.196775,0.9802799999999999,-0.018095,-0.774841,-1.117557,0.504495,-0.12725999999999998,-0.102243,0.075941
748,-1.600365,-1.378792,0.356941,-0.190734,0.9816239999999999,0.005640999999999999,-0.763257,-2.427637,0.176174,-0.129273,-0.025294,0.002964
749,-1.7217349999999998,-1.378044,0.292209,-0.189375,0.9814809999999999,0.028803,-0.586669,-2.998359,-0.042983,0.005582999999999999,-0.07724500000000001,0.10231599999999999
750,-1.830077,-1.3762510000000001,0.233781,-0.18685,0.981136,0.049562,-0.553244,-2.086026,0.07999500000000001,-0.032892000000000005,-0.104594,0.15698099999999998
751,-1.928059,-1.373697,0.162519,-0.183452,0.9806389999999999,0.068479,-0.811531,-1.1678870000000001,0.069537,-0.001134,-0.032915,-0.099378
752,-2.033083,-1.3662,0.078029,-0.181838,0.979143,0.09061,-0.95235,-1.03275,-0.036306,0.045211,-0.007662,-0.092288
753,-2.129422,-1.355453,0.002336,-0.18119200000000002,0.9769030000000001,0.11325199999999999,-0.9422860000000001,-1.248708,-0.11821199999999998,0.089273,-0.011312000000000001,-0.21852199999999997
754,-2.2176299999999998,-1.342262,-0.056531,-0.180779,0.974,0.136527,-0.8798030000000001,-1.686363,-0.215491,0.07589,0.051086,-0.291145
755,-2.294453,-1.327593,-0.09690499999999999,-0.180456,0.9705719999999999,0.159443,-0.801886,-1.998429,-0.29786799999999997,0.078436,0.172785,-0.41919399999999996
756,-2.360528,-1.312549,-0.12154200000000001,-0.179795,0.9668389999999999,0.18136,-0.693239,-2.116734,-0.37707399999999996,0.128098,0.280704,-0.522196
757,-2.404195,-1.299871,-0.129296,-0.17993399999999998,0.9635239999999999,0.198094,-0.388939,-1.534246,-0.320148,0.153094,0.313118,-0.58643
758,-2.415636,-1.2959610000000001,-0.117076,-0.18015599999999998,0.96247,0.202956,0.227462,-1.025433,-0.224627,0.047374,0.273965,-0.7909069999999999
759,-2.3809080000000002,-1.3049540000000002,-0.053644000000000004,-0.181119,0.964872,0.1903,1.387497,-1.6507,-0.443254,-0.051196,0.250705,-0.975899
760,-2.239721,-1.328627,0.14161700000000002,-0.18812,0.9708200000000001,0.14870999999999998,3.433193,-2.857052,-1.0352370000000002,-0.321142,0.039159,-1.162992
761,-1.9476380000000002,-1.344087,0.49909899999999996,-0.20899,0.974411,0.082709,3.9914940000000003,-2.177027,-1.613322,-0.376413,0.5866239999999999,-0.17311700000000002
762,-1.591197,-1.329876,0.861959,-0.238537,0.9711190000000001,0.004867,3.921525,1.7190450000000002,-1.376317,-0.18874000000000002,0.9432950000000001,0.088242
763,-1.2610729999999999,-1.2984360000000001,1.151524,-0.256198,0.963139,-0.08198899999999999,3.8313620000000004,2.293936,-0.676929,0.221057,0.777904,0.47526899999999994
764,-1.001016,-1.261844,1.390053,-0.25601999999999997,0.9526530000000001,-0.164021,3.972837,1.186144,-0.025043,0.291527,0.162307,0.8511860000000001
765,-0.81723,-1.2113049999999999,1.587864,-0.256546,0.936076,-0.24071199999999998,3.786968,-0.8760870000000001,0.100215,0.360107,0.23721799999999998,0.7954760000000001
766,-0.721306,-1.1767889999999999,1.6945290000000002,-0.253506,0.923378,-0.28827800000000003,1.992317,0.729356,0.305676,0.452481,0.35636100000000004,0.693902
767,-0.621396,-1.160978,1.7697,-0.23195900000000003,0.917193,-0.323957,1.436208,1.6528490000000002,0.812286,0.119914,0.487104,0.275831
768,-0.529085,-1.143146,1.844071,-0.20933200000000002,0.9099430000000001,-0.35802399999999995,1.608048,0.8982690000000001,0.754633,-0.052463,0.211929,0.249412
769,-0.46269399999999994,-1.123813,1.9074740000000001,-0.192936,0.901755,-0.386795,1.408908,0.228001,0.7135090000000001,-0.007198,0.037377,0.270019
770,-0.41376999999999997,-1.108113,1.960954,-0.17946099999999998,0.894858,-0.408681,1.065184,-0.017015,0.7456050000000001,0.069842,-0.10756500000000001,0.39722199999999996
771,-0.378689,-1.098475,2.0063779999999998,-0.168197,0.8905139999999999,-0.42271899999999996,0.716302,-0.462279,0.775786,0.139999,-0.202602,0.47356099999999995
772,-0.35627600000000004,-1.0947280000000001,2.049136,-0.159844,0.8888030000000001,-0.42950600000000005,0.398013,-0.9047719999999999,0.886293,0.135155,-0.26529899999999995,0.49905600000000006
773,-0.341066,-1.095812,2.087976,-0.152971,0.8893,-0.430979,0.191018,-0.992134,0.801638,-0.011534,-0.359912,0.463359
774,-0.334813,-1.099189,2.116833,-0.149285,0.8908389999999999,-0.42908900000000005,-0.037188,-0.9351200000000001,0.594873,-0.145927,-0.447312,0.457912
775,-0.33749,-1.106487,2.132346,-0.148276,0.8941309999999999,-0.422541,-0.354406,-0.758424,0.372377,-0.24366100000000002,-0.48647700000000005,0.45726999999999995
776,-0.34889499999999996,-1.1190209999999998,2.135824,-0.149242,0.899674,-0.410258,-0.681281,-0.7450289999999999,0.236548,-0.292042,-0.494019,0.438258
777,-0.372187,-1.135792,2.127832,-0.153248,0.906868,-0.392559,-0.944412,-0.811671,0.080972,-0.264706,-0.48647399999999996,0.393627
778,-0.406129,-1.156719,2.104812,-0.158948,0.915488,-0.369614,-1.271733,-0.463614,-0.095881,-0.187244,-0.48781499999999994,0.374146
779,-0.442134,-1.181509,2.067211,-0.16238699999999998,0.9251799999999999,-0.343031,-1.515077,0.1278,-0.197683,-0.165036,-0.451913,0.358229
780,-0.48553900000000005,-1.208625,2.015905,-0.165347,0.9351299999999999,-0.313352,-1.7088189999999999,0.138407,-0.284508,-0.140287,-0.397227,0.24239899999999998
781,-0.5612739999999999,-1.234736,1.9424740000000003,-0.175523,0.944061,-0.279172,-1.7476,-0.6509590000000001,-0.5177069999999999,0.028810000000000002,-0.187164,0.083784
782,-0.657646,-1.260052,1.8589639999999998,-0.186899,0.9521059999999999,-0.24199099999999998,-1.878857,-0.747924,-0.131804,0.371577,0.039547000000000006,-0.263319
783,-0.727905,-1.289436,1.7948979999999999,-0.184728,0.9606790000000001,-0.20729099999999998,-1.517255,-0.5273869999999999,0.346866,0.58109,0.12141400000000001,-0.803879
784,-0.794433,-1.309282,1.756143,-0.18445799999999998,0.966,-0.18115499999999998,-0.8746379999999999,-1.948275,0.275196,0.351923,-0.07168200000000001,-0.256345
785,-0.857448,-1.321616,1.735078,-0.186476,0.969115,-0.16137,-0.45686899999999997,-2.039253,0.28677600000000003,0.331785,-0.150359,-0.11708699999999998
786,-0.8758790000000001,-1.329803,1.743932,-0.183318,0.971101,-0.15282,-0.044932,-0.894069,0.45910200000000007,0.275481,-0.208986,-0.030407
787,-0.8502290000000001,-1.337805,1.7782900000000001,-0.173493,0.97298,-0.152339,0.069673,-0.178109,0.602126,0.071534,-0.297611,0.06688999999999999
788,-0.822304,-1.348791,1.814552,-0.16133,0.975458,-0.149841,-0.197574,-0.633663,0.737576,0.012724,-0.33378,0.05520599999999999
789,-0.8276040000000001,-1.3675760000000001,1.8276740000000002,-0.148601,0.9794219999999999,-0.13655899999999999,-0.723345,-1.017641,0.780329,-0.125889,-0.394232,0.269676
