,attitude.roll,attitude.pitch,attitude.yaw,gravity.x,gravity.y,gravity.z,rotationRate.x,rotationRate.y,rotationRate.z,userAcceleration.x,userAcceleration.y,userAcceleration.z
0,-2.700926,-1.005416,-0.401188,-0.22851300000000002,0.844385,0.48455299999999996,-1.067551,-0.272007,-0.555125,0.111081,0.524542,-0.017237
1,-2.70555,-0.990236,-0.40308,-0.231658,0.836155,0.497167,-0.605748,-0.34780500000000003,-0.115967,0.043685,-0.00041600000000000003,-0.23781300000000002
2,-2.717355,-0.9811639999999999,-0.408142,-0.228886,0.831145,0.506759,-0.351451,-0.247556,-0.09829600000000001,0.30025100000000005,-0.015181,-0.15329
3,-2.7148369999999997,-0.977816,-0.404679,-0.23131100000000002,0.8292790000000001,0.5087109999999999,0.035727999999999996,0.106227,-0.19539,0.369602,-0.041833999999999996,-0.197249
4,-2.698722,-0.982504,-0.391855,-0.23781,0.83189,0.5014,0.57462,0.351562,-0.2101,0.487688,-0.27886500000000003,-0.2299
5,-2.678208,-0.9959399999999999,-0.375129,-0.243027,0.8392700000000001,0.48637299999999994,0.928889,0.30062300000000003,-0.034505,0.49321000000000004,-0.39574299999999996,-0.22193800000000002
6,-2.664009,-1.018316,-0.3618,-0.24121399999999998,0.851225,0.46607600000000005,1.3014139999999998,-0.003629,0.337024,0.435337,-0.49757299999999993,-0.209973
7,-2.663432,-1.0510469999999998,-0.35638200000000003,-0.22853600000000002,0.867944,0.44095500000000004,1.628824,-0.266619,0.818211,0.059805,-0.6047600000000001,-0.041175
8,-2.676757,-1.092488,-0.366014,-0.20633,0.887775,0.411437,1.7868259999999998,-0.198954,1.341589,-0.193496,-0.657687,-0.13162100000000002
9,-2.7073270000000003,-1.1375389999999999,-0.396065,-0.17663900000000002,0.907603,0.380857,1.658139,-0.25416,1.6719099999999998,-0.260754,-0.6081340000000001,-0.247129
10,-2.763027,-1.1762549999999998,-0.44493299999999997,-0.142062,0.9231729999999999,0.357165,1.220616,-0.785135,1.635351,-0.22871100000000003,-0.334291,-0.30592600000000003
11,-2.8410029999999997,-1.208769,-0.502342,-0.10486300000000001,0.9351809999999999,0.338287,1.257976,-1.4364860000000002,1.4537799999999999,0.085316,0.12178,0.15474000000000002
12,-2.91593,-1.245274,-0.549455,-0.071556,0.947484,0.311691,1.709543,-1.503701,1.088484,0.05200900000000001,0.109477,0.181336
13,-2.96614,-1.281901,-0.5769489999999999,-0.049729,0.958559,0.280516,1.644135,-0.884685,0.590511,0.362473,0.005888,0.23210300000000003
14,-2.97454,-1.312195,-0.586302,-0.042520999999999996,0.966749,0.252163,1.3984889999999999,0.427633,0.296557,0.465082,0.024066,0.20009200000000002
15,-2.955549,-1.335274,-0.575178,-0.043162,0.9723930000000001,0.229318,0.8276879999999999,0.4888,-0.118774,0.22362800000000002,0.23756799999999997,0.38101799999999997
16,-2.86991,-1.3444450000000001,-0.5326569999999999,-0.060222000000000005,0.974492,0.216183,0.800596,2.945557,-0.41907700000000003,0.28638800000000003,0.357417,-0.567044
17,-2.760396,-1.3651659999999999,-0.459892,-0.07596,0.978932,0.18952,1.080548,1.1389479999999998,-0.42014799999999997,0.019808000000000003,-0.10663299999999999,0.030160000000000003
18,-2.753613,-1.354319,-0.454692,-0.08125700000000001,0.9766600000000001,0.198819,-1.108525,-0.226523,-0.174111,0.025103999999999998,-0.104361,0.020861
19,-2.747061,-1.346328,-0.442456,-0.08555399999999999,0.9749129999999999,0.20548000000000002,-0.476058,-0.033889999999999997,-0.41029,-0.582262,1.430193,0.684016
20,-2.734572,-1.317659,-0.45201499999999994,-0.09914099999999999,0.968131,0.229975,-1.508094,1.391529,-0.334936,-0.343715,0.31743699999999997,-0.575739
21,-2.7447209999999997,-1.28948,-0.46948,-0.107307,0.960691,0.256035,-1.26223,-0.375656,-0.308521,-0.335549,0.32487699999999997,-0.601799
22,-2.765247,-1.274485,-0.472441,-0.10731199999999999,0.95642,0.271552,-0.37295500000000004,-0.904178,-0.243948,0.045682,-0.545272,-0.468467
23,-2.757839,-1.273657,-0.45966,-0.10961800000000001,0.9561780000000001,0.271484,0.245052,-0.019403999999999998,-0.12967,-0.30056900000000003,0.6133109999999999,-0.03772
24,-2.729095,-1.2829549999999998,-0.42824799999999996,-0.11380499999999999,0.958859,0.260065,0.7591289999999999,0.001898,-0.307704,-0.274043,0.7004279999999999,-0.213022
25,-2.69141,-1.293415,-0.38598000000000005,-0.119152,0.9617760000000001,0.246548,0.689445,-0.285583,-0.28325300000000003,-0.037693,0.080262,-0.16264
26,-2.6746659999999998,-1.303482,-0.357035,-0.118898,0.964484,0.23586,0.598961,-0.6879430000000001,-0.017383000000000003,-0.008253,-0.09162000000000001,-0.138997
27,-2.680715,-1.3141049999999999,-0.34908,-0.11290599999999999,0.9672350000000001,0.227384,0.43884399999999996,-0.696902,0.230406,0.028020999999999997,-0.108715,-0.055845000000000006
28,-2.709254,-1.3224989999999999,-0.363266,-0.102966,0.969332,0.22313400000000003,0.24454800000000002,-0.799145,0.39261799999999997,0.05223099999999999,-0.139819,0.09312000000000001
29,-2.756079,-1.328523,-0.392084,-0.090211,0.9707950000000001,0.222294,0.070326,-1.031075,0.46861,0.006776000000000001,-0.159027,0.11490999999999998
30,-2.816614,-1.332571,-0.434406,-0.07534199999999999,0.971758,0.22361799999999998,0.028944,-0.859908,0.589879,-0.050009,-0.14543399999999998,0.146744
31,-2.8790080000000002,-1.338745,-0.48455,-0.059692999999999996,0.973197,0.222081,0.147162,-0.579446,0.680076,-0.132613,-0.148673,0.044902
32,-2.946882,-1.34398,-0.546104,-0.043508,0.9743870000000001,0.22061799999999998,0.071148,-0.302605,0.7785350000000001,-0.22819,-0.132667,-0.0020050000000000003
33,-3.0217650000000003,-1.3467,-0.6171979999999999,-0.026563999999999997,0.9749950000000001,0.220621,-0.021784,-0.303444,0.8024560000000001,-0.304735,-0.10873900000000002,-0.025263
34,-3.096404,-1.346231,-0.686725,-0.010059,0.974891,0.22244499999999998,-0.11888800000000001,-0.350867,0.758042,-0.237027,-0.002448,-0.028734
35,3.110291,-1.343703,-0.754414,0.007045999999999999,0.974325,0.22502600000000003,-0.115953,-0.6321720000000001,0.773378,-0.23428000000000002,0.0041140000000000005,0.001017
36,3.024016,-1.3410950000000001,-0.827225,0.026708,0.973734,0.226106,-0.052101999999999996,-0.818105,0.861656,-0.370397,-0.058191999999999994,-0.095552
37,2.94163,-1.335099,-0.8935489999999999,0.046383,0.972352,0.228859,-0.297724,-1.0020790000000002,0.728785,-0.463467,0.031249000000000002,-0.273552
38,2.890206,-1.3242180000000001,-0.92048,0.060714,0.9697530000000001,0.236406,-0.518018,-1.402942,0.201126,-0.338515,0.248127,-0.038149
39,2.8991599999999997,-1.311971,-0.885956,0.061440999999999996,0.966691,0.24845100000000003,-0.87813,-1.050491,-0.512208,0.201727,0.628234,0.15258
40,2.960298,-1.290909,-0.807609,0.049807,0.9610860000000001,0.271712,-1.4671399999999999,-0.543922,-0.941056,0.138822,0.566059,0.138353
41,3.039547,-1.260065,-0.717106,0.031145999999999997,0.95211,0.304158,-1.817009,-0.269123,-1.159633,0.09692100000000001,0.5473100000000001,0.027828
42,3.117619,-1.225034,-0.63175,0.008124,0.940817,0.33881100000000003,-1.7706950000000001,-0.076961,-1.302697,0.1419,0.6243380000000001,0.050029000000000004
43,-3.094059,-1.194542,-0.5564819999999999,-0.017459,0.930048,0.367018,-1.34935,0.094343,-1.35018,0.039447,0.624228,-0.2545
44,-3.034688,-1.17013,-0.49025799999999997,-0.041616,0.920801,0.387799,-0.971397,-0.313932,-1.3427440000000002,-0.148951,0.284963,-0.346479
45,-2.992818,-1.152424,-0.42952700000000005,-0.06022,0.913752,0.40178,-0.594015,-0.790619,-1.2764719999999998,-0.130408,0.036215,0.004729
46,-2.960101,-1.138663,-0.376606,-0.075593,0.9080739999999999,0.411925,-0.41657299999999997,-0.8332639999999999,-1.155537,-0.085342,0.109077,-0.07638500000000001
47,-2.93223,-1.13079,-0.32450100000000004,-0.088526,0.904749,0.41663900000000004,-0.013978999999999998,-1.0018559999999999,-1.168532,0.054499,0.034872,-0.300061
48,-2.9041,-1.129251,-0.268163,-0.100537,0.904092,0.415337,0.274994,-1.2851139999999999,-1.1789690000000002,0.15382,-0.134088,-0.33036
49,-2.891066,-1.130403,-0.216059,-0.105683,0.904584,0.41298,0.350954,-1.9860779999999998,-0.9756459999999999,0.293442,-0.180783,-0.32955999999999996
50,-2.899856,-1.133958,-0.173664,-0.10127799999999999,0.9060940000000001,0.41076899999999994,0.403118,-2.512291,-0.7631,0.30002399999999996,-0.217877,-0.324709
51,-2.9220580000000003,-1.13729,-0.139208,-0.091476,0.907499,0.409966,0.286744,-2.844898,-0.6021850000000001,0.204498,-0.233411,-0.357888
52,-2.958401,-1.140048,-0.112875,-0.076063,0.9086540000000001,0.41055699999999995,0.22869,-3.0497549999999998,-0.470937,0.186277,-0.20706999999999998,-0.258442
53,-3.000565,-1.1430690000000001,-0.093845,-0.058303999999999995,0.909911,0.410678,0.230122,-2.81177,-0.313135,0.26597600000000005,-0.065596,0.035656
54,-3.0308669999999998,-1.147814,-0.075807,-0.045357,0.911869,0.407961,0.30745500000000003,-2.0384330000000004,-0.36699699999999996,0.25303000000000003,-0.067554,0.038374
55,-3.049314,-1.1528909999999999,-0.058311,-0.037397,0.913941,0.404113,0.262071,-1.6061159999999999,-0.281342,0.10891500000000001,0.0052640000000000004,0.041749
56,-3.068441,-1.1568479999999999,-0.045776,-0.029397000000000003,0.9155399999999999,0.401144,0.193854,-1.519879,-0.20929099999999998,-0.06095,0.043536,-0.008444
57,-3.090077,-1.161107,-0.0366,-0.02051,0.9172450000000001,0.397789,0.261047,-1.46602,-0.15013800000000002,-0.069837,0.041831,-0.0050880000000000005
58,-3.1117060000000003,-1.167329,-0.02998,-0.011732,0.9197049999999999,0.392427,0.329619,-1.354594,-0.1028,-0.132662,-0.126782,-0.006716
59,-3.135368,-1.172539,-0.025661,-0.002414,0.921738,0.38779600000000003,0.194868,-1.4032200000000001,-0.080178,-0.156506,-0.13263,0.051321000000000006
60,3.124727,-1.174951,-0.018769,0.006503,0.9226709999999999,0.385524,0.114849,-1.510106,-0.187423,-0.252963,-0.045519,0.111104
61,3.108825,-1.178713,-0.000737,0.012519,0.9241149999999999,0.38190100000000005,0.19731300000000002,-1.7276169999999997,-0.47605600000000003,-0.40131300000000003,0.18873900000000002,0.143231
62,3.107966,-1.1815309999999999,0.037551,0.012759,0.9251879999999999,0.379285,0.06437000000000001,-1.8276869999999998,-0.909486,-0.5182979999999999,0.437589,0.202014
63,3.129999,-1.182727,0.10282999999999999,0.004386999999999999,0.9256409999999999,0.378367,0.019957,-2.014025,-1.424441,-0.477837,0.352084,0.12354100000000001
64,-3.117355,-1.182911,0.189854,-0.009165999999999999,0.9257110000000001,0.37811,0.047633,-2.336722,-1.734686,-0.35327600000000003,-0.00228,0.14252
65,-3.0800110000000003,-1.18709,0.278681,-0.023038,0.927284,0.37364,0.450133,-2.089593,-1.547389,-0.20837600000000003,-0.395362,0.04677
66,-3.052864,-1.198345,0.345519,-0.032244999999999996,0.9314379999999999,0.362458,0.7576,-1.477219,-0.9755959999999999,0.012195000000000001,-0.400341,-0.142091
67,-3.040665,-1.215766,0.384446,-0.035024,0.937636,0.345839,1.030772,-1.1491049999999998,-0.416496,0.277211,-0.053298000000000005,-0.49293400000000004
68,-3.043925,-1.238407,0.405903,-0.031818,0.9452649999999999,0.324737,1.2105709999999998,-1.2498049999999998,-0.16514700000000002,0.410037,0.496126,-0.221771
69,-3.068082,-1.256425,0.419646,-0.02271,0.950991,0.308373,0.524608,-2.1487979999999998,-0.128194,0.326375,0.8326389999999999,0.137046
70,-3.080834,-1.248653,0.437882,-0.019224,0.948559,0.31600700000000004,-0.78497,-1.088596,-0.387596,-0.063113,0.908359,0.227725
71,-3.0752450000000002,-1.2297129999999998,0.45707600000000004,-0.022177000000000002,0.942393,0.333764,-0.812527,-0.440283,-0.254023,0.476462,-0.597605,-0.48133100000000006
72,-3.096376,-1.2213690000000001,0.45094799999999996,-0.015475,0.9395690000000001,0.342002,-0.18221400000000001,-1.120103,0.307794,0.583468,-0.834161,-0.442558
73,3.130395,-1.225079,0.41878699999999996,0.0037939999999999996,0.940832,0.338843,0.373612,-1.379659,0.5320630000000001,-0.056055999999999995,-0.558142,-0.724662
74,3.089639,-1.232955,0.405944,0.017212,0.943472,0.330996,0.39100999999999997,-1.183469,-0.059862,-0.5262600000000001,0.792459,-0.363451
75,3.092828,-1.247156,0.425918,0.015502000000000002,0.948084,0.317632,0.914459,-0.727719,-0.46591899999999997,-0.380278,0.610128,-0.19553099999999998
76,3.101267,-1.26719,0.45956199999999997,0.012052,0.9542639999999999,0.29871,0.954799,-1.377156,-0.596196,0.009158,0.050084,-0.23975
77,3.091801,-1.2862959999999999,0.479516,0.013969,0.959802,0.28031799999999996,0.955867,-1.3886120000000002,-0.130429,0.19442,0.040167,-0.246246
78,3.044095,-1.305023,0.460904,0.025566,0.9648899999999999,0.261395,0.933787,-1.591631,0.308716,0.34624499999999997,0.048614,-0.224072
79,2.9639580000000003,-1.320989,0.41149600000000003,0.043681,0.96896,0.243313,0.878049,-1.539571,0.657569,0.347554,-0.128353,-0.10569400000000001
80,2.860951,-1.336175,0.33202800000000005,0.064385,0.9726030000000001,0.223365,0.984208,-1.0992540000000002,0.742135,0.24396500000000002,-0.128639,-0.08054299999999999
81,2.7625740000000003,-1.351027,0.24923499999999998,0.08065800000000001,0.9759479999999999,0.202518,0.9905649999999999,-0.819428,0.555951,-0.11961400000000001,-0.011089,-0.149845
82,2.6730959999999997,-1.364033,0.17526,0.092692,0.9787,0.183157,0.8683549999999999,-0.8716229999999999,0.394931,-0.15099500000000002,0.0047740000000000005,-0.073477
83,2.578823,-1.37416,0.09600800000000001,0.104227,0.9807290000000001,0.165226,0.8019850000000001,-0.8333959999999999,0.48308,-0.137293,-0.023819999999999997,-0.059574
84,2.47234,-1.379992,0.004412,0.117647,0.9818520000000001,0.148725,0.735398,-0.8197639999999999,0.594761,-0.14691400000000002,-0.076197,-0.023771
85,2.358458,-1.382634,-0.095829,0.131954,0.98235,0.132553,0.711138,-0.731368,0.6211840000000001,-0.184063,-0.029988,0.001831
86,2.251468,-1.38268,-0.19146,0.14532,0.982358,0.117676,0.6286470000000001,-0.624333,0.565991,-0.183543,0.062915,0.046112
87,2.160086,-1.381448,-0.272389,0.15645799999999999,0.9821270000000001,0.10459700000000001,0.564263,-0.56195,0.472526,-0.184534,-0.029414,0.11104100000000001
88,2.073343,-1.378593,-0.35175700000000004,0.167388,0.9815860000000001,0.091999,0.563887,-0.359742,0.521403,-0.247054,-0.046649,0.092587
89,1.997514,-1.374715,-0.42308100000000004,0.177341,0.9808379999999999,0.08062899999999999,0.490825,-0.299578,0.45779,-0.32352,-0.0057399999999999994,-0.054384
90,1.9301709999999999,-1.3711280000000001,-0.48450299999999996,0.185658,0.980133,0.06975,0.506703,-0.432371,0.352317,-0.341008,0.035294,-0.134554
91,1.8830360000000002,-1.374795,-0.520883,0.185315,0.9808530000000001,0.059820000000000005,0.597705,-0.7442300000000001,0.207006,-0.310315,0.06442,-0.10643499999999999
92,1.802876,-1.3753229999999999,-0.583971,0.189006,0.9809559999999999,0.044669,0.573616,-0.9897889999999999,0.098194,-0.285671,0.015992,-0.140174
93,1.728011,-1.3767399999999999,-0.637863,0.190445,0.9812299999999999,0.030189999999999998,0.515732,-1.143677,0.0039829999999999996,-0.187729,0.016924,-0.148827
94,1.6512310000000001,-1.377351,-0.692375,0.191602,0.981348,0.015444999999999999,0.5218119999999999,-1.1545940000000001,0.064928,0.084537,0.009283,0.057812999999999996
95,1.587597,-1.374801,-0.736974,0.194697,0.9808540000000001,0.003271,0.325056,-0.875376,0.20633800000000002,0.040929,0.065288,0.001596
96,1.557168,-1.37059,-0.750877,0.19883599999999998,0.9800260000000001,-0.00271,0.053126,-0.8753799999999999,0.17666500000000002,-0.07638400000000001,0.22023099999999998,-0.041402999999999995
97,1.544826,-1.370058,-0.745656,0.199309,0.9799200000000001,-0.005177,-0.146087,-0.826789,-0.080094,-0.33808699999999997,0.299728,0.09287000000000001
98,1.573759,-1.375464,-0.701336,0.194075,0.9809829999999999,0.000575,-0.634864,-0.6875060000000001,-0.38813000000000003,-0.438093,0.238301,0.036351
99,1.6620979999999999,-1.386688,-0.5965739999999999,0.18229,0.9831,0.01669,-1.151233,-0.788734,-0.73237,-0.407814,0.26598499999999997,0.050617
100,1.8252259999999998,-1.398823,-0.4123,0.165599,0.9852489999999999,0.043067,-1.730463,-0.9627680000000001,-0.930609,-0.284587,0.343242,0.205087
101,2.098895,-1.39838,-0.118306,0.148175,0.985173,0.08644,-2.7477869999999998,-0.6077170000000001,-0.92642,-0.05293,0.32274899999999995,0.272889
102,2.419762,-1.373175,0.20914899999999997,0.129721,0.9805360000000001,0.147358,-3.128907,0.259796,-0.9568989999999999,0.055094000000000004,0.160348,0.009915
103,2.653151,-1.338535,0.44044099999999997,0.108004,0.9731479999999999,0.203248,-2.627696,0.307612,-1.094465,0.13488599999999998,0.091015,-0.348054
104,2.8128189999999997,-1.302325,0.600214,0.085642,0.9641780000000001,0.25103600000000004,-2.358086,0.179075,-1.1522370000000002,0.078725,0.158106,-0.463362
105,2.926254,-1.266247,0.724975,0.064071,0.953982,0.292925,-2.066777,-0.637478,-1.2666600000000001,-0.11833199999999999,0.26341,-0.364352
106,3.005674,-1.233969,0.8328200000000001,0.044781,0.943808,0.327434,-1.8054569999999999,-1.343796,-1.482915,-0.315761,0.471307,-0.278606
107,3.072088,-1.204012,0.9360379999999999,0.024905,0.933485,0.357739,-1.581944,-1.6506150000000002,-1.6711060000000002,-0.268923,0.546022,-0.263455
108,3.121624,-1.176674,1.031339,0.007667,0.923334,0.383912,-1.35117,-2.114566,-1.7319240000000002,-0.048973,0.32926,-0.438371
109,-3.122735,-1.1530770000000001,1.120736,-0.00765,0.9140159999999999,0.405597,-1.060845,-2.141982,-1.7875450000000002,0.103948,-0.004883,-0.449008
110,-3.087908,-1.135119,1.207892,-0.022645,0.9065840000000001,0.421408,-0.716958,-2.381481,-1.866021,0.23664899999999997,-0.19134400000000001,-0.392081
111,-3.0611740000000003,-1.122285,1.292628,-0.034832999999999996,0.9010940000000001,0.43221499999999996,-0.39873800000000004,-2.507419,-1.8166349999999998,0.248532,-0.19484100000000001,-0.383112
112,-3.0379009999999997,-1.1158489999999999,1.372547,-0.045481,0.898284,0.437046,-0.016422,-2.360938,-1.750059,0.21987399999999999,-0.19558699999999998,-0.308155
113,-3.015458,-1.115903,1.446048,-0.055271,0.898308,0.435867,0.28129,-2.109408,-1.5068840000000001,0.122975,-0.225899,-0.322861
114,-3.004388,-1.119752,1.5077690000000001,-0.059620000000000006,0.899993,0.4318,0.41642700000000005,-2.351888,-1.19264,0.100254,-0.200133,-0.36499699999999996
115,-3.013893,-1.127529,1.55631,-0.05462,0.9033549999999999,0.425392,0.608049,-2.82899,-0.861678,0.139138,-0.19931500000000002,-0.37545
116,-3.040641,-1.141794,1.590619,-0.04192,0.909381,0.413836,0.915766,-2.848535,-0.503785,0.16864400000000002,-0.210544,-0.187807
117,-3.076835,-1.164557,1.608629,-0.025571,0.9186129999999999,0.39431900000000003,1.320015,-2.509447,-0.138201,0.149411,-0.198628,-0.116273
118,-3.11883,-1.195861,1.60827,-0.008334999999999999,0.930531,0.366106,1.672681,-1.8216599999999998,0.183848,0.150349,-0.15601099999999998,0.019681999999999998
119,3.11237,-1.227719,1.587759,0.009828,0.941724,0.33623200000000003,1.4679200000000001,-1.5704790000000002,0.417105,-0.044756,0.297534,-0.010564
120,3.054489,-1.248582,1.565052,0.027547000000000002,0.948536,0.31545500000000004,0.75466,-2.119071,0.230159,-0.056111,0.42487700000000006,0.048025
121,2.9983299999999997,-1.2512530000000002,1.562017,0.044848,0.9493790000000001,0.310902,-0.189038,-2.765526,-0.058683000000000006,0.048673,0.105781,0.5418350000000001
122,2.976366,-1.246728,1.579415,0.052371,0.9479479999999999,0.314077,-0.17406300000000002,-1.35305,-0.31783,-0.081439,-0.049632,0.44878599999999996
123,2.980044,-1.250425,1.599785,0.050651999999999996,0.949119,0.31080599999999997,0.299551,-0.48836599999999997,-0.381859,-0.21225700000000003,-0.22759200000000002,-0.095016
124,2.997267,-1.260951,1.623412,0.043851999999999995,0.9523809999999999,0.30172899999999997,0.530556,-0.21398000000000003,-0.46819099999999997,-0.303404,-0.276798,-0.188341
125,3.013475,-1.27201,1.650189,0.037607999999999996,0.9556950000000001,0.29193600000000003,0.438147,-0.612013,-0.483282,-0.351069,-0.24345999999999998,-0.131642
126,3.0409490000000003,-1.279678,1.687395,0.028837,0.957924,0.285558,0.300236,-0.15482,-0.677111,-0.382856,0.231758,-0.46101899999999996
127,3.084902,-1.2982040000000001,1.7426840000000001,0.015253999999999998,0.963076,0.268783,1.356231,-1.0994709999999999,-0.855463,0.089772,0.478284,-0.810211
128,3.100779,-1.3282040000000002,1.7968490000000001,0.009801,0.9707180000000001,0.240006,1.065137,-1.831029,-0.6749609999999999,0.093928,0.365585,-0.043702
129,3.0960509999999997,-1.324283,1.826716,0.011109,0.9697690000000001,0.24375700000000003,-0.650157,-1.701543,-0.134838,0.25688099999999997,-0.030895999999999996,0.451204
130,3.0630759999999997,-1.318065,1.827284,0.019612,0.968233,0.24926500000000001,-0.077903,-1.659562,0.059249,0.620525,-0.403459,0.32022399999999995
131,2.992481,-1.319934,1.777971,0.036876,0.968699,0.24547,0.26666,-0.8767149999999999,0.8575459999999999,0.5240060000000001,-0.228327,-0.320558
132,2.899644,-1.322755,1.699601,0.058817999999999995,0.9693950000000001,0.23834,0.362615,-0.86013,0.889174,0.134679,0.041607,-0.137235
133,2.828533,-1.32321,1.6410200000000001,0.075468,0.969507,0.23313699999999998,0.040264,-0.720371,0.584436,-0.36025799999999997,0.15949100000000002,-0.167601
134,2.783681,-1.3164209999999998,1.612333,0.088149,0.9678209999999999,0.235679,-0.22804899999999997,-0.827177,0.354099,-0.364348,0.20631300000000002,-0.055747000000000005
135,2.758762,-1.316921,1.60172,0.093813,0.9679459999999999,0.232961,0.231303,-0.74984,0.063448,-0.395907,0.12833699999999998,-0.10522999999999999
136,2.7252669999999997,-1.3228600000000001,1.586884,0.099236,0.9694209999999999,0.224427,0.3921,-1.050824,0.068161,-0.44817399999999996,-0.033966,-0.126923
137,2.682068,-1.3301479999999999,1.568163,0.105698,0.971184,0.213594,0.44563800000000003,-1.2968819999999999,0.016508000000000002,-0.397355,-0.05027,-0.120179
138,2.6432130000000003,-1.3394409999999999,1.55275,0.109597,0.973356,0.20139100000000001,0.518407,-1.108188,-0.081502,-0.28725500000000004,-0.080183,-0.087896
139,2.6083540000000003,-1.34894,1.53998,0.111844,0.975491,0.189477,0.447946,-1.141936,-0.105452,-0.007474,-0.114422,-0.07057999999999999
140,2.572431,-1.355739,1.52793,0.114999,0.9769639999999999,0.17974600000000002,0.290466,-1.220482,-0.040222,0.006293,-0.165654,0.026309
141,2.5450619999999997,-1.358399,1.520684,0.118415,0.9775280000000001,0.174381,0.083971,-0.8364219999999999,-0.001564,-0.045614999999999996,-0.173726,0.059368
142,2.538976,-1.358666,1.523549,0.119326,0.977585,0.173442,-0.056892,-0.190138,-0.06106,-0.159838,-0.169418,-0.035197000000000006
143,2.559562,-1.357532,1.543994,0.11633900000000001,0.977345,0.176787,-0.252277,0.113641,-0.201683,-0.133154,-0.214452,-0.144561
144,2.600708,-1.353861,1.583769,0.11081600000000001,0.976562,0.184499,-0.46638500000000005,0.10831800000000001,-0.283288,-0.089225,-0.277358,-0.085149
145,2.647655,-1.348665,1.6294309999999999,0.10444,0.9754299999999999,0.193962,-0.452358,0.117959,-0.30884,-0.107294,-0.325436,0.093055
146,2.691271,-1.342751,1.6717799999999998,0.098393,0.97411,0.203522,-0.458951,0.118872,-0.26509,-0.14275,-0.299565,-0.076843
147,2.7262470000000003,-1.338344,1.705097,0.092947,0.9731040000000001,0.21076399999999998,-0.314857,0.139649,-0.257701,-0.164389,-0.288763,-0.10708
148,2.759887,-1.334559,1.732805,0.087177,0.972225,0.217187,-0.27726100000000004,0.5025,-0.188469,-0.137302,-0.12849100000000002,0.13108
149,2.7910369999999998,-1.3306719999999999,1.7541810000000002,0.08166699999999999,0.971308,0.22334299999999999,-0.30966,0.431175,-0.17257999999999998,-0.16250799999999999,0.042332999999999996,-0.08557200000000001
150,2.823589,-1.3229229999999998,1.781887,0.076706,0.9694370000000001,0.23302399999999998,-0.555887,0.197858,-0.219935,-0.34477199999999997,0.07913200000000001,0.07846900000000001
151,2.865852,-1.312573,1.823278,0.06952,0.9668450000000001,0.2457,-0.7073229999999999,0.026556,-0.406644,-0.562776,-0.004839,-0.082828
152,2.917484,-1.296997,1.8801580000000002,0.060087,0.962751,0.263613,-1.141709,-0.21929400000000002,-0.619803,-0.544615,0.008883,-0.131624
153,2.9880419999999996,-1.2686620000000002,1.9602259999999998,0.045509,0.9547040000000001,0.294042,-1.9105759999999998,-0.5144449999999999,-1.000809,-0.504401,0.081078,-0.130742
154,3.0676509999999997,-1.227757,2.05978,0.024847,0.941737,0.335417,-2.3073509999999997,-0.782575,-1.535211,-0.155691,0.467016,-0.002349
155,-3.137553,-1.18012,2.1594860000000002,-0.001538,0.924652,0.380797,-2.50988,-0.733014,-1.7652889999999999,0.231564,0.33863899999999997,-0.15811
156,-3.079818,-1.130926,2.240183,-0.026287,0.9048069999999999,0.42499799999999993,-2.2454009999999998,-0.8856440000000001,-1.6542880000000002,0.33018200000000003,0.31643000000000004,-0.133952
157,-3.0347180000000002,-1.094829,2.303394,-0.048875,0.88885,0.45557299999999995,-1.302017,-0.180161,-1.474482,0.49756000000000006,0.23932399999999998,-0.122107
158,-2.983444,-1.075106,2.3556880000000002,-0.074907,0.87964,0.469693,-0.559276,0.30430999999999997,-1.263743,0.134874,0.44712700000000005,0.061145000000000005
159,-2.9333720000000003,-1.067584,2.406632,-0.099686,0.8760379999999999,0.471815,0.124328,0.23485100000000003,-1.2695610000000002,0.048173,0.737899,0.010882
160,-2.887707,-1.071739,2.456473,-0.12020499999999999,0.878034,0.46324499999999996,0.614903,-0.021449,-1.004092,0.034451,0.46040600000000004,-0.221302
161,-2.860419,-1.0823049999999999,2.49784,-0.130218,0.883042,0.450854,0.86695,-0.8204819999999999,-0.671227,0.41358900000000004,-0.28979499999999997,-0.171405
162,-2.862124,-1.0978299999999999,2.52711,-0.12565199999999999,0.8902209999999999,0.437845,0.9749899999999999,-1.570188,-0.294566,0.44156999999999996,-0.482048,-0.101587
163,-2.881431,-1.117566,2.540808,-0.112634,0.8990370000000001,0.423126,1.0393139999999998,-1.550818,0.133148,0.296212,-0.650105,-0.07904
164,-2.910466,-1.1407909999999999,2.535939,-0.095493,0.908964,0.405779,1.192146,-0.885971,0.5040359999999999,0.140628,-0.659025,0.077177
165,-2.931238,-1.1716950000000002,2.51547,-0.081138,0.9214110000000001,0.380013,1.5459209999999999,0.354414,0.894819,0.13458900000000001,-0.679131,0.077324
166,-2.961235,-1.208718,2.465897,-0.063538,0.935163,0.348461,1.6633,0.9651639999999999,1.5048110000000001,0.12176500000000001,-0.555143,0.021228999999999998
167,-3.031285,-1.246097,2.375115,-0.035118,0.9477469999999999,0.317071,1.5644040000000001,0.476049,1.8946479999999999,0.066749,0.276466,-0.015939
168,3.134446,-1.272078,2.2597490000000002,0.0021030000000000003,0.955714,0.294274,0.922758,-0.9878819999999999,1.7125810000000001,-0.002408,0.379506,-0.009651999999999999
169,3.0068900000000003,-1.2852059999999998,2.160336,0.037832,0.9594950000000001,0.279158,0.769382,-1.7106169999999998,1.166574,-0.136892,0.165382,0.156251
170,2.9118779999999997,-1.29939,2.084335,0.06104,0.9633950000000001,0.26103000000000004,0.9454940000000001,-0.667787,0.766953,-0.24510700000000002,-0.412034,0.11163499999999998
171,2.849942,-1.319603,2.0192959999999998,0.071465,0.968616,0.23804899999999998,1.394733,0.411231,0.404444,-0.184166,-0.5109899999999999,-0.047573000000000004
172,2.800934,-1.350801,1.9590290000000001,0.072905,0.975899,0.20566900000000002,1.8163080000000003,0.351441,0.073112,0.29886,-0.232765,0.08229500000000001
173,2.7391389999999998,-1.381532,1.896125,0.07368200000000001,0.982143,0.17308900000000002,1.490681,-0.181097,0.06404299999999999,0.311954,0.026508999999999998,0.239921
174,2.667842,-1.402733,1.823316,0.076306,0.9859100000000001,0.148834,1.040597,0.19183599999999998,0.166175,0.24672199999999997,0.226873,0.005707
175,2.636341,-1.410654,1.785707,0.077174,0.9872049999999999,0.139519,0.201621,0.416984,0.0008609999999999999,-0.226633,0.512063,-0.117958
176,2.649267,-1.418963,1.778614,0.071483,0.9884950000000001,0.13327,0.575371,1.218733,-0.22188200000000002,-0.18899100000000002,0.288055,-0.313843
177,2.675533,-1.43055,1.780073,0.062806,0.990182,0.124859,0.363372,1.149721,-0.362144,-0.08983,0.301628,-0.201031
178,2.808864,-1.4314049999999998,1.895403,0.045373000000000004,0.990301,0.131298,-0.649215,0.915257,-1.055783,-0.807962,1.404368,0.30594299999999996
179,3.037443,-1.420317,2.1016779999999997,0.015583000000000001,0.988699,0.149078,-0.820968,1.332515,-1.356619,-0.890293,0.8887879999999999,0.207352
180,-3.125628,-1.410097,2.208528,-0.002554,0.987116,0.159966,-0.33413899999999996,0.248813,-0.369066,0.001104,-0.224054,-0.09372799999999999
181,3.1392919999999997,-1.407173,2.206204,0.000375,0.9866440000000001,0.162872,-0.23191900000000001,-1.242621,0.086485,0.050742,-0.325755,-0.017609
182,3.0879630000000002,-1.394886,2.1725939999999997,0.00938,0.984568,0.174733,-0.6330859999999999,-0.654617,0.440784,0.10936400000000002,-0.157801,0.131419
183,3.026586,-1.3921270000000001,2.120839,0.020392,0.984081,0.176526,0.127371,-0.23328400000000002,0.44342,0.250131,-0.043438,0.08565
184,2.994026,-1.395783,2.0800400000000003,0.025599,0.9847239999999999,0.172211,0.290609,0.584812,0.311052,0.11971099999999998,0.032457,0.053390999999999994
185,2.966153,-1.40431,2.0391880000000002,0.028921,0.986173,0.163154,0.548197,0.591762,0.21456599999999998,-0.24761,0.166812,0.070763
186,2.972987,-1.414988,2.030586,0.026036,0.987886,0.15295599999999998,0.499277,0.9461200000000001,-0.180404,-0.435308,0.13667100000000001,0.145262
187,3.031285,-1.42456,2.0686310000000003,0.016038,0.989326,0.144806,0.38843099999999997,0.998483,-0.391685,-0.423921,-0.129555,0.171311
188,3.094558,-1.4289479999999999,2.1171889999999998,0.006645999999999999,0.989956,0.141192,0.028071,0.6288239999999999,-0.343522,-0.29963,-0.10928,0.066022
189,-3.139024,-1.422544,2.157063,-0.000379,0.989031,0.14768399999999998,-0.5292020000000001,0.41728699999999996,-0.240321,-0.277147,-0.084002,0.038305
190,-3.1116740000000003,-1.404822,2.176767,-0.004942,0.986258,0.165117,-1.087813,0.404873,-0.114952,-0.23147800000000002,-0.14868800000000001,0.137113
191,-3.103154,-1.3775819999999999,2.177277,-0.007378,0.981392,0.191854,-1.557444,0.455133,-0.022157,-0.13224,-0.18244200000000002,-0.057941999999999994
192,-3.094953,-1.336762,2.172523,-0.010811,0.9727389999999999,0.231634,-2.3730729999999998,0.7787609999999999,-0.060315999999999995,0.016991,-0.11461500000000001,-0.039785
193,-3.064946,-1.279085,2.191033,-0.022019999999999998,0.9577530000000001,0.286734,-3.1189419999999997,0.338702,-0.7197819999999999,-0.10702300000000001,0.40815300000000004,0.22912
194,-3.015756,-1.212651,2.243592,-0.043993,0.936549,0.34775500000000004,-3.20818,-0.312104,-1.459849,-0.17161400000000002,0.7751819999999999,0.094048
195,-2.966247,-1.1469530000000001,2.312173,-0.071743,0.911515,0.404951,-2.922352,-0.7651720000000001,-1.892038,0.057826999999999996,0.575347,-0.25840599999999997
196,-2.926556,-1.085915,2.373359,-0.099457,0.8847299999999999,0.45536000000000004,-2.649571,-0.829023,-1.8783009999999998,0.137436,0.31986,-0.5288619999999999
197,-2.89508,-1.035159,2.421948,-0.124545,0.859944,0.49495200000000006,-1.7915740000000002,-0.076592,-1.643604,0.351992,0.28789899999999996,0.274091
198,-2.849195,-1.0088540000000001,2.460476,-0.153585,0.8462219999999999,0.510207,-0.594025,0.8034020000000001,-1.103324,0.15295999999999998,0.307129,0.049134
199,-2.808237,-1.0019930000000001,2.488982,-0.176244,0.8425459999999999,0.508966,0.179213,0.8536469999999999,-0.752951,0.178548,0.10951099999999998,-0.037423000000000005
200,-2.76535,-1.0083790000000001,2.520911,-0.195922,0.8459690000000001,0.49592700000000006,0.8084439999999999,0.695395,-0.61803,0.169158,-0.07307999999999999,-0.128083
201,-2.73743,-1.022684,2.549218,-0.20490999999999998,0.85351,0.479087,1.00377,-0.139672,-0.28231100000000003,0.160186,-0.416666,-0.317985
202,-2.730868,-1.043142,2.567088,-0.201034,0.8639899999999999,0.461625,1.169801,-0.48616899999999996,0.176492,0.17305,-0.740898,-0.16680999999999999
203,-2.7429419999999998,-1.070571,2.563806,-0.186175,0.877474,0.442007,1.278969,-0.423313,0.8789959999999999,0.21371700000000002,-0.783267,-0.09868400000000001
204,-2.777152,-1.106434,2.536837,-0.159624,0.894108,0.41843100000000005,1.5433139999999999,-0.6246510000000001,1.448326,0.140855,-0.626804,0.00854
205,-2.8384419999999997,-1.150549,2.48746,-0.12179300000000001,0.9129879999999999,0.389374,1.8549080000000002,-0.890601,1.8845419999999997,-0.028155,-0.550058,0.064682
206,-2.928299,-1.199056,2.409102,-0.076888,0.9316969999999999,0.354996,1.959128,-0.92935,2.159852,0.09045299999999999,-0.31188499999999997,-0.147018
207,-3.0546990000000003,-1.241111,2.2983729999999998,-0.028095,0.9461440000000001,0.32251199999999997,1.652625,-1.220225,2.1730389999999997,0.11206400000000001,-0.197624,-0.197665
208,3.079496,-1.269865,2.17384,0.018393,0.955061,0.29582600000000003,1.2967600000000001,-1.7606279999999999,1.7599799999999999,0.056359000000000006,0.12408599999999999,-0.286503
209,2.944466,-1.294429,2.066963,0.053438,0.962053,0.267567,1.547239,-1.274195,1.11056,0.127973,0.288283,0.238186
210,2.844559,-1.32328,1.971061,0.071703,0.9695239999999999,0.234256,1.740673,0.07001399999999999,0.7192189999999999,0.198988,0.12550799999999998,0.403425
211,2.759803,-1.350356,1.880897,0.081463,0.975801,0.202902,1.5309059999999999,0.113435,0.431418,0.166828,0.038756,0.454721
212,2.696592,-1.376198,1.8057,0.083232,0.981125,0.174526,1.504605,0.9833350000000001,0.029536,-0.004451,0.031341,0.376606
213,2.6914029999999998,-1.3989719999999999,1.7654020000000001,0.074391,0.985274,0.153928,0.904466,2.031487,-0.229167,-0.041249,-0.001662,0.012225
214,2.7000599999999997,-1.417689,1.747709,0.065163,0.988302,0.13786600000000002,1.009986,0.5568890000000001,-0.25645100000000004,0.171745,-0.0008289999999999999,-0.8276399999999999
215,2.698397,-1.421914,1.754257,0.063601,0.9889370000000001,0.133984,-0.46315500000000004,-0.8534649999999999,-0.06304,-0.528414,-0.005158,0.337253
216,2.732456,-1.416436,1.798627,0.061155999999999995,0.98811,0.141041,-0.20549099999999998,-0.054314,-0.334661,-0.692504,-0.007534999999999999,0.163876
217,2.8170669999999998,-1.417432,1.867248,0.048704000000000004,0.9882629999999999,0.144771,-0.190398,1.19392,-0.5465939999999999,-0.163328,0.547473,0.006794
218,2.94377,-1.414418,1.9885130000000002,0.030605,0.987798,0.152684,-0.530963,-0.21803000000000003,-1.200916,-0.064983,1.171275,0.028468
219,3.132245,-1.398185,2.178153,0.001605,0.98514,0.17173,-0.940867,0.261384,-1.388127,-0.544666,1.06259,-0.069145
220,-3.039778,-1.3869280000000002,2.285149,-0.018581,0.983144,0.181868,-0.33958,0.121302,-0.7118359999999999,0.23124299999999998,-0.554814,-0.47254799999999997
221,-3.013874,-1.388012,2.325174,-0.02315,0.983341,0.180269,0.317148,-0.8961290000000001,-0.193199,0.282885,-0.543797,-0.419573
222,-3.0265150000000003,-1.388325,2.3282529999999997,-0.020834000000000002,0.983398,0.180241,-0.24749200000000002,-0.867763,0.128629,0.069464,0.071274,0.029872000000000003
223,-3.0609330000000003,-1.386607,2.307722,-0.014755,0.983085,0.182536,0.035432,-0.340407,0.138475,-0.100876,-0.029394999999999998,0.144017
224,-3.072555,-1.390199,2.294603,-0.012389,0.9837370000000001,0.179172,0.223113,0.13609300000000002,0.161608,-0.071366,-0.035067,0.16205999999999998
225,-3.087429,-1.392792,2.275042,-0.009585,0.9841989999999999,0.176789,0.059348000000000005,0.2634,0.168847,-0.047712,0.084496,0.19493
226,-3.094826,-1.394816,2.260249,-0.008184,0.984555,0.17486400000000002,0.080731,0.47333500000000006,0.131339,-0.033213,0.088138,0.083589
227,-3.100559,-1.394092,2.242181,-0.007209999999999999,0.9844280000000001,0.17562,-0.115256,0.578281,0.164019,-0.048255,-0.230202,-0.025107
228,-3.1184990000000004,-1.386331,2.2128360000000002,-0.004235,0.983034,0.183354,-0.576066,0.503675,0.306174,-0.18628599999999998,-0.254763,0.022517
229,-3.140454,-1.370462,2.1819439999999997,-0.000227,0.98,0.198982,-0.935752,0.402938,0.23542399999999997,-0.479205,-0.039508999999999996,0.17434000000000002
230,-3.137991,-1.3475700000000002,2.173715,-0.000797,0.9751879999999999,0.221361,-1.264466,0.626572,0.006379,-0.275753,-0.005096,0.021452000000000002
231,-3.117706,-1.314676,2.179518,-0.00605,0.9673799999999999,0.253244,-1.9469150000000002,0.779817,-0.162023,-0.20528400000000002,-0.007328,-0.06527100000000001
232,-3.0794029999999997,-1.2657120000000002,2.205066,-0.018667,0.9538209999999999,0.299782,-2.681775,0.527821,-0.708421,-0.17168599999999998,0.405325,0.051521000000000004
233,-3.0323330000000004,-1.203545,2.2558529999999997,-0.039151,0.933318,0.3569,-3.14812,-0.345881,-1.3247870000000002,-0.071582,0.521806,0.010287000000000001
234,-2.992314,-1.1379489999999999,2.315345,-0.06238200000000001,0.907775,0.414783,-3.0475830000000004,-0.850937,-1.649245,0.07019500000000001,0.49794099999999997,-0.116275
235,-2.9664200000000003,-1.0769030000000002,2.359286,-0.082617,0.880494,0.46679499999999996,-2.737266,-0.538088,-1.300306,0.23798200000000003,0.10824500000000001,-0.347517
236,-2.952779,-1.024761,2.387178,-0.097469,0.85459,0.510067,-2.152244,-0.485572,-1.087984,0.43465699999999996,0.205575,0.151677
237,-2.927781,-0.9981709999999999,2.4136319999999998,-0.114969,0.8404809999999999,0.5294949999999999,-0.503925,0.481295,-0.818131,0.487543,0.340595,0.324692
238,-2.910245,-0.995418,2.433859,-0.124767,0.838987,0.529648,0.11329000000000002,-0.25402399999999997,-0.48493400000000003,0.10758499999999999,0.084689,-0.02684
239,-2.895121,-0.998323,2.453007,-0.132167,0.840564,0.525334,0.350668,0.122171,-0.46239300000000005,0.174297,-0.30201999999999996,-0.44481400000000004
240,-2.879083,-1.005577,2.469464,-0.138989,0.8444709999999999,0.5172439999999999,0.53051,0.002411,-0.239862,0.181119,-0.30592800000000003,-0.436724
241,-2.873613,-1.01909,2.479014,-0.138782,0.8516309999999999,0.505426,0.84425,-0.166033,0.053101999999999996,0.30278299999999997,-0.678185,-0.080164
242,-2.880746,-1.0415379999999999,2.4763580000000003,-0.130209,0.863182,0.487806,1.192343,-0.300346,0.571657,0.27608299999999997,-0.628029,0.0087
243,-2.9056509999999998,-1.073115,2.455428,-0.11159200000000001,0.878692,0.46415500000000004,1.548546,-0.31740300000000005,1.064481,0.178471,-0.353027,0.156924
244,-2.947666,-1.115522,2.414699,-0.084736,0.898141,0.431458,2.067319,-0.264638,1.538054,-0.020992,-0.22773000000000002,0.204208
245,-3.010977,-1.164815,2.347624,-0.051435,0.918715,0.391548,2.207503,-0.056683000000000004,1.892349,-0.138994,-0.172728,0.011054999999999999
246,-3.099192,-1.209525,2.256263,-0.014981999999999999,0.935448,0.353136,1.9835310000000002,-0.333712,1.834523,-0.134279,-0.101082,-0.27623200000000003
247,3.080582,-1.2465469999999998,2.1628529999999997,0.019425,0.94789,0.317994,1.801057,-1.0725209999999998,1.337472,-0.016206,-0.017775,-0.359849
248,2.9755759999999998,-1.277975,2.0836330000000003,0.0477,0.957433,0.284675,1.6107719999999999,-1.6313469999999999,0.8593639999999999,0.098784,0.057153999999999996,-0.07977999999999999
249,2.869298,-1.30423,2.003274,0.070842,0.9646809999999999,0.253704,1.506799,-1.129891,0.755446,0.23077899999999998,0.020838,0.22974
250,2.78514,-1.327576,1.917743,0.084034,0.970568,0.225679,1.385235,0.460267,0.669238,0.341519,-0.205171,0.247221
251,2.700726,-1.349205,1.8250080000000002,0.09378099999999999,0.975549,0.198755,1.43628,-0.060902,0.42136599999999996,0.268021,0.085227,0.477774
252,2.631066,-1.365634,1.754564,0.09954099999999999,0.9790280000000001,0.17773599999999998,0.702306,0.693503,0.211242,0.26226,0.081748,0.49879300000000004
253,2.669125,-1.377173,1.7376340000000001,0.087559,0.9813129999999999,0.171323,0.840942,3.007832,-0.31204699999999996,0.016002000000000002,-0.096761,-1.095548
254,2.671638,-1.405866,1.723311,0.07434199999999999,0.9864299999999999,0.146368,1.201619,-0.44975299999999996,-0.699271,0.066436,-0.218714,0.207666
255,2.717821,-1.410261,1.792835,0.065722,0.987142,0.14569100000000001,-0.474433,-0.968776,-0.52017,-0.426791,0.376017,0.444427
256,2.8381220000000003,-1.410887,1.9109939999999999,0.047577999999999995,0.987242,0.151937,-0.551499,1.1307479999999999,-1.217743,-0.6858380000000001,1.910189,1.285151
257,3.064477,-1.393385,2.091592,0.013595,0.9843040000000001,0.17594300000000002,-0.9831479999999999,2.321589,-1.0759370000000001,-0.384963,0.753886,-0.8172550000000001
258,-3.072591,-1.378003,2.219028,-0.013209,0.9814729999999999,0.19113,-1.137486,0.440038,-1.139766,0.156032,-0.76344,-0.450957
259,-3.030224,-1.354718,2.270096,-0.023827,0.9767459999999999,0.21305900000000003,-0.640993,-0.7752060000000001,-0.298323,0.202049,-0.8459479999999999,-0.6258239999999999
260,-3.0747970000000002,-1.352861,2.247944,-0.014431,0.9763459999999999,0.215719,-0.074126,-1.098862,0.49439799999999995,-0.091572,0.8903690000000001,0.031061000000000002
261,-3.1327580000000004,-1.3583290000000001,2.193346,-0.0018629999999999999,0.977513,0.21085,0.695577,0.190647,0.494918,-0.10414000000000001,0.889201,0.035931
262,3.141566,-1.371429,2.185364,5e-06,0.980192,0.198034,0.45160100000000003,-0.263371,-0.039248000000000005,-0.0048119999999999994,0.311556,-0.025335
263,-3.136698,-1.378564,2.192804,-0.000935,0.9815799999999999,0.191031,0.362164,-0.015794,-0.0701,-0.078044,-0.120572,0.08146
264,-3.1388979999999997,-1.384918,2.191047,-0.0004980000000000001,0.9827739999999999,0.184791,0.27715300000000004,-0.032062,0.075674,-0.08843,-0.216112,0.115899
265,3.128294,-1.389122,2.1750599999999998,0.002402,0.9835430000000001,0.180641,0.167945,0.005108,0.198777,-0.093253,-0.46961099999999995,0.14868900000000002
266,3.092537,-1.390132,2.140341,0.00881,0.9837239999999999,0.179447,-0.014128,-0.20591700000000002,0.38151,-0.036581,-0.145574,0.15617
267,3.04793,-1.3890200000000001,2.096878,0.016905,0.983524,0.179965,-0.0074659999999999995,0.074289,0.366242,-0.030211000000000002,-0.063694,0.08917
268,3.023471,-1.38735,2.064087,0.021495,0.9832209999999999,0.18112899999999998,-0.059561,0.504121,0.27987,-0.05135700000000001,-0.11133399999999999,-0.024986
269,3.005074,-1.3852790000000001,2.035352,0.025101,0.982841,0.18271800000000002,-0.080941,0.49673100000000003,0.281866,-0.21937600000000002,-0.22539499999999998,-0.156092
270,2.983377,-1.382464,2.00432,0.029495,0.982318,0.184863,-0.143572,0.356225,0.308314,-0.322509,-0.184832,-0.069613
271,2.968769,-1.3764299999999998,1.983917,0.033211000000000004,0.9811700000000001,0.190249,-0.27478600000000003,0.22406700000000002,0.171903,-0.480659,-0.047225,-0.065874
272,2.973941,-1.370938,1.9876669999999999,0.033125,0.980095,0.19572799999999999,-0.351538,-0.012213,-0.08043099999999999,-0.458662,-0.080848,-0.110294
273,2.997647,-1.360635,2.0159759999999998,0.029923,0.9779969999999999,0.20644099999999999,-0.695442,-0.304182,-0.29396700000000003,-0.30709899999999996,-0.09138500000000001,-0.12795
274,3.042304,-1.342454,2.069023,0.022437000000000002,0.974043,0.225231,-1.1734799999999999,-0.358928,-0.573905,-0.124457,0.172976,0.042057
275,3.1137650000000003,-1.3108950000000001,2.152375,0.00715,0.9664149999999999,0.256871,-1.9314419999999999,-0.556403,-1.148309,-0.070474,0.371643,0.142925
276,-3.0772,-1.26191,2.261336,-0.019561000000000002,0.952673,0.303354,-2.673614,-0.637521,-1.796458,0.06018,0.690943,0.357565
277,-2.9948330000000003,-1.202461,2.3612189999999997,-0.052650999999999996,0.9329280000000001,0.35618,-2.771538,-0.542656,-1.991681,0.472497,0.552866,-0.013193
278,-2.941969,-1.1424860000000001,2.428787,-0.082359,0.9096690000000001,0.407075,-2.72034,-0.500296,-1.70723,0.632667,0.48808199999999996,0.370925
279,-2.9133240000000002,-1.086673,2.475143,-0.105321,0.885083,0.45335,-2.2329060000000003,-0.520037,-1.455973,0.48840900000000004,0.5790890000000001,0.348591
280,-2.890645,-1.051553,2.502711,-0.123221,0.868195,0.480671,-1.257283,-0.011478,-0.809945,0.004706,-0.314865,-0.121296
281,-2.8921959999999998,-1.028615,2.50609,-0.127358,0.856585,0.5000319999999999,-0.998533,-0.354033,-0.08557999999999999,0.145424,-0.182177,-0.08720599999999999
282,-2.905395,-1.014427,2.496526,-0.123579,0.8491780000000001,0.5134350000000001,-0.604449,-0.11101199999999999,0.070685,0.21345300000000003,-0.096569,-0.156791
283,-2.907054,-1.006208,2.491682,-0.12434400000000001,0.844809,0.52041,-0.315684,0.23226999999999998,0.020988,0.21568400000000001,-0.206198,-0.189996
284,-2.9004529999999997,-1.006672,2.489223,-0.127684,0.845057,0.519197,0.23376599999999997,0.558106,0.112002,0.272581,-0.433863,-0.18059
285,-2.8919509999999997,-1.018549,2.485568,-0.129604,0.851348,0.508332,0.698854,0.528946,0.340683,0.34457,-0.565261,-0.174744
286,-2.898693,-1.038975,2.471119,-0.121966,0.861885,0.492209,1.04261,0.07851699999999999,0.795519,0.229113,-0.496666,-0.222007
287,-2.9316259999999996,-1.06979,2.439825,-0.100108,0.877099,0.46975100000000003,1.475392,-0.48946000000000006,1.265015,0.06601900000000001,-0.524713,-0.197397
288,-2.994391,-1.109485,2.385201,-0.065285,0.8954700000000001,0.440299,1.899575,-0.7902,1.778973,0.019554,-0.5872729999999999,-0.147147
289,-3.0855189999999997,-1.156045,2.299848,-0.022583000000000002,0.9152170000000001,0.402318,2.225278,-0.5638989999999999,2.179405,-0.266617,-0.581675,-0.067037
290,3.078479,-1.1991399999999999,2.177388,0.022904,0.9317270000000001,0.36242399999999997,2.068221,-0.189128,2.3669029999999998,-0.419526,-0.075129,-0.142224
291,2.943942,-1.232813,2.0409330000000003,0.06511,0.943425,0.32511799999999996,1.959962,-0.49381800000000003,1.933907,-0.22807399999999997,0.338283,-0.025726
292,2.812249,-1.264089,1.922164,0.09764400000000001,0.953333,0.285684,2.005116,-1.241675,1.105173,0.183118,0.4345,0.243247
293,2.688409,-1.29271,1.826055,0.12018599999999999,0.961583,0.246795,1.7467979999999999,-1.555061,0.5792729999999999,0.39431,0.108028,0.258042
294,2.584235,-1.316235,1.733148,0.133193,0.967774,0.213698,1.598308,-0.079624,0.434271,0.304109,-0.25297600000000003,-0.079589
295,2.488094,-1.34166,1.629219,0.13808299999999998,0.9738629999999999,0.180327,1.808976,0.045172000000000004,0.212325,0.149621,-0.12729000000000001,0.304827
296,2.4004529999999997,-1.3633629999999999,1.5334729999999999,0.139031,0.978563,0.151916,1.2240389999999999,1.026774,0.06597599999999999,-0.088234,0.5892470000000001,0.203263
297,2.396096,-1.3753600000000001,1.485375,0.131718,0.9809629999999999,0.142672,0.602539,2.079223,-0.18326900000000002,0.005748,0.33021,-0.22860999999999998
298,2.423147,-1.385928,1.497531,0.120979,0.9829610000000001,0.138369,-0.036481,0.32829899999999995,-0.525183,-0.313225,0.003795,-0.027346
299,2.492372,-1.390347,1.564133,0.108491,0.9837629999999999,0.14294400000000002,-0.43320299999999995,-0.064764,-0.719731,-0.36599899999999996,1.523927,0.853714
300,2.658001,-1.377381,1.721124,0.089362,0.981353,0.170154,-1.690395,1.061135,-0.93719,-0.34686999999999996,1.526337,0.8265040000000001
301,2.824023,-1.364148,1.869659,0.064063,0.9787239999999999,0.194903,-0.802049,0.701221,-1.211466,-0.348853,-0.260432,-0.7522300000000001
302,2.945585,-1.34866,1.990478,0.042904000000000005,0.9754290000000001,0.216077,-1.247126,0.029301,-0.8932469999999999,0.265461,-0.813625,-0.42378000000000005
303,2.9906029999999997,-1.340756,2.0434650000000003,0.034295,0.973657,0.225404,0.06694299999999999,-0.44833599999999996,-0.336527,0.072715,-0.287485,-0.40960799999999997
304,2.9974819999999998,-1.348547,2.057725,0.031653,0.975404,0.218119,0.381195,-0.162433,-0.178738,-0.186148,0.524199,0.136846
305,3.01231,-1.359479,2.0716650000000003,0.027038999999999997,0.9777549999999999,0.20797800000000002,0.602162,-0.008294,-0.288487,-0.21936,0.20774600000000001,-0.08866900000000001
306,3.033839,-1.370231,2.097671,0.021422999999999998,0.9799540000000001,0.198047,0.40375700000000003,-0.265288,-0.317317,-0.201355,0.08871,-0.046985
307,3.049737,-1.374802,2.121828,0.017861000000000002,0.9808549999999999,0.19389800000000001,0.084346,-0.464966,-0.188969,-0.06816900000000001,-0.11273599999999999,0.054301
308,3.040889,-1.374285,2.1242490000000003,0.019627000000000002,0.9807540000000001,0.19423800000000002,-0.10328699999999999,-0.644343,0.075937,-0.008198,-0.328364,0.05297
309,3.003948,-1.3697709999999998,2.100812,0.027393999999999998,0.9798620000000001,0.197765,-0.242671,-0.744099,0.367784,-0.024343,-0.25972399999999995,0.053624
310,2.948436,-1.362211,2.05713,0.039746,0.978325,0.203206,-0.30441999999999997,-0.520957,0.562552,-0.075681,-0.074272,0.21930999999999998
311,2.893162,-1.355699,2.0053520000000002,0.052476999999999996,0.9769559999999999,0.20687199999999997,-0.12001600000000001,-0.04027,0.607021,-0.132708,-0.0033840000000000003,0.033882
312,2.8517080000000004,-1.3508639999999998,1.959154,0.062354999999999994,0.9759120000000001,0.209044,-0.12239000000000001,0.265936,0.49124399999999996,-0.11887400000000001,-0.138327,0.122102
313,2.82959,-1.346284,1.92753,0.068334,0.9749030000000001,0.211865,-0.094791,0.576371,0.357511,-0.279516,-0.11958699999999998,-0.017346
314,2.820667,-1.342017,1.905259,0.071534,0.973944,0.215192,-0.168959,0.601491,0.26723,-0.329529,-0.119452,0.005893
315,2.820513,-1.335509,1.896455,0.07356499999999999,0.972447,0.221191,-0.34884299999999996,0.341592,0.149871,-0.314517,-0.12196800000000001,0.024018
316,2.837081,-1.323482,1.9069189999999998,0.073393,0.9695729999999999,0.233521,-0.837059,0.298039,0.009784000000000001,-0.329389,0.145814,-0.085145
317,2.886453,-1.298073,1.951344,0.067976,0.963041,0.26061999999999996,-1.7090740000000002,0.32174200000000003,-0.365942,-0.222822,0.462725,0.225494
318,2.966352,-1.260278,2.0295669999999997,0.053269000000000004,0.952175,0.300858,-2.2781580000000003,0.195794,-0.876093,-0.108063,0.48485100000000003,0.267669
319,3.051466,-1.213807,2.117692,0.031451,0.936953,0.348023,-2.5717779999999997,-0.014636000000000001,-1.27739,0.246548,0.494199,-0.167817
320,3.125649,-1.160744,2.203374,0.0063560000000000005,0.9171,0.398594,-2.8531779999999998,-0.452574,-1.5383719999999999,0.390464,0.571731,0.08945800000000001
321,-3.103351,-1.101469,2.284208,-0.017291,0.8918729999999999,0.451945,-2.836666,-1.196785,-1.9229310000000002,0.507877,0.6897770000000001,0.374425
322,-3.051319,-1.063361,2.356484,-0.043807,0.873994,0.48394799999999993,-1.111393,0.073277,-1.6176780000000002,0.304412,0.183318,-0.053895000000000005
323,-3.00926,-1.044922,2.406093,-0.066232,0.864885,0.497571,-0.7160340000000001,-0.26027100000000003,-1.1327209999999999,0.125161,-0.384508,-0.036404
324,-2.989918,-1.0330840000000001,2.431238,-0.077385,0.8588819999999999,0.506283,-0.325972,0.046861,-0.489457,0.138389,-0.426098,-0.076488
325,-2.9763330000000003,-1.0295020000000001,2.443568,-0.08476,0.857043,0.508216,-0.06706000000000001,0.142208,-0.315787,0.147581,-0.237612,-0.24951900000000002
326,-2.963771,-1.028581,2.4566939999999997,-0.091277,0.856568,0.507888,0.099011,0.023536,-0.352931,0.154662,-0.262024,-0.027099
327,-2.949437,-1.03683,2.469732,-0.097195,0.8607950000000001,0.499575,0.706098,0.225165,-0.15346400000000002,0.170682,-0.302613,-0.039842
328,-2.9420759999999997,-1.055109,2.474743,-0.097735,0.8699540000000001,0.48334099999999997,0.986454,0.040645,0.192698,0.30446100000000004,-0.25137800000000005,-0.218723
329,-2.957187,-1.077101,2.463547,-0.08689,0.8805879999999999,0.46583800000000003,1.053806,-0.43648100000000006,0.637092,0.269782,-0.318744,-0.201129
330,-2.994514,-1.103961,2.4354669999999996,-0.065954,0.8929969999999999,0.44519200000000003,1.3571819999999999,-0.719096,0.985677,0.200613,-0.42304200000000003,-0.184068
331,-3.049811,-1.1400540000000001,2.38967,-0.038268,0.9086559999999999,0.41577600000000003,1.8660349999999999,-0.6083350000000001,1.350149,0.017241,-0.847941,-0.18036300000000002
332,-3.125234,-1.184865,2.311433,-0.006157,0.9264479999999999,0.376359,2.302182,0.110275,1.8831810000000002,-0.092918,-0.8458969999999999,-0.24672
333,3.040727,-1.227769,2.1819319999999998,0.033866,0.9417409999999999,0.33461599999999997,2.0802080000000003,0.096355,2.359143,-0.123405,-0.30082600000000004,-0.21654400000000001
334,2.883052,-1.252759,2.024155,0.079945,0.949851,0.302297,1.4666219999999999,-0.8275549999999999,2.171239,-0.14098,0.291299,0.019435
335,2.717167,-1.266528,1.88415,0.123366,0.954067,0.273,1.377675,-2.0517790000000002,1.505616,-0.041213,0.465855,0.437968
336,2.573476,-1.283309,1.777616,0.152551,0.958959,0.23899099999999998,1.450503,-1.888823,0.652406,0.087027,-0.014500999999999998,0.539849
337,2.4855669999999996,-1.3003120000000001,1.700939,0.162974,0.963642,0.211721,1.284616,0.183292,0.225577,0.174016,-0.17663900000000002,0.143518
338,2.445553,-1.324738,1.633313,0.156171,0.96988,0.18691,1.5584719999999999,1.506364,-0.27733800000000003,0.18651099999999998,-0.027223,-0.018453
339,2.471638,-1.3475540000000001,1.619078,0.137462,0.9751850000000001,0.173524,0.623834,2.6695450000000003,-0.7735350000000001,0.014972999999999998,0.126408,-0.631257
340,2.523861,-1.370767,1.625027,0.115071,0.9800610000000001,0.16196,1.108196,1.346502,-0.668043,0.057765,-0.04163,0.19736900000000002
341,2.585945,-1.37522,1.687816,0.102497,0.980936,0.165078,-1.294465,-0.24547,-0.603738,-0.376591,1.278891,1.097618
342,2.763105,-1.350832,1.840931,0.08061900000000001,0.9759049999999999,0.202734,-1.775122,2.387587,-1.175559,-0.8856569999999999,2.105958,0.792887
343,2.947292,-1.3369280000000001,1.9983259999999998,0.044741,0.972777,0.22736399999999998,-0.9425,0.447405,-1.551816,-0.23201300000000002,-0.488066,-0.7470939999999999
344,3.062621,-1.3117510000000001,2.1246720000000003,0.020207,0.966635,0.255344,-1.635334,-0.715955,-1.198379,0.206279,-1.18656,-0.26919899999999997
345,3.092531,-1.3028959999999998,2.1752119999999997,0.012981,0.9643290000000001,0.264374,0.197549,-0.9286989999999999,-0.202539,0.082478,-0.173603,0.140045
346,3.066681,-1.3082690000000001,2.1571580000000004,0.019422,0.9657370000000001,0.258779,0.48931099999999994,-0.206722,0.41280100000000003,-0.14552,1.1539979999999999,-0.15276099999999998
347,3.043289,-1.321006,2.1407689999999997,0.02426,0.9689639999999999,0.24599200000000002,0.412278,-0.5452170000000001,-0.11821,-0.23649499999999998,0.38392600000000005,-0.068288
348,3.049053,-1.324311,2.164558,0.022546,0.969776,0.242937,0.059154,-0.9990379999999999,-0.341217,-0.10784200000000001,0.10934100000000001,0.017851
349,3.045236,-1.32399,2.183563,0.023503,0.969698,0.24315799999999999,-0.068471,-1.1773280000000002,-0.133576,0.011333,-0.255052,0.029776
350,3.0164470000000003,-1.323809,2.177985,0.030514,0.9696530000000001,0.24255500000000002,0.045547000000000004,-1.1013469999999999,0.213227,0.093769,-0.392307,0.040831
351,2.9502669999999998,-1.323726,2.132083,0.046502999999999996,0.969633,0.240085,0.078362,-1.115267,0.734766,0.017309,-0.211454,0.126828
352,2.859302,-1.321959,2.056464,0.068597,0.969199,0.236512,0.23499099999999998,-0.647138,1.012998,-0.16536800000000001,0.10292899999999999,0.22177
353,2.767502,-1.323002,1.966536,0.08962,0.969456,0.228287,0.430667,-0.09274099999999999,0.9965629999999999,-0.32623800000000003,0.083217,-0.04306
354,2.686569,-1.322222,1.8889650000000002,0.108115,0.9692639999999999,0.22097399999999998,0.31685599999999997,-0.422962,0.825275,-0.394156,-0.057048,0.081745
355,2.608291,-1.321685,1.817445,0.125328,0.969132,0.21229099999999998,0.43407700000000005,-0.480785,0.798395,-0.489968,-0.205918,-0.098659
356,2.5300849999999997,-1.318649,1.7478200000000002,0.143219,0.9683790000000001,0.204259,0.27575500000000003,-0.577164,0.795276,-0.46521,0.050786000000000005,-0.023396
357,2.456411,-1.314411,1.689229,0.160462,0.9673129999999999,0.19634000000000001,0.273302,-1.009159,0.67083,-0.457795,0.163333,0.037288
358,2.389459,-1.308953,1.6421720000000002,0.176843,0.9659139999999999,0.18901800000000002,0.10353699999999999,-1.094627,0.613138,-0.519037,0.126172,-0.212455
359,2.350016,-1.2984040000000001,1.627944,0.191399,0.9631299999999999,0.189048,-0.48598900000000006,-1.441128,0.396888,-0.48209399999999997,0.18871,-0.096473
360,2.3524990000000003,-1.2853649999999999,1.6638130000000002,0.199826,0.95954,0.198354,-0.99875,-1.573835,-0.070132,-0.22509400000000002,0.47957700000000003,0.25011700000000003
361,2.411504,-1.2721930000000001,1.751581,0.196194,0.9557479999999999,0.219192,-1.5579100000000001,-1.015509,-0.680435,0.16533299999999998,0.508622,0.132828
362,2.517672,-1.255744,1.874625,0.18102200000000002,0.95078,0.251474,-1.901961,-0.319299,-1.060812,0.266015,0.45739300000000005,-0.001978
363,2.638207,-1.2372809999999999,2.005115,0.157913,0.9448979999999999,0.28674499999999997,-1.8216689999999998,-0.10946800000000001,-1.3884670000000001,0.43531899999999996,0.45167799999999997,-0.10562300000000001
364,2.748186,-1.223484,2.123348,0.130471,0.940291,0.314357,-1.220172,-0.021684000000000002,-1.484791,0.177817,0.586915,-0.203853
365,2.836802,-1.217833,2.2134,0.10373199999999999,0.9383530000000001,0.329734,-0.5675399999999999,0.159332,-1.231568,-0.19020399999999998,0.36854699999999996,-0.257575
366,2.8924279999999998,-1.215993,2.279583,0.08566499999999999,0.937715,0.33666399999999996,-0.357286,-0.5644979999999999,-1.020869,-0.273775,0.267577,-0.176217
367,2.93067,-1.215285,2.338508,0.072869,0.937469,0.340341,-0.163217,-1.02234,-0.979402,-0.119256,0.07649299999999999,-0.100244
368,2.959516,-1.220073,2.3935,0.062209,0.939124,0.337883,0.168762,-1.2131459999999998,-0.9704299999999999,-0.015502000000000002,-0.006843000000000001,-0.166786
369,2.97735,-1.228497,2.446698,0.054879,0.9419850000000001,0.331121,0.280901,-1.8974520000000001,-0.967701,0.18003,-0.133193,-0.20929499999999998
370,2.980317,-1.237854,2.4994389999999997,0.052478,0.9450850000000001,0.322567,0.35428699999999996,-2.584054,-0.890465,0.370602,-0.130082,-0.22469699999999998
371,2.966316,-1.2477280000000002,2.54261,0.055359000000000005,0.9482659999999999,0.312596,0.339908,-2.7806349999999997,-0.735421,0.34083600000000003,-0.180276,-0.23947600000000002
372,2.948426,-1.2522440000000001,2.585354,0.060119000000000006,0.9496899999999999,0.307349,-0.044994,-3.100346,-0.636219,0.17308099999999998,-0.21491799999999997,-0.274863
373,2.9119919999999997,-1.249703,2.618161,0.071824,0.948891,0.307304,-0.330493,-3.463632,-0.382443,0.148498,-0.161156,-0.124306
374,2.866437,-1.242877,2.64152,0.087502,0.9467139999999999,0.309942,-0.451082,-3.32531,-0.237116,0.20044700000000001,-0.14752,0.078791
375,2.8235509999999997,-1.237296,2.6589509999999996,0.10236,0.944902,0.31092,-0.248707,-2.6529,-0.20131300000000002,0.186809,-0.12753499999999998,0.158166
376,2.7899220000000002,-1.235426,2.673708,0.11336500000000001,0.9442879999999999,0.308961,-0.151017,-2.2835810000000003,-0.20324,0.005867,-0.05341900000000001,0.072264
377,2.760341,-1.233596,2.690538,0.123097,0.943685,0.307077,-0.21935300000000002,-2.3247720000000003,-0.23250700000000002,-0.074879,0.005046,-0.027627999999999996
378,2.729837,-1.229697,2.710048,0.133876,0.9423879999999999,0.30655,-0.35779299999999997,-2.483105,-0.210838,-0.11564200000000001,0.012401,-0.049683
379,2.69961,-1.222967,2.730196,0.14579,0.9401149999999999,0.30809000000000003,-0.497648,-2.437079,-0.144576,-0.09914400000000001,-0.072378,0.047760000000000004
380,2.669608,-1.213013,2.749908,0.15921300000000002,0.9366760000000001,0.311897,-0.666716,-2.460279,-0.057065,-0.097552,0.038743,0.16683199999999998
381,2.638836,-1.200755,2.772009,0.174254,0.932312,0.31689,-0.731581,-2.674076,-0.081813,-0.11259300000000001,0.043106,0.161839
382,2.608795,-1.1912280000000002,2.799607,0.188197,0.928825,0.31915,-0.607283,-2.761029,-0.289137,-0.144343,-0.008612999999999999,0.243945
383,2.5895509999999997,-1.186239,2.833841,0.196731,0.9269649999999999,0.319412,-0.5279189999999999,-2.392985,-0.48881099999999994,-0.182907,-0.038445,0.251282
384,2.587227,-1.1858229999999998,2.8746680000000002,0.197676,0.926808,0.319282,-0.307348,-1.7567689999999998,-0.741255,-0.200606,-0.051441999999999995,0.155968
385,2.5969029999999997,-1.19525,2.915689,0.19004300000000002,0.930307,0.31369400000000003,0.200576,-1.2717829999999999,-0.9861559999999999,-0.155863,-0.124079,-0.117283
386,2.609685,-1.212215,2.957948,0.17798599999999998,0.9363959999999999,0.30245,0.34876,-1.428367,-1.1173799999999998,-0.08670800000000001,-0.149454,0.06614199999999999
387,2.624596,-1.229054,3.002169,0.165639,0.9421719999999999,0.291319,0.378332,-1.171023,-1.029909,0.09106,-0.022632,0.006792
388,2.642605,-1.246656,3.036379,0.15240499999999998,0.947925,0.279649,0.569535,-0.442791,-0.825476,0.311736,0.17677,-0.24539299999999997
389,2.651339,-1.264939,3.0537669999999997,0.141771,0.9535889999999999,0.26563200000000003,0.714988,-0.602971,-0.5881770000000001,0.584974,0.7930229999999999,-0.046577
390,2.6511419999999997,-1.2742440000000002,3.0727759999999997,0.137638,0.95635,0.257766,-0.251445,-0.8846569999999999,-0.43646999999999997,0.09614199999999999,1.011348,0.329271
391,2.708376,-1.260657,3.134345,0.128111,0.952291,0.276985,-1.107017,0.450345,-0.546706,-0.208723,-0.164053,-0.077079
392,2.757335,-1.2508709999999998,-3.113491,0.11789000000000001,0.949259,0.291549,-0.430662,0.6379779999999999,-0.104252,0.039855,-1.056208,-0.496688
393,2.736264,-1.2457129999999998,-3.13183,0.125936,0.947624,0.29349699999999995,-0.039534,-0.630782,0.625429,-0.010976999999999999,-0.882591,-0.457239
394,2.67362,-1.24339,3.110871,0.145056,0.9468799999999999,0.287002,0.397892,-1.4627379999999999,0.5067050000000001,-0.487784,0.295583,-0.513885
395,2.628794,-1.253563,3.090209,0.15303699999999998,0.950102,0.271805,0.6259,-1.140742,-0.293281,-0.682288,1.207567,-0.386444
396,2.618035,-1.274096,3.103134,0.14616600000000002,0.956307,0.25319,0.894849,-1.186373,-0.8361370000000001,-0.20041099999999998,0.58596,-0.069246
397,2.6048139999999997,-1.297456,3.120633,0.138037,0.962875,0.231971,0.836362,-1.6673669999999998,-0.646854,0.14538,-0.110305,0.09327
398,2.557904,-1.3107360000000001,3.107025,0.141701,0.966375,0.214552,0.566588,-1.661727,0.040257,0.394813,-0.183095,-0.118269
399,2.479269,-1.315636,3.063455,0.155204,0.967623,0.199022,0.527621,-1.883623,0.419488,0.38659,-0.150927,-0.10667599999999999
400,2.384728,-1.318669,3.000116,0.171281,0.968384,0.181346,0.696499,-1.4787379999999999,0.519494,0.253188,-0.114472,-0.102778
401,2.2923459999999998,-1.321814,2.92795,0.18499300000000002,0.9691639999999999,0.162759,0.78015,-0.9207719999999999,0.506544,0.041356,-0.069078,-0.162683
402,2.201942,-1.324692,2.849805,0.196679,0.9698690000000001,0.143747,0.859301,-0.679067,0.46619499999999997,-0.038766,-0.017644,-0.17313499999999998
403,2.1117169999999996,-1.3272540000000002,2.771943,0.2067,0.97049,0.124161,0.8602620000000001,-0.783143,0.38515,-0.16386900000000001,0.039596,-0.21980300000000003
404,2.018707,-1.329114,2.69489,0.21570999999999999,0.970937,0.103645,0.85209,-0.975785,0.34902,-0.22175300000000003,-0.08405,-0.18929200000000002
405,1.924231,-1.32966,2.617434,0.22402800000000003,0.971067,0.08265,0.870466,-0.9385,0.33307800000000004,-0.18698,-0.07182100000000001,-0.150857
406,1.827375,-1.328446,2.538029,0.23211199999999999,0.970777,0.060897,0.9063030000000001,-1.021773,0.34732199999999996,-0.065669,0.031985,-0.040282
407,1.731714,-1.324807,2.4593979999999998,0.24035399999999998,0.9698969999999999,0.039014,0.858635,-0.89186,0.401301,0.030993,0.012754000000000001,0.19237
408,1.6546450000000001,-1.317705,2.394432,0.249502,0.968143,0.02097,0.69533,-0.573164,0.498029,0.023722,-0.000949,0.217464
409,1.5994899999999999,-1.308717,2.3467919999999998,0.258967,0.9658530000000001,0.0074329999999999995,0.543756,-0.372284,0.47748500000000005,-0.099467,-0.030581,0.152739
410,1.551275,-1.29874,2.302936,0.268646,0.9632200000000001,-0.0052450000000000005,0.6121989999999999,-0.30977899999999997,0.504588,-0.226807,-0.015177000000000001,-0.097859
411,1.4996770000000001,-1.288142,2.257387,0.27818699999999996,0.960319,-0.019818000000000002,0.63397,-0.47911899999999996,0.47611499999999995,-0.24805100000000002,0.017083,-0.10559400000000001
412,1.4533049999999998,-1.27882,2.221914,0.285848,0.957677,-0.03374,0.496788,-0.7200439999999999,0.371848,-0.21855700000000003,0.130077,-0.010526
413,1.4051850000000001,-1.2721040000000001,2.1895599999999997,0.290231,0.955722,-0.048510000000000005,0.55648,-0.9091600000000001,0.194116,-0.165735,0.11579600000000001,0.085482
414,1.347564,-1.268338,2.148013,0.290464,0.954607,-0.06594,0.6707609999999999,-0.8469559999999999,-0.009196,-0.12215899999999999,0.107176,0.133277
415,1.29645,-1.267409,2.107816,0.287569,0.9543299999999999,-0.080934,0.520237,-0.524189,-0.14205299999999998,-0.008639,0.065354,0.22633499999999998
416,1.263548,-1.2678129999999999,2.081841,0.284383,0.954451,-0.09023400000000001,0.264996,-0.30401100000000003,-0.103525,-0.0015609999999999999,0.040651,0.269509
417,1.2555129999999999,-1.272031,2.077126,0.279818,0.955701,-0.091266,-0.035869,-0.15548900000000002,0.044802,-0.041689,0.007297,0.122928
418,1.2772940000000002,-1.279065,2.101687,0.27529699999999996,0.9577469999999999,-0.083203,-0.311952,-0.081105,0.06414299999999999,-0.291029,0.38348499999999996,0.087918
419,1.298605,-1.281626,2.126462,0.274644,0.9584809999999999,-0.076658,-0.397262,-0.217642,-0.082624,-0.342484,0.344803,0.061811000000000005
420,1.323589,-1.2886360000000001,2.160213,0.269951,0.960456,-0.068127,-0.689539,-0.442576,-0.321523,-0.409096,0.31321,0.003934
421,1.3714469999999999,-1.303181,2.222364,0.259179,0.964404,-0.052363,-1.174756,-0.712313,-0.643965,-0.39779000000000003,0.343686,0.0027559999999999998
422,1.458652,-1.32341,2.333917,0.24331399999999997,0.969556,-0.027401,-1.823928,-1.232413,-0.818749,-0.24792199999999998,0.338077,0.19198199999999999
423,1.621092,-1.3414780000000002,2.528054,0.22700599999999999,0.9738209999999999,0.011427,-2.6017040000000002,-1.238213,-0.825242,-0.15506099999999998,0.286112,0.257418
424,1.8765330000000002,-1.3473709999999999,2.8052349999999997,0.211274,0.975144,0.06668500000000001,-3.191852,-0.331705,-0.835867,0.137817,0.10028,0.226787
425,2.1646900000000002,-1.334705,3.093789,0.193833,0.97226,0.130878,-3.161238,0.7538199999999999,-0.864818,0.22438000000000002,0.023681999999999998,-0.017078
426,2.409782,-1.309008,-2.95723,0.172926,0.965929,0.192528,-2.890013,0.967302,-0.940109,0.08236900000000001,0.135115,-0.371865
427,2.592012,-1.2755889999999999,-2.776818,0.151955,0.956742,0.248079,-2.749045,0.166206,-1.059875,-0.067086,0.266494,-0.455751
428,2.7302310000000003,-1.2407549999999998,-2.630839,0.129579,0.9460290000000001,0.29703,-2.4187830000000003,-0.182312,-1.302813,-0.197435,0.48878599999999994,-0.497561
429,2.827369,-1.209141,-2.5074009999999998,0.10935399999999999,0.935312,0.336482,-2.127416,-1.508938,-1.4657200000000001,-0.194712,0.5566,-0.352321
430,2.892195,-1.17821,-2.392083,0.094424,0.9239229999999999,0.370727,-2.018084,-2.363705,-1.7223709999999999,-0.012103000000000001,0.378277,-0.297088
431,2.942201,-1.149853,-2.283609,0.080934,0.9127040000000001,0.40051,-1.743848,-2.433582,-1.801551,0.129408,0.086747,-0.245756
432,2.992903,-1.1283459999999998,-2.182795,0.063426,0.903705,0.42341599999999996,-1.2189649999999999,-1.8776669999999998,-1.950284,0.15648399999999998,-0.12472899999999999,-0.33473200000000003
433,3.039997,-1.1139459999999999,-2.085245,0.044738,0.897446,0.438834,-0.8432440000000001,-2.1460790000000003,-2.018887,0.17772000000000002,-0.217225,-0.30457199999999995
434,3.079786,-1.104905,-1.995137,0.027745999999999996,0.8934209999999999,0.44834799999999997,-0.479912,-1.926125,-1.9279680000000001,0.15159,-0.216862,-0.311202
435,3.1169849999999997,-1.099493,-1.912268,0.011170999999999999,0.890977,0.45389700000000005,-0.30287,-1.8164509999999998,-1.8029580000000003,0.109083,-0.187425,-0.380365
436,-3.1396990000000002,-1.093732,-1.8379150000000002,-0.0008699999999999999,0.8883469999999999,0.45915900000000004,-0.32326,-2.149423,-1.633895,0.106048,-0.168345,-0.46645299999999995
437,-3.1306990000000003,-1.087042,-1.772989,-0.005065999999999999,0.8852549999999999,0.46506499999999995,-0.295202,-2.586042,-1.428041,0.141877,-0.18571600000000002,-0.434929
438,-3.136747,-1.0842129999999999,-1.7178849999999999,-0.0022660000000000002,0.883936,0.46758900000000003,-0.002637,-2.770182,-1.187548,0.202019,-0.229532,-0.296187
439,3.131337,-1.088963,-1.6761419999999998,0.004752,0.8861469999999999,0.46336499999999997,0.36733000000000005,-2.49264,-0.8520340000000001,0.24311100000000002,-0.248574,-0.21530300000000002
440,3.110175,-1.1007209999999998,-1.648697,0.014228,0.891534,0.452715,0.697091,-2.139328,-0.51583,0.277673,-0.225671,-0.148882
441,3.0823509999999996,-1.118483,-1.638117,0.025875,0.899439,0.43626499999999996,0.984398,-1.691241,-0.13410999999999998,0.30228,-0.23739000000000002,-0.069489
442,3.045214,-1.141617,-1.647103,0.040042,0.909308,0.41417600000000004,1.2746950000000001,-1.304891,0.232754,0.265927,-0.133963,0.030862
443,2.9988259999999998,-1.169593,-1.6720580000000003,0.055562,0.920592,0.386534,1.54241,-1.178566,0.377604,0.014293,0.041337,0.09253099999999999
444,2.942148,-1.200025,-1.707028,0.071783,0.932048,0.355131,1.614732,-1.233131,0.373906,-0.089072,0.091511,0.10325799999999999
445,2.876696,-1.224259,-1.74473,0.088916,0.9405540000000001,0.327776,1.042927,-1.7115189999999998,0.356638,-0.14676199999999998,0.287198,0.247008
446,2.821527,-1.228416,-1.7605220000000001,0.105624,0.941958,0.31866,-0.21235,-2.155453,0.041859,-0.07203899999999999,0.394712,0.43983900000000004
447,2.813255,-1.223694,-1.729387,0.10968900000000001,0.940363,0.321983,-0.285632,-1.633432,-0.7017359999999999,-0.188196,0.23816500000000002,0.271615
448,2.83879,-1.230604,-1.677613,0.099493,0.9426899999999999,0.318469,0.26803699999999997,-0.788199,-1.032237,-0.270681,-0.12004300000000001,0.153944
449,2.886085,-1.243415,-1.624369,0.081265,0.946888,0.311103,0.34574,0.192363,-0.960311,-0.21294899999999997,-0.204532,0.002694
450,2.93955,-1.251667,-1.5755780000000001,0.062954,0.949509,0.307336,0.183198,0.279595,-0.789575,-0.122707,-0.093796,-0.155313
451,2.973691,-1.261211,-1.534878,0.050910000000000004,0.9524600000000001,0.30035700000000004,0.510505,-0.575417,-0.641983,-0.047369999999999995,0.156335,-0.360263
452,2.9719029999999997,-1.276037,-1.5084520000000001,0.049056999999999996,0.956872,0.286315,0.664337,-1.776175,-0.460977,0.306824,0.563926,-0.475692
453,2.967168,-1.28139,-1.471007,0.049522000000000004,0.958414,0.28103,-0.19513,-2.1153880000000003,-0.667371,0.140542,0.548453,-0.19702999999999998
454,2.990109,-1.271457,-1.417628,0.044497,0.9555319999999999,0.291489,-0.789575,-0.6701199999999999,-0.6071449999999999,0.643217,-0.6098439999999999,0.000656
455,3.003325,-1.2583959999999998,-1.404809,0.042358,0.9515979999999999,0.30438899999999997,-0.43338699999999997,0.140175,0.24354099999999998,0.746583,-0.706283,-0.046225999999999996
456,2.947221,-1.262773,-1.458433,0.058553999999999995,0.9529350000000001,0.29744499999999996,0.81517,-0.41814700000000005,1.054144,0.64042,-0.608391,-0.215047
457,2.842089,-1.281172,-1.558669,0.084256,0.9583510000000001,0.272857,1.375042,-0.438346,1.0911950000000001,-0.007474,0.506508,-0.562377
458,2.769614,-1.298656,-1.6302530000000002,0.097687,0.963198,0.250388,0.878864,-0.135801,0.45495399999999997,-0.235077,0.346754,-0.19657
459,2.7265189999999997,-1.304599,-1.6623860000000001,0.106073,0.964778,0.240704,0.272055,-0.799563,0.205875,-0.18789,0.089268,-0.027355
460,2.683112,-1.3040100000000001,-1.681798,0.11666900000000001,0.964623,0.236384,-0.038738999999999996,-1.514628,0.275123,-0.24704,0.037939999999999995,-0.138316
461,2.63072,-1.302192,-1.7008740000000002,0.129745,0.964142,0.231479,0.139261,-1.7900880000000001,0.27565100000000003,-0.200286,-0.005906000000000001,-0.121646
462,2.565382,-1.304461,-1.731497,0.14339000000000002,0.964742,0.22068000000000002,0.37311500000000003,-1.720691,0.300697,0.007672,-0.06540399999999999,-0.10143200000000001
463,2.498263,-1.306734,-1.7671540000000001,0.156552,0.9653379999999999,0.20881100000000002,0.382345,-1.543976,0.322967,-0.061719,-0.017599,-0.08757999999999999
464,2.433561,-1.312217,-1.8101330000000002,0.16628099999999998,0.9667540000000001,0.19422799999999998,0.656511,-0.944749,0.21622399999999997,-0.037268,0.108838,-0.072417
465,2.375955,-1.319636,-1.85113,0.17221199999999998,0.968625,0.17915599999999998,0.5483899999999999,-0.922522,0.080841,-0.048036,0.044269,-0.063921
466,2.336015,-1.3244340000000001,-1.8734110000000002,0.175874,0.969806,0.168915,0.26405100000000004,-0.883935,0.001894,-0.033311,-0.098773,-0.013505000000000001
467,2.310726,-1.326849,-1.8815009999999999,0.178359,0.970392,0.16283499999999998,0.096764,-0.871491,-0.034542,-0.050781,-0.150583,0.004218
468,2.297253,-1.328359,-1.8797220000000001,0.17944200000000002,0.970756,0.159444,0.021221,-0.655771,-0.102644,-0.12112300000000001,-0.117469,-0.006917
469,2.2944299999999997,-1.3320379999999998,-1.873182,0.177213,0.9716319999999999,0.15657100000000002,0.077706,-0.34112,-0.250067,-0.180463,-0.081541,-0.048035
470,2.308574,-1.337969,-1.853978,0.170713,0.973018,0.155182,-0.019954,-0.184482,-0.442162,-0.197218,-0.023844999999999998,0.061157
471,2.350968,-1.3427040000000001,-1.8085959999999999,0.160705,0.9741,0.15903399999999998,-0.29391,-0.025341,-0.574603,-0.281891,-0.123971,-0.044425
472,2.423168,-1.3440590000000001,-1.7361959999999999,0.147945,0.974405,0.169218,-0.706678,0.150093,-0.665305,-0.201473,-0.394418,0.193499
473,2.5139299999999998,-1.3374979999999999,-1.6483240000000001,0.135751,0.972909,0.187103,-0.8647469999999999,0.27569,-0.5020640000000001,0.033591,-0.604104,0.26911999999999997
474,2.57229,-1.33075,-1.59417,0.128142,0.971327,0.200227,-0.552201,0.29270300000000005,-0.23284699999999997,0.043016000000000006,-0.347197,-0.143494
475,2.614951,-1.32284,-1.554395,0.12334500000000001,0.9694159999999999,0.21214699999999997,-0.598767,0.142648,-0.229775,-0.08882999999999999,-0.051615,-0.24292399999999997
476,2.65445,-1.316483,-1.516609,0.117754,0.967836,0.22229200000000002,-0.477804,0.20731100000000002,-0.254651,-0.255479,-0.074541,0.005338
477,2.693117,-1.31073,-1.483349,0.11148499999999999,0.9663729999999999,0.231692,-0.364309,0.325049,-0.226235,-0.11984600000000001,-0.24957600000000002,-0.121005
478,2.724814,-1.304978,-1.457202,0.106334,0.964878,0.240188,-0.47024,0.30286,-0.179945,0.009022,-0.24838600000000002,-0.190139
479,2.7481009999999997,-1.296341,-1.435531,0.103904,0.9625729999999999,0.250286,-0.5339729999999999,0.022383,-0.047570999999999995,-0.132774,0.072522,0.000721
480,2.7600849999999997,-1.288273,-1.421691,0.10378599999999999,0.960355,0.258713,-0.347197,-0.178624,-0.025712,-0.211681,0.342578,-0.15321400000000002
481,2.772799,-1.281719,-1.40173,0.102755,0.958507,0.265877,-0.48115699999999995,-0.298695,-0.251889,-0.39725,0.275486,-0.175499
482,2.8148470000000003,-1.271574,-1.353323,0.094604,0.955566,0.27915700000000004,-0.902468,-0.178519,-0.635273,-0.26918000000000003,0.433792,0.010364
483,2.897151,-1.249895,-1.26849,0.076331,0.948951,0.30602199999999996,-1.726479,0.197047,-1.132892,-0.13642,0.534691,0.092462
484,3.004884,-1.211978,-1.155719,0.047855,0.936312,0.347869,-2.4601040000000003,-0.044194,-1.7060009999999999,0.10653299999999999,0.5975010000000001,0.199982
485,3.107438,-1.1594659999999999,-1.040966,0.013653,0.91659,0.399575,-2.952177,-0.371607,-1.98462,0.466038,0.507559,0.044745
486,-3.10308,-1.103232,-0.9483540000000001,-0.017353,0.892669,0.45036099999999996,-2.65387,-0.631796,-1.9117,0.58939,0.253663,-0.26311999999999997
487,-3.0646619999999998,-1.052697,-0.884834,-0.038058999999999996,0.868762,0.49374799999999996,-2.305444,-1.004428,-1.468682,0.507359,0.138257,-0.39418400000000003
488,-3.047148,-1.0115809999999998,-0.843491,-0.050029000000000004,0.847671,0.528142,-1.6652209999999998,-0.601268,-1.080166,0.044414,0.012833,0.167537
489,-3.02182,-0.9909129999999999,-0.817241,-0.065468,0.836527,0.543985,-0.501354,0.4871,-0.67178,0.039681,0.22785,0.011068000000000001
490,-3.0044009999999997,-0.990303,-0.8007449999999999,-0.075003,0.836192,0.5432680000000001,0.220406,-0.106525,-0.432037,0.086447,0.389486,-0.280817
491,-2.997739,-0.993973,-0.779898,-0.07818,0.838199,0.539715,0.29835,-0.703869,-0.5685279999999999,0.245065,-0.13602,-0.29501
492,-2.9942,-1.002881,-0.758275,-0.07899,0.843024,0.532028,0.704398,-0.698241,-0.46315,0.297831,-0.289008,-0.263504
493,-2.988037,-1.02347,-0.739822,-0.079595,0.8539190000000001,0.514266,1.326108,-0.30182800000000004,-0.23605700000000002,0.416067,-0.559104,-0.114547
494,-2.983404,-1.054474,-0.728058,-0.077767,0.869641,0.487504,1.664634,-0.370402,0.10181799999999999,0.347115,-0.563397,-0.094575
495,-3.002306,-1.0880459999999998,-0.735973,-0.064448,0.8857209999999999,0.459704,1.565547,-0.762074,0.632534,0.168925,-0.547343,-0.0246
496,-3.047123,-1.120945,-0.770691,-0.041016000000000004,0.9005120000000001,0.432874,1.589785,-0.529957,1.171858,-0.182342,-0.507629,0.097522
497,-3.110819,-1.157201,-0.8390110000000001,-0.012366,0.915682,0.401694,1.764173,0.152095,1.7501099999999998,-0.345285,-0.47461099999999995,-0.305213
498,3.076996,-1.190144,-0.9426829999999999,0.023981,0.928423,0.37073,1.559266,-0.28087399999999996,2.044062,-0.298991,-0.305284,-0.41208199999999995
499,2.953586,-1.208958,-1.050973,0.06615800000000001,0.935248,0.347735,0.9758620000000001,-1.588588,1.6400119999999998,0.144978,0.09159199999999999,0.16557
500,2.834596,-1.217315,-1.135263,0.104604,0.9381729999999999,0.329961,0.6436649999999999,-2.124654,1.187589,0.140147,0.111082,0.285533
501,2.739176,-1.222756,-1.201658,0.13356500000000002,0.9400430000000001,0.313793,0.751999,-1.190315,0.804725,0.134242,0.081152,0.28014
502,2.681043,-1.238291,-1.2551860000000001,0.145061,0.9452280000000001,0.29238400000000003,1.2766030000000002,-0.090789,0.310257,0.34499,-0.209067,-0.000758
503,2.630959,-1.260633,-1.302386,0.14915599999999998,0.952284,0.26626,1.276076,-0.439267,0.077827,0.445403,-0.178465,0.16608299999999998
504,2.613241,-1.274051,-1.322875,0.147395,0.9562930000000001,0.25251599999999996,0.224201,0.761674,-0.169273,-0.018992,0.14475,-0.176482
505,2.651966,-1.2813709999999998,-1.316414,0.134213,0.958408,0.25185,0.650204,1.266356,-0.20753600000000003,0.209064,0.12728499999999998,-0.565189
506,2.6471150000000003,-1.28948,-1.325524,0.13174,0.960691,0.244346,-0.264373,-0.080698,-0.077602,-0.05627000000000001,0.006625,0.619103
507,2.687419,-1.26864,-1.281695,0.130544,0.9546969999999999,0.267391,-1.0497299999999998,0.067165,-0.143098,-0.413152,0.30931,-0.083325
508,2.728095,-1.273031,-1.254556,0.117877,0.955994,0.268637,0.30654000000000003,1.241755,-0.683127,-0.426501,1.0569600000000001,-0.264029
509,2.832378,-1.275269,-1.167365,0.088622,0.956649,0.277409,-0.869675,0.6658649999999999,-1.6327770000000001,-0.820967,1.625932,0.004101
510,2.97673,-1.256329,-1.036879,0.050759,0.9509610000000001,0.30509400000000003,-1.5469389999999998,1.090575,-1.49491,-0.173043,-0.194583,0.318227
511,3.043127,-1.2391370000000002,-0.965884,0.032008,0.9455030000000001,0.32401399999999997,-0.5095310000000001,-0.64622,-0.698159,0.40003,-0.646889,-1.194375
512,3.047489,-1.2354610000000001,-0.940945,0.03092,0.9443,0.32760900000000004,-0.387119,-1.216218,-0.253261,0.25655500000000003,-0.21706599999999998,0.138639
513,3.023574,-1.224589,-0.944477,0.039952,0.940666,0.336951,-0.18198599999999998,-0.8070149999999999,0.33303299999999997,0.12328599999999999,0.228096,0.481195
514,2.998519,-1.234825,-0.961656,0.047006,0.944091,0.326297,0.573392,-0.39721599999999996,0.028,-0.01896,0.297532,-0.16315
515,2.995108,-1.239845,-0.9564389999999999,0.047425999999999996,0.945734,0.321442,0.158433,-0.32156,-0.15018399999999998,0.0010199999999999999,0.167166,0.075408
516,2.99227,-1.2460209999999998,-0.956204,0.047468,0.947722,0.315525,0.37754699999999997,-0.062014,0.021928,-0.045958,0.011323,-0.054173
517,2.9807349999999997,-1.250599,-0.9658760000000001,0.050408999999999995,0.9491729999999999,0.31067,0.153197,-0.22266999999999998,0.165845,-0.097147,-0.198654,0.005782
518,2.957817,-1.2531459999999999,-0.984615,0.057073,0.9499719999999999,0.307055,0.225933,-0.231134,0.354371,-0.085744,-0.387258,-0.0535
519,2.923524,-1.256222,-1.017992,0.06693500000000001,0.9509280000000001,0.302063,0.278118,-0.05633200000000001,0.5510649999999999,-0.18340499999999998,-0.311737,0.12850899999999998
520,2.881889,-1.2616969999999998,-1.0662479999999999,0.078111,0.952608,0.293979,0.541048,0.43113199999999996,0.697555,-0.27972600000000003,-0.008272,0.0017510000000000002
521,2.851979,-1.267133,-1.113302,0.085388,0.954247,0.286546,0.30588899999999997,0.8397120000000001,0.49028999999999995,-0.236542,0.206,0.071639
522,2.8515,-1.266473,-1.128782,0.08570599999999999,0.95405,0.287108,-0.066885,0.579508,0.084232,-0.16805699999999998,0.085745,-0.027571
523,2.8733560000000002,-1.260882,-1.118727,0.080823,0.95236,0.294051,-0.486555,0.752288,-0.13577,-0.292981,0.10254100000000001,-0.059951
524,2.92781,-1.242653,-1.082308,0.068371,0.946642,0.314931,-1.3872200000000001,1.048798,-0.5109779999999999,-0.278119,0.273771,0.0076549999999999995
525,3.012991,-1.210869,-1.011156,0.045167,0.9359219999999999,0.34928000000000003,-1.927144,0.878503,-1.144782,-0.21898,0.439856,0.10421099999999998
526,3.10938,-1.1696879999999998,-0.9214459999999999,0.012574,0.9206290000000001,0.39021999999999996,-2.3862740000000002,0.269692,-1.6770470000000002,0.221969,0.764247,-0.049369
527,-3.101453,-1.1177979999999998,-0.8311719999999999,-0.017562,0.8991389999999999,0.43729399999999996,-2.626271,-0.719017,-1.968013,0.506408,0.640885,-0.12194100000000001
528,-3.053227,-1.061909,-0.756212,-0.042995,0.873287,0.48528999999999994,-2.687017,-1.223457,-1.774443,0.5609390000000001,0.38510500000000003,-0.11033599999999999
529,-3.031709,-1.0190709999999998,-0.710946,-0.057478999999999995,0.851621,0.520982,-1.449272,-0.262214,-1.0748209999999998,0.46298100000000003,0.12343,0.186385
530,-3.0009740000000003,-1.001492,-0.686533,-0.075549,0.842276,0.533712,-0.554175,0.698892,-0.576282,0.146197,0.00895,-0.136602
531,-2.9845080000000004,-0.9925450000000001,-0.6784020000000001,-0.085502,0.83742,0.539817,-0.335523,0.34297,-0.203625,0.15615,0.013807,-0.142707
532,-2.9698,-0.9873629999999999,-0.66993,-0.094172,0.834576,0.54277,-0.142716,0.403462,-0.31345100000000004,0.300578,-0.289044,-0.24969499999999997
533,-2.952616,-0.9879889999999999,-0.658197,-0.10338599999999999,0.8349209999999999,0.540558,0.25303200000000003,0.412638,-0.287198,0.315438,-0.613867,-0.25097600000000003
534,-2.9352099999999997,-0.9968790000000001,-0.651196,-0.11125399999999999,0.839781,0.5313899999999999,0.575846,0.6455930000000001,0.05018,0.323305,-0.618726,-0.24180900000000002
535,-2.931309,-1.012253,-0.659563,-0.11061800000000001,0.8480280000000001,0.518263,0.7835949999999999,0.407271,0.593525,0.17613900000000002,-0.641012,-0.28629899999999997
536,-2.951604,-1.0348700000000002,-0.685683,-0.09643,0.8597959999999999,0.5014350000000001,1.122007,-0.05481900000000001,1.038725,0.027292,-0.5674680000000001,-0.19934200000000002
537,-2.990227,-1.068142,-0.727071,-0.07264,0.876307,0.476229,1.6594759999999997,-0.14368599999999998,1.4837690000000001,0.003503,-0.583979,-0.17413599999999999
538,-3.051342,-1.109488,-0.795253,-0.040116000000000006,0.8954709999999999,0.443292,1.933102,0.028973000000000002,2.023843,-0.265227,-0.315774,-0.26772399999999996
539,3.140598,-1.1493520000000002,-0.895602,0.000407,0.912499,0.409061,1.8384049999999998,-0.120913,2.292565,-0.185725,0.09275,-0.206104
540,3.033207,-1.183208,-1.006527,0.040882999999999996,0.925823,0.375722,1.8585,-0.342999,1.869975,-0.11675,0.209934,-0.13161099999999998
541,2.937822,-1.218856,-1.095169,0.069755,0.9387059999999999,0.33757,2.0855069999999998,-0.822733,0.965255,0.15366400000000002,0.20076,0.017731
542,2.8578099999999997,-1.258181,-1.15821,0.086104,0.9515319999999999,0.295227,2.1885220000000003,-1.1144450000000001,0.300846,0.310411,0.145071,0.17690999999999998
543,2.782193,-1.2969469999999998,-1.211231,0.095108,0.9627370000000001,0.25313800000000003,1.977748,-1.309579,-0.001615,0.17898499999999998,0.416551,0.331289
544,2.727373,-1.334989,-1.242401,0.094019,0.972326,0.213846,1.8226930000000001,-1.009531,-0.57565,-0.206263,0.475001,0.152075
545,2.755127,-1.366557,-1.222329,0.076436,0.979216,0.18783699999999998,1.262609,1.318025,-0.870964,0.218775,-0.10813699999999998,-0.847001
546,2.7635970000000003,-1.393142,-1.2311969999999999,0.065209,0.984261,0.164216,0.81105,0.060816999999999996,-0.168549,0.42832200000000004,-0.204827,-0.164872
547,2.7956090000000002,-1.3539290000000002,-1.172883,0.07296,0.976576,0.202395,-3.5416550000000004,-1.6989169999999998,0.382278,0.540428,-0.31904499999999997,1.6433689999999999
548,2.831314,-1.325048,-1.14495,0.074273,0.9699559999999999,0.23164200000000001,0.10769100000000001,1.82988,-0.001609,-0.147042,0.317429,-0.660048
549,2.8780490000000003,-1.330014,-1.139872,0.062113999999999996,0.971152,0.23020500000000002,0.288964,1.8587619999999998,-0.188387,-0.003322,0.36202399999999996,-1.140148
550,2.924568,-1.3332680000000001,-1.101793,0.050661000000000005,0.971922,0.229756,-0.33539800000000003,-0.042064,-0.6186689999999999,-0.0028239999999999997,0.48954899999999996,-0.407491
551,3.004739,-1.325895,-1.0220770000000001,0.033075,0.970161,0.240169,-0.10970899999999999,0.356277,-1.061984,-0.749765,0.811775,0.310948
552,3.127185,-1.340064,-0.920426,0.0032939999999999996,0.973499,0.22864,0.667179,1.503334,-1.141348,-0.042601,-0.020481,-0.509204
553,-3.0929830000000003,-1.3374,-0.8663139999999999,-0.011237,0.9728870000000001,0.23098200000000002,-0.674655,-0.305906,-0.411329,0.23674699999999999,-0.31485100000000005,-0.157801
554,-3.107493,-1.315388,-0.859226,-0.008612999999999999,0.9675600000000001,0.252469,-1.091595,-1.25109,0.020668000000000002,0.244162,-0.415421,-0.08122
555,3.135163,-1.300789,-0.8799610000000001,0.001715,0.9637690000000001,0.26671,-0.576617,-0.918956,0.430832,0.221216,-0.301034,0.076292
556,3.0817639999999997,-1.29172,-0.923341,0.01647,0.96131,0.274954,-0.313659,-0.335977,0.66693,0.301127,-0.052726,0.229487
557,3.031528,-1.2892370000000002,-0.9782870000000001,0.030518,0.960623,0.276152,0.153029,0.392563,0.8220120000000001,0.176757,0.10703399999999999,0.053239
558,2.985662,-1.295418,-1.0401610000000001,0.042224,0.9623219999999999,0.26859099999999997,0.47734,0.8018069999999999,0.762864,-0.006458,0.141025,-0.007193000000000001
559,2.954412,-1.30102,-1.089925,0.049592000000000004,0.963831,0.26184,0.3112,0.831184,0.487133,-0.567765,0.23752399999999999,-0.037139
560,2.950787,-1.301917,-1.107772,0.050377,0.9640690000000001,0.26081,-0.07107100000000001,0.5689850000000001,0.055374,-0.654121,0.103848,-0.11496600000000001
561,2.9850630000000002,-1.293993,-1.0848229999999999,0.042599,0.9619340000000001,0.269922,-0.734693,0.616679,-0.373407,-0.585904,0.005824,-0.146769
562,3.0403860000000003,-1.2710489999999999,-1.0390540000000001,0.029831,0.955411,0.29375,-1.487696,0.47413299999999997,-0.569696,-0.21429499999999999,-0.011106,-0.010745000000000001
563,3.097529,-1.233798,-0.98377,0.014563999999999999,0.943751,0.33031900000000003,-2.162107,0.138954,-0.8794879999999999,0.064736,0.30630999999999997,0.20616500000000001
564,-3.124182,-1.183643,-0.918077,-0.006573000000000001,0.9259870000000001,0.377483,-2.6813569999999998,-0.14330299999999999,-1.238472,0.243206,0.42285900000000004,0.12479100000000001
565,-3.074084,-1.125866,-0.8532930000000001,-0.029033,0.902641,0.42940200000000006,-2.883406,-0.528109,-1.535287,0.593928,0.47519700000000004,-0.115147
566,-3.035023,-1.068505,-0.797918,-0.051208000000000004,0.876482,0.47869300000000004,-2.604675,-0.577529,-1.406159,0.5089560000000001,0.272948,-0.247507
567,-3.020365,-1.019688,-0.764558,-0.063322,0.8519450000000001,0.519779,-2.164391,-0.6916100000000001,-0.964967,0.48971400000000004,0.254653,-0.143787
568,-3.002587,-0.987535,-0.7428319999999999,-0.07631,0.8346709999999999,0.545426,-1.023444,0.40794,-0.668918,0.091004,0.08165,0.11334100000000001
569,-2.982246,-0.9762700000000001,-0.731194,-0.088874,0.828414,0.5530109999999999,-0.36956500000000003,0.5032800000000001,-0.30341399999999996,0.0559,0.038804000000000005,-0.12040899999999999
570,-2.969509,-0.970822,-0.724683,-0.096682,0.82535,0.556272,-0.12772999999999998,0.31974600000000003,-0.170099,0.081774,-0.025713,-0.1172
571,-2.961679,-0.9723360000000001,-0.7216899999999999,-0.100811,0.826204,0.554269,0.23515500000000003,0.250818,-0.030743,0.238659,-0.388262,-0.313226
572,-2.9536130000000003,-0.982434,-0.717569,-0.10371300000000001,0.831851,0.5452140000000001,0.690513,0.221469,-0.01257,0.320861,-0.615924,-0.261507
573,-2.947882,-1.002812,-0.714258,-0.103551,0.842987,0.527864,1.2137129999999998,0.060037,0.210277,0.284749,-0.67192,-0.21898099999999998
574,-2.956801,-1.033673,-0.723182,-0.094012,0.8591840000000001,0.502945,1.607479,-0.11705499999999999,0.731342,0.15048499999999998,-0.578789,-0.06932100000000001
575,-2.985795,-1.074144,-0.75578,-0.073934,0.879183,0.470704,2.03422,0.067343,1.399589,0.033345,-0.493654,0.030731
576,-3.041538,-1.123702,-0.823334,-0.043185,0.9017069999999999,0.43017299999999997,2.325627,0.297979,2.077514,-0.140897,-0.276127,-0.058804999999999996
577,-3.135164,-1.169797,-0.929645,-0.002509,0.9206709999999999,0.390318,2.0463810000000002,-0.058034,2.371917,-0.228433,0.054335,-0.317793
578,3.019735,-1.2033559999999999,-1.0504719999999999,0.043664999999999995,0.93325,0.356552,1.6621549999999998,-1.207691,1.962645,-0.12623,0.273339,-0.324401
579,2.8972919999999998,-1.229118,-1.150379,0.08104199999999999,0.9421940000000001,0.32510700000000003,1.5835569999999999,-1.451354,1.161242,0.018948,0.170431,-0.09093
580,2.796708,-1.2585629999999999,-1.228773,0.103851,0.95165,0.289083,1.8940439999999998,-1.281917,0.611991,0.236954,-0.003332,0.070505
581,2.692745,-1.290724,-1.310929,0.11994200000000001,0.9610350000000001,0.249032,1.92346,-1.1181889999999999,0.401547,0.29981199999999997,-0.129584,0.247367
582,2.601523,-1.321951,-1.395802,0.126631,0.969197,0.21121900000000002,1.9067939999999999,-0.12309400000000001,0.118145,0.327013,-0.04308,0.35230300000000003
583,2.533656,-1.352702,-1.471761,0.123575,0.9763120000000001,0.17758800000000002,1.610678,0.828475,-0.22697399999999998,0.0212,0.09424500000000001,0.5100640000000001
584,2.529338,-1.380845,-1.521588,0.108501,0.9820139999999999,0.154498,1.4189370000000001,2.577071,-0.44633500000000004,0.48357100000000003,-0.013369999999999998,-0.682605
585,2.505944,-1.402673,-1.572457,0.099333,0.9859,0.134633,0.702023,0.47458900000000004,-0.184797,0.530977,0.000229,0.001643
586,2.55544,-1.3855870000000001,-1.518937,0.101854,0.9828979999999999,0.153396,-1.7049419999999997,0.0016309999999999999,0.29678699999999997,-0.229647,-0.050845,0.685227
587,2.593588,-1.3678489999999999,-1.4919040000000001,0.104999,0.979477,0.172026,-0.243519,0.6707270000000001,0.070061,-0.026033999999999998,0.896698,0.061676999999999996
588,2.646905,-1.3672520000000001,-1.449339,0.095959,0.979356,0.177892,-0.485275,0.544409,-0.631151,-0.078045,1.340178,0.111827
589,2.810142,-1.360834,-1.302306,0.06781799999999999,0.978039,0.19705999999999999,-0.9473889999999999,1.24644,-1.564632,-0.53289,0.373234,0.063193
590,2.9850380000000003,-1.347011,-1.149384,0.034598000000000004,0.9750639999999999,0.21919,-1.030091,0.808368,-1.166201,0.291162,-0.708753,-0.33413400000000004
591,3.031709,-1.345693,-1.096703,0.024475,0.9747709999999999,0.22184099999999998,0.359643,-0.5061939999999999,-0.238275,0.427353,-0.65278,-0.8345879999999999
592,3.00867,-1.352064,-1.106243,0.028756,0.976173,0.215058,0.09902999999999999,-0.844744,0.201514,0.23049099999999997,-0.153114,-0.403977
593,2.96062,-1.350496,-1.1361459999999999,0.039327,0.9758319999999999,0.214932,0.21211,-0.9352219999999999,0.351971,0.011652,0.346953,0.09061
594,2.932892,-1.359334,-1.1558700000000002,0.043482,0.977725,0.205314,0.374082,-0.109981,0.032647,0.076253,0.20164200000000002,-0.024162
595,2.928941,-1.3600379999999999,-1.160232,0.044148,0.977873,0.204467,-0.097102,0.012949,0.068722,0.13128299999999998,-0.009916,0.11682200000000001
596,2.914847,-1.3549579999999999,-1.17556,0.048141,0.9767969999999999,0.20866300000000002,-0.258903,0.085034,0.297167,0.17028800000000002,-0.301886,0.070802
597,2.8884380000000003,-1.34664,-1.202475,0.055667999999999995,0.974982,0.215179,-0.357363,-0.05271900000000001,0.46543500000000004,0.11651199999999999,-0.48221499999999995,0.092804
598,2.848026,-1.338155,-1.242243,0.066708,0.9730610000000001,0.220667,-0.23906100000000002,-0.00125,0.545244,-0.075772,-0.22934699999999997,0.212133
599,2.825751,-1.33261,-1.275059,0.073282,0.971767,0.224254,-0.097208,0.763828,0.370066,-0.133173,-0.031445,0.166783
600,2.83157,-1.329963,-1.290633,0.07276,0.97114,0.22712399999999996,-0.082629,1.1694950000000002,0.14211700000000002,-0.284445,0.024878,0.006396
601,2.8488900000000004,-1.325634,-1.295727,0.07002799999999999,0.9700979999999999,0.23237399999999997,-0.300912,1.014778,0.127972,-0.291082,-0.125905,-0.16100899999999999
602,2.8618,-1.315752,-1.2962690000000001,0.06966699999999999,0.9676520000000001,0.242463,-0.581148,0.40313499999999997,0.148162,-0.353053,-0.12338299999999999,-0.176331
603,2.866247,-1.303408,-1.291498,0.07182999999999999,0.964464,0.254247,-0.586568,-0.156915,0.081544,-0.433204,-0.09923,-0.106145
604,2.8710009999999997,-1.290916,-1.280996,0.073836,0.9610879999999999,0.266175,-0.759774,-0.329586,-0.010243,-0.332075,0.053545,-0.1998
605,2.899322,-1.270249,-1.244536,0.07102,0.955175,0.287385,-1.371523,-0.352459,-0.419343,-0.16486199999999998,0.37507199999999996,0.166351
606,2.963756,-1.240047,-1.169965,0.057447000000000005,0.945799,0.31961799999999996,-1.915841,-0.325615,-1.065181,-0.060071000000000006,0.589464,0.169472
607,3.047104,-1.198819,-1.071131,0.034291,0.9316110000000001,0.36182600000000004,-2.451184,-0.5475260000000001,-1.582451,0.5041770000000001,0.88005,0.099035
608,3.130201,-1.150168,-0.9696469999999999,0.004651,0.912833,0.408298,-2.546681,-0.543655,-1.934568,0.58948,0.6603479999999999,0.009197
609,-3.0917209999999997,-1.099149,-0.8874299999999999,-0.02265,0.8908209999999999,0.45378199999999996,-2.466422,-0.754638,-1.723297,0.731024,0.42520399999999997,0.0009599999999999999
610,-3.057045,-1.0553780000000001,-0.83275,-0.041623,0.870086,0.49113100000000004,-1.744851,-0.399161,-1.202761,0.42484799999999995,-0.07028200000000001,-0.029002999999999998
611,-3.0305009999999997,-1.031985,-0.807545,-0.056885000000000005,0.858319,0.509946,-0.8008149999999999,0.498101,-0.4987,0.07695,-0.29436999999999997,-0.12728599999999998
612,-3.018586,-1.020282,-0.803787,-0.064185,0.8522549999999999,0.519166,-0.460454,0.290371,0.00494,0.020896,-0.102927,-0.205994
613,-3.021198,-1.013195,-0.807245,-0.063552,0.848527,0.525315,-0.315823,-0.059508000000000005,-0.0032159999999999997,0.043487,-0.083802,-0.249162
614,-3.020716,-1.010836,-0.8064020000000001,-0.064047,0.847276,0.52727,0.046265,0.019178,-0.014674000000000001,0.124929,-0.327714,-0.264575
615,-3.0209650000000003,-1.0186709999999999,-0.807736,-0.063115,0.8514120000000001,0.520679,0.593947,0.023018,0.148312,0.242207,-0.532442,-0.295261
616,-3.0290630000000003,-1.036883,-0.814457,-0.057145,0.860822,0.505679,1.01643,-0.220144,0.384447,0.35547,-0.603117,-0.300098
617,-3.058137,-1.061512,-0.8360879999999999,-0.040641000000000004,0.873094,0.48584799999999995,1.283199,-0.7065319999999999,0.8409280000000001,0.284889,-0.580903,-0.266717
618,-3.113275,-1.093266,-0.879703,-0.013012000000000001,0.8881319999999999,0.459395,1.679761,-0.817261,1.280742,0.129712,-0.534602,-0.07638400000000001
619,3.092522,-1.1307120000000002,-0.9515879999999999,0.020896,0.904716,0.425494,2.004387,-0.514572,1.760117,-0.041511,-0.529014,0.046949
620,2.981903,-1.169108,-1.063318,0.062167999999999994,0.920402,0.385988,2.2107189999999997,-0.44678999999999996,2.2122610000000003,-0.203968,-0.319404,0.05776799999999999
621,2.839937,-1.2018469999999999,-1.20108,0.107142,0.932707,0.344341,2.081482,-0.913201,2.013267,-0.174876,0.026659,-0.11393299999999999
622,2.70512,-1.223862,-1.319769,0.143735,0.94042,0.308128,1.577832,-1.240652,1.2218209999999998,0.055682,0.26101199999999997,-0.09865499999999999
623,2.616488,-1.239334,-1.392403,0.163131,0.945567,0.281571,1.097515,-0.8418459999999999,0.47553999999999996,0.091553,0.071004,0.06564199999999999
624,2.5553790000000003,-1.255755,-1.450796,0.17140899999999998,0.950784,0.258112,1.296607,0.096595,0.319768,0.184167,-0.14136600000000002,0.064947
625,2.502907,-1.277464,-1.513544,0.17236300000000002,0.9572860000000001,0.23213699999999998,1.465252,0.27516999999999997,0.005592,0.30893000000000004,0.031331,0.30806999999999995
626,2.4705150000000002,-1.301129,-1.552799,0.165654,0.96386,0.208629,1.014074,0.76871,-0.48102799999999996,-0.20436500000000002,0.41977700000000007,0.8197209999999999
627,2.540532,-1.32446,-1.534274,0.13789400000000002,0.9698120000000001,0.201102,1.001163,2.9965189999999997,-1.08111,-0.10931500000000001,0.34078,-0.8703219999999999
628,2.5620060000000002,-1.3603299999999998,-1.5315219999999998,0.114409,0.977934,0.174783,1.348649,-0.070917,-0.989294,0.071534,-0.043897000000000005,-0.818002
629,2.631267,-1.362579,-1.448321,0.100965,0.9784010000000001,0.18036300000000002,-1.494789,-0.9328040000000001,-0.63631,-0.229321,0.023705,0.327297
630,2.705994,-1.346524,-1.355054,0.093835,0.9749559999999999,0.20161500000000002,-0.6378520000000001,-0.571763,-0.5581470000000001,-0.073434,0.353657,0.282195
631,2.794764,-1.338383,-1.2744870000000001,0.078287,0.9731129999999999,0.216598,-0.851241,1.1066040000000001,-0.778638,0.263876,1.631364,0.47316099999999994
632,2.911165,-1.33415,-1.171923,0.05354299999999999,0.9721299999999999,0.22823400000000002,-0.330629,0.698296,-1.4186159999999999,-0.22410500000000003,0.657463,-0.44747200000000004
633,3.060845,-1.317832,-1.040678,0.020186000000000003,0.968175,0.24944499999999997,-1.406619,0.969852,-1.263042,-0.069716,-0.175023,-0.282465
634,3.12108,-1.3065,-0.9786590000000001,0.005358,0.965276,0.26116100000000003,-0.010907,-0.108721,-0.48065399999999997,0.225523,-0.520712,-0.345146
635,3.1287540000000003,-1.3089110000000002,-0.971092,0.003324,0.9659030000000001,0.258866,-0.10451700000000001,0.044851999999999996,0.088926,-0.11106600000000001,0.13547599999999999,-0.054047000000000005
636,3.104293,-1.311426,-0.994713,0.009564,0.9665520000000001,0.25628,0.47569399999999995,-0.185218,0.37742,-0.005352,0.085145,-0.194893
637,3.065538,-1.323072,-1.027205,0.018629,0.9694729999999999,0.244475,0.554309,-0.5039819999999999,0.3709,0.092958,0.06754500000000001,-0.2135
638,3.024463,-1.330115,-1.0574729999999999,0.027854000000000004,0.971176,0.23671599999999998,0.264577,-0.502563,0.267394,-0.11724000000000001,0.5313720000000001,0.281091
639,3.014202,-1.330875,-1.067379,0.030188,0.971357,0.23568699999999998,-0.082317,0.21,0.062163,-0.12586,0.33031,0.219482
640,3.010836,-1.325807,-1.074098,0.031622000000000004,0.97014,0.24046199999999998,-0.338606,0.019809,0.16103,0.042108,-0.325365,0.12013399999999999
641,2.994026,-1.319236,-1.093597,0.036596,0.968525,0.24619699999999997,-0.217137,0.21235,0.390231,-0.20840999999999998,-0.574864,0.096073
642,2.961693,-1.313026,-1.136883,0.045611,0.9669610000000001,0.250798,-0.244031,0.6673060000000001,0.658652,-0.27634000000000003,-0.334942,0.085475
643,2.937767,-1.302459,-1.175874,0.053663999999999996,0.9642129999999999,0.259627,-0.593531,0.604191,0.49499,-0.310546,0.114598,-0.035262
644,2.9477029999999997,-1.283878,-1.180086,0.054525,0.9591209999999999,0.277683,-1.023079,0.797871,0.118932,-0.117086,-0.026549,-0.028857999999999998
645,2.977027,-1.261901,-1.16812,0.049801,0.9526700000000001,0.299886,-1.188124,0.951407,-0.038377999999999995,-0.121655,-0.083926,-0.163839
646,3.02272,-1.2298559999999998,-1.137373,0.039652999999999994,0.942441,0.332003,-1.9773150000000002,0.644609,-0.41951099999999997,-0.23977199999999999,0.085758,-0.17241099999999998
647,3.0761540000000003,-1.1837870000000001,-1.081668,0.02468,0.926042,0.376603,-2.576306,-0.269264,-0.998296,-0.099997,0.41853199999999996,0.054275
648,3.126884,-1.1326040000000002,-1.0145620000000002,0.00624,0.9055200000000001,0.42424799999999996,-2.542353,-0.620742,-1.3095290000000002,0.101899,0.440213,0.006691
649,-3.124493,-1.084824,-0.9604459999999999,-0.007986,0.8842209999999999,0.466992,-2.331608,-1.01215,-1.1131389999999999,0.504614,0.306636,-0.14642
650,-3.1124549999999997,-1.041075,-0.926607,-0.014721000000000001,0.8629479999999999,0.505071,-1.9430349999999998,-0.66635,-0.813902,0.592831,0.359159,-0.030737
651,-3.095046,-1.014142,-0.90086,-0.024583,0.8490280000000001,0.5277689999999999,-0.966622,0.033674,-0.629586,0.504274,0.09128,0.10469300000000001
652,-3.074637,-1.002817,-0.885548,-0.03599,0.84299,0.536717,-0.31825,0.5095609999999999,-0.320155,0.23939000000000002,0.183789,-0.034901
653,-3.0581709999999998,-1.0007489999999999,-0.8775780000000001,-0.044968,0.841875,0.5377890000000001,0.010519,0.439712,-0.187446,0.222519,0.111738,-0.12731199999999998
654,-3.0466,-1.003501,-0.871814,-0.050967,0.843357,0.534924,0.23564899999999997,0.27671999999999997,-0.11516199999999999,0.20886500000000002,-0.012532,-0.178357
655,-3.0379549999999997,-1.012234,-0.868699,-0.054825,0.848018,0.5271170000000001,0.594961,0.344233,0.005834000000000001,0.17230299999999998,-0.39384,-0.129977
656,-3.0318099999999997,-1.0288,-0.869899,-0.056517,0.8566809999999999,0.512735,0.924758,0.339068,0.21217399999999997,0.226316,-0.555655,-0.164377
657,-3.039171,-1.049495,-0.883258,-0.050917000000000004,0.8671719999999999,0.49539300000000003,1.0114459999999998,0.076205,0.604086,0.23971399999999998,-0.544097,-0.180925
658,-3.0669619999999997,-1.0733270000000001,-0.9131309999999999,-0.03558,0.878793,0.475868,1.219784,-0.20085,0.976569,0.100384,-0.400918,-0.14756
659,-3.119054,-1.102658,-0.963008,-0.010169,0.89241,0.451104,1.495033,-0.5176649999999999,1.3773440000000001,-0.08651,-0.39721599999999996,-0.08654099999999999
660,3.086939,-1.133678,-1.03395,0.023125,0.905975,0.422691,1.597524,-0.776626,1.579218,-0.19651,-0.406906,-0.041328
661,2.989856,-1.160448,-1.1169120000000001,0.060299,0.916982,0.394337,1.43698,-1.1955120000000001,1.510267,-0.22414800000000001,-0.186773,-0.013035
662,2.8934,-1.183017,-1.195001,0.092887,0.925751,0.36653800000000003,1.412967,-1.252363,1.09677,-0.054984000000000005,-0.083451,0.034234
663,2.8066720000000003,-1.205126,-1.2607190000000001,0.11753,0.933884,0.33769899999999997,1.3581969999999999,-1.267565,0.684074,0.117623,0.012222,0.09787799999999999
664,2.738191,-1.222024,-1.310106,0.134148,0.939793,0.314305,0.918869,-0.9668479999999999,0.455225,0.202766,0.077221,0.212017
665,2.6860779999999997,-1.232029,-1.355977,0.14619400000000002,0.9431649999999999,0.298431,0.7628229999999999,-0.037552999999999996,0.496741,0.063569,-0.11441400000000002,0.143876
666,2.650534,-1.245577,-1.3987530000000001,0.150667,0.9475809999999999,0.28175300000000003,1.01436,0.281448,0.158395,0.096022,-0.068232,0.108674
667,2.6527279999999998,-1.262356,-1.419527,0.14256,0.952808,0.268006,0.871849,1.8358439999999998,-0.290041,-0.0030039999999999997,0.13280899999999998,0.011612
668,2.670682,-1.28536,-1.435574,0.127746,0.9595389999999999,0.250919,1.22489,0.9394790000000001,-0.21271900000000002,0.31152399999999997,0.152995,-0.483432
669,2.664741,-1.29922,-1.4439879999999998,0.123118,0.963349,0.238317,0.08609,-0.140862,-0.253471,-0.0058850000000000005,0.270339,0.178339
670,2.68204,-1.299619,-1.423196,0.118807,0.963456,0.24006599999999997,0.11728699999999999,-0.11209300000000001,-0.282132,-0.217058,0.129027,-0.09088099999999999
671,2.680823,-1.305048,-1.428115,0.116771,0.9648959999999999,0.235233,0.361594,0.27431500000000003,0.110048,0.10333699999999998,-0.101371,-0.21899699999999997
672,2.6535450000000003,-1.310398,-1.451835,0.120722,0.9662870000000001,0.2274,0.234248,-0.639846,-0.007174,0.266469,1.11225,0.23756599999999997
673,2.6934810000000002,-1.312482,-1.405973,0.110674,0.966822,0.23022199999999998,-0.374214,0.531274,-0.9059590000000001,-0.551455,1.609533,0.307589
674,2.8115650000000003,-1.312345,-1.307242,0.082824,0.9667870000000001,0.241783,-0.660565,1.1351639999999998,-1.159765,-0.2704,-0.080969,0.176232
675,2.891138,-1.304753,-1.242026,0.065161,0.9648190000000001,0.254706,-0.257232,0.49998100000000006,-0.375263,0.039682999999999996,-0.624884,0.09707
676,2.878711,-1.309126,-1.252533,0.067223,0.965959,0.2498,0.30466,-0.356804,0.27817,0.162604,-0.518572,-0.872389
677,2.8410860000000002,-1.304953,-1.276944,0.077765,0.9648709999999999,0.25094299999999997,-0.33312800000000004,-0.8760879999999999,0.421795,-0.09087200000000001,-0.019086000000000002,0.0020629999999999997
678,2.799019,-1.3042790000000002,-1.308057,0.08846799999999999,0.964694,0.248063,0.48508999999999997,-0.298964,0.309267,0.032671,0.455136,0.434325
679,2.762404,-1.316203,-1.347083,0.093225,0.967766,0.23395500000000002,0.7538090000000001,0.10082200000000001,0.265766,0.08179299999999999,0.31943499999999997,-0.29790500000000003
680,2.729015,-1.3229,-1.381008,0.09838200000000001,0.9694309999999999,0.22477199999999997,0.29185500000000003,-0.12238900000000001,0.275644,-0.22434400000000002,-0.157327,0.046544999999999996
681,2.692327,-1.323207,-1.413778,0.106432,0.969506,0.220744,0.15176800000000001,-0.29821,0.409487,-0.278886,-0.243829,0.080205
682,2.644748,-1.319942,-1.453042,0.11831900000000001,0.968701,0.218214,-0.027488,-0.628419,0.5582090000000001,-0.250658,-0.31759299999999996,0.008424
683,2.593194,-1.310534,-1.488924,0.134152,0.9663219999999999,0.21959499999999998,-0.239409,-0.905101,0.669246,-0.187588,-0.052275,0.14747000000000002
684,2.544167,-1.298701,-1.523115,0.151175,0.96321,0.22219699999999998,-0.245962,-0.668718,0.702013,-0.188635,-0.011473,0.111604
685,2.504555,-1.28772,-1.555691,0.16613699999999998,0.960201,0.224525,-0.14915599999999998,-0.287562,0.671222,-0.19168,-0.029842,0.048623
686,2.470585,-1.277175,-1.585931,0.179953,0.957202,0.226671,-0.147965,-0.285333,0.64559,-0.345694,0.11953399999999999,0.065932
687,2.436639,-1.2680360000000002,-1.612242,0.19320299999999999,0.9545170000000001,0.227086,-0.112305,-0.528975,0.538261,-0.402019,0.14024,0.10827200000000001
688,2.40687,-1.260478,-1.62842,0.204707,0.9522360000000001,0.226582,-0.12997899999999998,-0.826533,0.374013,-0.40326999999999996,0.099506,0.100735
689,2.381541,-1.252944,-1.632691,0.21531599999999998,0.949909,0.226518,-0.325322,-1.201432,0.25776,-0.462463,-0.036289,-0.225846
690,2.377736,-1.242419,-1.608377,0.223079,0.946567,0.23290300000000003,-0.8883040000000001,-1.431538,-0.051389,-0.393291,0.088894,-0.183129
691,2.411925,-1.227057,-1.538229,0.22465500000000002,0.941501,0.251203,-1.580087,-1.548578,-0.551726,0.006652,0.6375850000000001,0.309436
692,2.497065,-1.2118959999999999,-1.4348370000000001,0.21103400000000003,0.936284,0.280777,-1.799316,-0.033085,-1.061536,0.31296799999999997,0.491558,0.041458
693,2.6137580000000002,-1.1932049999999998,-1.316584,0.185691,0.9295549999999999,0.31850300000000004,-1.9936080000000003,0.388376,-1.328352,0.36896599999999996,0.259135,-0.139273
694,2.7181290000000002,-1.172142,-1.212564,0.15950999999999999,0.9215840000000001,0.353889,-1.708034,0.42844899999999997,-1.2078360000000001,0.34017,0.173234,-0.273094
695,2.800019,-1.152359,-1.132036,0.13610899999999998,0.913725,0.382857,-1.432179,0.23620100000000002,-1.0561120000000002,0.251678,0.188845,-0.41334399999999993
696,2.850685,-1.132,-1.065518,0.12185599999999999,0.9052629999999999,0.406998,-1.358658,-0.9179649999999999,-1.0017770000000001,-0.153701,0.599863,-0.321121
697,2.88501,-1.1135549999999999,-1.0017200000000002,0.112035,0.897274,0.42701999999999996,-1.154415,-1.204619,-1.154875,-0.14826,0.8436629999999999,-0.20621
698,2.915422,-1.106156,-0.939451,0.100485,0.893983,0.436687,-0.373519,-1.371847,-1.304098,0.037027,0.524825,-0.226025
699,2.932043,-1.112119,-0.88139,0.09210299999999999,0.896639,0.433075,0.201873,-2.042709,-1.335539,0.132079,0.161985,-0.307694
700,2.928987,-1.124959,-0.8284950000000001,0.090989,0.90225,0.421504,0.46778100000000006,-2.7941599999999998,-1.191713,0.218169,-0.035368000000000004,-0.306971
701,2.9040779999999997,-1.140676,-0.786041,0.09811,0.908916,0.40527199999999997,0.600644,-3.3751089999999997,-0.9475549999999999,0.299641,-0.129893,-0.28675700000000004
702,2.8592049999999998,-1.156867,-0.756792,0.112075,0.9155479999999999,0.386278,0.6239859999999999,-3.633972,-0.7013689999999999,0.28715599999999997,-0.25096599999999997,-0.26312399999999997
703,2.80708,-1.170652,-0.736386,0.127893,0.921005,0.36795700000000003,0.445537,-3.5052199999999996,-0.5105,0.113791,-0.30586199999999997,-0.365516
704,2.742078,-1.175859,-0.727631,0.14965699999999998,0.9230209999999999,0.354451,0.02213,-3.770663,-0.096511,0.16504100000000002,-0.281541,-0.291127
705,2.670168,-1.171627,-0.725857,0.176509,0.921384,0.34626,-0.321687,-3.595714,0.140145,0.267796,-0.28731999999999996,-0.209709
706,2.5983389999999997,-1.162352,-0.7273609999999999,0.20531300000000002,0.91774,0.34,-0.398525,-3.454353,0.286842,0.348002,-0.23294099999999998,0.000271
707,2.53538,-1.152358,-0.726173,0.23151300000000002,0.913724,0.333931,-0.482875,-3.032058,0.248324,0.173867,-0.146024,0.0009539999999999999
708,2.486815,-1.1388,-0.71841,0.254972,0.9081319999999999,0.332094,-0.738052,-2.583816,0.263058,0.076373,-0.013996999999999999,-0.023943
709,2.4582490000000004,-1.122563,-0.700725,0.273627,0.901214,0.336067,-0.933565,-2.024557,0.16910899999999998,0.004723,0.000687,-0.008933
710,2.4447400000000004,-1.10667,-0.676244,0.28729899999999997,0.8942129999999999,0.343281,-0.9398559999999999,-1.65967,0.034000999999999997,-0.094566,-0.026614,0.067837
711,2.437995,-1.094392,-0.6485270000000001,0.29669,0.888649,0.349681,-0.8263010000000001,-1.521829,-0.16941199999999998,-0.298246,-0.029151999999999997,0.067784
712,2.438454,-1.0874489999999999,-0.615952,0.30051100000000003,0.885444,0.354515,-0.726237,-1.3814799999999998,-0.45517700000000005,-0.451008,0.057701,0.025505
713,2.444195,-1.083209,-0.576521,0.300879,0.883466,0.359109,-0.76527,-1.4891729999999999,-0.662546,-0.382056,0.164432,0.00672
714,2.454567,-1.084633,-0.5317149999999999,0.29634099999999997,0.8841319999999999,0.361238,-0.488447,-1.442053,-0.9640479999999999,-0.22392199999999998,0.171273,-0.052552
715,2.466704,-1.093267,-0.48313900000000004,0.287154,0.888133,0.358835,-0.351405,-1.629897,-1.259816,-0.181274,0.165669,0.020041
716,2.4831369999999997,-1.106111,-0.43034399999999995,0.27421599999999996,0.893963,0.354452,-0.136743,-1.4268450000000001,-1.341898,-0.21402,-0.010891,0.007792
717,2.5006049999999997,-1.1215700000000002,-0.386011,0.259687,0.900783,0.348068,0.11239400000000001,-0.8978860000000001,-1.170988,-0.013746000000000001,-0.198467,-0.148255
718,2.510821,-1.138025,-0.361624,0.24734099999999998,0.9078069999999999,0.338685,0.53579,-0.47828000000000004,-0.71137,0.34846900000000003,-0.192154,-0.312685
719,2.500989,-1.156556,-0.366216,0.24056100000000002,0.915422,0.32269200000000003,0.894323,-0.185577,-0.42829700000000004,0.626916,0.14439200000000002,-0.24500999999999998
720,2.4879439999999997,-1.171369,-0.368334,0.23647800000000002,0.921284,0.308727,0.32629,-0.920013,-0.35334299999999996,0.5602600000000001,0.37585100000000005,0.150883
721,2.492123,-1.171622,-0.34668899999999997,0.235044,0.9213819999999999,0.309526,-0.543416,-0.31908600000000004,-0.426418,0.00133,0.895176,0.406248
722,2.542566,-1.169576,-0.30301300000000003,0.22020100000000004,0.920585,0.32254099999999997,-0.440939,0.7166640000000001,-0.590467,-0.007555,-0.296699,-0.40966800000000003
723,2.5694790000000003,-1.1693959999999999,-0.286721,0.211531,0.920515,0.328488,-0.10891400000000001,0.34055100000000005,-0.062100999999999996,-0.002807,-0.627668,-0.661283
724,2.546481,-1.168267,-0.296023,0.219612,0.9200729999999999,0.324397,0.15154,-1.433253,0.274208,-0.173439,-0.507948,-0.598445
725,2.496729,-1.167922,-0.30476,0.23566399999999998,0.9199379999999999,0.313328,-0.019172,-2.1581770000000002,0.023981,-0.5587989999999999,0.566253,-0.212925
726,2.466587,-1.167358,-0.297096,0.245323,0.919717,0.30648800000000004,-0.094436,-1.731177,-0.133052,-0.500679,0.639426,-0.224838
727,2.439073,-1.172524,-0.28848,0.250589,0.921732,0.29599200000000003,0.134825,-2.0323450000000003,-0.407735,-0.299707,0.40181500000000003,-0.32919499999999996
728,2.407918,-1.180731,-0.27068600000000004,0.25461300000000003,0.924884,0.282415,0.055539,-2.488492,-0.552982,0.12136400000000001,-0.112506,0.051005
729,2.373948,-1.189042,-0.26050300000000004,0.258711,0.9280129999999999,0.268063,0.262776,-1.9617689999999999,-0.319337,0.18529,-0.150532,0.08002000000000001
730,2.3277490000000003,-1.195298,-0.270466,0.266588,0.930325,0.251837,0.38552600000000004,-1.851691,0.017869,0.172164,-0.16375399999999998,-0.11911600000000001
731,2.270037,-1.19905,-0.29132199999999997,0.277996,0.931694,0.23379299999999997,0.42299799999999993,-1.919499,0.159223,-0.007259999999999999,-0.007897,-0.146543
732,2.212055,-1.2011020000000001,-0.31454299999999996,0.289545,0.9324379999999999,0.216146,0.355404,-1.7414630000000002,0.18416,-0.039255,0.08088300000000001,-0.132711
733,2.163209,-1.2014,-0.331413,0.29952199999999995,0.9325459999999999,0.201595,0.203504,-1.620449,0.15623800000000002,-0.047172000000000006,0.11753399999999999,-0.11436099999999999
734,2.118792,-1.2001760000000001,-0.344979,0.309153,0.932103,0.188692,0.15979200000000002,-1.5576709999999998,0.212468,-0.076929,0.044307,-0.085115
735,2.076784,-1.19746,-0.356534,0.319017,0.9311159999999999,0.176768,0.103229,-1.5383930000000001,0.23555,-0.098985,-0.001367,-0.04243
736,2.036168,-1.194091,-0.369869,0.328733,0.929882,0.165076,0.156191,-1.3384969999999998,0.283733,-0.128874,-0.032467,-0.02349
737,1.9959040000000001,-1.190617,-0.3874,0.338053,0.9285979999999999,0.153041,0.25312399999999996,-1.124757,0.294819,-0.122523,0.024817,-0.047206
738,1.9557330000000002,-1.187455,-0.407815,0.346645,0.92742,0.140443,0.310051,-1.036551,0.298308,-0.111949,0.038278,-0.016434999999999998
739,1.9132959999999999,-1.183773,-0.43059,0.355505,0.9260370000000001,0.126756,0.343783,-1.084777,0.341334,-0.175375,0.045872,0.029082
740,1.868306,-1.179203,-0.45435,0.36488899999999996,0.9243020000000001,0.11187899999999999,0.373224,-1.161658,0.36086599999999996,-0.211523,0.004989,0.019744
741,1.822202,-1.173952,-0.47967200000000004,0.37435300000000005,0.922285,0.096149,0.39665700000000004,-1.1384319999999999,0.393047,-0.21753899999999998,0.026399000000000002,0.02876
742,1.777929,-1.167684,-0.5054930000000001,0.383893,0.9198440000000001,0.080674,0.42276,-0.98211,0.438963,-0.258694,0.051927,0.027038
743,1.7374439999999998,-1.160929,-0.529744,0.392962,0.9171739999999999,0.066099,0.39573600000000003,-0.8774,0.38416,-0.30786399999999997,0.10985,-0.070112
744,1.7001529999999998,-1.156449,-0.550566,0.39922399999999997,0.915379,0.051932000000000006,0.395421,-0.8777889999999999,0.21538000000000002,-0.29029099999999997,0.10859200000000001,-0.033819999999999996
745,1.662252,-1.155584,-0.573291,0.40169299999999997,0.9150309999999999,0.03684,0.48049899999999995,-0.880559,0.035448,-0.17664100000000002,0.037758,-0.078984
746,1.622846,-1.1566020000000001,-0.596426,0.401902,0.915441,0.020938,0.44018900000000005,-0.904616,-0.040647,-0.140077,0.038218,-0.027667
747,1.587244,-1.1575280000000001,-0.6161479999999999,0.401545,0.9158129999999999,0.006605,0.377373,-0.8544139999999999,-0.019785,-0.11863199999999999,0.038868,0.032274000000000004
748,1.556184,-1.1574309999999999,-0.6329520000000001,0.401646,0.915774,-0.00587,0.308396,-0.732889,0.019101,-0.168568,-0.041613,0.098994
749,1.535312,-1.161058,-0.641265,0.398113,0.917225,-0.014133000000000001,0.046269,-0.6319520000000001,0.045982999999999996,-0.343776,0.034404000000000004,-0.029462000000000002
750,1.527436,-1.162015,-0.6354850000000001,0.39711199999999997,0.9176059999999999,-0.017230000000000002,-0.19734000000000002,-0.737526,0.018779,-0.372836,0.24430500000000002,-0.085889
751,1.523809,-1.1632770000000001,-0.619632,0.39589,0.918107,-0.018616,-0.417617,-0.9621379999999999,-0.09677100000000001,-0.359315,0.551772,0.007659999999999999
752,1.540527,-1.16888,-0.579937,0.390997,0.9203129999999999,-0.011839,-1.0536510000000001,-1.0291540000000001,-0.368183,-0.304816,0.674978,-0.050646
753,1.5827280000000001,-1.181073,-0.5090899999999999,0.379899,0.9250139999999999,0.004533,-1.517224,-1.256253,-0.716166,-0.240525,0.65186,-0.046174
754,1.6461,-1.195983,-0.41267299999999996,0.365055,0.9305760000000001,0.027542,-1.932567,-1.2339879999999999,-0.862238,-0.0012699999999999999,0.416333,0.224869
755,1.7561189999999998,-1.20842,-0.280887,0.34842,0.9350569999999999,0.06532,-2.461007,-0.195332,-0.9398989999999999,0.100448,0.194688,0.294651
756,1.906727,-1.213973,-0.128472,0.329768,0.937011,0.11514300000000001,-2.475491,0.6069140000000001,-0.950642,0.203985,0.009217,-0.004074
757,2.053144,-1.211557,0.014209000000000001,0.31144499999999997,0.936164,0.163072,-2.260177,0.659041,-0.853065,0.165499,-0.042700999999999996,-0.40323000000000003
758,2.181833,-1.204107,0.139053,0.293646,0.9335190000000001,0.205688,-1.9990759999999999,0.403346,-0.806048,0.044824,0.024076,-0.416671
759,2.288586,-1.1923110000000001,0.253052,0.278334,0.929225,0.24303200000000003,-2.03701,-0.22813000000000003,-0.831141,-0.016905,0.098652,-0.340306
760,2.377446,-1.178172,0.363998,0.264733,0.923908,0.276231,-1.8876009999999999,-0.8639319999999999,-1.002335,-0.131707,0.332516,-0.22140700000000002
761,2.450114,-1.168261,0.46343199999999996,0.24980700000000003,0.9200709999999999,0.301762,-1.534124,-0.9645940000000001,-1.177062,-0.096196,0.341328,-0.19846
762,2.519027,-1.1614010000000001,0.559161,0.232109,0.9173620000000001,0.323367,-1.370271,-0.965671,-1.3158530000000002,-0.031273,0.224896,-0.273394
763,2.5815259999999998,-1.15655,0.651709,0.213821,0.9154200000000001,0.340998,-1.135089,-1.2343959999999998,-1.450598,0.047685000000000005,-0.012206999999999999,-0.345957
764,2.633047,-1.154284,0.738313,0.196986,0.9145049999999999,0.353369,-0.90584,-1.456951,-1.404914,0.14139300000000002,-0.241608,-0.274939
765,2.671577,-1.153602,0.816412,0.18350999999999998,0.9142290000000001,0.36125100000000004,-0.687596,-1.723269,-1.328273,0.18654600000000002,-0.239562,-0.289321
766,2.696311,-1.1548040000000002,0.8838030000000001,0.174046,0.914716,0.364687,-0.47342700000000004,-1.910886,-1.215442,0.113673,-0.215054,-0.296404
767,2.711262,-1.1573930000000001,0.9433540000000001,0.16758599999999998,0.915759,0.36509400000000003,-0.348525,-2.008755,-1.0915979999999998,0.08355800000000001,-0.199801,-0.297513
768,2.717679,-1.160281,0.994138,0.164151,0.9169149999999999,0.36375,-0.26206799999999997,-2.050291,-0.902934,0.095965,-0.216827,-0.306636
769,2.710495,-1.162923,1.033083,0.165747,0.917966,0.36035900000000004,-0.15176800000000001,-2.203936,-0.671231,0.09762,-0.279356,-0.295738
770,2.689947,-1.1673229999999999,1.0571979999999999,0.171352,0.919703,0.35324099999999997,0.104972,-2.059809,-0.43995500000000004,0.082981,-0.310145,-0.13446
771,2.657506,-1.175793,1.0631,0.179088,0.9229950000000001,0.34059,0.467599,-1.8457869999999998,-0.197346,0.07459,-0.228385,-0.07926799999999999
772,2.610113,-1.188693,1.050139,0.188972,0.927883,0.321431,0.767177,-1.7515319999999999,-0.05223200000000001,0.031472,-0.044719,0.053552999999999996
773,2.554822,-1.201366,1.03005,0.199919,0.932533,0.300681,0.671416,-1.9089490000000002,-0.030267000000000002,-0.177153,0.334541,0.12648900000000002
774,2.505938,-1.2093639999999999,1.022907,0.209938,0.935391,0.284541,0.170621,-2.176022,-0.206475,-0.17939000000000002,0.336932,0.19222
775,2.4871540000000003,-1.2077229999999999,1.044079,0.21618,0.93481,0.28176599999999996,-0.504425,-1.681327,-0.255621,-0.051675,0.035466000000000004,0.406146
776,2.4913279999999998,-1.2058200000000001,1.073482,0.21607800000000002,0.934132,0.284081,-0.19539600000000001,-0.922425,-0.363394,-0.205656,-0.263753,0.153175
777,2.4825209999999998,-1.213231,1.077117,0.214327,0.936752,0.276687,0.46424399999999993,-0.47150699999999995,-0.213017,-0.23930500000000002,-0.347839,-0.053801999999999996
778,2.460191,-1.224431,1.062833,0.213829,0.9406129999999999,0.263667,0.6305930000000001,-0.441392,-0.16275599999999998,-0.331306,-0.390289,-0.27453099999999997
779,2.441158,-1.23591,1.052826,0.21183400000000002,0.944448,0.251277,0.463196,-0.525597,-0.271708,-0.084271,0.48243199999999997,-0.28429699999999997
780,2.438545,-1.243296,1.065996,0.20797399999999996,0.94685,0.245394,-0.030639,-0.979885,-0.522402,0.08078300000000001,0.833943,-0.357012
781,2.453032,-1.2489059999999998,1.112003,0.201019,0.9486389999999999,0.24427600000000002,-0.515524,-1.652291,-0.846462,-0.072617,0.021713,-0.007581999999999999
782,2.509642,-1.246569,1.1875,0.188186,0.947897,0.25704699999999997,-0.732259,-0.007886,-0.829787,0.088212,-0.547064,-0.238263
783,2.540902,-1.250785,1.221802,0.177799,0.949232,0.25950300000000004,0.10206,-0.677599,-0.308218,0.258404,-0.909315,-0.225262
784,2.487945,-1.247363,1.199119,0.193259,0.94815,0.252304,0.167155,-1.5894030000000001,0.6815100000000001,0.160775,-0.305679,-0.32359299999999996
785,2.4118169999999997,-1.245104,1.148318,0.21331599999999998,0.9474299999999999,0.23847100000000002,0.44882,-1.204387,0.591117,-0.16699,0.780323,-0.34268899999999997
786,2.378501,-1.24265,1.131259,0.22274699999999997,0.946641,0.232913,-0.059985000000000004,-0.914265,0.141743,-0.14619400000000002,0.734679,-0.321857
787,2.35822,-1.240192,1.1371639999999998,0.229066,0.945846,0.229996,-0.195953,-1.405351,-0.008129,0.026305000000000002,-0.061813,0.11914000000000001
