,attitude.roll,attitude.pitch,attitude.yaw,gravity.x,gravity.y,gravity.z,rotationRate.x,rotationRate.y,rotationRate.z,userAcceleration.x,userAcceleration.y,userAcceleration.z
0,0.631158,-1.302476,-0.09548200000000001,0.156433,0.964218,-0.214031,-0.2086,2.909475,0.23197800000000002,1.287384,0.73761,-0.304112
1,0.7582260000000001,-1.282812,-0.033299,0.195297,0.9588180000000001,-0.206209,0.632706,2.884507,1.7483520000000001,1.613053,0.139585,-0.287351
2,0.802066,-1.255595,0.009868,0.222827,0.950734,-0.21552,0.229848,-1.20554,0.880178,-0.022006,-0.271092,0.48505200000000004
3,0.774992,-1.2513290000000001,0.012191,0.21974699999999997,0.9494030000000001,-0.224369,0.037416000000000005,-1.638437,-0.18456,-0.27029899999999996,-0.227464,0.5611149999999999
4,0.7137979999999999,-1.267092,-0.025988999999999998,0.19579100000000002,0.954235,-0.226046,-0.334525,-0.654217,-1.435034,-0.599142,0.5543560000000001,0.12654400000000002
5,0.61917,-1.292348,-0.110777,0.15951500000000002,0.961483,-0.223832,-0.11893,-1.12905,-1.69143,-0.098724,0.48146400000000006,0.253556
6,0.533262,-1.309848,-0.182618,0.131147,0.966146,-0.22216799999999998,-0.255765,-0.34909,-1.085567,0.43321400000000004,0.257548,0.159149
7,0.477232,-1.3254540000000001,-0.236639,0.11155999999999999,0.9700540000000001,-0.215743,-0.47162,-0.21709,-0.8768,0.305676,0.057488,-0.05803
8,0.427009,-1.341584,-0.28686999999999996,0.094096,0.9738459999999999,-0.206801,-0.404161,0.001353,-0.9503159999999999,0.072241,0.209245,-0.151613
9,0.33223800000000003,-1.353815,-0.37972,0.070213,0.9765520000000001,-0.2035,-0.040241000000000006,-0.322357,-1.298804,0.034858999999999994,0.157146,-0.156394
10,0.193578,-1.357469,-0.51568,0.040725,0.977332,-0.207749,0.322393,-0.30790700000000004,-1.497115,0.285965,-0.022940000000000002,-0.191116
11,0.054021000000000007,-1.3497569999999999,-0.652108,0.011837,0.97567,-0.218914,0.7257939999999999,-0.341985,-1.316929,0.544452,-0.21605700000000003,-0.24141300000000002
12,-0.035028,-1.328414,-0.736571,-0.008405,0.9707690000000001,-0.23985900000000002,1.311004,-0.32728,-0.707179,0.6271800000000001,-0.260579,-0.266275
13,-0.058965,-1.294443,-0.75302,-0.016079,0.9620569999999999,-0.272367,1.8918810000000001,-0.533198,-0.066197,0.49207700000000004,-0.265218,-0.260729
14,-0.050136,-1.251004,-0.726442,-0.015754,0.9493010000000001,-0.31396799999999997,2.332698,-0.890619,0.488543,0.468772,-0.060765999999999994,0.215381
15,-0.011387999999999999,-1.204799,-0.6648569999999999,-0.004075,0.933767,-0.357852,2.26552,-1.0660450000000001,1.258486,0.46380699999999997,0.151377,0.359516
16,0.041828,-1.165136,-0.580398,0.016501,0.918842,-0.394276,1.7532880000000002,-1.4830379999999999,1.819464,0.405129,0.752102,0.6520729999999999
17,0.096139,-1.133494,-0.478337,0.040652,0.905898,-0.421537,1.248815,-2.050353,2.403121,0.109556,0.850038,0.8077979999999999
18,0.16917000000000001,-1.11101,-0.36501100000000003,0.074712,0.8961469999999999,-0.43741899999999995,0.42140600000000006,-0.958774,2.669407,0.034785,0.601366,0.542629
19,0.268301,-1.099682,-0.23691399999999999,0.12032000000000001,0.8910629999999999,-0.437638,-0.18095899999999998,-0.899849,3.107368,0.256847,0.9483540000000001,-0.019088
20,0.373918,-1.083813,-0.09702100000000001,0.170929,0.883749,-0.435625,-0.436226,-0.744308,3.32544,0.461822,1.183466,0.18466300000000002
21,0.48722,-1.072163,0.041661000000000004,0.22389,0.878237,-0.422576,-1.027197,-0.432583,3.139314,0.484651,0.664671,0.233092
22,0.5800529999999999,-1.061807,0.178092,0.267069,0.873237,-0.407588,-1.389964,-2.119701,3.117578,0.450384,0.454765,0.331156
23,0.640937,-1.0522690000000001,0.32167399999999996,0.29634099999999997,0.86855,-0.39724,-1.699185,-3.5331940000000004,3.087319,0.259963,0.476192,0.5280229999999999
24,0.681435,-1.04504,0.449604,0.316129,0.8649450000000001,-0.389783,-1.672996,-3.454468,2.558631,0.0052060000000000006,0.377594,0.53494
25,0.714607,-1.04185,0.564055,0.33068800000000004,0.863339,-0.381166,-1.7814849999999998,-3.2874339999999997,2.174168,-0.21026599999999998,0.313632,0.516359
26,0.735137,-1.0424959999999999,0.674986,0.33807,0.863665,-0.37388299999999997,-1.926461,-4.115139,2.030006,-0.264583,0.135023,0.6620149999999999
27,0.743374,-1.046734,0.787355,0.338658,0.865793,-0.368388,-2.184576,-4.503458,1.8609900000000001,-0.278904,-0.075373,0.7781939999999999
28,0.7493380000000001,-1.060073,0.899373,0.332952,0.872391,-0.35787399999999997,-2.390181,-4.720087,1.335334,-0.46112600000000004,-0.265702,0.809244
29,0.728568,-1.081279,0.982671,0.31305900000000003,0.88256,-0.35082800000000003,-1.983998,-4.4963169999999995,0.436305,-0.806986,-0.45593900000000004,0.6638930000000001
30,0.692836,-1.109164,1.033752,0.284491,0.8953270000000001,-0.342713,-1.7375740000000002,-3.811382,-0.29992399999999997,-0.845374,-0.486864,0.514985
31,0.641332,-1.1400629999999998,1.056395,0.249795,0.90866,-0.33457,-1.35166,-3.524724,-0.658655,-0.734643,-0.300872,0.266378
32,0.571198,-1.163435,1.0556969999999999,0.214193,0.91817,-0.333291,-0.7025,-3.462879,-0.703338,-0.386327,0.264814,-0.059210000000000006
33,0.48223999999999995,-1.1762629999999998,1.032561,0.178259,0.923176,-0.340539,-0.10746700000000001,-3.280699,-0.690869,-0.147635,0.366772,-0.258292
34,0.401737,-1.174875,1.009619,0.15079800000000002,0.922642,-0.354951,0.431591,-2.638293,-0.104678,0.405476,0.231731,-0.371627
35,0.37216,-1.166228,1.014907,0.143131,0.919272,-0.366673,0.18748499999999998,-1.127885,0.410837,0.256085,-0.056417999999999996,0.192525
36,0.38798,-1.164313,1.039369,0.149579,0.918517,-0.365992,-0.16730699999999998,0.038324000000000004,0.5190279999999999,0.087008,-0.052337,0.33808299999999997
37,0.423979,-1.161243,1.067575,0.16381400000000002,0.917299,-0.36294,0.0072,0.7234470000000001,0.5962810000000001,0.128148,-0.21449400000000002,-0.071005
38,0.456401,-1.153175,1.0889149999999999,0.178749,0.914056,-0.36407,0.24102800000000002,0.488422,0.559759,0.336708,-0.234262,-0.039204
39,0.491859,-1.150332,1.1221889999999999,0.19277,0.912899,-0.359794,-0.597875,0.139007,0.755173,0.688578,-0.205029,0.202842
40,0.574901,-1.1704860000000001,1.2079030000000002,0.2119,0.92094,-0.32705500000000004,-2.461945,0.136909,1.030575,0.81526,1.0871469999999999,0.487364
41,0.627398,-1.187546,1.285693,0.219514,0.9274540000000001,-0.302721,-0.099996,-1.820891,0.537904,0.082717,1.38291,-0.736662
42,0.544941,-1.164588,1.260217,0.20481999999999997,0.918626,-0.337895,1.145148,-3.1902150000000002,0.102907,-0.781038,0.41183400000000003,-0.547054
43,0.474954,-1.159302,1.237517,0.182908,0.916524,-0.355705,0.137182,-1.871725,-0.540347,-0.733705,-0.41557799999999995,0.8689950000000001
44,0.437014,-1.183298,1.210907,0.159928,0.9258569999999999,-0.342358,-1.356949,-0.006108,-1.188766,-0.5216529999999999,-0.458084,1.063152
45,0.407922,-1.2167290000000002,1.1665860000000001,0.137542,0.9379700000000001,-0.318263,-0.93394,0.72985,-1.517903,-0.19148099999999998,0.10299900000000001,0.714625
46,0.34234499999999995,-1.238305,1.096274,0.10957,0.945232,-0.30745500000000003,-0.409222,-0.42809200000000003,-1.4433200000000002,0.382389,0.512135,0.45953900000000003
47,0.2611,-1.252665,1.026058,0.08074400000000001,0.9498219999999999,-0.302187,-0.36601300000000003,-0.79879,-1.219284,0.623586,0.573357,0.305865
48,0.171119,-1.26661,0.9579,0.051003,0.954091,-0.295139,-0.49116000000000004,-1.724463,-1.123901,0.250969,-0.010869,0.308765
49,0.07281699999999999,-1.280155,0.9017860000000001,0.020848,0.95806,-0.285804,-0.624901,-2.3498930000000002,-0.7138359999999999,0.059916,0.068627,0.413077
50,0.0058909999999999995,-1.296513,0.8734709999999999,0.001596,0.96262,-0.270847,-0.919055,-1.659054,-0.327943,-0.018106,0.031902,0.284077
51,-0.044055000000000004,-1.31805,0.848979,-0.011013,0.9682290000000001,-0.24981599999999998,-1.1581290000000002,-1.1842540000000001,-0.308857,0.026180000000000002,-0.0074140000000000005,0.14185999999999999
52,-0.104387,-1.3417370000000002,0.814661,-0.023659,0.973881,-0.225819,-1.2283709999999999,-1.393826,-0.319762,0.12879200000000002,-0.03017,0.276539
53,-0.169259,-1.3666639999999999,0.769476,-0.034147000000000004,0.9792370000000001,-0.19981400000000002,-1.34665,-0.875733,-0.309501,0.10977,-0.123357,0.188583
54,-0.248629,-1.391881,0.704527,-0.043789999999999996,0.984037,-0.172482,-1.3530389999999999,-0.7124149999999999,-0.386667,0.025159,-0.163221,0.123242
55,-0.369073,-1.413254,0.59819,-0.056595000000000006,0.9876159999999999,-0.146317,-1.239947,-0.950471,-0.625922,0.090653,-0.164206,0.061707000000000005
56,-0.5470689999999999,-1.4267889999999999,0.443279,-0.074647,0.989649,-0.122556,-1.033954,-1.294767,-0.75116,0.3033,-0.080301,0.06324500000000001
57,-0.720111,-1.434975,0.29381799999999997,-0.089287,0.99079,-0.101779,-0.908769,-1.218381,-0.515375,0.271584,-0.056098,-0.00256
58,-0.8774139999999999,-1.44005,0.15914,-0.100261,0.9914649999999999,-0.08332,-0.7457550000000001,-1.178818,-0.42562799999999995,-0.016469,-0.036112,0.039557999999999996
59,-1.022355,-1.440277,0.034270999999999996,-0.111051,0.9914940000000001,-0.067848,-0.641903,-0.928567,-0.49359,0.032956,-0.022928,0.163154
60,-1.158085,-1.43572,-0.089977,-0.123349,0.990891,-0.054009,-0.6188229999999999,-0.44975,-0.640388,0.045254,-0.022324,0.149316
61,-1.283103,-1.426774,-0.212633,-0.13761600000000002,0.9896469999999999,-0.040721,-0.673114,-0.050733999999999994,-0.7438279999999999,0.12000699999999999,0.048012,0.11709100000000001
62,-1.3953790000000001,-1.415082,-0.32768800000000003,-0.152697,0.987901,-0.027063999999999998,-0.705199,0.145484,-0.7678050000000001,0.14064300000000002,0.11595,0.051019999999999996
63,-1.485187,-1.401942,-0.422001,-0.167428,0.985778,-0.014369,-0.6480060000000001,0.095045,-0.724612,0.262308,0.11981300000000002,0.035594
64,-1.565505,-1.3893799999999998,-0.500405,-0.18041300000000002,0.9835889999999999,-0.0009550000000000001,-0.66951,-0.321786,-0.629156,0.386757,0.092812,0.022042
65,-1.635831,-1.377756,-0.564523,-0.191431,0.981425,0.012467,-0.544076,-0.312021,-0.516129,0.453745,0.14478,-0.093903
66,-1.678268,-1.367875,-0.6002350000000001,-0.20036099999999998,0.979482,0.021616,-0.301819,-0.466533,-0.448009,0.499968,0.14035999999999998,-0.144923
67,-1.7012029999999998,-1.35817,-0.609352,-0.20922800000000003,0.9774799999999999,0.027441000000000004,-0.06416000000000001,-0.804878,-0.490781,0.478851,0.11561400000000001,-0.088033
68,-1.7021009999999999,-1.348476,-0.592299,-0.218588,0.975389,0.028868,0.259764,-0.905043,-0.498004,0.517202,0.22753800000000002,-0.060423000000000004
69,-1.6715220000000002,-1.3418780000000001,-0.543432,-0.225767,0.9739129999999999,0.022818,0.641173,-0.803929,-0.274347,0.607129,0.356684,-0.066595
70,-1.609304,-1.344354,-0.462668,-0.224338,0.9744709999999999,0.008643000000000001,1.118471,-0.8749299999999999,0.283485,0.7302890000000001,0.285294,-0.098334
71,-1.496149,-1.357975,-0.324529,-0.21062199999999998,0.977439,-0.015752000000000002,1.6985860000000002,-1.2130889999999999,0.962018,0.758199,0.297296,-0.16433299999999998
72,-1.3048629999999999,-1.376725,-0.099663,-0.186069,0.9812270000000001,-0.050682,2.373199,-1.581801,1.47354,0.452762,0.281773,-0.26906599999999997
73,-0.991682,-1.38165,0.255655,-0.157357,0.982165,-0.102897,3.27366,-1.8817849999999998,1.652198,0.22858499999999998,0.22825399999999998,-0.030923000000000003
74,-0.653543,-1.363018,0.637182,-0.125419,0.978492,-0.163773,3.2907900000000003,-1.6949450000000001,2.06548,0.212455,0.097375,0.27607800000000005
75,-0.362813,-1.335024,0.964669,-0.082902,0.972334,-0.218383,2.7065069999999998,-1.25322,2.662242,0.111955,0.511949,0.438812
76,-0.125164,-1.3052270000000001,1.226645,-0.032764,0.964943,-0.26040100000000005,1.93973,-0.570391,2.797016,0.08855,0.578956,0.42824799999999996
77,0.056399,-1.2775100000000001,1.426956,0.016296,0.957299,-0.288636,1.212206,-0.676002,2.666019,0.097397,0.394492,0.277543
78,0.188435,-1.2504950000000001,1.586717,0.058977999999999996,0.94914,-0.309276,1.008873,-1.2200389999999999,2.496517,0.216962,0.284273,0.28152
79,0.29194000000000003,-1.218274,1.7225560000000002,0.09937,0.9385049999999999,-0.33065300000000003,1.0389030000000001,-1.033267,2.6492430000000002,0.22533699999999998,0.271456,0.492
80,0.393623,-1.184458,1.850107,0.144515,0.9262950000000001,-0.347981,0.595733,-1.012996,2.759353,0.241258,0.23489899999999997,0.43018
81,0.475602,-1.155549,1.9752040000000002,0.184712,0.915017,-0.358641,0.197114,-1.999568,2.869997,0.18679300000000001,0.242286,0.394057
82,0.5232020000000001,-1.1228719999999999,2.082223,0.21639699999999998,0.9013479999999999,-0.375155,0.428245,-2.78776,2.641885,-0.136228,0.10658699999999999,0.38359299999999996
83,0.540933,-1.090657,2.167488,0.23785,0.8869299999999999,-0.395955,0.380946,-2.924892,2.344765,-0.19012,0.078539,0.435566
84,0.546017,-1.063973,2.239749,0.252062,0.874291,-0.414822,0.16481600000000002,-2.8792880000000003,2.050504,-0.327731,-0.096627,0.5395939999999999
85,0.548365,-1.0444360000000001,2.306368,0.261891,0.864641,-0.428727,-0.13328099999999998,-2.7090970000000003,1.8399,-0.44687299999999996,-0.18019300000000002,0.561372
86,0.552195,-1.033057,2.369845,0.268675,0.8588690000000001,-0.436069,-0.511744,-2.469024,1.538915,-0.464369,-0.23342600000000002,0.5499609999999999
87,0.554742,-1.0328629999999999,2.42821,0.269872,0.85877,-0.43552399999999997,-0.935896,-2.3039549999999998,1.1202020000000001,-0.479574,-0.433828,0.547509
88,0.5588,-1.044122,2.481187,0.266494,0.864484,-0.426201,-1.347199,-1.9331639999999999,0.659655,-0.466125,-0.552945,0.510536
89,0.564128,-1.067489,2.525434,0.257888,0.875992,-0.40759,-1.6905290000000002,-1.482356,0.10975,-0.496338,-0.5585640000000001,0.491727
90,0.573693,-1.101134,2.561633,0.24563400000000002,0.8917209999999999,-0.380126,-1.982332,-0.8956370000000001,-0.37374,-0.503935,-0.537687,0.387038
91,0.581172,-1.142356,2.586332,0.228084,0.909615,-0.34724099999999997,-1.97517,-0.729684,-0.8546030000000001,-0.323329,-0.276909,0.134274
92,0.555894,-1.183933,2.5825110000000002,0.19909300000000002,0.926097,-0.320475,-1.492653,-1.423833,-1.37484,0.075474,0.11281300000000001,-0.394354
93,0.468947,-1.211452,2.5410049999999997,0.158931,0.9361280000000001,-0.31369400000000003,-0.42068199999999994,-2.953802,-1.1805889999999999,0.593648,0.283462,-0.204739
94,0.391563,-1.224585,2.511189,0.129501,0.940665,-0.31365,-0.461736,-1.9081849999999998,-0.49214399999999997,0.46223500000000006,0.05755,0.033804
95,0.37344099999999997,-1.2361440000000001,2.515187,0.119821,0.944525,-0.3058,-0.619577,-0.692002,0.00085,0.054511000000000004,-0.174322,0.151152
96,0.400545,-1.2493370000000001,2.542563,0.12319400000000001,0.948775,-0.29094000000000003,-0.876764,0.486109,0.24430300000000002,-0.21316,-0.302092,0.184907
97,0.46131300000000003,-1.2650270000000001,2.587214,0.133992,0.953616,-0.269556,-1.047084,1.080986,0.27867,-0.361547,-0.212633,0.061610000000000005
98,0.5172180000000001,-1.2848959999999998,2.626998,0.13944700000000002,0.959408,-0.245128,-1.2445110000000001,0.662528,-0.131301,-0.274029,-0.18848800000000002,-0.040776
99,0.548623,-1.313603,2.657009,0.132653,0.967108,-0.217033,-1.545208,-0.147729,-0.507309,-0.10318800000000002,-0.183798,-0.042168000000000004
100,0.570114,-1.345768,2.68493,0.120428,0.9747879999999999,-0.18783699999999998,-1.463663,-0.319374,-0.543908,0.249475,-0.42026800000000003,0.190523
101,0.597075,-1.369955,2.7252959999999997,0.11215699999999999,0.979899,-0.164972,-1.130887,-0.9122170000000001,-0.162673,-0.062398,-0.645228,0.080301
102,0.6181760000000001,-1.387472,2.778526,0.105647,0.983243,-0.148557,-0.869526,-2.056366,-0.11237899999999999,-0.569713,0.125567,-0.848987
103,0.49962700000000004,-1.385912,2.716987,0.08807100000000001,0.982957,-0.161356,1.144037,-3.006065,-0.656846,-0.3896,0.9059590000000001,0.538813
104,0.39284,-1.384049,2.6351139999999997,0.071072,0.982613,-0.171515,-0.238035,-0.39598099999999997,-0.56409,0.163166,0.6372899999999999,0.184134
105,0.38164899999999996,-1.3971959999999999,2.622723,0.064331,0.9849690000000001,-0.160295,-0.409654,0.35583000000000004,-0.08127999999999999,0.580994,0.776872,-0.162947
106,0.47161499999999995,-1.392503,2.689446,0.080572,0.9841479999999999,-0.157985,0.134633,1.5795540000000001,1.11309,1.431071,0.7049850000000001,-0.480504
107,0.610671,-1.3704399999999999,2.825223,0.11411700000000001,0.9799959999999999,-0.163044,0.24638600000000002,-0.817527,1.866834,0.464236,-0.292953,0.563114
108,0.711358,-1.3490469999999999,2.959147,0.143586,0.975514,-0.16659300000000002,-0.10556800000000001,-1.5714139999999999,1.557693,0.075531,-0.300221,0.24212399999999998
109,0.760075,-1.336558,3.042514,0.159909,0.972691,-0.16822,-0.26099,-1.774498,0.798431,-0.26900999999999997,0.259212,0.412102
110,0.765015,-1.34674,3.074779,0.153871,0.9750040000000001,-0.160275,-0.831297,-0.874397,-0.554805,-0.275118,0.19351400000000002,0.428922
111,0.742491,-1.370476,3.066307,0.134535,0.9800030000000001,-0.14660499999999999,-0.7410399999999999,-0.850908,-0.9120590000000001,0.19609300000000002,0.31951199999999996,-0.005815
112,0.732514,-1.390442,3.073772,0.11995399999999999,0.9837799999999999,-0.13336199999999998,-0.7955770000000001,-0.615179,-0.408541,0.41511099999999995,0.335708,-0.027526
113,0.764257,-1.402695,3.10989,0.115775,0.9859040000000001,-0.120777,-0.578237,-0.11658299999999999,-0.076513,0.126077,0.002499,-0.160885
114,0.807967,-1.407007,-3.13063,0.117868,0.9866159999999999,-0.11266400000000001,-0.235213,0.269985,0.190307,-0.015740999999999998,-0.018248,-0.34963099999999997
115,0.824218,-1.400198,-3.119004,0.12461099999999999,0.985483,-0.11529400000000001,0.42599899999999996,0.123271,0.342528,-0.263421,0.12163299999999999,-0.499453
116,0.784822,-1.384396,3.119848,0.13096300000000002,0.982678,-0.131114,1.086538,0.31303000000000003,0.26785,0.176455,0.004275999999999999,-0.44351599999999997
117,0.711305,-1.3587930000000001,3.0368169999999997,0.137364,0.977611,-0.159391,1.704395,0.37572,0.3052,0.23408099999999998,-0.069347,-0.392916
118,0.642927,-1.320457,2.955541,0.148524,0.968828,-0.198269,2.296801,0.7389,0.610111,0.15648399999999998,-0.174898,-0.312062
119,0.604222,-1.268173,2.8955130000000002,0.16931300000000002,0.954558,-0.245256,2.790432,1.0392700000000001,0.9902569999999999,-0.19030899999999998,-0.111357,-0.280043
120,0.584096,-1.203306,2.853934,0.19811900000000002,0.933232,-0.29971,3.217806,0.668484,1.435961,-0.218032,0.046093,-0.125476
121,0.5725279999999999,-1.130874,2.83416,0.23071799999999998,0.9047850000000001,-0.357957,3.2456669999999996,0.276252,1.73042,-0.115926,0.093186,0.444413
122,0.562459,-1.060374,2.822534,0.260525,0.8725379999999999,-0.413283,2.9493150000000004,-0.26127399999999995,1.611534,0.44041800000000003,0.14133199999999999,0.607023
123,0.540728,-1.003815,2.824965,0.276471,0.843526,-0.46046400000000004,2.010838,-1.785924,1.419993,0.531116,0.162104,0.744613
124,0.50055,-0.9644309999999999,2.8239919999999996,0.273492,0.821725,-0.49996999999999997,1.618013,-1.899662,0.634389,0.303214,0.236121,0.5428470000000001
125,0.456872,-0.9397700000000001,2.801566,0.260263,0.807422,-0.529464,1.227142,-0.986001,-0.271092,-0.278177,0.156185,0.289992
126,0.43878599999999995,-0.9250959999999999,2.791978,0.255651,0.798678,-0.544752,0.44354,-0.183843,0.406069,-0.10716800000000001,0.10362,0.319838
127,0.459586,-0.9238639999999999,2.814436,0.267362,0.797936,-0.540199,-0.647424,0.20550300000000002,0.6885060000000001,-0.18598699999999999,-0.057855,0.207634
128,0.497284,-0.941644,2.8579060000000003,0.280719,0.808527,-0.5171859999999999,-1.8311979999999999,0.11783699999999998,0.727351,-0.217135,-0.23557399999999998,0.126957
129,0.5516810000000001,-0.97957,2.914478,0.292133,0.8302579999999999,-0.474689,-2.775888,0.682465,0.207283,-0.301746,-0.377499,0.10516700000000001
130,0.6241180000000001,-1.0376459999999998,2.969241,0.297011,0.86121,-0.41243199999999997,-3.449922,1.6570880000000001,-0.779302,-0.322676,-0.478947,0.09765900000000001
131,0.702177,-1.112624,3.014084,0.285679,0.896863,-0.337675,-3.6188089999999997,1.9347189999999999,-1.861878,-0.13861400000000001,-0.536007,0.087629
132,0.758157,-1.196345,3.0447580000000003,0.25149099999999996,0.930709,-0.26558000000000004,-3.4410089999999998,0.941842,-2.5376849999999997,0.24786799999999998,-0.406966,0.183442
133,0.7786029999999999,-1.275436,3.069051,0.204423,0.9566969999999999,-0.20722100000000002,-2.8221119999999997,-0.7346689999999999,-2.333592,0.472167,0.8732280000000001,-0.102914
134,0.7631060000000001,-1.332203,3.0789880000000003,0.163346,0.971671,-0.170796,-1.775245,-1.393129,-1.614001,0.354736,0.881081,-0.49053500000000005
135,0.762219,-1.373014,3.108895,0.135683,0.980505,-0.142123,-1.763829,-1.7399669999999998,-0.936224,0.114271,0.33642,-0.9535950000000001
136,0.831364,-1.4068690000000001,-3.064166,0.120573,0.9865940000000001,-0.10996900000000001,-1.741832,-1.647882,-0.274959,0.160707,-0.339957,-0.12345999999999999
137,0.9021319999999999,-1.4155360000000001,-2.982324,0.121332,0.9879709999999999,-0.095862,-0.087883,0.11158199999999999,0.24815399999999999,0.133139,-0.47648100000000004,0.171638
138,0.899581,-1.407566,-2.98365,0.12725,0.986707,-0.101066,0.088574,-0.50371,0.252312,-0.15018399999999998,-0.59419,0.296272
139,0.93176,-1.413926,-2.931209,0.125396,0.987721,-0.093175,-0.8149810000000001,-1.327848,-0.125753,-0.637054,-0.8234600000000001,0.123494
140,0.9311940000000001,-1.424636,-2.887152,0.11684800000000001,0.9893379999999999,-0.086927,-0.066035,-2.6943639999999998,-0.30036799999999997,-0.7241479999999999,0.06124500000000001,-0.645175
141,0.773598,-1.413712,-3.0250310000000002,0.109303,0.9876879999999999,-0.11191300000000001,0.872167,0.62651,-0.15065599999999998,-0.107075,0.981261,0.196401
142,0.830433,-1.416292,-2.9919569999999998,0.113602,0.988088,-0.103805,-0.092308,1.3926049999999999,0.377873,0.685485,0.115199,0.013412
143,0.909917,-1.40383,-2.930472,0.131198,0.986093,-0.102009,-0.281623,0.697364,0.9777819999999999,0.342541,-0.352579,0.11574200000000001
144,1.022023,-1.391766,-2.834907,0.151927,0.984017,-0.092891,-0.23786500000000002,0.8880979999999999,0.927637,0.527227,0.102394,-0.24780700000000003
145,1.105826,-1.375428,-2.754762,0.173517,0.9809760000000001,-0.08704500000000001,-0.31947,-0.27546,1.0674270000000001,0.90586,0.5613819999999999,-0.039708999999999994
146,1.133398,-1.3596,-2.708606,0.189893,0.9777809999999999,-0.088795,0.092124,-1.071564,0.7967890000000001,0.007128,0.1794,-0.012416
147,1.123156,-1.351905,-2.697447,0.19575,0.976139,-0.093989,-0.07448300000000001,-1.093747,0.095969,-0.291041,0.426846,-0.054814999999999996
148,1.111638,-1.362226,-2.6987799999999997,0.185614,0.9783280000000001,-0.09176799999999999,-0.210765,0.00212,-0.7748520000000001,-0.323004,0.41269399999999995,-0.475508
149,1.077403,-1.379616,-2.7339689999999996,0.167354,0.9817809999999999,-0.089996,0.01185,-0.234521,-0.9300229999999999,-0.076198,0.42176899999999995,-0.612016
150,1.018459,-1.389118,-2.796024,0.153814,0.983542,-0.0948,0.40082199999999996,0.572001,-0.495709,0.179453,0.047632,-0.37301999999999996
151,0.9690280000000001,-1.382223,-2.874097,0.154527,0.982273,-0.106119,1.135173,1.7398150000000001,0.130697,0.256239,-0.077472,-0.713384
152,0.8789799999999999,-1.349804,-3.003061,0.168802,0.9756799999999999,-0.13983399999999999,2.5102279999999997,1.5145309999999998,0.6640189999999999,-0.10694300000000001,0.087872,-0.864835
153,0.754854,-1.300592,3.130298,0.182895,0.963716,-0.194423,3.3002290000000003,0.966038,0.48116499999999995,-0.136325,-0.062242,-0.20441099999999998
154,0.651656,-1.235147,3.0030080000000003,0.199772,0.944197,-0.261886,3.9038120000000003,1.0168549999999998,0.835693,-0.239277,-0.229765,0.109801
155,0.596067,-1.158411,2.915341,0.225004,0.916167,-0.331679,4.068544999999999,1.3190540000000002,1.043691,-0.154172,-0.26655500000000004,0.34066599999999997
156,0.565435,-1.082155,2.867677,0.25151100000000004,0.882971,-0.396363,3.450876,0.258781,1.393249,0.015013999999999998,-0.317664,0.6201479999999999
157,0.569232,-1.025369,2.8722090000000002,0.279617,0.8549059999999999,-0.436979,1.7529810000000001,-0.022,1.686192,0.102677,-0.23985399999999998,0.868574
158,0.59009,-0.988609,2.894573,0.305958,0.8352620000000001,-0.456867,1.086319,-0.194731,1.238445,0.356823,0.360966,0.347156
159,0.56875,-0.961501,2.890461,0.308223,0.820052,-0.48219700000000004,1.135406,-0.7499060000000001,0.43940100000000004,0.12209,0.39418200000000003,0.817814
160,0.5530229999999999,-0.9449219999999999,2.874917,0.307702,0.810451,-0.498486,0.7825449999999999,-0.060394,-0.124759,-0.290825,0.056216999999999996,0.5120359999999999
161,0.550958,-0.9382860000000001,2.873127,0.30948000000000003,0.806546,-0.503691,-0.053092999999999994,0.088799,0.318934,-0.21748499999999998,-0.034543,0.409545
162,0.5741,-0.949407,2.898555,0.316162,0.813071,-0.488833,-1.3766040000000002,0.167049,0.279679,-0.049513999999999996,-0.221701,0.192385
163,0.623521,-0.98818,2.95057,0.321266,0.835026,-0.446676,-3.092865,0.45215900000000003,-0.000798,-0.008736,-0.41876599999999997,-0.033549
164,0.700941,-1.057286,3.02753,0.316817,0.871025,-0.375421,-4.3442169999999996,0.684172,-0.991532,0.07145800000000001,-0.269341,-0.196875
165,0.781756,-1.148016,3.09875,0.289065,0.9119520000000001,-0.291179,-4.321903,0.9676,-2.356927,0.152295,-0.23066199999999998,-0.19325699999999998
166,0.843447,-1.23722,-3.136039,0.244565,0.9448770000000001,-0.21770100000000003,-3.277915,0.616584,-2.593808,0.314898,0.025138999999999998,-0.175823
167,0.8907120000000001,-1.305696,-3.08305,0.203714,0.965066,-0.16476400000000002,-2.616321,-0.733159,-1.8268830000000003,0.240912,0.46314099999999997,-0.007370000000000001
168,0.9506610000000001,-1.351691,-2.9938569999999998,0.17688299999999998,0.976092,-0.126315,-1.948003,-1.435534,-0.719978,0.290188,0.419889,-0.063169
169,1.048575,-1.370256,-2.874834,0.172646,0.979959,-0.09936,-1.295376,-0.674153,0.11788599999999999,0.223793,-0.41184399999999993,-0.39742
170,1.076287,-1.368693,-2.831286,0.176681,0.9796469999999999,-0.095265,0.273538,-1.0511620000000002,0.33122199999999996,-0.419234,-0.716615,-0.088466
171,1.040481,-1.367418,-2.816739,0.174233,0.97939,-0.10216,-0.559847,-2.932086,-0.099478,-0.5117109999999999,-0.838902,-0.27760100000000004
172,1.0026760000000001,-1.373558,-2.805792,0.165175,0.980611,-0.10543499999999999,0.281832,-2.2956369999999997,-0.14996199999999998,-0.305373,-0.016302,0.256131
173,0.9696,-1.370195,-2.827282,0.16431700000000002,0.9799469999999999,-0.112704,-0.09526,0.921851,0.087904,-0.27913899999999997,1.022449,0.505007
174,1.0593569999999999,-1.378602,-2.771859,0.16656700000000002,0.9815879999999999,-0.093486,-0.668994,1.760764,-0.082753,0.444333,2.375911,-0.992223
175,1.101317,-1.361902,-2.759345,0.184936,0.978261,-0.09382,0.690735,0.9755209999999999,1.167957,1.071762,-0.093831,0.036951
176,1.097119,-1.336818,-2.756271,0.206319,0.9727520000000001,-0.10575899999999999,0.42896000000000006,-0.8852129999999999,1.053145,0.36301700000000003,-0.239521,0.398515
177,1.066539,-1.319921,-2.763583,0.21735,0.9686950000000001,-0.11994300000000001,0.47137299999999993,-1.2443229999999998,0.512313,-0.06392300000000001,-0.328635,0.41156899999999996
178,1.035794,-1.315065,-2.771519,0.217604,0.9674790000000001,-0.128965,-0.032422,-0.998117,-0.14740999999999999,-0.35284299999999996,0.549138,0.432737
179,1.0418370000000001,-1.331757,-2.7577279999999997,0.204407,0.971566,-0.11947999999999999,-0.804673,-0.174715,-0.794792,-0.334671,0.7490760000000001,0.179081
180,1.048211,-1.352751,-2.7435650000000003,0.187445,0.9763219999999999,-0.10796800000000001,-0.466092,-0.339901,-0.805034,0.154809,0.28091,-0.252765
181,1.048516,-1.366298,-2.748298,0.17599800000000002,0.9791629999999999,-0.101303,-0.29485300000000003,0.549948,-0.506945,0.069501,0.091195,-0.3768
182,1.064469,-1.37096,-2.755785,0.173598,0.9800989999999999,-0.09626799999999999,0.225919,1.460501,-0.095345,-0.02574,0.031666,-0.520996
183,1.0172889999999999,-1.360847,-2.834432,0.177288,0.978042,-0.109553,1.372881,1.404687,0.080449,0.060383000000000006,-0.072844,-0.560262
184,0.896322,-1.334236,-2.98218,0.183042,0.97215,-0.146353,2.502554,1.006145,0.198877,0.234012,-0.09332,-0.524438
185,0.772271,-1.286786,-3.131755,0.195518,0.959939,-0.200719,3.2187740000000002,1.0816299999999999,0.680211,0.153863,-0.030511,-0.358439
186,0.697436,-1.221066,3.054708,0.22006399999999998,0.939465,-0.262633,3.5542279999999997,0.613509,1.30379,-0.034716000000000004,0.020328,-0.177278
187,0.66294,-1.148641,3.001745,0.25216,0.912208,-0.32294,3.289617,0.8595,1.5547959999999998,-0.391244,-0.13967100000000002,0.579868
188,0.656299,-1.082296,2.979688,0.286362,0.8830379999999999,-0.37180599999999997,2.509814,0.104109,1.7255049999999998,-0.19906600000000002,-0.23035799999999998,0.7595930000000001
189,0.6569659999999999,-1.032432,2.984977,0.313134,0.858549,-0.406006,1.550554,-0.378504,1.502574,-0.024041,-0.181241,0.632354
190,0.649402,-0.9998049999999999,2.992482,0.326825,0.841366,-0.43045100000000003,1.005051,-0.573401,0.8986729999999999,0.17505199999999999,0.202442,0.487595
191,0.646419,-0.985469,2.9912810000000003,0.332771,0.8335309999999999,-0.441008,0.328975,0.139461,0.10575699999999999,-0.26055100000000003,0.40270500000000004,0.45660200000000006
192,0.643784,-0.984848,2.981969,0.331919,0.8331879999999999,-0.44229700000000005,0.12646300000000002,0.330041,-0.22491399999999998,-0.30727600000000005,0.184665,0.413778
193,0.651014,-0.991015,2.98105,0.331988,0.8365819999999999,-0.43578999999999996,-0.558329,0.3803,-0.21160199999999998,-0.183367,-0.239445,0.228118
194,0.682275,-1.014839,3.005806,0.332782,0.8493950000000001,-0.409612,-1.848856,0.668324,-0.258373,-0.094073,-0.37959299999999996,0.072408
195,0.743004,-1.059631,3.056822,0.33094,0.872175,-0.360261,-2.856284,0.90254,-0.68018,0.002098,-0.357053,0.0043490000000000004
196,0.811064,-1.1196979999999999,3.110032,0.31607399999999997,0.899969,-0.300252,-3.000434,1.161274,-1.5873709999999999,0.128399,-0.331762,-0.091395
197,0.865603,-1.1883139999999999,-3.1373130000000002,0.284204,0.927741,-0.241916,-2.70811,0.9552639999999999,-2.2697950000000002,0.20568000000000003,-0.058829,-0.216718
198,0.903892,-1.254785,-3.10432,0.244189,0.9504819999999999,-0.192232,-2.495419,-0.176572,-2.0596240000000003,0.24848699999999999,0.103625,-0.130751
199,0.9462780000000001,-1.312549,-3.033608,0.207179,0.9668389999999999,-0.149325,-2.464619,-1.762023,-1.474128,0.33283,0.36739,0.134203
200,1.021945,-1.349394,-2.9246630000000002,0.187342,0.97559,-0.11456500000000001,-1.8794549999999999,-0.9941559999999999,-0.335505,0.622686,0.007228,-0.15829300000000002
201,1.158326,-1.3620139999999998,-2.788459,0.189884,0.978284,-0.083088,-1.2782229999999999,0.689766,0.27756,0.465282,-0.633786,-0.36635999999999996
202,1.188014,-1.357478,-2.7528259999999998,0.19638,0.977334,-0.079071,0.164906,-1.531032,0.283008,-0.5766899999999999,-0.714028,-0.341492
203,1.100474,-1.3597780000000002,-2.767667,0.186711,0.9778180000000001,-0.09491799999999999,0.044398,-4.367771,-0.433112,-0.634053,-0.903432,-0.389228
204,0.952626,-1.3589,-2.85691,0.17139100000000002,0.977634,-0.121885,1.202382,-1.7688139999999999,-0.292689,-0.197301,0.258725,0.30879
205,0.956576,-1.3585559999999999,-2.859855,0.172146,0.977561,-0.121401,-0.611296,1.357677,-0.02949,-0.120297,2.071389,0.263414
206,1.0416290000000001,-1.362863,-2.810425,0.1782,0.97846,-0.10421099999999998,-0.353854,1.644711,0.42700299999999997,0.06237,-0.004217,-0.23340500000000003
207,1.096276,-1.3545040000000002,-2.771007,0.190895,0.9767,-0.09805599999999999,-0.136827,0.708037,0.57927,0.9200520000000001,0.269989,-0.063458
208,1.16052,-1.343059,-2.7223029999999997,0.20703400000000002,0.9741799999999999,-0.09005099999999999,-0.358309,0.19280899999999998,0.679864,1.380201,0.576601,-0.07738300000000001
209,1.1481379999999999,-1.336136,-2.710248,0.212049,0.972593,-0.095372,0.34579299999999996,-1.567105,0.355889,0.009677,-0.097746,0.127538
210,1.099129,-1.33071,-2.723645,0.211819,0.971318,-0.10804200000000001,0.07993099999999999,-1.7807979999999999,-0.052687,-0.22279000000000002,0.374843,0.075708
211,1.070354,-1.340427,-2.729141,0.20033299999999998,0.973582,-0.10955799999999999,-0.228454,-0.6919489999999999,-0.618121,-0.360596,0.531728,0.038909
212,1.034804,-1.3512979999999999,-2.769304,0.187201,0.976007,-0.111197,0.40534699999999996,0.6251479999999999,-0.738228,-0.424857,0.2797,-0.471811
213,0.968608,-1.355808,-2.861103,0.175807,0.976979,-0.120842,0.8651559999999999,1.491108,-0.576961,-0.217387,0.123744,-0.37540500000000004
214,0.903494,-1.346508,-2.968245,0.174701,0.9749530000000001,-0.13764200000000001,1.516726,2.3201869999999998,-0.150456,0.11388800000000002,-0.043968,-0.483833
215,0.824825,-1.31835,-3.099351,0.18343900000000002,0.968304,-0.169516,2.4230959999999997,2.2997400000000003,0.18064000000000002,0.305071,-0.075711,-0.37793899999999997
216,0.7336199999999999,-1.27102,3.050481,0.197724,0.9554030000000001,-0.219338,3.281164,1.5951790000000001,0.6052109999999999,0.351378,-0.085118,-0.36814
217,0.66948,-1.198939,2.958344,0.22548400000000002,0.9316540000000001,-0.28491500000000003,3.922362,0.761886,1.441835,0.018825,-0.062329999999999997,0.189425
218,0.621232,-1.118416,2.90046,0.25441199999999997,0.899409,-0.35543800000000003,3.7717370000000003,0.035775,1.4705549999999998,-0.164476,-0.138957,0.45649700000000004
219,0.5954659999999999,-1.051999,2.879526,0.278111,0.868416,-0.410495,2.495566,-0.618502,1.560756,-0.196171,-0.17813900000000002,0.691104
220,0.588234,-1.004805,2.883845,0.297562,0.844057,-0.44611999999999996,1.652553,-0.49286899999999995,1.243854,-0.050919,-0.193926,0.473418
221,0.571554,-0.9742200000000001,2.876936,0.30390700000000004,0.8272639999999999,-0.47251899999999997,1.200149,-0.45357600000000003,0.335859,0.102221,-0.071603,0.517441
222,0.561631,-0.9583139999999999,2.8651299999999997,0.30617300000000003,0.8182229999999999,-0.486588,0.597246,0.221721,0.081887,-0.24431399999999998,0.21932800000000002,0.508133
223,0.5628529999999999,-0.9553370000000001,2.857703,0.30806500000000003,0.816509,-0.488271,0.056260000000000004,0.415357,-0.187059,-0.305212,0.001073,0.384343
224,0.569911,-0.964339,2.8565150000000004,0.307526,0.821672,-0.47987700000000005,-0.648355,0.382263,-0.357513,-0.07746900000000001,-0.153719,0.244891
225,0.5877829999999999,-0.991668,2.867737,0.30348400000000003,0.83694,-0.455442,-1.785279,0.49148100000000006,-0.577102,-0.007586,-0.259608,0.083006
226,0.625391,-1.0464959999999999,2.898273,0.293062,0.865675,-0.405859,-3.2234990000000003,0.631909,-1.147076,0.20185699999999998,-0.20973000000000003,-0.157099
227,0.668215,-1.1256899999999999,2.930193,0.266764,0.902565,-0.337953,-3.6693550000000004,0.7879109999999999,-2.208998,0.325536,-0.100105,-0.233931
228,0.692812,-1.2095129999999998,2.937041,0.225764,0.935444,-0.271981,-3.091475,0.876599,-2.5105869999999997,0.411153,0.199657,-0.312492
229,0.713733,-1.278571,2.9630009999999998,0.188595,0.9576049999999999,-0.21776700000000002,-2.918708,-1.032561,-1.549807,0.49455600000000005,0.181753,0.096384
230,0.771103,-1.336458,3.058226,0.161824,0.972668,-0.166517,-2.830302,-1.8651229999999999,-0.682863,0.748012,-0.095334,-0.049196
231,0.896496,-1.362622,-3.073475,0.161439,0.97841,-0.12903499999999998,-1.4877770000000001,-0.48377700000000007,0.627975,0.9058219999999999,-0.541566,-0.404229
232,0.954974,-1.347331,-3.008078,0.180897,0.9751350000000001,-0.12800599999999998,0.44643299999999997,-0.756532,1.092625,-0.34412,-0.7322310000000001,0.158005
233,0.971484,-1.341505,-2.944719,0.187673,0.973828,-0.12820499999999999,-1.196591,-2.954951,0.30950500000000003,-0.990102,-1.403073,0.022843000000000002
234,0.97349,-1.35765,-2.869218,0.174906,0.9773700000000001,-0.118969,-0.637471,-3.944515,-0.459783,-0.9254399999999999,-1.052093,0.435619
235,0.897119,-1.368277,-2.888824,0.157192,0.979563,-0.125479,-0.070208,-1.502357,-0.55509,-0.40021799999999996,1.122488,-0.007638
236,0.962887,-1.387859,-2.848272,0.149322,0.9833139999999999,-0.1039,-1.4484219999999999,1.4550290000000001,-0.7372850000000001,0.265961,2.718194,-0.246869
237,1.004707,-1.402564,-2.805189,0.141315,0.9858819999999999,-0.089801,-0.585009,-0.473285,-0.11348699999999999,0.271923,-0.708371,0.539233
238,1.104395,-1.408949,-2.72127,0.143924,0.986931,-0.07245800000000001,-0.610427,2.077704,0.26121700000000003,1.347974,1.1708290000000001,-1.068411
239,1.181463,-1.403975,-2.658857,0.153615,0.986118,-0.063024,-0.204368,-1.051569,0.315065,0.707546,-0.137515,0.07506399999999999
240,1.0864530000000001,-1.393181,-2.710239,0.156354,0.984268,-0.08226499999999999,1.0387959999999998,-2.0175680000000003,0.251279,0.017657,-0.10903900000000001,-0.10601300000000001
241,0.985798,-1.386757,-2.780469,0.152566,0.9831129999999999,-0.10105,0.373413,-1.498667,-0.264644,-0.218957,0.325435,0.053229
242,0.9099889999999999,-1.398703,-2.845401,0.135192,0.9852280000000001,-0.105099,0.147955,0.134555,-1.1720270000000002,-0.503189,0.175981,-0.309208
243,0.754007,-1.4076110000000002,-3.017674,0.11121099999999999,0.986715,-0.118422,1.130752,0.921435,-1.1351930000000001,-0.041875,0.042887,-0.531511
244,0.611743,-1.390261,3.09864,0.10311400000000001,0.983748,-0.146988,1.797043,1.203229,-0.25602600000000003,0.591145,-0.26486,-0.475846
245,0.5515,-1.353259,3.007921,0.11308299999999999,0.976432,-0.183824,2.249216,1.5518399999999999,0.616219,0.602524,-0.288871,-0.651656
246,0.519253,-1.297496,2.958191,0.133936,0.962885,-0.23433099999999998,2.8734740000000003,0.256125,0.958729,0.170034,-0.128138,-0.338377
247,0.48568999999999996,-1.23358,2.9276400000000002,0.154451,0.943679,-0.292597,3.061219,-0.444378,1.216244,-0.106188,-0.075424,0.211954
248,0.46553100000000003,-1.169724,2.918288,0.175251,0.920643,-0.348858,2.757103,-0.557848,1.350997,-0.09009199999999999,-0.125584,0.651883
249,0.47059300000000004,-1.119597,2.9373009999999997,0.197709,0.899925,-0.38864499999999996,1.655243,-0.5632510000000001,1.525973,0.22447199999999998,-0.020850999999999998,0.739125
250,0.48471800000000004,-1.0854620000000001,2.965659,0.217371,0.884519,-0.41276499999999994,0.9212370000000001,-0.851405,1.2295909999999999,0.167425,0.144671,0.09614500000000001
251,0.479876,-1.063914,2.997473,0.22411799999999998,0.8742620000000001,-0.430622,0.5011479999999999,-1.8381290000000001,1.1307129999999999,0.10447999999999999,0.223379,0.384342
252,0.47773000000000004,-1.049189,3.0248180000000002,0.229089,0.8670190000000001,-0.44248699999999996,0.15853499999999998,-0.7438239999999999,0.828883,-0.19814400000000001,0.231186,0.526227
253,0.509417,-1.048192,3.059503,0.24341300000000002,0.8665219999999999,-0.43576099999999995,-0.684251,0.45648,0.825731,-0.334615,0.24753699999999998,0.206452
254,0.571285,-1.060653,3.116459,0.264031,0.872674,-0.410762,-1.607478,0.6491680000000001,0.85856,-0.160744,0.1052,0.005062
255,0.649459,-1.0857450000000002,-3.093612,0.281969,0.8846510000000001,-0.371329,-2.180165,0.695817,0.6120140000000001,-0.167925,0.005593,-0.008753
256,0.722604,-1.114209,-3.022673,0.291575,0.8975629999999999,-0.330702,-2.023068,0.289143,0.144683,-0.13856,-0.086344,0.058454
257,0.7607430000000001,-1.143498,-2.974752,0.28572,0.9100889999999999,-0.300168,-1.635034,-0.611045,-0.449658,-0.10119500000000001,-0.234002,0.04997
258,0.769199,-1.176592,-2.945295,0.26714499999999997,0.9233030000000001,-0.275943,-1.6250870000000002,-0.949232,-0.8668299999999999,-0.103692,-0.34218699999999996,-0.039792
259,0.777671,-1.2154770000000001,-2.91922,0.24408600000000003,0.937535,-0.247888,-1.751136,-0.73695,-1.096582,0.014275999999999999,-0.471135,-0.280509
260,0.7725489999999999,-1.2545549999999999,-2.903493,0.21706199999999998,0.950411,-0.22271300000000002,-1.418862,-1.2106729999999999,-1.199408,0.664514,-0.069185,-0.37093000000000004
261,0.7448170000000001,-1.2814219999999998,-2.9035509999999998,0.19342,0.9584229999999999,-0.209792,-0.6634909999999999,-1.410304,-0.683266,0.805161,0.303372,-0.556032
262,0.710339,-1.280081,-2.918835,0.186911,0.958039,-0.217309,0.809925,-0.805194,0.161599,0.237893,0.430145,-0.908286
263,0.661377,-1.2587030000000001,-2.946876,0.18859,0.951693,-0.242306,0.928942,-1.3096809999999999,0.477134,0.19675499999999999,0.078184,-0.803135
264,0.65142,-1.245371,-2.926357,0.19384500000000002,0.947515,-0.25424,0.054949,-1.3852389999999999,0.682634,0.65285,-0.967992,0.589277
265,0.6681,-1.2476200000000002,-2.8918150000000002,0.19673800000000002,0.9482309999999999,-0.249298,-0.9475600000000001,-0.663676,0.127777,0.052591,-1.0842180000000001,1.059082
266,0.701495,-1.271792,-2.840953,0.190101,0.95563,-0.22501300000000002,-1.296899,-0.6832560000000001,-0.266675,-0.672538,1.1285530000000001,-1.49682
267,0.601006,-1.266472,-2.915278,0.169441,0.95405,-0.24713800000000002,1.813853,-2.897373,-0.979182,-0.6028060000000001,1.9977479999999999,0.030524000000000003
268,0.492278,-1.266476,-2.965293,0.141621,0.954051,-0.26406199999999996,-0.5961420000000001,-1.83555,-0.42481,-0.171879,1.0578809999999998,0.6661159999999999
269,0.469264,-1.283985,-2.978497,0.127932,0.959151,-0.252312,-0.188316,-0.787934,-0.624129,0.0012029999999999999,-0.29589699999999997,0.843483
270,0.422458,-1.291115,-2.9899310000000003,0.11317999999999999,0.9611430000000001,-0.251777,-0.8194799999999999,-2.0470770000000003,-0.081063,0.377986,0.2351,0.7842020000000001
271,0.45468800000000004,-1.314522,-2.932409,0.111321,0.967341,-0.227721,-1.418504,-0.311356,0.340885,0.514335,0.86382,-0.270509
272,0.500606,-1.32656,-2.872343,0.116059,0.9703219999999999,-0.21213800000000002,-0.548353,-1.568323,0.37100700000000003,-0.429505,0.487411,0.438716
273,0.481996,-1.3342129999999999,-2.84258,0.108646,0.972145,-0.207675,-0.609476,-2.113743,-0.10835299999999999,-0.741534,0.18529600000000002,0.905078
274,0.48945900000000003,-1.358911,-2.826759,0.098872,0.9776360000000001,-0.185607,-1.613269,0.516564,-0.604776,-0.752131,0.362284,0.019729
275,0.485887,-1.4026299999999998,-2.831884,0.07816000000000001,0.985893,-0.147998,-1.823971,-0.572713,-1.34513,0.125926,0.40985900000000003,-0.032987
276,0.40167800000000004,-1.442941,-2.896566,0.049847,0.9918379999999999,-0.117351,-1.6242290000000001,-1.072605,-1.18286,0.535556,0.012862,0.28773000000000004
277,0.276619,-1.482453,-3.0034919999999996,0.024092,0.9961,-0.084862,-1.633369,-0.74548,-1.1961620000000002,0.071092,-0.24112600000000003,0.191735
278,0.014524,-1.517698,3.030392,0.000771,0.998591,-0.053047000000000004,-1.587374,-0.660654,-1.137197,0.009009999999999999,-0.25963800000000004,0.115166
279,-0.804671,-1.539159,2.223322,-0.022767,0.9995,-0.021906000000000002,-1.548833,-0.6256550000000001,-1.131632,-0.007537,-0.29223899999999997,0.014154
280,-1.756489,-1.525786,1.282308,-0.044189,0.9989870000000001,0.008301000000000001,-1.433501,-0.48803,-1.0167030000000001,-0.00148,-0.253717,-0.087876
281,-2.072741,-1.499021,0.971823,-0.062851,0.997425,0.034495,-1.20754,-0.185672,-0.9012120000000001,0.112916,-0.129597,-0.232523
282,-2.195611,-1.474389,0.847708,-0.078064,0.9953559999999999,0.0563,-1.021355,0.182338,-0.652556,0.140991,-0.016138999999999997,-0.32859299999999997
283,-2.2464419999999996,-1.4569590000000001,0.786067,-0.088629,0.993527,0.071035,-0.584498,0.736062,-0.444047,0.203543,0.168277,-0.5804189999999999
284,-2.187519,-1.4479739999999999,0.829181,-0.099937,0.992467,0.070853,0.24190599999999998,0.736939,-0.580349,0.538184,0.031702999999999995,-0.482916
285,-2.045769,-1.442483,0.964515,-0.11378800000000001,0.9917790000000001,0.058514,0.729309,0.10720299999999999,-0.696847,0.853885,-0.083393,-0.33816199999999996
286,-1.909344,-1.440265,1.112063,-0.12276500000000001,0.9914930000000001,0.043226,0.8977229999999999,-0.751326,-0.331375,1.029213,-0.10356900000000001,-0.221998
287,-1.733497,-1.446764,1.301883,-0.122071,0.992318,0.020038,1.515262,-0.5105609999999999,0.194991,0.828217,0.560584,-0.37233299999999997
288,-1.42363,-1.457156,1.6325290000000001,-0.112159,0.99355,-0.016626,2.18233,-1.37989,0.697487,0.785469,0.579708,-0.22789600000000002
289,-0.9706370000000001,-1.4575690000000001,2.124718,-0.09323300000000001,0.993597,-0.06380599999999999,2.81092,-1.736902,1.2535379999999998,0.575533,0.337656,-0.148337
290,-0.47313599999999995,-1.430513,2.654254,-0.063712,0.9901760000000001,-0.124457,3.282341,-1.443599,1.8215439999999998,0.21962600000000002,0.43424700000000005,-0.24656
291,-0.165917,-1.382975,3.007115,-0.030837,0.9824129999999999,-0.184151,2.927319,-2.303131,2.092563,0.097198,0.311837,0.422783
292,0.031845,-1.338734,-3.036741,0.0073230000000000005,0.973194,-0.229865,2.0570180000000002,-1.3759430000000001,2.480537,0.173921,0.43661099999999997,0.680229
293,0.20486100000000002,-1.298982,-2.8473490000000004,0.054616,0.9632850000000001,-0.262863,1.467193,-0.085174,2.545266,0.243815,0.509188,0.495575
294,0.34265100000000004,-1.267572,-2.702111,0.100324,0.9543790000000001,-0.281238,0.60524,-0.27413899999999997,2.330116,0.346056,0.323728,0.275318
295,0.44683100000000003,-1.245164,-2.577265,0.138235,0.947449,-0.288498,0.21833200000000003,-1.046669,2.184193,0.5134529999999999,0.286575,0.07608
296,0.528121,-1.222985,-2.4545529999999998,0.171753,0.9401209999999999,-0.294402,-0.11613399999999999,-2.059755,2.475848,0.6248779999999999,0.151508,0.35678000000000004
297,0.608224,-1.1977950000000002,-2.316378,0.20822800000000002,0.9312379999999999,-0.299059,-0.307121,-2.688904,2.8000599999999998,0.370812,0.17626,0.514864
298,0.6691010000000001,-1.171546,-2.183598,0.24111999999999997,0.9213530000000001,-0.30490900000000004,-0.507582,-3.382736,2.792071,0.09848,0.181827,0.579918
299,0.708942,-1.145751,-2.059126,0.268459,0.91102,-0.313002,-0.6720729999999999,-3.772675,2.680327,-0.24786,0.05946900000000001,0.590987
300,0.740269,-1.125363,-1.9426880000000002,0.290601,0.902424,-0.318089,-0.988358,-3.67886,2.404532,-0.32591,-0.021351,0.582203
301,0.759908,-1.111766,-1.8348810000000002,0.305216,0.896482,-0.321187,-1.152468,-4.000665000000001,2.037398,-0.337458,-0.179472,0.607106
302,0.765359,-1.10385,-1.740082,0.311869,0.8929469999999999,-0.324626,-1.2088969999999999,-3.8743239999999997,1.660828,-0.36631199999999997,-0.24904099999999998,0.555476
303,0.766606,-1.103,-1.653298,0.3128,0.8925639999999999,-0.324783,-1.409693,-3.806137,1.300416,-0.376368,-0.276018,0.541931
304,0.7616689999999999,-1.110429,-1.573895,0.306608,0.8958889999999999,-0.32151599999999997,-1.542047,-3.7868510000000004,0.855086,-0.427702,-0.269485,0.54225
305,0.7465470000000001,-1.125441,-1.506048,0.292545,0.902458,-0.316207,-1.5442049999999998,-3.7658629999999995,0.40425500000000003,-0.566821,-0.182609,0.551437
306,0.7250939999999999,-1.144981,-1.45199,0.273946,0.910702,-0.309151,-1.472661,-3.363202,0.079499,-0.64182,-0.10840999999999999,0.35433200000000004
307,0.7107,-1.168358,-1.405765,0.255506,0.9201090000000001,-0.296842,-1.534591,-2.4129169999999998,-0.147546,-0.607862,-0.057011,0.156629
308,0.720851,-1.196013,-1.359191,0.241614,0.930587,-0.275007,-1.6442279999999998,-1.291375,-0.270458,-0.467337,-0.033279,-0.11838
309,0.731646,-1.219547,-1.322309,0.229871,0.938944,-0.256013,-0.844692,-1.250261,-0.32261,0.734881,0.490225,-1.013732
310,0.688699,-1.214761,-1.3384969999999998,0.221521,0.9372860000000001,-0.269113,0.8494950000000001,-1.1498549999999998,0.271276,0.977469,0.401307,-0.385504
311,0.6732229999999999,-1.195829,-1.337546,0.228354,0.9305200000000001,-0.286333,0.38556599999999996,-0.93048,0.69077,0.317422,0.20438299999999998,0.097399
312,0.688701,-1.183411,-1.303691,0.240085,0.9259,-0.291665,0.021172,-0.7387560000000001,1.0127190000000001,0.294446,-0.277478,-0.006019
313,0.7200810000000001,-1.171099,-1.252142,0.256616,0.9211790000000001,-0.292536,-0.315562,-0.666026,1.232461,0.17159100000000002,-0.350881,1.5051370000000002
314,0.8062060000000001,-1.1774950000000002,-1.1549479999999999,0.276571,0.9236489999999999,-0.26529400000000003,-2.4246939999999997,-0.235593,0.9148700000000001,0.051019999999999996,0.23449299999999998,0.947042
315,0.8855139999999999,-1.202877,-1.0540100000000001,0.278475,0.9330780000000001,-0.227635,-1.197747,-0.956118,-0.047718,0.18690299999999999,0.8592350000000001,-0.680339
316,0.803157,-1.201741,-1.089576,0.259567,0.932668,-0.250508,0.23230100000000004,-3.186886,-0.4675,-0.7316590000000001,0.603769,-0.146862
317,0.741259,-1.2100739999999999,-1.10022,0.23831799999999997,0.935642,-0.260342,-0.165523,-2.162069,-0.660668,-0.519217,-0.326328,0.926205
318,0.693322,-1.233934,-1.122541,0.211238,0.9437969999999999,-0.254217,-0.902329,-0.724475,-1.220995,-0.48850600000000005,-0.282938,0.816732
319,0.6726439999999999,-1.266235,-1.1483299999999999,0.186839,0.9539780000000001,-0.234555,-0.950483,0.46747799999999995,-1.422617,-0.509883,-0.140517,0.6071439999999999
320,0.6053029999999999,-1.296165,-1.2113530000000001,0.154311,0.962525,-0.223009,-0.530979,-1.189358,-1.702779,-0.053603,0.289031,0.453584
321,0.49137299999999995,-1.325136,-1.28588,0.114748,0.9699770000000001,-0.21442199999999997,-0.958842,-2.317223,-1.397742,0.403089,0.497629,0.360113
322,0.420033,-1.355942,-1.313431,0.08694199999999999,0.977008,-0.194671,-1.24,-1.99622,-0.711114,0.26018,-0.143527,0.367248
323,0.40779499999999996,-1.380803,-1.293177,0.074896,0.9820049999999999,-0.17336500000000002,-1.324133,-1.38996,-0.135639,-0.15329500000000001,-0.00587,0.342875
324,0.44751199999999997,-1.407529,-1.2333120000000002,0.07033500000000001,0.986701,-0.146535,-1.427303,-0.786886,-0.07837999999999999,-0.23697600000000002,-0.002891,0.26114299999999996
325,0.495196,-1.4329610000000002,-1.165504,0.065292,0.990516,-0.120893,-1.279766,-1.032108,-0.153947,-0.054916,-0.001166,0.053708000000000006
326,0.540423,-1.454744,-1.101639,0.059573,0.993274,-0.099287,-1.1134629999999999,-0.867395,-0.196794,0.053952999999999994,0.057415999999999995,0.086592
327,0.6053470000000001,-1.475009,-1.022242,0.054422000000000005,0.995416,-0.07864299999999999,-1.040627,-0.572541,-0.203072,0.031149,0.015677,0.11343299999999999
328,0.676834,-1.493534,-0.9414870000000001,0.048342,0.997017,-0.06016900000000001,-0.8731030000000001,-0.47241700000000003,-0.345172,-0.175478,-0.128227,-0.031918
329,0.692133,-1.510726,-0.916811,0.038311000000000005,0.9981959999999999,-0.046217,-0.6403340000000001,-0.401018,-0.553009,0.050709,-0.082501,0.046202
330,0.62327,-1.527622,-0.976507,0.025188,0.9990680000000001,-0.035039,-0.555392,-0.589476,-0.650451,0.18623800000000001,-0.06350599999999999,0.075536
331,0.46166499999999994,-1.544175,-1.126841,0.011848000000000001,0.9996459999999999,-0.023814,-0.58367,-0.476441,-0.655066,0.194023,-0.061459,0.07369500000000001
332,-0.059855,-1.5594379999999999,-1.641666,-0.000677,0.999936,-0.011290999999999999,-0.6706880000000001,-0.312327,-0.594996,0.198324,-0.047252999999999996,0.075851
333,-1.849804,-1.558136,2.857226,-0.012116,0.99992,0.003471,-0.768858,-0.291842,-0.5711390000000001,0.21611100000000003,0.053988999999999995,0.023308000000000002
334,-2.3098919999999996,-1.540275,2.403274,-0.022537,0.999534,0.020541,-0.912407,-0.330063,-0.47915699999999994,0.284378,0.112328,-0.06093099999999999
335,-2.505958,-1.520535,2.2165310000000003,-0.029819,0.9987370000000001,0.040417,-0.9888950000000001,-0.600903,-0.347953,0.320728,0.044476,-0.163906
336,-2.590544,-1.502992,2.1442259999999997,-0.035468,0.9977020000000001,0.057714,-0.7094779999999999,-0.544675,-0.265957,0.177345,0.08793,-0.26145
337,-2.740903,-1.4991079999999999,2.004041,-0.027933,0.997432,0.065941,-0.274136,-0.565239,-0.296004,0.233454,0.12618,-0.24649899999999997
338,-2.680152,-1.495424,2.083792,-0.033520999999999995,0.9971610000000001,0.067413,0.10662,-1.1256030000000001,-0.35244699999999995,0.425824,0.108293,-0.141647
339,-2.610624,-1.4982209999999998,2.1775990000000003,-0.03671,0.997368,0.062514,0.38900500000000005,-1.214841,-0.12603399999999998,0.45036000000000004,0.162712,-0.082839
340,-2.561495,-1.510291,2.2492810000000003,-0.033132,0.9981700000000001,0.050559,0.8209770000000001,-1.072041,0.284862,0.476995,0.384291,-0.161902
341,-2.503973,-1.537609,2.3304270000000002,-0.01973,0.999449,0.026631000000000002,1.492883,-1.285396,0.8420989999999999,0.48616099999999995,0.26966999999999997,-0.189412
342,0.465105,-1.5583049999999998,-0.9535450000000001,0.005567,0.999922,-0.011094,2.118998,-1.589653,1.52732,0.46966800000000003,0.317735,-0.319762
343,0.574414,-1.494549,-0.813793,0.041382999999999996,0.9970950000000001,-0.06394,2.970031,-1.445327,1.992415,0.056105999999999996,0.24298699999999998,-0.382288
344,0.5399079999999999,-1.413181,-0.816962,0.08068600000000001,0.987604,-0.134632,3.669243,-1.636039,2.19196,-0.271649,0.32518600000000003,0.012852
345,0.520586,-1.329179,-0.808309,0.11900999999999999,0.970952,-0.20757399999999998,3.3896629999999996,-1.1791040000000002,2.185148,-0.37522,0.367533,0.23595500000000003
346,0.529321,-1.25806,-0.782658,0.155353,0.9514950000000001,-0.26555700000000004,2.65421,-0.519491,1.971931,-0.266254,0.49278,0.591699
347,0.549556,-1.201686,-0.7582909999999999,0.18844,0.932649,-0.307661,1.902438,0.053956,1.742686,0.116827,0.150451,0.41763100000000003
348,0.589461,-1.158973,-0.718342,0.222521,0.916392,-0.332728,1.1179729999999999,0.103095,1.8557169999999998,0.18246300000000001,0.166783,0.337871
349,0.634785,-1.122007,-0.6642979999999999,0.257289,0.9009729999999999,-0.349354,0.76827,-0.308944,2.102698,0.286794,0.128644,0.29025700000000004
350,0.6786939999999999,-1.079748,-0.607518,0.296028,0.8818389999999999,-0.367051,0.958139,-0.507827,2.389494,0.08474,0.09676799999999999,0.18876700000000002
351,0.7031890000000001,-1.035966,-0.554217,0.329596,0.860355,-0.388786,0.747266,-1.393327,2.369928,-0.188681,0.11190499999999999,0.216698
352,0.711011,-0.9998370000000001,-0.50067,0.35269,0.841383,-0.409492,0.280014,-2.0747310000000003,2.14962,-0.250166,0.01993,0.36241799999999996
353,0.710671,-0.972881,-0.448981,0.367216,0.8265110000000001,-0.42665,-0.0021100000000000003,-2.245098,1.842356,-0.288206,-0.01128,0.388519
354,0.69957,-0.954134,-0.403466,0.37237,0.815813,-0.442479,-0.19358499999999998,-2.498569,1.4599879999999998,-0.412775,-0.15495499999999998,0.46065200000000006
355,0.682458,-0.942858,-0.36396,0.370523,0.809241,-0.455896,-0.37954499999999997,-2.4315849999999997,1.121045,-0.504922,-0.252203,0.47853999999999997
356,0.665714,-0.940427,-0.328393,0.364052,0.80781,-0.463582,-0.67516,-2.108418,0.747893,-0.52877,-0.31890300000000005,0.485311
357,0.6570199999999999,-0.9479059999999999,-0.296245,0.356308,0.812196,-0.461933,-0.992043,-1.518912,0.38813800000000004,-0.49966400000000005,-0.43541,0.384525
358,0.657076,-0.964618,-0.265969,0.347994,0.821831,-0.45110200000000006,-1.322486,-1.0796350000000001,0.046641,-0.418962,-0.512764,0.320517
359,0.66463,-0.990502,-0.237069,0.33815500000000004,0.8363010000000001,-0.431568,-1.623143,-0.64054,-0.27542,-0.418584,-0.640653,0.272861
360,0.681443,-1.0246030000000002,-0.210513,0.327201,0.854508,-0.403428,-1.866279,-0.052233,-0.665637,-0.487113,-0.6641090000000001,0.201295
361,0.703702,-1.066857,-0.19053699999999998,0.312444,0.8756870000000001,-0.368171,-1.954036,0.370733,-1.134673,-0.352391,-0.544114,0.07625499999999999
362,0.718176,-1.111768,-0.182323,0.291549,0.896483,-0.33363899999999996,-1.710971,0.30489299999999997,-1.396742,-0.007492,0.012894999999999998,0.054907000000000004
363,0.712248,-1.15578,-0.191193,0.263508,0.9151100000000001,-0.305183,-1.448691,-0.027206,-1.690382,0.339183,0.527472,0.091422
364,0.693386,-1.192382,-0.202434,0.236129,0.9292520000000001,-0.28413499999999997,-1.134974,-0.699213,-0.943846,0.457337,0.21804099999999998,-0.028197000000000003
365,0.695522,-1.2133459999999998,-0.179672,0.22420199999999998,0.936792,-0.26861399999999996,-1.063303,-1.05949,-0.15453599999999998,0.20554699999999998,-0.190164,-0.176378
366,0.707408,-1.229946,-0.140413,0.21724200000000002,0.942471,-0.25407399999999997,-1.036651,-1.356463,0.028697000000000004,-0.095843,-0.172192,-0.079605
367,0.715066,-1.242947,-0.104157,0.211128,0.946737,-0.24313,-0.788602,-1.253933,0.014275,-0.308708,-0.21781,0.034770999999999996
368,0.7224729999999999,-1.2536459999999998,-0.07526000000000001,0.206213,0.9501280000000001,-0.233947,-0.659929,-0.8942319999999999,-0.006652,-0.42407799999999995,-0.368875,0.092193
369,0.7337020000000001,-1.2646979999999999,-0.042339999999999996,0.201783,0.9535170000000001,-0.223804,-0.8968799999999999,-1.132117,0.014431,-0.570863,-0.056697000000000004,-0.204129
370,0.740279,-1.277925,-0.011609999999999999,0.194726,0.957419,-0.213142,-0.45385200000000003,-1.093206,-0.243171,-0.093591,0.59675,0.5695720000000001
371,0.707477,-1.2756459999999998,-0.032251,0.189049,0.956759,-0.22107100000000002,0.43466400000000005,-0.153567,0.035296,0.240562,0.150007,0.8638170000000001
372,0.715605,-1.269257,-0.03299,0.194846,0.954881,-0.224135,0.070815,0.508448,0.230596,0.21413600000000002,-0.024751,0.233779
373,0.728278,-1.2682309999999999,-0.020461,0.198323,0.954575,-0.22238000000000002,-0.197995,-0.080278,0.10449100000000001,0.22996100000000003,0.398956,0.051374
374,0.76581,-1.265574,0.0028239999999999997,0.208285,0.95378,-0.21660900000000002,0.081462,1.21385,0.7061930000000001,1.507825,1.3225559999999998,-0.404805
375,0.799705,-1.243164,0.039013,0.23077899999999998,0.946807,-0.224268,0.47559799999999997,-0.9205459999999999,1.324841,0.8125720000000001,-0.24142399999999997,0.636362
376,0.816224,-1.222119,0.087418,0.248916,0.939825,-0.23402399999999998,-0.019685,-1.581954,1.189769,-0.131454,-0.103171,0.34837399999999996
377,0.8285170000000001,-1.215365,0.136042,0.256446,0.9374959999999999,-0.235233,-0.609946,-1.603816,0.50949,-0.613121,0.330997,0.668491
378,0.8458110000000001,-1.230061,0.167481,0.250135,0.942509,-0.221602,-0.94004,-0.289556,-0.462309,-0.337919,0.46879099999999996,-0.1075
379,0.841648,-1.249675,0.180885,0.23537800000000003,0.948882,-0.210283,-0.851147,-1.104084,-0.641174,0.229817,0.690995,0.041352999999999994
380,0.8448979999999999,-1.269569,0.201328,0.221896,0.954973,-0.196946,-0.81288,-0.461592,-0.440904,0.327771,0.139876,0.063233
381,0.8626450000000001,-1.283499,0.21972199999999997,0.21523,0.9590129999999999,-0.184306,-0.6311680000000001,0.238125,-0.289912,-0.132253,0.048387,-0.21515399999999998
382,0.8845860000000001,-1.292569,0.230262,0.212484,0.9615440000000001,-0.174021,-0.152143,0.740213,-0.258368,-0.435567,0.267384,-0.479422
383,0.8721270000000001,-1.290517,0.199711,0.21181,0.9609780000000001,-0.177923,0.716643,0.967736,-0.10090299999999999,-0.24904099999999998,-0.029032,-0.333567
384,0.831197,-1.273305,0.130661,0.21654,0.956075,-0.197561,1.657358,1.293021,0.054802,0.159834,-0.181249,-0.557245
385,0.766682,-1.240399,0.038554000000000005,0.225064,0.9459139999999999,-0.23365100000000003,2.4374990000000003,1.145391,0.332837,0.256564,-0.24343,-0.347099
386,0.7138800000000001,-1.189729,-0.041426,0.243517,0.928268,-0.2811,3.0430650000000004,1.162223,0.925636,0.08250299999999999,-0.18547,-0.253278
387,0.685786,-1.122164,-0.098263,0.274675,0.901041,-0.33567600000000003,3.413686,1.103275,1.492321,-0.194246,-0.114344,0.100751
388,0.675128,-1.049025,-0.130925,0.31150900000000004,0.8669379999999999,-0.389077,3.205131,0.8533629999999999,1.8319470000000002,-0.37359699999999996,-0.11881400000000002,0.484444
389,0.6773,-0.980909,-0.137903,0.348607,0.8310040000000001,-0.43348000000000003,2.527154,0.21475,2.014969,-0.200353,-0.032115,0.6954739999999999
390,0.677082,-0.924632,-0.13128099999999998,0.377246,0.798399,-0.469301,1.813077,-0.7822020000000001,1.798682,0.12876600000000002,0.037386,0.610109
391,0.653033,-0.88292,-0.130907,0.385762,0.772596,-0.504264,1.48705,-1.2783959999999999,0.960623,0.22344499999999998,-0.04727,0.541312
392,0.619649,-0.858822,-0.14376,0.379421,0.757074,-0.531864,1.006522,-1.108954,0.030900999999999998,-0.10715799999999999,0.226508,0.468158
393,0.5890310000000001,-0.8510969999999999,-0.162045,0.366199,0.752004,-0.548076,0.47996400000000006,-0.607288,-0.29175,-0.5167579999999999,0.332698,0.505855
394,0.588864,-0.848009,-0.161669,0.36739499999999997,0.749965,-0.5500659999999999,-0.17638,0.142706,0.266726,-0.199259,0.201329,0.291536
395,0.609808,-0.859533,-0.138042,0.37385999999999997,0.757538,-0.535131,-1.382025,0.224291,0.356476,-0.25897600000000004,-0.06515499999999999,0.119618
396,0.65615,-0.8899379999999999,-0.09122899999999999,0.384015,0.777033,-0.49875,-2.536791,0.710381,0.21105500000000002,-0.235562,-0.159372,0.012575
397,0.721604,-0.941069,-0.032092,0.38903699999999997,0.808188,-0.442133,-3.384008,1.0904,-0.580493,-0.267592,-0.24712199999999998,0.025338999999999997
398,0.79702,-1.009558,0.0203,0.38069400000000003,0.8465969999999999,-0.37194699999999997,-3.429588,1.9663400000000002,-1.675793,-0.265307,-0.28875100000000004,0.016433
399,0.8730190000000001,-1.081372,0.05682,0.360237,0.882604,-0.302057,-2.867316,2.118986,-2.240355,-0.117454,-0.36041799999999996,0.007166
400,0.9180440000000001,-1.149208,0.076879,0.32508200000000004,0.9124399999999999,-0.248543,-2.1848509999999997,0.755586,-2.337459,0.46999300000000005,0.702779,0.166482
401,0.924941,-1.202159,0.092286,0.28776399999999996,0.9328190000000001,-0.21688400000000002,-1.702732,-0.9076930000000001,-1.5948870000000002,0.697236,0.53323,0.036647000000000006
402,0.970066,-1.2357850000000001,0.15187,0.271217,0.944406,-0.18584,-1.9915779999999998,-0.035138,-0.304406,0.565865,-0.554682,-0.10616700000000001
403,1.067865,-1.253379,0.25493699999999997,0.273463,0.950045,-0.150436,-1.451222,-0.235592,0.337354,-0.034663,-1.049639,0.331024
404,1.100076,-1.25329,0.327585,0.27824299999999996,0.950017,-0.14159000000000002,-1.0740100000000001,-2.98507,0.54327,-0.364913,-1.171239,0.09778200000000001
405,1.061182,-1.25496,0.367629,0.271142,0.9505370000000001,-0.151528,0.247982,-4.017451,-0.0369,-0.482583,-0.23290100000000002,-0.756522
406,0.953752,-1.245778,0.322309,0.260438,0.9476450000000001,-0.18477000000000002,0.175014,-2.3377060000000003,0.074738,-0.48468199999999995,1.980959,0.8950049999999999
407,0.9983790000000001,-1.255692,0.353013,0.26051199999999997,0.9507639999999999,-0.16787,-0.45802200000000004,2.193419,-0.30189099999999996,-0.344694,1.166957,-0.665977
408,1.041339,-1.2557,0.36151,0.267475,0.950766,-0.156523,-0.172246,1.372791,0.339954,-0.279331,-0.22664499999999999,0.049925
409,1.090347,-1.247198,0.380374,0.281979,0.948097,-0.146963,-0.013588,1.7336580000000001,0.533948,1.085407,0.5963970000000001,-0.045603
410,1.159491,-1.2356120000000002,0.42398800000000003,0.301508,0.94435,-0.13151300000000002,-0.689941,0.43072299999999997,0.8791329999999999,1.4797120000000001,0.771242,0.07713099999999999
411,1.1625370000000002,-1.222636,0.44320600000000004,0.313128,0.940002,-0.135448,0.5727220000000001,-0.9986290000000001,0.522316,-0.23675700000000002,-0.08833300000000001,-0.17899
412,1.109643,-1.217255,0.41980200000000006,0.310055,0.9381520000000001,-0.15406199999999998,0.23002899999999998,-1.8199150000000002,-0.25562199999999996,-0.42771499999999996,0.560642,0.241281
413,1.070167,-1.231477,0.400122,0.291997,0.942981,-0.15975699999999998,-0.093635,-0.24040100000000003,-0.9670700000000001,-0.605061,0.6973229999999999,0.043927999999999995
414,1.041647,-1.245079,0.356292,0.27622399999999997,0.947421,-0.161529,0.596949,0.744834,-0.996624,-0.283335,0.425046,-0.5206609999999999
415,0.999124,-1.246412,0.2839,0.268046,0.9478469999999999,-0.172442,1.082424,1.8368669999999998,-0.382544,0.048727,-0.015306,-0.361784
416,0.9781559999999999,-1.230049,0.212127,0.277199,0.9425049999999999,-0.186662,1.762,2.52307,0.317804,0.27350599999999997,-0.13151600000000002,-0.597807
417,0.933426,-1.191275,0.116529,0.297736,0.9288420000000001,-0.22046300000000002,2.8641419999999997,1.9319240000000002,0.6734319999999999,0.033822000000000005,0.027944999999999998,-0.43773999999999996
418,0.861417,-1.1389790000000002,0.011907,0.31755900000000004,0.908207,-0.272609,3.482094,1.021242,0.9043100000000001,-0.009179000000000001,-0.11432200000000001,-0.0033619999999999995
419,0.801354,-1.069101,-0.077963,0.345438,0.876768,-0.33458699999999997,3.962746,0.8983770000000001,1.3757059999999999,-0.192499,-0.127852,0.29537199999999997
420,0.761089,-0.995366,-0.140746,0.375336,0.838958,-0.394043,3.455939,0.584145,1.542416,-0.25299099999999997,-0.02713,0.3293
421,0.743528,-0.934018,-0.161496,0.402483,0.804016,-0.43768199999999996,2.253222,-0.252916,1.7241630000000001,-0.127184,-0.046768000000000004,0.6903520000000001
422,0.7291920000000001,-0.8841129999999999,-0.159865,0.422397,0.773353,-0.472763,1.5882610000000001,-0.974252,1.537777,0.191342,0.103432,0.6845399999999999
423,0.6988810000000001,-0.851949,-0.170042,0.42366499999999996,0.7525649999999999,-0.5041359999999999,1.297356,-1.0433860000000001,0.43236,0.071132,0.116453,0.620301
424,0.6854439999999999,-0.8390280000000001,-0.182549,0.42297299999999993,0.7439939999999999,-0.5172680000000001,0.459129,0.165433,-0.10488199999999999,-0.49159200000000003,0.119654,0.348292
425,0.690801,-0.83925,-0.18513,0.42563199999999995,0.744143,-0.514867,-0.230254,0.518756,0.046877999999999996,-0.533008,-0.017031,0.341115
426,0.7150850000000001,-0.851706,-0.16594,0.43189700000000003,0.752405,-0.49734300000000004,-1.332951,0.45308400000000004,0.10976300000000001,-0.189664,-0.03837,0.25305
427,0.7619100000000001,-0.8832,-0.119817,0.43812299999999993,0.772774,-0.459204,-2.676548,0.6736340000000001,-0.066548,-0.162961,-0.15828699999999998,0.153951
428,0.831686,-0.936644,-0.054232,0.43789399999999995,0.805574,-0.399123,-3.574071,1.0314020000000002,-0.8445309999999999,-0.115293,-0.24038800000000002,0.140593
429,0.905834,-1.007511,0.004914,0.420199,0.845505,-0.329473,-3.40675,1.4065530000000002,-2.096868,-0.08693200000000001,-0.16037,0.089086
430,0.9700190000000001,-1.081547,0.046192000000000004,0.38766999999999996,0.8826860000000001,-0.265662,-2.841805,1.2745879999999998,-2.35233,-0.158728,-0.112651,-0.054696
431,1.032132,-1.148464,0.102255,0.35184499999999996,0.9121360000000001,-0.21026799999999998,-2.9223209999999997,0.062349,-2.0276680000000002,0.085594,0.280674,0.068651
432,1.0986129999999998,-1.20412,0.19276400000000002,0.319284,0.933524,-0.163063,-2.70226,-1.271925,-1.283075,0.299109,0.48148500000000005,-0.00785
433,1.170784,-1.234042,0.289976,0.30433899999999997,0.943832,-0.12867699999999999,-1.720175,-0.595588,-0.24304299999999998,0.8287180000000001,-0.21859699999999999,-0.805756
434,1.188261,-1.231774,0.322139,0.308527,0.9430799999999999,-0.12413800000000001,0.35733000000000004,-0.953206,0.539978,0.245123,-0.880229,-0.032555
435,1.1388790000000002,-1.2224389999999998,0.32562800000000003,0.31000500000000003,0.9399350000000001,-0.142895,-0.296311,-3.3368900000000004,0.20731799999999997,-0.643654,-1.04934,-0.021641
436,1.091336,-1.225946,0.34046,0.299937,0.941126,-0.155945,-0.172292,-3.029616,-0.018672,-0.142955,-0.568613,-0.21290599999999998
437,1.0700319999999999,-1.223961,0.35694899999999996,0.298185,0.9404530000000001,-0.163195,-0.238229,-0.167702,0.424785,-0.283323,1.2177040000000001,0.796145
438,1.122242,-1.224876,0.391567,0.30551999999999996,0.9407639999999999,-0.147039,-0.6195649999999999,0.8999299999999999,0.166516,-0.38614699999999996,1.689455,-0.410472
439,1.158292,-1.218112,0.42295299999999997,0.316444,0.938449,-0.13848,-0.23900100000000002,-0.19279100000000002,0.572226,0.051263,-0.13312100000000002,0.034155
440,1.188685,-1.212689,0.44417700000000004,0.325223,0.9365620000000001,-0.130695,-0.11783800000000001,1.131867,0.337434,0.8900030000000001,0.912666,-0.339032
441,1.190205,-1.205928,0.445539,0.33129200000000003,0.9341709999999999,-0.132549,0.307967,-0.76465,0.316133,0.5914520000000001,0.188296,0.052197
442,1.137947,-1.197538,0.41365100000000005,0.33102,0.9311440000000001,-0.15295599999999998,0.726376,-1.287839,-0.011422,-0.232113,0.183129,-0.011824
443,1.085486,-1.200784,0.382685,0.319869,0.9323229999999999,-0.168692,0.257181,-0.8662770000000001,-0.597421,-0.355941,0.564747,-0.069604
444,1.0414430000000001,-1.208512,0.33617199999999997,0.305904,0.93509,-0.17896800000000002,0.959227,0.32110700000000003,-0.83973,-0.377406,0.34278800000000004,-0.40494
445,0.970432,-1.203096,0.251076,0.296609,0.933156,-0.20307999999999998,1.662064,0.767254,-0.333328,-0.00625,0.106303,-0.25347800000000004
446,0.925479,-1.17351,0.161413,0.309112,0.922114,-0.232712,2.5674200000000003,2.3230720000000002,0.616379,0.20919899999999997,-0.187419,-0.447006
447,0.889436,-1.115531,0.079064,0.341522,0.8981450000000001,-0.276945,3.4355089999999997,1.437746,1.481359,0.04335,-0.025356999999999998,-0.654528
448,0.8272709999999999,-1.042925,0.0017690000000000002,0.370763,0.8638809999999999,-0.340944,3.8417730000000003,-0.147178,1.610142,-0.334096,0.124675,0.11598399999999999
449,0.7788930000000001,-0.9699190000000001,-0.054765999999999995,0.397165,0.82484,-0.402366,3.3789580000000004,0.00093,1.4699870000000002,-0.454233,0.019322,0.711875
450,0.748513,-0.9133389999999999,-0.089007,0.41588800000000004,0.791549,-0.447758,2.383132,-0.184953,1.1331879999999999,-0.40165100000000004,-0.14341700000000002,0.8249549999999999
451,0.736312,-0.867447,-0.110306,0.43434799999999996,0.76268,-0.479228,1.996227,0.46148900000000004,0.981175,0.06989400000000001,-0.179489,0.308666
452,0.73152,-0.83685,-0.12173699999999998,0.447431,0.742537,-0.498442,0.986145,-0.165957,0.5252020000000001,-0.03671,0.219759,0.42735100000000004
453,0.714437,-0.8317379999999999,-0.133623,0.44133199999999995,0.739103,-0.5088729999999999,0.184756,-0.499978,-0.49584700000000004,-0.581942,0.290957,0.665612
454,0.7072149999999999,-0.841094,-0.14552400000000001,0.433133,0.745373,-0.506768,-0.258216,0.550157,-0.587881,-0.440458,-0.05572100000000001,0.470925
455,0.7267710000000001,-0.8603719999999999,-0.143752,0.433331,0.758085,-0.487371,-1.186358,1.012623,-0.616321,-0.329952,-0.066511,0.337652
456,0.769701,-0.900908,-0.11598499999999999,0.432095,0.783891,-0.445878,-2.643311,1.11768,-0.849891,-0.061489999999999996,-0.193422,0.08203200000000001
457,0.8361149999999999,-0.965809,-0.064814,0.42203900000000005,0.822509,-0.381263,-3.654727,1.310671,-1.614573,0.32645100000000005,-0.166656,-0.243173
458,0.902789,-1.047827,-0.014909,0.3921,0.86634,-0.309373,-3.512065,1.203371,-2.609021,0.587774,-0.028082999999999997,-0.134795
459,0.9544229999999999,-1.121807,0.026261000000000003,0.354179,0.9008860000000001,-0.250918,-2.6770150000000004,0.09113500000000001,-1.980058,0.423256,-0.133446,-0.084257
460,0.989716,-1.170243,0.097778,0.325927,0.9208459999999999,-0.21404099999999998,-2.594424,-2.227538,-0.82924,0.20929,-0.47614300000000004,0.19759200000000002
461,1.0277120000000002,-1.203467,0.190852,0.307452,0.93329,-0.185587,-2.069481,-2.3393490000000003,-0.23043000000000002,0.45406899999999994,-0.5672159999999999,0.391382
462,1.040809,-1.209425,0.25546199999999997,0.305053,0.9354129999999999,-0.17873,-0.7200479999999999,-2.548534,0.5612020000000001,0.24397399999999997,-0.706058,0.6073649999999999
463,1.0386469999999999,-1.211423,0.298238,0.303054,0.936117,-0.17844100000000002,-0.251967,-1.9939310000000001,-0.008806,-1.022277,-0.017081,-2.107738
464,0.974757,-1.218391,0.286419,0.285638,0.9385450000000001,-0.193759,-0.80704,-2.196085,-0.388438,-1.010888,0.8540120000000001,1.814914
465,1.0025469999999999,-1.242767,0.320085,0.271544,0.946679,-0.173381,-0.528977,1.013572,-0.8905360000000001,-0.8297559999999999,1.216086,0.975627
466,1.023751,-1.246049,0.314583,0.272503,0.947731,-0.165967,-0.313909,1.296051,0.20980100000000002,0.65749,0.501091,-0.15179700000000002
467,1.102733,-1.235388,0.369423,0.293749,0.944276,-0.1485,-0.36189099999999996,1.5734920000000001,1.198283,1.149976,0.49072200000000005,-0.059646000000000005
468,1.1693120000000001,-1.215761,0.41629799999999995,0.31997800000000004,0.937634,-0.135845,-0.29396500000000003,0.46462600000000004,1.117926,1.230803,0.528308,-0.175953
469,1.150552,-1.197094,0.40990600000000005,0.33329699999999995,0.930982,-0.14893900000000002,0.8369030000000001,-1.323394,0.5267069999999999,-0.375137,0.16469,-0.108599
470,1.07969,-1.19245,0.370185,0.32572399999999996,0.929277,-0.174201,0.6080899999999999,-1.501729,-0.49695100000000003,-0.450251,0.589965,0.094016
471,1.015837,-1.200099,0.313395,0.307895,0.932075,-0.190879,0.96552,-0.088443,-0.988716,-0.47652,0.572289,0.053535
472,0.937225,-1.197851,0.213585,0.293642,0.931258,-0.215709,1.74458,1.429991,-0.703209,-0.309923,0.169648,-0.351842
473,0.899697,-1.179394,0.12608,0.29875300000000005,0.924375,-0.237223,1.9850599999999998,2.207256,-0.016727000000000002,0.059753,-0.148176,-0.408086
474,0.869533,-1.1408610000000001,0.045452,0.318454,0.908993,-0.268918,2.7841099999999996,2.346938,0.8550030000000001,0.170667,-0.057277999999999996,-0.36636599999999997
475,0.844676,-1.0819379999999998,-0.026925,0.35115799999999997,0.88287,-0.311812,3.324119,1.6348799999999999,1.298727,0.079583,0.12009,-0.135652
476,0.8086760000000001,-1.013614,-0.0908,0.38251599999999997,0.848749,-0.36511,3.5322419999999997,0.651224,1.4862440000000001,-0.062325,-0.008539,0.367139
477,0.775515,-0.943673,-0.140799,0.410821,0.809719,-0.419022,3.307211,0.27776300000000004,1.5684719999999999,-0.13781,-0.084392,0.576676
478,0.754251,-0.879699,-0.168167,0.436443,0.770547,-0.46451400000000004,2.538956,-0.108825,1.674696,-0.22539800000000002,-0.10741500000000001,0.560232
479,0.7344109999999999,-0.830261,-0.170131,0.452138,0.738108,-0.5007659999999999,1.5860040000000002,-1.3158809999999999,1.460215,-0.056492999999999995,0.099401,0.491183
480,0.702086,-0.801137,-0.1801,0.44941400000000004,0.718148,-0.531309,1.1450360000000002,-0.933457,0.248486,-0.13680699999999998,0.349327,0.588728
481,0.682062,-0.7901239999999999,-0.19756500000000002,0.443644,0.71044,-0.546308,0.6280640000000001,-0.136036,-0.250734,-0.49250299999999997,0.24479,0.527418
482,0.680334,-0.786895,-0.206433,0.44414,0.708164,-0.548854,0.10702300000000001,0.47103199999999995,-0.030825,-0.39856199999999997,0.138286,0.428569
483,0.7028369999999999,-0.7942100000000001,-0.196548,0.453017,0.71331,-0.534754,-0.9284530000000001,0.9004040000000001,0.051123,-0.25443899999999997,0.077049,0.27913899999999997
484,0.747196,-0.8203799999999999,-0.164176,0.463437,0.731405,-0.500271,-2.204756,1.131401,-0.132208,-0.184385,-0.08026599999999999,0.11396400000000001
485,0.806084,-0.869909,-0.116416,0.465344,0.76427,-0.446479,-3.193146,1.158398,-0.963814,-0.107571,-0.284412,-0.048195
486,0.866732,-0.9401649999999999,-0.07095499999999999,0.44944300000000004,0.807655,-0.381694,-3.413564,1.3149680000000001,-2.096802,-0.022533,-0.416313,-0.129948
487,0.916782,-1.0222129999999998,-0.039080000000000004,0.413869,0.8532639999999999,-0.317254,-3.153159,1.052915,-2.855221,0.296336,-0.391029,-0.146003
488,0.9567950000000001,-1.100937,-0.007098,0.37006100000000003,0.891632,-0.260853,-2.884665,0.186425,-2.450584,0.668361,0.541825,0.023228
489,0.990066,-1.164495,0.051009,0.33042,0.918589,-0.21682600000000002,-2.606171,-1.6191389999999999,-1.6472950000000002,0.649927,0.6415609999999999,0.117674
490,1.0275290000000001,-1.203884,0.125124,0.307082,0.9334389999999999,-0.18544000000000002,-2.13353,-1.421929,-0.493771,0.286394,-0.265516,-0.36659200000000003
491,1.079552,-1.219682,0.21491100000000002,0.303268,0.93899,-0.162244,-1.2051020000000001,-1.6652470000000001,0.40712800000000005,0.28473000000000004,-0.63798,-0.06737
492,1.057038,-1.211459,0.238163,0.306252,0.9361299999999999,-0.172819,-0.06490599999999999,-2.842405,0.49137600000000003,-0.557427,-0.741138,-0.222887
493,1.0200280000000002,-1.216221,0.26597800000000005,0.295846,0.937794,-0.181697,-0.484857,-2.9182580000000002,-0.15453,-0.870049,-0.693653,-0.24789899999999998
494,0.979875,-1.2213459999999998,0.272239,0.284319,0.9395610000000001,-0.190747,-0.618173,-1.9314580000000001,-0.127883,-0.715593,-0.091462,0.896374
495,1.0089299999999999,-1.233358,0.298063,0.280169,0.943606,-0.17638099999999998,-0.566764,1.5077399999999999,-0.29430100000000003,-0.267351,1.736845,-0.077937
496,1.053016,-1.2408620000000001,0.32159699999999997,0.281508,0.9460639999999999,-0.160352,-0.585817,0.5727899999999999,0.163963,1.043061,0.270291,-0.061877
497,1.107393,-1.23184,0.365832,0.297431,0.943102,-0.148625,-0.265489,0.9243809999999999,0.938074,1.201959,0.47153999999999996,-0.10209299999999999
498,1.154588,-1.2181030000000002,0.40824099999999997,0.315933,0.9384459999999999,-0.139653,-0.389611,-0.483979,0.79587,0.629792,-0.09169,0.055958
499,1.128781,-1.210799,0.412174,0.318411,0.935898,-0.150687,0.305155,-1.789841,0.152918,-0.301871,0.007751000000000001,0.035910000000000004
500,1.08293,-1.216752,0.400846,0.306243,0.9379780000000001,-0.16250799999999999,-0.195365,-1.560665,-0.779157,-0.28839000000000004,0.3865,0.145723
501,1.052741,-1.2436180000000001,0.387065,0.2792,0.946953,-0.159139,-0.46705,-0.48853900000000006,-1.456477,-0.194819,0.521019,-0.145655
502,1.01336,-1.2677129999999999,0.344413,0.253277,0.954421,-0.157889,0.089101,0.224698,-1.2815219999999998,0.127735,0.20865,-0.30085100000000004
503,0.9755290000000001,-1.281334,0.29745,0.23633800000000002,0.958398,-0.160051,0.381347,0.5080680000000001,-0.738256,0.127539,-0.030511,-0.357116
504,0.9369559999999999,-1.280618,0.23869400000000002,0.230544,0.9581930000000001,-0.169453,0.9535110000000001,1.041105,-0.26919699999999996,0.162523,-0.17267000000000002,-0.298016
505,0.881229,-1.2596690000000001,0.15768800000000002,0.23618499999999998,0.951989,-0.19476,1.9826840000000001,1.021499,0.277469,0.42502399999999996,-0.223458,-0.583911
506,0.802937,-1.217374,0.06793300000000001,0.248989,0.9381940000000001,-0.240405,2.739786,-0.178587,0.8322930000000001,0.314365,-0.20830500000000002,-0.321683
507,0.729725,-1.157657,0.00161,0.26765500000000003,0.9158649999999999,-0.29925,3.1589400000000003,-0.631713,1.3635030000000001,0.113403,-0.129412,-0.16564
508,0.675028,-1.09087,-0.039587,0.288533,0.8870290000000001,-0.360454,2.992915,-1.0654549999999998,1.550906,-0.364689,-0.116033,0.48168500000000003
509,0.635897,-1.0303229999999999,-0.054077999999999994,0.305585,0.8574649999999999,-0.413968,2.329459,-1.260257,1.557204,-0.343381,-0.06887599999999999,0.863583
510,0.630466,-0.9828540000000001,-0.043531,0.326977,0.832084,-0.44801899999999995,1.494035,-0.43863199999999997,1.6742290000000002,-0.320919,-0.0034549999999999997,0.7876489999999999
511,0.6298699999999999,-0.9464809999999999,-0.030338,0.34431799999999996,0.8113630000000001,-0.47236999999999996,1.090543,-0.757949,1.159073,0.160443,0.456337,0.338138
512,0.623504,-0.918423,-0.017192,0.35446,0.7946449999999999,-0.492845,0.792912,-0.782351,1.126047,0.029116000000000003,0.51459,0.444139
513,0.628404,-0.899975,-0.001967,0.365427,0.783311,-0.502877,0.272498,-0.08582000000000001,0.818145,-0.127314,0.45936400000000005,0.415566
514,0.652188,-0.892201,0.020581,0.380967,0.778455,-0.49886800000000003,-0.38831,0.483425,0.761525,-0.359163,0.128726,0.14846600000000001
515,0.68926,-0.901294,0.053822,0.394677,0.784131,-0.47892299999999993,-1.376249,0.5789449999999999,0.375283,-0.281869,-0.094937,0.15884
516,0.738529,-0.928316,0.0987,0.40337,0.800612,-0.443071,-2.1954130000000003,0.7324189999999999,0.0018960000000000001,-0.293796,-0.123748,0.134126
517,0.790495,-0.967651,0.14765799999999998,0.403134,0.823556,-0.399045,-2.446955,0.46921,-0.557136,-0.220288,-0.202355,0.069898
518,0.826293,-1.013121,0.186823,0.389196,0.8484879999999999,-0.35859800000000003,-2.268602,-0.032046,-1.101105,-0.157156,-0.284599,0.018007
519,0.84141,-1.0636860000000001,0.21332600000000002,0.362094,0.874152,-0.323644,-2.188774,-0.596946,-1.626457,-0.042926,-0.297568,-0.13029000000000002
520,0.8347049999999999,-1.120507,0.228756,0.322544,0.9003209999999999,-0.29220799999999997,-2.060563,-1.355626,-1.952534,0.285855,-0.224433,-0.519239
521,0.774619,-1.16077,0.21739,0.27881999999999996,0.9171100000000001,-0.284896,-0.530035,-3.214893,-1.3252329999999999,0.7390329999999999,0.363529,-1.0098120000000002
522,0.692289,-1.164413,0.19508499999999998,0.252312,0.9185559999999999,-0.304287,0.223782,-2.345571,0.135973,0.859123,0.59182,-0.177311
523,0.697351,-1.149651,0.216806,0.262529,0.9126209999999999,-0.313366,0.427741,-0.201312,1.058662,0.058745000000000006,0.806525,-0.294102
524,0.716544,-1.122313,0.238037,0.28477800000000003,0.901106,-0.326966,0.8912450000000001,0.339566,1.259896,-0.22371300000000002,-0.582075,-0.6597430000000001
525,0.7476,-1.100436,0.25247800000000004,0.308125,0.8914049999999999,-0.332345,0.284875,0.82673,0.637604,-0.203709,-1.10074,0.10718599999999999
526,0.763256,-1.11537,0.272181,0.304054,0.898073,-0.317825,-1.5508469999999999,-0.5457390000000001,-0.600847,-0.15119100000000002,-1.3105950000000002,1.103226
527,0.775866,-1.152316,0.29888000000000003,0.284594,0.9137069999999999,-0.290073,-1.025575,-0.563263,-0.935782,-0.295123,-0.396785,-0.682431
528,0.682325,-1.14901,0.23445700000000003,0.25816,0.912359,-0.31773,0.556103,-3.143075,-0.780423,0.51807,2.1145419999999997,1.045605
529,0.664479,-1.16392,0.26016300000000003,0.244033,0.9183620000000001,-0.311541,-1.051874,-0.125379,0.137037,0.324006,0.964008,0.503421
530,0.669673,-1.170908,0.284224,0.24165799999999998,0.921104,-0.305231,-0.329079,-1.8581189999999999,0.193444,-0.27278600000000003,-0.12946300000000002,0.958917
531,0.6538149999999999,-1.183185,0.310573,0.229892,0.9258139999999999,-0.300026,-1.323539,-1.730852,-0.134132,-0.143405,0.960981,0.8200299999999999
532,0.6877,-1.2152450000000001,0.36001,0.22096300000000002,0.9374549999999999,-0.26898299999999997,-1.8171240000000002,0.077221,-0.314017,-0.18545599999999998,0.932953,-0.354308
533,0.6645770000000001,-1.231909,0.365519,0.205021,0.943125,-0.261685,-0.160001,-2.493793,-0.558725,-0.358906,0.46030200000000004,0.855298
534,0.602775,-1.247107,0.34328200000000003,0.180319,0.948069,-0.262009,-0.759872,-1.3902299999999999,-0.8217709999999999,-0.453772,0.386282,0.9645239999999999
535,0.603453,-1.278835,0.346341,0.163338,0.957681,-0.23699099999999998,-1.5431,0.389743,-0.916049,-0.507516,0.278937,0.352134
536,0.605704,-1.314908,0.344431,0.1441,0.9674389999999999,-0.208073,-1.35368,-0.092935,-1.052976,0.136738,0.118163,0.176075
537,0.596905,-1.348376,0.348219,0.12398699999999999,0.975366,-0.18244100000000002,-1.478276,-0.7900020000000001,-0.851059,0.238729,0.019644,0.296363
538,0.595961,-1.3818,0.360563,0.105449,0.982193,-0.155479,-1.3555469999999998,-0.537985,-0.844115,0.16086199999999998,-0.125458,0.27909
539,0.581438,-1.412382,0.356588,0.086636,0.9874790000000001,-0.13182,-1.268915,-0.5476449999999999,-0.9011819999999999,-0.062679,-0.268423,0.200439
540,0.548927,-1.443508,0.33400100000000005,0.066229,0.9919100000000001,-0.10828299999999999,-1.15852,-0.531662,-0.9976389999999999,-0.029851999999999997,-0.30544699999999997,0.093192
541,0.48168,-1.471488,0.28039200000000003,0.045922000000000004,0.995073,-0.08784700000000001,-1.032843,-0.7252850000000001,-0.904646,0.051154000000000005,-0.335436,0.03052
542,0.379355,-1.495773,0.18796,0.027745999999999996,0.997187,-0.06959800000000001,-0.859535,-0.343613,-0.864401,0.063654,-0.2904,-0.05259400000000001
543,0.201509,-1.515076,0.014419,0.011139,0.998448,-0.054526,-0.718546,-0.22831100000000001,-0.783447,0.10173099999999999,-0.11595599999999999,-0.13028900000000002
544,-0.07156,-1.529799,-0.25493499999999997,-0.002927,0.99916,-0.040827999999999996,-0.6740970000000001,-0.15451700000000002,-0.628339,0.066571,0.004075,-0.19376
545,-0.455816,-1.5388,-0.640004,-0.014052,0.9994879999999999,-0.028662,-0.521572,0.170537,-0.530482,0.069624,0.0561,-0.303354
546,-0.7814939999999999,-1.534011,-0.975676,-0.025861000000000002,0.999323,-0.026064,0.126631,0.632264,-0.675029,0.40020500000000003,0.12843800000000002,-0.383116
547,-0.8542780000000001,-1.516497,-1.055104,-0.040898000000000004,0.998526,-0.03562,0.6190760000000001,-0.034886,-0.7636689999999999,0.7326560000000001,-0.081976,-0.317362
548,-0.817662,-1.4976559999999999,-1.001167,-0.05329299999999999,0.997326,-0.049960000000000004,0.8544229999999999,-1.219518,-0.42401700000000003,0.8623290000000001,-0.171048,-0.264523
549,-0.614189,-1.477438,-0.779443,-0.053713,0.9956450000000001,-0.07617,1.792573,-0.39063200000000003,0.33457,0.910967,0.080725,-0.353091
550,-0.31324,-1.440749,-0.470933,-0.039956,0.991556,-0.123359,2.63355,-0.644335,0.978498,0.8446440000000001,0.577414,-0.426079
551,-0.097219,-1.385486,-0.21839499999999998,-0.017884,0.9828790000000001,-0.183373,3.417497,-2.163505,1.6514229999999999,0.68512,0.545762,-0.057197000000000005
552,0.056704,-1.309591,-0.016392,0.014634999999999999,0.9660799999999999,-0.257824,3.901364,-1.9935310000000002,2.4140900000000003,0.387098,0.772217,0.30648400000000003
553,0.174179,-1.2356,0.14083800000000002,0.057007,0.9443459999999999,-0.323973,2.951269,-1.462464,2.830858,-0.026444,0.632055,0.947966
554,0.265791,-1.180503,0.260772,0.099936,0.924797,-0.367097,1.8538400000000002,-0.675712,2.57222,-0.062613,0.6117319999999999,0.978456
555,0.351948,-1.142955,0.360273,0.143029,0.9098639999999999,-0.389472,0.731292,-0.155594,2.414161,0.11780499999999999,0.541583,0.813178
556,0.44556,-1.1232229999999999,0.46587399999999995,0.18651099999999998,0.9015,-0.390524,-0.29654,0.022559,2.443073,0.48389899999999997,0.350224,0.336905
557,0.54447,-1.107176,0.575751,0.231627,0.894439,-0.382524,-0.445241,-0.349479,2.635859,0.6119859999999999,0.29533400000000004,-0.0076430000000000005
558,0.6127819999999999,-1.082128,0.692507,0.27000100000000005,0.882959,-0.384033,-0.41888500000000006,-2.675435,2.993674,0.5887479999999999,0.330786,0.112106
559,0.640363,-1.057809,0.803506,0.293234,0.871282,-0.393546,-0.7181350000000001,-3.6846089999999996,2.8102099999999997,0.377267,0.281641,0.919959
560,0.6614869999999999,-1.037588,0.9104959999999999,0.312243,0.86118,-0.40108699999999997,-0.7968529999999999,-3.701105,2.741316,0.22050300000000003,0.246104,0.799769
561,0.669554,-1.016673,1.010733,0.32657600000000003,0.8503620000000001,-0.41258900000000004,-0.8698309999999999,-3.960119,2.576632,-0.34304,0.132441,0.764396
562,0.667901,-1.008058,1.105323,0.330419,0.8457969999999999,-0.418865,-1.362235,-4.1490540000000005,2.033982,-0.41396099999999997,-0.033496,0.7724880000000001
563,0.658999,-1.008094,1.191908,0.32665900000000003,0.845817,-0.421766,-1.480624,-3.968458,1.7295490000000002,-0.514799,-0.25414200000000003,0.660932
564,0.6565489999999999,-1.015619,1.275627,0.32173,0.849807,-0.41751099999999997,-1.737641,-3.561436,1.39822,-0.46232399999999996,-0.286041,0.614456
565,0.648682,-1.030333,1.352079,0.310847,0.8574709999999999,-0.41002,-1.8240450000000001,-3.743725,0.9726969999999999,-0.38743099999999997,-0.287204,0.6297010000000001
566,0.628328,-1.051016,1.416754,0.29194899999999996,0.867928,-0.401825,-1.802029,-3.804844,0.521071,-0.5303220000000001,-0.179849,0.637742
567,0.597938,-1.076471,1.466352,0.26707800000000004,0.880289,-0.39211999999999997,-1.673259,-3.5788510000000002,0.105075,-0.6197090000000001,-0.007562999999999999,0.537612
568,0.563099,-1.104239,1.500078,0.24011300000000002,0.893122,-0.380363,-1.557967,-2.938776,-0.22075,-0.669511,-0.074976,0.42317899999999997
569,0.539031,-1.1344239999999999,1.521931,0.21694899999999998,0.906291,-0.362722,-1.5395590000000001,-1.711671,-0.47963500000000003,-0.63417,-0.103251,0.268407
570,0.526849,-1.1667450000000001,1.534504,0.197677,0.9194760000000001,-0.33983,-1.4663629999999999,-1.028389,-0.6530520000000001,-0.185134,0.12091400000000001,-0.13864
571,0.488938,-1.188253,1.5248680000000001,0.175324,0.927718,-0.329541,-0.230221,-1.8284479999999999,-0.6498010000000001,0.567779,0.5350199999999999,-0.844943
572,0.442592,-1.177718,1.506641,0.164045,0.923734,-0.346123,0.817857,-1.028448,0.310417,1.1577629999999999,0.493472,-0.466865
573,0.44397200000000003,-1.165967,1.521684,0.169174,0.91917,-0.355674,0.034527999999999996,-0.532678,0.618367,0.566346,-0.005031,0.182853
574,0.48549799999999993,-1.1674200000000001,1.567878,0.18317,0.919741,-0.347163,-0.664763,0.305066,0.8484860000000001,0.246457,-0.295916,0.520487
575,0.542266,-1.171615,1.619467,0.200579,0.92138,-0.332903,-0.651767,0.40588,0.667918,0.16175599999999998,-0.582909,0.42685200000000006
576,0.595438,-1.185944,1.672423,0.21056100000000003,0.9268540000000001,-0.310809,-1.6707169999999998,0.091055,0.362102,0.255488,-0.6522720000000001,1.046786
577,0.667652,-1.223274,1.7555009999999998,0.210858,0.9402200000000001,-0.267437,-2.503258,-0.461287,-0.11515999999999998,0.314823,0.303173,0.618526
578,0.681984,-1.241958,1.7860189999999998,0.203559,0.946418,-0.250704,0.310244,-1.494277,0.027594,0.229944,1.555077,-1.190656
579,0.605655,-1.235675,1.780725,0.18723,0.944371,-0.27038,0.24295300000000003,-3.8028269999999997,0.110198,-0.108694,1.085888,-0.041569999999999996
580,0.518386,-1.233595,1.759797,0.163925,0.943684,-0.287376,0.135537,-3.126837,-0.480008,-0.689209,-0.5038189999999999,0.818321
581,0.45776400000000006,-1.24615,1.730193,0.140965,0.9477639999999999,-0.286127,-0.680046,-0.49349899999999997,-0.8319790000000001,-0.7595569999999999,-0.505091,0.7969609999999999
582,0.43844799999999995,-1.269521,1.694015,0.125972,0.954959,-0.268663,-0.62651,0.9656629999999999,-1.078098,-0.621074,-0.488879,0.7325
583,0.343779,-1.281651,1.613035,0.096101,0.9584879999999999,-0.268442,0.052132000000000005,-2.320162,-1.537028,0.849685,1.031701,0.350519
584,0.184607,-1.3012059999999999,1.5092889999999999,0.048887,0.96388,-0.261803,-1.0737450000000002,-2.503156,-1.418607,0.896898,1.026309,0.34388
585,0.12067,-1.327469,1.471398,0.029001999999999997,0.970542,-0.23917199999999997,-1.157071,-1.0411190000000001,-0.401979,0.798162,0.063455,0.559942
586,0.10438299999999999,-1.354195,1.483475,0.022391,0.976634,-0.21373000000000003,-1.512848,-1.535385,0.166599,-0.110373,0.023824,0.392945
587,0.106957,-1.384254,1.511506,0.019797,0.982651,-0.18439,-1.457065,-1.103697,0.055340999999999994,-0.259788,0.0044859999999999995,0.150347
588,0.086523,-1.411348,1.515263,0.013719,0.9873149999999999,-0.158163,-1.3470870000000001,-1.328933,-0.19036199999999998,-0.033479,-0.055125,0.146765
589,0.027051,-1.438723,1.483257,0.003561,0.991291,-0.13162100000000002,-1.308668,-1.2644440000000001,-0.36643200000000004,-0.033713,-0.10411400000000001,0.148055
590,-0.069262,-1.462767,1.405037,-0.00746,0.9941700000000001,-0.10753299999999999,-1.1546049999999999,-0.825556,-0.498378,-0.056749,-0.072524,0.072514
591,-0.242277,-1.480472,1.24789,-0.021633000000000003,0.995924,-0.087535,-0.907119,-0.7862359999999999,-0.68898,-0.038060000000000004,-0.13639600000000002,-0.032415
592,-0.487883,-1.490473,1.014979,-0.037594999999999996,0.996776,-0.070844,-0.770554,-0.630848,-0.771546,0.13134500000000002,-0.095332,0.024746999999999998
593,-0.759332,-1.492553,0.754023,-0.053785,0.996941,-0.056665,-0.634463,-0.501347,-0.7739659999999999,0.201444,-0.07828500000000001,0.069375
594,-0.997884,-1.4879280000000001,0.522616,-0.06952799999999999,0.996568,-0.044851,-0.548496,-0.35786,-0.767141,0.266,-0.053026,0.043982
595,-1.202178,-1.4798149999999999,0.325389,-0.084723,0.995864,-0.032726,-0.5946779999999999,-0.38768,-0.728969,0.361396,0.007859,0.070355
596,-1.369111,-1.469891,0.16314,-0.098665,0.9949129999999999,-0.020174,-0.622888,-0.19501,-0.668524,0.401491,0.060659000000000005,0.041505
597,-1.5120559999999998,-1.4595719999999999,0.020256,-0.110776,0.993821,-0.006515000000000001,-0.7292770000000001,-0.019306999999999998,-0.559466,0.40939000000000003,0.14573599999999998,-0.018449
598,-1.665561,-1.448965,-0.126403,-0.120959,0.9925879999999999,0.011497,-0.9297200000000001,-0.6600729999999999,-0.5183840000000001,0.43468,0.06509,0.01371
599,-1.80047,-1.43605,-0.249365,-0.13078800000000002,0.990935,0.030577999999999998,-0.799944,-0.5028859999999999,-0.512338,0.405904,-0.011947,-0.038939999999999995
600,-1.882838,-1.422542,-0.319191,-0.140558,0.98903,0.045341,-0.593847,-0.944594,-0.519946,0.485666,-0.051561,0.006798
601,-1.9442279999999998,-1.4094280000000001,-0.35338200000000003,-0.149576,0.987008,0.058607000000000006,-0.40216599999999997,-1.497084,-0.516831,0.51272,0.151053,0.037005
602,-1.986173,-1.3997469999999999,-0.370213,-0.155723,0.9854069999999999,0.06867999999999999,-0.211407,-1.117146,-0.32477399999999995,0.36338000000000004,0.237906,-0.095077
603,-1.987296,-1.396317,-0.350919,-0.158736,0.984817,0.070222,0.264448,-0.957506,-0.166762,0.34162800000000004,0.33224499999999996,-0.11926400000000001
604,-1.9438229999999999,-1.400882,-0.28765100000000005,-0.15745,0.985599,0.06161799999999999,0.805067,-0.954232,0.14358900000000002,0.6183109999999999,0.24732600000000002,-0.16684300000000002
605,-1.842961,-1.418593,-0.163848,-0.146015,0.988439,0.040751,1.462811,-1.144456,0.789361,0.606876,0.244486,-0.145976
606,-1.636197,-1.44897,0.068502,-0.12124000000000001,0.9925879999999999,0.007941,2.0123580000000003,-1.178839,1.451268,0.578256,0.353038,-0.383932
607,-1.154089,-1.475198,0.580014,-0.087255,0.995434,-0.038622000000000004,2.825359,-1.459291,1.882459,0.124502,0.15131,-0.272719
608,-0.450788,-1.4578950000000002,1.319867,-0.049072000000000005,0.993633,-0.101383,3.426969,-1.7286380000000001,2.117742,-0.10356099999999999,0.199772,0.026356
609,-0.047637,-1.40431,1.757555,-0.007890000000000001,0.986173,-0.16551300000000002,3.099324,-1.2693530000000002,2.3637610000000002,-0.18968,0.32698299999999997,0.154725
610,0.158655,-1.346849,1.983644,0.035085000000000005,0.975029,-0.219279,2.539866,-0.5276310000000001,2.243534,-0.093404,0.581505,0.330836
611,0.271519,-1.29593,2.104071,0.072791,0.962462,-0.261466,1.9124729999999999,0.044876,1.8752229999999999,0.05765700000000001,0.330431,0.43446999999999997
612,0.365144,-1.253172,2.189912,0.111518,0.9499799999999999,-0.291714,1.561172,0.9621049999999999,1.9068450000000001,0.11382300000000001,0.157091,0.35146700000000003
613,0.452596,-1.2131370000000001,2.271576,0.153089,0.9367190000000001,-0.314828,1.1046790000000002,-0.008584999999999999,2.091839,0.220248,0.24801900000000002,0.028268
614,0.513076,-1.1762290000000002,2.3513029999999997,0.18868800000000002,0.923163,-0.334907,0.918509,-1.0329059999999999,2.13458,0.093783,0.06968099999999999,0.138801
615,0.5448609999999999,-1.139475,2.4179310000000003,0.216683,0.9084139999999999,-0.35753,0.88536,-1.586484,2.0720330000000002,0.049461,0.008975,0.29225300000000004
616,0.5719310000000001,-1.104172,2.482618,0.243495,0.893092,-0.378276,0.6601319999999999,-1.573072,2.1099669999999997,0.001439,0.038915,0.343684
617,0.589105,-1.073798,2.541451,0.26491,0.8790180000000001,-0.396418,0.441147,-1.870697,1.8706049999999999,-0.161624,-0.051303999999999995,0.367639
618,0.592579,-1.0495290000000002,2.592359,0.27812,0.867189,-0.41307200000000005,0.23077399999999998,-2.159795,1.622747,-0.237898,-0.15646500000000002,0.372728
619,0.588226,-1.032023,2.638999,0.28470100000000004,0.858339,-0.426845,-0.035107,-2.223904,1.368871,-0.37214899999999995,-0.278184,0.423778
620,0.5836979999999999,-1.023303,2.682225,0.286879,0.8538319999999999,-0.43435799999999997,-0.401591,-1.9475799999999999,1.049764,-0.403395,-0.36480300000000004,0.44123999999999997
621,0.5852689999999999,-1.0253079999999999,2.723176,0.286615,0.854874,-0.432479,-0.831199,-1.493056,0.710759,-0.42463100000000004,-0.489075,0.439834
622,0.595859,-1.037304,2.763462,0.285403,0.861036,-0.420901,-1.2267540000000001,-1.032362,0.397621,-0.344195,-0.620512,0.401309
623,0.614255,-1.060339,2.802517,0.281588,0.8725209999999999,-0.399262,-1.6582569999999999,-0.591411,-0.008678,-0.33098099999999997,-0.713967,0.339631
624,0.641154,-1.094912,2.838619,0.274011,0.8888879999999999,-0.36714,-2.050336,-0.042529000000000004,-0.533412,-0.38758200000000004,-0.721774,0.270476
625,0.6716880000000001,-1.1419030000000001,2.867668,0.258792,0.9094270000000001,-0.325522,-2.329682,0.327394,-1.157543,-0.341754,-0.6223479999999999,0.147056
626,0.692045,-1.1954129999999998,2.882693,0.23394600000000002,0.930367,-0.282277,-2.1571,0.28497100000000003,-1.619891,-0.12629500000000002,-0.346428,0.021230000000000002
627,0.669411,-1.2479200000000001,2.862331,0.196883,0.948327,-0.248811,-1.582759,-0.529217,-2.037852,0.379792,0.467841,-0.176039
628,0.61595,-1.2872270000000001,2.825472,0.161633,0.9600629999999999,-0.228356,-1.1287559999999999,-1.033603,-1.239277,0.713229,0.459554,-0.055639999999999995
629,0.6127819999999999,-1.313719,2.838473,0.146225,0.9671370000000001,-0.20798200000000003,-1.255415,-0.563714,-0.357344,0.494964,-0.17657899999999999,-0.170207
630,0.662945,-1.338111,2.8977150000000003,0.141905,0.973051,-0.18173499999999998,-1.463889,-0.33207600000000004,-0.029017,0.137498,-0.290601,-0.179883
631,0.7396590000000001,-1.357721,2.984326,0.142524,0.9773850000000001,-0.156197,-1.247496,-0.43049499999999996,0.15315,-0.30145900000000003,-0.369246,0.079201
632,0.796335,-1.368574,3.055386,0.143551,0.9796229999999999,-0.14044500000000001,-0.725301,-0.8486309999999999,0.103923,-0.30242600000000003,-0.521157,0.193927
633,0.8330069999999999,-1.3804239999999999,3.123561,0.140002,0.981934,-0.12726800000000002,-1.07326,-1.969666,-0.03594,-0.166247,-0.835282,0.077341
634,0.8436620000000001,-1.393952,-3.099135,0.131411,0.9844040000000001,-0.116925,-0.530852,-2.453706,-0.138354,0.027067,0.6176159999999999,0.012662
635,0.802141,-1.391852,-3.104567,0.12793,0.984032,-0.12371700000000001,0.19150799999999998,-1.192926,0.160974,0.030547,0.617988,0.019454
636,0.8601700000000001,-1.397934,-3.04564,0.13035,0.9850959999999999,-0.11218199999999999,-0.872927,0.572619,0.188664,0.363714,1.729854,0.14541500000000002
637,0.9389559999999999,-1.3984459999999999,-2.9620290000000002,0.13836800000000002,0.9851840000000001,-0.10127699999999999,-0.599075,-0.782772,0.573669,0.097152,-0.234406,0.361302
638,1.064833,-1.398059,-2.830594,0.150321,0.985118,-0.083288,-0.994549,0.5732619999999999,0.665309,0.524179,0.419454,-0.34160799999999997
639,1.1652069999999999,-1.390919,-2.72934,0.16437000000000002,0.983866,-0.07057999999999999,-0.4698,-0.8572209999999999,0.697513,0.709852,0.560843,0.10714000000000001
640,1.17608,-1.3796549999999999,-2.692625,0.175349,0.9817879999999999,-0.073047,0.11446700000000001,-1.098322,0.544875,0.107045,0.210427,-0.16354100000000002
641,1.147242,-1.374947,-2.695418,0.17738099999999998,0.980883,-0.079971,0.070613,-1.4824620000000002,-0.055279999999999996,-0.168378,0.480757,-0.027268
642,1.088533,-1.3822020000000002,-2.738786,0.166074,0.9822690000000001,-0.086938,0.41953199999999996,-0.24525100000000002,-0.729545,-0.27134400000000003,0.493516,-0.48107
643,0.9530799999999999,-1.381813,-2.8798619999999997,0.153124,0.982196,-0.10878900000000001,1.5882040000000002,0.364224,-0.44549300000000003,-0.108171,0.267347,-0.662909
644,0.828139,-1.352024,-3.030821,0.159866,0.976165,-0.146753,2.4148330000000002,1.599248,0.608761,-0.061935000000000004,-0.090087,-0.540075
645,0.751067,-1.29435,3.137706,0.186248,0.962031,-0.199496,3.419745,1.732759,1.246928,-0.27243,-0.20685900000000002,-0.297666
646,0.695451,-1.221673,3.044327,0.21916999999999998,0.939673,-0.26262399999999997,3.6716620000000004,1.559167,1.283093,-0.383569,-0.264304,0.144429
647,0.6623140000000001,-1.1524590000000001,2.975639,0.24981,0.913766,-0.320344,3.3668989999999996,1.449147,1.088825,-0.27008899999999997,-0.41931999999999997,0.560212
648,0.644407,-1.0905280000000002,2.929554,0.277541,0.886871,-0.369357,2.883275,0.951024,1.135224,-0.111876,-0.632904,0.7018300000000001
649,0.63912,-1.04245,2.9180099999999998,0.30069,0.863642,-0.40460100000000004,1.509807,0.049791,1.262449,0.040817,-0.6623180000000001,0.6537310000000001
650,0.663802,-1.012737,2.934523,0.326255,0.848284,-0.417091,0.710422,0.638721,1.1984270000000001,0.34720700000000004,0.10653399999999999,0.5445180000000001
651,0.683008,-0.9984219999999999,2.94855,0.341834,0.8406170000000001,-0.420126,0.130048,0.247959,0.32213600000000003,0.202767,0.67365,0.835714
652,0.673894,-0.999978,2.93968,0.337174,0.8414590000000001,-0.42220100000000005,0.033741,-0.318648,-0.422361,-0.11299200000000001,-0.0809,0.644262
653,0.662423,-1.013274,2.930356,0.325399,0.848569,-0.417181,-0.689204,0.021406,-0.652173,-0.540029,-0.23221999999999998,0.5173399999999999
654,0.679912,-1.044459,2.942386,0.315848,0.8646530000000001,-0.390652,-1.8903860000000001,0.393648,-0.7913640000000001,-0.294867,-0.20645,0.18931199999999998
655,0.724635,-1.099186,2.987253,0.301147,0.8908379999999999,-0.340163,-3.314144,0.252654,-1.060706,0.004502,-0.235641,-0.157563
656,0.80567,-1.176827,3.070646,0.27686700000000003,0.923393,-0.265863,-4.272698,0.193682,-1.7317599999999997,0.546452,0.546471,-0.546499
657,0.894418,-1.259209,-3.121363,0.23906599999999997,0.9518479999999999,-0.191896,-3.52331,0.068389,-1.950691,0.7661979999999999,0.6509659999999999,-0.421126
658,1.004544,-1.315978,-3.000338,0.21270999999999998,0.967709,-0.135218,-2.724957,-0.581608,-1.001042,0.542875,-0.20596,-0.203603
659,1.119723,-1.346277,-2.8673990000000003,0.20035,0.974901,-0.097045,-1.7544689999999998,-0.655017,-0.26884600000000003,0.750013,-0.55797,-0.17111300000000002
660,1.167886,-1.344419,-2.806389,0.206456,0.9744860000000001,-0.087997,0.282767,-0.563557,0.6660739999999999,0.436946,-0.720122,0.088486
661,1.119157,-1.334227,-2.81102,0.21085,0.9721479999999999,-0.102279,-0.29276599999999997,-3.3588720000000003,0.108024,-0.278828,-0.6817880000000001,-0.025269999999999997
662,1.063898,-1.346368,-2.78212,0.194545,0.974922,-0.10803,0.06295,-3.920984,-0.5542729999999999,-0.9401200000000001,-0.315605,-0.990237
663,0.9909549999999999,-1.345553,-2.8336360000000003,0.18682,0.9747399999999999,-0.12235599999999999,-0.014408,0.5236149999999999,-0.022125,-0.5658489999999999,1.4374770000000001,1.224346
664,1.070015,-1.3485610000000001,-2.790073,0.193326,0.975407,-0.10581099999999999,-0.280549,2.065198,0.44192200000000004,0.7334470000000001,1.886257,-1.213601
665,1.100039,-1.330805,-2.7735950000000003,0.21181999999999998,0.97134,-0.107799,0.345122,0.247148,1.136557,0.6996479999999999,0.063618,0.45628
666,1.1283299999999998,-1.308976,-2.7498139999999998,0.233895,0.9659209999999999,-0.110819,0.066884,0.43706000000000006,1.03823,0.844016,0.258872,-0.035666
667,1.149071,-1.2960459999999998,-2.726892,0.24751900000000002,0.962493,-0.11104800000000001,0.147124,-0.560144,0.463228,0.21967399999999998,0.039155,-0.029332999999999998
668,1.0964129999999999,-1.292701,-2.756491,0.244195,0.9615799999999999,-0.125392,0.492907,-1.332595,-0.33666999999999997,-0.106897,0.149077,0.11605399999999999
669,1.039851,-1.3034780000000001,-2.806319,0.227766,0.964483,-0.133741,0.17391099999999998,0.186892,-0.9593450000000001,-0.049055,0.616053,-0.154146
670,0.997891,-1.315234,-2.860144,0.21241100000000002,0.967521,-0.137021,0.47670500000000005,0.62375,-0.712101,0.103217,0.324654,-0.338535
671,0.9605819999999999,-1.312223,-2.9205810000000003,0.20953899999999998,0.966756,-0.146518,0.886883,1.3782,-0.06179199999999999,0.039347,0.084102,-0.509595
672,0.9092809999999999,-1.290052,-3.001872,0.218613,0.960849,-0.170198,1.942565,1.26711,0.42962799999999995,-0.15657100000000002,-0.087635,-0.6372359999999999
673,0.8451209999999999,-1.2459870000000002,-3.104901,0.23871399999999998,0.9477120000000001,-0.211777,3.0209799999999998,2.095848,0.837751,-0.093435,0.046626999999999995,-0.479934
674,0.7902939999999999,-1.182809,3.067448,0.268816,0.9256719999999999,-0.26619699999999996,3.771447,2.26563,1.151491,-0.21246500000000001,-0.086897,-0.222298
675,0.747387,-1.110737,2.9863180000000003,0.301793,0.896026,-0.325654,3.6908220000000003,1.158224,1.36706,-0.06789099999999999,-0.101226,0.348619
676,0.718183,-1.044607,2.943588,0.330479,0.864727,-0.378184,2.679862,0.162156,1.453142,0.00085,-0.391964,0.725825
677,0.710747,-0.9951399999999999,2.9418450000000003,0.355153,0.838835,-0.412571,1.4934459999999998,-0.568596,1.675459,0.032481,-0.39729200000000003,0.6764720000000001
678,0.7017720000000001,-0.958866,2.954288,0.370844,0.818541,-0.43870200000000004,0.976017,-1.143974,1.091469,0.224752,0.039324,0.578488
679,0.680986,-0.944577,2.951254,0.36897199999999997,0.810249,-0.45535600000000004,0.39234600000000003,-0.76708,0.053938,-0.200882,0.097634,0.6366
680,0.65996,-0.945765,2.941163,0.358727,0.810945,-0.46225200000000005,-0.006855,-0.547619,-0.402057,-0.37593899999999997,-0.150041,0.58063
681,0.6577390000000001,-0.955306,2.939457,0.352953,0.8164899999999999,-0.456904,-0.627509,0.330845,-0.299628,-0.466417,-0.147911,0.488063
682,0.691839,-0.980499,2.9611110000000003,0.355087,0.830775,-0.428625,-1.871219,1.072486,-0.33917600000000003,-0.203354,-0.128108,0.21700100000000003
683,0.7666310000000001,-1.0298120000000002,3.0188900000000003,0.357243,0.857202,-0.370911,-3.4626910000000004,1.355008,-0.613437,-0.060902,-0.149866,0.021591
684,0.8724,-1.101698,3.1082560000000004,0.346231,0.891976,-0.290679,-4.183757,1.3847969999999998,-1.575639,0.29480500000000004,-0.10106799999999999,-0.275239
685,0.973008,-1.184305,-3.090145,0.311564,0.9262370000000001,-0.212142,-3.575852,0.900574,-2.4873060000000002,0.430258,-0.05583,-0.431626
686,1.045847,-1.256159,-3.009202,0.267789,0.950909,-0.155091,-2.9035509999999998,-0.810974,-2.092653,0.389133,-0.059536,-0.396316
687,1.126507,-1.313093,-2.892626,0.230102,0.9669780000000001,-0.109535,-2.63797,-1.912521,-1.511478,0.34281999999999996,-0.079832,-0.120262
688,1.204843,-1.340226,-2.774057,0.213381,0.9735360000000001,-0.08177100000000001,-1.1467969999999998,-1.5292379999999999,-0.088295,0.8154279999999999,-0.016687999999999998,-0.658891
689,1.191031,-1.328762,-2.7817369999999997,0.222584,0.970852,-0.08884199999999999,1.14189,0.201551,0.661478,-0.029072000000000004,-0.49631899999999995,0.112036
690,1.132498,-1.315798,-2.820532,0.228384,0.967664,-0.107044,-0.374175,-2.019482,0.095054,-0.753653,-0.9642459999999999,-0.039715
691,1.136324,-1.329359,-2.760698,0.21686599999999998,0.970995,-0.100636,-0.560048,-2.984341,-0.346183,-0.865167,-0.667361,-0.11252899999999999
692,1.070318,-1.328332,-2.78935,0.210632,0.970749,-0.1152,0.16029300000000002,-0.621506,0.080973,-0.111023,1.073776,0.8830370000000001
693,1.158198,-1.328975,-2.733845,0.219358,0.9709040000000001,-0.09601799999999999,-0.791623,2.757334,0.42678,0.75957,2.355864,-0.495199
694,1.210756,-1.321305,-2.6882200000000003,0.23106300000000002,0.969038,-0.086984,-0.45607200000000003,-1.174521,0.648875,-0.043334,-0.456892,0.453103
695,1.242864,-1.315339,-2.6435779999999998,0.23920500000000003,0.967548,-0.081381,-0.16514500000000001,0.5420159999999999,0.302604,0.5715399999999999,0.510876,-0.383554
696,1.257185,-1.310664,-2.635369,0.24464699999999998,0.966356,-0.079342,-0.007644,-0.33919299999999997,0.22258000000000003,0.58537,0.790984,-0.096836
697,1.228163,-1.304445,-2.649213,0.24789699999999998,0.9647379999999999,-0.088426,0.441146,-0.950941,0.169883,0.14690899999999998,0.135406,-0.117629
698,1.177144,-1.30382,-2.6765369999999997,0.24362199999999998,0.9645729999999999,-0.10118400000000001,0.176643,-1.170743,-0.310246,-0.010223000000000001,0.402843,-0.08051799999999999
699,1.153659,-1.316805,-2.694605,0.22970700000000002,0.967917,-0.101793,-0.069238,0.293932,-0.875726,-0.134233,0.368295,-0.364836
700,1.120749,-1.3305790000000002,-2.748208,0.214207,0.9712860000000001,-0.103486,0.609863,1.222246,-0.780304,-0.032612,0.273175,-0.57936
701,1.0506520000000001,-1.32364,-2.850818,0.212277,0.969612,-0.121583,1.6621299999999999,1.60954,0.021306,0.133746,-0.02108,-0.6952510000000001
702,0.9572129999999999,-1.290997,-2.978152,0.225775,0.961111,-0.15900599999999998,2.662814,1.3560530000000002,0.738989,0.12336099999999998,-0.130422,-0.625113
703,0.8552139999999999,-1.236449,-3.1103389999999997,0.247652,0.944625,-0.215279,3.4916949999999995,1.075328,0.9587829999999999,-0.135194,-0.030837,-0.246879
704,0.7683270000000001,-1.169329,3.063221,0.271552,0.9204889999999999,-0.280986,3.8050300000000004,0.450401,1.122005,-0.240592,-0.130144,0.253017
705,0.699842,-1.1035620000000002,2.984989,0.290109,0.892817,-0.34454,3.238977,-0.113576,0.925426,-0.251031,-0.26209499999999997,0.48281499999999994
706,0.66266,-1.04841,2.948177,0.306958,0.8666309999999999,-0.393347,2.449684,0.013594,1.242353,-0.170545,-0.607537,1.02973
707,0.6753939999999999,-1.00217,2.9483740000000003,0.336654,0.842641,-0.42025500000000005,1.383204,0.708158,1.366473,-0.18193,-0.252248,0.195737
708,0.669024,-0.979635,2.95051,0.34566199999999997,0.8302940000000001,-0.43717799999999996,0.625598,-0.805269,0.344037,0.11715199999999999,0.41198500000000005,0.591429
709,0.648651,-0.974297,2.9387659999999998,0.339357,0.827307,-0.447655,0.290718,-0.48188800000000004,-0.314605,0.065825,0.27656,0.650597
710,0.628817,-0.9779479999999999,2.9210119999999997,0.328633,0.8293520000000001,-0.45185200000000003,0.031370999999999996,0.013031000000000001,-0.513604,-0.418538,-0.053473,0.517648
711,0.636526,-0.991604,2.91872,0.325344,0.8369049999999999,-0.440155,-0.9431620000000001,0.667131,-0.473179,-0.24461,-0.048865,0.259231
712,0.67265,-1.028382,2.944964,0.32162399999999997,0.8564649999999999,-0.403758,-2.480757,0.693395,-0.646323,-0.032744999999999996,-0.171651,0.065592
713,0.739768,-1.091227,3.005271,0.311031,0.887194,-0.340794,-3.773704,0.715813,-1.135014,0.200413,-0.286638,-0.24895799999999998
714,0.82205,-1.1721979999999999,3.078352,0.284314,0.9216059999999999,-0.2642,-3.9012849999999997,0.989848,-2.153204,0.294162,-0.181707,-0.358373
715,0.904473,-1.252903,-3.1364099999999997,0.24569899999999997,0.949896,-0.19319,-3.335325,0.6670699999999999,-2.1114490000000004,0.540388,0.127558,-0.29329
716,1.003123,-1.31226,-3.024613,0.21555300000000002,0.966765,-0.137456,-2.768727,-1.2603,-1.200238,0.667199,-0.330596,-0.20665999999999998
717,1.088311,-1.343394,-2.896033,0.199695,0.974255,-0.10459500000000001,-1.607501,-2.188145,-0.079987,1.000515,-0.69267,-0.081562
718,1.101069,-1.334794,-2.842911,0.20847800000000002,0.9722799999999999,-0.10582799999999999,0.29523,-1.859791,0.870782,-0.437345,-0.8342649999999999,-0.010886
719,1.097651,-1.330833,-2.790089,0.21154099999999998,0.971347,-0.108294,-0.944633,-3.3300769999999997,0.13334200000000002,-0.939675,-0.991351,-0.7029850000000001
720,1.044473,-1.3360319999999999,-2.775949,0.20111700000000002,0.972569,-0.116847,-0.077083,-2.686162,-0.20752800000000002,-0.766471,0.176082,-0.185399
721,1.0850870000000001,-1.3470280000000001,-2.7187330000000003,0.196225,0.975068,-0.103585,-0.9505530000000001,0.897458,-0.258811,0.015826,1.862197,-0.242087
722,1.1563620000000001,-1.349141,-2.6767090000000002,0.201217,0.975535,-0.088518,-0.289632,1.156849,0.367178,0.213761,0.732671,-0.24944899999999998
723,1.217378,-1.339768,-2.630912,0.21481,0.9734309999999999,-0.07924500000000001,-0.28008299999999997,0.976616,0.675124,0.591648,0.43495500000000004,-0.162485
724,1.2778399999999999,-1.33141,-2.58962,0.22698800000000002,0.971484,-0.068468,-0.22646799999999997,0.519487,0.394074,0.734529,0.07407899999999999,-0.040648000000000004
725,1.252381,-1.32471,-2.604066,0.23134899999999997,0.969873,-0.07626000000000001,0.6383310000000001,-0.7099989999999999,0.216887,0.302007,-0.087366,0.054867
726,1.1673879999999999,-1.3235270000000001,-2.6705349999999997,0.225095,0.969584,-0.096075,0.74326,-1.093161,-0.49012,0.001009,0.506368,-0.22496999999999998
727,1.072317,-1.328932,-2.756631,0.210353,0.970893,-0.114501,1.023285,-0.28882199999999997,-0.746636,0.056584,0.45275200000000004,-0.40084899999999996
728,0.954002,-1.316755,-2.8925919999999996,0.20499699999999998,0.9679049999999999,-0.14536,2.104361,1.456866,-0.011726,0.083501,0.229483,-0.451
729,0.868734,-1.2777120000000002,-3.016999,0.22057399999999996,0.957357,-0.186566,2.850257,1.374201,0.8321440000000001,-0.134744,-0.156302,-0.5258970000000001
730,0.785852,-1.214625,-3.123,0.246666,0.9372389999999999,-0.246442,3.6183699999999996,0.8382430000000001,1.2622799999999998,-0.393394,-0.060575,0.081647
731,0.728432,-1.144156,3.0723119999999997,0.275472,0.9103610000000001,-0.308791,3.696907,1.322154,1.125476,-0.483983,-0.13376500000000002,0.367217
732,0.691829,-1.08194,3.0069169999999996,0.299587,0.882871,-0.361638,2.978616,0.977455,0.8367540000000001,-0.26377399999999995,-0.558164,0.711385
733,0.677037,-1.035152,2.97643,0.319753,0.8599399999999999,-0.39781500000000003,1.916724,0.522706,0.927127,-0.127065,-0.960404,0.644153
734,0.690241,-1.000735,2.9712009999999998,0.34362600000000004,0.8418680000000001,-0.41614300000000004,1.158283,0.892442,1.0303149999999999,-0.034956,-0.75233,0.342
735,0.7068989999999999,-0.9765010000000001,2.980969,0.363657,0.828543,-0.425752,0.44746099999999994,0.136266,0.805197,0.196722,0.6580600000000001,0.616625
736,0.701676,-0.9771790000000001,2.9782490000000004,0.361065,0.8289219999999999,-0.427217,-0.047252999999999996,-0.261101,-0.623826,0.054613999999999996,0.280971,0.643297
737,0.67893,-0.9889600000000001,2.958791,0.345099,0.835455,-0.427688,-0.305848,-0.262798,-0.774113,-0.10953399999999999,-0.08045,0.539489
738,0.681768,-1.01514,2.958311,0.332411,0.849555,-0.40957899999999997,-1.463191,0.345873,-0.935733,-0.352552,0.0216,0.219043
739,0.705375,-1.0635729999999999,2.977842,0.314919,0.8740959999999999,-0.369832,-2.576489,0.320397,-1.324832,-0.050332,-0.021481,-0.277873
740,0.733819,-1.132444,3.007693,0.28425300000000003,0.905452,-0.3152,-3.252332,-0.055638,-2.071485,0.167804,-0.062923,-0.575684
741,0.7687649999999999,-1.21366,3.037818,0.24304699999999999,0.936902,-0.25127,-3.406846,0.736136,-2.272268,0.8855540000000001,0.515079,-0.183178
742,0.849733,-1.284511,3.114721,0.212096,0.9593,-0.186422,-3.1351560000000003,-0.187445,-1.446656,0.590242,-0.157053,0.045568
743,0.929103,-1.330874,-3.070268,0.19034600000000002,0.971356,-0.142223,-1.993453,-0.810265,-0.6644909999999999,0.763786,-0.668759,-0.284016
744,0.979773,-1.3423120000000002,-2.999932,0.188066,0.9740110000000001,-0.1262,-0.39467399999999997,-1.145678,0.30850700000000003,0.42855600000000005,-0.9927030000000001,0.058664999999999995
745,0.9764799999999999,-1.34626,-2.9528849999999998,0.184462,0.9748979999999999,-0.12466400000000001,-0.911745,-3.416411,-0.150463,-0.6388689999999999,-0.569136,0.507476
746,0.9081959999999999,-1.361959,-2.936085,0.163437,0.978273,-0.127526,-0.617957,-4.363168,-0.473005,-0.617844,-0.572511,0.510339
747,0.888619,-1.373734,-2.912095,0.151956,0.9806459999999999,-0.12343,-0.33181700000000003,-0.273424,-0.22628299999999998,-0.7461949999999999,-0.072977,0.979036
748,0.928919,-1.385464,-2.886937,0.14758,0.982875,-0.11031099999999999,-0.727593,0.681283,-0.470621,-0.218061,1.676137,-0.6023350000000001
749,0.9916309999999999,-1.3904239999999999,-2.836199,0.150121,0.983777,-0.098176,-0.637023,0.6887270000000001,0.518107,1.53094,0.55379,-0.588073
750,1.117881,-1.379697,-2.735439,0.170769,0.9817959999999999,-0.083106,-0.309255,1.504661,1.049189,1.6424779999999999,0.8516389999999999,-0.500757
751,1.160888,-1.365639,-2.6851380000000002,0.186826,0.979029,-0.08118,0.11173699999999999,-1.265313,0.7491,0.8929469999999999,0.081426,-0.383175
752,1.073955,-1.35486,-2.73838,0.18834,0.976776,-0.102119,0.8679379999999999,-1.8730189999999998,-0.047074,-0.200532,0.5298,-0.061363
753,0.9592780000000001,-1.357533,-2.832159,0.173281,0.977345,-0.121501,0.779882,-0.544875,-0.971266,-0.333468,0.664485,-0.072529
754,0.808829,-1.36334,-2.99152,0.149004,0.978558,-0.14218,1.34287,0.733805,-1.279825,-0.278368,0.242191,-0.16761900000000002
755,0.680855,-1.348927,3.134969,0.138505,0.9754879999999999,-0.170978,1.8339599999999998,1.373341,-0.46750200000000003,0.352538,-0.141,-0.41383100000000006
756,0.603672,-1.314833,3.0225,0.143714,0.9674200000000001,-0.20842,2.336826,1.707413,0.267314,0.690591,-0.358579,-0.41955600000000004
757,0.5723090000000001,-1.258448,2.970883,0.166417,0.951615,-0.258319,2.9264900000000003,0.092487,1.344929,0.565577,-0.169388,-0.37899499999999997
758,0.5490619999999999,-1.190708,2.959941,0.193618,0.928632,-0.31646399999999997,2.9127330000000002,-0.8754069999999999,1.778703,-0.043669,-0.048673,0.331402
759,0.546678,-1.1269040000000001,2.977373,0.223252,0.9030870000000001,-0.36686199999999997,2.2566200000000003,-0.853901,2.030466,-0.313767,-0.252879,0.718013
760,0.567132,-1.079545,3.01694,0.253418,0.881743,-0.397874,1.114926,-0.773762,1.894202,-0.201736,-0.040373,0.569703
761,0.5723779999999999,-1.04891,3.051223,0.27001,0.8668809999999999,-0.41905699999999996,0.729218,-1.38194,1.4062459999999999,0.038889,0.12784,0.27313699999999996
762,0.5804739999999999,-1.023219,3.084996,0.285516,0.8537889999999999,-0.43533999999999995,0.5231210000000001,-0.9264379999999999,1.427724,0.148611,0.189608,0.37264200000000003
763,0.591769,-1.00577,3.114465,0.298681,0.8445739999999999,-0.444387,0.15177100000000002,-0.543689,0.8723690000000001,-0.101629,0.237808,0.42808999999999997
764,0.609765,-1.001344,-3.140823,0.308768,0.842197,-0.442,-0.535972,-0.070076,0.778295,-0.397894,0.144315,0.24403200000000003
765,0.654786,-1.010422,-3.0910490000000004,0.323677,0.8470559999999999,-0.421574,-1.536261,0.28488600000000003,0.790082,-0.462075,0.124181,-0.006313
766,0.7222729999999999,-1.0321870000000002,-3.02358,0.3391,0.8584229999999999,-0.384861,-2.1196770000000003,0.578623,0.5666439999999999,-0.35290900000000003,-0.056024000000000004,-0.066388
767,0.790533,-1.0598370000000001,-2.95654,0.347553,0.872276,-0.344002,-2.124515,0.40603,0.043403,-0.197605,-0.157905,-0.029945
768,0.83496,-1.09332,-2.9098040000000003,0.34063899999999997,0.888158,-0.30844299999999997,-1.8496009999999998,0.031077999999999998,-0.73293,-0.074403,-0.298085,0.001634
769,0.8563930000000001,-1.133174,-2.883829,0.32016,0.9057620000000001,-0.277647,-1.7240950000000002,-0.144986,-1.300122,0.056686,-0.5088050000000001,-0.189958
770,0.858088,-1.1768379999999998,-2.873122,0.29041100000000003,0.9233969999999999,-0.250987,-1.4497790000000002,-0.658183,-1.604128,0.420725,-0.451809,-0.46698500000000004
771,0.832764,-1.2145290000000002,-2.875693,0.258019,0.937205,-0.234665,-1.1313520000000001,-1.394639,-1.260197,0.853508,-0.110957,-0.358185
772,0.81314,-1.240477,-2.86435,0.235614,0.945939,-0.22289099999999998,-0.8446020000000001,-1.450698,-0.54455,0.6424989999999999,0.137939,-0.45890200000000003
773,0.794399,-1.2441280000000001,-2.858216,0.22893000000000002,0.947117,-0.224845,0.149704,-1.188705,0.20874299999999998,0.548185,0.10532799999999999,-0.7423029999999999
774,0.792065,-1.235623,-2.828627,0.23413,0.9443530000000001,-0.23102899999999998,-0.287543,-1.6268,0.919823,0.533539,-0.549975,-0.25642800000000004
775,0.837844,-1.225706,-2.759676,0.251406,0.941045,-0.226327,-0.646604,-0.553838,1.173381,0.024138,-0.274617,0.401971
776,0.8635520000000001,-1.220051,-2.709345,0.261181,0.939117,-0.223244,0.317758,-1.479293,0.27117800000000003,-0.39758000000000004,0.9689639999999999,-0.497413
777,0.783803,-1.212321,-2.739719,0.247685,0.936433,-0.24847600000000003,0.293461,-2.578818,0.06625,-0.566837,0.9868,0.893099
778,0.765312,-1.212407,-2.740137,0.242993,0.9364629999999999,-0.252956,-0.055337,-0.125698,-0.11131300000000001,-0.47416400000000003,0.6363979999999999,0.8425860000000001
779,0.747082,-1.2148139999999998,-2.749529,0.23680900000000002,0.9373049999999999,-0.255688,0.049657,-0.6400399999999999,-0.24879,-0.132713,0.1974,0.688489
780,0.740517,-1.222459,-2.749548,0.230283,0.939942,-0.25194099999999997,-0.533471,-0.087162,-0.27600399999999997,0.41784899999999997,1.1912530000000001,0.11616800000000001
781,0.734121,-1.231034,-2.748791,0.223259,0.9428340000000001,-0.247416,-0.11537,-1.0400049999999998,-0.250498,0.024085,0.671393,0.366877
782,0.700457,-1.239762,-2.752687,0.20949299999999998,0.945707,-0.24848800000000001,-0.50313,-1.331923,-0.43870299999999995,-0.36408,0.508731,0.674239
783,0.694434,-1.262034,-2.747775,0.19446300000000002,0.9527100000000001,-0.2335,-1.106266,-0.055572,-0.752199,-0.49678500000000003,0.383273,0.466868
784,0.710393,-1.2932350000000001,-2.73599,0.17868499999999998,0.961727,-0.207722,-1.3345040000000001,0.242152,-0.948592,-0.163319,0.313267,-0.034298
785,0.717858,-1.325192,-2.729347,0.159925,0.9699909999999999,-0.18313,-1.241622,-0.033866,-1.001,0.14511400000000002,0.241298,0.131723
786,0.722413,-1.359158,-2.723117,0.138883,0.9776879999999999,-0.15758,-1.400469,-0.112784,-1.1077629999999998,0.228213,0.159397,0.155002
787,0.728908,-1.395149,-2.711115,0.116378,0.984614,-0.13033,-1.382541,-0.381357,-1.0923379999999998,0.17491199999999998,-0.069605,-0.054988
788,0.727604,-1.429348,-2.698697,0.09374600000000001,0.9900129999999999,-0.10525999999999999,-1.3332680000000001,-0.795988,-1.075439,0.045551999999999995,-0.130348,0.022831999999999998
789,0.7166819999999999,-1.46383,-2.693938,0.07011,0.9942850000000001,-0.080474,-1.2932379999999999,-0.750008,-1.153199,0.035419,-0.19741,0.027313
790,0.678489,-1.498245,-2.7183770000000003,0.045464,0.9973690000000001,-0.05639500000000001,-1.2296559999999999,-0.6488659999999999,-1.1934770000000001,0.086632,-0.359781,0.053725
791,0.594186,-1.531555,-2.7928740000000003,0.021911,0.99923,-0.03243,-1.214818,-0.364766,-1.124303,0.091386,-0.364343,0.024114
792,-0.037576,-1.5618319999999999,2.859308,-0.000321,0.9999600000000001,-0.008528,-1.1763299999999999,0.130442,-1.121464,0.098465,-0.24298699999999998,-0.14139000000000002
