,attitude.roll,attitude.pitch,attitude.yaw,gravity.x,gravity.y,gravity.z,rotationRate.x,rotationRate.y,rotationRate.z,userAcceleration.x,userAcceleration.y,userAcceleration.z
0,-3.1158959999999998,-1.483817,1.544086,-0.002229,0.9962200000000001,0.086742,-0.21898299999999998,0.6172350000000001,-0.132578,0.44337600000000005,-0.021565,-0.260707
1,-3.091668,-1.478283,1.560495,-0.004605,0.9957239999999999,0.092169,-0.28267800000000004,0.277376,-0.068494,0.363431,0.10663199999999999,-0.268484
2,-3.071282,-1.473133,1.578407,-0.006843999999999999,0.9952350000000001,0.097174,-0.23108800000000002,0.038919999999999996,-0.154354,0.41887700000000005,0.238911,-0.225333
3,-3.0383,-1.4694479999999999,1.611457,-0.010423,0.994869,0.10054400000000001,-0.15214,-0.002736,-0.19541,0.36905,0.429753,-0.150348
4,-3.003209,-1.466591,1.6495810000000002,-0.014336000000000002,0.994576,0.102931,-0.090139,-0.210691,-0.192574,0.306114,0.415504,-0.116024
5,-2.9969919999999997,-1.465963,1.6623599999999998,-0.015065,0.99451,0.103459,0.022203,-0.396254,0.027433999999999997,0.17101,0.357571,-0.046971
6,-3.05543,-1.468399,1.613054,-0.008787999999999999,0.994762,0.101746,0.12134500000000001,-0.48875799999999997,0.42989700000000003,-0.11071800000000001,0.277501,2.9999999999999997e-05
7,3.080597,-1.473319,1.476215,0.005927,0.995253,0.097045,0.332575,-0.47018999999999994,0.9302090000000001,-0.11781900000000001,0.10736300000000001,0.06601
8,2.80876,-1.479209,1.212653,0.029847000000000002,0.995809,0.086341,0.6851,-0.515355,1.26281,-0.147142,-0.110799,0.08355
9,2.418299,-1.482228,0.831343,0.058475,0.99608,0.066229,1.167627,-0.5081720000000001,1.445633,-0.13231199999999999,-0.118532,0.057871000000000006
10,1.9761799999999998,-1.474668,0.395795,0.088116,0.995383,0.037814999999999994,1.5021639999999998,-0.349648,1.472335,-0.11091300000000001,-0.08129,-0.010136
11,1.612055,-1.451329,0.033096,0.11901099999999999,0.992872,0.004913,1.734358,-0.07080299999999999,1.6017860000000002,-0.11728699999999999,0.243486,0.036255
12,1.3516190000000001,-1.415537,-0.23171,0.150885,0.9879709999999999,-0.03361,2.0834639999999998,0.208188,1.593185,-0.255713,0.336339,-0.001943
13,1.186847,-1.3732010000000001,-0.407954,0.181981,0.980541,-0.07352,2.0405729999999997,0.586705,1.544331,-0.250569,0.32999,-0.072461
14,1.104646,-1.329763,-0.507546,0.21320799999999998,0.971092,-0.107272,1.809205,0.826257,1.512497,-0.192609,0.335411,-0.117032
15,1.054603,-1.28767,-0.576687,0.24293499999999998,0.9601870000000001,-0.13787,1.7799470000000002,0.804625,1.353156,-0.177643,0.303119,-0.06742100000000001
16,1.0043360000000001,-1.251051,-0.640663,0.26520900000000003,0.9493149999999999,-0.168669,1.751271,0.36240300000000003,0.879232,-0.15801600000000002,0.182627,0.068801
17,0.941665,-1.221277,-0.707047,0.276864,0.9395370000000001,-0.201498,1.713972,-0.23784899999999998,0.504794,-0.020608,-0.038429000000000005,0.081335
18,0.880417,-1.194664,-0.7619130000000001,0.283195,0.930092,-0.23391199999999998,1.468208,-0.600089,0.462949,-0.07646900000000001,-0.08391599999999999,0.102091
19,0.841267,-1.1718959999999998,-0.790898,0.289538,0.9214889999999999,-0.258868,0.9611219999999999,-0.597546,0.533111,-0.13129000000000002,-0.21966100000000002,0.001391
20,0.8247200000000001,-1.153597,-0.797033,0.297551,0.914227,-0.275025,0.586634,-0.5145569999999999,0.616915,-0.170979,-0.240536,-0.017394999999999997
21,0.817335,-1.1371959999999999,-0.7933020000000001,0.306408,0.907459,-0.287436,0.477258,-0.571966,0.682455,-0.095226,-0.26674200000000003,-0.048135000000000004
22,0.814968,-1.120167,-0.783335,0.316927,0.900173,-0.298717,0.388225,-0.548744,0.813194,0.005293,-0.27819499999999997,-0.0036049999999999997
23,0.8211450000000001,-1.103391,-0.766282,0.329775,0.89274,-0.307002,0.244486,-0.398384,0.898524,0.047331,-0.262308,0.011195
24,0.8321780000000001,-1.0873549999999998,-0.7466550000000001,0.343684,0.8854,-0.312945,0.22491999999999998,-0.289464,0.8501770000000001,0.035543,-0.304956,0.023074
25,0.834442,-1.073245,-0.735845,0.353614,0.878754,-0.320525,0.31614000000000003,-0.44421099999999997,0.575411,-0.07506499999999999,-0.45986899999999997,0.156005
26,0.822852,-1.0644870000000002,-0.735073,0.355504,0.87454,-0.32982399999999995,0.21855500000000003,-0.703311,0.187297,-0.09174,-0.531416,0.31041399999999997
27,0.806217,-1.065325,-0.73612,0.34944000000000003,0.8749459999999999,-0.335185,-0.17835399999999998,-0.837873,-0.18277100000000002,-0.076002,-0.512794,0.362452
28,0.7918229999999999,-1.077734,-0.731647,0.336826,0.8808870000000001,-0.332525,-0.710052,-0.96168,-0.46192799999999995,-0.062672,-0.36788699999999996,0.20963099999999998
29,0.7865989999999999,-1.1007360000000002,-0.714491,0.320651,0.891541,-0.319882,-1.3565180000000001,-1.038949,-0.558211,-0.067768,-0.342575,0.091977
30,0.801384,-1.132903,-0.675236,0.30458,0.905647,-0.294994,-1.8847490000000002,-1.010697,-0.505321,-0.065627,-0.038169999999999996,-0.24940900000000002
31,0.8277040000000001,-1.1600469999999998,-0.625214,0.294021,0.9168219999999999,-0.27013899999999996,-1.410458,-0.9118629999999999,-0.058823,0.461823,0.957736,-0.474886
32,0.856665,-1.160455,-0.584421,0.301437,0.916985,-0.261267,-0.044047,-0.080782,0.8448260000000001,0.26619,0.724525,-0.588541
33,0.860901,-1.1352280000000001,-0.578237,0.31998899999999997,0.9066299999999999,-0.274981,1.055368,-0.236702,1.0546,0.073535,-0.08322,-0.534909
34,0.830526,-1.104036,-0.600377,0.332215,0.8930309999999999,-0.303507,1.478889,-0.638202,0.660694,0.026779,-0.360117,-0.268423
35,0.793676,-1.085085,-0.627674,0.332816,0.884343,-0.327351,0.7630640000000001,-0.5458069999999999,0.021052,0.0019010000000000001,-0.348088,-0.14085
36,0.78272,-1.086824,-0.635736,0.32812399999999997,0.8851530000000001,-0.329887,-0.31033499999999997,0.126881,-0.23834,0.303971,0.4423,0.22803400000000001
37,0.8254870000000001,-1.102292,-0.604803,0.331825,0.8922450000000001,-0.306233,-1.552315,1.109005,0.054033000000000005,0.161232,1.0380989999999999,0.408512
38,0.918243,-1.126042,-0.526882,0.341825,0.902717,-0.261237,-2.151478,0.9238870000000001,0.24663800000000002,-0.358732,0.7103659999999999,0.058508000000000004
39,0.978672,-1.141276,-0.46865,0.345525,0.909166,-0.23241199999999998,-0.887064,0.170781,-0.060827,-0.518254,0.113265,-0.12726800000000002
40,0.987265,-1.149413,-0.465426,0.34132399999999996,0.912524,-0.22535100000000002,-0.068393,0.367517,-0.41855600000000004,-0.263809,0.043622,-0.003164
41,0.9717819999999999,-1.158307,-0.488255,0.33107800000000004,0.916126,-0.22602399999999997,0.252136,0.140822,-0.7482439999999999,-0.163444,-0.17315999999999998,0.024104
42,0.928908,-1.169024,-0.529944,0.313203,0.9203690000000001,-0.234114,0.366077,-0.44002600000000003,-1.044738,-0.346544,-0.290105,0.191679
43,0.873186,-1.1867379999999998,-0.576082,0.287137,0.9271520000000001,-0.240682,-0.055688,-0.758231,-1.289762,-0.138791,-0.24926500000000001,0.435018
44,0.843037,-1.212382,-0.590601,0.261908,0.9364540000000001,-0.23333099999999998,-1.1272469999999999,-0.8353959999999999,-1.04398,-0.0033020000000000002,-0.24308000000000002,0.72468
45,0.877627,-1.250125,-0.541508,0.242444,0.949024,-0.20139300000000002,-2.1192159999999998,-0.315139,-0.817635,-0.158795,-0.242023,0.49158500000000005
46,0.957253,-1.286258,-0.46465200000000006,0.22949299999999997,0.959791,-0.16161099999999998,-1.805995,0.667551,-0.683178,-0.232087,0.10388399999999999,0.147847
47,1.046938,-1.310396,-0.395521,0.222913,0.9662870000000001,-0.128776,-1.31931,1.4318520000000001,-0.43079399999999995,-0.29549899999999996,0.295951,0.14022
48,1.1489260000000001,-1.3322459999999998,-0.323954,0.215544,0.9716819999999999,-0.09673999999999999,-1.225551,1.633846,-0.676089,-0.181395,0.180525,0.047302
49,1.2371219999999998,-1.351183,-0.261155,0.2058,0.975982,-0.071338,-0.882553,1.1666100000000001,-0.545976,-0.049382,-0.06935,0.090869
50,1.3074620000000001,-1.36493,-0.20939499999999997,0.197327,0.978884,-0.053199,-0.649229,0.921589,-0.47993900000000006,0.032302,-0.143054,0.10329300000000001
51,1.370508,-1.3766209999999999,-0.16262000000000001,0.189055,0.9812069999999999,-0.038380000000000004,-0.563355,0.832742,-0.447179,0.072679,-0.11199,0.077748
52,1.439945,-1.3868530000000001,-0.107099,0.181294,0.98313,-0.023859,-0.64849,0.6826770000000001,-0.408057,-0.016057,-0.11414200000000001,0.139917
53,1.526892,-1.396929,-0.029144999999999997,0.172771,0.984923,-0.00759,-0.7691100000000001,0.382886,-0.457654,-0.156459,0.024980000000000002,0.21074600000000002
54,1.628719,-1.405707,0.06967000000000001,0.164007,0.9864040000000001,0.00951,-0.861867,0.163745,-0.45374799999999993,-0.148672,0.039368,0.24476199999999998
55,1.742834,-1.413869,0.17918,0.153915,0.987712,0.026744,-0.7609899999999999,0.431184,-0.554867,-0.168991,-0.016383,0.048833
56,1.850638,-1.4247299999999998,0.275872,0.139821,0.989351,0.040182,-0.496284,0.701769,-0.785169,0.020427,0.009306,-0.161444
57,1.965291,-1.438387,0.370754,0.121813,0.991247,0.050713,-0.338617,1.259836,-0.887332,0.019865,-0.010731999999999998,-0.187356
58,2.099704,-1.453478,0.477033,0.100984,0.9931260000000001,0.05902,-0.219613,1.499617,-1.013927,0.047911,-0.067238,-0.168914
59,2.268826,-1.468621,0.617453,0.078068,0.994785,0.065493,-0.18121500000000001,1.4262629999999998,-1.085134,0.226177,-0.037174,-0.024646
60,2.480502,-1.481324,0.805029,0.054794,0.996,0.07044199999999999,-0.15599200000000002,1.128863,-1.060008,0.36080999999999996,-0.027127999999999996,0.013268
61,2.6978880000000003,-1.48817,1.003485,0.035379,0.9965879999999999,0.074432,-0.152925,0.909324,-0.773421,0.51435,-0.07611699999999999,0.017578
62,2.832087,-1.489223,1.121833,0.024781,0.996675,0.07749199999999999,-0.11094000000000001,0.769788,-0.281567,0.399475,0.026777999999999996,-0.18023
63,2.861169,-1.487938,1.136154,0.022872,0.996569,0.079413,-0.063667,0.722391,0.074542,0.292527,0.204404,-0.27178
64,2.842584,-1.48609,1.104831,0.024887,0.9964149999999999,0.080736,-0.03284,0.557837,0.173244,0.318909,0.257293,-0.213167
65,2.815774,-1.486414,1.06999,0.026938999999999998,0.996442,0.079734,0.115624,0.282779,0.09879,0.356896,0.25651799999999997,-0.20098
66,2.77317,-1.488803,1.0253860000000001,0.029450999999999998,0.99664,0.076288,0.21622600000000003,-0.025824,0.196028,0.31256,0.24969699999999997,-0.169443
67,2.635328,-1.49263,0.8924280000000001,0.037801999999999995,0.9969469999999999,0.068178,0.5298579999999999,-0.404333,0.540535,0.210596,0.125902,0.077559
68,2.32958,-1.494956,0.596735,0.054888,0.997125,0.052042,0.938853,-0.575912,1.0018790000000002,0.037,-0.015191999999999999,0.11861300000000001
69,1.8905779999999999,-1.485427,0.167499,0.080833,0.996358,0.026768,1.4002459999999999,-0.511071,1.4355120000000001,-0.042182,-0.09792100000000001,0.102337
70,1.511392,-1.457155,-0.20524299999999998,0.11311199999999999,0.99355,-0.0067269999999999995,1.788057,-0.366478,1.702955,-0.05107,-0.036,-0.139498
71,1.2700040000000001,-1.413033,-0.44394399999999995,0.149999,0.9875809999999999,-0.046531,2.039731,-0.137214,1.9597240000000002,-0.098501,0.48582299999999995,-0.045541000000000005
72,1.1378549999999998,-1.361484,-0.5812649999999999,0.188578,0.978174,-0.087158,2.105269,0.364604,1.8847630000000002,-0.225413,0.613241,0.027344
73,1.067379,-1.31349,-0.66873,0.222877,0.9670790000000001,-0.122749,1.895794,0.916292,1.565331,-0.268394,0.572823,-0.09348300000000001
74,1.036355,-1.271541,-0.723666,0.253676,0.955556,-0.15015,1.567869,1.1662,1.424919,-0.175306,0.5708260000000001,-0.112072
75,1.02945,-1.234444,-0.754613,0.282835,0.9439649999999999,-0.170058,1.264182,1.0667950000000002,1.239191,-0.225233,0.5234880000000001,-0.06779600000000001
76,1.015799,-1.205433,-0.786517,0.303642,0.9339940000000001,-0.18825899999999998,1.235578,0.6437350000000001,0.7684479999999999,-0.072578,0.232357,0.04977
77,0.983368,-1.183708,-0.829475,0.314197,0.9260120000000001,-0.209204,1.234186,0.175546,0.370591,0.060742,-0.054857,-0.040048
78,0.944198,-1.163858,-0.8679819999999999,0.32059299999999996,0.9183370000000001,-0.23208299999999998,1.1280540000000001,-0.359068,0.423946,0.004236,-0.11676199999999999,-0.044834
79,0.907684,-1.145945,-0.893547,0.324822,0.9111,-0.25371900000000003,0.8198219999999999,-0.840448,0.393568,-0.018913,-0.40023600000000004,-0.06175599999999999
80,0.8755370000000001,-1.131877,-0.9028780000000001,0.32631,0.9052110000000001,-0.27221300000000004,0.47253599999999996,-1.3859290000000002,0.443116,-0.037797000000000004,-0.442229,0.011044
81,0.845134,-1.119801,-0.9001600000000001,0.32603899999999997,0.900014,-0.28924099999999997,0.292232,-1.7596189999999998,0.543816,-0.018635,-0.45497600000000005,0.056102
82,0.818972,-1.107467,-0.8881030000000001,0.326445,0.8945700000000001,-0.30523,0.170517,-1.871634,0.6894560000000001,0.0011,-0.467735,0.11956099999999999
83,0.801671,-1.094391,-0.867123,0.329494,0.888649,-0.318941,0.083909,-1.7325110000000001,0.871339,-0.032162,-0.42198900000000006,0.155932
84,0.791693,-1.079244,-0.842566,0.335836,0.881601,-0.33163400000000004,0.16238,-1.51157,0.9624030000000001,-0.137777,-0.419763,0.18727
85,0.779508,-1.063674,-0.822716,0.341378,0.8741459999999999,-0.34542399999999995,0.212213,-1.490909,0.814242,-0.210748,-0.44520600000000005,0.259349
86,0.7652220000000001,-1.0538969999999999,-0.805796,0.34231300000000003,0.8693559999999999,-0.35641300000000004,-0.07080800000000001,-1.381125,0.511954,-0.242902,-0.496126,0.35214
87,0.758468,-1.0561690000000001,-0.789026,0.338539,0.870476,-0.35728200000000004,-0.5538770000000001,-0.851297,0.035746,-0.194221,-0.42789499999999997,0.337384
88,0.762307,-1.071601,-0.771192,0.33059,0.8779680000000001,-0.346221,-1.0445360000000001,-0.48271499999999995,-0.33669,-0.139733,-0.204125,0.220138
89,0.781995,-1.099423,-0.738797,0.319999,0.8909459999999999,-0.322185,-1.8696259999999998,-0.44847200000000004,-0.458933,-0.0326,0.0043490000000000004,-0.011143
90,0.8278620000000001,-1.1374950000000001,-0.6789350000000001,0.309217,0.9075840000000001,-0.284011,-2.3355770000000002,-0.363846,-0.438796,0.352694,0.6731189999999999,-0.390245
91,0.8802719999999999,-1.163063,-0.613417,0.305675,0.9180219999999999,-0.252554,-1.362111,-0.299643,0.243038,0.578068,1.302376,-0.732431
92,0.9010809999999999,-1.15119,-0.589346,0.319388,0.913249,-0.252889,0.777346,0.010694,0.965816,-0.035315,-0.201518,-0.6604869999999999
93,0.883965,-1.12376,-0.6053029999999999,0.33426300000000003,0.901732,-0.27410300000000004,1.280464,-0.336284,0.720879,-0.160847,-0.45689300000000005,-0.603506
94,0.846202,-1.103673,-0.631372,0.337174,0.892867,-0.298476,0.782436,-0.802271,0.20311400000000002,-0.086258,-0.151839,-0.2314
95,0.8203739999999999,-1.097576,-0.6485850000000001,0.333329,0.8901049999999999,-0.310791,0.39713000000000004,-0.22963000000000003,-0.14214200000000002,0.286041,1.148484,0.07138
96,0.8445299999999999,-1.10084,-0.632192,0.338564,0.8915879999999999,-0.300718,-1.01386,0.806797,0.302805,0.035230000000000004,1.333205,0.4969
97,0.906711,-1.111593,-0.577054,0.349025,0.8964059999999999,-0.273173,-1.071465,0.436931,0.406494,-0.579098,0.228762,0.220148
98,0.931601,-1.112973,-0.5631510000000001,0.354722,0.897017,-0.26366300000000004,0.094178,0.794895,-0.078273,-0.5458689999999999,-0.18296600000000002,0.269355
99,0.9304530000000001,-1.116424,-0.585901,0.351935,0.898537,-0.262219,0.333421,1.006169,-0.638757,-0.415365,-0.154625,0.257824
100,0.9138,-1.128862,-0.6225189999999999,0.33864299999999997,0.903926,-0.26119699999999996,0.149635,0.6372180000000001,-1.186498,-0.432882,-0.173259,0.202374
101,0.884525,-1.155888,-0.6592819999999999,0.311834,0.9151530000000001,-0.255419,-0.501201,-0.112694,-1.697488,-0.096945,-0.184578,0.403537
102,0.856141,-1.194193,-0.677707,0.277764,0.929919,-0.241004,-1.259651,-0.725019,-1.625089,0.003486,-0.100512,0.565665
103,0.863926,-1.239223,-0.6569729999999999,0.247515,0.9455309999999999,-0.211403,-1.9484990000000002,-0.378538,-1.361153,-0.11030799999999999,-0.116308,0.529045
104,0.9170200000000001,-1.281768,-0.6078859999999999,0.226225,0.958521,-0.17332999999999998,-1.757713,0.7883600000000001,-1.099601,-0.144957,0.209448,0.13196300000000002
105,0.9862719999999999,-1.3106200000000001,-0.567573,0.21451399999999998,0.9663450000000001,-0.141934,-1.082518,1.8836979999999999,-0.678614,-0.164389,0.25766999999999995,0.10722000000000001
106,1.0741690000000002,-1.329315,-0.522153,0.21022,0.970985,-0.113925,-0.8745870000000001,2.272154,-0.5003350000000001,-0.304886,0.092293,0.05153200000000001
107,1.1425049999999999,-1.345744,-0.49452700000000005,0.202966,0.9747819999999999,-0.092665,-0.543949,1.8773970000000002,-0.63532,-0.023309,-0.292104,0.040922
108,1.194545,-1.360358,-0.472262,0.19423800000000002,0.9779389999999999,-0.076738,-0.523287,1.3528040000000001,-0.53409,0.075049,-0.29964,0.045839
109,1.2543469999999999,-1.373567,-0.435842,0.18617999999999998,0.980613,-0.060965,-0.5980979999999999,1.139791,-0.480926,0.162056,-0.241813,0.13719800000000001
110,1.33372,-1.385551,-0.37712399999999996,0.178989,0.982891,-0.043247,-0.792082,1.034643,-0.39134800000000003,0.166378,-0.207943,0.16576
111,1.445729,-1.396376,-0.280504,0.172131,0.984827,-0.021641,-1.028426,0.710404,-0.354127,0.095233,-0.006113,0.18636
112,1.58202,-1.402515,-0.15196199999999999,0.167425,0.985874,0.0018789999999999998,-1.1469049999999998,0.379952,-0.19750299999999998,0.0077,0.06676900000000001,0.18382
113,1.722805,-1.4058680000000001,-0.019913,0.162233,0.9864299999999999,0.024853,-0.969888,0.696283,-0.336609,-0.027177999999999997,0.067479,0.008045
114,1.832393,-1.413723,0.073474,0.15104800000000002,0.9876889999999999,0.04044,-0.452273,0.921477,-0.623838,0.091338,0.026059,-0.299428
115,1.9071529999999999,-1.426361,0.12900699999999998,0.13580599999999998,0.9895870000000001,0.047484,-0.107243,1.10198,-0.774415,0.08192100000000001,-0.113962,-0.244246
116,1.975609,-1.443775,0.173261,0.116371,0.991944,0.049863,0.09160800000000001,1.2108299999999999,-0.994288,0.169777,-0.17302,-0.14819000000000002
117,2.08067,-1.462811,0.257235,0.093988,0.994175,0.052557000000000006,-0.128698,0.979826,-1.1098299999999999,0.24966999999999998,-0.044209,-0.038488999999999995
118,2.269504,-1.4775,0.43178500000000003,0.07125,0.9956510000000001,0.05985599999999999,-0.3845,0.620416,-1.051336,0.42542399999999997,-0.029845999999999998,-0.005122
119,2.465811,-1.483284,0.619475,0.054599,0.996173,0.068103,-0.348926,0.41723299999999997,-0.621402,0.44068599999999997,-0.0064269999999999996,-0.10332000000000001
120,2.557584,-1.482733,0.700567,0.048431,0.996125,0.073279,-0.151765,0.676413,-0.07342699999999999,0.384156,0.084228,-0.21306399999999998
121,2.555143,-1.48184,0.6818489999999999,0.049102999999999994,0.9960459999999999,0.073903,0.09224500000000001,0.814282,0.13533599999999998,0.310867,0.425951,-0.23044299999999998
122,2.527521,-1.483307,0.643937,0.050282,0.996175,0.071323,0.169016,0.276265,0.082082,0.42654,0.438609,-0.166141
123,2.465872,-1.484392,0.5827060000000001,0.053903,0.9962700000000001,0.06724400000000001,0.24814899999999998,-0.205215,0.273395,0.42561899999999997,0.407783,-0.152449
124,2.294877,-1.4837790000000002,0.42207,0.06501799999999999,0.996216,0.057496000000000005,0.6139640000000001,-0.764251,0.6964779999999999,0.261917,0.198043,0.102843
125,1.986168,-1.475689,0.13217,0.08679500000000001,0.995481,0.03828,1.037951,-1.066227,1.2531649999999999,-0.018436,-0.076795,0.177129
126,1.655215,-1.453905,-0.177777,0.116131,0.9931760000000001,0.009826999999999999,1.501415,-1.183941,1.5172,-0.08556799999999999,-0.16228900000000002,0.15509
127,1.3776979999999999,-1.420895,-0.434112,0.146506,0.988786,-0.028647000000000002,1.9345419999999998,-1.160008,1.5501049999999998,-0.08283099999999999,-0.009462,-0.163156
128,1.181965,-1.377569,-0.611977,0.177651,0.98139,-0.072782,2.1071459999999997,-0.8553540000000001,1.670561,-0.137459,0.508662,-0.034457
129,1.065277,-1.331352,-0.7238060000000001,0.20746799999999999,0.9714700000000001,-0.11483199999999999,2.03169,-0.051026,1.4585629999999998,-0.275965,0.566952,0.054604999999999994
130,1.005863,-1.2901690000000001,-0.7962090000000001,0.233902,0.960882,-0.148257,1.739059,0.8489059999999999,1.236381,-0.378616,0.422526,-0.019849000000000002
131,0.989576,-1.25179,-0.838096,0.26210300000000003,0.949548,-0.172179,1.479466,1.345836,1.333275,-0.20900300000000002,0.401573,-0.055039
132,0.9915200000000001,-1.213794,-0.8658049999999999,0.292437,0.936948,-0.19129300000000002,1.416881,1.36123,1.267657,-0.20640799999999998,0.327639,0.008477
133,0.9799610000000001,-1.179586,-0.9002389999999999,0.316651,0.9244479999999999,-0.21239899999999998,1.4988059999999999,0.7656310000000001,0.95814,-0.1055,0.24866300000000002,0.083203
134,0.949142,-1.1520350000000001,-0.9408549999999999,0.330541,0.913593,-0.236803,1.367264,0.025335,0.522335,0.014735,-0.094486,0.012697
135,0.909222,-1.130668,-0.974433,0.33615700000000004,0.904697,-0.26174200000000003,1.0690540000000002,-0.720847,0.370589,-0.0846,-0.212848,0.021996
136,0.869453,-1.116061,-0.994396,0.335546,0.8983770000000001,-0.28339699999999995,0.63054,-1.301617,0.266789,-0.101552,-0.35778899999999997,0.015681999999999998
137,0.832843,-1.106635,-0.999776,0.33119899999999997,0.8941969999999999,-0.301173,0.277486,-1.7234369999999999,0.299047,-0.10286600000000001,-0.39116100000000004,0.047496
138,0.803066,-1.099847,-0.992814,0.326445,0.8911379999999999,-0.31510900000000003,0.034388,-1.8326919999999998,0.39255999999999996,-0.114531,-0.417658,0.051817999999999996
139,0.780646,-1.094288,-0.9764309999999999,0.322781,0.888602,-0.325863,-0.129307,-1.8378400000000001,0.4897,-0.096447,-0.426703,0.10311500000000001
140,0.7666109999999999,-1.089716,-0.953783,0.32099099999999997,0.886496,-0.333284,-0.221482,-1.6289879999999999,0.555018,-0.032202999999999996,-0.370031,0.154253
141,0.758518,-1.0836430000000001,-0.929532,0.32198000000000004,0.883669,-0.339773,-0.114048,-1.375116,0.6441060000000001,-0.078236,-0.351626,0.144903
142,0.747972,-1.0760040000000002,-0.910905,0.32296199999999997,0.880067,-0.348088,0.005997,-1.386711,0.5092949999999999,-0.153025,-0.418443,0.19695
143,0.7306600000000001,-1.073617,-0.898611,0.318289,0.8789309999999999,-0.355191,-0.223791,-1.355725,0.153,-0.217398,-0.47846400000000006,0.323071
144,0.718458,-1.082192,-0.8876879999999999,0.308958,0.8829889999999999,-0.35336,-0.6724399999999999,-0.908416,-0.229925,-0.212644,-0.340737,0.325971
145,0.719849,-1.102753,-0.871531,0.297415,0.892453,-0.33920500000000003,-1.248019,-0.531618,-0.452346,-0.180869,-0.12734700000000002,0.254992
146,0.7484069999999999,-1.1345020000000001,-0.830354,0.287546,0.906324,-0.309647,-2.0820220000000003,-0.356568,-0.348369,-0.074107,0.362734,-0.278976
147,0.801551,-1.167937,-0.766221,0.28165100000000004,0.9199440000000001,-0.272696,-1.9288349999999999,-0.23866500000000002,-0.12953299999999998,0.14921099999999998,0.8359770000000001,-0.444421
148,0.8431639999999999,-1.176366,-0.719717,0.286951,0.923215,-0.255576,-0.252506,0.068948,0.61031,0.431097,0.9693780000000001,-0.562005
149,0.855626,-1.153033,-0.711141,0.306296,0.913999,-0.266036,0.818521,0.367608,1.183566,0.014184,-0.30969,-0.53827
150,0.864569,-1.127014,-0.707584,0.326651,0.903134,-0.27863000000000004,0.79451,0.198402,0.8951950000000001,-0.038748000000000005,-0.149594,-0.5921890000000001
151,0.855511,-1.106824,-0.715618,0.33781300000000003,0.894282,-0.293478,0.8653709999999999,-0.29576399999999997,0.537401,0.349123,1.05898,0.04183
152,0.8381959999999999,-1.090955,-0.72649,0.34319,0.8870680000000001,-0.308737,0.43484300000000004,-0.285339,0.43503500000000006,0.210567,1.145677,0.26048899999999997
153,0.850616,-1.0881530000000001,-0.70948,0.348864,0.8857709999999999,-0.306089,-0.542309,-0.160996,0.29025,-0.47981499999999994,0.42869700000000005,0.25451399999999996
154,0.869158,-1.095537,-0.689275,0.34947399999999995,0.889174,-0.295338,-0.478625,0.302773,-0.12437000000000001,-0.528917,-0.236525,0.255344
155,0.884424,-1.103941,-0.688968,0.348148,0.8929879999999999,-0.285222,-0.20353800000000002,0.895392,-0.44367399999999996,-0.47305600000000003,-0.27725,0.218648
156,0.8894190000000001,-1.118025,-0.701371,0.339765,0.8992379999999999,-0.27553,-0.287713,0.69196,-0.911883,-0.34802,-0.131355,0.190813
157,0.8794790000000001,-1.143767,-0.720878,0.31906599999999996,0.9102,-0.264044,-0.634443,0.160548,-1.449871,-0.068227,0.023592,0.27648
158,0.8621559999999999,-1.1789450000000001,-0.73455,0.28994200000000003,0.9242040000000001,-0.248529,-1.121421,-0.44910600000000006,-1.481333,0.12169400000000001,0.061728,0.49801000000000006
159,0.8627090000000001,-1.218253,-0.720248,0.262265,0.9384979999999999,-0.22455300000000003,-1.6581380000000001,-0.683692,-1.226272,0.046985,0.048792,0.531239
160,0.88679,-1.256904,-0.685361,0.23928600000000003,0.951139,-0.19509200000000002,-1.6054620000000002,-0.191323,-1.058824,-0.238263,0.08934299999999999,0.284875
161,0.923851,-1.288269,-0.653828,0.222425,0.960354,-0.168019,-1.1660709999999999,0.67882,-0.860317,-0.24174299999999999,0.09990299999999999,0.21454299999999998
162,0.980298,-1.310897,-0.620721,0.213439,0.9664159999999999,-0.14306300000000002,-0.9759639999999999,1.525863,-0.529994,-0.247069,0.095443,0.128628
163,1.052726,-1.327912,-0.581512,0.208911,0.970648,-0.11907999999999999,-0.762791,1.75613,-0.49034399999999995,-0.225879,-0.197409,0.051041
164,1.109553,-1.34291,-0.555034,0.202275,0.974146,-0.10053,-0.56795,1.414623,-0.5045689999999999,-0.019275999999999998,-0.241556,0.057255999999999994
165,1.164877,-1.356306,-0.524758,0.19551300000000002,0.977085,-0.08402899999999999,-0.614837,1.2504899999999999,-0.44379700000000005,0.050794,-0.267384,0.063552
166,1.236982,-1.368444,-0.47637799999999997,0.18983599999999998,0.9795959999999999,-0.065834,-0.7306279999999999,1.216433,-0.351627,0.0782,-0.21810700000000002,0.130287
167,1.327123,-1.3795110000000002,-0.40558,0.18445599999999998,0.9817610000000001,-0.045857999999999996,-0.86121,0.9004409999999999,-0.337179,0.06346900000000001,-0.05695599999999999,0.146551
168,1.426289,-1.389526,-0.31763,0.178349,0.983615,-0.025954,-0.912184,0.493622,-0.32205900000000004,0.043545,0.041272,0.140211
169,1.533034,-1.397281,-0.21829899999999997,0.172468,0.984984,-0.006516,-0.888761,0.491375,-0.313347,0.021624,0.08265800000000001,0.060028
170,1.634844,-1.4050040000000001,-0.12789,0.16463599999999998,0.9862879999999999,0.010559,-0.64281,0.719033,-0.44865299999999997,0.01055,0.085062,-0.11997999999999999
171,1.7049869999999998,-1.415715,-0.07341900000000001,0.153008,0.987999,0.020656,-0.23245700000000002,0.8867950000000001,-0.6660550000000001,0.040611,0.048622000000000005,-0.127529
172,1.757771,-1.431034,-0.041031,0.13681,0.9902489999999999,0.025882,-0.07693,1.094841,-0.879948,0.151764,-0.119399,-0.158252
173,1.8315169999999998,-1.449958,0.013377000000000002,0.11639200000000001,0.992708,0.031052999999999997,-0.19329000000000002,0.8978370000000001,-1.063174,0.210787,-0.112749,-0.125901
174,1.963352,-1.4691670000000001,0.130726,0.093648,0.99484,0.038775,-0.368898,0.695226,-1.12503,0.301005,-0.024869,-0.068941
175,2.151146,-1.483811,0.307193,0.072554,0.9962190000000001,0.047572,-0.375761,0.532613,-0.946477,0.37664899999999996,-0.018497,-0.045663999999999996
176,2.315461,-1.4919930000000001,0.463714,0.057791999999999996,0.9968969999999999,0.053265,-0.174421,0.36846799999999996,-0.565641,0.408853,0.038473,-0.097623
177,2.388888,-1.495841,0.528944,0.051102,0.997192,0.054558,0.029169999999999998,0.46743900000000005,-0.18512699999999999,0.280929,0.179215,-0.201179
178,2.401707,-1.4984959999999998,0.531468,0.048608,0.9973870000000001,0.053247,0.10042000000000001,0.508364,-0.09174700000000001,0.215964,0.264835,-0.183832
179,2.425912,-1.501198,0.548912,0.045533,0.9975790000000001,0.05237000000000001,0.052504999999999996,0.22755799999999998,-0.156883,0.339965,0.216639,-0.141542
180,2.434423,-1.504818,0.556495,0.042735,0.9978239999999999,0.050005,0.176832,-0.055437,-0.09049,0.391515,0.271768,-0.14563199999999998
181,2.3317360000000003,-1.507989,0.45719099999999996,0.045342,0.998028,0.043176,0.46553,-0.263499,0.274988,0.338996,0.242206,0.001303
182,2.0147169999999996,-1.5078770000000001,0.1505,0.056648000000000004,0.9980209999999999,0.026941000000000003,0.984324,-0.714476,0.715025,0.165581,0.013362,0.172263
183,1.582711,-1.493187,-0.265961,0.07740599999999999,0.9969899999999999,0.0009220000000000001,1.382631,-0.848899,1.217907,0.000109,-0.205517,0.119546
184,1.275428,-1.4594719999999999,-0.557217,0.106207,0.9938100000000001,-0.032314999999999997,1.713809,-0.8695950000000001,1.577033,-0.051626,-0.17169700000000002,0.017041
185,1.092244,-1.4127299999999998,-0.725496,0.139677,0.987534,-0.072461,2.049348,-0.747097,1.8206380000000002,-0.068022,0.229568,-0.053745
186,0.987135,-1.358328,-0.823408,0.17593,0.977513,-0.11618699999999998,2.17863,-0.196935,1.855019,-0.249279,0.5989329999999999,0.10105
187,0.933219,-1.307623,-0.8860469999999999,0.209013,0.965569,-0.154833,1.975827,0.653004,1.536319,-0.340986,0.5167149999999999,0.026309
188,0.913486,-1.262165,-0.927192,0.24044400000000002,0.95275,-0.185576,1.72333,1.1409799999999999,1.468769,-0.259777,0.413842,-0.059694000000000004
189,0.9175459999999999,-1.221428,-0.947591,0.271811,0.9395889999999999,-0.208029,1.385652,1.138379,1.346773,-0.21863400000000002,0.393541,-0.055337
190,0.9176700000000001,-1.186125,-0.966615,0.298007,0.9269219999999999,-0.22801999999999997,1.383995,0.7283109999999999,1.066344,-0.243533,0.33711599999999997,0.059639
191,0.894596,-1.155597,-0.999616,0.31459899999999996,0.9150360000000001,-0.252433,1.441805,0.114075,0.643451,0.086097,0.030764999999999997,0.017294999999999998
192,0.858375,-1.1292209999999998,-1.03203,0.323409,0.9040799999999999,-0.279344,1.285584,-0.56037,0.543879,0.027635000000000003,-0.108151,0.026643
193,0.821011,-1.107807,-1.053916,0.326845,0.8947209999999999,-0.304356,0.923076,-1.079636,0.444805,-0.028657,-0.321845,0.018346
194,0.786462,-1.091988,-1.062031,0.32611599999999996,0.887545,-0.325422,0.54879,-1.509776,0.444878,-0.088109,-0.369539,0.059416
195,0.756113,-1.079791,-1.0583209999999998,0.323495,0.8818590000000001,-0.34302,0.287946,-1.7691740000000002,0.53846,-0.077203,-0.359108,0.097597
196,0.734539,-1.0688229999999999,-1.04216,0.322484,0.876635,-0.357076,0.047097,-1.767989,0.717306,-0.032307999999999996,-0.357027,0.113469
197,0.727485,-1.059516,-1.01314,0.325369,0.8721190000000001,-0.36541999999999997,-0.205303,-1.50252,0.8818450000000001,-0.001731,-0.323291,0.12208800000000002
198,0.731797,-1.050115,-0.9790459999999999,0.332406,0.8674799999999999,-0.37009699999999995,-0.166674,-1.128031,0.970297,-0.003045,-0.256778,0.101802
199,0.735628,-1.038037,-0.9504549999999999,0.340828,0.861409,-0.376562,0.036692,-1.069796,0.8829809999999999,-0.03315,-0.291066,0.176291
200,0.7266279999999999,-1.028268,-0.932249,0.343,0.856406,-0.385886,0.019077,-1.3048110000000002,0.5295770000000001,-0.031797000000000006,-0.332175,0.285209
201,0.7116359999999999,-1.0272059999999998,-0.920041,0.33776999999999996,0.855857,-0.39167399999999997,-0.312602,-1.21146,0.116944,-0.019823,-0.35575100000000004,0.45145799999999997
202,0.700735,-1.038612,-0.906933,0.327165,0.861701,-0.387845,-0.887661,-1.0749389999999999,-0.224806,-0.040498,-0.166022,0.38339
203,0.7029489999999999,-1.063962,-0.878445,0.313797,0.8742850000000001,-0.370331,-1.790471,-1.173858,-0.279055,-0.033722,-0.11767799999999999,0.165848
204,0.731218,-1.101924,-0.820958,0.301747,0.8920790000000001,-0.336353,-2.541369,-1.0416370000000001,-0.192603,-0.002369,0.045071,-0.090451
205,0.783323,-1.137577,-0.745976,0.296213,0.9076190000000001,-0.29744499999999996,-2.138472,-0.592564,0.10873800000000002,0.292136,0.96291,-0.585307
206,0.822318,-1.145885,-0.69547,0.30204699999999995,0.911075,-0.280529,-0.30853200000000003,-0.264392,0.635983,0.271973,0.493328,-0.491932
207,0.8206209999999999,-1.127061,-0.687305,0.314064,0.9031540000000001,-0.29268299999999997,0.8380770000000001,-0.639772,0.8079109999999999,0.107949,0.052534000000000004,-0.407665
208,0.79493,-1.105098,-0.6966220000000001,0.32052600000000003,0.893508,-0.314474,0.720646,-0.912107,0.549998,0.055572,0.422334,0.022268
209,0.774277,-1.092857,-0.698385,0.321588,0.8879440000000001,-0.328822,0.41202700000000003,-0.9538409999999999,0.332115,0.283484,0.822993,0.20431
210,0.774037,-1.0887209999999998,-0.68452,0.324074,0.886035,-0.331522,-0.48818,-0.298196,0.45424200000000003,0.021752,0.876188,0.501154
211,0.817517,-1.0957219999999999,-0.639678,0.333644,0.889259,-0.312871,-1.111868,0.282395,0.458754,-0.314128,0.375344,0.314565
212,0.848511,-1.1001610000000002,-0.609192,0.34021399999999996,0.891281,-0.299769,-0.333431,0.162524,0.19088,-0.492054,-0.18904100000000001,0.106653
213,0.856191,-1.1020379999999999,-0.604154,0.341242,0.89213,-0.296051,-0.14110999999999999,0.151387,-0.120751,-0.36028499999999997,-0.264368,0.09613
214,0.8555440000000001,-1.110946,-0.605396,0.335037,0.896119,-0.29104800000000003,-0.353769,-0.089141,-0.524648,-0.25882,-0.24109,0.155138
215,0.838406,-1.130153,-0.6151760000000001,0.317141,0.9044770000000001,-0.285184,-0.538647,-0.665959,-1.036879,-0.143496,-0.229154,0.22578099999999998
216,0.80285,-1.156676,-0.629466,0.28944000000000003,0.9154709999999999,-0.279509,-0.8345899999999999,-1.373833,-1.180112,0.19478299999999998,-0.107152,0.486403
217,0.781971,-1.191307,-0.618653,0.261034,0.9288540000000001,-0.262829,-1.70143,-1.5674700000000001,-1.022481,0.176253,0.128031,0.6022609999999999
218,0.794696,-1.230955,-0.574555,0.23787199999999997,0.942808,-0.23348899999999997,-1.9723130000000002,-1.2693530000000002,-0.7480859999999999,0.037502999999999995,0.17952200000000001,0.3927
219,0.831361,-1.262606,-0.519935,0.224102,0.9528840000000001,-0.20439300000000002,-1.550792,-0.432753,-0.404382,-0.142513,0.156903,0.237078
220,0.889142,-1.283383,-0.458875,0.220106,0.9589799999999999,-0.178594,-1.241036,0.162666,-0.123107,-0.279005,0.157612,0.077947
221,0.9397690000000001,-1.297489,-0.41283000000000003,0.217916,0.962883,-0.159229,-0.7477739999999999,0.34471799999999997,-0.256628,-0.386754,-0.022637,-0.001736
222,0.9566030000000001,-1.31093,-0.39926300000000003,0.209968,0.966424,-0.148065,-0.449197,0.065564,-0.502012,-0.160438,-0.11608299999999999,0.062875
223,0.9586620000000001,-1.323862,-0.39660300000000004,0.200025,0.969666,-0.140438,-0.39528,-0.048593,-0.5057619999999999,-0.021192,-0.12335299999999999,0.14114000000000002
224,0.970153,-1.337272,-0.384328,0.190879,0.972857,-0.130768,-0.598037,0.007241,-0.43995200000000007,0.033593,-0.061265999999999994,0.22926300000000002
225,1.006575,-1.352623,-0.34775100000000003,0.18287,0.9762940000000001,-0.115728,-0.8380569999999999,0.043114,-0.411764,-0.018227,-0.034049,0.247534
226,1.056482,-1.368374,-0.298143,0.175002,0.979582,-0.098883,-0.8270190000000001,0.10918699999999999,-0.427795,-0.0894,-0.012251,0.240591
227,1.113019,-1.382609,-0.24322399999999997,0.16777999999999998,0.982345,-0.082662,-0.7876270000000001,0.158844,-0.359217,-0.099589,-0.048675,0.161734
228,1.174021,-1.3956549999999999,-0.18728,0.160671,0.9847020000000001,-0.067321,-0.687114,0.393069,-0.41222600000000004,-0.053859000000000004,-0.047553,0.044936000000000004
229,1.228515,-1.409197,-0.141583,0.15151900000000001,0.9869709999999999,-0.053987,-0.555816,0.49442299999999995,-0.564195,0.000138,0.006940999999999999,-0.083189
230,1.276624,-1.425226,-0.10508499999999998,0.138774,0.9894229999999999,-0.042043000000000004,-0.50612,0.695224,-0.739293,0.084691,0.033312,-0.07169600000000001
231,1.333708,-1.444265,-0.063684,0.12260499999999999,0.9920059999999999,-0.029625,-0.53354,0.8355469999999999,-0.908444,0.13409400000000002,0.004287,-0.06449099999999999
232,1.4109120000000002,-1.465756,-0.002071,0.10343800000000002,0.9944879999999999,-0.01668,-0.566498,0.755129,-1.015393,0.194276,0.027606,-0.070569
233,1.5031219999999998,-1.486751,0.077936,0.083664,0.9964700000000001,-0.005671,-0.41930600000000007,0.563711,-0.959641,0.22262600000000002,0.012745999999999999,-0.015356
234,1.564289,-1.503608,0.129268,0.067024,0.9977440000000001,-0.000436,-0.0996,0.434007,-0.769234,0.354378,-0.065859,-0.005973
235,1.547949,-1.51345,0.10310699999999999,0.057166999999999996,0.9983559999999999,-0.001306,0.158176,0.5325880000000001,-0.33813499999999996,0.245461,-0.042957999999999996,0.002268
236,1.473575,-1.517121,0.018265,0.05326,0.99856,-0.005194,0.23626100000000003,0.498654,-0.17838099999999998,0.219063,0.070074,0.027181999999999998
237,1.3757270000000001,-1.518325,-0.088952,0.051315,0.998624,-0.010139,0.281355,0.423529,-0.078625,0.26944,0.11894500000000001,0.00489
238,1.286545,-1.5155399999999999,-0.185354,0.052887,0.998474,-0.015452,0.290298,0.30737,0.190779,0.26603699999999997,0.186432,-0.006933
239,1.222905,-1.504774,-0.25193899999999997,0.06192,0.997821,-0.022455000000000003,0.404489,0.031469,0.622423,0.251144,0.246838,0.016397
240,1.1817739999999999,-1.4842870000000001,-0.29024,0.07986900000000001,0.99626,-0.032739,0.582543,-0.268129,1.064158,0.199733,0.10763699999999998,0.074777
241,1.138202,-1.454917,-0.32506999999999997,0.10491199999999999,0.993294,-0.048445,0.864783,-0.5420020000000001,1.376265,0.008705,0.017693,0.139799
242,1.0684209999999998,-1.419427,-0.3832,0.132118,0.988566,-0.072585,1.329489,-0.621478,1.4009770000000001,-0.068962,-0.012766,0.129164
243,0.98088,-1.3787770000000001,-0.460546,0.158556,0.981621,-0.106143,1.7759209999999999,-0.517566,1.401826,-0.111132,-0.014977,0.030536
244,0.909157,-1.332582,-0.527547,0.186154,0.9717610000000001,-0.144965,1.987397,-0.156401,1.475479,-0.178021,0.25855500000000003,-0.042551
245,0.8686709999999999,-1.285866,-0.573048,0.214588,0.9596809999999999,-0.181526,1.847223,0.39193,1.4022270000000001,-0.268787,0.32578,-0.064217
246,0.8592639999999999,-1.2448629999999998,-0.597116,0.242488,0.9473520000000001,-0.20907199999999998,1.449618,0.817802,1.273922,-0.25085,0.369909,-0.054202999999999994
247,0.8696809999999999,-1.210151,-0.60623,0.269629,0.9356690000000001,-0.22762,1.1477030000000001,0.989576,1.203227,-0.08248,0.232956,0.047749
248,0.879026,-1.178896,-0.61379,0.294131,0.924185,-0.24363400000000002,1.115055,0.6570229999999999,1.012213,-0.065325,0.133463,0.086727
249,0.8672989999999999,-1.151813,-0.6320939999999999,0.310233,0.9135030000000001,-0.263166,1.159276,-0.042748,0.6790649999999999,0.050789999999999995,0.047969,0.083188
250,0.836008,-1.128889,-0.65566,0.317305,0.9039379999999999,-0.28670999999999996,1.084491,-0.719282,0.49888000000000005,0.018892,-0.13336900000000002,0.056576999999999995
251,0.80162,-1.1091229999999999,-0.6714720000000001,0.320038,0.895308,-0.309819,0.805203,-1.157138,0.48146700000000003,-0.085495,-0.23348899999999997,0.059178999999999995
252,0.772116,-1.094479,-0.674601,0.319872,0.88869,-0.328484,0.432775,-1.417878,0.47492700000000004,-0.083971,-0.261859,0.034263999999999996
253,0.749631,-1.083558,-0.665363,0.31900100000000003,0.8836290000000001,-0.342677,0.146705,-1.5887870000000002,0.572492,-0.081651,-0.22881300000000002,0.031886000000000005
254,0.735183,-1.0750979999999999,-0.6450600000000001,0.319019,0.8796370000000001,-0.352783,-0.10351099999999999,-1.606458,0.679726,-0.059147000000000005,-0.156645,0.035934
255,0.730697,-1.069067,-0.615625,0.320969,0.8767520000000001,-0.358154,-0.322872,-1.4578440000000001,0.7346189999999999,-0.021866,-0.135221,0.046585
256,0.7328640000000001,-1.064998,-0.581867,0.324128,0.8747879999999999,-0.360107,-0.409689,-1.3147719999999998,0.728488,-0.030961000000000002,-0.16714600000000002,0.104782
257,0.732549,-1.0624069999999999,-0.553191,0.32553000000000004,0.8735290000000001,-0.36189299999999996,-0.344517,-1.274707,0.5099060000000001,-0.038756,-0.24126599999999998,0.19453499999999999
258,0.724008,-1.0637530000000002,-0.532616,0.321648,0.874184,-0.363779,-0.444963,-1.3531229999999999,0.22729499999999997,-0.021904,-0.312798,0.313303
259,0.715375,-1.072832,-0.5117470000000001,0.313276,0.8785569999999999,-0.360536,-0.837518,-1.3231680000000001,0.003392,-0.011289,-0.268098,0.370515
260,0.715771,-1.091127,-0.483129,0.302819,0.8871479999999999,-0.348223,-1.300429,-1.19106,-0.131402,-0.028329000000000003,-0.147524,0.286425
261,0.7302569999999999,-1.115741,-0.44204799999999994,0.293174,0.8982370000000001,-0.32742899999999997,-1.660611,-1.055743,-0.09243,-0.055884,-0.061933,0.084204
262,0.763514,-1.142799,-0.38461,0.286983,0.909799,-0.299827,-1.8875560000000002,-0.85946,0.036056,-0.04858,0.153098,-0.20821399999999998
263,0.8078770000000001,-1.1642649999999999,-0.318818,0.285812,0.9184979999999999,-0.27324299999999996,-1.489341,-0.7809149999999999,0.296175,0.012604,0.49283299999999997,-0.368343
264,0.837799,-1.168456,-0.26878,0.290995,0.9201469999999999,-0.261992,-0.45596099999999995,-0.802821,0.6153420000000001,0.004903,0.552891,-0.341494
265,0.84093,-1.1572120000000001,-0.24806399999999998,0.299506,0.9156860000000001,-0.267961,0.31382899999999997,-0.785784,0.748884,0.003594,0.119394,-0.15629400000000002
266,0.835,-1.139073,-0.240473,0.310176,0.9082459999999999,-0.28083600000000003,0.551795,-0.521425,0.766231,-0.030864,-0.13699,-0.081926
267,0.831571,-1.123177,-0.23912600000000003,0.319841,0.90148,-0.291589,0.436618,-0.072504,0.49031800000000003,-0.01169,-0.111304,-0.067984
268,0.834834,-1.115221,-0.237035,0.32609699999999997,0.898008,-0.29535,0.11742000000000001,0.12343299999999999,0.252828,0.092589,0.20720100000000002,0.040055
269,0.842108,-1.114167,-0.228485,0.328943,0.897544,-0.2936,-0.28228200000000003,-0.136797,0.142479,0.037176999999999995,0.651651,0.099844
270,0.859619,-1.120903,-0.20195,0.329445,0.900494,-0.283842,-0.856381,-0.413839,0.12493699999999999,-0.00132,0.8397709999999999,0.188612
271,0.877866,-1.130599,-0.169184,0.327835,0.904668,-0.27219299999999996,-0.702294,-0.627121,0.048307,-0.156433,0.606563,0.166099
272,0.870865,-1.133261,-0.163375,0.324079,0.905799,-0.27293,0.07416299999999999,-0.574966,-0.080932,-0.281034,-0.146506,0.02647
273,0.8518879999999999,-1.135053,-0.17608,0.317619,0.906557,-0.277961,0.13133399999999998,-0.233181,-0.35443600000000003,-0.192131,-0.2464,0.011359000000000001
274,0.835224,-1.141291,-0.191201,0.308744,0.909172,-0.279414,-0.058651999999999996,-0.131906,-0.47446499999999997,-0.150449,-0.314384,0.083186
275,0.826508,-1.152851,-0.197551,0.298546,0.913925,-0.274956,-0.450118,-0.175036,-0.538033,-0.119255,-0.303726,0.314247
276,0.830141,-1.170833,-0.187169,0.287365,0.921075,-0.262736,-0.969673,-0.366207,-0.498688,-0.076168,-0.23031,0.35593600000000003
277,0.854241,-1.194595,-0.150882,0.277027,0.930067,-0.241288,-1.469192,-0.542804,-0.391924,-0.0008730000000000001,0.01845,0.36544899999999997
278,0.8920299999999999,-1.2192290000000001,-0.09704700000000001,0.26802600000000004,0.9388340000000001,-0.216196,-1.477657,-0.672045,-0.298883,-0.007726,0.24732300000000002,0.26262800000000003
279,0.922688,-1.23872,-0.048484,0.259887,0.945367,-0.196792,-1.099716,-0.8056409999999999,-0.251206,-0.081099,0.22405100000000003,0.283447
280,0.93947,-1.2544440000000001,-0.011913,0.251119,0.950376,-0.183605,-0.845043,-0.9489790000000001,-0.324019,-0.229879,0.130221,0.26610900000000004
281,0.9378879999999999,-1.2687979999999999,0.006804000000000001,0.239802,0.954744,-0.17591400000000001,-0.531834,-0.934668,-0.444695,-0.239008,0.009444,0.187815
282,0.923951,-1.28039,0.007108,0.228479,0.9581280000000001,-0.172556,-0.262383,-0.555342,-0.43368500000000004,-0.172724,0.008851999999999999,0.16089900000000001
283,0.917766,-1.287866,0.0067,0.221712,0.960242,-0.16960899999999998,-0.22732800000000003,-0.136613,-0.21712800000000002,-0.107545,4e-05,0.20217100000000002
284,0.933008,-1.292557,0.02139,0.22064899999999998,0.96154,-0.163526,-0.35940300000000003,0.153695,0.025131999999999998,-0.08196200000000001,-0.008948999999999999,0.200422
285,0.968454,-1.2955020000000002,0.053652,0.223971,0.9623450000000001,-0.153998,-0.48671499999999995,0.235521,0.18544000000000002,-0.070482,-0.0023539999999999998,0.21039499999999997
286,1.012948,-1.299334,0.095237,0.22746799999999998,0.9633799999999999,-0.14193,-0.559381,0.201716,0.177498,-0.038092,0.075423,0.25245
287,1.057051,-1.304306,0.13756500000000002,0.22933,0.964701,-0.129408,-0.558055,0.13403800000000002,0.051544000000000006,-0.008688,0.077886,0.221235
288,1.090371,-1.310179,0.170238,0.22848400000000002,0.966231,-0.119075,-0.44574300000000006,0.062819,-0.084313,0.007844,0.07608200000000001,0.18394000000000002
289,1.120128,-1.317611,0.199042,0.22545500000000002,0.9681200000000001,-0.10909300000000001,-0.341869,0.082962,-0.149843,-0.012259,0.035329,0.07181599999999999
290,1.1390639999999999,-1.323759,0.216229,0.22206900000000002,0.969641,-0.102312,-0.254002,0.125437,-0.19201300000000002,-0.014962,0.020334,0.058122
291,1.156849,-1.33026,0.23032199999999997,0.21807800000000002,0.97121,-0.095809,-0.17976099999999998,0.23608200000000001,-0.220478,-0.044952,-0.003025,0.062376999999999995
292,1.173844,-1.336393,0.240713,0.21417600000000003,0.9726530000000001,-0.089784,-0.105495,0.371152,-0.229746,-0.04198,0.012485,0.080888
293,1.1832049999999998,-1.341048,0.241404,0.210812,0.9737239999999999,-0.086062,-0.080665,0.47,-0.195516,-0.033581,0.029313,0.07445
294,1.194302,-1.344954,0.241851,0.208215,0.974606,-0.08231799999999999,-0.060126,0.553987,-0.17091099999999998,-0.033044,0.043262,0.063413
295,1.204468,-1.3488879999999999,0.24051,0.20546,0.9754790000000001,-0.078824,-0.012041,0.5634359999999999,-0.178065,-0.034927,0.095749,0.034878
296,1.2087450000000002,-1.352179,0.23383099999999998,0.202792,0.976198,-0.076807,0.050616,0.5099100000000001,-0.166877,-0.08916,0.069242,0.025934
297,1.205441,-1.355518,0.221392,0.199491,0.976917,-0.076311,0.09085499999999999,0.393851,-0.215585,-0.095335,0.027583999999999997,0.040468000000000004
298,1.200447,-1.360781,0.209191,0.19431099999999998,0.9780280000000001,-0.07544400000000001,0.030111000000000002,0.320914,-0.304578,-0.10198,-0.08935599999999999,0.086339
299,1.2026370000000002,-1.3680430000000001,0.204468,0.187844,0.9795159999999999,-0.07246,-0.12953499999999998,0.36001,-0.352745,0.009803000000000001,0.00283,0.090725
300,1.221544,-1.375832,0.21526900000000002,0.182004,0.9810549999999999,-0.06628200000000001,-0.274547,0.45501899999999995,-0.276968,0.051410000000000004,0.071802,0.136686
301,1.249932,-1.382525,0.23385999999999998,0.177575,0.9823290000000001,-0.05901699999999999,-0.24049299999999998,0.5343979999999999,-0.17748699999999998,0.046577,0.020340999999999998,0.11146099999999999
302,1.279617,-1.387526,0.253144,0.17454,0.983253,-0.052309,-0.206617,0.511763,-0.140902,0.028295999999999998,-0.009452,0.07988200000000001
303,1.3012920000000001,-1.391214,0.266479,0.17213499999999998,0.9839180000000001,-0.047548,-0.101616,0.365487,-0.148527,0.005676,-0.011384,0.084352
304,1.31569,-1.394252,0.274594,0.169907,0.984456,-0.04431,-0.050766000000000006,0.29284,-0.140601,-0.010331,0.027933999999999997,0.09612899999999999
305,1.328054,-1.396749,0.281267,0.168054,0.984892,-0.041615,-0.039213,0.275661,-0.116997,-0.03425,-0.011473,0.08583500000000001
306,1.3358459999999999,-1.398478,0.283464,0.166717,0.98519,-0.039907,0.0012369999999999998,0.282866,-0.08895,-0.048004000000000005,-0.063559,0.045294
307,1.340457,-1.399845,0.282103,0.165588,0.9854229999999999,-0.038831,0.039596,0.296482,-0.064131,-0.035095,-0.07961599999999999,-0.016284
308,1.34392,-1.400506,0.279592,0.16508699999999998,0.9855360000000001,-0.038111,0.044627999999999994,0.28028000000000003,-0.0128,-0.003573,-0.039491000000000005,-0.037237
309,1.34493,-1.400185,0.27616999999999997,0.165434,0.9854809999999999,-0.038015,0.06207000000000001,0.174559,0.036594999999999996,0.053697,0.061852,0.017522
310,1.349478,-1.399734,0.277836,0.16603800000000002,0.985405,-0.037358999999999996,-0.029882,0.129078,0.034943,0.102975,0.109734,0.057317999999999994
311,1.357625,-1.400949,0.284078,0.165165,0.985611,-0.035752,-0.068948,0.08926,-0.09667,0.059536,0.068909,0.06700199999999999
312,1.357068,-1.405519,0.28228200000000003,0.16074000000000002,0.9863729999999999,-0.034887,-0.036213999999999996,0.046294,-0.302553,0.010311,0.019777,0.06819700000000001
313,1.351077,-1.412565,0.27569,0.153738,0.987507,-0.034332999999999995,-0.022009,0.02108,-0.402835,-0.0008150000000000001,-0.000874,0.08447400000000001
314,1.3455709999999999,-1.420734,0.268474,0.145678,0.988762,-0.033377,-0.025447,0.142787,-0.46603999999999995,-0.050844,-0.017754,0.053076
315,1.342211,-1.430144,0.258641,0.136494,0.990125,-0.031756,-0.019679,0.42102700000000004,-0.521903,-0.137821,0.001559,0.035006
316,1.337367,-1.441231,0.241826,0.125646,0.991618,-0.029874,0.007502,0.6854680000000001,-0.608578,-0.154424,-0.034282,0.042462
317,1.323555,-1.4537879999999999,0.211115,0.113134,0.9931620000000001,-0.028556,0.064307,0.9113879999999999,-0.677905,-0.033010000000000005,-0.012282,0.0051329999999999995
318,1.291232,-1.466777,0.158675,0.099735,0.9945950000000001,-0.028631999999999998,0.149227,1.013516,-0.716967,0.049099000000000004,0.046756,-0.033608
319,1.223185,-1.479219,0.072009,0.08590700000000001,0.9958100000000001,-0.031125999999999997,0.266752,0.82663,-0.703088,0.227875,0.202738,-0.041094
320,1.107733,-1.489636,-0.057495000000000004,0.07245499999999999,0.996708,-0.036175,0.311419,0.580304,-0.680028,0.238992,-0.009755,-0.075718
321,0.977081,-1.497303,-0.195404,0.060782,0.997301,-0.041025,0.224798,0.190192,-0.54981,0.247797,-0.079729,-0.08515
322,0.8673200000000001,-1.503668,-0.305581,0.051073,0.997748,-0.043322,0.045087999999999996,-0.059892999999999995,-0.45781000000000005,0.237181,-0.132056,-0.024961
323,0.791406,-1.511515,-0.38001,0.04206,0.998243,-0.041558,-0.175867,-0.080444,-0.455054,0.133431,-0.157103,0.036996
324,0.728953,-1.522604,-0.44083599999999995,0.03199,0.9988389999999999,-0.035822,-0.348335,-0.075272,-0.533177,0.10787200000000001,-0.126174,0.046686
325,0.623208,-1.536333,-0.546053,0.019985,0.9994059999999999,-0.027805,-0.423291,0.001027,-0.634211,0.08707000000000001,-0.042573,0.025730000000000003
326,0.336323,-1.5496969999999999,-0.833952,0.006843000000000001,0.999777,-0.019573,-0.389739,0.089401,-0.65225,0.14940699999999998,0.029352,-0.026126999999999997
327,-0.33279000000000003,-1.5560889999999998,-1.506731,-0.004636,0.999892,-0.013412,-0.250975,0.234337,-0.521143,0.215482,0.043901,-0.055878
328,-0.797689,-1.555633,-1.978823,-0.010475,0.999885,-0.010221,-0.11451199999999999,0.404597,-0.32706,0.361168,-0.037986,-0.09942899999999999
329,-0.983402,-1.553264,-2.173346,-0.014214,0.9998459999999999,-0.009463,0.004176,0.40665,-0.144636,0.379067,-0.08830199999999999,-0.10259700000000001
330,-0.933501,-1.5517809999999999,-2.12906,-0.014939,0.999819,-0.011059999999999999,0.09134,0.200336,-0.041213,0.40625,-0.108874,-0.07710499999999999
331,-0.885151,-1.550818,-2.082979,-0.015144999999999999,0.9998,-0.01239,0.034096,0.083201,-0.003007,0.384652,-0.09564099999999999,-0.049759
332,-0.9079799999999999,-1.550981,-2.10616,-0.015288,0.9998040000000001,-0.011934,-0.050727999999999995,-0.046428,-0.013047999999999999,0.365386,-0.068758,-0.046171
333,-0.901716,-1.552132,-2.0958330000000003,-0.014279,0.999826,-0.011290999999999999,-0.061259,-0.311411,-0.071534,0.369717,-0.027749,-0.00238
334,-0.849291,-1.553383,-2.033931,-0.012692,0.999848,-0.011165999999999999,-0.08541599999999999,-0.5676399999999999,-0.17606,0.429807,-0.085328,0.05653
335,-0.970685,-1.553482,-2.141746,-0.013875,0.99985,-0.009493999999999999,-0.165948,-0.741826,-0.23621999999999999,0.44547,-0.12607100000000002,0.048923
336,-1.279333,-1.553175,-2.435032,-0.016413,0.9998450000000001,-0.004924,-0.295628,-0.7928270000000001,-0.156944,0.412897,-0.132947,0.046062
337,-1.7040400000000002,-1.557157,-2.844229,-0.012878,0.999907,0.001726,-0.418897,-0.79928,-0.034950999999999996,0.324264,-0.029294999999999998,-0.116823
338,-2.333718,-1.555102,2.825755,-0.010953000000000001,0.999877,0.010472,-0.424807,-0.8581270000000001,0.034518,0.344388,0.072862,-0.163731
339,-2.693845,-1.550114,2.483966,-0.008773999999999999,0.9997860000000001,0.018268,-0.350587,-0.950044,0.045836,0.384094,0.215256,-0.168521
340,-2.853707,-1.5463770000000001,2.343848,-0.0068319999999999995,0.9997020000000001,0.023071,-0.13020199999999998,-0.993661,0.10618399999999999,0.32813600000000004,0.470116,-0.031555
341,-3.07859,-1.549036,2.137982,-0.001344,0.999763,0.021312,0.22743000000000002,-0.9404819999999999,0.350032,0.231584,0.44936400000000004,-0.048274
342,2.418285,-1.553164,1.367418,0.011337,0.9998450000000001,0.01284,0.5083340000000001,-0.7034060000000001,0.758683,0.141602,0.43475600000000003,-0.0718
343,1.5469899999999999,-1.539285,0.508907,0.031225,0.9995040000000001,-0.000743,0.780267,-0.613105,1.117253,-0.005361,0.301095,0.038723
344,1.213091,-1.509218,0.18742799999999998,0.057513999999999996,0.9981049999999999,-0.021498,1.122291,-0.609278,1.461468,-0.125659,0.11894500000000001,0.09535
345,1.078602,-1.470113,0.063636,0.08851,0.994936,-0.04746,1.338418,-0.5425270000000001,1.630603,-0.149087,0.000197,0.047109
346,1.012448,-1.425991,0.007204,0.12233800000000002,0.989534,-0.076419,1.418083,-0.44550500000000004,1.807292,-0.079415,0.312407,-0.20863099999999998
347,0.989092,-1.379159,-0.012602,0.159105,0.9816940000000001,-0.104629,1.446044,-0.041270999999999995,1.925541,-0.10667599999999999,0.6264,-0.254258
348,0.9689770000000001,-1.327357,-0.036726,0.198665,0.970515,-0.136446,1.7871110000000001,0.239362,2.046137,-0.120983,0.680868,-0.289549
349,0.9461280000000001,-1.2740719999999999,-0.062511,0.23715300000000003,0.956299,-0.170983,1.7731080000000001,0.007992,1.843373,-0.245164,0.359191,-0.06415499999999999
350,0.9125120000000001,-1.2290370000000002,-0.092501,0.26509699999999997,0.942166,-0.20501599999999998,1.7238069999999999,-0.5161720000000001,1.366205,-0.138602,0.017459,0.079451
351,0.8630129999999999,-1.190807,-0.12675799999999998,0.281806,0.9286690000000001,-0.24113600000000002,1.616709,-1.02757,0.943097,-0.105399,-0.052004999999999996,0.173692
352,0.816772,-1.160319,-0.154474,0.290869,0.9169309999999999,-0.273167,1.262627,-0.9711639999999999,0.73118,-0.157995,-0.47602799999999995,0.20680700000000002
353,0.792514,-1.13497,-0.162247,0.300618,0.9065209999999999,-0.29636999999999997,0.848814,-0.8369770000000001,0.8328030000000001,-0.11990799999999999,-0.434964,0.14893900000000002
354,0.784528,-1.113201,-0.154095,0.312112,0.897117,-0.312656,0.5288229999999999,-0.703174,0.9489690000000001,-0.049691,-0.42845900000000003,0.100788
355,0.7904909999999999,-1.09305,-0.133697,0.326755,0.888033,-0.323443,0.321736,-0.57311,1.103316,0.018734999999999998,-0.398547,0.040194
356,0.801184,-1.0713270000000001,-0.108107,0.34397,0.8778370000000001,-0.333279,0.354917,-0.647291,1.24358,0.003442,-0.398421,0.011394
357,0.805127,-1.048511,-0.083357,0.359631,0.8666809999999999,-0.345713,0.33734699999999995,-1.0518100000000001,1.18736,-0.046581,-0.44999399999999995,0.043574
358,0.795534,-1.030447,-0.063986,0.367421,0.8575290000000001,-0.360047,0.23142100000000002,-1.46126,0.8431770000000001,-0.062764,-0.515046,0.09764199999999999
359,0.77059,-1.0211270000000001,-0.053104,0.36387800000000003,0.8526969999999999,-0.374818,0.052662,-1.864455,0.32969899999999996,-0.048906,-0.588644,0.162523
360,0.735208,-1.02305,-0.048146,0.34929099999999996,0.8537,-0.386239,-0.310795,-1.995613,-0.121325,0.050062,-0.587129,0.25446399999999997
361,0.704533,-1.0361360000000002,-0.039968000000000004,0.330017,0.860442,-0.388225,-0.828622,-1.805518,-0.323875,0.148621,-0.431029,0.28779099999999996
362,0.691426,-1.056273,-0.017819,0.313786,0.8705280000000001,-0.37909,-1.301786,-1.439474,-0.077685,0.32571,-0.22520300000000001,0.137101
363,0.717687,-1.077173,0.033236,0.31159699999999996,0.8806219999999999,-0.356933,-1.734475,-0.544298,0.476825,0.461032,0.151605,-0.178147
364,0.787032,-1.089207,0.108546,0.328049,0.88626,-0.326979,-1.4605700000000001,0.4495,1.063919,0.34867800000000004,0.650407,-0.529558
365,0.842767,-1.0832680000000001,0.165857,0.349677,0.883494,-0.311693,-0.284955,-0.03402,1.082362,-0.351858,0.380377,-0.842192
366,0.8460270000000001,-1.0688469999999999,0.181265,0.360193,0.8766459999999999,-0.31896599999999997,0.280442,-0.719209,0.6470819999999999,-0.273294,0.6816270000000001,-0.613804
367,0.8466040000000001,-1.058502,0.195715,0.367151,0.8716219999999999,-0.32474899999999995,-0.168638,-0.463046,0.645753,0.284903,2.269796,0.148571
368,0.891576,-1.0569030000000001,0.24994499999999997,0.382463,0.8708370000000001,-0.30879,-1.278576,0.002964,0.9535969999999999,-0.745531,0.518018,0.25182899999999997
369,0.923227,-1.055124,0.292405,0.393278,0.8699610000000001,-0.297466,-0.27471599999999996,-0.424997,0.546687,-0.738463,-0.16235,0.166042
370,0.9146770000000001,-1.0489629999999999,0.285262,0.39496,0.866907,-0.304082,0.490696,0.234269,-0.08119900000000001,-0.61931,-0.7418,0.058217
371,0.9208729999999999,-1.0517459999999998,0.272883,0.394914,0.868291,-0.300167,-0.119309,1.125192,-0.43911400000000006,-0.697068,-0.24928699999999998,0.23626399999999997
372,0.9346200000000001,-1.072837,0.26361999999999997,0.384184,0.878559,-0.283765,-0.589942,0.885531,-1.368243,-0.645155,-0.169773,0.276853
373,0.9215690000000001,-1.11296,0.245862,0.352069,0.897011,-0.267216,-1.071197,-0.297799,-2.063365,0.054852,0.461372,0.7023050000000001
374,0.910852,-1.164387,0.24565,0.312294,0.9185459999999999,-0.24234499999999998,-1.864516,-0.555435,-1.9489349999999999,-0.036186,0.330325,0.6273850000000001
375,0.9279459999999999,-1.215811,0.271753,0.278179,0.937652,-0.208352,-1.8275709999999998,-0.114649,-1.6554810000000002,-0.292065,0.167954,0.42585100000000004
376,0.951142,-1.256717,0.28435900000000003,0.25148200000000004,0.951081,-0.179404,-1.121381,1.010229,-1.455436,-0.36435100000000004,0.07269199999999999,0.343085
377,0.984726,-1.289133,0.285202,0.23154499999999997,0.9605940000000001,-0.153718,-0.8632280000000001,1.947964,-1.219826,-0.297189,0.042259,0.287507
378,1.0391780000000002,-1.314094,0.29473699999999997,0.218824,0.967232,-0.128689,-0.708322,2.365646,-0.8454020000000001,-0.174742,-0.121422,0.10996700000000001
379,1.099469,-1.3315,0.30949899999999997,0.211144,0.971505,-0.107607,-0.50742,2.2201,-0.58637,0.020362,-0.099053,0.080782
380,1.160137,-1.3433979999999999,0.328882,0.20666500000000002,0.9742559999999999,-0.089985,-0.442068,2.0219259999999997,-0.368811,0.124649,-0.146406,0.177174
381,1.226348,-1.351995,0.357178,0.204272,0.976158,-0.073283,-0.461437,1.8670490000000002,-0.24910700000000002,0.10719000000000001,-0.280922,0.18624300000000002
382,1.301273,-1.359427,0.399988,0.202183,0.9777450000000001,-0.055852,-0.613772,1.489223,-0.203753,0.072841,-0.296714,0.101369
383,1.38524,-1.366601,0.461707,0.19925299999999999,0.979225,-0.037403,-0.729007,1.014501,-0.20181300000000002,0.030499000000000002,-0.106056,0.061588
384,1.475284,-1.373861,0.535378,0.194723,0.980671,-0.018655,-0.8241930000000001,0.8544129999999999,-0.311232,0.028712,0.046185000000000004,0.107339
385,1.586342,-1.382526,0.629916,0.187084,0.9823290000000001,0.002909,-0.9649059999999999,0.998132,-0.43204,0.016789,-0.010787,0.06996799999999999
386,1.710241,-1.391712,0.732113,0.176344,0.984007,0.024751,-0.810562,1.220933,-0.605367,0.04439,-0.124785,-0.175782
387,1.8221479999999999,-1.403348,0.82294,0.16137,0.9860129999999999,0.041437,-0.56935,1.084372,-0.762672,0.19254200000000002,-0.068472,-0.21132800000000002
388,1.926333,-1.415537,0.905108,0.144904,0.9879709999999999,0.053805,-0.360732,1.194504,-0.779516,0.195718,0.060002,-0.149447
389,2.010977,-1.428379,0.967182,0.128343,0.989876,0.06045,-0.068862,1.135788,-0.7346729999999999,0.183257,0.117073,-0.153559
390,2.070878,-1.439084,1.006026,0.11518199999999999,0.9913379999999999,0.062936,0.026712,0.9919319999999999,-0.540473,0.178199,0.16489600000000001,-0.130624
391,2.132605,-1.447432,1.051456,0.104067,0.9924,0.06550700000000001,-0.10486400000000001,0.717387,-0.500448,0.13755599999999998,0.170335,-0.077486
392,2.2174840000000002,-1.453142,1.1253469999999999,0.09361,0.993087,0.070675,-0.217829,0.546117,-0.46256099999999994,0.210864,0.167268,-0.142254
393,2.283056,-1.4581790000000001,1.178899,0.084989,0.9936649999999999,0.073385,0.028674,0.673689,-0.344567,0.255237,0.142535,-0.20058199999999998
394,2.2957509999999997,-1.465877,1.177534,0.078317,0.994501,0.069379,0.393129,0.6741689999999999,-0.248018,0.272757,0.154135,-0.170194
395,2.240057,-1.474696,1.1106690000000001,0.075171,0.9953860000000001,0.059463999999999996,0.61197,0.45199300000000003,-0.021878,0.18978299999999998,0.153128,-0.056701999999999995
396,2.087668,-1.479695,0.9536370000000001,0.07899400000000001,0.9958530000000001,0.044902,0.8281629999999999,0.032128,0.359389,0.11535699999999999,0.12351600000000001,0.055638
397,1.837007,-1.4753049999999999,0.705321,0.091886,0.995444,0.025056000000000002,1.0882889999999998,-0.279496,0.807053,-0.035459,-0.058448,0.129546
398,1.548074,-1.458836,0.421829,0.11161099999999999,0.9937389999999999,-0.002537,1.517786,-0.366168,1.063333,-0.089501,-0.08015,0.129047
399,1.291175,-1.4310889999999998,0.16860999999999998,0.13377999999999998,0.9902569999999999,-0.038414,1.909723,-0.213337,1.132105,-0.14740699999999998,-0.010246,0.036049
400,1.0983129999999999,-1.394978,-0.024738999999999997,0.15570599999999998,0.984584,-0.07958,2.139071,-0.007376000000000001,1.108874,-0.139485,0.208669,-0.007654
401,0.9758690000000001,-1.355163,-0.154083,0.177171,0.976841,-0.119894,1.9992159999999999,0.372648,1.033703,-0.21931599999999998,0.260021,0.12522
402,0.9178139999999999,-1.319218,-0.226278,0.197695,0.968521,-0.151221,1.588402,0.734542,0.9320930000000001,-0.255175,0.193268,0.069632
403,0.889289,-1.285436,-0.2739,0.21860100000000002,0.9595600000000001,-0.17732,1.557225,0.9316770000000001,0.944441,-0.155475,0.226399,-0.00023199999999999997
404,0.8708969999999999,-1.248261,-0.31337800000000005,0.242436,0.948435,-0.20415899999999998,1.7005990000000002,0.961363,1.121661,-0.08881,0.302374,0.012417000000000001
405,0.854374,-1.20849,-0.349558,0.267282,0.935082,-0.232738,1.748158,0.803767,1.064511,-0.090585,0.251182,0.14463399999999998
406,0.8348780000000001,-1.1725709999999998,-0.38203000000000004,0.28741700000000003,0.921751,-0.260294,1.542198,0.32709499999999997,0.834016,-0.022173,0.11098,0.141275
407,0.811674,-1.142896,-0.405066,0.30101700000000003,0.909839,-0.285599,1.243902,-0.354443,0.766576,-0.01171,-0.025713999999999997,0.09871
408,0.789132,-1.117583,-0.416542,0.310754,0.8990450000000001,-0.308442,0.932002,-0.724931,0.713597,-0.061302999999999996,-0.15601800000000002,0.05230800000000001
409,0.77208,-1.097755,-0.41738000000000003,0.317825,0.8901870000000001,-0.326406,0.603039,-0.849309,0.667662,-0.091675,-0.17789100000000002,0.013753999999999999
410,0.759628,-1.082236,-0.41042399999999996,0.32321300000000003,0.883009,-0.340316,0.371041,-0.975194,0.648043,-0.13189800000000002,-0.11561400000000001,0.006148
411,0.747749,-1.069194,-0.399777,0.326952,0.876813,-0.352546,0.282868,-1.145262,0.6305529999999999,-0.15104800000000002,-0.110898,0.014717
412,0.7345,-1.056647,-0.387678,0.3296,0.870711,-0.36498400000000003,0.254943,-1.173978,0.6432140000000001,-0.156886,-0.11880399999999999,0.074746
413,0.7230810000000001,-1.044427,-0.374263,0.332427,0.8646370000000001,-0.37667399999999995,0.220847,-1.138808,0.668568,-0.096313,-0.11317200000000001,0.147288
414,0.71332,-1.0329620000000002,-0.359473,0.3352,0.85882,-0.387372,0.149573,-1.119277,0.641339,-0.04748,-0.11619000000000002,0.23071
415,0.704471,-1.024346,-0.34333400000000003,0.336539,0.854374,-0.395947,-0.013336,-1.130093,0.556895,-0.054633,-0.155156,0.280514
416,0.6997369999999999,-1.020456,-0.32461799999999996,0.33679899999999996,0.852347,-0.400075,-0.268256,-0.9563149999999999,0.476912,-0.031761000000000005,-0.177862,0.270345
417,0.705983,-1.021543,-0.299128,0.33869,0.852915,-0.39725900000000003,-0.602947,-0.653658,0.47098100000000004,-0.024968999999999998,-0.163828,0.18713
418,0.7254550000000001,-1.027485,-0.26534800000000003,0.342992,0.856001,-0.38679,-0.902565,-0.374585,0.471735,-0.033895,-0.100569,0.090175
419,0.754303,-1.035391,-0.22484200000000001,0.34936,0.8600620000000001,-0.371792,-1.014351,-0.266823,0.526364,0.000173,0.082351,-0.06389199999999999
420,0.7845340000000001,-1.040324,-0.182517,0.357437,0.862568,-0.358055,-0.835168,-0.383035,0.661292,0.03299,0.146144,-0.11286199999999999
421,0.8048109999999999,-1.039167,-0.14618599999999998,0.365342,0.861982,-0.351426,-0.48236,-0.6762229999999999,0.6812239999999999,0.096816,0.16304200000000002,-0.17012
422,0.808949,-1.034653,-0.120519,0.369604,0.859685,-0.352593,-0.241184,-1.0259690000000001,0.556238,0.105447,0.079981,-0.15140499999999998
423,0.800442,-1.0315809999999999,-0.103235,0.36848600000000004,0.8581120000000001,-0.357562,-0.22611799999999999,-1.224314,0.327998,0.054519000000000005,-0.03136,-0.084256
424,0.787853,-1.033506,-0.08979,0.362784,0.8590979999999999,-0.361007,-0.37845700000000004,-1.177008,0.08545499999999999,-0.071555,-0.140425,0.045302999999999996
425,0.779393,-1.0416809999999999,-0.074684,0.354768,0.8632540000000001,-0.359055,-0.692724,-0.982507,-0.063335,-0.10103,-0.13075599999999998,0.041047
426,0.786145,-1.057142,-0.050791,0.347697,0.8709549999999999,-0.347179,-1.13816,-0.479918,-0.154685,-0.082759,0.228289,0.048869
427,0.818959,-1.079439,-0.012722,0.344627,0.8816930000000001,-0.322238,-1.61617,0.23330900000000002,-0.146119,0.037117000000000004,0.73937,0.19850399999999999
428,0.8745459999999999,-1.103092,0.040248,0.345896,0.8926059999999999,-0.289134,-1.620901,0.465163,-0.048173,-0.016947,0.753436,0.12848900000000002
429,0.9177120000000001,-1.119912,0.081416,0.346076,0.900062,-0.264777,-1.013436,0.213127,-0.150429,-0.13120199999999999,0.18271700000000002,-0.047555
430,0.93999,-1.133612,0.102056,0.341898,0.905947,-0.249705,-0.6369560000000001,0.209471,-0.361439,-0.128854,0.083997,-0.103978
431,0.9470559999999999,-1.146582,0.10418,0.33408699999999997,0.9113620000000001,-0.24039899999999997,-0.29642399999999997,0.269892,-0.581328,-0.11431400000000001,0.048019,-0.090976
432,0.9408569999999999,-1.160236,0.093317,0.32250300000000004,0.916897,-0.235112,-0.21960500000000002,0.112599,-0.739755,-0.139702,-0.06980599999999999,0.027791000000000003
433,0.927635,-1.1774799999999999,0.080124,0.306668,0.923643,-0.22983800000000001,-0.37798899999999996,-0.1589,-0.90502,-0.12050999999999999,-0.10990699999999999,0.12325499999999999
434,0.9138700000000001,-1.198579,0.071129,0.287975,0.931523,-0.222084,-0.5822350000000001,-0.30396799999999996,-0.9468530000000001,-0.064388,-0.092793,0.16635899999999998
435,0.908697,-1.221878,0.071975,0.26962800000000003,0.939743,-0.210168,-0.798076,-0.305635,-0.875719,0.064387,0.016846,0.297311
436,0.911867,-1.245148,0.083704,0.25293000000000004,0.947443,-0.195867,-0.901804,-0.48044499999999996,-0.759783,0.009323,-0.03274,0.345037
437,0.91824,-1.2685959999999998,0.104368,0.236452,0.954684,-0.18070799999999998,-1.006756,-0.777407,-0.731294,-0.026598,-0.07850900000000001,0.342146
438,0.9246,-1.292945,0.130296,0.218967,0.9616469999999999,-0.165149,-1.0236370000000001,-0.9850260000000001,-0.743965,-0.019641,-0.061454999999999996,0.309879
439,0.929393,-1.3166930000000001,0.15473499999999998,0.20139400000000002,0.9678889999999999,-0.150386,-0.9345209999999999,-0.888282,-0.772308,-0.053597000000000006,-0.0505,0.23434000000000002
440,0.935183,-1.339097,0.176923,0.18475999999999998,0.9732780000000001,-0.13630599999999998,-0.8519700000000001,-0.724816,-0.6971649999999999,-0.057654,0.018512999999999998,0.171416
441,0.947526,-1.358079,0.201431,0.17139100000000002,0.977461,-0.123206,-0.724558,-0.477641,-0.549177,-0.0593,0.056932,0.136176
442,0.9683649999999999,-1.3729719999999999,0.23011199999999998,0.161905,0.980497,-0.111344,-0.646744,-0.32625,-0.381117,-0.035013,-0.008801999999999999,0.140779
443,0.996591,-1.385053,0.266099,0.155024,0.982799,-0.100287,-0.603708,-0.387506,-0.284598,-0.017557,-0.032726,0.137824
444,1.026977,-1.3958709999999999,0.306196,0.14889000000000002,0.9847389999999999,-0.090024,-0.591438,-0.48245299999999997,-0.26089,0.010183,-0.044614999999999995,0.14361300000000002
445,1.061684,-1.406577,0.351504,0.142707,0.9865459999999999,-0.079658,-0.597781,-0.491929,-0.283355,-0.016075,-0.038823,0.18854500000000002
446,1.098622,-1.417546,0.397522,0.135902,0.9882799999999999,-0.069406,-0.553268,-0.37044099999999996,-0.333406,-0.022056,-0.009734,0.198129
447,1.1366530000000001,-1.428928,0.441067,0.128225,0.9899540000000001,-0.059451,-0.5063,-0.188198,-0.3942,-0.01882,0.002448,0.1767
448,1.180333,-1.440907,0.48711400000000005,0.11972000000000001,0.991576,-0.049276,-0.45525600000000005,-0.05706900000000001,-0.463446,0.025910000000000002,0.011308,0.11781900000000001
449,1.229666,-1.453881,0.537122,0.10986099999999999,0.993173,-0.039001999999999995,-0.415303,-0.015402,-0.528382,0.101198,-0.026619999999999998,0.08538899999999999
450,1.273284,-1.466707,0.580915,0.09926,0.9945879999999999,-0.030433999999999996,-0.381,0.017515,-0.531389,0.11176900000000001,-0.051854,0.064675
451,1.331205,-1.478557,0.637879,0.089387,0.995749,-0.021836,-0.3532,0.083256,-0.478936,0.089232,-0.06638200000000001,0.017624
452,1.402409,-1.488514,0.706508,0.08092,0.996617,-0.013756,-0.345612,0.17033800000000002,-0.41810600000000003,0.078824,-0.043873,-0.013603
453,1.489654,-1.497227,0.789377,0.073141,0.997295,-0.005947999999999999,-0.329129,0.258772,-0.43626400000000004,0.12443,-0.020824000000000002,-0.0017579999999999998
454,1.578518,-1.5054530000000002,0.871685,0.065157,0.997866,0.000503,-0.24310500000000002,0.394883,-0.44972399999999996,0.201124,-0.007586,-0.002151
455,1.656708,-1.513155,0.940234,0.057248,0.998339,0.0049299999999999995,-0.170098,0.5329689999999999,-0.41307200000000005,0.299075,-0.020083,-0.022722
456,1.724937,-1.519433,0.9978520000000001,0.05057,0.9986809999999999,0.007857,-0.126807,0.511195,-0.33369299999999996,0.292157,-0.035713999999999996,-0.011214
457,1.7788990000000002,-1.523975,1.043574,0.045620999999999995,0.9989040000000001,0.009633,-0.058535000000000004,0.373129,-0.23155799999999999,0.25758600000000004,-0.04964,-0.008123
458,1.807398,-1.5271290000000002,1.06675,0.042248,0.9990469999999999,0.010187,-0.012508,0.18541400000000002,-0.214973,0.20645500000000003,-0.026497000000000003,-0.016931
459,1.800291,-1.52987,1.059151,0.039643,0.9991629999999999,0.009261,0.040756,-0.093777,-0.238812,0.247481,0.008116,0.014512
460,1.7561849999999999,-1.532071,1.0190649999999999,0.03783,0.99925,0.007095000000000001,0.10040700000000001,-0.24674400000000002,-0.132445,0.22746,0.13759100000000002,0.039169999999999996
461,1.6861259999999998,-1.5328620000000002,0.955678,0.037445,0.999281,0.004338,0.149241,-0.38283,0.024030000000000003,0.14913900000000002,0.32650999999999997,0.075679
462,1.5722180000000001,-1.5294299999999998,0.849146,0.041144,0.9991450000000001,5.9e-05,0.22297199999999998,-0.335129,0.28513,0.13883399999999999,0.364198,0.054721000000000006
463,1.4571100000000001,-1.5202149999999999,0.739436,0.050065,0.9987209999999999,-0.005716,0.324653,-0.24595799999999998,0.541031,0.123733,0.401837,0.026087
464,1.339137,-1.5052780000000001,0.625256,0.063597,0.9978540000000001,-0.015002000000000001,0.5437930000000001,-0.17407899999999998,0.7571829999999999,0.064913,0.316431,0.071917
465,1.21098,-1.4847920000000001,0.500287,0.080307,0.9963040000000001,-0.030211000000000002,0.887709,-0.203474,0.8835360000000001,0.036606,0.24617399999999998,0.097411
466,1.075916,-1.458446,0.37006300000000003,0.098599,0.9936950000000001,-0.053211,1.270907,-0.333973,0.951542,-0.025463,0.090442,0.097584
467,0.954261,-1.426268,0.255271,0.11746300000000001,0.989574,-0.083245,1.581908,-0.416159,0.9890680000000001,-0.049485,-0.072765,-0.020666999999999998
468,0.8558379999999999,-1.3887399999999999,0.164234,0.136683,0.983474,-0.11866600000000001,1.8196169999999998,-0.408682,1.04413,-0.038645,-0.024916,-0.015977
469,0.789311,-1.347369,0.10123099999999999,0.15726300000000001,0.975144,-0.156038,1.8772490000000002,-0.10870899999999999,1.1029010000000001,-0.08792699999999999,0.117416,-0.040526
470,0.7554350000000001,-1.306076,0.06525299999999999,0.17936300000000002,0.965166,-0.190447,1.708409,0.10690999999999999,1.1409690000000001,-0.10715799999999999,0.13629000000000002,-0.047514
471,0.7410899999999999,-1.267433,0.049105,0.201656,0.9543370000000001,-0.220367,1.47841,-0.005309,1.165144,-0.028758,0.139428,0.030775999999999998
472,0.734463,-1.2324110000000001,0.046002,0.222465,0.943292,-0.24636599999999997,1.240335,-0.325999,1.1158219999999999,0.046211,0.026343000000000002,0.12692
473,0.721063,-1.202169,0.046904,0.23787600000000003,0.932823,-0.270637,1.0545719999999998,-0.971398,0.971141,0.057885,-0.021766,0.170737
474,0.696954,-1.1754799999999999,0.05056,0.24718,0.922875,-0.295283,0.9091959999999999,-1.575696,0.9025340000000001,0.095441,-0.147377,0.181864
475,0.673243,-1.1521709999999998,0.062354999999999994,0.25345700000000004,0.9136489999999999,-0.317795,0.640397,-1.758156,0.9436190000000001,0.08843200000000001,-0.182402,0.153184
476,0.663126,-1.133523,0.089353,0.260673,0.90591,-0.333715,0.21857,-1.717797,1.073081,0.036461,-0.17245,0.10611500000000001
477,0.667825,-1.1200700000000001,0.131622,0.269762,0.9001309999999999,-0.342025,-0.154933,-1.651861,1.157981,0.007658,-0.141464,0.044479000000000005
478,0.679816,-1.109068,0.18249200000000002,0.280053,0.895284,-0.346447,-0.32226,-1.7284680000000001,1.279756,0.005103,-0.08463,0.040249
479,0.693879,-1.097592,0.23913099999999998,0.29144899999999996,0.8901120000000001,-0.350351,-0.393929,-1.9001599999999998,1.3873659999999999,0.01719,-0.070349,0.108011
480,0.707281,-1.086847,0.29935,0.302316,0.885164,-0.353664,-0.551515,-2.044581,1.409951,0.051215,-0.09776499999999999,0.17763800000000002
481,0.721406,-1.079301,0.362209,0.311684,0.8816280000000001,-0.354364,-0.7505390000000001,-2.048763,1.296403,-0.020041999999999997,-0.200476,0.26758699999999996
482,0.73756,-1.076301,0.42349499999999995,0.319144,0.880208,-0.35123899999999997,-0.920285,-1.773691,1.1196760000000001,-0.050864,-0.22405,0.275006
483,0.758764,-1.077847,0.482592,0.325583,0.880941,-0.343405,-1.062713,-1.3952200000000001,0.902416,-0.064566,-0.23355599999999999,0.26160300000000003
484,0.785991,-1.083336,0.540272,0.331385,0.883525,-0.330992,-1.184077,-1.067994,0.694982,-0.06414199999999999,-0.168376,0.167052
485,0.815144,-1.091568,0.5962649999999999,0.335586,0.887351,-0.316193,-1.231401,-1.040692,0.568566,-0.024017,0.034921,0.04094
486,0.840549,-1.100218,0.6503399999999999,0.337779,0.8913059999999999,-0.30243400000000004,-1.168839,-1.189793,0.505101,0.029149,0.12862200000000001,-0.016627
487,0.858762,-1.105548,0.6986760000000001,0.339629,0.89371,-0.293124,-0.837457,-1.26665,0.523537,0.178713,0.33674299999999996,-0.07726799999999999
488,0.8630700000000001,-1.102624,0.732244,0.342873,0.892394,-0.293356,-0.271567,-1.2903959999999999,0.642889,0.132713,0.16003499999999998,-0.049661000000000004
489,0.856157,-1.093416,0.751375,0.347029,0.888202,-0.301092,0.08791,-1.11144,0.600305,0.067842,0.049726,-0.017862
490,0.845468,-1.0843120000000002,0.7603,0.34982800000000003,0.8839819999999999,-0.310136,0.11152000000000001,-0.809231,0.396052,-0.068975,-0.274134,0.110704
491,0.8416389999999999,-1.0817379999999999,0.769528,0.350333,0.882776,-0.312988,-0.18138900000000002,-0.48226899999999995,0.137214,-0.099936,-0.40915799999999997,0.174728
492,0.845427,-1.087775,0.7799729999999999,0.347522,0.8855959999999999,-0.308118,-0.53794,-0.133537,-0.18298499999999998,-0.097125,-0.41197799999999996,0.16985799999999998
493,0.870533,-1.107069,0.804171,0.342016,0.894392,-0.28823000000000004,-1.426299,0.371397,-0.476121,-0.085485,0.058001,0.285773
494,0.938474,-1.1417629999999999,0.8622700000000001,0.33555,0.9093680000000001,-0.24585,-2.318089,0.923882,-0.6699970000000001,0.126059,1.511103,0.211823
495,1.007871,-1.176051,0.926676,0.325218,0.9230940000000001,-0.205223,-1.66776,0.180948,-0.591863,0.136391,1.497377,0.17119600000000001
496,1.0422280000000002,-1.194009,0.968719,0.317707,0.929851,-0.185539,-0.921384,-0.357523,-0.31356300000000004,-0.2076,0.320316,0.029518
497,1.048345,-1.207869,0.9832280000000001,0.307636,0.9348620000000001,-0.177144,-0.367494,-0.372131,-0.603437,-0.363926,-0.012163,0.106465
498,1.026269,-1.224879,0.967968,0.290004,0.940765,-0.175627,-0.15881099999999998,-0.401041,-1.013207,-0.365184,-0.174499,0.197294
499,0.9900370000000001,-1.246368,0.93868,0.266486,0.947833,-0.17488199999999998,-0.186883,-0.451216,-1.2280520000000001,-0.292746,-0.13112200000000002,0.211641
500,0.950788,-1.269998,0.9078729999999999,0.241117,0.9551,-0.17213900000000001,-0.358969,-0.518806,-1.225963,-0.237607,-0.011039,0.271901
501,0.9287790000000001,-1.295558,0.8945,0.217642,0.96236,-0.16272799999999998,-0.745135,-0.363577,-1.0825120000000001,-0.23662399999999997,0.028270999999999998,0.289543
502,0.9299950000000001,-1.3206959999999999,0.897716,0.198378,0.968888,-0.147948,-0.738506,0.083177,-0.9228049999999999,-0.189161,0.075363,0.2377
503,0.931343,-1.3405340000000001,0.891317,0.183114,0.973606,-0.136181,-0.420099,0.54286,-0.803666,-0.18418199999999998,-0.024205,0.243923
504,0.9321530000000001,-1.357344,0.876373,0.17005599999999998,0.977305,-0.126256,-0.367586,0.885483,-0.7503270000000001,-0.144421,-0.10091699999999999,0.262273
505,0.944667,-1.372622,0.868999,0.1595,0.9804280000000001,-0.115351,-0.41694899999999996,1.0042309999999999,-0.56709,0.082077,-0.136571,0.22496999999999998
506,0.9844379999999999,-1.384578,0.8905290000000001,0.154184,0.9827110000000001,-0.102423,-0.588383,0.88439,-0.286123,0.192298,-0.037384,0.230643
507,1.0550549999999999,-1.395656,0.9471360000000001,0.151542,0.9847020000000001,-0.085912,-0.786292,0.639618,-0.175029,0.235558,0.016549,0.19006900000000002
508,1.137938,-1.4051129999999998,1.0223280000000001,0.149671,0.9863059999999999,-0.069161,-0.75283,0.320703,-0.104952,0.278613,0.091529,0.096474
509,1.208728,-1.411465,1.091788,0.148322,0.987334,-0.056179,-0.555081,-0.026379000000000003,-0.059329,0.146768,0.05996900000000001,0.066692
510,1.249774,-1.415429,1.13726,0.146785,0.9879549999999999,-0.048809,-0.31151799999999996,-0.23055,-0.094753,0.066182,0.044836,0.060238
511,1.2623790000000001,-1.4202299999999999,1.152333,0.14286500000000002,0.9886860000000001,-0.045514,-0.11146600000000001,-0.020789,-0.24317600000000003,0.012912,-0.02961,-0.00020099999999999998
512,1.252837,-1.4264459999999999,1.1402649999999999,0.13658199999999998,0.9896,-0.044953,0.034085000000000004,0.174226,-0.386619,-0.045913999999999996,-0.041953,-0.134475
513,1.228488,-1.4348670000000001,1.111536,0.127589,0.990776,-0.045465,0.060361,0.21399,-0.49651300000000004,-0.0036119999999999998,-0.06568099999999999,-0.147223
514,1.196679,-1.443363,1.074956,0.11823499999999999,0.991891,-0.046419999999999996,0.07843,0.240392,-0.45476000000000005,0.17481,-0.107873,-0.10844100000000001
515,1.172835,-1.4499870000000001,1.045287,0.11103299999999999,0.992711,-0.046676999999999996,0.014088,0.299738,-0.321758,0.24118499999999998,-0.09363300000000001,-0.088836
516,1.170449,-1.454494,1.0377809999999998,0.106797,0.993245,-0.045197,-0.074531,0.19187200000000001,-0.17696099999999998,0.311813,-0.059575,-0.007217
517,1.175015,-1.457425,1.040248,0.104314,0.9935799999999999,-0.043585000000000006,-0.057172,0.09351,-0.10194,0.359904,-0.071965,0.005866
518,1.177771,-1.458216,1.0395159999999999,0.10370499999999999,0.99367,-0.042996,0.020871999999999998,0.23025199999999998,-8.9e-05,0.366616,-0.031511000000000004,-0.026583999999999997
519,1.167993,-1.456927,1.023982,0.104459,0.993524,-0.04451,0.16187100000000001,0.316916,0.049923,0.355258,0.041754,-0.029373000000000003
520,1.135649,-1.454179,0.985773,0.10544400000000001,0.993208,-0.049017000000000005,0.308738,0.200432,0.014778,0.20989499999999997,0.136019,-0.020853
521,1.074848,-1.449808,0.925736,0.10608900000000002,0.99269,-0.0574,0.482628,-0.211635,0.081683,0.226568,0.3239,0.055217999999999996
522,1.0069270000000001,-1.440583,0.86629,0.10969000000000001,0.991534,-0.069363,0.584568,-0.565515,0.311448,0.160833,0.33555300000000005,0.069576
523,0.9571129999999999,-1.424221,0.8290879999999999,0.119354,0.9892770000000001,-0.084075,0.736125,-0.67081,0.670496,0.091187,0.209331,0.067412
524,0.916458,-1.399961,0.80169,0.134853,0.9854430000000001,-0.103442,0.988859,-0.675928,0.931845,0.084965,0.12953199999999998,0.08076699999999999
525,0.875768,-1.369467,0.773265,0.153556,0.9798020000000001,-0.128038,1.268075,-0.596537,1.082177,0.082177,0.10013899999999999,0.069262
526,0.836043,-1.332031,0.742768,0.17546199999999998,0.9716309999999999,-0.158532,1.618924,-0.452538,1.2639040000000001,0.145431,0.086582,-0.10960999999999999
527,0.798084,-1.28712,0.711206,0.20038699999999998,0.960033,-0.195366,1.9251330000000002,-0.315661,1.400464,0.10192000000000001,0.09122100000000001,-0.194053
528,0.7729199999999999,-1.241451,0.690489,0.22580999999999998,0.946254,-0.231517,1.734462,-0.261679,1.386244,0.023961,0.09112999999999999,-0.196935
529,0.759143,-1.200769,0.683218,0.248906,0.9323170000000001,-0.262332,1.427999,-0.46456499999999995,1.240153,-0.078816,0.08993,-0.080991
530,0.740006,-1.1701709999999999,0.679208,0.26295999999999997,0.920817,-0.287986,1.001952,-0.9599549999999999,0.8201370000000001,-0.08305900000000001,0.036824,0.05675499999999999
531,0.714043,-1.150392,0.678569,0.26727199999999995,0.912924,-0.308421,0.6113149999999999,-1.471093,0.5777140000000001,-0.024536000000000002,-0.07894,0.23374499999999998
532,0.68523,-1.13742,0.68434,0.26574899999999996,0.907553,-0.32513600000000004,0.306358,-1.7615459999999998,0.48408900000000005,0.025343,-0.178946,0.236208
533,0.664579,-1.1285049999999999,0.6991390000000001,0.263959,0.9037729999999999,-0.33691,0.072878,-1.625837,0.581629,0.070758,-0.148341,0.146557
534,0.660597,-1.120182,0.72568,0.26722199999999996,0.90018,-0.343887,-0.079973,-1.249015,0.785177,0.064154,-0.12130999999999999,0.11114500000000001
535,0.671509,-1.111415,0.762109,0.275858,0.8963270000000001,-0.347116,-0.177876,-1.0182129999999998,0.9604540000000001,-0.026682,-0.09901,-0.0065980000000000006
536,0.687616,-1.101115,0.803258,0.287258,0.8917120000000001,-0.349745,-0.18081,-1.087882,1.069481,-0.088924,-0.153889,-0.041781
537,0.6995,-1.091289,0.8455889999999999,0.297021,0.887222,-0.352993,-0.286661,-1.412277,1.032838,-0.11657000000000001,-0.175018,-0.003208
538,0.706428,-1.08444,0.8874040000000001,0.303397,0.884042,-0.355542,-0.42120100000000005,-1.536047,0.9327120000000001,-0.032034,-0.191903,0.214184
539,0.71362,-1.081151,0.931291,0.307848,0.8825,-0.355547,-0.629258,-1.620217,0.850182,-0.025391999999999998,-0.193703,0.255175
540,0.72245,-1.083257,0.978547,0.309745,0.8834879999999999,-0.351419,-0.930668,-1.634622,0.7177720000000001,-0.04444,-0.238118,0.299005
541,0.738987,-1.092048,1.0308620000000002,0.310271,0.8875719999999999,-0.340495,-1.251842,-1.343045,0.541035,-0.060683,-0.254042,0.262782
542,0.767598,-1.106381,1.085279,0.311017,0.894084,-0.322291,-1.417992,-0.777027,0.329777,-0.078152,-0.259181,0.120555
543,0.8033279999999999,-1.123951,1.136124,0.31097600000000003,0.9018149999999999,-0.30002,-1.38301,-0.367068,0.076328,-0.073168,-0.190801,-0.043593
544,0.835858,-1.142356,1.177253,0.308202,0.909615,-0.278568,-1.172977,-0.16337000000000002,-0.16281600000000002,0.056651,-0.004769,-0.107022
545,0.860756,-1.158588,1.2052180000000001,0.303802,0.9162379999999999,-0.261148,-0.8324020000000001,0.044568,-0.244025,0.22521999999999998,0.076529,-0.163824
546,0.879785,-1.168458,1.223387,0.301732,0.920148,-0.24954400000000002,-0.44736000000000004,0.180006,-0.082344,0.28330500000000003,0.062045,-0.18243199999999998
547,0.894372,-1.172682,1.233782,0.302307,0.921794,-0.242681,-0.231672,0.296126,-0.004074,0.313248,-0.029673,-0.121378
548,0.9118639999999999,-1.17577,1.245702,0.304253,0.9229860000000001,-0.235612,-0.368091,0.360387,0.028006,0.279289,-0.158307,-0.061598
549,0.9625040000000001,-1.186431,1.2909540000000002,0.307696,0.9270370000000001,-0.214273,-1.509399,0.5141859999999999,0.11811300000000001,0.095213,-0.013096,-0.138769
550,1.0741100000000001,-1.205367,1.395211,0.314153,0.9339709999999999,-0.170273,-2.353381,0.8500979999999999,0.229291,0.471125,1.633306,0.26779200000000003
551,1.203624,-1.213968,1.522314,0.32600100000000004,0.93701,-0.125384,-1.9379099999999998,0.06457,0.772652,0.091876,2.022936,-0.073926
552,1.2525629999999999,-1.204483,1.59445,0.340172,0.9336540000000001,-0.11206300000000001,-0.5157229999999999,-1.3741709999999998,0.759861,-0.8551709999999999,0.200562,-0.31957800000000003
553,1.21771,-1.198448,1.58749,0.341341,0.931476,-0.12579400000000002,0.572499,-1.274411,-0.088312,-0.7615529999999999,-0.315173,-0.182631
554,1.158101,-1.204396,1.536365,0.32815900000000003,0.933623,-0.143681,0.7368560000000001,-0.206312,-0.935632,-0.723575,-0.49596999999999997,0.20435
555,1.104594,-1.224558,1.474746,0.303126,0.9406559999999999,-0.152532,0.407005,0.29704200000000003,-1.583787,-0.698542,-0.503003,0.21320100000000003
556,1.0529879999999998,-1.2562280000000001,1.417374,0.26882399999999995,0.9509299999999999,-0.153137,-0.17810299999999998,0.040736,-1.9817200000000001,-0.6215,-0.355028,0.43263199999999996
557,1.026757,-1.300214,1.386573,0.22867800000000002,0.963615,-0.13833499999999999,-1.058605,0.28732199999999997,-2.144146,0.042929,0.160194,0.562407
558,1.053223,-1.346349,1.4001219999999999,0.193385,0.974917,-0.11010299999999999,-1.35966,0.937422,-1.687747,0.11258399999999999,0.224561,0.410228
559,1.123549,-1.381189,1.441441,0.169896,0.9820780000000001,-0.081493,-1.098408,1.8783459999999998,-1.1872,0.059916,0.314766,0.338924
560,1.22557,-1.4067,1.497034,0.153675,0.9865659999999999,-0.055265999999999996,-0.800239,2.564124,-0.8484379999999999,0.165188,-0.13533900000000001,0.25421
561,1.32111,-1.42064,1.545488,0.144901,0.988748,-0.036951,-0.500157,2.155287,-0.36725399999999997,0.19883399999999998,-0.262185,0.181574
562,1.419434,-1.42626,1.607259,0.14232899999999998,0.9895729999999999,-0.021709,-0.532035,1.735681,-0.10202,0.196339,-0.293879,0.094387
563,1.53484,-1.42606,1.694177,0.14407999999999999,0.9895440000000001,-0.005183,-0.6825600000000001,1.280216,0.176318,0.22225300000000003,-0.25906,-0.035268
564,1.652657,-1.419736,1.7964830000000003,0.149926,0.988612,0.012301000000000001,-0.804018,0.534276,0.343068,0.179587,-0.155284,-0.095858
565,1.76722,-1.4102219999999999,1.9061099999999997,0.15675799999999998,0.987136,0.031193000000000002,-0.939176,0.302795,0.272986,-0.036885,0.098802,0.025263999999999998
566,1.865003,-1.406121,1.9948439999999998,0.15683699999999998,0.9864719999999999,0.047522,-0.583929,0.6746840000000001,-0.061499,-0.10941300000000001,0.038933999999999996,0.010752
567,1.929632,-1.406514,2.0381970000000003,0.153079,0.9865360000000001,0.057415999999999995,-0.21574899999999997,1.316139,-0.153753,-0.041904000000000004,0.079321,0.032244999999999996
568,1.984229,-1.411308,2.0650470000000003,0.145385,0.987309,0.063783,-0.05735,1.401878,-0.417681,-0.061111,-0.070713,-0.215394
569,2.040548,-1.4211799999999999,2.093739,0.132863,0.988828,0.06744800000000001,0.032014,1.4107809999999998,-0.59012,0.063609,-0.12016099999999999,-0.206898
570,2.114732,-1.4313930000000001,2.1383810000000003,0.11884700000000001,0.9902989999999999,0.071878,-0.09641,1.563547,-0.58694,0.244785,-0.08202000000000001,-0.12720599999999999
571,2.207383,-1.437669,2.200791,0.10668599999999999,0.991152,0.07886699999999999,-0.20849,1.4716879999999999,-0.42844,0.24329,-0.045259,-0.083247
572,2.28743,-1.440014,2.2537130000000003,0.098284,0.99146,0.085618,-0.177778,1.365386,-0.24542399999999998,0.242445,-0.043264,-0.111451
573,2.346578,-1.441533,2.284646,0.091974,0.991657,0.090222,-0.04332,1.444521,-0.17194700000000002,0.20335899999999998,-0.013721,-0.20800500000000002
574,2.394532,-1.443762,2.3050650000000004,0.086039,0.991942,0.092903,-0.005474000000000001,1.31869,-0.17258900000000002,0.22908499999999998,0.127656,-0.146004
575,2.44119,-1.44589,2.328229,0.080252,0.992209,0.0952,-0.022349,1.1100139999999998,-0.187395,0.25947,0.136666,-0.152802
576,2.485236,-1.4478719999999998,2.3526740000000004,0.07478,0.9924540000000001,0.097082,0.0033539999999999998,0.9244450000000001,-0.157067,0.281802,0.26079600000000003,-0.11578900000000002
577,2.495388,-1.450403,2.34631,0.072277,0.992761,0.095829,0.19811800000000002,0.787644,0.051703,0.199924,0.279532,-0.14311600000000002
578,2.438719,-1.451285,2.2738259999999997,0.07702300000000001,0.992867,0.090913,0.38147,0.700087,0.476112,0.121677,0.281623,-0.135499
579,2.293713,-1.448018,2.117131,0.091784,0.9924719999999999,0.08097599999999999,0.662832,0.425433,0.983698,0.053998000000000004,0.204702,0.080355
580,2.063008,-1.43757,1.8794549999999999,0.117006,0.991139,0.06274199999999999,1.131198,0.17586,1.450898,-0.07647899999999999,0.14470999999999998,0.064577
581,1.7978990000000001,-1.417404,1.608301,0.148813,0.988258,0.034388999999999996,1.6445869999999998,0.206208,1.6744990000000002,-0.199258,0.200828,-0.056209
582,1.5558530000000002,-1.38711,1.355457,0.182589,0.9831770000000001,-0.002729,2.107554,0.491968,1.739323,-0.213046,0.46204399999999995,-0.140719
583,1.369648,-1.349135,1.149924,0.215381,0.975534,-0.043917000000000005,2.311866,0.9159209999999999,1.569292,-0.350391,0.600547,-0.008741
584,1.237614,-1.310658,0.9920530000000001,0.24304,0.966354,-0.084112,2.3068619999999997,1.1218489999999999,1.225026,-0.356901,0.37609899999999996,-0.006647
585,1.150723,-1.273686,0.8752479999999999,0.267282,0.9561860000000001,-0.11938399999999999,2.076088,1.401186,1.1002100000000001,-0.25451,0.20636500000000002,-0.0014349999999999999
586,1.103795,-1.236639,0.791918,0.29283400000000004,0.944687,-0.147647,1.9185159999999999,1.721279,1.1093819999999999,-0.19263,0.134018,-0.007642
587,1.07338,-1.200183,0.721689,0.31828,0.932105,-0.172811,1.92776,1.7802349999999998,1.010026,-0.181943,0.08780700000000001,0.057652999999999996
588,1.048768,-1.16625,0.65874,0.341163,0.9192809999999999,-0.196257,1.804014,1.60561,0.830992,-0.071235,-0.07852200000000001,0.027617000000000003
589,1.0290549999999998,-1.1363969999999999,0.605932,0.360589,0.9071229999999999,-0.217002,1.6067770000000001,1.2691270000000001,0.699723,-0.11876800000000001,-0.25146799999999997,0.012718
590,1.012048,-1.110715,0.565294,0.37648200000000004,0.896016,-0.235379,1.2851549999999998,0.826418,0.600835,-0.062196,-0.490453,-0.051410000000000004
591,0.9995360000000001,-1.090991,0.538636,0.388301,0.887085,-0.24958000000000002,0.8955040000000001,0.41918199999999994,0.48113100000000003,-0.021815,-0.5068050000000001,-0.037101999999999996
592,0.991768,-1.075685,0.523834,0.39766999999999997,0.879916,-0.25998899999999997,0.6214430000000001,0.172084,0.44107700000000005,0.066456,-0.493975,-0.051641
593,0.9815969999999999,-1.062151,0.512937,0.40487,0.8734049999999999,-0.27061399999999997,0.596639,-0.142015,0.42314700000000005,0.10987000000000001,-0.436698,-0.05069
594,0.962158,-1.048142,0.498974,0.409533,0.866497,-0.285401,0.7340939999999999,-0.49373,0.347646,0.095442,-0.399502,-0.011993
595,0.932342,-1.034698,0.479988,0.41016099999999994,0.859708,-0.304399,0.7825850000000001,-0.775587,0.19559,0.004359,-0.41604399999999997,0.052461
596,0.898523,-1.026283,0.46154399999999995,0.405281,0.8553799999999999,-0.322587,0.489486,-0.9557379999999999,-0.052986,-0.056968,-0.46646400000000005,0.128557
597,0.871705,-1.028992,0.451823,0.39471,0.8567790000000001,-0.331847,-0.15300999999999998,-0.873293,-0.399411,-0.081432,-0.49421499999999996,0.1584
598,0.860294,-1.0468790000000001,0.45459700000000003,0.379218,0.865866,-0.32628,-0.9213459999999999,-0.5634170000000001,-0.76837,-0.102286,-0.48857700000000004,0.116319
599,0.873368,-1.077666,0.475021,0.36283899999999997,0.8808549999999999,-0.30402399999999996,-1.647103,0.010413,-0.850018,-0.047791,-0.401943,0.008476000000000001
600,0.926033,-1.113675,0.52232,0.352747,0.8973270000000001,-0.265257,-2.067031,0.81097,-0.620037,0.059789,-0.051029000000000005,-0.218691
601,1.00492,-1.138347,0.586236,0.353754,0.907942,-0.224692,-1.520303,1.109982,0.053174,0.293387,0.6307699999999999,-0.392038
602,1.046951,-1.134955,0.613474,0.365546,0.906515,-0.211169,0.294594,0.714834,0.5929909999999999,0.22889,0.409418,-0.637419
603,1.031363,-1.115873,0.585863,0.376986,0.8982950000000001,-0.225687,1.19476,0.222437,0.405493,0.10249100000000001,0.082083,-0.460761
604,1.006925,-1.104757,0.562036,0.379776,0.8933549999999999,-0.24015300000000003,0.297766,-0.281267,0.075134,-0.08949299999999999,-0.31938,-0.41737799999999997
605,1.016278,-1.109323,0.572345,0.37853400000000004,0.8953969999999999,-0.23444,-0.5391819999999999,0.33295,-0.152622,0.430457,1.9915349999999998,0.169469
606,1.079975,-1.115304,0.618897,0.38795799999999997,0.8980440000000001,-0.207342,-1.458611,1.231834,0.69545,0.448788,2.504757,0.572775
607,1.1545100000000001,-1.111106,0.692535,0.405764,0.8961899999999999,-0.179399,-0.8496229999999999,-0.110919,0.826407,-0.915423,0.618123,-0.07472100000000001
608,1.142155,-1.1027559999999998,0.6884239999999999,0.41030900000000003,0.8924540000000001,-0.187502,0.763482,-0.392627,0.080666,-0.794175,-0.700361,0.26343
609,1.120335,-1.1008959999999999,0.6563220000000001,0.407614,0.8916139999999999,-0.197132,0.375605,0.89113,-0.406525,-0.717368,-0.5958829999999999,0.33678
610,1.143067,-1.118232,0.649057,0.397863,0.899329,-0.181376,-0.457837,1.49478,-1.1907860000000001,-0.687796,0.05993,0.23585
611,1.146896,-1.154249,0.633947,0.368777,0.9144909999999999,-0.166414,-0.455715,0.526175,-1.923398,-0.376269,0.194105,0.44725200000000004
612,1.1663350000000001,-1.196787,0.643135,0.335852,0.9308700000000001,-0.143765,-1.574652,0.697904,-1.80752,-0.25459899999999996,0.28742199999999996,0.650113
613,1.2610780000000001,-1.2400579999999999,0.719721,0.309266,0.9458030000000001,-0.09897,-1.973889,1.495689,-1.435317,-0.27470500000000003,0.219313,0.05857999999999999
614,1.357003,-1.2721770000000001,0.775177,0.287473,0.955744,-0.062414,-0.781105,2.591374,-1.2831110000000001,-0.322782,0.30354899999999996,0.056492999999999995
615,1.4440620000000002,-1.29944,0.799601,0.265854,0.963408,-0.033874,-0.524519,3.4192739999999997,-1.284516,-0.15173399999999998,0.05575700000000001,0.19531199999999999
616,1.524319,-1.322349,0.814558,0.245596,0.969295,-0.011423,-0.14643399999999998,3.11096,-0.9674229999999999,0.029764,-0.196346,0.129709
617,1.586543,-1.3364530000000001,0.822535,0.23213499999999998,0.9726670000000001,0.0036560000000000004,-0.144554,2.4904759999999997,-0.579919,0.105725,-0.227931,0.13556600000000002
618,1.6507330000000002,-1.345618,0.842692,0.222525,0.9747540000000001,0.017825999999999998,-0.26548299999999997,2.06426,-0.448826,0.106699,-0.256203,0.23133499999999999
619,1.727489,-1.351173,0.883876,0.21515,0.97598,0.033991,-0.497518,1.7019540000000002,-0.220313,0.137999,-0.124173,0.19485999999999998
620,1.811234,-1.34909,0.939666,0.21352600000000002,0.975524,0.052351999999999996,-0.701199,1.33066,0.100274,0.08255499999999999,-0.021666,0.13046300000000002
621,1.89735,-1.3430389999999999,1.001539,0.21381999999999998,0.974175,0.072416,-0.713335,1.364188,-0.015221,-0.18051,-0.05751900000000001,-0.037947
622,1.9844810000000002,-1.3468799999999999,1.058508,0.203278,0.975035,0.08924299999999999,-0.40084200000000003,1.7020950000000001,-0.605266,0.052322,-0.11119000000000001,-0.290354
623,2.066362,-1.3598430000000001,1.106747,0.184161,0.9778319999999999,0.09955,-0.077412,1.699946,-0.880742,0.042921,-0.020602000000000002,-0.276933
624,2.151996,-1.3789420000000001,1.1566,0.159327,0.9816520000000001,0.10465899999999999,0.152634,1.999787,-1.204259,0.198461,-0.179971,-0.229171
625,2.258718,-1.402975,1.222684,0.129,0.985951,0.106018,0.261446,2.084171,-1.3552950000000001,0.381895,-0.11986199999999998,-0.224045
626,2.394858,-1.426188,1.321777,0.097835,0.989562,0.105709,0.18748,1.762741,-1.361809,0.538808,0.060273,-0.11198
627,2.550404,-1.441704,1.4522030000000001,0.07170499999999999,0.9916790000000001,0.10681900000000001,-0.015884,1.018473,-1.009762,0.472621,-0.113337,-0.07709500000000001
628,2.670934,-1.446916,1.558941,0.055994,0.992337,0.110053,-0.163827,0.720536,-0.43464200000000003,0.561666,-0.13459400000000002,-0.25849099999999997
629,2.711279,-1.444386,1.583436,0.05255800000000001,0.9920209999999999,0.114506,-0.168796,0.8229540000000001,0.064051,0.339623,0.222563,-0.390873
630,2.701595,-1.441907,1.559831,0.054713,0.991705,0.116219,0.032062,0.552171,0.20680700000000002,0.264165,0.412347,-0.347161
631,2.67624,-1.441665,1.529305,0.05775,0.9916739999999999,0.11500899999999999,0.085478,0.076937,0.190697,0.22281399999999998,0.41215,-0.267597
632,2.614166,-1.441561,1.4694459999999998,0.064824,0.991661,0.111293,0.299275,-0.27217399999999997,0.462898,0.143428,0.503762,-0.193691
633,2.4606209999999997,-1.44421,1.324791,0.07943,0.991999,0.09802899999999999,0.846665,-0.6057739999999999,0.829276,0.149895,0.46169099999999996,-0.070746
634,2.184487,-1.444619,1.05979,0.102816,0.99205,0.07242699999999999,1.450328,-0.664061,1.29504,-0.10399100000000001,-0.018341,0.147605
635,1.8382580000000002,-1.43154,0.72149,0.133806,0.9903190000000001,0.036666000000000004,1.892553,-0.439018,1.6428759999999998,-0.053438,0.01763,-0.14161600000000002
636,1.548627,-1.40105,0.43136599999999997,0.16883599999999999,0.9856280000000001,-0.003744,2.064761,0.077375,1.8260830000000001,-0.040251,0.290358,-0.088007
637,1.353064,-1.361002,0.22246,0.203301,0.978074,-0.044978,2.294886,0.735796,1.6067930000000001,-0.20914499999999997,0.69017,0.052943
638,1.220229,-1.322949,0.062336,0.23036500000000001,0.969443,-0.084238,2.18875,1.3579700000000001,1.1533959999999999,-0.291812,0.5079739999999999,0.053491
639,1.149063,-1.28617,-0.041994,0.256169,0.959767,-0.11493099999999999,1.846527,1.52914,1.268291,-0.215885,0.336055,-0.069716
640,1.110093,-1.245911,-0.11445599999999999,0.285898,0.9476870000000001,-0.141899,1.908637,1.450726,1.376716,-0.241907,0.356329,-0.137704
641,1.067906,-1.2057200000000001,-0.185941,0.3128,0.934097,-0.172059,2.014218,1.1553639999999998,1.089412,-0.396754,0.35135,0.114686
642,1.026837,-1.174793,-0.25376,0.330043,0.92261,-0.19961800000000002,1.777334,0.8706360000000001,0.571103,-0.107601,0.034482,0.080661
643,0.982339,-1.1481940000000002,-0.309033,0.34113499999999997,0.912025,-0.227648,1.5391489999999999,0.02593,0.49681400000000003,-0.044794,-0.064109,0.08867
644,0.945738,-1.124955,-0.34274499999999997,0.349674,0.9022479999999999,-0.252315,1.026542,-0.42981,0.625209,-0.012805,-0.616848,-0.034581
645,0.92604,-1.1058860000000001,-0.35085700000000003,0.358325,0.893862,-0.269447,0.5533399999999999,-0.753234,0.663979,-0.001773,-0.6105520000000001,-0.10875699999999999
646,0.9102600000000001,-1.090256,-0.347142,0.365018,0.8867450000000001,-0.28360599999999997,0.35132199999999997,-1.056206,0.6811159999999999,0.054996,-0.51202,-0.030649000000000003
647,0.892749,-1.0753549999999998,-0.338652,0.370247,0.8797590000000001,-0.29821,0.28979,-1.389681,0.745206,0.129631,-0.49349799999999994,-0.013923
648,0.8727290000000001,-1.0582,-0.32615700000000003,0.375711,0.871474,-0.315217,0.331624,-1.633438,0.927409,0.105475,-0.437697,0.021272
649,0.849608,-1.038218,-0.311821,0.38132699999999997,0.8615010000000001,-0.335252,0.41996999999999995,-1.858752,0.9859979999999999,-0.042138999999999996,-0.447866,0.12286500000000002
650,0.819843,-1.019426,-0.30036,0.38295100000000004,0.851807,-0.35743800000000003,0.378281,-2.03905,0.8225,-0.09233200000000001,-0.47583100000000006,0.2697
651,0.790354,-1.007524,-0.288771,0.379423,0.845512,-0.375681,0.014734,-1.810716,0.514157,-0.146971,-0.439461,0.383036
652,0.778421,-1.00958,-0.270941,0.373692,0.846608,-0.378944,-0.6683399999999999,-1.0897649999999999,0.101469,-0.263279,-0.292714,0.37755500000000003
653,0.7885220000000001,-1.027798,-0.242393,0.366498,0.8561629999999999,-0.364215,-1.526347,-0.47204399999999996,-0.18519000000000002,-0.087491,-0.19207,0.220615
654,0.838974,-1.059925,-0.184621,0.36374,0.8723190000000001,-0.32671300000000003,-2.48844,0.334365,-0.149146,-0.121171,-0.113194,-0.024911000000000003
655,0.9222040000000001,-1.094718,-0.106057,0.365222,0.888799,-0.276833,-2.328593,0.794962,-0.12084600000000001,0.33831500000000003,1.164607,-0.699654
656,0.977627,-1.103818,-0.05814299999999999,0.373273,0.892933,-0.251644,-0.20617600000000003,0.49976899999999996,0.46371999999999997,0.14216900000000002,0.930859,-0.9958229999999999
657,0.952681,-1.085879,-0.08659,0.37987600000000005,0.884713,-0.27011799999999997,1.443776,-0.304085,0.258357,-0.10813299999999999,-0.175515,-0.6038899999999999
658,0.907217,-1.0695,-0.12554500000000002,0.37857399999999997,0.8769610000000001,-0.29599000000000003,0.9740549999999999,-0.629502,-0.006221,0.06303099999999999,0.45902299999999996,-0.257965
659,0.868856,-1.0598,-0.15616300000000002,0.373422,0.872258,-0.31577,0.7333529999999999,-0.421508,-0.129946,0.245612,1.313472,0.034367
660,0.8871530000000001,-1.060698,-0.13605,0.378529,0.872697,-0.30839,-1.0914059999999999,0.329205,0.462028,0.082058,1.7522419999999999,0.71525
661,0.926941,-1.066738,-0.094487,0.38627399999999995,0.8756299999999999,-0.289919,-0.478554,0.017781,0.288314,-0.5997140000000001,-0.307728,0.286028
662,0.9172889999999999,-1.0614350000000001,-0.111355,0.387139,0.8730559999999999,-0.296453,0.8288059999999999,0.490633,-0.278931,-0.685723,-0.694132,0.29685
663,0.906954,-1.063192,-0.143925,0.382846,0.8739110000000001,-0.299493,0.295705,1.106676,-0.693642,-0.517108,-0.5767770000000001,0.283364
664,0.905602,-1.083465,-0.167416,0.36842199999999997,0.8835860000000001,-0.289013,-0.44311999999999996,0.687325,-1.47593,-0.355437,-0.267756,0.23708800000000002
665,0.882258,-1.119673,-0.191932,0.33663899999999997,0.899958,-0.277014,-0.843866,-0.488201,-1.795553,0.060944000000000005,-0.045893,0.5373439999999999
666,0.88233,-1.165101,-0.181758,0.30475,0.9188280000000001,-0.250736,-2.20249,-0.31202399999999997,-1.518986,-0.067949,0.204295,0.741016
667,0.948451,-1.219439,-0.11256400000000001,0.279627,0.9389059999999999,-0.20062,-2.685957,0.344989,-1.301015,-0.138682,0.227552,0.174314
668,1.0307549999999999,-1.259763,-0.043049000000000004,0.262468,0.952018,-0.157346,-1.648039,1.190883,-0.8857200000000001,-0.130922,0.164575,0.142407
669,1.123406,-1.2862200000000001,0.017787999999999998,0.25309299999999996,0.959781,-0.12144400000000001,-1.317809,1.970918,-0.702815,-0.180385,0.10369600000000001,0.058776
670,1.2073049999999999,-1.306746,0.064106,0.24391,0.965341,-0.092782,-0.765836,1.828345,-0.692366,-0.136748,-0.217538,0.054192
671,1.256428,-1.323108,0.08533500000000001,0.233116,0.969482,-0.075798,-0.41335500000000003,1.2092450000000001,-0.688042,-0.07092999999999999,-0.246536,0.034874
672,1.2834709999999998,-1.338171,0.093859,0.221047,0.9730639999999999,-0.06532,-0.297722,0.818978,-0.6942119999999999,-0.0018850000000000002,-0.292538,0.030239999999999996
673,1.312681,-1.3533680000000001,0.108518,0.208535,0.976455,-0.055054,-0.445485,0.704427,-0.690825,0.009803000000000001,-0.27662600000000004,0.172761
674,1.372931,-1.370088,0.15769,0.195431,0.9799260000000001,-0.039182,-0.8226629999999999,0.556692,-0.714634,-0.072277,-0.144324,0.20611300000000002
675,1.469846,-1.386883,0.24453200000000003,0.181898,0.983136,-0.018425,-0.995337,0.617913,-0.690282,-0.065229,-0.100323,0.167397
676,1.595852,-1.4006459999999998,0.356048,0.169222,0.985559,0.004241,-0.9768100000000001,0.9989879999999999,-0.632957,-0.072298,-0.029673,0.002763
677,1.719212,-1.413369,0.453672,0.15499300000000002,0.987634,0.023174,-0.551609,1.476323,-0.757717,0.077765,0.05271,-0.226787
678,1.795957,-1.428873,0.500949,0.13781,0.9899459999999999,0.031564999999999996,-0.013024,1.5622340000000001,-0.8640909999999999,0.203377,-0.077775,-0.163049
679,1.845423,-1.448493,0.5163479999999999,0.117351,0.9925299999999999,0.033063,0.169896,1.726375,-1.044622,0.42055200000000004,-0.23979899999999998,-0.211652
680,1.938437,-1.468923,0.579403,0.094814,0.994815,0.036518,-0.148534,1.335636,-1.0890739999999999,0.439076,-0.077808,-0.103595
681,2.101316,-1.485099,0.725433,0.073729,0.9963299999999999,0.043251,-0.28391500000000003,0.55999,-0.940543,0.48138500000000006,-0.041969,-0.052115999999999996
682,2.256536,-1.4929780000000001,0.878941,0.060069000000000004,0.996974,0.049148000000000004,-0.286527,-0.084021,-0.526334,0.399663,0.14445999999999998,-0.058349
683,2.3403389999999997,-1.494775,0.964759,0.054453999999999995,0.9971120000000001,0.052753999999999995,-0.085275,0.093289,-0.020955,0.4027,0.46568699999999996,-0.208103
684,2.299855,-1.495467,0.917473,0.056027999999999994,0.9971639999999999,0.050046,0.30272,0.363135,0.09250499999999999,0.22743400000000003,0.60948,-0.25056100000000003
685,2.2125310000000002,-1.499098,0.826443,0.057275,0.997431,0.042799000000000004,0.365332,0.061403,0.102943,0.38056,0.536215,-0.184095
686,2.063271,-1.5002030000000002,0.679027,0.062033000000000005,0.997509,0.033285,0.577513,-0.20872600000000002,0.33871100000000004,0.436014,0.392856,-0.12169400000000001
687,1.7670130000000002,-1.494982,0.389918,0.074168,0.9971270000000001,0.014743000000000001,1.1353030000000002,-0.536237,0.7713840000000001,0.288976,0.07709099999999999,0.143064
688,1.397945,-1.473225,0.035051,0.095874,0.995244,-0.016738999999999997,1.7204669999999997,-0.8620459999999999,1.287567,0.043607,-0.243092,0.13324
689,1.147445,-1.430572,-0.199449,0.127371,0.990185,-0.05739299999999999,2.048754,-0.887651,1.811186,0.009225,-0.320278,-0.120082
690,1.028186,-1.373085,-0.303433,0.168177,0.980519,-0.101408,2.122719,-0.784462,2.3147029999999997,0.035009,0.330638,-0.079912
691,0.9655440000000001,-1.310137,-0.358498,0.21191300000000002,0.9662200000000001,-0.146617,2.2723009999999997,-0.159121,2.179282,-0.32105900000000004,0.775555,0.092189
692,0.930541,-1.2563600000000001,-0.401049,0.248007,0.9509709999999999,-0.184751,1.8625990000000001,0.49213599999999996,1.642543,-0.213583,0.439914,0.082761
693,0.924925,-1.212461,-0.41982299999999995,0.280057,0.9364819999999999,-0.21108200000000002,1.426244,0.610256,1.519703,-0.204023,0.352169,-0.004464
694,0.921823,-1.175203,-0.432026,0.307001,0.922768,-0.232886,1.263626,0.24225,1.249846,-0.199106,0.238197,-0.0776
695,0.9049959999999999,-1.143281,-0.44980600000000004,0.326047,0.909999,-0.256091,1.2400010000000001,-0.11960699999999999,0.9200649999999999,-0.20545700000000003,0.102513,0.156298
696,0.881191,-1.118531,-0.47124099999999997,0.337136,0.899459,-0.278027,1.084249,-0.398098,0.636255,-0.061532,-0.009475,0.15301199999999998
697,0.8519770000000001,-1.0953540000000002,-0.48786999999999997,0.344471,0.8890899999999999,-0.301406,0.972965,-0.9484469999999999,0.6329779999999999,-0.097737,-0.279944,0.13456600000000002
698,0.821749,-1.07483,-0.49240100000000003,0.348497,0.879509,-0.32403899999999997,0.618924,-1.49422,0.7615270000000001,-0.032853,-0.60743,0.099383
699,0.799215,-1.056692,-0.479033,0.352486,0.870733,-0.342878,0.258214,-1.8323610000000001,0.919674,-0.08445,-0.636007,0.113401
700,0.782025,-1.042335,-0.453158,0.35531399999999996,0.863584,-0.357719,-0.068526,-2.0520490000000002,0.9967219999999999,-0.013272999999999998,-0.563596,0.13616199999999998
701,0.771309,-1.030909,-0.41687299999999994,0.35831599999999997,0.857766,-0.368558,-0.333779,-2.10371,1.092144,-0.030329000000000002,-0.5291680000000001,0.120939
702,0.76318,-1.0224799999999998,-0.375847,0.360293,0.853404,-0.37667,-0.479001,-2.199869,1.022886,-0.025638,-0.471156,0.132163
703,0.750791,-1.0179690000000001,-0.337451,0.358223,0.851043,-0.383916,-0.548719,-2.2807020000000002,0.785358,-0.092735,-0.442611,0.125448
704,0.730827,-1.0190489999999999,-0.30676,0.34987399999999996,0.8516100000000001,-0.390306,-0.612201,-2.30452,0.403589,-0.085454,-0.41708500000000004,0.143709
705,0.70838,-1.0288680000000001,-0.283329,0.335568,0.856716,-0.391691,-0.922336,-1.93849,-0.019925,-0.033032,-0.19103599999999998,0.354323
706,0.702086,-1.0510709999999999,-0.25704499999999997,0.32073,0.867956,-0.379176,-1.515124,-1.1396950000000001,-0.264371,0.185068,-0.023046,0.471904
707,0.735226,-1.082973,-0.203483,0.31437800000000005,0.8833549999999999,-0.34762,-2.395741,-0.411516,0.083194,0.030944,0.0036079999999999997,0.20580500000000002
708,0.815526,-1.116729,-0.112889,0.319347,0.8986709999999999,-0.300661,-2.649542,0.170792,0.40221,0.076848,0.718029,-0.15517999999999998
709,0.901587,-1.131519,-0.027121,0.333546,0.9050590000000001,-0.263824,-1.229095,0.499497,0.884933,0.392071,1.2072450000000001,-0.8603370000000001
710,0.929111,-1.114131,-0.000146,0.35323499999999997,0.8975280000000001,-0.26392600000000005,0.607491,-0.033453,0.9689469999999999,-0.218759,0.159876,-0.764288
711,0.9193620000000001,-1.0935629999999998,-0.005772,0.36525100000000005,0.8882690000000001,-0.278493,0.692864,-0.38810500000000003,0.607871,-0.347124,0.165579,-0.523799
712,0.8920319999999999,-1.079339,-0.020153,0.367302,0.8816459999999999,-0.296274,0.759177,-0.818955,0.1378,0.102806,1.784598,-0.050894
713,0.8976360000000001,-1.0713139999999999,-0.010175,0.374477,0.8778309999999999,-0.298612,-0.593274,0.333854,0.73149,-0.083858,2.0336380000000003,0.80966
714,0.9275370000000001,-1.07007,0.02193,0.38411100000000004,0.8772340000000001,-0.287938,-0.010937,-0.229494,0.447859,-0.711717,1.0096370000000001,0.403402
715,0.8983610000000001,-1.053548,-0.009858,0.386835,0.869183,-0.308008,1.482444,0.166769,-0.042145,-0.761941,-0.866986,0.534967
716,0.8869610000000001,-1.047603,-0.044147000000000006,0.387297,0.8662280000000001,-0.315657,0.299265,1.407246,-0.471811,-0.704604,-0.581972,0.42362799999999995
717,0.9016360000000001,-1.069661,-0.061084000000000006,0.376807,0.8770370000000001,-0.298012,-0.676006,1.203181,-1.6064040000000002,-0.730521,-0.397561,0.34742
718,0.892083,-1.115457,-0.079769,0.34229699999999996,0.8981120000000001,-0.276074,-1.317,-0.01848,-2.167996,-0.118175,0.165884,0.5640689999999999
719,0.897407,-1.1745079999999999,-0.073133,0.301726,0.9225,-0.240713,-2.415538,0.04507,-2.189637,-0.040708999999999995,0.49302700000000005,0.646185
720,0.9534739999999999,-1.238099,-0.022948,0.26629899999999995,0.9451649999999999,-0.189039,-2.449009,0.766096,-1.8532369999999998,-0.054629,0.45896400000000004,0.043927999999999995
721,1.023083,-1.280281,0.018984,0.244524,0.958097,-0.149151,-1.396366,1.892916,-1.108118,-0.06685,0.112201,0.226131
722,1.1195760000000001,-1.307148,0.070751,0.234498,0.9654459999999999,-0.11362799999999999,-1.1529,2.5499810000000003,-0.733384,-0.11998099999999999,-0.004371,0.120724
723,1.212127,-1.323988,0.113133,0.228735,0.9696969999999999,-0.085749,-0.649894,2.4565919999999997,-0.459491,-0.070547,-0.20213399999999998,0.072398
724,1.284979,-1.334095,0.14527,0.224954,0.972117,-0.066106,-0.491062,1.8567799999999999,-0.31554,-0.05252999999999999,-0.326075,0.060658000000000004
725,1.34999,-1.342965,0.18062999999999999,0.220349,0.974159,-0.049461,-0.5197189999999999,1.379779,-0.351448,0.080813,-0.426368,0.064689
726,1.4145590000000001,-1.351703,0.22092199999999998,0.214664,0.976095,-0.033814,-0.522806,1.184775,-0.33412800000000004,0.057797,-0.365286,0.09780900000000001
727,1.493103,-1.361438,0.280721,0.207169,0.9781639999999999,-0.016128,-0.8251360000000001,0.939315,-0.492954,-0.090974,-0.153579,0.233886
728,1.60418,-1.37523,0.376345,0.194175,0.9809379999999999,0.0064849999999999994,-1.029379,0.8365809999999999,-0.731394,-0.012367,-0.014294,0.17968800000000001
729,1.737579,-1.389174,0.49128900000000003,0.178076,0.9835520000000001,0.029977999999999998,-0.9511200000000001,1.243853,-0.883057,-0.023733,0.054976,0.129659
730,1.873847,-1.405678,0.599329,0.156832,0.986399,0.049039,-0.521146,1.522262,-1.0823040000000002,0.037,0.02828,-0.22309600000000002
731,1.9763130000000002,-1.425902,0.672324,0.132626,0.9895209999999999,0.056938,-0.011385,1.631599,-1.161137,0.28255,-0.162678,-0.332985
732,2.075629,-1.447993,0.734578,0.107155,0.992469,0.059213,0.154192,1.918634,-1.157143,0.48624399999999995,-0.17319400000000001,-0.326288
733,2.181314,-1.466473,0.809322,0.085258,0.994563,0.059654,0.077628,1.286142,-0.8951530000000001,0.5343100000000001,-0.073146,-0.169593
734,2.294655,-1.476285,0.9075639999999999,0.070642,0.9955370000000001,0.062442,-0.163168,0.50585,-0.559346,0.483847,0.021812,-0.05939
735,2.382773,-1.478921,0.990192,0.063065,0.995782,0.06651,-0.15824000000000002,0.259534,-0.238529,0.515517,0.183875,-0.147168
736,2.40156,-1.479961,1.001457,0.061107,0.995877,0.066919,0.12741,0.43230100000000005,-0.0017460000000000002,0.41333400000000003,0.43648100000000006,-0.296335
737,2.338904,-1.483127,0.934174,0.06290599999999999,0.996159,0.060767999999999996,0.408507,0.024677,0.193019,0.41863100000000003,0.494929,-0.237907
738,2.180056,-1.48222,0.780682,0.07247,0.99608,0.050571,0.5579109999999999,-0.479347,0.63268,0.371057,0.418929,-0.156986
739,1.912025,-1.473762,0.529555,0.09121900000000001,0.995296,0.032394,1.034244,-1.10388,1.088665,0.24601599999999998,0.11626099999999999,0.079789
740,1.5913680000000001,-1.4503780000000002,0.23220900000000003,0.120038,0.9927590000000001,0.00247,1.577256,-1.301755,1.616141,-0.034711,-0.170539,0.021624
741,1.3271620000000002,-1.409301,-0.0079,0.156002,0.9869879999999999,-0.038778,2.0729130000000002,-1.3122530000000001,1.9464919999999999,-0.051891,-0.052631,-0.10081
742,1.147833,-1.356398,-0.16625299999999998,0.193981,0.9771049999999999,-0.08731699999999999,2.327905,-1.051175,1.9703709999999999,-0.073986,0.5991890000000001,-0.091928
743,1.03709,-1.306707,-0.267939,0.224706,0.9653309999999999,-0.13278,2.079816,-0.297103,1.422879,-0.33760500000000004,0.639573,0.137434
744,0.9740049999999999,-1.266635,-0.335296,0.24770599999999998,0.954098,-0.1683,1.773281,0.282531,1.1251659999999999,-0.347788,0.52103,0.166561
745,0.9440149999999999,-1.226942,-0.378425,0.273024,0.9414620000000001,-0.197723,1.6878520000000001,0.668855,1.291785,-0.204146,0.222494,-0.083191
746,0.9329870000000001,-1.1855639999999998,-0.407149,0.301885,0.9267110000000001,-0.22374000000000002,1.584755,0.843567,1.3795030000000001,-0.191457,0.277039,-0.019363
747,0.9290889999999999,-1.1475520000000001,-0.42943000000000003,0.329007,0.911761,-0.245835,1.420561,0.8674649999999999,1.140112,-0.316465,0.359906,0.16155999999999998
748,0.920273,-1.115385,-0.450276,0.349993,0.8980799999999999,-0.266356,1.2739989999999999,0.203649,1.038458,0.014051,0.024832,0.051068999999999996
749,0.902863,-1.0844719999999999,-0.46439300000000006,0.36693200000000004,0.884057,-0.289471,1.1302780000000001,-0.49657299999999993,0.980667,-0.027897,-0.096581,0.034558
750,0.8825290000000001,-1.05854,-0.46846000000000004,0.37855500000000003,0.871641,-0.311334,0.7184550000000001,-1.0052709999999998,0.9453280000000001,-0.009245999999999999,-0.5155,-0.008307
751,0.864136,-1.0378399999999999,-0.45991800000000005,0.38640599999999997,0.861309,-0.32989,0.392115,-1.493989,0.9009459999999999,-0.09148400000000001,-0.545147,0.02833
752,0.8398620000000001,-1.021991,-0.44494300000000003,0.388402,0.8531479999999999,-0.34824099999999997,0.130639,-2.0584569999999998,0.82934,-0.06609,-0.522292,0.090246
753,0.812684,-1.010624,-0.422175,0.385812,0.8471639999999999,-0.36531199999999997,-0.173071,-2.455806,0.8266600000000001,-0.036462,-0.506908,0.1727
754,0.785719,-1.003855,-0.393331,0.37987,0.8435469999999999,-0.379627,-0.389903,-2.6070029999999997,0.730267,-0.071734,-0.5135149999999999,0.171344
755,0.75459,-1.00314,-0.365611,0.368284,0.8431629999999999,-0.391705,-0.553639,-2.777813,0.43130799999999997,-0.099012,-0.516808,0.223111
756,0.720387,-1.009498,-0.341992,0.35113,0.846565,-0.400032,-0.718032,-2.6088430000000002,0.14365999999999998,-0.075739,-0.45442899999999997,0.284096
757,0.6932119999999999,-1.022591,-0.322,0.333019,0.853461,-0.400865,-0.919536,-1.8816680000000001,-0.111848,-0.088573,-0.296577,0.354417
758,0.6889069999999999,-1.0426790000000001,-0.299496,0.320325,0.863757,-0.38898,-1.324746,-0.735798,-0.201605,0.001285,-0.157413,0.33388
759,0.72593,-1.070747,-0.25416700000000003,0.318279,0.877559,-0.358578,-2.0855759999999997,0.21599200000000002,0.06639400000000001,-0.075298,-0.08468200000000001,0.063717
760,0.803628,-1.099207,-0.178714,0.327034,0.8908469999999999,-0.315323,-2.216234,0.675307,0.40031500000000003,-0.16741199999999998,0.614066,-0.259155
761,0.8775540000000001,-1.108983,-0.113133,0.342715,0.8952459999999999,-0.28472800000000004,-0.783323,0.697146,0.8888590000000001,0.28941100000000003,1.194186,-0.6450359999999999
762,0.8976139999999999,-1.089183,-0.094331,0.362147,0.886249,-0.28879299999999997,0.796181,-0.133972,0.902025,-0.23864200000000002,0.171994,-0.510493
763,0.885551,-1.069208,-0.103717,0.372271,0.87682,-0.30428499999999997,0.6592720000000001,-0.14993900000000002,0.485551,-0.104327,0.46016999999999997,-0.422796
764,0.872892,-1.05975,-0.113535,0.374728,0.872233,-0.314289,0.502963,-0.24134499999999998,0.036992000000000004,0.155591,1.246801,-0.10531300000000002
765,0.875483,-1.058333,-0.112872,0.37649,0.871539,-0.314109,-0.46180699999999997,0.382204,0.249507,0.494238,1.791348,0.30080300000000004
766,0.913625,-1.065231,-0.07754,0.383424,0.874901,-0.29584299999999997,-0.670794,0.16139900000000001,0.237648,-0.58249,0.487404,0.22057100000000002
767,0.906106,-1.059692,-0.088999,0.384997,0.8722049999999999,-0.301702,0.9008139999999999,0.29478699999999997,-0.115809,-0.6002529999999999,-0.615506,0.292989
768,0.89035,-1.055483,-0.123975,0.383046,0.870139,-0.310037,0.522609,0.999592,-0.48468500000000003,-0.548497,-0.674475,0.31095300000000003
769,0.9008889999999999,-1.070431,-0.142092,0.376053,0.8774069999999999,-0.297873,-0.48412200000000005,1.329809,-1.204645,-0.5640109999999999,-0.269314,0.359854
770,0.897927,-1.106967,-0.157128,0.349854,0.8943459999999999,-0.27881100000000003,-0.9794930000000001,-0.038198,-1.791738,-0.116272,-0.037077,0.391344
771,0.893208,-1.153183,-0.153997,0.31597,0.91406,-0.254255,-2.023879,-0.441691,-1.747241,0.09559,0.09425599999999999,0.6077859999999999
772,0.940765,-1.2124059999999999,-0.099759,0.283408,0.9364620000000001,-0.20665100000000003,-2.710705,0.13577,-1.703644,-0.20601599999999998,0.24235500000000001,0.325868
773,1.000627,-1.259758,-0.050137,0.257614,0.952016,-0.165184,-1.492564,0.962929,-1.2881340000000001,-0.256089,0.200267,0.068962
774,1.061373,-1.2902049999999998,-0.019553,0.241738,0.960892,-0.135035,-1.1170799999999999,1.9585869999999999,-0.987685,-0.22390100000000002,0.236175,0.198207
775,1.135518,-1.3136809999999999,0.010928,0.230552,0.9671280000000001,-0.10721300000000002,-0.709217,2.240736,-0.7715529999999999,-0.226341,-0.16001400000000002,0.10380999999999999
776,1.191445,-1.329489,0.029281,0.221953,0.9710260000000001,-0.08848400000000001,-0.45108100000000007,1.7043139999999999,-0.582124,-0.087889,-0.26105,0.11529400000000001
777,1.240286,-1.342959,0.049706,0.213615,0.9741569999999999,-0.07329,-0.47858,1.322882,-0.542303,-0.045829,-0.290838,0.092013
778,1.2951139999999999,-1.3558219999999999,0.079907,0.20523200000000003,0.976982,-0.058057000000000004,-0.539894,1.2388270000000001,-0.51485,0.018553,-0.24573499999999998,0.090452
779,1.373905,-1.370263,0.13956500000000002,0.195305,0.97996,-0.038959,-0.9252729999999999,0.8708379999999999,-0.596119,-0.03138,-0.11956300000000002,0.187106
780,1.4809379999999999,-1.3856680000000001,0.23308,0.18328599999999998,0.9829129999999999,-0.016513999999999997,-0.978899,0.759368,-0.645489,-0.046705,-0.045291000000000005,0.166188
781,1.595358,-1.399918,0.327786,0.169948,0.9854360000000001,0.004175,-0.772243,1.32037,-0.724881,-0.06034400000000001,0.0008619999999999999,0.194525
782,1.700991,-1.415209,0.40281999999999996,0.153597,0.9879209999999999,0.020111,-0.404439,1.597675,-0.860467,0.155867,-0.026907,-0.174973
783,1.779468,-1.432752,0.44876000000000005,0.13456300000000002,0.9904870000000001,0.028494,-0.055535,1.7693259999999997,-0.931958,0.27831,-0.129556,-0.167502
784,1.8393849999999998,-1.4517209999999998,0.47006400000000004,0.114469,0.992919,0.031506,0.13431600000000002,1.9584279999999998,-0.9671930000000001,0.36447399999999996,-0.267547,-0.235104
785,1.9248299999999998,-1.470069,0.519744,0.09424400000000001,0.9949309999999999,0.034832999999999996,-0.095402,1.671502,-0.942793,0.419626,-0.184705,-0.227109
786,2.074678,-1.483991,0.644975,0.075837,0.996235,0.041813,-0.278475,0.962087,-0.798953,0.43131899999999995,0.015681999999999998,-0.16485999999999998
787,2.2014009999999997,-1.4913459999999998,0.759616,0.06401699999999999,0.9968450000000001,0.046735000000000006,-0.143512,0.514788,-0.41287700000000005,0.528634,0.09663,-0.13276400000000002
788,2.2388049999999997,-1.493423,0.785262,0.060595,0.997008,0.047810000000000005,0.08789,0.674204,0.012619,0.445478,0.243333,-0.29955
789,2.167119,-1.4944110000000002,0.70039,0.063048,0.997084,0.042794,0.39377,0.553075,0.20185,0.32924000000000003,0.431047,-0.26711399999999996
790,2.0283450000000003,-1.494345,0.556679,0.06842000000000001,0.997079,0.03369,0.502804,0.036503,0.351756,0.374116,0.482825,-0.149001
