,attitude.roll,attitude.pitch,attitude.yaw,gravity.x,gravity.y,gravity.z,rotationRate.x,rotationRate.y,rotationRate.z,userAcceleration.x,userAcceleration.y,userAcceleration.z
0,-0.404737,-1.186396,-0.628995,-0.14766400000000002,0.927024,-0.344697,0.637165,-1.265551,0.082991,0.07253,-0.18103699999999998,0.201677
1,-0.418545,-1.178507,-0.614899,-0.155377,0.9240360000000001,-0.349298,0.368759,-1.397794,0.086627,0.05885,-0.228037,0.093804
2,-0.44205200000000006,-1.175792,-0.60737,-0.164617,0.9229950000000001,-0.347815,0.065936,-1.609741,0.071964,0.057928,-0.204153,0.006812
3,-0.473329,-1.178276,-0.602627,-0.174368,0.923948,-0.340455,-0.123716,-1.90678,0.192797,0.058828,-0.180662,-0.108168
4,-0.50467,-1.183094,-0.590911,-0.18279600000000001,0.9257799999999999,-0.330923,-0.077931,-2.208127,0.38792,0.11851099999999999,0.035325,-0.34173000000000003
5,-0.525103,-1.188579,-0.567742,-0.186971,0.92784,-0.322721,0.009945,-1.934345,0.57619,0.050939,0.138719,-0.45883500000000005
6,-0.530183,-1.194473,-0.539307,-0.185839,0.9300219999999999,-0.31704299999999996,-0.0016,-1.396423,0.596784,0.008211,0.137163,-0.504749
7,-0.533325,-1.201841,-0.513532,-0.183345,0.9327049999999999,-0.310548,-0.13913599999999998,-1.397019,0.59475,-0.135487,-0.11130899999999999,-0.342559
8,-0.537042,-1.210336,-0.48775,-0.18043800000000002,0.935735,-0.303045,-0.11625799999999999,-1.237525,0.649185,-0.094678,-0.049977,0.5205890000000001
9,-0.5145890000000001,-1.218872,-0.46206099999999994,-0.169651,0.9387110000000001,-0.300055,-0.20056600000000002,0.50192,0.49361099999999997,-0.399792,0.25199299999999997,0.587958
10,-0.508356,-1.2241549999999999,-0.45999399999999996,-0.16536099999999998,0.9405190000000001,-0.29677,-0.185694,-0.242905,-0.002054,-0.832915,0.42399799999999993,0.025758999999999997
11,-0.538538,-1.226839,-0.48071499999999995,-0.172947,0.941427,-0.289477,-0.399729,-0.245087,-0.33576300000000003,-0.25695500000000004,-0.040426,0.20077799999999998
12,-0.5788939999999999,-1.23885,-0.532619,-0.178285,0.9454100000000001,-0.272778,-1.3814899999999999,0.787812,-0.445425,-0.149398,-0.278555,0.679867
13,-0.644648,-1.2636530000000001,-0.629786,-0.181672,0.9532010000000001,-0.24165100000000003,-2.0886150000000003,1.617613,-0.619139,-0.14860399999999999,-0.185638,0.710112
14,-0.740323,-1.287457,-0.769378,-0.188563,0.9601270000000001,-0.20637800000000003,-2.259604,1.9603279999999998,-0.9273520000000001,-0.103307,0.050386,0.450762
15,-0.88125,-1.301983,-0.9491700000000001,-0.20489899999999997,0.964087,-0.168954,-2.223903,1.223465,-1.301104,-0.028408,0.147837,0.34424699999999997
16,-1.05599,-1.3016940000000001,-1.1326690000000001,-0.231393,0.96401,-0.130896,-1.8476130000000002,-0.6245729999999999,-1.41468,0.165475,0.11521400000000001,0.354559
17,-1.2217129999999998,-1.291351,-1.2751190000000001,-0.25917199999999996,0.961209,-0.094336,-1.265263,-1.794259,-1.117489,0.475008,0.357441,0.4466
18,-1.308171,-1.2863440000000002,-1.3312620000000002,-0.270995,0.959816,-0.072853,-0.317229,-1.28207,-0.024074,0.613478,0.382943,0.24242399999999997
19,-1.336496,-1.292152,-1.346367,-0.267522,0.9614290000000001,-0.063853,-0.46464300000000003,-0.5997140000000001,0.225054,0.6013539999999999,0.224575,-0.322804
20,-1.399018,-1.3032270000000001,-1.3994309999999999,-0.260482,0.9644159999999999,-0.045191,-0.9013979999999999,-0.369375,0.543243,0.132735,0.031723,-0.035071
21,-1.451416,-1.316999,-1.455228,-0.24927800000000003,0.967966,-0.029901,-0.744793,0.286312,0.5381560000000001,0.088634,-0.017313,0.12336099999999998
22,-1.4980719999999998,-1.3277379999999999,-1.511715,-0.24001999999999998,0.970606,-0.017486,-0.7790159999999999,0.41250699999999996,0.44482,0.011748,-0.011469,0.096374
23,-1.565197,-1.337212,-1.5842319999999999,-0.231446,0.972843,-0.001296,-0.915416,-0.022729,0.447629,0.006684000000000001,-0.021869,0.058669000000000006
24,-1.6518830000000002,-1.3451870000000001,-1.6656830000000002,-0.222948,0.974658,0.018118000000000002,-0.8963700000000001,-0.578684,0.401473,0.032915,-0.041888,0.054834
25,-1.749296,-1.350155,-1.7475479999999999,-0.215362,0.975757,0.038856,-0.8703,-1.0057260000000001,0.345587,0.027404,-0.08111900000000001,0.050744
26,-1.853932,-1.352355,-1.83464,-0.208063,0.9762360000000001,0.060536,-0.908065,-0.8989209999999999,0.308866,-0.000265,-0.030542000000000003,0.0056560000000000004
27,-1.950573,-1.351792,-1.91915,-0.201761,0.9761139999999999,0.08053400000000001,-0.837098,-0.600642,0.247023,-0.001761,-0.023294,-0.040312
28,-2.028318,-1.3497709999999998,-1.9896470000000002,-0.196667,0.9756729999999999,0.096832,-0.69716,-0.359171,0.21244000000000002,0.011227,-0.014812,-0.06536900000000001
29,-2.0952319999999998,-1.347114,-2.0555950000000003,-0.191996,0.975087,0.11106300000000001,-0.734783,0.072318,0.23192,0.058634000000000006,-0.008702,-0.044947
30,-2.1554,-1.342684,-2.127527,-0.18857100000000002,0.974095,0.12479100000000001,-0.8268049999999999,0.732015,0.23897800000000002,0.064273,-0.01038,-0.012912999999999999
31,-2.207184,-1.336809,-2.201516,-0.18645899999999999,0.97275,0.137782,-0.8911049999999999,1.145556,0.241204,0.009640000000000001,-0.00165,0.004215999999999999
32,-2.2555080000000003,-1.328473,-2.275921,-0.185859,0.970783,0.151751,-0.984524,1.197225,0.188142,-0.020394,-0.011845,0.022733
33,-2.304719,-1.317078,-2.3479740000000002,-0.186373,0.967986,0.16810999999999998,-1.053992,0.8537030000000001,0.10797999999999999,-0.050687,-0.015441,-0.002918
34,-2.355611,-1.3038049999999999,-2.409569,-0.186656,0.964569,0.18643800000000002,-1.043682,0.219085,0.027681,-0.060521000000000005,-0.053328999999999994,-0.010596
35,-2.404468,-1.288408,-2.457948,-0.187289,0.960393,0.206304,-0.946257,-0.315479,-0.10768599999999999,-0.050504,-0.041203,-0.061163
36,-2.440554,-1.273691,-2.48508,-0.188822,0.9561879999999999,0.22370500000000001,-0.729106,-0.5596439999999999,-0.241521,-0.006552,0.034779000000000004,-0.134517
37,-2.459739,-1.2610620000000001,-2.49599,-0.192091,0.952415,0.236644,-0.49835,-0.288663,-0.275508,0.0567,0.095788,-0.17538
38,-2.459075,-1.252501,-2.4981459999999998,-0.197384,0.9497700000000001,0.242835,-0.27787199999999995,0.406995,-0.208629,0.083768,0.092405,-0.160148
39,-2.4474270000000002,-1.247101,-2.5024509999999998,-0.203478,0.948067,0.24445799999999998,-0.258885,0.9699110000000001,-0.071417,0.09071599999999999,0.041588,-0.137692
40,-2.4350680000000002,-1.243059,-2.5104509999999998,-0.20896900000000002,0.946773,0.244837,-0.306225,0.893329,-0.059899,0.071411,0.03249,-0.13530899999999998
41,-2.432387,-1.238522,-2.516334,-0.21241999999999997,0.9453030000000001,0.247533,-0.31667399999999996,0.089647,-0.201016,0.07054400000000001,0.08884600000000001,-0.129933
42,-2.438684,-1.231282,-2.517259,-0.21527600000000002,0.942917,0.254081,-0.370379,-0.395258,-0.36954899999999996,0.13767000000000001,0.10159299999999999,-0.102653
43,-2.442893,-1.222925,-2.5129,-0.219266,0.9401,0.26100999999999996,-0.326173,-0.382265,-0.460056,0.203901,0.129251,-0.131905
44,-2.439453,-1.215438,-2.501154,-0.224703,0.937522,0.265621,-0.119235,-0.386201,-0.45433199999999996,0.264421,0.247216,-0.099239
45,-2.430917,-1.211587,-2.4816409999999998,-0.229316,0.936175,0.266428,0.17166099999999998,-0.584774,-0.332405,0.301215,0.390165,-0.03274
46,-2.4327509999999997,-1.211533,-2.4651970000000003,-0.22885999999999998,0.936156,0.266887,0.17411,-1.048894,-0.1534,0.267602,0.320558,-0.047908
47,-2.445777,-1.2150100000000001,-2.451166,-0.22327600000000003,0.937373,0.267345,0.42699,-1.411332,-0.045415,0.14718,0.22435500000000003,-0.074428
48,-2.445786,-1.225714,-2.420474,-0.216829,0.941048,0.25963,0.9295540000000001,-1.460769,-0.10593499999999999,-0.118697,0.19353499999999998,-0.200777
49,-2.426059,-1.2387629999999998,-2.364636,-0.21383400000000002,0.9453809999999999,0.24601399999999998,1.181176,-1.793884,-0.402852,-0.26356799999999997,0.17255399999999999,-0.23792600000000003
50,-2.376789,-1.25397,-2.275538,-0.21570999999999999,0.9502290000000001,0.22478299999999998,1.7567540000000001,-1.641678,-0.603057,-0.27620300000000003,0.15759,-0.22546999999999998
51,-2.273796,-1.273735,-2.142114,-0.223302,0.956201,0.18923299999999998,2.355591,-0.941421,-0.682025,-0.181849,0.11434000000000001,-0.165124
52,-2.117492,-1.294964,-1.9670560000000001,-0.23264200000000002,0.962199,0.14157899999999998,2.744798,-0.336281,-0.502757,0.050635,0.07445299999999999,-0.038368
53,-1.9195389999999999,-1.313916,-1.7680919999999998,-0.23875900000000003,0.9671870000000001,0.086814,2.739523,0.734016,-0.155925,0.08165399999999999,0.217475,0.223886
54,-1.7034599999999998,-1.326215,-1.571585,-0.24001,0.970239,0.032029,2.342674,1.487457,0.114871,0.07474199999999999,0.24820599999999998,0.352508
55,-1.502765,-1.3336219999999999,-1.397269,-0.234402,0.9720059999999999,-0.015971,1.974609,1.5419049999999999,0.403854,0.154034,0.22571799999999997,0.449672
56,-1.32181,-1.33584,-1.234475,-0.225611,0.9725239999999999,-0.057364,1.774066,0.8469389999999999,0.412958,0.13444,0.059015,0.324729
57,-1.188257,-1.336341,-1.1036620000000001,-0.21551199999999998,0.972641,-0.086714,1.160156,-0.056991,0.556175,0.156415,0.046494,0.32610900000000004
58,-1.116382,-1.339393,-1.012518,-0.20606,0.9733459999999999,-0.100663,0.9724940000000001,-1.25047,0.542497,0.166509,0.054761000000000004,0.208725
59,-1.042532,-1.338376,-0.8952200000000001,-0.198926,0.9731120000000001,-0.11609100000000001,1.315131,-2.492233,0.690692,0.170255,0.08684,0.156756
60,-0.945752,-1.337132,-0.744688,-0.18775899999999998,0.972825,-0.135478,1.634727,-2.098117,0.955202,0.19757,-0.0074010000000000005,0.32966100000000004
61,-0.813605,-1.330503,-0.5743659999999999,-0.172955,0.971268,-0.163463,1.749526,-1.655614,1.018462,0.159115,-0.007111,0.23655199999999998
62,-0.6995359999999999,-1.3213190000000001,-0.42133999999999994,-0.158962,0.969042,-0.188905,1.506185,-1.661215,1.031724,0.066433,-0.050157,0.195023
63,-0.6071949999999999,-1.312238,-0.291426,-0.14588199999999998,0.9667600000000001,-0.209977,1.268035,-1.7338060000000002,1.009858,-0.007667,-0.066888,0.187577
64,-0.535995,-1.3024440000000002,-0.177429,-0.135404,0.964209,-0.22795300000000002,1.202906,-2.0401439999999997,0.9510430000000001,-0.029651,-0.070441,0.293871
65,-0.478315,-1.289807,-0.074956,-0.127636,0.960782,-0.246178,1.264259,-2.0038009999999997,0.867035,-0.03841,-0.076718,0.318733
66,-0.427004,-1.2728629999999999,0.014666,-0.12156800000000001,0.955945,-0.267181,1.318211,-1.537884,0.722605,-0.07635399999999999,-0.086377,0.270752
67,-0.381767,-1.25615,0.087898,-0.115298,0.9509059999999999,-0.287194,1.099781,-1.05009,0.671316,-0.096815,-0.13736800000000002,0.216637
68,-0.341976,-1.24399,0.146112,-0.107652,0.9470719999999999,-0.30242600000000003,0.7593270000000001,-0.643927,0.626757,-0.128875,-0.147527,0.19326400000000002
69,-0.310323,-1.236149,0.190902,-0.10029199999999999,0.944526,-0.312743,0.5471050000000001,-0.49680100000000005,0.515059,-0.130803,-0.11324300000000001,0.195892
70,-0.289414,-1.229765,0.22639099999999998,-0.09545,0.9424100000000001,-0.320544,0.425749,-0.7411220000000001,0.44722700000000004,-0.083551,-0.082776,0.20032
71,-0.28206,-1.22514,0.253754,-0.094303,0.940853,-0.325421,0.315177,-1.007659,0.331428,-0.006862999999999999,-0.095669,0.2384
72,-0.28749,-1.22176,0.271446,-0.096969,0.9397030000000001,-0.327952,0.19778800000000002,-1.1558190000000002,0.188724,-0.016465,-0.122228,0.24756799999999998
73,-0.304167,-1.220633,0.27933800000000003,-0.10274100000000001,0.939317,-0.327298,0.028444999999999998,-1.208021,0.070104,-0.10473199999999999,-0.18582200000000001,0.1676
74,-0.32866799999999996,-1.22248,0.278654,-0.110169,0.9399489999999999,-0.32304099999999997,-0.164159,-1.176134,-0.011399,-0.083374,-0.179695,0.108868
75,-0.360456,-1.227747,0.269397,-0.11863199999999999,0.941733,-0.314739,-0.376038,-1.145305,-0.07808,-0.052770000000000004,-0.143836,0.066616
76,-0.393964,-1.235254,0.258818,-0.126393,0.944232,-0.304051,-0.392946,-1.2319950000000002,0.037281,0.132572,0.004224,-0.196178
77,-0.41568999999999995,-1.241517,0.26508200000000004,-0.130577,0.946276,-0.29581599999999997,-0.16276300000000002,-1.469416,0.33615900000000004,0.26016999999999996,0.104948,-0.377386
78,-0.42073,-1.2487840000000001,0.29188200000000003,-0.129254,0.948601,-0.28886999999999996,-0.171846,-1.529181,0.637411,0.30618,0.164269,-0.428171
79,-0.416155,-1.256886,0.32794,-0.12482,0.951133,-0.28241900000000003,-0.11708099999999999,-1.426139,0.66223,0.20430399999999999,0.17760499999999999,-0.367834
80,-0.411092,-1.263596,0.358387,-0.12083599999999999,0.953184,-0.27719099999999997,-0.129707,-1.069657,0.503588,0.099077,0.09486599999999999,-0.26766999999999996
81,-0.412692,-1.268742,0.382252,-0.11930999999999999,0.954727,-0.2725,-0.040982,-1.3763319999999999,0.395642,-0.058485,-0.100449,-0.154868
82,-0.42117200000000005,-1.270327,0.404248,-0.12099800000000001,0.955198,-0.270097,0.08629099999999999,-1.4274229999999999,0.27482,-0.013661000000000001,-0.104032,0.128389
83,-0.433212,-1.271418,0.40986999999999996,-0.123804,0.95552,-0.267675,-0.09116,-0.397536,-0.045002,-0.361762,0.723527,0.41048199999999996
84,-0.4307,-1.268712,0.408514,-0.12420999999999999,0.9547180000000001,-0.270334,0.307288,0.240031,0.009307,-0.598935,0.8977290000000001,0.317209
85,-0.424788,-1.2646819999999999,0.422548,-0.124194,0.953512,-0.274567,0.11019200000000001,-0.546925,0.109352,-0.04823,-0.11027999999999999,0.037629
86,-0.42890900000000004,-1.269835,0.415547,-0.12328,0.955052,-0.269581,-0.524518,0.516878,-0.03745,-0.033916,-0.483555,0.681538
87,-0.450354,-1.2865739999999999,0.376366,-0.122055,0.95988,-0.252446,-1.291835,0.9582709999999999,-0.26342899999999997,-0.14491199999999999,-0.47951800000000006,0.72205
88,-0.511803,-1.311125,0.283591,-0.125745,0.9664739999999999,-0.223854,-1.815941,1.6447189999999998,-0.710213,-0.219973,-0.073713,0.5067520000000001
89,-0.618713,-1.3326209999999998,0.1373,-0.13683,0.97177,-0.192186,-1.8610759999999997,1.7006009999999998,-1.058841,-0.092204,0.12523,0.331011
90,-0.767482,-1.345782,-0.040128,-0.154911,0.974791,-0.160563,-1.767855,0.742985,-1.156307,0.024387,0.09944299999999999,0.26114899999999996
91,-0.947293,-1.350635,-0.21613600000000002,-0.177286,0.9758620000000001,-0.127506,-1.525531,-1.018126,-1.047672,0.13605699999999998,0.09651,0.279408
92,-1.117201,-1.34766,-0.362302,-0.198903,0.975208,-0.096965,-1.1279649999999999,-1.412202,-0.8788159999999999,0.279775,0.11584100000000001,0.28429699999999997
93,-1.219826,-1.341267,-0.445172,-0.213641,0.973773,-0.07822,-0.5289229999999999,-0.8748309999999999,-0.45123599999999997,0.37246999999999997,0.156476,0.149738
94,-1.266618,-1.340106,-0.486043,-0.218144,0.9735090000000001,-0.06848,-0.43684300000000004,-0.0337,-0.155773,0.215962,0.101458,0.038237
95,-1.315819,-1.34085,-0.541126,-0.220547,0.9736790000000001,-0.057486,-0.734992,0.35394899999999996,-0.13592,0.029599,0.045989999999999996,0.025625
96,-1.3794799999999998,-1.3403690000000001,-0.6180939999999999,-0.224216,0.973569,-0.043427,-0.883497,0.640532,-0.279398,0.010745999999999999,0.027774,0.032548
97,-1.4396579999999999,-1.337721,-0.692126,-0.22897699999999999,0.9729610000000001,-0.030201,-0.740185,0.530111,-0.22911700000000002,0.04578,0.026001999999999997,0.025074000000000003
98,-1.4810159999999999,-1.3355920000000001,-0.739678,-0.232093,0.972467,-0.020893000000000002,-0.400354,0.03533,-0.134242,0.15518900000000002,0.008719,0.042637
99,-1.5055479999999999,-1.334259,-0.757934,-0.23383,0.9721549999999999,-0.015279,-0.131209,-0.533718,-0.053653,0.179951,0.006971,0.066777
100,-1.534014,-1.333374,-0.772107,-0.235029,0.9719479999999999,-0.008648999999999999,-0.209346,-0.828523,-0.054889,0.18118,0.006187,0.087232
101,-1.574467,-1.33332,-0.794954,-0.23523899999999998,0.971935,0.000863,-0.30715,-0.94235,-0.009493000000000001,0.126917,0.009862000000000001,0.104834
102,-1.615054,-1.335513,-0.817529,-0.232879,0.972448,0.010313,-0.275302,-0.9341149999999999,0.034516000000000005,0.08630299999999999,-0.006552,0.103655
103,-1.651275,-1.338508,-0.8363290000000001,-0.22945,0.9731420000000001,0.018506,-0.214385,-0.888611,0.057316,0.028842000000000003,-0.012020999999999999,0.09296
104,-1.6916529999999999,-1.341976,-0.8596379999999999,-0.225163,0.973935,0.027346,-0.29998800000000003,-0.8853549999999999,0.11653499999999999,0.000279,-0.002225,0.053312
105,-1.746203,-1.345205,-0.89889,-0.220239,0.974662,0.039033,-0.44889399999999996,-0.723156,0.176175,0.008034999999999999,0.041268,0.041915
106,-1.804207,-1.348865,-0.948569,-0.21413400000000002,0.975474,0.050908999999999996,-0.490092,-0.2835,0.287487,-0.013680000000000001,0.029256,0.051737
107,-1.8563330000000002,-1.352275,-1.003629,-0.20799600000000001,0.9762190000000001,0.061059,-0.5174949999999999,0.307656,0.32926700000000003,-0.048855,-0.011116,0.018058
108,-1.902223,-1.355385,-1.063701,-0.202105,0.9768889999999999,0.069548,-0.585808,0.81905,0.373,-0.044218,-0.047613,-0.003996
109,-1.9484849999999998,-1.3576,-1.1323889999999999,-0.196661,0.97736,0.07802200000000001,-0.673752,1.162493,0.343104,-0.040674,-0.05304299999999999,0.007595
110,-1.991812,-1.3569579999999999,-1.203733,-0.19367,0.977223,0.086724,-0.701937,1.4037950000000001,0.22615700000000002,-0.015818000000000002,-0.014455,0.033378
111,-2.02144,-1.353723,-1.263136,-0.19386,0.976532,0.09379900000000001,-0.589576,1.349595,0.096689,0.013988999999999998,-0.009186,0.055005
112,-2.04782,-1.349269,-1.3106200000000001,-0.19518,0.975563,0.100876,-0.575745,0.759813,-0.010348999999999999,0.049291,-0.022713,0.050658999999999996
113,-2.088486,-1.3418709999999998,-1.360752,-0.197183,0.9739110000000001,0.112296,-0.736841,0.22160500000000002,-0.075947,0.078821,-0.014133000000000001,0.068826
114,-2.150974,-1.331377,-1.423478,-0.198323,0.971476,0.129986,-0.981233,-0.272884,-0.080225,0.11410999999999999,0.0027370000000000003,0.044285000000000005
115,-2.22857,-1.317461,-1.489367,-0.198331,0.968082,0.15322,-1.097086,-0.91261,-0.105851,0.140943,0.045331,-0.131232
116,-2.3089419999999996,-1.301377,-1.549339,-0.196884,0.9639260000000001,0.179105,-1.079,-1.185287,-0.129945,0.24018899999999999,0.072482,-0.301099
117,-2.366677,-1.286331,-1.592902,-0.196348,0.9598120000000001,0.200508,-0.84625,-0.423411,-0.116477,0.287061,0.080792,-0.315681
118,-2.386987,-1.275901,-1.6182969999999999,-0.19908199999999998,0.956832,0.211736,-0.5083,0.486155,-0.09819,0.29586799999999996,0.144669,-0.381963
119,-2.384122,-1.269382,-1.627646,-0.20397,0.954917,0.215693,-0.211142,0.562018,-0.146418,0.30075599999999997,0.146584,-0.38592
120,-2.366427,-1.267879,-1.613796,-0.20875900000000003,0.95447,0.213075,0.287772,-0.065837,-0.210495,0.24684499999999998,0.204923,-0.32245
121,-2.342068,-1.2754,-1.57817,-0.208733,0.9566870000000001,0.20291800000000002,0.84672,-0.6298739999999999,-0.036019999999999996,0.086907,0.39895,-0.166266
122,-2.301333,-1.291294,-1.52254,-0.20547100000000001,0.9611930000000001,0.184078,1.2590299999999999,-0.656223,0.068374,0.03175,0.41663,-0.11755
123,-2.241371,-1.310584,-1.441957,-0.201567,0.966335,0.159881,1.532789,-1.057447,0.001366,-0.115801,0.349186,-0.14341700000000002
124,-2.151672,-1.327526,-1.322402,-0.20136199999999999,0.970555,0.132178,1.8366630000000002,-1.407742,-0.306915,-0.281975,0.22255999999999998,-0.175834
125,-2.009692,-1.339758,-1.141887,-0.20727600000000002,0.9734290000000001,0.097302,2.302196,-1.8566630000000002,-0.600053,-0.162704,0.21907600000000002,-0.166714
126,-1.818687,-1.34545,-0.9152040000000001,-0.216604,0.9747170000000001,0.054822,2.624124,-0.9088620000000001,-0.539199,-0.080348,0.20602399999999998,-0.07822899999999999
127,-1.577691,-1.347142,-0.679955,-0.22178,0.975093,0.001529,2.471292,1.398242,-0.070001,0.025781000000000002,0.1545,0.260266
128,-1.352187,-1.3479860000000001,-0.492005,-0.21570300000000003,0.9752799999999999,-0.047921,1.810257,2.235826,0.43278199999999994,0.06758600000000001,0.162674,0.413033
129,-1.172358,-1.3480889999999999,-0.33831700000000003,-0.203562,0.975303,-0.08569,1.534965,0.9249440000000001,0.553248,0.034402999999999996,0.073281,0.524853
130,-1.033627,-1.3448440000000002,-0.20108099999999998,-0.192475,0.9745809999999999,-0.11463599999999999,1.353465,-0.06826499999999999,0.53723,0.018494,0.07195800000000001,0.41206000000000004
131,-0.941203,-1.340786,-0.087861,-0.18426900000000002,0.973664,-0.134239,1.112113,-1.331807,0.511526,0.03545,0.024719,0.093086
132,-0.8636729999999999,-1.3349959999999998,0.032867,-0.177602,0.9723280000000001,-0.151767,1.455666,-2.2937119999999998,0.73628,0.080022,0.10993199999999999,0.06464
133,-0.745739,-1.323197,0.193868,-0.166284,0.969504,-0.180025,1.916066,-1.667857,1.001477,0.12371199999999999,0.126749,0.146029
134,-0.618205,-1.303968,0.35297399999999995,-0.152815,0.964612,-0.21486799999999998,2.104509,-1.135507,0.910244,-0.008898,0.034823,0.172586
135,-0.511962,-1.277216,0.483742,-0.141762,0.9572139999999999,-0.252274,2.021106,-0.8554959999999999,0.755479,-0.132331,-0.040344,0.131577
136,-0.43794700000000003,-1.251562,0.575633,-0.13309100000000001,0.949476,-0.28421599999999997,1.62495,-0.630771,0.578303,-0.185955,-0.09583799999999999,0.129447
137,-0.39025,-1.228365,0.639786,-0.127735,0.941941,-0.310528,1.429002,-0.701918,0.425338,-0.179531,-0.09456,0.209958
138,-0.363699,-1.2046540000000001,0.6867949999999999,-0.127357,0.933715,-0.334594,1.384657,-0.9908950000000001,0.269438,-0.13897,-0.118576,0.281722
139,-0.351986,-1.180687,0.723154,-0.131108,0.924868,-0.35697,1.342689,-1.1512799999999999,0.188166,-0.09650700000000001,-0.139299,0.339545
140,-0.347068,-1.156709,0.754624,-0.136857,0.915484,-0.378361,1.326835,-1.1786780000000001,0.127201,-0.042907,-0.188586,0.357487
141,-0.34686999999999996,-1.135095,0.776602,-0.143476,0.906574,-0.396907,1.049187,-0.8513729999999999,0.035112,-0.07850900000000001,-0.267002,0.283198
142,-0.34882199999999997,-1.119176,0.789613,-0.14916500000000002,0.899741,-0.410138,0.701703,-0.590041,-0.014652000000000002,-0.061025,-0.332343,0.257092
143,-0.351534,-1.110876,0.796166,-0.152843,0.8960879999999999,-0.416729,0.299417,-0.358578,-0.007076000000000001,0.025218,-0.30140700000000004,0.204235
144,-0.355727,-1.108611,0.798355,-0.15529500000000002,0.8950799999999999,-0.41798599999999997,0.032787000000000004,-0.30239699999999997,0.027308999999999996,0.09235299999999999,-0.243927,0.134203
145,-0.36088899999999996,-1.111977,0.800479,-0.156386,0.896576,-0.414358,-0.266912,-0.391346,0.153516,0.158522,-0.294159,0.096731
146,-0.368799,-1.1229559999999998,0.801583,-0.156101,0.901384,-0.403901,-0.645425,-0.471413,0.257797,0.178058,-0.330813,0.059495000000000006
147,-0.378861,-1.140181,0.802465,-0.154391,0.908709,-0.387826,-0.8471360000000001,-0.599046,0.382602,0.169603,-0.25302399999999997,-0.042899
148,-0.386494,-1.158601,0.8104680000000001,-0.15100999999999998,0.9162440000000001,-0.371067,-0.723168,-0.834616,0.577118,0.14231300000000002,-0.06661900000000001,-0.256633
149,-0.381409,-1.175561,0.8352450000000001,-0.143316,0.922906,-0.357354,-0.5486850000000001,-0.870559,0.889235,0.19989500000000002,0.183539,-0.51847
150,-0.359657,-1.192827,0.8712799999999999,-0.129881,0.929416,-0.34541900000000003,-0.579341,-0.30172,0.9203389999999999,0.10328499999999999,0.27724899999999997,-0.625239
151,-0.32957600000000004,-1.209644,0.898774,-0.11435799999999999,0.9354899999999999,-0.334332,-0.662049,0.46144700000000005,0.618613,-0.136099,0.18546600000000002,-0.790546
152,-0.312487,-1.2216719999999999,0.91233,-0.10516099999999999,0.939673,-0.32550500000000004,-0.272752,-0.11072,0.31014400000000003,-0.36394,0.172006,-0.505306
153,-0.311625,-1.219268,0.9306549999999999,-0.105573,0.9388479999999999,-0.327745,0.441562,-1.213473,0.27168200000000003,-0.337466,0.048427,-0.15501199999999998
154,-0.317283,-1.211039,0.958192,-0.10983299999999999,0.935982,-0.334472,0.5160319999999999,-1.635982,0.37208800000000003,-0.133606,-0.10980999999999999,0.005187
155,-0.32062399999999996,-1.208279,0.983292,-0.11176300000000002,0.9350069999999999,-0.336554,0.08745,-1.1209120000000001,0.341729,-0.154365,-0.112604,0.023551
156,-0.32821100000000003,-1.215277,0.987712,-0.112201,0.937466,-0.329494,-0.549197,-0.11103800000000001,0.096706,-0.33749,0.39014,-0.075581
157,-0.30394299999999996,-1.222324,0.983758,-0.10219299999999999,0.939896,-0.325807,-0.041749,1.898594,0.05921900000000001,-0.5163220000000001,1.150177,0.041872
158,-0.285706,-1.211339,0.9881,-0.099139,0.9360879999999999,-0.337503,0.7517729999999999,0.13076500000000002,-0.227802,-0.021405,-0.298744,0.660883
159,-0.294187,-1.211642,0.9778819999999999,-0.10191599999999999,0.9361940000000001,-0.336379,-0.735843,0.045522,0.001198,-0.025205,-0.880652,1.13179
160,-0.294511,-1.245141,0.9585799999999999,-0.092865,0.947441,-0.306152,-2.191598,1.7967540000000002,0.21630500000000003,0.23938,-1.0074239999999999,0.716979
161,-0.269229,-1.295312,0.9080440000000001,-0.072351,0.9622940000000001,-0.26221,-2.75894,4.478681,-0.247225,0.41538400000000003,-0.0035380000000000003,0.6100800000000001
162,-0.270029,-1.345175,0.817702,-0.059676,0.9746549999999999,-0.2156,-2.630345,3.9590669999999997,-0.418713,-0.164766,0.45922799999999997,0.652673
163,-0.31927,-1.3910209999999998,0.718713,-0.056121000000000004,0.983884,-0.169764,-2.312264,1.304772,-0.25499299999999997,0.039320999999999995,0.30987800000000004,0.063792
164,-0.424029,-1.42485,0.605243,-0.059829999999999994,0.989369,-0.13253900000000002,-1.7292349999999999,0.24274099999999998,-0.239946,0.11514300000000001,0.122676,0.13109
165,-0.565038,-1.450287,0.438229,-0.064364,0.9927469999999999,-0.101522,-1.659843,1.913809,-0.47874799999999995,0.01964,-0.093532,0.261297
166,-0.785841,-1.467395,0.161582,-0.073008,0.994659,-0.072943,-1.517833,3.071381,-0.771932,-0.002157,0.071076,0.261755
167,-0.9869399999999999,-1.471723,-0.10173,-0.082514,0.9950959999999999,-0.054515999999999995,-0.9680979999999999,2.7135569999999998,-0.47707700000000003,0.044427999999999995,0.12178599999999999,0.206235
168,-1.090876,-1.48137,-0.234262,-0.079204,0.9960040000000001,-0.041226,-0.77067,0.47880200000000006,0.367856,0.22669499999999998,-0.020494,-0.018634
169,-1.356198,-1.494736,-0.478818,-0.074225,0.997109,-0.016178,-1.43954,-1.8870529999999999,0.11838800000000001,0.353995,-0.094979,0.017932
170,-1.786993,-1.49299,-0.864713,-0.075899,0.996975,0.016669999999999997,-1.3773,-2.249702,-0.087947,0.236925,-0.1721,0.093468
171,-2.102442,-1.486057,-1.149602,-0.072938,0.9964120000000001,0.042897000000000005,-1.119432,-1.0704209999999998,0.215718,0.146699,-0.072767,-0.077702
172,-2.381151,-1.479459,-1.433715,-0.062851,0.9958319999999999,0.066069,-1.227429,1.0053590000000001,0.685526,0.069565,0.011477,-0.053480999999999994
173,-2.607788,-1.469622,-1.698316,-0.051382000000000004,0.994886,0.086935,-1.078383,2.147774,0.7128770000000001,0.007268999999999999,-0.026853,-0.113455
174,-2.763102,-1.458151,-1.898841,-0.041530000000000004,0.993662,0.10443499999999999,-0.9341360000000001,2.172931,0.690351,-0.031712,-0.03921,-0.088261
175,-2.859913,-1.444182,-2.041904,-0.035097,0.9919950000000001,0.12128699999999999,-0.9675360000000001,2.393227,0.50717,-0.053052999999999996,-0.092062,0.010198
176,-2.904212,-1.425768,-2.137411,-0.033983,0.989502,0.140458,-1.125993,2.568127,0.32958200000000004,-0.169844,-0.161484,0.05075
177,-2.920496,-1.401418,-2.206763,-0.036965,0.98569,0.164458,-1.407026,2.5686,0.18875,-0.224784,-0.134707,0.042161000000000004
178,-2.914929,-1.371724,-2.246051,-0.04444,0.98025,0.192693,-1.58896,1.8855520000000001,-0.134249,-0.304665,-0.105189,-0.032842
179,-2.894095,-1.339695,-2.244065,-0.05611,0.9734149999999999,0.22206199999999998,-1.50068,0.246298,-0.527842,-0.37810900000000003,-0.030513,-0.256822
180,-2.896319,-1.309509,-2.228369,-0.062725,0.966058,0.25058600000000003,-1.383981,-1.3604,-0.5634239999999999,-0.176319,0.181693,-0.336142
181,-2.902974,-1.280453,-2.206657,-0.067664,0.9581459999999999,0.278163,-1.301907,-1.200651,-0.6239439999999999,0.11605,0.112152,-0.40168200000000004
182,-2.8958310000000003,-1.255431,-2.1917709999999997,-0.075459,0.950683,0.30083699999999997,-1.005766,0.327228,-0.41659799999999997,0.27808099999999997,0.13823,-0.300883
183,-2.862405,-1.243001,-2.188279,-0.08872100000000001,0.9467549999999999,0.30948200000000003,-0.319684,2.110986,-0.06798799999999999,0.354468,0.15730999999999998,-0.08955700000000001
184,-2.819665,-1.244731,-2.197607,-0.101344,0.94731,0.303854,0.1315,2.671544,0.283754,0.38195300000000004,0.232896,-0.14166800000000002
185,-2.810984,-1.242262,-2.231042,-0.10473800000000001,0.946516,0.305175,-0.613657,1.4361760000000001,0.5749609999999999,0.17013699999999998,0.318468,-0.41076599999999996
186,-2.837752,-1.231549,-2.276309,-0.09956,0.943005,0.317527,-0.667084,0.594179,0.46243599999999996,0.01521,0.43011800000000006,-0.441733
187,-2.8436,-1.233583,-2.2984720000000003,-0.097139,0.94368,0.31627,0.5172770000000001,0.9761549999999999,0.34951,0.15822,0.622512,-0.447435
188,-2.826587,-1.261555,-2.303741,-0.094288,0.952565,0.289353,1.6721400000000002,0.949458,0.696237,0.152607,0.735073,-0.422608
189,-2.849053,-1.303734,-2.3255689999999998,-0.076102,0.96455,0.252679,2.040701,-0.7946989999999999,0.984125,-0.214196,0.47736000000000006,-0.516458
190,-2.869618,-1.3542530000000002,-2.318132,-0.057714999999999995,0.9766459999999999,0.206948,2.73542,-1.504645,0.23465500000000003,-0.610437,0.23506999999999997,-0.508828
191,-2.754865,-1.412799,-2.1869490000000003,-0.059338,0.9875440000000001,0.145709,3.284102,-0.071616,-0.298528,-0.591541,0.00475,0.097241
192,-2.412258,-1.470192,-1.875276,-0.066914,0.994944,0.07487200000000001,3.5422050000000005,2.60737,-0.21042800000000003,-0.551311,0.341879,0.545612
193,-1.592555,-1.496413,-1.121941,-0.074274,0.997235,0.001616,3.313128,3.830168,-0.24350500000000003,-0.52442,0.529544,0.621766
194,-0.882091,-1.471583,-0.491863,-0.07646,0.995082,-0.062939,2.654939,4.093424,-0.238826,-0.582155,0.576771,0.24274899999999996
195,-0.581946,-1.4374719999999999,-0.255344,-0.073058,0.991125,-0.11103900000000001,1.968272,2.67307,-0.091183,-0.508698,0.2651,-0.046966
196,-0.44317799999999996,-1.3964299999999998,-0.150927,-0.074388,0.9848370000000001,-0.15671600000000002,2.4134830000000003,1.194375,-0.453646,-0.20761,0.16733900000000002,0.176232
197,-0.385654,-1.341836,-0.08354199999999999,-0.085374,0.9739030000000001,-0.21029,2.841998,-1.4237440000000001,-0.374659,-0.26016100000000003,0.07877,0.597146
198,-0.33723400000000003,-1.302953,-0.014113999999999998,-0.08756599999999999,0.9643440000000001,-0.249741,1.7256349999999998,-0.030633999999999998,0.393423,0.17593,0.09904099999999999,0.455399
199,-0.235287,-1.268435,0.061538999999999996,-0.06941699999999999,0.954636,-0.289567,2.191878,1.773884,0.536441,0.129964,-0.11335799999999999,0.258347
200,-0.16478099999999998,-1.222507,0.11365399999999999,-0.055983000000000005,0.939958,-0.336665,2.5436229999999997,0.47201499999999996,0.257488,-0.074388,-0.300508,0.372477
201,-0.144565,-1.171417,0.139336,-0.056018,0.9213030000000001,-0.384788,2.575886,-0.450614,-0.011365,-0.010434,-0.373695,0.437675
202,-0.150506,-1.1229120000000001,0.14974400000000002,-0.064932,0.901365,-0.42816099999999996,2.308641,-1.008132,-0.21761599999999998,0.022894,-0.44878999999999997,0.482376
203,-0.177484,-1.0811549999999999,0.151723,-0.083034,0.882501,-0.46292,1.896497,-1.661411,-0.32648,-0.032734,-0.620661,0.649458
204,-0.212639,-1.051175,0.15043199999999998,-0.10479200000000001,0.868007,-0.48536599999999996,1.163692,-1.602502,-0.3039,-0.023657,-0.689342,0.6897270000000001
205,-0.24270999999999998,-1.037811,0.144109,-0.12211500000000002,0.861294,-0.493213,0.272447,-0.9687879999999999,-0.299187,-0.057038,-0.724484,0.629138
206,-0.26467399999999996,-1.042298,0.130227,-0.131905,0.8635649999999999,-0.486677,-0.644035,-0.21264,-0.254215,-0.009117,-0.65246,0.41667
207,-0.275949,-1.0653700000000002,0.11146800000000001,-0.131919,0.8749680000000001,-0.46586099999999997,-1.596623,0.492961,-0.058811,0.026054,-0.644576,0.319102
208,-0.27671,-1.108645,0.091937,-0.12180899999999999,0.8950959999999999,-0.428911,-2.572031,1.048781,0.317156,0.166303,-0.516464,-0.179106
209,-0.255134,-1.170987,0.080832,-0.098234,0.921135,-0.37664000000000003,-3.2741849999999997,1.9240810000000002,0.7480319999999999,0.10723699999999999,-0.42199,-0.484475
210,-0.215848,-1.233493,0.07911,-0.070879,0.943651,-0.32326,-2.706918,1.863362,0.522405,-0.321821,0.185118,-1.102231
211,-0.22340700000000002,-1.2674809999999999,0.059127,-0.066174,0.9543510000000001,-0.291259,-1.127847,-0.217854,-0.131546,-0.170048,1.528009,-1.0486
212,-0.23652399999999998,-1.26588,0.055018,-0.070346,0.9538719999999999,-0.29185,0.8742340000000001,-0.47339,-0.034981,-0.09893500000000001,1.215516,-0.64771
213,-0.21993000000000001,-1.232989,0.080864,-0.07230199999999999,0.943484,-0.323432,1.876152,-0.32611,0.093606,-0.180643,0.10366600000000001,-0.559549
214,-0.198124,-1.207729,0.114401,-0.06990199999999999,0.9348120000000001,-0.348192,0.850303,-0.642199,0.375265,-0.007429000000000001,-0.961118,-0.034163
215,-0.199028,-1.215268,0.12222100000000001,-0.06882100000000001,0.9374629999999999,-0.34121,-1.032604,0.053690999999999996,0.077075,-0.288951,-0.707635,0.100579
216,-0.168851,-1.2383469999999999,0.106528,-0.054844000000000004,0.9452459999999999,-0.321712,-0.5492,4.217764,-0.053072,-0.415691,0.663656,0.807049
217,-0.11915099999999999,-1.211389,0.094084,-0.041808,0.936105,-0.349222,1.652591,0.24219200000000002,-0.638279,-0.41768,0.488379,0.274744
218,-0.171572,-1.197602,0.052962,-0.062247000000000004,0.931167,-0.35923499999999997,-0.153675,-0.514091,-0.686247,-0.016183000000000003,-1.335891,1.285108
219,-0.171106,-1.225789,0.020444999999999998,-0.057586,0.9410729999999999,-0.33326100000000003,-2.282512,2.957832,-0.22059299999999998,0.17738299999999999,-0.851534,0.9395530000000001
220,-0.129521,-1.2806870000000001,-0.030766,-0.036946,0.9582129999999999,-0.283656,-3.0704919999999998,4.903748,-0.5170100000000001,-0.200191,0.37587800000000005,1.118998
221,-0.155056,-1.3547200000000001,-0.133981,-0.03311,0.9767459999999999,-0.21181999999999998,-4.347016,2.734479,-0.9162530000000001,-0.453874,0.964599,0.776502
222,-0.329909,-1.439624,-0.3448,-0.042368,0.991409,-0.123731,-4.303863,1.095425,-0.522882,-0.192113,0.70015,0.669752
223,-0.5925630000000001,-1.493701,-0.6257689999999999,-0.043002,0.99703,-0.06386900000000001,-2.181223,1.110135,0.084789,0.369051,0.22329200000000002,0.41511099999999995
224,-0.7545609999999999,-1.512723,-0.8305610000000001,-0.039735,0.9983139999999999,-0.042263999999999996,-0.8534149999999999,2.5303310000000003,-0.046625,0.242356,-0.017586,0.014325
225,-1.062065,-1.525663,-1.184135,-0.039366000000000005,0.9989819999999999,-0.021953999999999998,-1.3416700000000001,1.960812,0.009447,-0.036882,-0.047474,0.000638
226,-1.9405169999999998,-1.531917,-2.085725,-0.036191,0.999244,0.014025,-2.227128,0.48248100000000005,0.176072,-0.012256,-0.22840100000000002,0.011793000000000001
227,-2.618527,-1.497102,-2.760191,-0.036765,0.997286,0.06375700000000001,-2.411781,-0.38145,-0.197989,-0.105233,-0.29645,0.09098200000000001
228,-2.729539,-1.4585700000000001,-2.862762,-0.044843,0.9937090000000001,0.10259800000000001,-1.687171,-0.603422,-0.460767,0.076352,-0.18041600000000002,-0.140623
229,-2.78822,-1.423549,-2.928754,-0.050767,0.9891790000000001,0.13763499999999998,-1.832386,1.1406129999999999,-0.113639,0.234971,-0.060697,-0.09967100000000001
230,-2.836509,-1.391566,-3.021916,-0.05354400000000001,0.983981,0.170025,-1.67038,2.745721,0.34370300000000004,0.291138,-0.029925,-0.226452
231,-2.855534,-1.365086,-3.0995150000000002,-0.057633000000000004,0.978916,0.195947,-1.421786,2.661046,0.257954,0.177598,-0.033694999999999996,-0.43825699999999995
232,-2.855917,-1.338128,-3.140677,-0.064973,0.9730549999999999,0.221216,-1.405986,1.590584,-0.056758,-0.040419,-0.049135000000000005,-0.421717
233,-2.850936,-1.3113110000000001,3.1251290000000003,-0.073528,0.9665219999999999,0.245808,-1.281316,0.864503,-0.273942,-0.090168,-0.029297000000000004,-0.245808
234,-2.8289299999999997,-1.28731,3.132945,-0.086031,0.9600860000000001,0.266131,-1.0301049999999998,0.699615,-0.548646,-0.0567,-0.001224,-0.141756
235,-2.802946,-1.260925,-3.136173,-0.101299,0.9523729999999999,0.287605,-1.395653,0.479596,-0.62142,0.021053,0.019536,-0.41845
236,-2.809456,-1.219745,3.141565,-0.112125,0.9390120000000001,0.325081,-2.302547,-0.414462,-0.561447,0.017963,0.06780900000000001,-0.79052
237,-2.8186259999999996,-1.176809,3.13849,-0.121831,0.923386,0.364016,-1.51709,0.145017,-0.761776,0.165257,0.43248000000000003,-0.604982
238,-2.7650200000000003,-1.166834,-3.112325,-0.14454,0.9195110000000001,0.36551300000000003,0.302558,1.621974,-0.596066,0.39403699999999997,0.390349,-0.30196
239,-2.720266,-1.1714120000000001,-3.0949880000000003,-0.159025,0.9213,0.35483600000000004,0.19300599999999998,1.1011870000000001,-0.0022329999999999997,0.409376,0.39919499999999997,-0.13988499999999998
240,-2.734363,-1.170882,-3.118093,-0.1542,0.9210940000000001,0.35749000000000003,-0.379355,-0.086963,0.58495,0.207499,0.296496,-0.43431800000000004
241,-2.773911,-1.173001,3.133139,-0.139244,0.921917,0.361485,0.251367,-0.557728,0.549367,0.050804,0.448719,-0.822148
242,-2.764448,-1.2050040000000002,-3.13804,-0.131721,0.933841,0.332541,2.3144259999999997,0.325534,0.322295,0.087974,0.685163,-0.6237699999999999
243,-2.720673,-1.264394,-3.097766,-0.123241,0.953425,0.27529000000000003,3.352911,-0.099557,0.76486,0.319652,0.733282,-0.451437
244,-2.675669,-1.3447719999999999,-3.035698,-0.10067100000000001,0.974565,0.200202,4.285793,-0.8286629999999999,1.135506,-0.005804999999999999,0.49865600000000004,-0.334418
245,-2.608529,-1.427941,-2.953375,-0.072337,0.989814,0.12259600000000001,3.7067410000000005,-0.563283,1.339425,-0.604238,0.401681,0.626397
246,-2.395266,-1.493886,-2.7360450000000003,-0.052136,0.997044,0.056378,3.25116,0.23550300000000002,0.712446,-0.687137,0.509487,0.8337889999999999
247,-1.390895,-1.519993,-1.753184,-0.049901999999999995,0.99871,-0.009075,3.1628700000000003,1.588902,-0.133801,-0.6977180000000001,0.793054,0.516613
248,-0.656652,-1.483231,-1.057091,-0.053367,0.9961690000000001,-0.06924,2.630234,2.1206959999999997,-0.25998000000000004,-0.533471,0.635133,-0.198994
249,-0.392563,-1.4511209999999999,-0.832133,-0.045663999999999996,0.992848,-0.110286,1.748107,2.037363,0.563974,-0.246587,0.6423760000000001,-0.034993
250,-0.152952,-1.4201979999999998,-0.609797,-0.022855,0.9886809999999999,-0.14826199999999998,2.265898,-0.156971,1.146174,0.24441300000000002,0.216824,0.548775
251,0.001333,-1.3653959999999998,-0.44064,0.000272,0.978979,-0.203947,3.096105,-0.563729,1.1813360000000002,0.140475,0.138574,0.6005229999999999
252,0.057420000000000006,-1.301045,-0.373328,0.015293000000000001,0.963837,-0.266046,3.196015,-0.538105,0.814533,-0.0275,0.024322,0.560708
253,0.082485,-1.241495,-0.332368,0.026644,0.946269,-0.322277,2.7751040000000002,-0.922176,0.789652,-0.222673,-0.32078,0.613491
254,0.07902,-1.187236,-0.306562,0.029539999999999997,0.9273379999999999,-0.373052,2.6072759999999997,-1.64421,0.6131489999999999,-0.15805,-0.5537270000000001,0.63236
255,0.059101999999999995,-1.136945,-0.286677,0.02483,0.9073530000000001,-0.41963100000000003,2.354006,-2.054202,0.531788,-0.135853,-0.599065,0.664504
256,0.019352,-1.097228,-0.272536,0.008825,0.8899459999999999,-0.45597600000000005,1.7157810000000002,-3.046021,0.297865,-0.062063,-0.7574850000000001,0.668592
257,-0.041324,-1.072316,-0.26345100000000005,-0.019750999999999998,0.87831,-0.47768,0.9385610000000001,-3.5423519999999997,0.150999,-0.064996,-0.8949729999999999,0.9073829999999999
258,-0.100352,-1.0656709999999998,-0.257845,-0.04848,0.875114,-0.481479,-0.028048000000000003,-2.864532,0.11346800000000001,-0.100339,-0.8889229999999999,0.9267
259,-0.141261,-1.077907,-0.255319,-0.066618,0.880969,-0.46845699999999996,-0.934168,-1.6993650000000002,0.161193,-0.07345700000000001,-0.844303,0.80534
260,-0.159976,-1.107372,-0.256306,-0.071207,0.8945270000000001,-0.441303,-1.761736,-0.376847,0.217811,-0.042822000000000006,-0.8577530000000001,0.673755
261,-0.155191,-1.153087,-0.262327,-0.062703,0.9140209999999999,-0.40078800000000003,-2.624078,0.999229,0.23138899999999998,0.008061,-0.6057020000000001,-0.122054
262,-0.14613199999999998,-1.215824,-0.279917,-0.050608999999999994,0.9376559999999999,-0.343855,-3.365511,1.320932,0.076237,-0.11111900000000001,0.173779,-1.0586870000000002
263,-0.14094600000000002,-1.2593809999999999,-0.308625,-0.043043,0.951901,-0.303361,-1.064208,1.429455,-0.285978,-0.270784,1.086078,-1.713973
264,-0.157694,-1.254034,-0.30890100000000004,-0.048916,0.950249,-0.30762,0.747204,-1.917401,0.2138,-0.220768,2.6278610000000002,-1.603192
265,-0.163274,-1.22842,-0.274165,-0.054571,0.94196,-0.331255,1.638516,-1.411974,0.38495300000000005,-0.141214,0.05946,-0.020002000000000002
266,-0.134976,-1.194291,-0.233881,-0.049476,0.929955,-0.364323,1.771779,-0.18973199999999998,0.44306999999999996,-0.266748,-0.346566,-0.009594
267,-0.12926500000000002,-1.172496,-0.20867600000000003,-0.049996,0.9217209999999999,-0.38461100000000004,0.5720270000000001,-1.4874889999999998,0.214162,-0.282722,-0.319213,-0.270967
268,-0.13814200000000001,-1.176766,-0.21028200000000002,-0.052864999999999995,0.9233690000000001,-0.38025,-0.356309,1.0978430000000001,-0.023167,0.005441,1.266633,-0.415328
269,-0.078775,-1.1661290000000002,-0.200755,-0.030982,0.919233,-0.392487,1.467432,2.2543159999999998,0.098117,-0.48381899999999994,1.197878,0.279724
270,-0.07119500000000001,-1.149019,-0.199459,-0.029120999999999998,0.9123629999999999,-0.408341,-0.11463800000000002,-0.452926,-0.034446,-0.606896,-0.6549159999999999,1.1110229999999999
271,-0.073184,-1.1757229999999999,-0.199095,-0.028141000000000003,0.922968,-0.38384,-1.962402,0.598222,0.038894,-0.596676,-1.3115940000000001,0.571416
272,-0.054403999999999994,-1.2335690000000001,-0.246982,-0.017991999999999998,0.9436760000000001,-0.330376,-3.24357,4.726662999999999,-1.1044559999999999,-0.038268,-0.027583999999999997,1.357536
273,-0.056629,-1.301301,-0.355337,-0.015068999999999999,0.9639059999999999,-0.265809,-3.766455,4.554268,-1.494584,-0.168647,0.9776379999999999,1.122926
274,-0.11958599999999998,-1.3802459999999999,-0.48188000000000003,-0.022594,0.9819,-0.18803399999999998,-3.971879,2.3223580000000004,-0.7454029999999999,-0.025654000000000003,0.734302,0.429596
275,-0.16312100000000002,-1.446066,-0.565351,-0.0202,0.992231,-0.122735,-3.056522,1.852852,-0.012017,0.19737000000000002,0.262331,0.379083
276,-0.311208,-1.495219,-0.750672,-0.023108,0.9971450000000001,-0.071839,-2.258685,1.9280950000000001,-0.604745,0.248572,0.167604,0.405869
277,-0.680319,-1.518001,-1.171398,-0.033156,0.998607,-0.040974000000000003,-1.360335,2.8688580000000004,-0.615698,-0.012331,-0.058696000000000005,0.219365
278,-1.197962,-1.525221,-1.750547,-0.042358,0.9989620000000001,-0.016567,-1.409645,2.961128,-0.470883,-0.138047,-0.066039,0.144802
279,-1.937662,-1.5161870000000002,-2.522011,-0.050885,0.998509,0.019553,-2.218003,0.167685,-0.49645100000000003,-0.0573,-0.128178,-0.023062
280,-2.371898,-1.482942,-2.9151700000000003,-0.061029999999999994,0.996143,0.06297699999999999,-1.8049009999999999,-3.030005,-0.655042,0.14622000000000002,-0.09778200000000001,-0.191044
281,-2.534687,-1.451217,-3.017859,-0.068017,0.992859,0.097962,-1.48605,-2.7098709999999997,-0.5367890000000001,0.211206,-0.056488,-0.240067
282,-2.653809,-1.424396,-3.0962810000000003,-0.068356,0.989303,0.12884,-1.466538,-1.412383,-0.017023,0.203518,-0.10363699999999999,-0.14310699999999998
283,-2.758752,-1.39562,3.075654,-0.065095,0.9846959999999999,0.161642,-1.743386,1.157833,0.29608,0.11313,-0.17155499999999999,-0.037146
284,-2.804712,-1.3697110000000001,2.988881,-0.066014,0.97985,0.188487,-1.331955,2.204846,0.24420100000000003,-0.116557,-0.218223,-0.363612
285,-2.807784,-1.34791,2.945721,-0.072418,0.9752639999999999,0.208826,-1.170899,1.650512,-0.063748,-0.16153,-0.153471,-0.41889399999999993
286,-2.799052,-1.3204280000000002,2.937763,-0.083212,0.9688209999999999,0.23335100000000003,-1.393623,0.28856,-0.5367810000000001,-0.21350999999999998,-0.073893,-0.283933
287,-2.786877,-1.289321,2.955171,-0.096472,0.9606469999999999,0.260466,-1.381307,-0.36644699999999997,-0.847776,-0.051645,-0.02037,-0.12431199999999999
288,-2.7737529999999997,-1.254253,2.977203,-0.11193299999999999,0.950317,0.290448,-1.705264,-0.38196199999999997,-0.949364,0.054467999999999996,0.008347,-0.203732
289,-2.775086,-1.210322,2.9797119999999997,-0.126394,0.93573,0.329281,-2.0302830000000003,-0.036726999999999996,-0.689294,0.189138,0.112488,-0.7240409999999999
290,-2.759092,-1.184611,2.985231,-0.140579,0.9263530000000001,0.349427,-0.6315189999999999,0.8557620000000001,-0.517229,0.23873899999999998,0.40252,-0.38845799999999997
291,-2.718292,-1.176833,3.002088,-0.157671,0.9233950000000001,0.349961,-0.094807,1.474428,-0.38501799999999997,0.32756199999999996,0.410925,-0.155702
292,-2.685501,-1.17492,3.006139,-0.169837,0.922659,0.34618899999999997,-0.095789,1.263694,0.100218,0.34452,0.326319,-0.024595
293,-2.698436,-1.1707,2.979191,-0.16701300000000002,0.9210229999999999,0.35187199999999996,-0.614383,0.189153,0.468645,0.183203,0.35476399999999997,-0.327504
294,-2.730595,-1.163519,2.951237,-0.158251,0.9182030000000001,0.363113,-0.327789,-0.588635,0.254795,-0.006773,0.5272319999999999,-0.616973
295,-2.734851,-1.1782620000000001,2.960316,-0.151331,0.9239430000000001,0.35131,1.50472,-0.418391,0.048391,0.031031,0.728981,-0.624107
296,-2.699961,-1.222289,2.9998009999999997,-0.145954,0.939883,0.308718,2.65879,-0.25810500000000003,0.521992,0.46936400000000006,0.8572209999999999,-0.531939
297,-2.682844,-1.286166,3.0406009999999997,-0.124339,0.959766,0.251754,3.459957,-1.294771,0.9305680000000001,0.447658,0.664197,-0.502502
298,-2.6538310000000003,-1.359384,3.0929729999999998,-0.09833099999999999,0.977736,0.18535,3.485614,-1.053966,1.161175,-0.100948,-0.02429,0.031645
299,-2.5924560000000003,-1.4267610000000002,-3.108309,-0.074903,0.9896450000000001,0.12240699999999999,3.216354,-0.709953,0.8800469999999999,-0.441881,0.309138,0.465056
300,-2.309515,-1.482775,-2.8174669999999997,-0.064956,0.996129,0.059158,3.2085060000000003,-0.054158000000000005,0.19228499999999998,-0.512833,0.570476,0.591964
301,-1.532856,-1.5042149999999999,-2.046432,-0.066419,0.997784,-0.0025210000000000002,2.933259,0.603133,-0.10530899999999999,-0.532824,0.709796,0.260685
302,-0.831578,-1.487974,-1.359472,-0.061097000000000005,0.9965719999999999,-0.0557,2.314307,0.775121,0.577014,-0.500396,0.406351,0.036565
303,-0.439569,-1.470919,-0.9725159999999999,-0.042416,0.995016,-0.090197,1.487838,0.11998199999999999,1.025007,-0.202213,0.34986300000000004,0.19018800000000002
304,-0.16555799999999998,-1.4403219999999999,-0.695774,-0.021437,0.9915,-0.128297,2.455504,-0.639548,0.982533,0.020033000000000002,0.211304,0.581742
305,-0.050696,-1.37837,-0.5629850000000001,-0.00969,0.981543,-0.190977,3.519712,-0.48066499999999995,0.553928,0.071549,0.07699,0.7225010000000001
306,-0.002493,-1.311836,-0.511793,-0.000638,0.966657,-0.256062,3.063037,-0.054937,0.5128050000000001,-0.03438,-0.371732,0.42137600000000003
307,0.012067,-1.2517530000000001,-0.480153,0.003785,0.949536,-0.313626,3.050435,-1.28175,0.427763,-0.08133,-0.48237299999999994,0.5852470000000001
308,0.00293,-1.1931260000000001,-0.45273599999999997,0.0010810000000000001,0.9295260000000001,-0.368747,2.796544,-1.9203009999999998,0.49410600000000005,-0.040143,-0.566077,0.581546
309,-0.024719,-1.143521,-0.432947,-0.010242,0.910098,-0.414259,2.294225,-2.591911,0.252176,-0.051266,-0.642261,0.656065
310,-0.074905,-1.106014,-0.421676,-0.033543,0.893919,-0.44696499999999995,1.594522,-3.136584,0.13902799999999998,-0.14191800000000002,-0.712965,0.818654
311,-0.125773,-1.085402,-0.41085200000000005,-0.058525,0.884491,-0.462866,0.721715,-2.9215419999999996,0.132656,-0.164772,-0.7345729999999999,0.8646149999999999
312,-0.16802999999999998,-1.08249,-0.40267,-0.078457,0.883129,-0.462517,-0.160708,-2.1581599999999996,0.203494,-0.126682,-0.7309680000000001,0.8633959999999999
313,-0.19533299999999998,-1.0980219999999998,-0.398335,-0.088381,0.890309,-0.44669200000000003,-1.1081729999999999,-1.176122,0.26077,-0.06890700000000001,-0.7424970000000001,0.545172
314,-0.208536,-1.133135,-0.403148,-0.087742,0.905745,-0.414634,-2.11096,0.02795,0.253291,-0.026119999999999997,-0.727233,0.30202399999999996
315,-0.20951799999999998,-1.185745,-0.418436,-0.07812000000000001,0.9267790000000001,-0.367384,-2.904043,0.867058,0.22424299999999997,-0.020025,-0.407858,-0.32245100000000004
316,-0.221228,-1.2411159999999999,-0.448355,-0.071035,0.9461459999999999,-0.31584,-2.4487400000000004,0.799355,-0.022454,-0.13852899999999999,1.346228,-1.819567
317,-0.238855,-1.257332,-0.47182299999999994,-0.072951,0.9512709999999999,-0.29959,0.078409,-0.392281,-0.183804,-0.156282,2.0978470000000002,-1.8735509999999997
318,-0.23828400000000002,-1.24535,-0.448184,-0.075465,0.947508,-0.310686,0.9108700000000001,-1.183648,0.392387,-0.076527,2.101885,-1.352827
319,-0.209711,-1.2238280000000001,-0.408489,-0.070788,0.940408,-0.332588,1.340258,0.10069700000000001,0.380922,-0.437849,0.054999,-0.061196
320,-0.173316,-1.199337,-0.370437,-0.062593,0.9317989999999999,-0.357528,1.201797,-0.320675,0.381563,-0.6257,-0.323919,-0.150315
321,-0.187665,-1.182393,-0.373094,-0.070653,0.925515,-0.372053,0.652656,0.098997,-0.46136499999999997,-0.556499,-0.149194,-0.262011
322,-0.156751,-1.165273,-0.378448,-0.061584,0.9188959999999999,-0.389654,1.225317,1.9368560000000001,-0.22364299999999998,-0.045258,1.546375,0.606695
323,-0.155838,-1.153982,-0.38584,-0.062835,0.914383,-0.399936,-0.506421,-0.13057,-0.123063,0.081252,-1.498246,1.979968
324,-0.13905399999999998,-1.186046,-0.390259,-0.052022000000000006,0.926892,-0.371696,-1.9606860000000002,2.043275,0.16736800000000002,-0.210155,-1.668866,1.539177
325,-0.097116,-1.2381,-0.429967,-0.031666,0.9451649999999999,-0.325042,-3.030475,4.949481,-0.8020229999999999,-0.10442699999999999,-0.136434,1.235946
326,-0.09450399999999999,-1.300661,-0.538588,-0.02518,0.963735,-0.265656,-3.5012209999999997,5.1223410000000005,-1.529787,-0.22971799999999998,0.7421979999999999,0.9453739999999999
327,-0.19279100000000002,-1.376743,-0.716009,-0.036943000000000004,0.981231,-0.189242,-4.265418,2.89134,-1.321827,-0.11723199999999999,0.885957,0.659121
328,-0.39056799999999997,-1.44999,-0.9639200000000001,-0.045864999999999996,0.992712,-0.111399,-3.6867699999999997,2.2770759999999997,-0.592743,0.350919,0.585657,0.46000100000000005
329,-0.699186,-1.491274,-1.313852,-0.051082999999999996,0.99684,-0.060748,-1.972319,1.7621330000000002,-0.377146,0.325436,0.209139,0.340868
330,-0.981034,-1.499923,-1.627327,-0.058787,0.99749,-0.039341,-0.876231,1.4914129999999999,-0.49305600000000005,0.220469,0.064934,0.217152
331,-1.2723870000000002,-1.499818,-1.9453080000000003,-0.067709,0.997482,-0.020827000000000002,-1.242505,0.972716,-0.46503999999999995,-0.17347200000000002,-0.181366,-0.046983
332,-1.7197930000000001,-1.49494,-2.396185,-0.074866,0.997124,0.011238,-1.760531,-0.472562,-0.357848,-0.19303299999999998,-0.164437,-0.064415
333,-2.106163,-1.472177,-2.748279,-0.08463,0.9951409999999999,0.050198,-1.781837,-2.6317909999999998,-0.626558,0.061162,-0.061456,-0.100461
334,-2.329013,-1.442858,-2.907579,-0.092602,0.991827,0.0877,-1.560862,-3.024796,-0.572168,0.284618,-0.045187,-0.109596
335,-2.494538,-1.4140629999999998,-3.043818,-0.094074,0.987743,0.12450699999999999,-1.792234,-0.5483560000000001,-0.024687,0.259601,-0.016916999999999998,-0.10255
336,-2.61251,-1.3885450000000001,3.106242,-0.091464,0.9834379999999999,0.156432,-1.525582,1.250525,0.369044,0.105486,-0.210565,-0.142562
337,-2.6755970000000002,-1.36847,3.0019400000000003,-0.09027400000000001,0.9796020000000001,0.179493,-1.319128,2.317228,0.365915,-0.041074,-0.259479,-0.20978200000000002
338,-2.696829,-1.345446,2.9309369999999997,-0.096125,0.974716,0.201683,-1.391428,2.262419,0.016172,-0.171011,-0.188141,-0.30596100000000004
339,-2.6953150000000003,-1.3181690000000001,2.90017,-0.107869,0.968259,0.225444,-1.3421809999999998,1.143368,-0.430704,-0.213939,-0.104551,-0.2765
340,-2.670809,-1.2908680000000001,2.911618,-0.125308,0.961075,0.24620799999999998,-1.0442360000000002,0.467897,-0.933026,-0.12869,-0.03946,-0.153144
341,-2.6448139999999998,-1.261929,2.939098,-0.14486500000000002,0.952678,0.26721500000000004,-1.280369,-0.41190200000000005,-1.024347,0.00511,0.053516999999999995,-0.28754
342,-2.6678330000000003,-1.21638,2.937796,-0.158324,0.9378489999999999,0.30880100000000005,-2.400876,-1.376515,-0.983936,0.250502,0.07663099999999999,-0.73095
343,-2.694728,-1.174233,2.928763,-0.166906,0.922394,0.348306,-1.30175,-0.129639,-0.731097,0.33356199999999997,0.336884,-0.544579
344,-2.64715,-1.163439,2.951694,-0.187997,0.918171,0.348718,0.089698,1.844799,-0.460057,0.385446,0.386562,-0.414911
345,-2.613347,-1.163237,2.956506,-0.199769,0.918091,0.342326,-0.153449,0.9954649999999999,0.09374,0.395066,0.377136,-0.148845
346,-2.6402919999999996,-1.156974,2.929179,-0.193233,0.9155909999999999,0.352621,-0.674521,-0.662708,0.429784,0.193172,0.281645,-0.432699
347,-2.677143,-1.157294,2.909671,-0.179979,0.9157190000000001,0.359238,0.42206499999999997,-0.858715,0.277461,-0.06497,0.448233,-0.943116
348,-2.647757,-1.189295,2.940624,-0.17647100000000002,0.928107,0.327815,2.2606599999999997,0.547812,0.19129300000000002,0.15428499999999998,0.649988,-0.654399
349,-2.5828740000000003,-1.24317,3.004427,-0.170574,0.946809,0.272845,3.319811,-0.097578,0.562714,0.46827299999999994,0.770415,-0.563174
350,-2.4930060000000003,-1.31731,3.108865,-0.151471,0.968044,0.19983599999999999,4.079473,-0.7627649999999999,1.0826870000000002,0.440961,0.5148199999999999,-0.160575
351,-2.359797,-1.392149,-3.0236709999999998,-0.125174,0.984085,0.126079,3.6394050000000004,-0.439255,1.281093,0.020987000000000002,0.39473,0.321766
352,-2.123857,-1.451837,-2.778423,-0.100944,0.992933,0.062314999999999995,3.180103,-0.30891799999999997,1.053391,-0.278893,0.47801499999999997,0.7088939999999999
353,-1.567874,-1.480883,-2.2164080000000004,-0.08973400000000001,0.9959600000000001,-0.000262,3.1237790000000003,-0.126469,0.232369,-0.5160100000000001,0.8200799999999999,0.471866
354,-0.9938530000000001,-1.465378,-1.6403240000000001,-0.088151,0.994449,-0.057370000000000004,2.618845,0.154909,0.101363,-0.524947,0.6472289999999999,0.058087
355,-0.668976,-1.4460899999999999,-1.319443,-0.07711699999999999,0.9922340000000001,-0.097544,1.77374,0.676667,0.8895489999999999,-0.49055600000000005,0.547301,0.080774
356,-0.368643,-1.432909,-1.027316,-0.049519,0.990509,-0.128187,1.403981,-0.02762,1.510642,0.142628,0.42239399999999994,0.085691
357,-0.166147,-1.401035,-0.8000079999999999,-0.027937,0.985625,-0.166595,2.516222,-0.9474870000000001,0.947023,0.244337,0.20185999999999998,0.688278
358,-0.072002,-1.344209,-0.6910970000000001,-0.01616,0.9744389999999999,-0.22405300000000003,3.014991,-0.83957,0.700405,0.01848,-0.050855000000000004,0.5910880000000001
359,-0.017784,-1.286362,-0.616785,-0.00499,0.9598209999999999,-0.28055599999999997,2.860188,-0.930262,0.8703549999999999,-0.13266,-0.16459400000000002,0.663674
360,0.00885,-1.2316799999999999,-0.559308,0.002944,0.943049,-0.332631,2.7420310000000003,-1.86286,0.8269280000000001,-0.151564,-0.5305270000000001,0.680348
361,-0.000185,-1.179454,-0.5212319999999999,-7e-05,0.9243979999999999,-0.381421,2.506869,-2.404506,0.619812,-0.11614100000000001,-0.573079,0.657957
362,-0.03324,-1.135438,-0.49707700000000005,-0.014015999999999999,0.906719,-0.421495,2.006139,-2.972738,0.364942,-0.15651700000000002,-0.663219,0.724184
363,-0.08327899999999999,-1.102819,-0.47930600000000007,-0.037522,0.892483,-0.44951199999999997,1.419917,-3.4198440000000003,0.263144,-0.164383,-0.750789,0.845081
364,-0.13391,-1.0852629999999999,-0.46343100000000004,-0.06230599999999999,0.884426,-0.462496,0.593544,-3.071901,0.279351,-0.182613,-0.757534,0.8757809999999999
365,-0.17645,-1.08551,-0.45213000000000003,-0.08188,0.884542,-0.45921300000000004,-0.317319,-2.321887,0.254936,-0.176253,-0.766271,0.8781889999999999
366,-0.210977,-1.10399,-0.450748,-0.094243,0.8930100000000001,-0.44005200000000005,-1.2624739999999999,-1.421335,0.176677,-0.15726700000000002,-0.782292,0.8384590000000001
367,-0.237327,-1.143054,-0.468121,-0.097524,0.909905,-0.403184,-2.482161,0.032320999999999996,0.013538999999999999,-0.005991,-0.75837,0.23333800000000002
368,-0.266923,-1.205074,-0.516986,-0.094326,0.933866,-0.344951,-3.5815919999999997,1.0843399999999999,-0.24652,-0.080799,-0.36955,-0.400227
369,-0.304929,-1.260378,-0.582327,-0.09170299999999999,0.952206,-0.291356,-1.989126,0.96811,-0.266226,-0.466326,0.942692,-1.3673959999999998
370,-0.32269499999999995,-1.255466,-0.5806100000000001,-0.098347,0.950694,-0.294113,1.067942,-1.803449,0.20733200000000002,-0.127712,2.257253,-1.446029
371,-0.289099,-1.233771,-0.520717,-0.09427100000000001,0.943742,-0.31695,1.3507719999999999,-0.622707,0.6564479999999999,0.19497899999999999,0.560759,-0.404684
372,-0.235066,-1.2079440000000001,-0.466786,-0.08266699999999999,0.9348879999999999,-0.345173,1.593984,0.35941999999999996,0.46033500000000005,0.11846400000000001,0.075289,-0.129604
373,-0.207277,-1.187244,-0.42632299999999995,-0.077011,0.927341,-0.366199,0.678304,-1.2687190000000002,0.5543020000000001,0.024093,-0.652424,-0.381329
374,-0.225584,-1.196141,-0.41272200000000003,-0.081853,0.930634,-0.356672,-0.9565819999999999,-1.0313780000000001,0.161223,0.087498,-0.482789,-0.258135
375,-0.213842,-1.22072,-0.42098800000000003,-0.072782,0.9393469999999999,-0.335149,-0.855611,2.467607,0.185218,-0.012835,1.029892,0.727773
376,-0.139689,-1.2071290000000001,-0.408909,-0.049525,0.934599,-0.352231,1.2645959999999998,1.485884,0.0966,-0.49089499999999997,0.5121939999999999,0.305814
377,-0.150254,-1.1921540000000002,-0.404465,-0.05533300000000001,0.929167,-0.36548600000000003,0.281675,-0.9142370000000001,-0.102675,-0.485088,0.517625,0.319069
378,-0.14594000000000001,-1.207277,-0.41035299999999997,-0.051705999999999995,0.934651,-0.35177800000000004,-1.463,1.752402,0.014181000000000001,-0.228552,-1.4393200000000002,0.9156200000000001
379,-0.11255,-1.250254,-0.457412,-0.035386,0.9490649999999999,-0.313078,-2.455295,4.839315,-0.924991,-0.153212,-0.580412,1.098539
380,-0.15855,-1.307639,-0.5989329999999999,-0.041069,0.9655729999999999,-0.256855,-3.68057,3.6855800000000003,-1.9821330000000001,-0.417595,0.77782,0.9486120000000001
381,-0.347208,-1.384522,-0.8450479999999999,-0.063011,0.982701,-0.174128,-4.589932,2.308911,-1.377834,-0.393959,0.709819,0.8673040000000001
382,-0.651165,-1.450235,-1.199365,-0.072875,0.992741,-0.095631,-3.54141,2.366931,-0.546985,-0.083985,0.64648,0.723377
383,-0.926328,-1.473151,-1.541656,-0.077899,0.995237,-0.058542,-1.280217,3.90153,-0.526748,0.363437,0.356402,0.352808
384,-1.035641,-1.472969,-1.727279,-0.083977,0.9952190000000001,-0.049787,-0.709208,3.227398,-0.535783,0.39836900000000003,0.04096,-0.190066
385,-1.29629,-1.4718790000000002,-2.017706,-0.095014,0.9951120000000001,-0.026757,-1.6429060000000002,0.31721900000000003,-0.564213,0.099882,-0.075938,-0.265296
386,-1.653661,-1.463875,-2.339737,-0.106307,0.994289,0.008829,-1.411709,-3.0913459999999997,-0.577458,0.074584,-0.240963,0.053152
387,-1.918351,-1.448639,-2.5243189999999998,-0.11452999999999999,0.992548,0.04149,-1.141245,-4.260374,-0.440543,0.11854300000000001,-0.24778200000000003,-0.04326
388,-2.149538,-1.432382,-2.69426,-0.115473,0.9904360000000001,0.075447,-1.5036610000000001,-2.186387,-0.10069600000000001,0.172251,-0.075778,-0.138573
389,-2.3417790000000003,-1.414144,-2.883196,-0.111872,0.9877549999999999,0.10869200000000001,-1.704925,0.913703,0.305191,0.223154,-0.10488199999999999,-0.035572
390,-2.460975,-1.3952200000000001,-3.048307,-0.109899,0.984626,0.135731,-1.5313709999999998,2.610693,0.419596,0.12502,-0.194175,-0.168751
391,-2.529826,-1.375877,3.111374,-0.111221,0.9810629999999999,0.15853599999999998,-1.425776,2.428871,0.243242,-0.092422,-0.24500999999999998,-0.26534800000000003
392,-2.563527,-1.353232,3.0453200000000002,-0.11792799999999999,0.976426,0.180758,-1.200523,0.9411219999999999,-0.32798099999999997,-0.187111,-0.08014,-0.351351
393,-2.5550759999999997,-1.329194,3.0501840000000002,-0.132407,0.9709559999999999,0.199251,-0.903949,-0.10797999999999999,-0.8992690000000001,-0.12211,-0.12223099999999999,-0.132357
394,-2.539046,-1.3000120000000002,3.078146,-0.151583,0.9635610000000001,0.220363,-1.109045,-0.8531620000000001,-1.115527,-0.039945,-0.10601700000000001,-0.113673
395,-2.5632479999999997,-1.26201,3.07928,-0.166113,0.9527030000000001,0.254461,-2.029188,-1.4263059999999999,-1.110538,0.20586300000000002,0.023463,-0.416067
396,-2.621819,-1.20699,3.0471310000000003,-0.176727,0.934549,0.308822,-2.67256,-1.324263,-0.763718,0.364624,0.155951,-0.671158
397,-2.634493,-1.1752770000000001,3.03284,-0.187104,0.922797,0.33678600000000003,-0.6573100000000001,1.019911,-0.5219090000000001,0.267167,0.44568800000000003,-0.413293
398,-2.5815930000000002,-1.177334,3.055602,-0.20364100000000002,0.923587,0.324812,0.620563,1.588075,-0.124878,0.39971599999999996,0.415997,-0.265135
399,-2.560115,-1.182072,3.0523439999999997,-0.208164,0.925393,0.316704,-0.25464200000000003,1.012985,0.326944,0.38760700000000003,0.358146,-0.13408599999999998
400,-2.5922650000000003,-1.17638,3.013733,-0.200623,0.923221,0.327718,-0.7439680000000001,-0.408084,0.482376,0.174576,0.496792,-0.723638
401,-2.6269669999999996,-1.1760680000000001,2.995362,-0.189274,0.9231010000000001,0.334733,0.47111400000000003,-1.000083,0.155132,0.217914,0.580241,-0.7619630000000001
402,-2.605412,-1.206293,3.032787,-0.182103,0.934301,0.306442,2.0821330000000002,-0.407475,0.277789,0.390416,0.702418,-0.506851
403,-2.57533,-1.257371,3.080755,-0.16539700000000002,0.951283,0.260177,2.970071,-1.207523,0.845833,0.275809,0.6522020000000001,-0.5548390000000001
404,-2.518432,-1.325652,-3.111339,-0.141624,0.970102,0.19705799999999998,3.680511,-1.661857,0.894106,-0.00277,0.405889,-0.271322
405,-2.399489,-1.392759,-2.965992,-0.11966800000000001,0.984193,0.13050599999999998,3.49015,-0.522628,0.9468639999999999,-0.397025,0.383223,0.463793
406,-2.1308740000000004,-1.449318,-2.694029,-0.102628,0.9926309999999999,0.064354,3.299404,0.030693,0.735452,-0.355593,0.546081,0.6347430000000001
407,-1.571339,-1.474037,-2.135675,-0.096555,0.9953219999999999,5.2000000000000004e-05,3.1195150000000003,0.377139,0.035134,-0.425677,0.743386,0.630548
408,-1.049667,-1.456752,-1.62268,-0.09865499999999999,0.993504,-0.056634000000000004,2.539475,0.5332,-0.12721500000000002,-0.48383400000000004,0.621135,0.215585
409,-0.776922,-1.439741,-1.349364,-0.09159400000000001,0.991425,-0.09316,1.511611,0.059461,0.685539,-0.217991,0.45391899999999996,-0.043131
410,-0.477367,-1.421889,-1.068393,-0.068148,0.988934,-0.131746,2.192348,1.3236629999999998,1.2302629999999999,-0.061261,0.42694399999999993,0.224764
411,-0.252189,-1.38164,-0.8193969999999999,-0.046912999999999996,0.9821629999999999,-0.182061,2.804907,-1.545962,1.175194,0.23101,0.26683,0.271813
412,-0.131969,-1.326468,-0.681843,-0.031829,0.9703,-0.239785,3.0360240000000003,-0.34894899999999995,0.798192,-0.112443,-0.22324499999999997,0.48293400000000003
413,-0.06448200000000001,-1.270451,-0.600409,-0.019063,0.955234,-0.295223,2.7895689999999997,-0.781828,0.8397540000000001,-0.125209,-0.208179,0.5383720000000001
414,-0.031723,-1.218357,-0.542379,-0.010948000000000001,0.938534,-0.345004,2.569432,-1.3891209999999998,0.785583,-0.203727,-0.42608199999999996,0.660892
415,-0.031793,-1.170057,-0.501981,-0.0124,0.920773,-0.389894,2.317487,-2.109701,0.5849770000000001,-0.082906,-0.5492670000000001,0.63173
416,-0.060671,-1.129428,-0.47543599999999997,-0.025901,0.9041680000000001,-0.42638400000000004,1.9151919999999998,-3.041729,0.379331,-0.076257,-0.572747,0.656929
417,-0.11143499999999999,-1.096378,-0.455167,-0.0508,0.889558,-0.453982,1.495084,-3.524712,0.31399099999999996,-0.049069,-0.565874,0.744479
418,-0.159744,-1.076782,-0.43385100000000004,-0.075422,0.8804360000000001,-0.468121,0.745173,-3.18684,0.3863,-0.15074400000000002,-0.637211,0.867337
419,-0.196578,-1.073767,-0.415357,-0.093128,0.8790030000000001,-0.467628,-0.089541,-2.28607,0.42418,-0.138745,-0.632497,0.860801
420,-0.21892199999999998,-1.088077,-0.40263000000000004,-0.10081,0.8857360000000001,-0.453104,-0.982611,-1.322211,0.45302700000000007,-0.111257,-0.661828,0.7909189999999999
421,-0.229656,-1.122841,-0.402385,-0.098596,0.901334,-0.421745,-2.184924,0.006567,0.33503499999999997,-0.08454,-0.7617619999999999,0.267448
422,-0.239802,-1.184628,-0.43021499999999996,-0.08945399999999999,0.926359,-0.36585500000000004,-3.6609519999999995,1.0386870000000001,0.049937999999999996,-0.123055,-0.48524300000000004,-0.344045
423,-0.270829,-1.251478,-0.48781599999999997,-0.083979,0.94945,-0.302464,-2.8134200000000003,1.107099,-0.21021700000000001,-0.46094300000000005,0.522154,-0.981151
424,-0.297944,-1.2621959999999999,-0.511071,-0.089156,0.95276,-0.29033000000000003,0.499425,-1.127041,-0.088074,-0.521226,1.928909,-1.3721459999999999
425,-0.28675300000000004,-1.239056,-0.473987,-0.092114,0.945477,-0.312377,1.550028,-0.966376,0.380531,0.088299,0.894809,-0.701371
426,-0.24494699999999997,-1.21138,-0.425004,-0.085293,0.936102,-0.341217,1.458337,0.286497,0.43276400000000004,0.149105,-0.11006800000000001,-0.27223200000000003
427,-0.206605,-1.1902700000000002,-0.384842,-0.076188,0.9284690000000001,-0.3635,0.90876,-0.600395,0.521929,0.11970599999999999,-0.614703,-0.465495
428,-0.21321199999999998,-1.194731,-0.366397,-0.077711,0.930117,-0.35893600000000003,-0.738598,-0.641541,0.251965,0.041929,-0.419466,-0.069027
429,-0.186152,-1.212389,-0.368832,-0.06492,0.936457,-0.34471199999999996,-0.444913,3.034454,0.065572,-0.05684500000000001,1.4623620000000002,0.250413
430,-0.122251,-1.182,-0.362222,-0.046225999999999996,0.925366,-0.376236,2.0463970000000002,0.789239,-0.059427999999999995,-0.96441,2.022373,-0.506073
431,-0.13764400000000002,-1.17107,-0.357951,-0.053396000000000006,0.921167,-0.38547600000000004,-0.392781,-1.200482,0.136524,-0.45288999999999996,-1.414515,1.664956
432,-0.136717,-1.204927,-0.368271,-0.048757999999999996,0.9338129999999999,-0.354412,-2.452232,2.219979,-0.173869,-0.31798699999999996,-1.576086,0.655895
433,-0.11218,-1.257503,-0.44286499999999995,-0.034499,0.951324,-0.306243,-2.793731,5.6174040000000005,-1.273399,-0.138474,-0.261825,1.4134959999999999
434,-0.16070399999999999,-1.319249,-0.5985010000000001,-0.039825,0.9685280000000001,-0.245678,-3.733332,4.297155,-1.9630009999999998,-0.381592,0.8522569999999999,0.96867
435,-0.352736,-1.397817,-0.85308,-0.059451,0.9850760000000001,-0.161494,-4.757516000000001,2.101523,-1.317862,-0.220426,0.666031,0.46303900000000003
436,-0.7123109999999999,-1.460004,-1.250169,-0.072233,0.993869,-0.083646,-3.2526759999999997,1.859648,-0.478101,0.22534,0.49415299999999995,0.45017700000000005
437,-0.982397,-1.477326,-1.57356,-0.077589,0.995635,-0.051771000000000005,-1.0975030000000001,2.97209,-0.555271,0.319639,0.363954,0.369794
438,-1.123864,-1.473254,-1.7681669999999998,-0.087772,0.995246,-0.042067,-0.60849,2.0332380000000003,-0.626496,0.271823,-0.029319,0.042998
439,-1.330745,-1.469991,-1.980406,-0.097694,0.994923,-0.023913,-1.244766,-0.9385549999999999,-0.42310200000000003,0.098762,-0.16541,-0.271421
440,-1.7133310000000002,-1.4649510000000001,-2.315488,-0.104523,0.9944040000000001,0.015,-1.8074150000000002,-3.067532,-0.329232,0.051514,-0.224582,-0.191224
441,-1.986105,-1.4490040000000002,-2.520902,-0.11111900000000001,0.992592,0.048999,-1.165561,-3.287636,-0.45478999999999997,0.08495,-0.140465,0.00015
442,-2.190495,-1.431022,-2.684376,-0.113379,0.990247,0.08089099999999999,-1.487108,-1.388455,-0.125116,0.162451,-0.095579,-0.057178
443,-2.361126,-1.411659,-2.863464,-0.111472,0.9873639999999999,0.112577,-1.706755,1.4102629999999998,0.271415,0.19657,-0.120452,0.022494
444,-2.473639,-1.390807,-3.0305590000000002,-0.11085999999999999,0.9838459999999999,0.14052,-1.674243,3.069357,0.394498,0.13513699999999998,-0.168141,-0.021974
445,-2.5327349999999997,-1.369474,3.133755,-0.114348,0.9798030000000001,0.16400599999999999,-1.453735,2.5336529999999997,0.17132999999999998,-0.11648599999999999,-0.20644200000000001,-0.418706
446,-2.561511,-1.3438379999999999,3.069191,-0.123313,0.974355,0.188183,-1.3977110000000001,1.143406,-0.393723,-0.152382,-0.11574300000000001,-0.40633800000000003
447,-2.552927,-1.315228,3.067882,-0.140351,0.96752,0.210225,-1.078937,0.277489,-0.9736360000000001,-0.092818,-0.08968200000000001,-0.051549
448,-2.525187,-1.285627,3.0957,-0.16262000000000001,0.959614,0.22952899999999998,-1.034174,-0.18838,-1.19278,0.049582999999999995,-0.004078,-0.260214
449,-2.5364869999999997,-1.246536,3.102376,-0.181228,0.947887,0.262019,-1.9801080000000002,-1.283396,-1.193711,0.201889,0.063191,-0.5242720000000001
450,-2.594718,-1.200661,3.074144,-0.188103,0.9322790000000001,0.30896599999999996,-2.0345310000000003,-1.610632,-0.565558,0.31456799999999996,0.313785,-0.6001340000000001
451,-2.605827,-1.1798879999999998,3.06285,-0.19450599999999998,0.9245629999999999,0.327623,-0.343727,1.174667,-0.33405799999999997,0.344118,0.40771199999999996,-0.329362
452,-2.5543,-1.181816,3.072965,-0.21013400000000002,0.9252959999999999,0.315686,0.23530700000000002,2.2352,0.083098,0.396779,0.402539,-0.21572600000000003
453,-2.546216,-1.181793,3.054291,-0.212691,0.9252879999999999,0.313994,-0.409569,0.49678,0.347876,0.387221,0.36678099999999997,-0.297683
454,-2.579488,-1.1821709999999999,3.031331,-0.201941,0.925431,0.32059899999999997,0.109304,-1.05512,0.379127,0.345969,0.581268,-0.6421020000000001
455,-2.5857490000000003,-1.2052530000000001,3.045902,-0.188605,0.9339299999999999,0.303627,1.643603,-0.7474609999999999,0.43217799999999995,0.35639099999999996,0.660904,-0.7192149999999999
456,-2.5641830000000003,-1.2504620000000002,3.084676,-0.171869,0.9491299999999999,0.263816,2.656446,-1.021941,0.795323,0.47222299999999995,0.692715,-0.542838
457,-2.5078869999999998,-1.314359,-3.1123830000000003,-0.15017,0.9673,0.20436700000000002,3.6241220000000003,-1.2448139999999999,0.81305,0.044488,0.45947299999999996,-0.253394
458,-2.382165,-1.3832440000000001,-2.963335,-0.128351,0.9824639999999999,0.135197,3.672109,-0.798427,1.028594,-0.097464,0.157414,0.020702
459,-2.131919,-1.4449049999999999,-2.704399,-0.10626400000000001,0.992086,0.066789,3.424517,-0.073295,1.056914,-0.351072,0.444071,0.637191
460,-1.55611,-1.4787,-2.127041,-0.091894,0.995762,-0.00135,3.3622449999999997,0.18502000000000002,0.44939799999999996,-0.48585,0.810375,0.31388
461,-0.9649690000000001,-1.462404,-1.5366389999999999,-0.088888,0.994131,-0.061575,2.74549,0.031002,0.073546,-0.517893,0.68255,0.092886
462,-0.683565,-1.43677,-1.247155,-0.084368,0.991032,-0.103574,1.75147,-0.304454,0.375748,-0.511411,0.49808800000000003,-0.054827999999999995
463,-0.508397,-1.41357,-1.074461,-0.076204,0.987665,-0.136749,1.739782,0.693597,0.413912,-0.27754,0.43713900000000006,0.119308
464,-0.317051,-1.3895819999999999,-0.8953899999999999,-0.056179999999999994,0.983626,-0.171218,1.712443,0.219373,1.279588,-0.0006129999999999999,0.1877,0.430907
465,-0.159821,-1.349383,-0.7100390000000001,-0.034946,0.9755879999999999,-0.21679099999999998,2.839413,-1.476839,1.175334,0.28317600000000004,0.094847,0.6935979999999999
466,-0.065024,-1.292248,-0.599887,-0.017865,0.961456,-0.274364,2.916904,-0.337597,0.989611,0.045072,-0.272201,0.47553599999999996
467,-0.018578,-1.2408549999999998,-0.531629,-0.006018,0.946061,-0.323919,2.515472,-1.444767,0.892086,-0.093423,-0.48678699999999997,0.542181
468,-0.017696,-1.188482,-0.481896,-0.006601,0.9278040000000001,-0.373,2.655007,-2.577109,0.759915,-0.10439100000000001,-0.578286,0.7230979999999999
469,-0.038932999999999995,-1.140573,-0.444758,-0.016233,0.9088729999999999,-0.41675,2.24011,-2.940435,0.6036590000000001,-0.130754,-0.647871,0.667818
470,-0.079803,-1.1022610000000002,-0.417258,-0.035999,0.892231,-0.450136,1.74373,-3.4046300000000005,0.435212,-0.15173,-0.687473,0.7789020000000001
471,-0.126623,-1.07794,-0.394543,-0.05975,0.880985,-0.46935,0.952947,-3.262135,0.384641,-0.21051399999999998,-0.7017399999999999,0.856786
472,-0.167918,-1.0708600000000001,-0.37614899999999996,-0.08011599999999999,0.8776129999999999,-0.47262200000000004,0.08432100000000001,-2.582684,0.387317,-0.172173,-0.6770510000000001,0.884884
473,-0.198625,-1.082079,-0.365647,-0.09264,0.882936,-0.46025699999999997,-0.871282,-1.623544,0.318524,-0.08646799999999999,-0.722291,0.729086
474,-0.22058899999999998,-1.1144319999999999,-0.371746,-0.09642300000000001,0.89766,-0.43000299999999997,-2.10513,-0.279382,0.110562,-0.06551799999999999,-0.796296,0.389079
475,-0.238749,-1.173142,-0.40510999999999997,-0.09158,0.9219719999999999,-0.376264,-3.489818,1.039475,-0.032192,-0.10443499999999999,-0.614263,-0.034013999999999996
476,-0.253834,-1.240318,-0.450612,-0.081484,0.945887,-0.314087,-3.0020439999999997,1.3985969999999999,0.046599,-0.416563,0.14246099999999998,-0.569259
477,-0.271689,-1.260993,-0.47503999999999996,-0.081812,0.9523940000000001,-0.293677,0.06958400000000001,-0.686471,-0.137577,-0.6064970000000001,1.7103869999999999,-1.439431
478,-0.264245,-1.244039,-0.443406,-0.08383,0.9470879999999999,-0.309823,1.2384899999999999,-0.838044,0.5223979999999999,0.174558,1.375376,-0.933524
479,-0.212743,-1.222011,-0.388867,-0.072157,0.939788,-0.334043,1.2416909999999999,0.409141,0.582779,0.332228,0.015549,-0.38354699999999997
480,-0.168054,-1.2005,-0.34544,-0.060529999999999994,0.93222,-0.35678499999999996,1.056276,-0.26766999999999996,0.567396,0.141066,-0.460129,-0.468822
481,-0.17788299999999999,-1.199126,-0.324969,-0.064261,0.9317219999999999,-0.35743400000000003,-0.577142,-1.672706,0.10379200000000001,0.141531,-0.5627949999999999,-0.198917
482,-0.184756,-1.2228780000000001,-0.344012,-0.06263200000000001,0.9400850000000001,-0.33513000000000004,-1.180372,2.4457430000000002,-0.195187,-0.107748,0.8388,0.38906999999999997
483,-0.11218800000000001,-1.202735,-0.355667,-0.040281,0.933027,-0.357538,2.066152,2.884099,-0.211527,-0.81676,2.571093,-0.182898
484,-0.125626,-1.176305,-0.35133400000000004,-0.048155,0.923192,-0.381303,0.782105,-1.666898,-0.129207,-0.225237,-0.559377,0.992875
485,-0.126628,-1.183589,-0.34534699999999996,-0.047687,0.925967,-0.374573,-1.207432,0.79555,0.380374,-0.307813,-1.6499970000000002,0.9616549999999999
486,-0.102289,-1.219407,-0.400992,-0.035146,0.938895,-0.342395,-1.499598,6.011237,-2.051078,0.068502,-0.336127,1.297916
487,-0.15482,-1.2481879999999999,-0.588874,-0.048887,0.948412,-0.313239,-2.410876,5.091191,-2.946093,-0.035325999999999996,0.81082,0.721534
488,-0.27679699999999996,-1.300953,-0.757063,-0.07284600000000001,0.9638129999999999,-0.256421,-3.282493,0.42558900000000005,-1.203933,-0.387435,0.732904,0.16328099999999998
489,-0.42976499999999995,-1.354861,-0.896877,-0.089266,0.976776,-0.194761,-2.872247,-1.3056940000000001,-0.442547,0.099505,-0.047135,0.297819
490,-0.600267,-1.3952879999999999,-1.043795,-0.098618,0.9846379999999999,-0.144066,-2.262706,-1.216146,-0.188441,0.087326,-0.382679,0.382683
491,-0.799804,-1.424351,-1.228034,-0.10463900000000001,0.989296,-0.101667,-1.9083599999999998,-0.675297,-0.15140699999999999,-0.046057,-0.290566,0.373395
492,-0.999503,-1.446513,-1.4139979999999999,-0.104249,0.992287,-0.067011,-1.6147340000000001,-0.986658,0.20142000000000002,-0.169158,-0.094841,0.318231
493,-1.288082,-1.465188,-1.6767900000000002,-0.10118300000000001,0.9944290000000001,-0.029393,-1.8742740000000002,-1.554492,0.170424,0.07232899999999999,-0.089125,0.11108900000000001
494,-1.845722,-1.466917,-2.197756,-0.099753,0.994609,0.028137,-3.271561,-2.076439,0.040624,0.180258,-0.206066,-0.33682199999999995
495,-2.374873,-1.432257,-2.710547,-0.095782,0.990419,0.099428,-3.34919,0.136438,0.29896,0.089907,-0.068727,-0.189196
496,-2.590766,-1.397742,-2.983678,-0.090107,0.9850629999999999,0.146696,-2.1778459999999997,3.968405,0.8384790000000001,0.086186,-0.151705,-0.026472000000000002
497,-2.6613119999999997,-1.378852,3.1353560000000003,-0.088127,0.981635,0.16915999999999998,-1.294166,4.636889,0.7327,0.068397,-0.089942,-0.142594
498,-2.680843,-1.359116,3.040476,-0.093404,0.9776790000000001,0.188169,-1.427326,2.678512,0.14996199999999998,-0.026255,-0.15842,-0.48129099999999997
499,-2.696834,-1.329053,3.0089650000000003,-0.102987,0.970922,0.21608400000000003,-1.436472,-0.118996,-0.6167050000000001,-0.21290100000000003,-0.174688,-0.16000699999999998
500,-2.684966,-1.300761,3.025827,-0.11761300000000001,0.9637610000000001,0.23941300000000001,-1.020365,-0.126898,-0.8658889999999999,-0.10251099999999999,-0.177735,0.123075
501,-2.665784,-1.275677,3.053452,-0.133218,0.956767,0.258527,-1.0895569999999999,-0.647253,-0.94689,0.205605,0.073949,-0.34971399999999997
502,-2.6892169999999997,-1.234675,3.0539959999999997,-0.14415999999999998,0.944041,0.296632,-2.208488,-1.432109,-0.8394,0.41822299999999996,0.147161,-0.7658699999999999
503,-2.733956,-1.195149,3.033643,-0.14543699999999998,0.93027,0.336796,-1.495007,-0.958434,-0.299845,0.267782,0.492154,-0.534062
504,-2.727949,-1.183942,3.0264849999999996,-0.15163900000000002,0.9261,0.345442,-0.132386,1.7531560000000002,0.0010279999999999998,0.20582199999999998,0.46808,-0.204451
505,-2.705891,-1.1854719999999999,3.0098830000000003,-0.15862300000000001,0.9266770000000001,0.34072800000000003,-0.21666300000000002,1.288111,0.486008,0.124321,0.333821,-0.41593900000000006
506,-2.730193,-1.180084,2.986206,-0.152291,0.924638,0.349054,-0.322359,-0.7893319999999999,0.08414400000000001,-0.096809,0.4001,-0.646646
507,-2.725745,-1.190747,3.005168,-0.14985,0.9286459999999999,0.339333,1.2266709999999998,-0.094967,-0.14413900000000002,-0.100135,0.464679,-0.768792
508,-2.679681,-1.224893,3.045607,-0.151091,0.9407690000000001,0.303498,2.174575,0.129357,0.21150300000000002,0.42201099999999997,0.740749,-0.5043489999999999
509,-2.631448,-1.2825440000000001,3.1141490000000003,-0.138803,0.958742,0.24806199999999998,3.61381,-1.282828,0.46905699999999995,0.46055,0.7644479999999999,-0.48616000000000004
510,-2.5154419999999997,-1.359604,-3.01879,-0.122831,0.9777819999999999,0.16983499999999999,4.39283,-1.627848,0.560398,0.081052,0.36389299999999997,-0.17657899999999999
511,-2.269427,-1.432246,-2.7430790000000003,-0.105723,0.990417,0.08880199999999999,4.0988940000000005,-0.81597,0.780563,-0.243673,0.359192,0.433644
512,-1.734977,-1.479063,-2.201423,-0.09031900000000001,0.9957950000000001,0.014962999999999999,3.5988839999999995,0.067346,0.63066,-0.387602,0.61329,0.713354
513,-0.977036,-1.466464,-1.4484290000000002,-0.086281,0.9945620000000001,-0.058240999999999994,3.6762629999999996,0.48305699999999996,-0.03163,-0.380027,0.690573,0.795851
514,-0.601416,-1.418453,-1.0763690000000001,-0.08584800000000001,0.988418,-0.125104,2.925873,0.28173200000000004,0.08302799999999999,-0.41860699999999995,0.63678,0.005292
515,-0.426695,-1.3824319999999999,-0.914967,-0.077489,0.9823120000000001,-0.170445,1.98705,1.3297889999999999,0.407344,-0.331752,0.589511,0.027622000000000004
516,-0.261766,-1.3551,-0.793118,-0.055383,0.976828,-0.20672100000000002,1.39831,2.364134,0.9264030000000001,-0.11002200000000001,0.470575,0.185358
517,-0.136973,-1.327925,-0.664406,-0.032836000000000004,0.970651,-0.238224,2.094213,-1.95205,1.309595,0.060683,0.33757600000000004,0.498584
518,-0.05591,-1.271714,-0.554956,-0.016464,0.955607,-0.294172,3.280972,-0.44785,1.072402,0.020996,0.046743,0.8255290000000001
519,0.006235,-1.21218,-0.48589099999999996,0.002188,0.936383,-0.350964,2.692807,-0.281736,1.067013,-0.314292,-0.347028,0.537076
520,0.044702,-1.165932,-0.429094,0.017602,0.919156,-0.393494,2.1059639999999997,-0.949974,1.120386,-0.354058,-0.6029329999999999,0.6199640000000001
521,0.050878,-1.124359,-0.38919699999999996,0.021957,0.901991,-0.43118999999999996,1.975496,-1.8323330000000002,0.778774,-0.143646,-0.624296,0.696616
522,0.026143,-1.090114,-0.37245900000000004,0.012086,0.8866799999999999,-0.462221,1.4922090000000001,-2.086452,0.279001,-0.10441700000000001,-0.709113,0.7350479999999999
523,-0.020045,-1.0670520000000001,-0.370579,-0.009675,0.8757809999999999,-0.48260699999999995,0.9389559999999999,-2.5572169999999996,-0.061819000000000006,-0.11065599999999999,-0.759875,0.76317
524,-0.078105,-1.05625,-0.376761,-0.038399,0.870516,-0.49063500000000004,0.257845,-2.590364,-0.23958600000000002,-0.106575,-0.826937,0.853184
525,-0.136104,-1.061118,-0.391401,-0.06619900000000001,0.872901,-0.48338000000000003,-0.628721,-1.9944939999999998,-0.365115,-0.09736,-0.822593,0.8433959999999999
526,-0.188443,-1.0834549999999998,-0.416051,-0.08772100000000001,0.883581,-0.459984,-1.525754,-1.274271,-0.41076,-0.051515,-0.787786,0.6842729999999999
527,-0.237121,-1.1210200000000001,-0.45214,-0.102127,0.900544,-0.42259300000000005,-2.288636,-0.532479,-0.372174,0.032820999999999996,-0.7011430000000001,0.395478
528,-0.28037,-1.171223,-0.49870699999999996,-0.107646,0.921227,-0.373828,-2.8172490000000003,0.22189299999999998,-0.219804,0.118769,-0.397927,-0.264813
529,-0.301663,-1.213006,-0.534371,-0.104046,0.936673,-0.334383,-1.3669040000000001,0.620433,0.088918,-0.12201300000000001,0.558765,-1.340589
530,-0.29599000000000003,-1.212926,-0.507551,-0.10217000000000001,0.9366450000000001,-0.335041,0.731539,-1.8958849999999998,0.700732,-0.34939899999999996,2.180604,-1.7311830000000001
531,-0.27412600000000004,-1.197271,-0.451967,-0.09877899999999999,0.931047,-0.35126799999999997,1.142477,-0.9692049999999999,0.638321,0.26108600000000004,0.8390639999999999,-0.656605
532,-0.23367600000000002,-1.171581,-0.402818,-0.090003,0.921366,-0.378125,1.650278,-0.089744,0.578785,0.109198,-0.07764700000000001,-0.067721
533,-0.205702,-1.146139,-0.354953,-0.08415299999999999,0.9111799999999999,-0.403316,1.086293,-1.363163,0.6384340000000001,-0.281462,-0.25898899999999997,-0.082554
534,-0.22935999999999998,-1.146851,-0.346446,-0.093523,0.911473,-0.400581,-0.549906,-1.024397,-0.075251,-0.385527,-0.15804,-0.105294
535,-0.232179,-1.1484450000000002,-0.36022,-0.094317,0.912128,-0.398901,0.63767,1.367202,-0.318916,-0.511899,1.4293639999999999,-0.408762
536,-0.21916799999999997,-1.106282,-0.365018,-0.097399,0.8940389999999999,-0.437266,2.004156,-0.320988,-0.771885,-0.350721,2.075703,-0.140416
537,-0.242459,-1.108368,-0.387294,-0.107109,0.894972,-0.433068,-1.484795,0.330712,-0.083518,-0.37809,-1.9664130000000002,2.439858
538,-0.21803000000000003,-1.16144,-0.404093,-0.08609299999999999,0.917377,-0.38858899999999996,-3.109963,3.164589,0.198465,-0.410779,-1.374576,0.691384
539,-0.181672,-1.222841,-0.48073699999999997,-0.061604,0.9400719999999999,-0.335356,-3.2340709999999997,6.200291,-1.206731,-0.048152,-0.040994,1.080168
540,-0.217783,-1.283879,-0.626516,-0.061142999999999996,0.9591209999999999,-0.276302,-3.5833489999999997,4.1390970000000005,-1.9970139999999998,-0.20158199999999998,0.583817,1.066234
541,-0.403437,-1.3392549999999999,-0.8756219999999999,-0.09008300000000001,0.9733139999999999,-0.21104,-3.4750059999999996,2.0362560000000003,-2.093976,-0.118246,0.77841,0.491482
542,-0.6046590000000001,-1.367622,-1.098406,-0.11469700000000001,0.9794309999999999,-0.16598800000000002,-1.6627779999999999,0.22825399999999998,-0.945617,0.38100900000000004,0.287598,0.299365
543,-0.700489,-1.378166,-1.1930319999999999,-0.12338900000000001,0.981504,-0.146348,-0.694187,-0.331721,-0.277972,0.48850200000000005,0.122012,0.097077
544,-0.798408,-1.381816,-1.278002,-0.13453800000000002,0.982196,-0.131082,-0.848757,-1.032174,-0.534528,0.356477,0.064679,-0.085287
545,-0.953699,-1.397381,-1.4065940000000001,-0.140704,0.985001,-0.09983500000000001,-1.6973740000000002,-1.683715,0.098108,0.11127000000000001,0.044555000000000004,0.044995
546,-1.2218,-1.421655,-1.635472,-0.139605,0.988899,-0.050801,-2.426388,-2.288043,0.276456,0.198001,-0.200355,0.089864
547,-1.603533,-1.436328,-1.981293,-0.133958,0.990973,0.004386999999999999,-2.421937,-1.454273,0.357672,0.00609,-0.268362,0.102852
548,-1.915861,-1.43626,-2.290036,-0.126193,0.990964,0.045360000000000004,-1.8490650000000002,0.214013,0.377696,-0.000317,-0.26109,-0.177119
549,-2.1886349999999997,-1.4279389999999998,-2.5968139999999997,-0.116025,0.9898129999999999,0.082454,-2.312773,2.5906849999999997,0.76879,0.081754,-0.268363,-0.064601
550,-2.420154,-1.4081549999999998,-2.9046689999999997,-0.106927,0.9868030000000001,0.12156099999999999,-2.228662,3.819396,0.8500559999999999,0.072885,-0.332903,-0.171015
551,-2.538336,-1.387381,-3.08429,-0.10346,0.983226,0.150175,-1.6028930000000001,2.23314,0.323417,-0.002558,-0.257351,-0.288985
552,-2.601398,-1.358274,3.1117939999999997,-0.10846900000000001,0.9775020000000001,0.180874,-1.6911029999999998,0.529263,-0.27321999999999996,-0.281545,-0.089028,-0.342435
553,-2.615863,-1.328749,3.098773,-0.120278,0.970849,0.20730500000000002,-1.083483,-0.39414,-0.8467690000000001,-0.165153,-0.034341,-0.12850899999999998
554,-2.591887,-1.304414,3.13928,-0.137518,0.96473,0.22444699999999998,-0.70828,-0.96646,-1.105129,-0.011667,0.013756,-0.168523
555,-2.593645,-1.275484,-3.120603,-0.151605,0.9567110000000001,0.248416,-1.349243,-1.2354209999999999,-0.95437,0.182092,0.13020299999999999,-0.538532
556,-2.6085849999999997,-1.245409,-3.1240040000000002,-0.162428,0.947527,0.275319,-1.034884,0.018946,-0.562812,0.254271,-0.024965,-0.408589
557,-2.589964,-1.231701,-3.11844,-0.174318,0.9430559999999999,0.283283,-0.308761,0.793431,-0.400636,0.26414699999999997,0.271986,-0.355595
558,-2.559683,-1.225176,-3.105959,-0.186193,0.940865,0.283011,-0.200797,0.998015,-0.240979,0.408346,0.435309,-0.119452
559,-2.5708290000000003,-1.217438,-3.124829,-0.18695499999999998,0.9382159999999999,0.291186,-0.682725,-0.37104299999999996,0.221018,0.279301,0.411775,-0.16408
560,-2.623375,-1.208572,3.130697,-0.175516,0.935111,0.307817,-0.427415,-1.599739,0.10794000000000001,0.037850999999999996,0.528741,-0.7090310000000001
561,-2.6272279999999997,-1.218142,-3.137842,-0.169918,0.938459,0.300685,1.1065969999999998,-0.320999,0.008057,0.183086,0.612505,-0.68838
562,-2.592827,-1.2480069999999999,-3.100098,-0.16546,0.9483540000000001,0.270621,1.937786,-0.198505,0.355537,0.322641,0.696177,-0.536353
563,-2.5445729999999998,-1.2980459999999998,-3.026251,-0.151429,0.9630340000000001,0.222766,3.1226119999999997,-1.600803,0.492729,0.22261199999999998,0.8816620000000001,-0.5938439999999999
564,-2.43233,-1.362002,-2.8809240000000003,-0.134981,0.978281,0.157275,3.793342,-1.143181,0.55558,-0.050230000000000004,0.339712,-0.179843
565,-2.184507,-1.421943,-2.613928,-0.121216,0.988942,0.085391,3.586844,-0.45790699999999995,0.659013,-0.235717,0.166957,0.28838800000000003
566,-1.734975,-1.461362,-2.157718,-0.10770999999999999,0.9940180000000001,0.017844,3.409069,-0.152539,0.638152,-0.225023,0.482224,0.703576
567,-1.098691,-1.458604,-1.516779,-0.09967999999999999,0.993713,-0.050898,3.432928,0.021511000000000002,0.249263,-0.340048,0.653122,0.549144
568,-0.712791,-1.423193,-1.132957,-0.09615900000000001,0.9891260000000001,-0.11124500000000001,2.6599180000000002,0.491204,0.142841,-0.30472,0.549692,0.094216
569,-0.5262220000000001,-1.390108,-0.9600129999999999,-0.090252,0.98372,-0.155379,1.9760099999999998,1.104471,0.285761,-0.354602,0.44865299999999997,0.011748
570,-0.36070599999999997,-1.360903,-0.821666,-0.073531,0.9780530000000001,-0.194934,1.854904,1.43013,0.735288,-0.335008,0.328816,0.098712
571,-0.23646999999999999,-1.328098,-0.691997,-0.056298,0.970693,-0.233623,2.118115,-1.254092,0.971302,-0.334373,0.218638,0.40880900000000003
572,-0.152738,-1.287249,-0.579878,-0.042563,0.9600690000000001,-0.276496,2.474631,-0.308025,1.169132,-0.054163,0.047682,0.7890689999999999
573,-0.045236,-1.236789,-0.476813,-0.014824,0.944736,-0.327487,2.644909,0.476882,1.338095,-0.042518,-0.17033800000000002,0.5411560000000001
574,0.016395,-1.186287,-0.407902,0.00615,0.926983,-0.37504699999999996,2.497833,-0.516302,1.02001,-0.131089,-0.392864,0.510209
575,0.024705,-1.137705,-0.369976,0.010367,0.907673,-0.419545,2.384594,-1.849288,0.667346,-0.069235,-0.517231,0.588963
576,-0.0106,-1.0936700000000001,-0.354932,-0.004868,0.888318,-0.45919799999999994,2.005275,-2.6950529999999997,0.181876,-0.059691999999999995,-0.633771,0.655746
577,-0.067953,-1.0608,-0.35307,-0.033147,0.8727469999999999,-0.487043,1.4236389999999999,-3.0125580000000003,-0.099518,-0.050914,-0.691487,0.728421
578,-0.123643,-1.041943,-0.354763,-0.062224,0.8633860000000001,-0.500688,0.614321,-2.464207,-0.130443,-0.085725,-0.703688,0.808305
579,-0.165796,-1.0404229999999999,-0.357865,-0.083484,0.862618,-0.49891499999999994,-0.271206,-1.6763259999999998,-0.056452999999999996,-0.052471000000000004,-0.705956,0.811064
580,-0.196153,-1.057233,-0.363089,-0.095749,0.870999,-0.48185900000000004,-1.210214,-1.093043,0.080451,0.047424,-0.700436,0.685228
581,-0.218861,-1.094352,-0.37231,-0.099574,0.888631,-0.44767700000000005,-2.270622,-0.44760200000000006,0.22924499999999998,0.09740700000000001,-0.682424,0.371658
582,-0.228677,-1.153075,-0.386141,-0.091962,0.9140159999999999,-0.39511199999999996,-3.236414,0.41354799999999997,0.431835,0.036435,-0.570296,-0.192733
583,-0.235711,-1.2129219999999998,-0.40074499999999996,-0.081801,0.936644,-0.34059,-2.483924,0.16625,0.350882,-0.208436,0.081575,-0.848268
584,-0.239601,-1.2319719999999998,-0.396021,-0.078876,0.9431459999999999,-0.322875,0.010416,-0.832995,0.323652,-0.26557600000000003,1.545868,-1.509431
585,-0.225555,-1.212547,-0.35963,-0.078417,0.9365120000000001,-0.34174499999999997,1.625384,-1.115685,0.353455,0.143999,1.3791309999999999,-0.686163
586,-0.201748,-1.177922,-0.31500300000000003,-0.076714,0.9238120000000001,-0.375073,1.792354,-0.600249,0.5141939999999999,-0.033561,0.091874,-0.41668999999999995
587,-0.171193,-1.154385,-0.27220300000000003,-0.068905,0.9145459999999999,-0.39856199999999997,0.9955209999999999,-0.693805,0.625184,-0.199649,-0.435054,-0.25894
588,-0.172565,-1.155572,-0.248425,-0.069266,0.915026,-0.397397,-0.5246529999999999,-0.8761959999999999,0.402223,-0.167993,0.044172,-0.106906
589,-0.13777899999999998,-1.1672930000000001,-0.233341,-0.053926,0.919691,-0.388915,0.017849,2.827897,0.432245,-0.08569199999999999,1.822573,0.12496800000000001
590,-0.088128,-1.134994,-0.22783899999999999,-0.037153,0.906531,-0.420493,1.754629,-0.107748,-0.337005,-0.62665,2.595925,-0.194253
591,-0.102681,-1.121055,-0.237436,-0.04456,0.900559,-0.432437,-0.14015,-0.049055,-0.052282,-0.429882,-1.7922069999999999,1.808627
592,-0.07750399999999999,-1.161208,-0.240693,-0.030833,0.917285,-0.397029,-2.994915,2.703618,0.024663,-0.353612,-1.012988,0.515025
593,-0.020193,-1.2255040000000001,-0.28892399999999996,-0.006834000000000001,0.9409770000000001,-0.338393,-3.0949299999999997,6.088862000000001,-1.168236,-0.253374,-0.3728,0.98326
594,-0.032882,-1.289296,-0.416617,-0.009133,0.9606399999999999,-0.27763499999999997,-3.4694059999999998,4.613357,-2.4155759999999997,-0.354118,0.883919,0.705232
595,-0.218263,-1.359372,-0.670309,-0.045437,0.977733,-0.20485799999999998,-3.823522,2.355711,-2.559366,-0.162113,0.8861889999999999,0.48275100000000004
596,-0.462002,-1.399111,-0.9635809999999999,-0.076142,0.985298,-0.152912,-1.9355900000000001,2.108441,-1.50221,0.16860999999999998,0.537117,0.48096099999999997
597,-0.544914,-1.407089,-1.071503,-0.084465,0.9866299999999999,-0.139352,-0.27001,0.46921499999999994,-0.076285,0.304085,0.099201,0.154748
598,-0.5556180000000001,-1.412752,-1.064158,-0.083004,0.9875370000000001,-0.133692,-0.489304,-1.8519889999999999,0.10568699999999999,0.45310600000000006,0.053860000000000005,-0.21134
599,-0.766592,-1.433288,-1.2196,-0.095068,0.990561,-0.098713,-2.050925,-3.128613,-0.298827,0.489233,0.033213,-0.317471
600,-1.192213,-1.464005,-1.590675,-0.099004,0.994303,-0.039381,-3.0072400000000004,-2.5315790000000002,0.143449,0.148763,-0.16842100000000002,0.29887199999999997
601,-1.82715,-1.4735260000000001,-2.192661,-0.09389700000000001,0.995273,0.024612000000000002,-2.923076,-1.1733790000000002,0.343122,-0.009817,-0.337375,0.14013699999999998
602,-2.250531,-1.457871,-2.623897,-0.087607,0.9936309999999999,0.070806,-1.933014,0.9495049999999999,0.336635,-0.10993299999999999,-0.292718,0.049769
603,-2.483963,-1.4351399999999999,-2.901275,-0.082643,0.9908129999999999,0.10700699999999999,-2.12886,2.802346,0.42476,-0.149001,-0.355132,-0.19326500000000002
604,-2.596181,-1.4069209999999999,-3.0814150000000002,-0.084618,0.9866020000000001,0.13944700000000002,-1.7008029999999998,3.3895989999999996,0.248604,-0.034720999999999995,-0.171707,-0.187176
605,-2.621871,-1.3829,3.117746,-0.092754,0.982399,0.162103,-1.286011,2.250887,-0.127326,-0.072224,-0.173989,-0.370111
606,-2.634729,-1.354676,3.083764,-0.10408599999999998,0.9767370000000001,0.187459,-1.510834,0.473278,-0.548566,-0.195963,-0.220374,-0.28726599999999997
607,-2.632102,-1.321628,3.083025,-0.12026300000000001,0.969118,0.215258,-1.319717,0.097147,-0.958015,-0.09911299999999999,-0.161333,-0.0016809999999999998
608,-2.608259,-1.291325,3.112041,-0.140232,0.961201,0.237519,-1.099799,-0.49001000000000006,-1.101004,0.129063,-0.033313999999999996,-0.183381
609,-2.6120200000000002,-1.255409,3.125713,-0.156685,0.9506760000000001,0.267681,-1.7208130000000001,-0.9439420000000001,-1.064168,0.36101500000000003,0.066688,-0.507167
610,-2.639075,-1.215163,3.115787,-0.167689,0.937426,0.305125,-1.6645450000000002,-0.828626,-0.647316,0.521953,0.29307300000000003,-0.595637
611,-2.6491990000000003,-1.194353,3.097824,-0.173778,0.9299780000000001,0.32393099999999997,-0.77007,1.3621450000000002,0.033377,0.262401,0.43927,-0.053774
612,-2.64177,-1.187609,3.068194,-0.179181,0.927478,0.328127,-0.558941,1.278769,0.45370200000000005,0.236249,0.360394,-0.135897
613,-2.672421,-1.177605,3.030494,-0.173228,0.923691,0.34172399999999997,-0.82531,-0.180338,0.338343,-0.086828,0.335251,-0.41362299999999996
614,-2.683086,-1.175032,3.022703,-0.170625,0.922702,0.345681,0.455855,0.098023,-0.053648,-0.331969,0.49087200000000003,-0.826623
615,-2.641614,-1.199885,3.055359,-0.17376,0.931997,0.318083,1.69557,0.545588,0.165946,0.369775,0.652201,-0.616209
616,-2.607941,-1.2425760000000001,3.094842,-0.163969,0.9466180000000001,0.277522,2.645326,-0.551702,0.687801,0.687773,0.822334,-0.5445810000000001
617,-2.559509,-1.3098530000000002,-3.1183099999999997,-0.141824,0.966147,0.215488,3.7232220000000003,-1.114917,1.005836,0.474832,0.7206819999999999,-0.318287
618,-2.472295,-1.3829799999999999,-3.0017669999999996,-0.115827,0.9824139999999999,0.14641099999999999,3.5116300000000003,-1.550348,1.12242,-0.040179,0.220375,-0.007648
619,-2.324364,-1.444122,-2.819856,-0.092102,0.9919879999999999,0.086418,3.1589240000000003,-1.472493,0.873088,-0.209533,0.48839,0.373726
620,-1.8340319999999999,-1.487272,-2.312045,-0.0805,0.9965139999999999,0.021694,3.431521,-0.248261,0.313675,-0.386801,0.642616,0.6691630000000001
621,-1.03035,-1.480068,-1.511752,-0.07765,0.9958870000000001,-0.046593,3.259975,0.57862,0.139434,-0.381533,0.577431,0.43936899999999995
622,-0.608182,-1.4494989999999999,-1.104171,-0.069117,0.9926530000000001,-0.099275,2.0503720000000003,0.815511,0.554765,-0.39147,0.543495,0.024187
623,-0.41266800000000003,-1.433125,-0.917125,-0.055028,0.9905379999999999,-0.12569,1.183665,0.42995200000000006,0.489385,-0.392818,0.642824,-0.010815
624,-0.26369000000000004,-1.403055,-0.774954,-0.04351,0.985964,-0.161162,2.128422,0.137843,0.791188,-0.414971,0.502942,0.032088
625,-0.142332,-1.3494389999999998,-0.625951,-0.031142000000000003,0.9756,-0.21731799999999998,3.2535130000000003,-1.858181,0.8058770000000001,-0.310792,0.20028800000000002,0.69948
626,-0.06655499999999999,-1.288594,-0.529564,-0.018519,0.9604440000000001,-0.277844,2.97435,-0.051824,0.8689100000000001,-0.056920000000000005,-0.082942,0.773983
627,-0.009861,-1.236045,-0.473861,-0.003239,0.944492,-0.328509,2.480146,-0.037694,0.694525,-0.053447,-0.194919,0.651309
628,0.008908,-1.1904569999999999,-0.438371,0.003307,0.9285389999999999,-0.371213,2.207675,-1.206968,0.564865,-0.135036,-0.576335,0.543287
629,-0.009872,-1.145583,-0.42241000000000006,-0.004072,0.9109510000000001,-0.41248900000000005,2.202813,-1.762387,0.139322,0.020231,-0.591386,0.69
630,-0.050549000000000004,-1.110107,-0.42343800000000004,-0.022463,0.8957459999999999,-0.443992,1.470423,-2.188939,-0.180372,0.026231,-0.628977,0.730949
631,-0.105876,-1.088059,-0.42916499999999996,-0.049056,0.885727,-0.46160100000000004,0.873086,-2.650197,-0.196772,-0.104326,-0.639588,0.8220139999999999
632,-0.16103900000000002,-1.079497,-0.433076,-0.075645,0.8817209999999999,-0.46566199999999996,0.106492,-2.4455,-0.106249,-0.037728,-0.697563,0.8384950000000001
633,-0.203924,-1.088341,-0.437148,-0.093956,0.885858,-0.454337,-0.795437,-1.6621599999999999,0.052021000000000005,0.033408999999999994,-0.793253,0.700782
634,-0.23400900000000002,-1.117634,-0.445846,-0.101518,0.8990670000000001,-0.42587200000000003,-1.9194240000000002,-0.723381,0.159403,0.085588,-0.80167,0.308502
635,-0.259176,-1.17145,-0.473102,-0.099646,0.921315,-0.375824,-3.206711,0.256115,0.082927,0.049642,-0.582952,-0.178742
636,-0.29872,-1.2370729999999999,-0.5178560000000001,-0.096398,0.9448290000000001,-0.313048,-3.0899330000000003,-0.032231,0.162092,-0.151923,0.402613,-0.815538
637,-0.309025,-1.261002,-0.5199520000000001,-0.09271499999999999,0.9523959999999999,-0.290412,0.06529,-0.815728,0.486374,-0.23568499999999998,1.993984,-1.668648
638,-0.265323,-1.245968,-0.454991,-0.08368400000000001,0.9477049999999999,-0.30796999999999997,1.423025,-0.7612869999999999,0.87928,0.16875199999999999,1.767123,-1.263991
639,-0.203888,-1.217025,-0.376542,-0.07014400000000001,0.9380729999999999,-0.339254,1.7873569999999999,-0.5658,0.960623,0.116882,-0.017571,-0.46723400000000004
640,-0.15317999999999998,-1.188297,-0.306722,-0.056948,0.9277350000000001,-0.36886199999999997,1.4493209999999999,-0.996088,0.96629,-0.062955,-0.345231,-0.234882
641,-0.15754200000000002,-1.180292,-0.27155799999999997,-0.05972,0.924717,-0.375933,-0.31252399999999997,-1.7181849999999999,0.32359,0.169126,-0.46696899999999997,-0.091245
642,-0.140352,-1.195758,-0.262571,-0.051241999999999996,0.930493,-0.362699,-0.33316100000000004,1.7844200000000001,0.346731,-0.174542,1.064959,0.174726
643,-0.093453,-1.160402,-0.259142,-0.03723,0.9169639999999999,-0.397223,2.324814,0.48034799999999994,-0.31455700000000003,-1.299714,2.27963,-0.588601
644,-0.11738299999999999,-1.14155,-0.26566300000000004,-0.04874,0.90928,-0.41331599999999996,-0.087931,-0.759875,-0.027514,-0.778057,-0.221993,1.191926
645,-0.100986,-1.178205,-0.271642,-0.038569,0.9239209999999999,-0.380628,-2.7501849999999997,2.717951,-0.042020999999999996,-0.401769,-1.653886,1.171399
646,-0.045224,-1.236525,-0.325941,-0.014832,0.94465,-0.327737,-2.843291,6.285055000000001,-1.165671,-0.33300799999999997,-0.181588,1.398827
647,-0.076851,-1.293873,-0.47410699999999995,-0.020988999999999997,0.961901,-0.27258000000000004,-3.149137,4.540127,-2.761495,-0.358192,0.699781,0.672741
648,-0.351681,-1.3472549999999999,-0.816108,-0.07636,0.9751190000000001,-0.208103,-3.501521,2.1141520000000003,-3.700883,-0.20810900000000002,0.908121,0.43323100000000003
649,-0.6582479999999999,-1.363613,-1.14925,-0.125825,0.978614,-0.162712,-1.4633399999999999,-0.149463,-1.7652189999999999,-0.02574,0.992669,0.480522
650,-0.752369,-1.366091,-1.207381,-0.138901,0.9791209999999999,-0.148394,-0.192153,-2.5237439999999998,0.272052,0.237183,0.386251,0.302187
651,-0.8389280000000001,-1.382768,-1.2393969999999999,-0.139041,0.982375,-0.124899,-1.6353440000000001,-2.7051939999999997,0.013308,0.8195979999999999,-0.007384,-0.08452799999999999
652,-1.180299,-1.4122700000000001,-1.53878,-0.145954,0.987461,-0.060079999999999995,-3.4033800000000003,-2.0713369999999998,0.209517,0.335789,-0.162907,-0.14035899999999998
653,-1.635672,-1.434879,-1.966705,-0.135182,0.990777,0.008782,-3.025013,-1.205307,0.6896140000000001,0.132512,-0.188852,0.13336800000000001
654,-1.998768,-1.43612,-2.335639,-0.122128,0.9909450000000001,0.055711000000000004,-1.9612939999999999,0.899322,0.655891,-0.035282,-0.327783,0.188521
655,-2.2711360000000003,-1.429859,-2.6514900000000003,-0.10737999999999999,0.990085,0.090507,-2.1781080000000004,2.620158,1.0057530000000001,-0.14082,-0.283511,0.014214
656,-2.51173,-1.406385,-2.95866,-0.096389,0.9865149999999999,0.13223800000000002,-2.4419459999999997,3.2516529999999997,0.755273,1.4999999999999999e-05,-0.196934,-0.178061
657,-2.6274029999999997,-1.37755,-3.124837,-0.09444,0.9813860000000001,0.167188,-1.7203549999999999,1.6680700000000002,0.276302,-0.241101,-0.313234,-0.45402299999999995
658,-2.65151,-1.351998,3.114823,-0.102156,0.976159,0.191485,-1.187667,0.733984,-0.491105,-0.441301,-0.19576400000000002,-0.543429
659,-2.6360770000000002,-1.322392,3.115363,-0.119047,0.969306,0.215086,-1.3378,0.71026,-0.8211350000000001,-0.173022,-0.1146,-0.044400999999999996
660,-2.614793,-1.2935219999999998,3.1320799999999998,-0.13761500000000002,0.9618049999999999,0.236604,-1.029291,-0.061675,-0.919472,0.193127,-0.022383,0.040785
661,-2.615234,-1.2639850000000001,-3.136739,-0.151721,0.9533010000000001,0.261123,-1.411419,-1.057418,-0.927275,0.304508,0.125541,-0.334472
662,-2.642027,-1.2252889999999999,3.1368259999999997,-0.16222999999999999,0.9409040000000001,0.297268,-1.7749580000000003,-0.491569,-0.659211,0.451323,0.153334,-0.6260789999999999
663,-2.640898,-1.200252,3.12418,-0.173822,0.9321299999999999,0.317655,-0.9017930000000001,1.142383,-0.305897,0.29088800000000004,0.33984200000000003,-0.508054
664,-2.624529,-1.1862059999999999,3.117469,-0.185453,0.926952,0.32611799999999996,-0.56384,0.951175,-0.20181,0.159468,0.460636,-0.400627
665,-2.626401,-1.17573,3.11053,-0.189616,0.9229709999999999,0.334896,-0.530998,-0.181753,-0.095443,0.12623099999999998,0.390658,-0.181042
666,-2.637591,-1.170839,3.1050590000000002,-0.18803499999999998,0.921077,0.340947,0.02729,-0.24697,0.012157,0.019761,0.436497,-0.526265
667,-2.627326,-1.1866510000000001,3.1145669999999996,-0.184337,0.927119,0.326276,1.219287,0.192642,0.397003,0.313747,0.633138,-0.666425
668,-2.610194,-1.222304,3.131248,-0.173031,0.939889,0.294373,2.0179400000000003,-0.007658,0.776716,0.437817,0.6784279999999999,-0.5477449999999999
669,-2.576488,-1.2834889999999999,-3.104006,-0.15173299999999998,0.95901,0.23929499999999998,3.519369,-0.8757020000000001,1.034006,0.43818599999999996,0.79601,-0.492576
670,-2.491743,-1.361042,-2.9982599999999997,-0.125968,0.978082,0.16575399999999998,3.9881849999999996,-0.8545370000000001,1.195351,0.21128000000000002,0.70011,-0.34149
671,-2.349312,-1.4312129999999998,-2.8359650000000003,-0.099025,0.990274,0.09767100000000001,3.252123,-0.9855299999999999,1.288653,-0.280889,-0.031473,0.190949
672,-1.9967439999999999,-1.4877879999999999,-2.465472,-0.07544400000000001,0.996557,0.034231,3.3441669999999997,-0.529684,0.966108,-0.448238,0.631648,0.710947
673,-1.128945,-1.499102,-1.594187,-0.064685,0.997431,-0.030599,3.160733,0.24065,0.291928,-0.517514,0.857549,0.711507
674,-0.617275,-1.464912,-1.0948149999999999,-0.061146000000000006,0.994399,-0.086145,2.428543,0.9586629999999999,0.123524,-0.535076,0.716294,0.08628200000000001
675,-0.37187800000000004,-1.4316209999999998,-0.883294,-0.050395,0.990331,-0.129211,1.953397,2.405576,0.46766,-0.615437,0.471812,-0.022416
676,-0.155098,-1.401999,-0.7202,-0.025947,0.9857879999999999,-0.165953,1.459716,2.4694130000000003,1.180907,-0.299065,0.332129,0.227827
677,0.014077000000000001,-1.378738,-0.5546979999999999,0.002687,0.981613,-0.19083699999999998,1.7204400000000002,-0.9342590000000001,1.250114,-0.177583,0.389679,0.5001180000000001
678,0.099837,-1.322392,-0.457358,0.024503,0.969306,-0.244617,3.11694,0.149946,1.166613,0.019824,-0.09639600000000001,0.677783
679,0.14445,-1.262492,-0.419235,0.043677999999999995,0.95285,-0.30027,2.693457,0.232961,0.754419,-0.258171,-0.443999,0.41883100000000006
680,0.14641600000000002,-1.2103540000000002,-0.40126300000000004,0.051453,0.9357409999999999,-0.348904,2.484579,-1.268895,0.6234930000000001,-0.29828000000000005,-0.658718,0.5352600000000001
681,0.116725,-1.161031,-0.395079,0.046396,0.917214,-0.395675,2.3722830000000004,-1.87235,0.315834,-0.193415,-0.673287,0.615173
682,0.073136,-1.119114,-0.401481,0.031893,0.8997139999999999,-0.435306,1.897603,-2.020336,-0.093216,-0.138552,-0.742579,0.680072
683,0.011904999999999999,-1.09027,-0.41834,0.005503,0.8867520000000001,-0.462207,1.1589559999999999,-2.398992,-0.396992,-0.103602,-0.780612,0.7076899999999999
684,-0.05088,-1.07788,-0.437557,-0.024065,0.880957,-0.472578,0.283428,-2.155928,-0.482468,-0.109251,-0.812338,0.790556
685,-0.104048,-1.082724,-0.457109,-0.048701999999999995,0.883239,-0.46638199999999996,-0.6190939999999999,-1.5736459999999999,-0.393378,-0.06665499999999999,-0.778716,0.7557189999999999
686,-0.145452,-1.104519,-0.47603199999999996,-0.06515900000000001,0.8932479999999999,-0.44481099999999996,-1.4249399999999999,-1.0079799999999999,-0.228816,0.006977,-0.764632,0.651446
687,-0.169903,-1.1431120000000001,-0.49268,-0.07013,0.9099290000000001,-0.40878600000000004,-2.290921,-0.140176,0.08769400000000001,0.16456700000000002,-0.709916,0.223834
688,-0.166666,-1.196436,-0.49778599999999995,-0.060663,0.930742,-0.360601,-2.748755,0.7374609999999999,0.521342,0.15398499999999998,0.040877,-0.8448120000000001
689,-0.132304,-1.2322520000000001,-0.475649,-0.043811,0.9432389999999999,-0.329202,-0.890509,-0.106994,0.697774,-0.399777,1.562315,-1.966025
690,-0.12735,-1.234672,-0.44056899999999993,-0.041888999999999996,0.94404,-0.32715,0.386682,-1.5102360000000001,0.458529,-0.122906,1.823477,-1.6884290000000002
691,-0.127252,-1.209543,-0.41472299999999995,-0.044854000000000005,0.9354549999999999,-0.35058,1.8044619999999998,-1.044503,0.243509,-0.083136,0.18007,-0.08167100000000001
692,-0.116478,-1.172264,-0.385729,-0.045098,0.921632,-0.385429,1.756115,-0.8060189999999999,0.319778,-0.18123599999999998,0.016662,-0.151482
693,-0.133691,-1.1517620000000002,-0.38044,-0.054233,0.913482,-0.40324099999999996,0.593923,-1.070948,-0.351366,-0.445141,0.78035,-0.284015
694,-0.10737200000000001,-1.130023,-0.37790300000000004,-0.04572,0.904422,-0.424175,1.7671279999999998,2.2464009999999996,0.209121,-0.172145,2.114118,-0.7450140000000001
695,-0.102755,-1.0970360000000001,-0.380803,-0.046797000000000005,0.8898590000000001,-0.453823,0.261316,0.092539,-0.912792,0.06639,1.424487,0.167629
696,-0.095434,-1.133837,-0.3952,-0.040324,0.906043,-0.421254,-2.300767,1.362538,0.45957700000000007,-0.093144,-1.205573,1.462651
697,-0.020293000000000002,-1.186983,-0.391025,-0.007598000000000001,0.9272440000000001,-0.374373,-2.9767740000000003,5.04178,-0.230317,-0.268021,-0.41129799999999994,0.35230900000000004
698,0.040284,-1.248251,-0.442801,0.012765,0.9484319999999999,-0.316714,-3.0339490000000002,5.09286,-1.231706,-0.39368600000000004,0.5018699999999999,1.266345
699,0.0071189999999999995,-1.314561,-0.5473399999999999,0.0018039999999999998,0.9673510000000001,-0.253419,-3.3260440000000004,2.391626,-1.853058,-0.219059,0.658198,0.48462
700,-0.167709,-1.374893,-0.757378,-0.032489,0.980872,-0.191901,-3.128631,1.144733,-2.159865,0.023653999999999998,0.24810100000000002,0.337943
701,-0.47945299999999996,-1.412947,-1.0908,-0.0725,0.987568,-0.13944600000000001,-2.288722,0.806995,-2.077722,0.14841300000000002,0.48527200000000004,0.48661400000000005
702,-0.737722,-1.421592,-1.3639430000000001,-0.099962,0.9888899999999999,-0.10997799999999999,-1.1405290000000001,0.2671,-0.993311,0.23074499999999998,0.249331,0.338616
703,-0.877868,-1.4291209999999999,-1.4934,-0.10861099999999999,0.989981,-0.090177,-1.033203,-1.152298,-0.175689,0.295013,-0.020361,0.068799
704,-1.147232,-1.4424569999999999,-1.725545,-0.11664000000000001,0.991776,-0.052587,-2.053129,-2.429886,-0.276248,0.240159,-0.108795,-0.21610500000000002
705,-1.553166,-1.447425,-2.075143,-0.12299600000000001,0.992399,-0.002169,-1.9948700000000001,-3.285305,-0.326019,0.057428999999999994,-0.123732,-0.14694000000000002
706,-1.866136,-1.43812,-2.343499,-0.12651700000000002,0.9912110000000001,0.038491000000000004,-1.757422,-1.2248290000000002,-0.057809000000000006,0.07875700000000001,-0.18155,-0.09385
707,-2.130152,-1.428043,-2.6169919999999998,-0.12055199999999999,0.989828,0.075472,-2.091903,1.209978,0.601169,0.218361,-0.19685899999999998,0.026289
708,-2.387375,-1.412125,-2.924408,-0.10816300000000001,0.9874379999999999,0.115128,-2.329549,2.789273,0.933975,0.21322,-0.341015,-0.041062
709,-2.5634099999999997,-1.388652,3.127671,-0.098974,0.9834579999999999,0.151667,-1.956967,2.341618,0.671164,0.123754,-0.293959,-0.176569
710,-2.650474,-1.362214,3.00736,-0.09764400000000001,0.978325,0.182572,-1.631326,1.048725,0.035230000000000004,-0.4837,-0.157998,-0.441071
711,-2.664733,-1.33049,2.988778,-0.109227,0.9712649999999999,0.21142399999999997,-1.3868989999999999,-0.282306,-0.8490489999999999,-0.520274,-0.145841,-0.407729
712,-2.64818,-1.300019,3.012273,-0.126676,0.963563,0.23555399999999999,-1.131275,-0.06735,-1.0131139999999998,-0.482882,-0.166993,-0.260243
713,-2.612551,-1.272832,3.040149,-0.14815799999999998,0.955936,0.253421,-0.9295979999999999,0.68815,-0.976354,0.11913499999999999,0.143093,-0.12013499999999999
714,-2.5823560000000003,-1.246086,3.057233,-0.169249,0.947743,0.270415,-1.0821610000000002,0.5561649999999999,-0.8714959999999999,0.253813,0.14204,-0.343886
715,-2.585451,-1.2207059999999998,3.0540979999999998,-0.181055,0.939342,0.29127800000000004,-1.094344,-0.335951,-0.475196,0.350458,0.10480199999999999,-0.463703
716,-2.597899,-1.200072,3.0461560000000003,-0.187404,0.9320649999999999,0.31003400000000003,-0.8219129999999999,0.023008,-0.43529700000000005,0.300487,0.33652,-0.396613
717,-2.583272,-1.1882549999999998,3.049282,-0.19774,0.9277190000000001,0.316581,-0.295797,0.723472,-0.237035,0.371263,0.414017,-0.170707
718,-2.588947,-1.182634,3.0379,-0.198675,0.9256059999999999,0.322131,-0.421779,-0.09471900000000001,0.153034,0.229345,0.389793,-0.26115700000000003
719,-2.6032029999999997,-1.183298,3.028121,-0.193748,0.9258569999999999,0.32440399999999997,0.30119,-0.175024,0.161392,0.10019600000000001,0.506165,-0.673006
720,-2.57706,-1.204706,3.051197,-0.191511,0.9337340000000001,0.30241,1.671719,0.279036,0.241954,0.339841,0.535565,-0.803966
721,-2.532814,-1.244959,3.107296,-0.183045,0.947383,0.262579,2.6040810000000003,-0.796458,0.389775,0.44281000000000004,0.652364,-0.719137
722,-2.434011,-1.307713,-3.057712,-0.169023,0.965593,0.19761099999999998,4.023615,-0.626764,0.6782779999999999,0.44134700000000004,0.612425,-0.48537700000000006
723,-2.2534919999999996,-1.380184,-2.85526,-0.146976,0.9818879999999999,0.11951099999999999,4.014187000000001,-1.012345,1.206408,0.233325,0.271545,-0.012714
724,-1.982533,-1.440509,-2.556609,-0.119029,0.991525,0.05198,3.3595129999999997,-1.291728,1.311152,-0.288579,0.599143,0.705329
725,-1.427886,-1.4728940000000001,-1.9802119999999999,-0.09671,0.9952110000000001,-0.013916,3.488479,-0.534216,0.9083629999999999,-0.393967,0.7029850000000001,0.857742
726,-0.815705,-1.451394,-1.364965,-0.086721,0.9928799999999999,-0.081618,3.24606,0.236051,0.302137,-0.539606,0.930658,0.555632
727,-0.513626,-1.41067,-1.070804,-0.07833,0.987207,-0.138851,2.634292,0.8603729999999999,0.548096,-0.576501,0.646506,0.069714
728,-0.30223099999999997,-1.375153,-0.894073,-0.05785800000000001,0.980923,-0.18557200000000001,2.034513,2.4043330000000003,0.7075020000000001,-0.400501,0.5923189999999999,0.02955
729,-0.140421,-1.345492,-0.776351,-0.031266,0.974726,-0.221191,1.486492,1.9847139999999999,1.157138,-0.379135,0.5114489999999999,0.087997
730,-0.00158,-1.325625,-0.621598,-0.000384,0.970096,-0.24270999999999998,1.338169,-1.527937,1.926518,0.058275,0.336011,0.63544
731,0.095086,-1.2771,-0.508963,0.027483999999999998,0.9571799999999999,-0.28817600000000004,2.724853,-0.288248,1.33107,0.065732,-0.037701,0.521864
732,0.128111,-1.220156,-0.45531099999999997,0.043885,0.939153,-0.34067800000000004,2.6834290000000003,-1.4333879999999999,1.092967,-0.107697,-0.253164,0.43807399999999996
733,0.11703800000000002,-1.165491,-0.419642,0.046042,0.918982,-0.391596,2.577489,-2.632862,0.912166,-0.181159,-0.6650149999999999,0.6307619999999999
734,0.078472,-1.118464,-0.399391,0.034262,0.89943,-0.43571400000000005,2.063686,-2.72841,0.477138,-0.177038,-0.800462,0.743927
735,0.029137,-1.083948,-0.39313000000000003,0.013630000000000001,0.883812,-0.46763999999999994,1.552526,-2.911464,0.07856,-0.210758,-0.8874280000000001,0.815861
736,-0.03408,-1.0593700000000001,-0.397054,-0.016676,0.8720469999999999,-0.489134,0.978432,-2.928775,-0.156164,-0.121813,-0.8767780000000001,0.9493540000000001
737,-0.094073,-1.0505440000000001,-0.404078,-0.046694,0.8676940000000001,-0.49489799999999995,0.09601599999999999,-2.518591,-0.20344600000000002,-0.087522,-0.851825,0.893594
738,-0.140826,-1.059004,-0.411966,-0.06874,0.871868,-0.484889,-0.735125,-1.695907,-0.088528,-0.069352,-0.7768970000000001,0.790065
739,-0.17341600000000001,-1.081731,-0.419625,-0.081063,0.8827719999999999,-0.46275,-1.401809,-1.0581610000000001,0.044867000000000004,0.053765,-0.6742,0.49251999999999996
740,-0.195142,-1.12022,-0.43004499999999996,-0.08444199999999999,0.9001959999999999,-0.42721400000000004,-2.279459,-0.37593200000000004,0.159639,0.182922,-0.544117,-0.002947
741,-0.211329,-1.172806,-0.44628199999999996,-0.081295,0.921842,-0.378938,-2.702378,0.07267799999999999,0.227681,-0.012242,-0.01994,-0.684249
742,-0.22392199999999998,-1.2087940000000001,-0.45503699999999997,-0.078639,0.9351889999999999,-0.34529899999999997,-1.012839,-0.709885,0.257577,-0.351873,1.176245,-1.561561
743,-0.23566700000000002,-1.2054799999999999,-0.431935,-0.083412,0.934011,-0.34736300000000003,0.9178790000000001,-1.8208630000000001,0.422038,0.034019,1.740733,-1.0078770000000001
744,-0.217955,-1.174161,-0.383713,-0.08353300000000001,0.922366,-0.377172,2.074216,-0.9754940000000001,0.599947,0.077628,0.553693,-0.327311
745,-0.17275,-1.135025,-0.32656799999999997,-0.072556,0.906545,-0.415821,2.002205,-0.13785,0.8440620000000001,-0.191955,-0.301625,-0.281231
746,-0.140201,-1.11153,-0.273194,-0.061946,0.8963780000000001,-0.438936,0.894962,-1.409571,0.9501209999999999,-0.148305,-0.38774200000000003,-0.196181
747,-0.152394,-1.11531,-0.24733400000000003,-0.066778,0.8980469999999999,-0.434795,-0.640596,-1.2679690000000001,0.43714899999999995,-0.14138199999999998,-0.310813,0.10751
748,-0.112078,-1.12396,-0.222158,-0.048329000000000004,0.901819,-0.42939799999999995,0.31795500000000004,2.406109,0.685896,-0.162685,1.476966,-0.30348200000000003
749,-0.042549000000000003,-1.0918370000000002,-0.199272,-0.019603,0.887475,-0.460433,1.6242370000000002,0.7726729999999999,-0.086962,-0.702001,1.764029,-0.180314
750,-0.049288,-1.096406,-0.20976199999999998,-0.022505,0.8895709999999999,-0.456236,-1.318583,0.045518,-0.040356,-0.8516100000000001,-1.763854,2.064833
751,-0.030560000000000004,-1.148434,-0.225883,-0.012525,0.9121229999999999,-0.409718,-3.180943,3.5327269999999995,-0.69663,-0.707263,-1.088637,0.310033
752,-0.001582,-1.213031,-0.314705,-0.000554,0.936682,-0.350173,-3.109489,5.866089,-1.9243709999999998,-0.349177,0.050989,1.492873
753,-0.044774,-1.278578,-0.46001899999999996,-0.012894,0.957607,-0.287777,-3.561272,3.916582,-2.5841220000000003,-0.307312,0.593403,0.8839530000000001
754,-0.24645100000000003,-1.342606,-0.72651,-0.055185000000000005,0.9740770000000001,-0.219365,-3.357871,2.394606,-2.836056,-0.1901,1.191541,0.696279
755,-0.45253000000000004,-1.3752659999999999,-0.9724450000000001,-0.08494199999999999,0.9809450000000001,-0.174714,-1.873647,1.173951,-1.232474,0.281048,0.42349,0.35933000000000004
756,-0.5342640000000001,-1.395988,-1.0607879999999998,-0.088551,0.9847600000000001,-0.14966600000000002,-1.025244,-0.194057,0.20982800000000001,0.37332600000000005,0.22260700000000003,0.255714
757,-0.613034,-1.4171639999999999,-1.125127,-0.088032,0.9882219999999999,-0.125144,-1.486549,-1.091273,-0.12553,0.44850500000000004,0.150053,0.050071
758,-0.8660950000000001,-1.442834,-1.350601,-0.097194,0.9918239999999999,-0.08265,-2.206069,-1.702207,-0.168229,0.288325,0.031476,-0.09714500000000001
759,-1.268159,-1.466923,-1.7151299999999998,-0.098938,0.99461,-0.030891000000000002,-2.622534,-2.021302,0.070689,0.128082,-0.035092,0.069297
760,-1.833804,-1.4717129999999998,-2.256078,-0.095478,0.9950950000000001,0.025707,-2.532942,-0.9249959999999999,0.224802,0.100178,-0.190194,0.094059
761,-2.231507,-1.456232,-2.6633259999999996,-0.090226,0.993445,0.070128,-2.1326650000000003,1.11853,0.328597,-0.122375,-0.367377,-0.05461
762,-2.475489,-1.4331479999999999,-2.956573,-0.084766,0.990541,0.10785399999999999,-2.164732,3.043545,0.6068479999999999,-0.038449000000000004,-0.40515300000000004,-0.086812
763,-2.6280799999999997,-1.404989,3.1048810000000002,-0.081063,0.9862860000000001,0.143734,-2.015909,3.3287989999999996,0.538088,0.004983,-0.362491,-0.148662
764,-2.692355,-1.3746180000000001,2.983828,-0.08463899999999999,0.980819,0.175558,-1.7850419999999998,2.286793,0.113747,-0.078203,-0.248427,-0.24541300000000002
765,-2.722412,-1.339634,2.930836,-0.09324099999999999,0.9734010000000001,0.209252,-1.874062,0.41243500000000005,-0.473063,-0.301184,-0.178814,-0.27874099999999996
766,-2.720497,-1.301277,2.930136,-0.108831,0.963899,0.242988,-1.560781,0.12336400000000002,-0.9148850000000001,-0.078989,-0.134889,0.023507
767,-2.69492,-1.269291,2.955975,-0.128268,0.95489,0.267806,-1.235901,-0.083003,-1.004218,0.127657,-0.02505,-0.110427
768,-2.685905,-1.237199,2.970272,-0.144094,0.9448709999999999,0.294015,-1.412319,-0.20994200000000002,-0.808735,0.32413200000000003,0.26371700000000003,-0.597833
769,-2.678896,-1.209601,2.97476,-0.15773399999999999,0.935475,0.31621900000000003,-0.980619,0.381094,-0.602446,0.242054,0.24210700000000002,-0.549724
770,-2.661512,-1.192467,2.98391,-0.170586,0.929283,0.3276,-0.58624,0.392127,-0.5067699999999999,0.238563,0.35006,-0.492364
771,-2.647748,-1.178717,2.990338,-0.181119,0.9241159999999999,0.336441,-0.548499,0.390339,-0.35909,0.268933,0.44304099999999996,-0.191254
772,-2.648861,-1.167653,2.987742,-0.185569,0.919832,0.345629,-0.48566800000000004,-0.141261,-0.142193,0.052863,0.427,-0.34927600000000003
773,-2.650591,-1.161792,2.9832080000000003,-0.18750999999999998,0.917517,0.350698,-0.09298200000000001,0.46093199999999995,-0.028058,-0.029439,0.534189,-0.699346
774,-2.621366,-1.1719030000000001,3.00011,-0.193056,0.921491,0.337002,1.0492700000000001,0.593382,-0.041614,0.08481,0.5166649999999999,-0.777493
775,-2.585687,-1.199354,3.036827,-0.191529,0.9318049999999999,0.308292,1.7964419999999999,-0.267769,0.211468,0.525026,0.567905,-0.47011099999999995
776,-2.540942,-1.245971,3.099348,-0.18036300000000002,0.947707,0.26326700000000003,3.044494,-0.9848459999999999,0.497774,0.470753,0.729921,-0.486687
777,-2.452506,-1.3132489999999999,-3.068445,-0.161938,0.967018,0.196575,3.9613419999999997,-1.070222,0.8065939999999999,0.35079699999999997,0.6867449999999999,-0.315258
778,-2.2892810000000003,-1.384303,-2.88414,-0.139559,0.9826600000000001,0.122029,3.713254,-0.864034,1.1400190000000001,0.002291,0.20210799999999998,0.334636
779,-2.066575,-1.438318,-2.633759,-0.116155,0.991238,0.06282,3.044378,-1.241386,0.9820059999999999,-0.095973,0.385502,0.6299899999999999
780,-1.571526,-1.468538,-2.121999,-0.102036,0.994776,7.4e-05,3.334745,-0.315576,0.443396,-0.35852,0.547079,0.850359
781,-0.9867879999999999,-1.452317,-1.5348389999999998,-0.09858099999999999,0.9929899999999999,-0.065153,3.144425,0.192501,0.091039,-0.429572,0.60958,0.11758199999999999
782,-0.678063,-1.421477,-1.238365,-0.093301,0.988873,-0.115835,2.0166720000000002,1.137154,0.330847,-0.5451729999999999,0.606647,0.0043549999999999995
783,-0.471107,-1.405078,-1.06146,-0.074861,0.9863,-0.146971,1.147546,1.679617,1.023766,-0.33315900000000004,0.512632,0.11111199999999999
784,-0.24545300000000003,-1.398875,-0.8497,-0.041566000000000006,0.985258,-0.165928,1.106277,0.082221,1.728415,-0.13084300000000001,0.341296,0.45575299999999996
785,-0.048895,-1.3514329999999999,-0.641203,-0.010634999999999999,0.976036,-0.21733200000000003,3.36089,-0.256285,1.575818,-0.044982999999999995,0.050392,0.799653
786,0.053288999999999996,-1.284815,-0.530211,0.015025,0.959385,-0.28168699999999997,3.101779,-0.235208,1.325086,-0.058162,-0.27812600000000004,0.541117
787,0.101573,-1.2270370000000002,-0.46040299999999995,0.034173,0.941494,-0.335283,2.69958,-1.4905389999999998,1.250178,-0.151056,-0.5748260000000001,0.483537
