,attitude.roll,attitude.pitch,attitude.yaw,gravity.x,gravity.y,gravity.z,rotationRate.x,rotationRate.y,rotationRate.z,userAcceleration.x,userAcceleration.y,userAcceleration.z
0,0.46701400000000004,-1.0641479999999999,2.3736740000000003,0.21846999999999997,0.874376,-0.433287,0.6958,4.071076000000001,-1.228114,-0.587671,0.074675,0.742537
1,0.48332700000000006,-1.0782479999999999,2.285185,0.219757,0.881131,-0.418707,-0.013861000000000002,4.885971,-2.997749,-0.619553,2.4114259999999996,0.482626
2,0.45726999999999995,-1.127307,2.179671,0.189445,0.9032600000000001,-0.385009,-1.8317330000000003,2.352801,-2.235945,0.445137,3.532516,0.409042
3,0.523174,-1.171665,2.219801,0.194166,0.921399,-0.336636,-2.820357,1.05021,0.421896,0.8310870000000001,-0.27839400000000003,-0.010593
4,0.682108,-1.230346,2.358004,0.210508,0.9426049999999999,-0.25919699999999996,-4.143544,2.306869,0.062803,0.5305810000000001,-1.213555,-0.151341
5,0.888115,-1.298835,2.49987,0.208419,0.9632459999999999,-0.169466,-3.803228,3.7505089999999996,-1.343518,0.299989,-0.857716,-0.070493
6,1.124792,-1.380457,2.684109,0.170685,0.9819399999999999,-0.081611,-4.082722,2.100586,-3.01085,0.845459,0.087976,-0.398431
7,1.578665,-1.469549,3.136679,0.10107100000000001,0.9948790000000001,0.000795,-3.9562160000000004,-0.190202,-3.541142,1.192676,1.51655,-0.37961
8,2.606631,-1.474713,-2.128453,0.048908999999999994,0.9953870000000001,0.08253300000000001,-4.195021,1.100005,-2.043648,0.70219,1.8342479999999999,0.010927
9,3.136719,-1.4112120000000001,-1.60569,0.000775,0.987293,0.158907,-3.511482,0.06307,-2.529995,0.455021,0.18269000000000002,-0.8603069999999999
10,-2.9633540000000003,-1.354144,-1.412492,-0.038112,0.9766229999999999,0.211556,-2.187536,-0.303902,-1.684928,0.556331,0.189744,-0.815575
11,-2.893605,-1.317841,-1.3443209999999999,-0.061429,0.9681770000000001,0.24261100000000002,-0.994964,0.65293,-0.9087040000000001,-0.183582,0.44355100000000003,-0.68388
12,-2.819756,-1.327289,-1.2891620000000001,-0.076265,0.970498,0.22872800000000001,1.373787,0.8669030000000001,-0.262181,0.326203,-0.178293,-0.151778
13,-2.771414,-1.359194,-1.249232,-0.07598400000000001,0.9776959999999999,0.1958,1.784018,0.559879,0.50272,0.469233,-0.973316,-0.155288
14,-2.803159,-1.413101,-1.281153,-0.05214,0.987592,0.148134,2.806072,-0.6289140000000001,1.466373,0.7821199999999999,-1.071851,-0.5244770000000001
15,-2.901685,-1.483103,-1.346182,-0.02081,0.996157,0.08507200000000001,3.310261,-2.5634509999999997,1.295049,0.617261,-0.857608,-0.400608
16,2.6588979999999998,-1.553761,-2.001127,0.007906999999999999,0.9998549999999999,0.015088999999999998,3.769825,-3.639643,1.229135,0.39060700000000004,-0.974419,0.040376999999999996
17,0.382183,-1.493739,2.0757950000000003,0.028710000000000003,0.997033,-0.071427,4.557239,-3.477986,1.145766,0.190071,-0.790825,0.254151
18,0.247496,-1.3838549999999998,2.011622,0.04553,0.982577,-0.18019100000000002,5.911644,-3.597654,1.392525,-0.076276,-0.143786,0.455032
19,0.16510999999999998,-1.232904,2.002724,0.054485000000000006,0.943456,-0.326991,8.574746000000001,-3.783849,1.4241840000000001,0.117405,1.044704,0.002238
20,0.10615799999999999,-1.075988,2.038189,0.050316,0.8800600000000001,-0.47218999999999994,6.308463,-4.214987000000001,1.9814740000000002,0.6426930000000001,3.773429,0.21648299999999998
21,0.10949500000000001,-0.967203,2.0789150000000003,0.062026,0.8233010000000001,-0.5642050000000001,4.936909,-0.365633,1.4446,-0.79692,1.288805,0.79205
22,0.12105199999999999,-0.880592,2.10418,0.07688500000000001,0.771116,-0.6320359999999999,3.7393699999999996,-0.90928,1.2403790000000001,-0.7574270000000001,0.336886,-0.2135
23,0.10421099999999998,-0.8231569999999999,2.133994,0.070726,0.7332960000000001,-0.676221,2.134408,-2.318753,1.328183,-0.120698,0.820476,-0.29030100000000003
24,0.07473400000000001,-0.801132,2.177852,0.051958000000000004,0.718145,-0.693951,0.055402,-3.535799,1.923038,0.008405,1.118571,-0.17488399999999998
25,0.038169,-0.8353450000000001,2.238153,0.025602,0.741528,-0.670433,-2.637483,-3.8448,1.611932,-0.046949,0.551349,-0.12984500000000002
26,0.030288,-0.897626,2.286554,0.018881000000000002,0.781849,-0.623182,-3.5870849999999996,-1.046068,1.57287,-0.325933,-1.59354,-0.151354
27,0.06754299999999999,-0.9758680000000001,2.332093,0.037826,0.828189,-0.559171,-3.873136,0.44018999999999997,0.706913,-0.45291099999999995,-1.529208,-0.334521
28,0.08505,-1.028289,2.3378919999999996,0.043857,0.856417,-0.514419,-1.659345,0.342939,-0.333971,-0.40326300000000004,-1.107683,0.183364
29,0.062831,-1.03877,2.324824,0.031852,0.8617809999999999,-0.506279,-0.008754000000000001,-0.554559,-0.29885900000000004,-0.360297,-0.8752549999999999,0.559136
30,0.072499,-1.037081,2.326625,0.03685,0.860923,-0.5073989999999999,-0.060441999999999996,1.084961,0.262701,-0.362976,-0.91999,0.7245010000000001
31,0.12712400000000001,-1.043991,2.338575,0.063743,0.864418,-0.498717,-0.513942,2.92538,0.21765,-0.166373,-0.9816360000000001,0.794204
32,0.210508,-1.055482,2.3452,0.102976,0.870138,-0.48193,-0.607133,4.2720839999999995,-0.01653,-0.316843,-0.9685879999999999,0.720974
33,0.306821,-1.073229,2.35027,0.144155,0.8787459999999999,-0.454999,-1.163359,4.780511,-0.13964000000000001,-0.43825299999999995,-0.789818,0.507047
34,0.430788,-1.103121,2.3602990000000004,0.188253,0.892619,-0.409625,-1.587621,6.617922999999999,-0.523108,-0.717734,-0.669367,1.3506040000000001
35,0.5157970000000001,-1.1204120000000002,2.32724,0.21470799999999998,0.90028,-0.378677,0.880893,3.7315910000000003,-1.205057,-0.863923,-0.37704099999999996,0.771988
36,0.43470600000000004,-1.123041,2.187637,0.182331,0.9014209999999999,-0.392677,0.663262,2.952384,-4.6185480000000005,-1.568455,5.308052,0.283103
37,0.4497,-1.159914,2.119752,0.173625,0.9167690000000001,-0.359707,-1.7526169999999999,4.380357,0.007376000000000001,1.0322770000000001,1.529032,0.399212
38,0.6416229999999999,-1.203093,2.236827,0.215144,0.933155,-0.287983,-3.972108,3.335989,0.698238,1.3152979999999999,-0.8228340000000001,-0.275524
39,0.8492649999999999,-1.275484,2.414212,0.21850999999999998,0.9567110000000001,-0.192241,-4.51044,1.853804,-1.1334870000000001,1.295757,-1.311265,-0.082661
40,1.020019,-1.3644479999999999,2.5409330000000003,0.17458800000000002,0.978786,-0.107228,-3.7125809999999997,2.268777,-3.2990730000000004,0.9454379999999999,-0.502467,-0.198925
41,1.335301,-1.465841,2.845328,0.101871,0.994497,-0.024444,-4.307444,-0.32404099999999997,-3.863927,1.3358729999999999,1.0136049999999999,-0.270921
42,2.5624599999999997,-1.500793,-2.179528,0.038282,0.9975510000000001,0.058540999999999996,-4.348234,-1.184675,-2.5256950000000002,0.749957,2.1152580000000003,0.110832
43,-3.0963950000000002,-1.4191610000000001,-1.542624,-0.006825,0.988525,0.150901,-4.486219999999999,-0.46346800000000005,-2.676066,-0.124858,0.569641,-0.780189
44,-2.88643,-1.348801,-1.315309,-0.055573000000000004,0.97546,0.21304800000000002,-2.2586060000000003,-0.520897,-2.234211,0.128816,0.13187000000000001,-0.889608
45,-2.805087,-1.309919,-1.241244,-0.085165,0.9661639999999999,0.24346199999999998,-0.864942,0.953468,-1.05239,-0.26850300000000005,0.197242,-0.42598800000000003
46,-2.714729,-1.316925,-1.164899,-0.10398199999999999,0.9679469999999999,0.22861599999999999,1.289395,0.5148510000000001,-0.5924,0.09664199999999999,-0.17102699999999998,0.052359
47,-2.6505080000000003,-1.3452870000000001,-1.1028360000000001,-0.105447,0.9746799999999999,0.197178,1.79045,0.253369,0.426246,0.596689,-1.057444,-0.20216800000000001
48,-2.632549,-1.400978,-1.09079,-0.082362,0.9856159999999999,0.147576,2.888049,0.188359,1.611177,0.560329,-1.0533649999999999,-0.7945180000000001
49,-2.665114,-1.475641,-1.1027790000000002,-0.043577,0.995476,0.08442899999999999,3.408982,-1.848165,1.8876849999999998,0.422087,-0.770501,-0.249392
50,-2.532934,-1.560324,-0.920163,-0.00599,0.9999450000000001,0.008596,4.186165,-2.708454,1.63357,0.48987700000000006,-0.656866,0.24300700000000003
51,0.316786,-1.480996,1.984719,0.027936000000000002,0.9959709999999999,-0.085217,5.00167,-2.703282,2.0302290000000003,-0.029722000000000002,-0.164672,-0.054935000000000005
52,0.29297399999999996,-1.349251,2.0250169999999996,0.06346,0.9755590000000001,-0.21037399999999998,7.123792,-3.6532660000000003,2.260982,0.39877399999999996,0.8401,-0.193831
53,0.195635,-1.184975,2.028541,0.073153,0.9264889999999999,-0.369142,7.700838,-6.00783,1.837537,1.151823,3.510065,0.18242
54,0.094264,-1.0524799999999999,2.029476,0.046631,0.868654,-0.49321899999999996,5.9367779999999994,-3.583739,0.557334,0.23600700000000002,1.7526380000000001,1.096674
55,0.063688,-0.9498340000000001,2.032708,0.03703,0.813319,-0.580639,4.650258999999999,-1.136737,0.591145,-0.802563,0.661733,-0.090061
56,0.057371000000000005,-0.872235,2.054985,0.036876,0.765768,-0.642059,3.298969,-1.264994,1.0689799999999998,-0.471355,0.9434299999999999,-0.480591
57,0.051414,-0.8248190000000001,2.093295,0.034879,0.734425,-0.677793,1.649139,-1.9954319999999999,1.613867,-0.47399600000000003,1.1049309999999999,-0.058214
58,0.049634,-0.821543,2.14883,0.033791,0.7321979999999999,-0.680253,-0.9464790000000001,-2.067788,1.9782529999999998,-0.181359,0.762675,-0.0035689999999999997
59,0.047769,-0.861067,2.2061900000000003,0.031116,0.758538,-0.650885,-2.624935,-2.1599009999999996,1.6942220000000001,-0.017475,-0.635446,0.177176
60,0.07688500000000001,-0.9261799999999999,2.262105,0.046154,0.79933,-0.599117,-3.662576,0.232278,1.369851,-0.334362,-1.729018,-0.03333
61,0.11096800000000001,-0.988374,2.2903729999999998,0.060913,0.835133,-0.546665,-2.577696,0.42708599999999997,-0.06705599999999999,-0.268676,-1.653752,0.098453
62,0.092116,-1.020794,2.276966,0.04808,0.852524,-0.520473,-1.185322,-0.783708,-0.580276,-0.632278,-1.462234,0.519512
63,0.079441,-1.04098,2.272698,0.040105,0.8629,-0.503781,-1.027923,0.057627,0.139727,-0.365209,-1.405411,0.8933840000000001
64,0.135985,-1.063662,2.302717,0.065841,0.8741399999999999,-0.481191,-1.206748,2.462087,0.793421,-0.034957,-0.999201,0.908162
65,0.24687699999999999,-1.0773540000000001,2.34587,0.115752,0.880708,-0.45929899999999996,-0.648999,4.1833089999999995,0.908343,-0.151106,-0.802415,0.524134
66,0.36252,-1.077394,2.3831439999999997,0.167962,0.880726,-0.44284300000000004,-0.072407,3.9165870000000003,0.77598,-0.12418499999999999,-0.5522050000000001,0.208498
67,0.465088,-1.07344,2.411693,0.213982,0.8788469999999999,-0.42642700000000006,-0.21752,4.291393,0.678346,-0.186363,-0.494173,0.540532
68,0.5908,-1.078539,2.431923,0.26326,0.881268,-0.392506,-0.206697,5.1671190000000005,-0.146299,-0.670028,-0.511181,1.258259
69,0.5602699999999999,-1.044735,2.360582,0.26684,0.864791,-0.425361,2.88382,0.293198,-1.154642,-0.726358,0.937775,-1.222115
70,0.5434180000000001,-1.1003530000000001,2.2740009999999997,0.23437600000000003,0.891367,-0.38798499999999997,-2.95434,4.055553,-1.9031330000000002,-1.078019,3.9540610000000003,0.06442200000000001
71,0.708808,-1.15626,2.365017,0.26217199999999996,0.9153030000000001,-0.305755,-3.7550839999999996,4.05869,0.134779,1.292668,0.449031,0.45291000000000003
72,0.8881629999999999,-1.2285,2.509376,0.260437,0.9419860000000001,-0.211742,-4.511682,0.87361,-1.3619350000000001,1.440277,-0.46385200000000004,-0.131077
73,1.037435,-1.312311,2.661723,0.220112,0.966778,-0.12996300000000002,-4.1820129999999995,0.20063399999999998,-2.514586,0.6483869999999999,-0.29285900000000004,0.45106899999999994
74,1.309901,-1.40659,2.93978,0.15793800000000002,0.986548,-0.042166,-4.67514,-0.575679,-3.4859139999999997,0.8074859999999999,1.106744,-0.17794200000000002
75,2.0047650000000004,-1.4613639999999999,-2.6103419999999997,0.099091,0.9940180000000001,0.045922000000000004,-4.892246,-1.681041,-2.332334,0.44421400000000005,2.1854560000000003,-0.35393600000000003
76,2.7308369999999997,-1.418049,-1.8548669999999998,0.060756,0.9883569999999999,0.139498,-4.326008,-0.968469,-2.266267,-0.348078,0.477509,-0.752047
77,3.054005,-1.373658,-1.527061,0.017133000000000002,0.9806309999999999,0.195113,-2.00033,0.8973620000000001,-2.018472,-0.042509,0.291113,-1.117736
78,-3.047108,-1.3400100000000001,-1.366947,-0.021580000000000002,0.9734870000000001,0.227723,-1.408504,1.385225,-1.45842,-0.30479,0.122781,-0.628174
79,-2.913379,-1.335481,-1.2633450000000002,-0.052747,0.972441,0.227104,0.671832,1.527625,-1.044556,0.286451,-0.41122299999999995,0.101417
80,-2.8418509999999997,-1.348033,-1.204399,-0.065233,0.975291,0.211075,0.7295,0.384694,-0.057788,0.5478689999999999,-1.074595,0.03598
81,-2.904035,-1.373398,-1.2662129999999998,-0.046152,0.9805799999999999,0.190611,1.390924,-0.304086,1.650461,0.786723,-1.5574540000000001,-0.626463
82,3.119575,-1.427138,-1.5154530000000002,0.003152,0.989699,0.143129,3.03924,-1.098458,2.536798,0.598945,-0.616927,-0.879473
83,2.506551,-1.482306,-2.091024,0.052425,0.9960870000000001,0.071146,3.7852080000000004,-2.5338380000000003,2.004395,0.157063,-0.5140319999999999,-0.344095
84,1.396857,-1.4819950000000002,3.138857,0.08734700000000001,0.9960600000000001,-0.015347999999999999,4.394835,-3.159329,1.52021,0.073389,-0.293988,0.37785100000000005
85,0.713749,-1.40436,2.519372,0.10845899999999999,0.986181,-0.12523199999999998,5.909389,-3.8110129999999995,1.206885,-0.10908499999999999,0.40531300000000003,-0.038663
86,0.351644,-1.2658120000000002,2.259625,0.10342799999999999,0.953852,-0.281903,7.593975,-6.315633999999999,0.8522559999999999,1.135525,4.528569999999999,0.286664
87,0.179007,-1.127887,2.200154,0.076308,0.903509,-0.421721,6.639475,-4.097707,0.6088060000000001,1.060899,4.085337,1.074462
88,0.155565,-1.00837,2.174906,0.08261900000000001,0.8459639999999999,-0.5268010000000001,5.550135,1.221168,0.23332199999999997,-1.166924,1.119566,0.051947
89,0.17794100000000002,-0.916257,2.173109,0.107759,0.7933279999999999,-0.5991810000000001,3.945446,1.112509,1.090717,-0.9949049999999999,1.164344,-0.5321060000000001
90,0.21848299999999998,-0.8463120000000001,2.1972560000000003,0.14365,0.748842,-0.646994,2.815069,0.607106,1.652832,-0.340702,1.197478,-0.127771
91,0.22775700000000001,-0.808617,2.240823,0.15591,0.723333,-0.672668,0.592575,-1.9759380000000002,2.184342,-0.038997000000000004,1.1115059999999999,-0.018189
92,0.23083299999999998,-0.812951,2.307147,0.15725999999999998,0.7263189999999999,-0.669127,-1.3391959999999998,-2.069699,1.9989849999999998,0.141172,0.330276,0.151945
93,0.23965999999999998,-0.845902,2.368984,0.157392,0.7485689999999999,-0.6441060000000001,-2.522527,-1.417997,1.488889,-0.018598,-1.4426,0.126131
94,0.263764,-0.896192,2.41547,0.16284,0.780954,-0.6029869999999999,-2.71522,-0.111952,0.32150700000000004,-0.165892,-1.887735,0.416662
95,0.254382,-0.937659,2.413088,0.148894,0.806175,-0.5726359999999999,-1.541511,-0.820744,-1.130714,-0.340803,-1.447395,0.496479
96,0.202705,-0.966899,2.376506,0.11432,0.8231290000000001,-0.556228,-1.124292,-0.994017,-1.317721,-0.42346300000000003,-1.627099,0.795303
97,0.19206900000000002,-0.9992260000000001,2.360391,0.10326199999999999,0.841053,-0.5310060000000001,-1.791468,1.060467,-0.36575100000000005,-0.371085,-1.764621,0.963959
98,0.259375,-1.043962,2.372134,0.128956,0.864403,-0.48598100000000005,-2.435086,3.946008,-0.26819,-0.495304,-1.037896,0.843403
99,0.37361700000000003,-1.091071,2.3893020000000003,0.168454,0.887122,-0.429695,-2.235318,5.186376,-0.27158899999999997,-0.603772,-0.843009,0.469841
100,0.485854,-1.114595,2.41887,0.205717,0.897732,-0.38956,-0.572087,3.4575160000000005,0.395996,-0.52194,-0.5566979999999999,0.2056
101,0.548255,-1.0959969999999999,2.4283200000000003,0.238271,0.889385,-0.390156,1.157039,2.7853689999999998,0.750767,-0.073156,-0.22114099999999998,0.680806
102,0.659637,-1.0848659999999999,2.444603,0.286211,0.8842409999999999,-0.369055,-0.45323599999999997,5.904129,0.374463,-0.12109500000000001,-0.21599699999999997,0.659704
103,0.689674,-1.076622,2.405532,0.301794,0.88036,-0.36590500000000004,2.179768,0.440029,-1.031561,-0.9926959999999999,1.015483,-1.3301100000000001
104,0.628491,-1.1303370000000001,2.334514,0.250665,0.9045559999999999,-0.344885,-2.347832,1.1408610000000001,-1.6046040000000001,-0.48623,3.971085,0.400366
105,0.799774,-1.161107,2.452889,0.28567800000000004,0.9172450000000001,-0.27758,-2.817707,3.9824029999999997,1.349583,0.839627,0.729164,0.576469
106,1.010373,-1.2032459999999998,2.6132400000000002,0.304363,0.933211,-0.191,-4.152033,1.729645,-0.762316,1.079014,-0.658583,-0.17312
107,1.160331,-1.276516,2.772843,0.265959,0.9570110000000001,-0.11574100000000001,-3.7517669999999996,-0.319101,-2.383796,0.506472,-0.519648,0.058276
108,1.377893,-1.349572,2.998559,0.215354,0.9756299999999999,-0.042066,-4.001494999999999,0.195849,-2.804944,0.40142100000000003,0.164614,0.314862
109,1.798101,-1.411447,-2.852642,0.154594,0.987331,0.035758,-3.775662,-0.799078,-3.010394,0.198738,0.83344,-0.351554
110,2.403118,-1.414685,-2.227183,0.10466199999999999,0.9878389999999999,0.114976,-4.2968589999999995,-0.327746,-2.413252,0.01135,2.081298,-0.112321
111,2.85431,-1.377536,-1.773395,0.05442,0.981383,0.18418900000000002,-2.660308,0.588098,-2.4264959999999998,0.023476,0.457505,-0.7307279999999999
112,3.071866,-1.348117,-1.578834,0.015386000000000002,0.975309,0.220307,-1.539285,1.573874,-1.36773,0.149302,0.326998,-1.4429020000000001
113,-3.077386,-1.346116,-1.473977,-0.014294999999999999,0.974865,0.22233499999999998,0.788573,1.604012,-1.066293,0.056272,0.01128,-0.46362299999999995
114,-2.978108,-1.371022,-1.3965100000000001,-0.032299,0.9801110000000001,0.195802,1.3740809999999999,0.8395799999999999,-0.35192399999999996,0.535717,-0.571313,0.145949
115,-2.977362,-1.400226,-1.402859,-0.027752,0.9854879999999999,0.16746,1.573466,-0.042044,0.699592,0.793057,-1.250259,-0.191661
116,3.125889,-1.4431100000000001,-1.564282,0.002,0.991859,0.127324,2.41297,-1.513482,1.642036,0.789748,-0.9020610000000001,-0.598774
117,2.592723,-1.494134,-2.0514759999999996,0.039957,0.9970629999999999,0.065337,3.40709,-2.9880880000000003,1.6455279999999999,0.597815,-0.7094189999999999,-0.454513
118,1.370183,-1.496984,3.081917,0.072266,0.9972770000000001,-0.014695,3.959889,-4.128955,1.422252,0.387054,-0.724816,-0.180007
119,0.699713,-1.4253870000000002,2.49706,0.093314,0.989447,-0.11085,4.893917,-4.553814,1.365228,-0.15051900000000001,-0.280386,0.26942
120,0.417976,-1.31074,2.305629,0.104374,0.966375,-0.23499899999999999,6.567951,-4.8395470000000005,1.3057159999999999,0.029887999999999998,0.435465,-0.022386
121,0.220392,-1.153044,2.207473,0.088693,0.9140030000000001,-0.395893,8.157542,-5.422318,0.743931,0.876258,4.422682,0.085102
122,0.128875,-1.023339,2.2008080000000003,0.066896,0.853851,-0.516201,5.668952,-2.31432,0.889208,-0.688463,1.692536,1.0528680000000001
123,0.129141,-0.930025,2.204718,0.076988,0.801635,-0.5928359999999999,3.9846699999999995,0.294224,0.564316,-1.18824,0.543534,-0.47950600000000004
124,0.14082,-0.8618110000000001,2.211394,0.09137999999999999,0.759023,-0.64462,3.049999,0.08329600000000001,0.842205,-0.429896,0.8415790000000001,-0.5128510000000001
125,0.151942,-0.812858,2.237372,0.104048,0.726255,-0.679506,1.7507009999999998,-0.628622,1.513431,-0.35787800000000003,1.186663,-0.204024
126,0.164138,-0.8070689999999999,2.300982,0.11301099999999999,0.722263,-0.6823229999999999,-1.232241,-2.3612830000000002,2.364348,0.276133,0.6577109999999999,-0.08441599999999999
127,0.165735,-0.844563,2.368383,0.109554,0.747681,-0.6549590000000001,-2.651488,-1.7566259999999998,1.8355720000000002,0.063358,-1.243378,0.129248
128,0.197256,-0.899357,2.425936,0.121922,0.782927,-0.61005,-3.122435,-0.251026,0.821951,0.070828,-1.949675,-0.159573
129,0.20430399999999999,-0.957059,2.435429,0.116847,0.817501,-0.563949,-2.56061,-0.349609,-0.850038,-0.140483,-1.701153,-0.16481099999999999
130,0.165214,-0.9974780000000001,2.40559,0.089209,0.8401059999999999,-0.535037,-1.44302,-0.586414,-1.20726,-0.353705,-1.326937,0.569278
131,0.140463,-1.025547,2.377872,0.072609,0.8549979999999999,-0.513523,-1.278849,0.349549,-0.7137939999999999,-0.361458,-1.248522,0.768131
132,0.16362000000000002,-1.051972,2.375021,0.08077100000000001,0.868403,-0.489237,-1.221747,1.8306810000000002,-0.064746,-0.107275,-0.862605,0.678095
133,0.22117699999999998,-1.06597,2.3801189999999997,0.10610399999999999,0.875259,-0.47187299999999993,-0.330921,3.07476,0.002907,-0.187753,-0.597808,0.393016
134,0.29297199999999995,-1.0592780000000002,2.388639,0.141368,0.872002,-0.46864399999999995,0.553619,3.1483779999999997,0.53883,-0.26926700000000003,-0.47535,0.257218
135,0.38595,-1.041026,2.409347,0.190228,0.862923,-0.468163,0.558599,4.546964,0.830833,-0.320691,-0.42195900000000003,1.155785
136,0.491062,-1.035081,2.4242310000000002,0.24071199999999998,0.8599040000000001,-0.450137,0.34241,3.840372,0.032267000000000004,-0.8552290000000001,-0.402018,0.406039
137,0.508007,-1.0221069999999999,2.3787990000000003,0.253711,0.853209,-0.455704,1.049052,3.3591849999999996,-1.7226099999999998,-1.17557,1.8502060000000002,0.669281
138,0.48843400000000003,-1.055992,2.247735,0.231039,0.870389,-0.434792,-1.325619,5.066051,-2.932452,-0.362157,2.198123,0.247948
139,0.574117,-1.120059,2.2474439999999998,0.236587,0.900126,-0.365786,-3.6356919999999997,3.931279,-1.401417,1.210968,0.330999,-0.09625
140,0.7030649999999999,-1.211012,2.317611,0.227635,0.9359729999999999,-0.268583,-4.652568,2.5834099999999998,-1.777466,1.386943,-0.602416,0.021269
141,0.826262,-1.303403,2.4097310000000003,0.194307,0.964463,-0.179042,-4.10111,1.335985,-2.524043,1.394484,-0.636231,0.17063399999999998
142,0.978275,-1.406942,2.5563439999999997,0.13531600000000002,0.986606,-0.09109600000000001,-4.802517,0.057596,-3.2323310000000003,1.177612,0.469693,0.144533
143,1.6830669999999999,-1.484043,-2.988895,0.086099,0.996239,0.009706999999999999,-5.288628,-2.7490040000000002,-1.8477150000000002,1.2143469999999998,1.435447,-0.24335
144,2.677105,-1.442785,-1.953281,0.057188,0.991818,0.11413699999999999,-5.294005,-0.981093,-1.7314450000000001,0.5318470000000001,1.3245120000000001,0.128829
145,3.041621,-1.370562,-1.563307,0.019851,0.9800200000000001,0.197906,-3.424465,-0.8103020000000001,-2.106369,-0.470657,0.14437,-0.975524
146,-3.091611,-1.32595,-1.406441,-0.012111,0.970174,0.24210500000000001,-1.943725,0.116978,-1.382574,-0.7240949999999999,0.501948,-0.524667
147,-2.9926009999999996,-1.299985,-1.326465,-0.03971,0.9635540000000001,0.264549,-0.39323,1.450417,-1.057259,-0.530084,0.394997,-0.405479
148,-2.891867,-1.310499,-1.250282,-0.063605,0.9663129999999999,0.249385,1.081594,1.19769,-0.673824,-0.175027,0.064448,-0.196955
149,-2.841072,-1.3361450000000001,-1.220322,-0.068825,0.9725950000000001,0.222084,1.517549,0.822998,0.473767,0.48923500000000003,-1.200913,-0.134422
150,-2.90757,-1.3850280000000001,-1.297743,-0.042831,0.9827950000000001,0.17966700000000002,2.62628,0.46266999999999997,1.9742790000000001,0.525085,-1.456412,-0.47175100000000003
151,3.140285,-1.452081,-1.522777,0.000155,0.9929620000000001,0.11843699999999999,3.277318,-1.381472,1.9801220000000002,0.626402,-0.706417,-0.413191
152,2.456798,-1.514102,-2.168108,0.035841000000000005,0.998393,0.043889,4.010569,-2.302363,1.468336,0.352572,-0.597286,-0.133046
153,0.91855,-1.489611,2.633612,0.064449,0.996706,-0.049223,4.831508,-3.3482489999999996,1.502116,0.283375,-0.573458,0.242689
154,0.452557,-1.369989,2.250324,0.08721699999999999,0.9799059999999999,-0.17938099999999998,7.479978999999999,-5.07075,1.591189,0.14908,0.363417,0.182647
155,0.222181,-1.201352,2.136733,0.079571,0.932528,-0.352221,7.735991,-6.073997,1.309048,1.037922,4.519529,0.8709290000000001
156,0.141058,-1.0772059999999999,2.129377,0.066611,0.8806370000000001,-0.46908500000000003,5.376208,-1.323346,0.545131,-0.040457,2.029458,1.204375
157,0.138139,-0.9859120000000001,2.122379,0.076024,0.8337760000000001,-0.5468430000000001,4.093219,0.014672999999999999,0.583593,-1.4256030000000002,0.349512,-0.5563670000000001
158,0.159194,-0.917435,2.1427560000000003,0.096359,0.794045,-0.600173,2.841191,0.572358,1.265272,-0.826889,0.844886,-0.693101
159,0.197696,-0.877076,2.187562,0.125585,0.7688729999999999,-0.626947,0.989117,-0.271332,2.06847,-0.543447,1.23775,-0.091619
160,0.23709000000000002,-0.870419,2.2692349999999997,0.15137799999999998,0.764599,-0.626476,-1.0029430000000001,-1.465819,2.8070459999999997,-0.015743,0.897342,0.265301
161,0.265344,-0.88846,2.355154,0.165371,0.7761020000000001,-0.608538,-1.73825,-1.815939,2.024675,0.232456,-1.3438809999999999,0.260439
162,0.285333,-0.921003,2.405708,0.1703,0.7962090000000001,-0.580559,-1.963893,-0.638161,0.46198599999999995,0.030216000000000003,-1.966802,0.17669
163,0.281013,-0.9572579999999999,2.404093,0.159676,0.817616,-0.55318,-1.594991,-0.22992100000000001,-0.9812649999999999,-0.091515,-2.083622,0.24095500000000003
164,0.252144,-0.993992,2.379638,0.136054,0.83821,-0.528104,-1.617275,-0.326287,-1.1052110000000002,-0.620734,-1.5628799999999998,0.795331
165,0.24703699999999998,-1.032949,2.36591,0.125271,0.8588129999999999,-0.49673599999999996,-1.985699,1.032332,-0.618143,-0.496792,-1.553165,0.8679819999999999
166,0.30945900000000004,-1.075497,2.375075,0.14474800000000002,0.879826,-0.452718,-2.066291,3.621979,-0.27271599999999996,-0.488803,-1.220143,0.766454
167,0.413408,-1.108482,2.398415,0.179181,0.8950229999999999,-0.408447,-1.42336,4.122194,0.084715,-0.32926700000000003,-0.787906,0.23283299999999998
168,0.50255,-1.113065,2.418456,0.21285300000000001,0.897057,-0.387275,0.21790500000000002,3.318451,0.390971,-0.078988,-0.565606,0.11801800000000001
169,0.595091,-1.098168,2.428844,0.25519400000000003,0.890375,-0.376973,0.22803,5.325539,0.6213420000000001,-0.21184299999999998,-0.397043,1.350835
170,0.6976100000000001,-1.095436,2.4300450000000002,0.293995,0.889128,-0.35074099999999997,1.2391530000000002,2.928802,-0.287195,-1.013142,-0.045103,-0.9357280000000001
171,0.608282,-1.094226,2.332224,0.262148,0.888573,-0.376452,-0.56504,0.6286689999999999,-4.2610220000000005,-0.73369,2.597526,-1.124784
172,0.647001,-1.152317,2.31527,0.244959,0.913708,-0.324241,-2.521227,3.43039,0.347125,1.403814,1.159214,0.798485
173,0.874141,-1.1953690000000001,2.4761,0.281233,0.930351,-0.235276,-4.544928,3.6252730000000004,0.252623,1.1579,-0.953987,-0.145813
174,1.1035409999999999,-1.269496,2.692125,0.264952,0.954951,-0.13367300000000001,-4.802971,0.295292,-1.9358349999999998,1.0468620000000002,-1.2422440000000001,-0.322596
175,1.36084,-1.347832,2.9565599999999996,0.21626599999999999,0.975246,-0.046086,-4.576385,-0.06396900000000001,-2.864213,0.69386,0.046955000000000004,0.251454
176,1.8928180000000001,-1.406228,-2.770505,0.155405,0.986489,0.051849,-5.25772,-1.074063,-3.0193659999999998,0.573477,1.7563240000000002,-0.09558
177,2.491891,-1.3877549999999998,-2.142602,0.11011300000000002,0.983295,0.14493599999999998,-4.649881,-0.5902729999999999,-1.9881099999999998,0.266581,2.1280490000000003,-0.16661900000000002
178,2.844585,-1.3397729999999999,-1.7749720000000002,0.067011,0.973433,0.218948,-3.025157,-0.29940100000000003,-2.609522,-0.584803,0.545076,-0.883041
179,3.082922,-1.314462,-1.552039,0.014866999999999998,0.967326,0.2531,-1.368369,1.5360129999999999,-2.167671,-0.500935,0.185369,-1.358096
180,-3.041525,-1.3007739999999999,-1.422261,-0.026649000000000003,0.963765,0.265418,0.125524,2.070146,-1.440075,-0.007622,-0.024663,-0.316795
181,-2.9208220000000003,-1.316368,-1.343322,-0.055116,0.967807,0.245583,1.0288979999999999,1.9886810000000001,-0.500035,0.469071,-0.588535,-0.060738
182,-2.904912,-1.334759,-1.357847,-0.05483300000000001,0.9722719999999999,0.227332,0.8974799999999999,1.076533,1.01175,0.8980950000000001,-1.553205,-0.146552
183,-3.078602,-1.3717709999999999,-1.5293370000000002,-0.012445999999999999,0.98026,0.197322,2.259748,-0.716719,2.590645,1.177226,-1.213399,-0.938838
184,2.839337,-1.434962,-1.8720330000000003,0.040310000000000006,0.9907889999999999,0.129278,3.8636480000000004,-2.0901110000000003,2.329075,0.600437,-0.39031,-0.610494
185,2.027852,-1.477917,-2.622383,0.083225,0.99569,0.040929,4.409508,-3.800131,1.6535540000000002,0.22459,-0.40026100000000003,0.21936999999999998
186,1.039772,-1.439192,2.750146,0.11315399999999999,0.991353,-0.066454,5.584803,-4.481287,1.545132,-0.059579999999999994,0.295711,0.010317
187,0.484904,-1.313491,2.313355,0.11861700000000001,0.9670790000000001,-0.22514,8.013388,-7.252236,1.080673,0.832249,2.794762,0.09988
188,0.234773,-1.166495,2.202911,0.091508,0.919377,-0.382585,7.069367,-5.656153,0.493058,0.5424180000000001,3.254527,1.39612
189,0.168296,-1.0442120000000001,2.149254,0.08418400000000001,0.8645290000000001,-0.495482,5.802694,0.660993,-0.021676,-1.330308,1.021427,0.44433500000000004
190,0.172057,-0.944412,2.141202,0.100366,0.8101520000000001,-0.5775640000000001,4.4257480000000005,0.5584600000000001,0.970829,-1.248926,1.18411,-0.451748
191,0.21449899999999997,-0.8605700000000001,2.1603369999999997,0.138784,0.758214,-0.637063,3.90964,1.705095,1.5842559999999999,-0.434408,0.9620920000000001,-0.043952
192,0.23375100000000001,-0.78904,2.190675,0.163188,0.709677,-0.6853670000000001,2.505824,-1.82962,2.034042,-0.109523,1.159448,-0.130948
193,0.22479200000000002,-0.7668189999999999,2.2503130000000002,0.16051700000000002,0.6938479999999999,-0.7020029999999999,-0.354742,-2.4752709999999998,2.13987,0.20786,0.9467770000000001,0.14156300000000002
194,0.213889,-0.784858,2.307717,0.150173,0.706725,-0.691367,-1.897318,-2.22502,1.635256,0.124241,-0.975585,0.137793
195,0.224136,-0.834434,2.359531,0.14927200000000002,0.740916,-0.654798,-3.217209,-0.896357,0.849873,-0.13499,-2.052837,0.305464
196,0.230821,-0.894291,2.378361,0.143231,0.779766,-0.609467,-2.753584,-0.42722200000000005,-0.7188439999999999,-0.23716399999999999,-1.545253,0.391129
197,0.18021099999999998,-0.9427139999999999,2.347182,0.10531900000000001,0.809156,-0.578078,-1.7668580000000003,-1.572309,-1.593904,-0.524142,-1.481855,0.6355729999999999
198,0.136434,-0.974866,2.314588,0.07633999999999999,0.827627,-0.556063,-1.450912,-0.029842,-0.790371,-0.458649,-1.525121,0.936175
199,0.171679,-1.008708,2.314483,0.091049,0.846144,-0.52512,-1.779923,2.727503,-0.076221,-0.42366000000000004,-1.459898,0.96854
200,0.260569,-1.046229,2.323337,0.129031,0.865541,-0.483932,-1.896957,4.756917,-0.25696399999999997,-0.559573,-1.040406,0.934707
201,0.371431,-1.079763,2.343013,0.17114400000000002,0.8818459999999999,-0.439382,-1.518793,4.335255,0.167098,-0.6772779999999999,-0.8798469999999999,0.406698
202,0.461797,-1.083392,2.3641970000000003,0.20867,0.883552,-0.41927700000000007,0.581154,3.24773,0.44701,-0.13361199999999998,-0.392158,0.385998
203,0.533885,-1.047244,2.3465689999999997,0.25442,0.8660479999999999,-0.430384,2.10565,5.189488,0.5171279999999999,-0.336848,0.164973,0.898508
204,0.578548,-1.011205,2.31072,0.29026799999999997,0.8474719999999999,-0.44445,1.60275,2.7184459999999997,-0.21067800000000003,-0.656327,0.836076,-0.592965
205,0.57994,-1.0534569999999999,2.243478,0.271011,0.869138,-0.41370500000000004,-1.720539,3.2157419999999997,-2.607049,-0.635147,5.282244,-0.04943
206,0.64185,-1.1010799999999998,2.2446450000000002,0.270982,0.891697,-0.362555,-2.168768,2.736354,-1.151443,1.204223,0.278866,0.637854
207,0.7348600000000001,-1.171949,2.299089,0.260386,0.921509,-0.28813099999999997,-4.1999699999999995,1.626635,-1.5957709999999998,0.987661,-0.852173,-0.199647
208,0.8439559999999999,-1.263115,2.3982810000000003,0.22631300000000001,0.9530379999999999,-0.201247,-4.3977010000000005,0.6456850000000001,-2.264602,0.44569899999999996,-0.522878,0.555175
209,1.004877,-1.3606719999999999,2.559109,0.176063,0.9780049999999999,-0.11184000000000001,-4.754695,-0.151533,-2.9219619999999997,0.553261,0.151969,0.301827
210,1.430295,-1.4548780000000001,3.0207479999999998,0.11451900000000001,0.993289,-0.016197,-5.0439940000000005,-2.093569,-2.9279029999999997,0.918791,1.00488,-0.142571
211,2.388401,-1.454674,-2.281098,0.079246,0.993265,0.084522,-5.198652,0.094577,-1.215155,-0.011909000000000001,1.141119,-0.190189
212,2.893314,-1.399055,-1.780169,0.041996,0.985289,0.165658,-3.150035,0.354455,-2.178617,-0.432072,0.44789300000000004,-0.924767
213,3.131769,-1.361433,-1.5522200000000002,0.002042,0.9781629999999999,0.207827,-1.960836,1.044832,-1.631743,-0.5353060000000001,0.177705,-0.820666
214,-3.006052,-1.334331,-1.433067,-0.031656000000000004,0.9721719999999999,0.232119,-0.458714,1.7725009999999999,-1.357264,-0.13686199999999998,0.22988499999999998,-0.33450599999999997
215,-2.860728,-1.3425120000000001,-1.317748,-0.062729,0.9740559999999999,0.217439,1.0352,1.394406,-1.0739459999999998,0.40075700000000003,-0.468868,-0.024324000000000002
216,-2.753675,-1.36294,-1.236038,-0.078059,0.978476,0.19103,1.4346889999999999,1.316533,-0.062654,0.810542,-1.378103,-0.20030699999999999
217,-2.740716,-1.406203,-1.240958,-0.063939,0.9864850000000001,0.15086,2.37327,0.672096,1.5054,0.8223,-1.2302600000000001,-0.729306
218,-2.877462,-1.477514,-1.371812,-0.024318,0.9956520000000001,0.089916,3.3571449999999996,-1.156036,2.013474,0.529094,-0.634401,-0.397762
219,2.5083729999999997,-1.55229,-2.225632,0.010948999999999999,0.9998290000000001,0.014916,3.9780599999999997,-2.758824,1.362909,0.360694,-0.717404,-0.27401
220,0.413876,-1.491953,2.028596,0.031675,0.996893,-0.072112,4.503744999999999,-3.5988830000000003,1.0632139999999999,0.181109,-0.8013979999999999,0.323562
221,0.246927,-1.388375,1.934893,0.044341000000000005,0.9834069999999999,-0.17590799999999998,5.591221,-3.644708,1.19051,-0.183273,-0.131799,0.285879
222,0.130131,-1.238421,1.899303,0.042341000000000004,0.94527,-0.32353000000000004,8.916121,-4.533062999999999,0.6850350000000001,0.702944,1.732403,-0.5274369999999999
223,0.06362999999999999,-1.085126,1.928436,0.029682,0.8843620000000001,-0.46585699999999997,6.146153,-4.168079,1.588162,0.813427,5.164161,1.0208030000000001
224,0.065484,-0.979083,1.9554080000000003,0.0365,0.8299860000000001,-0.556588,4.76393,0.454348,0.873967,-1.006532,0.102234,0.026986000000000003
225,0.089154,-0.902465,1.9785380000000001,0.055174,0.7848569999999999,-0.617216,3.253462,0.099399,1.1704510000000001,-1.339567,0.620996,-0.748629
226,0.117574,-0.8484280000000001,2.017369,0.077557,0.750242,-0.6565989999999999,1.9382759999999999,-0.31337600000000004,1.639289,-0.492428,1.325106,-0.283983
227,0.15093499999999999,-0.831317,2.0846240000000003,0.10132999999999999,0.738819,-0.666242,-0.391017,-1.471547,2.91171,-0.003124,1.288799,-0.030673000000000002
228,0.16983399999999998,-0.855449,2.181019,0.110856,0.754865,-0.6464439999999999,-2.01479,-2.650585,2.6658020000000002,0.242248,0.004046,0.47846000000000005
229,0.192915,-0.888576,2.251325,0.12088299999999999,0.776174,-0.618822,-2.108032,-0.9670719999999999,1.588362,-0.007999,-1.895132,0.108949
230,0.215511,-0.924213,2.288557,0.12883499999999998,0.798147,-0.588526,-1.8535270000000001,0.11476099999999999,0.159472,-0.14854900000000001,-1.684698,0.263758
231,0.194155,-0.957192,2.274238,0.111097,0.817578,-0.564999,-1.425483,-0.950822,-1.1981549999999999,-0.5207649999999999,-1.5193450000000002,0.667569
232,0.145839,-0.991816,2.239955,0.079516,0.8370209999999999,-0.541362,-1.677081,-0.804423,-1.0943459999999998,-0.33873200000000003,-1.590546,0.913691
233,0.15171600000000002,-1.030106,2.230079,0.077793,0.8573540000000001,-0.508815,-1.9140599999999999,1.98479,-0.171291,-0.18353699999999998,-1.295296,1.057933
234,0.255164,-1.064139,2.250244,0.12248099999999999,0.8743719999999999,-0.469545,-1.664866,5.434605,0.298183,-0.32458400000000004,-1.058362,0.974031
235,0.405588,-1.088193,2.2888740000000003,0.18311,0.88579,-0.426436,-1.151799,5.529389,0.658431,-0.398487,-0.576387,0.124449
236,0.536493,-1.08331,2.336345,0.239414,0.8835129999999999,-0.402598,0.10054400000000001,3.970425,1.2866090000000001,-0.079319,-0.489684,0.513789
237,0.681222,-1.080314,2.393288,0.296641,0.882106,-0.36591399999999996,-1.387774,5.571525,0.981469,-0.346049,-0.6375689999999999,1.324349
238,0.7602760000000001,-1.077283,2.387848,0.326453,0.880674,-0.343281,2.458682,1.6498560000000002,-0.389214,-1.21282,-0.468366,0.088627
239,0.555339,-1.081479,2.2017029999999997,0.247811,0.882654,-0.399389,-0.18822,-0.358667,-6.490789,-1.5884790000000002,6.384069,-0.931529
240,0.687535,-1.155581,2.2196580000000004,0.25600300000000004,0.9150290000000001,-0.311743,-3.5384300000000004,6.303393,0.7091350000000001,1.261514,1.4365940000000001,0.694433
241,0.943836,-1.1949040000000002,2.391759,0.29728499999999997,0.9301799999999999,-0.21537399999999998,-4.047243,3.663266,0.179126,1.507738,-0.45604399999999995,0.17271
242,1.1048229999999999,-1.256745,2.546916,0.275979,0.95109,-0.138793,-3.420839,-0.590414,-2.216683,1.161917,-0.689081,-0.35859800000000003
243,1.223502,-1.340611,2.689524,0.214536,0.9736239999999999,-0.077655,-3.6950760000000002,-0.661027,-3.233319,0.935,-0.290641,0.05086
244,1.605261,-1.4194309999999999,3.08785,0.150699,0.988566,0.005196,-4.513762,-1.218516,-3.235119,0.923367,0.219243,0.122398
245,2.288743,-1.4417,-2.468516,0.09696,0.9916790000000001,0.084689,-4.302332,-1.664161,-2.5301810000000002,0.171533,1.6831720000000001,-0.00658
246,2.837679,-1.398109,-1.8880880000000002,0.051421,0.9851270000000001,0.163956,-3.662961,-1.159168,-2.564818,-0.074813,0.8863030000000001,-0.5186310000000001
247,3.117228,-1.3599379999999999,-1.5976059999999999,0.005099,0.977852,0.20923699999999998,-1.863491,0.199327,-2.061539,-0.28583000000000003,0.072243,-0.943261
248,-3.026806,-1.335126,-1.47536,-0.026743,0.972358,0.231958,-0.30096,1.4113040000000001,-1.209351,-0.688451,0.21875799999999998,-0.5319149999999999
249,-2.900977,-1.347802,-1.378736,-0.0527,0.97524,0.21478000000000003,1.1517110000000002,1.485559,-0.7923060000000001,-0.30441599999999996,0.137508,-0.08507999999999999
250,-2.8131470000000003,-1.371686,-1.318913,-0.063804,0.980243,0.187224,1.529348,1.462365,0.150397,0.539146,-1.071887,-0.025771
251,-2.832649,-1.417638,-1.354683,-0.046387,0.988294,0.14533800000000002,2.428107,0.347841,1.5617459999999999,0.706833,-1.58299,-0.535795
252,-3.069323,-1.484821,-1.579573,-0.0062,0.9963059999999999,0.085646,3.286581,-1.413634,2.0261310000000003,0.7384390000000001,-0.79045,-0.576643
253,1.870391,-1.53762,-2.8806,0.031692000000000005,0.99945,0.00979,4.055705000000001,-2.5205740000000003,1.6558389999999998,0.377823,-0.6608109999999999,-0.000482
254,0.6473,-1.4668290000000002,2.237028,0.062583,0.9946,-0.082787,4.775529,-3.219056,1.7461520000000001,0.019479,-0.242495,0.192604
255,0.41068699999999997,-1.342909,2.080366,0.090196,0.974146,-0.207134,7.158595,-4.92545,2.0331080000000004,0.470107,0.7429100000000001,-0.118626
256,0.23891199999999999,-1.168245,2.0323580000000003,0.09271,0.920064,-0.380639,7.873892999999999,-6.7577050000000005,2.473082,1.498797,6.0650889999999995,0.6025020000000001
257,0.165748,-1.035944,2.050853,0.084098,0.860344,-0.502729,5.804595,-2.027227,0.9089860000000001,-0.888526,0.839333,0.993207
258,0.1605,-0.935435,2.047313,0.094843,0.8048569999999999,-0.585841,4.440430999999999,-0.098356,0.8457110000000001,-1.7760259999999999,0.800016,-0.8215379999999999
259,0.168321,-0.862065,2.064526,0.10903900000000001,0.759188,-0.641672,3.102939,-0.260678,1.305526,-0.372757,1.1337409999999999,-0.546942
260,0.183921,-0.81001,2.102847,0.126099,0.724294,-0.677862,1.8019779999999999,-0.824692,2.020347,-0.22296100000000002,1.321727,0.195471
261,0.201079,-0.792844,2.176005,0.140172,0.7123520000000001,-0.687682,-0.698968,-2.210387,2.798343,0.172175,1.198567,0.23915
262,0.213682,-0.820212,2.245539,0.14463800000000002,0.73129,-0.666554,-2.293079,-1.503498,1.6315540000000002,0.09626699999999999,-1.374845,0.256123
263,0.23128800000000002,-0.870743,2.293031,0.14768399999999998,0.764808,-0.627103,-2.993364,-0.606925,0.47288800000000003,-0.038156,-1.869407,0.097196
264,0.224183,-0.924723,2.291053,0.13384300000000002,0.798454,-0.58699,-2.2024060000000003,-0.586742,-1.2617459999999998,-0.223259,-1.745842,0.117569
265,0.166748,-0.9621799999999999,2.249098,0.094894,0.82044,-0.5638029999999999,-1.344591,-1.34066,-1.5464129999999998,-0.655044,-1.6729180000000001,0.666723
266,0.132467,-0.9922110000000001,2.2246900000000003,0.072226,0.8372370000000001,-0.542049,-1.528997,0.107227,-0.367034,-0.409171,-1.508059,1.036251
267,0.189884,-1.022266,2.247086,0.09841799999999999,0.853292,-0.512062,-1.5003959999999998,2.987759,0.6656489999999999,-0.177428,-0.879476,0.792702
268,0.311096,-1.039377,2.293443,0.15512,0.862088,-0.482433,-0.861361,4.377113,1.118054,-0.183501,-0.574125,0.271816
269,0.43592700000000006,-1.030861,2.347639,0.21707100000000001,0.857742,-0.466003,0.356674,3.548714,1.563458,0.02295,-0.37117,0.13813699999999998
270,0.560071,-1.0124799999999998,2.402416,0.281432,0.8481479999999999,-0.448821,-0.480493,4.7536059999999996,1.739801,-0.240371,-0.579929,1.21646
271,0.695878,-1.00952,2.448316,0.341215,0.846576,-0.40851,0.415454,3.280901,0.5558109999999999,-1.078382,-0.519443,-0.010633
272,0.721874,-1.0030729999999999,2.429811,0.355317,0.8431270000000001,-0.403591,-0.355978,4.16899,-1.8809209999999998,-1.445878,2.501462,1.020397
273,0.813413,-1.1185049999999999,2.3816479999999998,0.31756,0.8994479999999999,-0.300248,-3.518478,5.42491,-3.9214230000000003,0.046911,3.02998,0.283204
274,0.920242,-1.176726,2.442856,0.305528,0.9233540000000001,-0.232531,-2.8561650000000003,2.204036,-0.900284,1.269698,0.5867020000000001,0.277254
275,1.051449,-1.238731,2.550807,0.283011,0.945371,-0.161796,-3.232259,0.801254,-1.951175,1.251687,-0.615324,-0.039162
276,1.1649770000000002,-1.3152,2.665854,0.23228800000000002,0.967513,-0.099807,-3.385036,0.008806999999999999,-3.178614,1.1705889999999999,-0.316802,0.430008
277,1.463174,-1.40447,2.97238,0.164602,0.9862,-0.017783,-4.72544,-0.40269099999999997,-3.272907,1.104975,0.493384,0.094886
278,2.138284,-1.43079,-2.593656,0.117676,0.990215,0.07501000000000001,-4.960223,-1.523388,-1.998722,0.230713,1.492741,-0.100233
279,2.713227,-1.388787,-1.9984439999999999,0.075187,0.983482,0.164652,-4.082267,-0.464157,-2.579333,-0.080955,1.2460870000000002,-0.03657
280,3.0211259999999998,-1.349716,-1.6896419999999999,0.026351999999999997,0.9756610000000001,0.21769499999999997,-1.9645009999999998,0.691014,-2.12164,-0.028779000000000002,0.11316,-0.895658
281,-3.099854,-1.318459,-1.5381,-0.010418,0.9683309999999999,0.24945100000000003,-1.386906,0.961208,-1.460995,-0.316715,0.270942,-0.7711640000000001
282,-2.992766,-1.315843,-1.451103,-0.037396,0.967675,0.24941300000000002,0.743801,1.066609,-0.8961129999999999,-0.11574100000000001,0.12046,-0.37146799999999996
283,-2.941602,-1.3338290000000002,-1.411117,-0.046637,0.9720540000000001,0.230077,0.954433,0.504714,0.10913900000000001,0.300772,-0.844109,-0.028691
284,-3.0108599999999996,-1.363936,-1.485794,-0.026775,0.9786809999999999,0.20363499999999998,1.6987240000000001,-0.14976099999999998,1.691872,0.5082810000000001,-1.593991,-0.31514699999999995
285,2.98805,-1.4178979999999999,-1.7656619999999998,0.023293,0.988334,0.15051099999999998,3.300793,-0.7035640000000001,2.664104,0.6079479999999999,-0.8498760000000001,-0.914824
286,2.342071,-1.464634,-2.3795479999999998,0.075978,0.9943700000000001,0.073862,3.980014,-2.420305,2.221326,0.21692899999999998,-0.47698999999999997,-0.42478299999999997
287,1.399475,-1.45397,3.0127580000000003,0.114854,0.9931840000000001,-0.019872,4.784169,-2.965519,1.739465,0.07434,-0.349034,0.168035
288,0.809716,-1.371765,2.4808060000000003,0.14316700000000002,0.980259,-0.13636800000000002,6.109198999999999,-3.502568,1.693861,-0.266489,0.136715,0.012925
289,0.45215200000000005,-1.228992,2.2051380000000003,0.14644400000000002,0.9421510000000001,-0.301505,8.428376,-5.249383,0.957066,0.586069,2.742953,-0.488184
290,0.275746,-1.082199,2.122401,0.127798,0.882992,-0.45165500000000003,6.900053,-3.9030410000000004,0.991667,0.525217,3.7547800000000002,1.187129
291,0.23479699999999998,-0.9652700000000001,2.0909020000000003,0.132421,0.822202,-0.5535770000000001,5.304094999999999,0.5883550000000001,0.46308599999999994,-0.8538709999999999,0.38845999999999997,0.422962
292,0.252011,-0.8745569999999999,2.080685,0.159919,0.767259,-0.621079,4.0980989999999995,1.454553,0.9427969999999999,-0.8935,0.9462879999999999,-0.6486350000000001
293,0.262461,-0.8023170000000001,2.092332,0.180334,0.718968,-0.671241,2.87719,-0.794878,1.626155,0.024652,1.119304,-0.407434
294,0.25654299999999997,-0.7610979999999999,2.1364240000000003,0.183727,0.689717,-0.700382,0.567922,-2.244271,2.1833810000000002,0.159687,1.281002,-0.024746
295,0.24068299999999998,-0.7742,2.1930970000000003,0.170427,0.699144,-0.694372,-1.8625049999999999,-3.177832,1.7221520000000001,0.025374,0.44972,-0.053202
296,0.24083400000000002,-0.809203,2.2556700000000003,0.16459200000000002,0.723737,-0.6701600000000001,-2.426582,-1.528623,1.638118,0.041356,-1.687482,0.390664
297,0.262442,-0.8580469999999999,2.3099060000000002,0.169652,0.756567,-0.631526,-2.92863,-0.45891400000000004,0.699615,-0.326009,-1.487127,0.22011799999999998
298,0.256142,-0.904905,2.3208,0.15650999999999998,0.786366,-0.5976060000000001,-1.908852,-1.268233,-0.787736,-0.620575,-1.394292,0.511714
299,0.210038,-0.936153,2.303195,0.123616,0.805283,-0.579861,-1.194076,-1.4488889999999999,-0.718418,-0.5585979999999999,-1.4606780000000001,0.900539
300,0.21001799999999998,-0.9608270000000001,2.3071479999999998,0.119425,0.819665,-0.5602560000000001,-1.2510290000000002,0.797496,0.199113,-0.30864899999999995,-1.175027,1.0467520000000001
301,0.281719,-0.981503,2.333977,0.15450899999999998,0.831334,-0.5338649999999999,-1.138442,3.427915,0.5704060000000001,-0.363005,-0.728245,0.809362
302,0.39753299999999997,-0.995441,2.36968,0.21065799999999998,0.8389989999999999,-0.5017010000000001,-0.811535,4.4973980000000005,0.833033,-0.533061,-0.659433,0.37300900000000003
303,0.509434,-0.976342,2.396598,0.27313000000000004,0.8284540000000001,-0.48894099999999996,1.550098,4.617278,1.306575,-0.41921800000000004,-0.081887,0.593143
304,0.578285,-0.907791,2.387412,0.336419,0.788146,-0.515411,3.297328,3.131467,1.3281610000000001,-0.607156,1.162599,0.00473
305,0.6516270000000001,-0.894913,2.383427,0.379406,0.780155,-0.497403,-0.029863999999999998,4.054564,-0.721611,-1.587078,1.8116880000000002,0.291348
306,0.692175,-0.928992,2.324643,0.38206100000000004,0.801017,-0.46087,-0.699516,4.807306,-2.434272,-0.988079,3.2228779999999997,0.05697000000000001
307,0.765767,-0.9873219999999999,2.3236830000000004,0.381842,0.8345540000000001,-0.397136,-2.849097,2.939124,-1.981148,0.529337,-0.251454,0.13053499999999998
308,0.871091,-1.066838,2.368951,0.36943000000000004,0.8756780000000001,-0.310981,-3.775132,3.558478,-2.08455,0.543747,-0.907874,0.515525
309,1.0133020000000001,-1.1473229999999999,2.455696,0.348708,0.911667,-0.21740700000000002,-4.002599,2.840991,-2.280704,0.669542,-0.851685,0.523895
310,1.151446,-1.243096,2.574275,0.293978,0.946785,-0.131053,-4.273257,0.252863,-3.765175,1.001112,1.059517,0.08822200000000001
311,1.390675,-1.335133,2.8364279999999997,0.22971,0.97236,-0.041829000000000005,-5.203867,-0.667312,-2.483289,1.586742,2.062186,-0.34315
312,1.881374,-1.3636629999999998,-2.948953,0.19581600000000002,0.978625,0.06285,-4.9875110000000005,0.684082,-2.0284470000000003,0.284913,0.54202,-0.306548
313,2.338142,-1.370422,-2.462453,0.143258,0.979992,0.138177,-3.4898620000000005,-1.8022779999999998,-2.791397,0.0026320000000000002,0.072147,-0.829003
314,2.636154,-1.354341,-2.1289130000000003,0.10398900000000001,0.976665,0.187914,-2.300224,-1.155858,-1.9090529999999999,0.218292,0.42776899999999995,-0.559863
315,2.825709,-1.32585,-1.933183,0.075335,0.97015,0.23050500000000002,-1.9584,0.7292489999999999,-1.2991270000000001,-0.7027,0.335025,-0.661169
316,2.955863,-1.321199,-1.82277,0.045614,0.9690120000000001,0.242765,0.097177,0.9997020000000001,-1.1847020000000001,-0.27306199999999997,-0.06093099999999999,0.09094400000000001
317,3.027809,-1.333687,-1.7618919999999998,0.02667,0.9720209999999999,0.233375,0.733884,0.6677529999999999,-0.510054,0.209948,-0.851248,-0.053657
318,3.0005450000000002,-1.363694,-1.804197,0.028907,0.9786309999999999,0.203583,2.122027,0.592607,0.82647,0.521798,-1.5817649999999999,-0.574433
319,2.741876,-1.412728,-2.062277,0.06125800000000001,0.987533,0.145002,3.3587029999999998,-0.9763940000000001,1.846589,0.555808,-0.717712,-0.645826
320,2.1665259999999997,-1.4504920000000001,-2.6027880000000003,0.09934,0.992772,0.067341,3.9691730000000005,-2.4016490000000004,1.563191,0.281763,-0.583638,-0.306477
321,1.382808,-1.4410129999999999,2.944529,0.127139,0.99159,-0.024186000000000003,4.485035,-2.8038950000000002,1.275685,0.120404,-0.610517,-0.006789
322,0.8521920000000001,-1.366529,2.475719,0.15269000000000002,0.97921,-0.133543,5.600807,-3.7823510000000002,1.7729099999999998,-0.37878,-0.087791,0.156782
323,0.5151180000000001,-1.233891,2.221351,0.16285,0.943782,-0.287672,8.37353,-4.947302,1.119723,0.362678,1.2228290000000002,-0.272295
324,0.32953000000000005,-1.085876,2.112196,0.150841,0.884712,-0.441057,6.563847,-3.486189,1.20135,0.065238,4.207741,0.737581
325,0.26909299999999997,-0.973118,2.078234,0.149604,0.826644,-0.542474,5.125962,-0.631554,0.659946,-0.517021,1.034791,0.514123
326,0.26416100000000003,-0.886048,2.066862,0.16514,0.774578,-0.610539,3.927597,0.597409,0.990764,-0.806818,0.45087,-0.48029700000000003
327,0.279221,-0.8086840000000001,2.073682,0.19029300000000002,0.723379,-0.66371,3.454367,0.186114,1.424888,-0.16523800000000002,1.0115450000000001,-0.306612
328,0.281518,-0.751664,2.110906,0.202958,0.682855,-0.701795,1.478899,-2.13605,2.568813,0.060439,1.2452299999999998,-0.017397
329,0.26777199999999995,-0.7463350000000001,2.177794,0.194252,0.678952,-0.708018,-1.376875,-3.346655,2.2278130000000003,0.215919,0.784533,0.22109499999999999
330,0.256156,-0.782468,2.239707,0.179679,0.705032,-0.686036,-2.844954,-2.02799,1.407225,-0.060798000000000005,-1.431137,0.267243
331,0.273936,-0.8448450000000001,2.289415,0.179586,0.747868,-0.639095,-3.636507,-0.21852800000000003,0.340769,-0.369192,-1.842854,-0.013935
332,0.274361,-0.907422,2.296347,0.16683399999999998,0.7879189999999999,-0.5927479999999999,-2.577787,-0.68279,-1.157433,-0.531382,-1.434479,0.385046
333,0.234776,-0.945577,2.267753,0.13615,0.8108350000000001,-0.5692189999999999,-1.0932549999999999,-0.65886,-1.235757,-0.42158100000000004,-1.3266120000000001,0.6081439999999999
334,0.22678299999999998,-0.9649,2.24898,0.128049,0.8219920000000001,-0.554917,-0.7980470000000001,1.083683,-0.365327,-0.414609,-1.31064,0.777878
335,0.280244,-0.98105,2.256652,0.153826,0.831082,-0.534454,-0.851485,3.14243,0.054678,-0.310839,-0.9963350000000001,0.8201290000000001
336,0.372523,-0.9959030000000001,2.269854,0.197905,0.839251,-0.506451,-0.7632359999999999,4.4070849999999995,0.20108800000000002,-0.51953,-0.8623370000000001,0.555874
337,0.47629,-1.00048,2.2919970000000003,0.24753499999999998,0.84173,-0.479808,-0.148615,4.097671,0.588201,-0.50492,-0.712839,0.38466999999999996
338,0.5808,-0.9917950000000001,2.3006580000000003,0.300238,0.837009,-0.457463,0.344386,5.414112,0.221421,-0.661582,-0.238331,1.048375
339,0.6038899999999999,-0.965255,2.2531220000000003,0.32322399999999996,0.8221940000000001,-0.468534,3.264618,1.106668,-0.311341,-0.935147,0.099147,-0.217822
340,0.589792,-0.9683809999999999,2.159713,0.315155,0.8239690000000001,-0.470905,-0.32316300000000003,5.263033,-4.302695,-0.638199,0.950109,-0.738064
341,0.679148,-1.029773,2.136202,0.323495,0.857182,-0.40073600000000004,-2.336057,4.468987,-1.1260270000000001,1.204001,0.885051,0.623972
342,0.814224,-1.087821,2.204886,0.337721,0.885617,-0.318791,-4.00715,3.347289,-0.7527699999999999,1.009539,-0.724209,-0.014156
343,0.967951,-1.157497,2.324718,0.330836,0.915801,-0.227721,-3.981808,1.7824220000000002,-1.312473,0.926,-0.9287709999999999,0.203399
344,1.103847,-1.230534,2.436495,0.298007,0.942667,-0.15023499999999998,-3.628802,1.333958,-2.68637,0.85095,-0.5991770000000001,0.29057
345,1.275832,-1.32619,2.615171,0.23171599999999998,0.970233,-0.07040199999999999,-4.483140000000001,-0.793871,-3.6905349999999997,1.132786,1.0718969999999999,-0.145129
346,1.648889,-1.395302,3.029712,0.17406300000000002,0.98464,0.013621000000000001,-4.876785,-1.5924399999999999,-2.116634,0.834635,1.704965,0.2936
347,2.2245619999999997,-1.395281,-2.653652,0.13860999999999998,0.9846370000000001,0.106198,-4.458401,-0.785589,-2.0559939999999997,-0.137771,0.238279,-0.6860930000000001
348,2.61923,-1.377362,-2.238546,0.09591000000000001,0.98135,0.166595,-2.381081,-0.328223,-2.082662,-0.232033,0.057469000000000006,-1.050003
349,2.840032,-1.34885,-2.020527,0.065381,0.9754709999999999,0.210196,-2.099432,0.731685,-1.2520440000000002,-0.5262720000000001,0.350533,-0.718359
350,2.985793,-1.336087,-1.8933259999999998,0.036086,0.972582,0.22974299999999998,-0.240594,1.2557969999999998,-1.2643010000000001,-0.16555699999999998,-0.016588,-0.193305
351,3.083312,-1.346438,-1.8094130000000002,0.012959,0.974937,0.22210300000000002,0.66518,0.5677760000000001,-0.7550279999999999,0.099392,-0.381858,-0.0014759999999999999
352,3.096329,-1.3693799999999998,-1.8058040000000002,0.009052,0.979784,0.199852,1.462104,0.229287,0.350173,0.616161,-1.411974,-0.28312
353,2.932604,-1.40852,-1.963237,0.03352,0.9868620000000001,0.15805,2.5567889999999998,-0.863024,1.631471,0.739261,-0.980743,-0.66188
354,2.4695970000000003,-1.452374,-2.3922779999999997,0.073551,0.9929959999999999,0.092458,3.52735,-2.500912,1.729012,0.42582299999999995,-0.551651,-0.46465100000000004
355,1.660119,-1.464775,-3.140835,0.105401,0.9943850000000001,0.00944,4.0566949999999995,-3.648158,1.256684,0.155021,-0.572113,0.170705
356,0.9541790000000001,-1.4174959999999999,2.515788,0.12458,0.9882719999999999,-0.088304,4.751474,-4.448969,1.1183530000000002,-0.079932,-0.23722,0.397889
357,0.528682,-1.310808,2.189324,0.129665,0.9663930000000001,-0.22197199999999997,7.314645,-5.974002,0.91709,0.134663,0.656257,-0.029813
358,0.25490100000000004,-1.158796,2.041081,0.100972,0.9163209999999999,-0.387504,7.145989999999999,-6.46558,0.9186780000000001,0.73875,4.864486,0.755134
359,0.16914400000000002,-1.035308,2.020035,0.085897,0.8600190000000001,-0.50298,5.666816000000001,-1.058832,0.484811,-0.8963209999999999,1.052181,1.044361
360,0.17129,-0.9424969999999999,2.014383,0.100188,0.809028,-0.579168,3.9086019999999997,0.6888029999999999,0.7971659999999999,-1.540083,0.699074,-0.281565
361,0.211659,-0.8761639999999999,2.0263880000000003,0.134474,0.768289,-0.625819,2.941402,2.085242,1.1368610000000001,-0.46722299999999994,0.998359,-0.052846000000000004
362,0.265834,-0.822378,2.0566419999999996,0.17877200000000001,0.732766,-0.656578,1.836689,0.8757309999999999,1.9329290000000001,-0.342773,1.193793,0.121544
363,0.302079,-0.8006949999999999,2.124345,0.20712600000000003,0.7178399999999999,-0.664684,-0.609254,-1.1034629999999999,2.698183,0.387876,0.869028,0.107052
364,0.333381,-0.823779,2.194947,0.222344,0.733719,-0.642044,-2.385486,-0.8718309999999999,1.45916,0.333396,-0.772308,-0.073334
365,0.359297,-0.8699,2.245613,0.226758,0.764264,-0.603722,-2.740118,-0.5025149999999999,0.25338099999999997,0.083682,-1.680005,-0.029960000000000004
366,0.35536599999999996,-0.915782,2.242614,0.21195100000000003,0.793039,-0.571109,-1.669036,-0.028769,-1.396556,0.22339699999999998,-1.7099849999999999,0.039402
367,0.309384,-0.948916,2.200597,0.177375,0.8127840000000001,-0.554905,-0.900175,-0.725553,-1.7727169999999999,-0.400992,-1.387141,0.67075
368,0.273007,-0.9746670000000001,2.162352,0.151381,0.827515,-0.540651,-1.073477,0.344968,-1.070272,-0.5695479999999999,-1.341782,0.9127059999999999
369,0.30757199999999996,-1.005056,2.1607380000000003,0.16228399999999998,0.844192,-0.510885,-1.59925,2.614746,-0.26820900000000003,-0.460013,-1.154067,0.827887
370,0.38506599999999996,-1.036374,2.167975,0.19132000000000002,0.860563,-0.47204700000000005,-1.425075,3.970754,-0.396917,-0.455541,-1.002348,0.692628
371,0.46899799999999997,-1.0554139999999999,2.175288,0.22277199999999997,0.8701040000000001,-0.439648,-0.550154,3.6147940000000003,-0.050655,-0.30042399999999997,-0.50017,0.250546
372,0.532365,-1.044953,2.164957,0.254772,0.864901,-0.432478,1.323925,4.067085,0.035563,-0.362087,-0.30452199999999996,0.6110359999999999
373,0.594906,-1.010355,2.124767,0.29790300000000003,0.8470209999999999,-0.44023900000000005,2.286436,4.510365,-0.030920999999999997,-0.467397,-0.12618,0.977714
374,0.58741,-0.975592,2.077515,0.310732,0.828034,-0.466696,1.316552,0.362637,-0.36887,-1.186037,4.026229,-0.068628
375,0.616202,-1.012535,2.030107,0.306142,0.8481770000000001,-0.432287,-2.218057,5.415865,-1.987413,0.815425,1.597318,1.215201
376,0.72407,-1.053892,2.055904,0.327372,0.869353,-0.370207,-2.034456,3.252609,-0.36393400000000004,1.236791,-0.599562,0.086409
377,0.8302219999999999,-1.104926,2.139149,0.331546,0.893431,-0.303081,-3.791097,0.7287140000000001,-0.641093,0.9542200000000001,-0.856764,0.10405999999999999
378,0.918063,-1.178358,2.229556,0.303823,0.9239790000000001,-0.23228000000000001,-3.729767,0.513034,-2.166878,0.318706,-0.347426,0.35546500000000003
379,1.01185,-1.273809,2.3257849999999998,0.24810500000000002,0.9562229999999999,-0.155185,-4.327393,-0.362708,-3.4902519999999995,0.641727,0.9487760000000001,-0.088193
380,1.19807,-1.375381,2.531902,0.180842,0.980967,-0.07071000000000001,-4.431112000000001,-0.768482,-2.8922529999999997,0.761831,2.009374,-0.30340500000000004
381,1.750839,-1.427812,3.096802,0.14019500000000001,0.9897950000000001,0.025516999999999998,-5.0097879999999995,-0.061282,-2.089625,0.04523,0.45383900000000005,-0.323583
382,2.451778,-1.43266,-2.4759349999999998,0.08763,0.990474,0.106215,-3.34176,-0.101876,-2.707104,0.117372,0.085011,-1.072401
383,2.851305,-1.407286,-2.082576,0.046593,0.986662,0.155972,-2.3779060000000003,0.833217,-1.624802,-0.09175900000000001,0.245073,-0.922802
384,3.0526400000000002,-1.376241,-1.898298,0.017175,0.9811340000000001,0.19256600000000001,-0.9872690000000001,1.1047879999999999,-1.2137850000000001,-0.197518,-0.038781,-0.14773599999999998
385,-3.09512,-1.384044,-1.774464,-0.008625,0.982612,0.185468,0.8656659999999999,0.2052,-1.098209,-0.037426,-0.268379,0.11493099999999999
386,-3.03048,-1.405933,-1.7063279999999998,-0.018198,0.986441,0.163105,1.299312,-0.074259,-0.054373000000000005,0.44359799999999994,-1.4041649999999999,-0.511357
387,-3.095795,-1.443462,-1.777532,-0.005814,0.9919040000000001,0.126857,2.157368,0.146255,1.064425,0.445679,-1.255576,-0.6301220000000001
388,2.7903860000000003,-1.494726,-2.16208,0.026144999999999998,0.997108,0.071358,3.098619,-1.318929,1.6871049999999999,0.48307100000000003,-0.984138,-0.534691
389,1.572272,-1.511441,2.943984,0.059321000000000006,0.998239,8.8e-05,3.720365,-2.5282970000000002,1.484694,0.170874,-0.49301999999999996,0.224217
390,0.790619,-1.44792,2.216757,0.087119,0.99246,-0.086214,4.350095,-2.987212,1.683029,-0.12091700000000001,-0.302473,0.024508000000000002
391,0.5451729999999999,-1.342598,2.035674,0.11731099999999998,0.974076,-0.193429,5.720468,-3.6466910000000006,2.111121,0.159468,0.202759,-0.10706199999999999
392,0.362093,-1.197028,1.934175,0.12934,0.930958,-0.34145,7.7550539999999994,-4.7982260000000005,1.672814,0.921213,3.4361379999999997,-0.11547400000000001
393,0.27872399999999997,-1.062117,1.9294900000000001,0.133995,0.8733879999999999,-0.468229,5.738126,-2.760725,1.915693,-0.46273000000000003,2.2122900000000003,0.996519
394,0.266775,-0.959743,1.9304419999999998,0.151248,0.819044,-0.5534359999999999,4.4333,0.064421,1.174431,-0.846225,0.611086,-0.595444
395,0.27453,-0.8825709999999999,1.9377080000000002,0.17219,0.772375,-0.611382,3.3063,0.136975,1.323494,-0.30935100000000004,0.904322,-0.632011
396,0.288621,-0.822816,1.962837,0.19359400000000002,0.733064,-0.652026,2.123899,-0.556772,1.878009,0.030573000000000003,1.282149,-0.209378
397,0.301006,-0.790671,2.01939,0.208535,0.710825,-0.671744,0.16175699999999998,-2.010098,2.585079,0.26814899999999997,0.598943,0.020865
398,0.304383,-0.799868,2.09463,0.208835,0.717264,-0.664771,-1.837895,-2.845752,2.041276,0.012081999999999999,-1.035089,0.115744
399,0.304139,-0.837189,2.155062,0.200512,0.742764,-0.638824,-2.757161,-1.488289,1.165719,-0.23071,-1.675656,-0.219269
400,0.320657,-0.893069,2.1970240000000003,0.197632,0.778999,-0.595064,-3.12182,-0.328241,-0.105226,-0.403473,-1.5539020000000001,-0.090147
401,0.305012,-0.948401,2.199785,0.175073,0.812484,-0.556075,-2.2998830000000003,-1.460569,-1.097889,-0.5350729999999999,-1.318008,0.843001
402,0.25211999999999996,-0.9881030000000001,2.174657,0.13727,0.834983,-0.532879,-1.4245809999999999,-1.449411,-1.183656,-0.429354,-1.306373,1.1387129999999999
403,0.23119299999999998,-1.017403,2.160739,0.12043,0.8507459999999999,-0.5115930000000001,-1.358638,0.250531,-0.38314000000000004,-0.17881,-1.053657,0.992764
404,0.269011,-1.0447950000000001,2.170064,0.133442,0.864822,-0.484022,-1.392926,2.215795,-0.045135,-0.164417,-0.890792,0.595167
405,0.335834,-1.071134,2.176596,0.1579,0.8777450000000001,-0.452363,-1.181291,3.3701879999999997,-0.40299,-0.35292199999999996,-0.5772229999999999,0.337327
406,0.40162600000000004,-1.08887,2.17528,0.18118399999999998,0.8861040000000001,-0.42660600000000004,-0.575876,3.238237,-0.164651,-0.5101640000000001,-0.421534,0.5135350000000001
407,0.48021800000000003,-1.0914270000000001,2.179607,0.213071,0.887286,-0.409053,0.060045,4.322108999999999,-0.038752999999999996,-0.923429,-0.122027,0.802501
408,0.503343,-1.069231,2.129971,0.23191599999999998,0.8768309999999999,-0.42116800000000004,3.166019,1.540245,-0.49205600000000005,-0.9692209999999999,0.279541,-0.365255
409,0.42065600000000003,-1.055472,2.004035,0.201247,0.870133,-0.449854,-0.6214850000000001,4.208443,-3.7842809999999996,-0.612639,1.9215689999999999,0.48952700000000005
410,0.602093,-1.109017,2.046655,0.252341,0.8952610000000001,-0.367195,-3.392837,7.025672,0.849131,1.4336790000000001,0.5310090000000001,0.9794229999999999
411,0.827227,-1.1536959999999998,2.182974,0.298185,0.914267,-0.274228,-3.930629,4.119287,0.328874,1.332262,-0.375129,-0.140552
412,0.9982989999999999,-1.213651,2.3316220000000003,0.293858,0.9368989999999999,-0.18939,-3.7463300000000004,0.43239700000000003,-1.168102,1.039562,-0.790079,0.10931199999999999
413,1.116179,-1.278548,2.462018,0.258843,0.957599,-0.12651300000000001,-3.483453,-0.31519400000000003,-2.25169,0.842979,0.010312,0.467653
414,1.328023,-1.360258,2.688371,0.20285799999999998,0.9779190000000001,-0.050239,-4.341753,-0.757456,-3.061489,0.5613779999999999,1.0842610000000001,0.022392
415,1.751457,-1.414491,-3.119537,0.153136,0.987809,0.027971,-4.367383,-2.5735810000000003,-2.017824,0.227479,1.215774,0.08769099999999999
416,2.329348,-1.4067120000000002,-2.514239,0.11856400000000002,0.986568,0.112363,-4.163368,-0.127434,-1.997111,-0.421008,0.200245,-0.83067
417,2.723013,-1.38883,-2.126173,0.073555,0.98349,0.16534100000000002,-1.807895,0.739084,-2.0202240000000002,-0.41701499999999997,0.038208,-0.877972
418,2.928776,-1.3667120000000001,-1.9303830000000002,0.042807,0.979247,0.198098,-1.295559,0.9012319999999999,-1.190049,-0.5210020000000001,0.400514,-0.599114
419,3.056364,-1.371572,-1.8289369999999998,0.016847,0.9802200000000001,0.197191,0.80024,1.478841,-0.9336639999999999,0.228133,-0.337368,0.030425
420,3.132924,-1.396361,-1.7737900000000002,0.001504,0.984825,0.173545,1.35905,0.8936790000000001,-0.272054,0.327811,-0.7077859999999999,0.11094000000000001
421,3.080934,-1.4271719999999999,-1.8303029999999998,0.008676999999999999,0.9897040000000001,0.142868,1.7277069999999999,-0.006894,0.842626,0.6405390000000001,-1.420612,-0.41204799999999997
422,2.758697,-1.467449,-2.152154,0.038543,0.994664,0.095693,2.7972900000000003,-0.443405,1.715916,0.48053100000000004,-0.795141,-0.5107470000000001
423,1.9505689999999998,-1.491459,-2.935346,0.073607,0.9968540000000001,0.02938,3.4687410000000005,-1.935455,1.566558,0.29370300000000005,-0.679655,-0.416389
424,1.084991,-1.45884,2.530337,0.09879600000000001,0.9937389999999999,-0.052166,4.10215,-2.883078,1.166272,0.098347,-0.5827439999999999,0.29925100000000004
425,0.662871,-1.381276,2.169475,0.11593099999999999,0.982095,-0.148493,4.829066,-3.397415,1.287377,0.181784,0.30951599999999996,-0.068182
426,0.41700200000000004,-1.262745,1.9975900000000002,0.122803,0.952926,-0.27721999999999997,7.313528,-4.468068,1.0112729999999999,0.8357690000000001,1.82515,-0.504885
427,0.23686100000000002,-1.119661,1.9224740000000002,0.102306,0.8999530000000001,-0.42381499999999994,6.066391,-5.327751,1.560207,0.565144,4.3693800000000005,1.16736
428,0.196999,-1.010564,1.92583,0.104006,0.847132,-0.521105,4.921133,0.004502,0.818984,-0.9476190000000001,-0.174082,0.26552
429,0.214929,-0.927739,1.920925,0.127891,0.800266,-0.5858479999999999,3.558878,1.026443,0.848751,-1.245903,0.661556,-0.7542399999999999
430,0.23907199999999998,-0.870549,1.93755,0.152597,0.764683,-0.6260789999999999,2.173869,0.280441,1.327142,-0.22406900000000002,0.858151,-0.43195
431,0.274359,-0.8380139999999999,1.983273,0.18123599999999998,0.743316,-0.643922,0.5365840000000001,0.047231999999999996,2.190878,-0.343803,1.040238,0.162965
432,0.329022,-0.831823,2.0736220000000003,0.217629,0.73916,-0.637401,-1.258816,-0.926825,3.311901,0.087013,0.548849,0.266231
433,0.37799,-0.84286,2.169077,0.24554299999999998,0.746549,-0.618364,-1.597926,-0.9917219999999999,2.254212,0.042802999999999994,-0.74336,0.221208
434,0.41511899999999996,-0.862124,2.22567,0.262477,0.7592270000000001,-0.59555,-1.646798,-0.0067870000000000005,0.811577,-0.147213,-1.655864,-0.012482
435,0.42649899999999996,-0.892076,2.2410069999999997,0.259711,0.7783760000000001,-0.5715600000000001,-1.5157209999999999,-0.311368,-0.653786,-0.385184,-1.451838,0.189083
436,0.392611,-0.9285680000000001,2.221957,0.229172,0.800763,-0.553407,-1.36368,-1.054114,-1.521304,-0.19961500000000001,-1.269986,0.792161
437,0.35570100000000004,-0.964363,2.190615,0.19848,0.821686,-0.534263,-1.388967,-0.100227,-1.349651,-0.397409,-1.2383879999999998,0.82032
438,0.369256,-0.998647,2.180463,0.195417,0.8407389999999999,-0.504945,-1.5498610000000002,1.882987,-0.595947,-0.43058599999999997,-1.082088,0.63849
439,0.43886499999999995,-1.028841,2.191545,0.219175,0.8567020000000001,-0.46693100000000004,-1.388677,3.497865,-0.183489,-0.40055599999999997,-0.717008,0.429547
440,0.530849,-1.046593,2.213261,0.253398,0.8657229999999999,-0.43163999999999997,-0.785758,3.6954620000000005,0.22853,-0.469051,-0.634155,0.46641499999999997
441,0.614831,-1.044808,2.214442,0.289603,0.864828,-0.410125,0.768601,4.230653,-0.15867699999999998,-0.8679879999999999,-0.24552,0.862914
442,0.563628,-0.9990969999999999,2.142763,0.289066,0.840983,-0.457372,3.6373699999999998,-2.016212,0.040282,-1.312656,3.580633,-0.47283500000000006
443,0.534226,-1.0215450000000001,2.063391,0.265814,0.852916,-0.449308,-1.7569400000000002,6.7572339999999995,-4.027291,-1.421317,5.473393,0.8424809999999999
444,0.650982,-1.0740120000000002,2.043844,0.28880500000000003,0.8791200000000001,-0.379131,-2.051733,4.349977,-0.646411,1.3926530000000001,0.8919219999999999,0.516216
445,0.775419,-1.128269,2.131087,0.299764,0.9036719999999999,-0.305807,-4.009437,1.912504,-0.251038,0.9867809999999999,-1.250276,0.36281399999999997
446,0.927884,-1.186718,2.262336,0.299896,0.9271440000000001,-0.224646,-3.7163800000000005,1.35628,-0.733251,0.754929,-0.8458610000000001,0.135932
447,1.086482,-1.260256,2.408328,0.270431,0.952169,-0.142275,-4.382391,0.590809,-2.400144,0.8473370000000001,0.301478,0.391818
448,1.325676,-1.345849,2.678354,0.216387,0.974806,-0.054129,-4.949216000000001,-1.9635340000000001,-2.754411,0.78964,1.554201,0.014075
449,1.690834,-1.393253,3.086671,0.175341,0.984281,0.021149,-4.219362,-1.107408,-1.435429,0.5375489999999999,1.688922,-0.143449
450,2.198057,-1.386239,-2.674946,0.148578,0.9830180000000001,0.107708,-4.08484,-0.24043499999999998,-1.7774310000000002,-0.600345,0.170822,-0.807797
451,2.5581139999999998,-1.3788340000000001,-2.303458,0.105109,0.981632,0.15922,-1.911841,0.0018629999999999999,-2.1823740000000003,-0.128196,0.218533,-0.590861
452,2.782234,-1.361902,-2.086698,0.07293,0.978261,0.194131,-1.569078,0.841356,-1.163041,-0.16056099999999998,0.219279,-0.266702
453,2.8946959999999997,-1.35764,-1.994561,0.051701,0.977368,0.205131,0.137221,1.130806,-0.7017720000000001,0.061702,-0.5018279999999999,-0.089988
454,2.9221310000000003,-1.371564,-1.97784,0.043087,0.9802190000000001,0.19317,0.8549040000000001,0.277746,-0.049391000000000004,0.243702,-1.094065,-0.27622399999999997
455,2.8330450000000003,-1.395096,-2.067593,0.053082000000000004,0.984604,0.166543,1.6858279999999999,-0.29759,0.849116,0.48619399999999996,-1.246033,-0.5621430000000001
456,2.5281439999999997,-1.425732,-2.361335,0.08322,0.989497,0.118199,2.848049,-1.025191,1.709539,0.447191,-0.774165,-0.550847
457,1.9545259999999998,-1.441921,-2.9025220000000003,0.119173,0.991707,0.048115,3.560621,-2.406523,1.542166,0.163023,-0.629555,-0.173756
458,1.314945,-1.420815,2.794058,0.144556,0.9887739999999999,-0.037813,4.186491999999999,-3.124053,1.150079,0.049444999999999996,-0.369847,0.320391
459,0.855439,-1.355767,2.396148,0.16106800000000002,0.9769700000000001,-0.13995,5.035303,-3.6311449999999996,1.218615,-0.064801,0.157032,0.045392
460,0.519405,-1.24053,2.1447540000000003,0.160968,0.9459559999999999,-0.281525,7.769176,-5.476132,0.69635,1.203503,3.495893,-0.394332
461,0.301578,-1.102367,2.0416950000000003,0.134104,0.892278,-0.431109,6.232548,-5.501513,1.44836,-0.11121500000000001,2.601969,1.181643
462,0.244219,-0.993182,2.0179,0.132029,0.8377680000000001,-0.529824,4.885093,0.19878800000000002,0.48413,-0.8803200000000001,0.520234,0.760049
463,0.24367800000000003,-0.914588,2.002964,0.147205,0.792311,-0.592093,3.361671,0.458804,0.716711,-1.011997,0.864885,-0.578577
464,0.260662,-0.8537870000000001,2.01127,0.16935699999999998,0.753775,-0.634935,2.686734,0.6324380000000001,1.036513,-0.322967,1.015467,0.114381
465,0.283615,-0.810392,2.039343,0.19286199999999998,0.724558,-0.66168,1.196346,-0.17748599999999998,1.873172,-0.06244500000000001,0.9660549999999999,0.266432
466,0.320616,-0.799183,2.110144,0.21975300000000003,0.716787,-0.661759,-1.07507,-0.83314,2.63688,0.201573,0.17547100000000002,0.216569
467,0.36254400000000003,-0.820881,2.183871,0.24172399999999997,0.731747,-0.637273,-2.213908,-0.23833000000000001,1.6635509999999998,-0.069177,-1.478924,-0.023387
468,0.409168,-0.864951,2.241454,0.25807399999999997,0.761063,-0.5951310000000001,-2.910367,0.238852,0.420005,-0.018496000000000002,-1.7485970000000002,-0.098687
469,0.42699899999999996,-0.9149149999999999,2.2558849999999997,0.252567,0.792511,-0.5551,-2.072834,0.132395,-1.120794,-0.302433,-1.3913879999999998,0.11088599999999998
470,0.39352600000000004,-0.955108,2.229058,0.22144899999999998,0.816376,-0.533377,-1.246818,-0.777196,-1.6084450000000001,-0.47891000000000006,-1.257157,0.774588
471,0.35492199999999996,-0.985775,2.19545,0.191905,0.8337,-0.517799,-1.099675,-0.21237899999999998,-1.258832,-0.48228000000000004,-1.246634,0.781471
472,0.357133,-1.01417,2.180976,0.184697,0.849042,-0.49499,-1.229695,1.327278,-0.697692,-0.411336,-1.154065,0.756266
473,0.401645,-1.041711,2.176968,0.197321,0.8632690000000001,-0.46457600000000004,-1.2413020000000001,2.927834,-0.549205,-0.43435100000000004,-0.797168,0.41104799999999997
474,0.467575,-1.0624120000000001,2.181054,0.21939699999999998,0.873532,-0.43451899999999993,-0.745242,3.054563,-0.170957,-0.364325,-0.60275,0.411203
475,0.532229,-1.063674,2.1785069999999997,0.24645300000000003,0.8741459999999999,-0.41848599999999997,0.443637,3.900297,-0.11246099999999999,-0.40894400000000003,-0.462692,0.684264
476,0.575569,-1.0461049999999998,2.144618,0.272671,0.8654790000000001,-0.420234,1.7605080000000002,2.52787,-0.366423,-0.511196,2.384048,-1.473076
477,0.52856,-1.0141149999999999,2.074653,0.266453,0.8490129999999999,-0.45626700000000003,0.7149270000000001,1.874168,-2.2155720000000003,-1.525303,6.502961,0.47109799999999996
478,0.628775,-1.0611469999999998,2.0571490000000003,0.28694400000000003,0.872916,-0.394565,-2.167809,5.899203,-0.091603,1.072706,1.0341129999999998,0.9651069999999999
479,0.7840020000000001,-1.088859,2.134223,0.327284,0.8860979999999999,-0.32819899999999996,-2.7595259999999997,3.6578449999999996,0.425224,1.117265,-0.80866,-0.026751
480,0.9333629999999999,-1.1426049999999999,2.249457,0.333687,0.909718,-0.24711599999999997,-3.7543230000000003,1.486162,-0.945198,0.856773,-1.160649,0.053894000000000004
481,1.038043,-1.2085350000000001,2.349583,0.30527600000000005,0.935098,-0.179997,-3.4106589999999994,0.296757,-2.167592,0.510444,-0.65751,0.381261
482,1.168169,-1.293517,2.489111,0.25185,0.9618040000000001,-0.107261,-4.223435,-0.524648,-3.040681,0.538296,0.45126700000000003,0.363807
483,1.4412719999999999,-1.3714899999999999,2.802946,0.196331,0.9802040000000001,-0.025573,-4.483862,-2.233086,-2.349171,0.44107399999999997,1.414617,-0.178315
484,1.911014,-1.393129,-2.976716,0.166604,0.984259,0.058975,-4.645556,0.000874,-1.164233,-0.403344,0.422907,-0.765411
485,2.367682,-1.383273,-2.533328,0.1303,0.982469,0.133329,-2.693129,1.062733,-2.0011919999999996,-0.460271,0.065138,-0.722699
486,2.61997,-1.368158,-2.2924029999999997,0.10028200000000001,0.9795389999999999,0.17449,-1.777925,0.825451,-0.9999809999999999,-0.426088,0.281432,-0.309118
487,2.736357,-1.363268,-2.1962599999999997,0.081229,0.978543,0.189355,0.097736,1.3865290000000001,-0.681018,0.106103,-0.3354,-0.162987
488,2.771153,-1.3860860000000002,-2.190626,0.06649,0.9829889999999999,0.171204,1.41282,1.440079,-0.294819,0.296013,-1.04758,-0.405533
489,2.684739,-1.416767,-2.298283,0.067678,0.9881610000000001,0.13768699999999998,1.995514,0.615633,0.511474,0.435175,-1.073625,-0.41063599999999995
490,2.380801,-1.4431180000000001,-2.604075,0.087795,0.9918600000000001,0.092225,2.528249,-0.391918,1.3304719999999999,0.479329,-0.867699,-0.433625
491,1.8176700000000001,-1.449922,3.130642,0.116925,0.9927040000000001,0.029467,3.3615800000000005,-1.312063,1.3438809999999999,0.253299,-0.724774,-0.24055700000000002
492,1.2268370000000002,-1.4214440000000002,2.57428,0.14008199999999998,0.9888680000000001,-0.050177,3.980989,-2.3572580000000003,1.1134700000000002,0.18699000000000002,-0.673255,0.191199
493,0.8272290000000001,-1.353345,2.228047,0.158799,0.9764510000000001,-0.146039,4.782518,-3.210157,1.387217,-0.001679,0.054174,0.076322
494,0.547377,-1.240524,2.0220599999999997,0.168782,0.9459540000000001,-0.276918,7.233963,-4.788538,1.303814,1.313609,2.933273,-0.637953
495,0.336481,-1.0929440000000001,1.9257990000000003,0.151835,0.887985,-0.434084,6.349798000000001,-6.025606,2.139914,1.4342700000000002,5.611954,0.60541
496,0.27260700000000004,-0.98226,1.918563,0.14946800000000002,0.8317540000000001,-0.534644,4.870783,-0.7484850000000001,0.8238629999999999,-1.357751,0.11935699999999999,-0.243585
497,0.270904,-0.9037299999999999,1.9049369999999999,0.16556099999999999,0.78564,-0.59612,3.275744,0.45328500000000005,0.840023,-1.163349,0.781239,-0.819484
498,0.286172,-0.849873,1.9217970000000002,0.186328,0.751197,-0.633234,1.993902,-0.018673,1.427742,-0.366809,1.0522850000000001,-0.32906199999999997
499,0.314223,-0.820434,1.967152,0.210761,0.731442,-0.648516,0.28276399999999996,-0.362181,2.23342,-0.216331,0.9494670000000001,0.259218
500,0.36504699999999995,-0.813844,2.056184,0.24515,0.7269329999999999,-0.64146,-1.271874,-0.808277,3.249694,0.18469000000000002,0.065639,0.34312
501,0.41495600000000005,-0.823426,2.1442650000000003,0.27402600000000005,0.733479,-0.622028,-1.5925639999999999,-0.584611,1.9418,0.053564999999999995,-1.3525280000000002,0.10484600000000001
502,0.440622,-0.846138,2.184152,0.28271999999999997,0.748726,-0.5995659999999999,-1.5715940000000002,-0.14048,0.083739,-0.071813,-1.5309059999999999,0.132174
503,0.43144099999999996,-0.8799629999999999,2.178348,0.26645599999999997,0.7707149999999999,-0.5787909999999999,-1.408044,-0.497699,-1.300144,-0.385612,-1.3255709999999998,0.41063900000000003
504,0.392487,-0.9202110000000001,2.1483689999999998,0.231654,0.79573,-0.559599,-1.502041,-0.749038,-1.7672919999999999,-0.42354899999999995,-1.317611,0.749082
505,0.360863,-0.9611569999999999,2.1166840000000002,0.202165,0.8198540000000001,-0.535694,-1.6031389999999999,0.131957,-1.416614,-0.393312,-1.117569,0.7587619999999999
506,0.37698400000000004,-0.996769,2.10298,0.19989500000000002,0.8397209999999999,-0.504887,-1.446269,2.212481,-0.764432,-0.46355100000000005,-0.8536520000000001,0.552906
507,0.44897200000000004,-1.024152,2.10741,0.225624,0.854274,-0.46830600000000006,-1.189236,3.8905339999999997,-0.249904,-0.45377399999999996,-0.749552,0.40772800000000003
508,0.543033,-1.038346,2.127224,0.262318,0.8615659999999999,-0.434619,-0.709734,3.644632,0.355169,-0.43935100000000005,-0.5449609999999999,0.280154
509,0.644442,-1.044748,2.165137,0.30165,0.864798,-0.401412,-1.015252,3.5733080000000004,0.607363,-0.6540060000000001,-0.6839970000000001,1.01976
510,0.731486,-1.050804,2.178587,0.331899,0.867823,-0.369765,0.91485,3.1367700000000003,-0.321835,-0.944082,-0.627451,1.0543200000000001
511,0.654521,-1.009431,2.100657,0.324079,0.8465290000000001,-0.422328,2.2365909999999998,-0.690052,-0.314108,-0.970609,2.9702740000000003,0.28667800000000004
512,0.723325,-1.074748,2.064002,0.315025,0.8794700000000001,-0.35678000000000004,-3.5636589999999995,7.152479,-3.5319510000000003,0.8526229999999999,3.678727,0.826018
513,0.8788219999999999,-1.1089,2.132757,0.343142,0.895209,-0.284348,-2.301096,3.800476,1.122588,1.910398,0.721414,0.856675
514,1.054524,-1.139156,2.280597,0.363834,0.9082809999999999,-0.206521,-3.8199589999999994,1.16496,0.04927,0.779736,-1.161332,-0.206504
515,1.185108,-1.184871,2.415885,0.348765,0.92645,-0.14160699999999998,-3.2599669999999996,0.038023,-1.530616,0.5369010000000001,-0.568311,0.086355
516,1.32682,-1.251567,2.559894,0.304541,0.949477,-0.075811,-3.543546,0.5509,-2.735003,0.49321899999999996,0.13527,0.44073999999999997
517,1.566651,-1.317238,2.822048,0.250848,0.968026,-0.0010400000000000001,-4.260211,-1.638362,-2.616495,0.127799,0.7757029999999999,0.0014060000000000001
518,1.894522,-1.349294,-3.084196,0.208283,0.975569,0.069885,-4.243276,-1.3806120000000002,-2.087944,0.133132,1.3847530000000001,-0.007812
519,2.295232,-1.347907,-2.68092,0.16553800000000002,0.9752629999999999,0.146492,-3.1310689999999997,1.106017,-2.321575,-0.271327,0.505084,-0.6372140000000001
520,2.56934,-1.3506719999999999,-2.429765,0.118243,0.9758700000000001,0.183564,-1.265263,1.2925870000000002,-1.845173,-0.505175,0.357122,-0.812226
521,2.735759,-1.350033,-2.28437,0.086448,0.9757299999999999,0.201189,-0.262791,1.383393,-1.181331,-0.099189,0.149697,-0.35638600000000004
522,2.823093,-1.3664129999999999,-2.228679,0.063556,0.9791860000000001,0.19275599999999998,0.884561,1.580555,-0.599934,0.260266,-0.589919,-0.100104
523,2.815464,-1.38794,-2.2587599999999997,0.058258000000000004,0.9833280000000001,0.172255,1.266234,0.737312,0.286164,0.43684399999999995,-1.212561,-0.30255
524,2.6499479999999997,-1.411464,-2.42698,0.07489900000000001,0.987333,0.13986700000000002,1.889411,-0.497717,1.1701780000000002,0.57276,-1.255644,-0.528813
525,2.264378,-1.43369,-2.795033,0.1051,0.9906159999999999,0.087377,2.9764369999999998,-1.432627,1.4588430000000001,0.537967,-1.067978,-0.5588890000000001
526,1.6576369999999998,-1.436482,2.922167,0.133406,0.990993,0.011614,3.8036230000000004,-2.838352,1.165184,0.185427,-0.6927449999999999,-0.046145
527,1.079589,-1.397733,2.408741,0.15184,0.9850620000000001,-0.081225,4.441361,-3.7561190000000004,1.020195,0.088288,-0.258225,0.382403
528,0.672049,-1.312835,2.08193,0.158829,0.9669120000000001,-0.19963599999999998,6.219189,-5.015505,0.8686530000000001,0.205947,0.518256,-0.030802999999999997
529,0.354231,-1.1788239999999999,1.890318,0.132508,0.924157,-0.358294,6.762656,-7.640631,1.001863,0.29811,4.021705,1.3822510000000001
530,0.233616,-1.0664870000000002,1.86658,0.11185999999999999,0.875508,-0.470077,5.134296,-2.179203,0.343625,-1.5452860000000002,0.06322799999999999,0.230514
531,0.21241500000000002,-0.9771629999999999,1.828198,0.11792899999999999,0.8289139999999999,-0.546804,4.138255,1.046445,0.143459,-1.6461419999999998,0.572515,-0.481867
532,0.22543600000000003,-0.911392,1.8279,0.136946,0.790357,-0.597144,2.716455,0.558994,0.997276,-0.366713,0.824099,-0.32676
533,0.262655,-0.861346,1.854553,0.16913699999999998,0.75872,-0.629076,1.9327439999999998,0.9241379999999999,1.736953,-0.237039,0.892342,0.036791000000000004
534,0.312701,-0.8285379999999999,1.91352,0.20794400000000002,0.7369439999999999,-0.643174,0.156627,-0.729692,2.872868,0.061572,0.878656,0.135682
535,0.36909699999999995,-0.824471,2.008025,0.24494499999999997,0.734189,-0.633221,-1.225739,-0.669431,2.854589,0.29311,-0.54318,0.296871
536,0.397537,-0.833824,2.072016,0.260183,0.740507,-0.619641,-1.3398370000000002,-0.882898,1.194049,0.164393,-1.6727580000000002,0.256314
537,0.398347,-0.8637020000000001,2.1007700000000002,0.251987,0.760253,-0.5987640000000001,-1.888623,-0.9891690000000001,-0.257089,0.027142000000000003,-1.615478,0.44759499999999997
538,0.381171,-0.9053059999999999,2.095259,0.229694,0.786614,-0.5731310000000001,-1.817504,-0.658299,-1.275032,-0.40275900000000003,-1.268899,0.450664
539,0.344086,-0.946644,2.0675779999999997,0.197143,0.811459,-0.550154,-1.49274,-0.658091,-1.608185,-0.39659,-1.165325,0.7034739999999999
540,0.315004,-0.98324,2.033347,0.171742,0.832298,-0.527053,-1.439026,0.397424,-1.345312,-0.424092,-1.1245040000000002,0.693237
541,0.325873,-1.017121,2.016838,0.16833299999999998,0.850598,-0.498144,-1.478105,1.7917450000000001,-0.748099,-0.496962,-1.027066,0.639731
542,0.37667,-1.0481120000000002,2.015367,0.183621,0.866482,-0.464211,-1.349481,2.9182900000000003,-0.46449700000000005,-0.45328999999999997,-0.8613860000000001,0.500618
543,0.43751899999999994,-1.060495,2.0189310000000003,0.20694899999999997,0.872597,-0.442432,0.05925,2.827114,0.06888899999999999,-0.467951,-0.21854400000000002,0.6026189999999999
544,0.476131,-1.025863,2.001758,0.23758800000000002,0.8551620000000001,-0.46070600000000006,2.926603,2.179533,0.48605699999999996,-0.5687800000000001,0.697603,-0.5310239999999999
545,0.45014399999999993,-0.957218,1.966768,0.250526,0.817593,-0.518439,2.555177,-0.11836600000000001,0.8325110000000001,-0.988273,3.069019,-0.19047
546,0.519491,-0.972842,1.9573330000000002,0.279472,0.8264889999999999,-0.488683,-2.241792,5.639818,-1.225177,1.373834,2.834537,1.03388
547,0.625356,-1.017501,1.9715479999999999,0.307616,0.8507979999999999,-0.426046,-1.848227,3.431707,-0.553028,1.281525,-0.712599,0.148535
548,0.704915,-1.06444,2.04172,0.314261,0.874517,-0.369404,-3.659097,-0.15197,-0.026974,0.655953,-1.0921379999999998,0.363667
549,0.779093,-1.1285180000000001,2.129873,0.300727,0.9037790000000001,-0.304543,-3.6443790000000003,-0.032976,-1.29073,0.246209,-0.738969,0.021478
550,0.847412,-1.217364,2.2070689999999997,0.259441,0.93819,-0.22910500000000003,-4.502623000000001,-0.548508,-2.425175,0.620412,0.126568,0.39153499999999997
551,0.959455,-1.313654,2.362557,0.20825500000000002,0.9671209999999999,-0.14597000000000002,-4.681849,-2.342221,-2.322647,0.738293,1.502163,0.27418899999999996
552,1.1359350000000001,-1.3792209999999998,2.576334,0.172684,0.981706,-0.080215,-3.720582,-1.0755379999999999,-1.044235,0.161774,0.943893,-0.032548
553,1.571444,-1.416825,3.023434,0.153364,0.9881700000000001,9.9e-05,-3.8092269999999995,-0.165516,-1.302394,-0.66792,0.00533,-0.38140100000000005
554,1.9399369999999998,-1.43841,-2.87743,0.123108,0.99125,0.047626999999999996,-1.8784459999999998,-0.35390900000000003,-1.417921,-0.677719,0.34073600000000004,-0.374288
555,2.210027,-1.442269,-2.614852,0.10286600000000001,0.9917520000000001,0.07646499999999999,-1.0012940000000001,0.7389939999999999,-0.829945,-0.357978,0.461236,-0.269962
556,2.310384,-1.4577,-2.5340580000000004,0.083372,0.993611,0.076063,0.810392,1.134702,-0.9246200000000001,-0.20069700000000001,-0.005345,-0.147627
557,2.208668,-1.488389,-2.66043,0.06612799999999999,0.996606,0.049017000000000005,1.621329,1.204235,-0.634897,0.14307,-1.235849,-0.11978699999999999
558,1.8339159999999999,-1.5071860000000001,-3.051596,0.06138,0.997978,0.016534,1.7825900000000001,0.54665,0.10094,0.25514899999999996,-1.267478,-0.07733999999999999
559,1.193832,-1.489025,2.58423,0.075945,0.996659,-0.030066000000000002,2.797609,0.094277,0.992029,0.360319,-1.165039,-0.205407
560,0.762941,-1.435259,2.162394,0.093377,0.9908290000000001,-0.09766799999999999,3.57606,-1.130603,0.803552,0.262092,-0.661331,0.408047
561,0.508649,-1.364649,1.948737,0.09968400000000001,0.978827,-0.178777,4.124933,-2.665627,0.585026,0.285509,-0.44266300000000003,0.431539
562,0.34693,-1.2733139999999998,1.852632,0.099662,0.9560770000000001,-0.27565100000000003,5.0739220000000005,-4.079778,0.959867,0.22031399999999998,-0.187507,0.202485
563,0.21116300000000002,-1.1476790000000001,1.802707,0.086062,0.9118129999999999,-0.401484,7.130511,-4.461786,0.669211,0.784651,4.642172,-0.017324000000000003
564,0.15558699999999998,-1.020879,1.8268849999999999,0.080985,0.852567,-0.516304,5.086801,-2.490371,2.541025,-0.580436,3.784502,0.9369129999999999
565,0.175576,-0.928007,1.8522610000000002,0.104706,0.800427,-0.5902149999999999,4.107044,0.739062,0.8497299999999999,-1.121643,0.036258,-0.063136
566,0.186351,-0.857625,1.849575,0.12121300000000002,0.7562909999999999,-0.642908,3.1071419999999996,0.569279,0.486178,-0.8602270000000001,0.6534840000000001,-0.628362
567,0.208456,-0.808942,1.8650490000000002,0.14285,0.723557,-0.675321,1.797079,0.49475699999999995,1.342382,0.193194,0.890166,-0.217013
568,0.256343,-0.779094,1.9160259999999998,0.18041,0.702635,-0.6883,0.529142,0.377268,2.517266,0.154978,1.004656,0.057959000000000004
569,0.292833,-0.771883,1.989839,0.206857,0.6974859999999999,-0.6860930000000001,-0.778488,-1.067597,2.406359,0.44048100000000007,-0.612617,0.5495270000000001
570,0.29684499999999997,-0.7833220000000001,2.028336,0.207261,0.705637,-0.677583,-1.16735,-1.347683,0.328447,0.111449,-1.1811770000000001,0.26661799999999997
571,0.273144,-0.820224,2.034595,0.18399200000000002,0.731299,-0.656772,-2.148124,-1.322702,-0.538355,-0.18466300000000002,-1.533987,0.257098
572,0.25554699999999997,-0.867974,2.028079,0.16338699999999998,0.763021,-0.625383,-2.187192,-0.201376,-0.9342379999999999,-0.156917,-1.1416680000000001,0.24189899999999998
573,0.24050700000000003,-0.911487,2.009452,0.145912,0.790416,-0.594939,-1.8730240000000002,-0.12997899999999998,-1.21201,-0.34362,-1.1332959999999999,0.36897199999999997
574,0.21229699999999999,-0.9524879999999999,1.986902,0.122137,0.81486,-0.5666439999999999,-1.8274380000000001,-0.6743640000000001,-0.9781209999999999,-0.20542,-1.1593879999999999,0.828607
575,0.18814,-0.987258,1.9637759999999997,0.103051,0.834518,-0.541258,-1.3229520000000001,0.158322,-1.058986,-0.10230299999999999,-0.877991,0.844434
576,0.181571,-1.00262,1.9400669999999998,0.09716699999999999,0.842884,-0.52925,-0.132624,0.9357530000000001,-0.438508,-0.047164,-0.71558,0.75061
577,0.216888,-0.98519,1.941904,0.11893699999999999,0.833377,-0.539756,1.4163780000000001,2.382563,0.5735180000000001,-0.252788,0.371915,0.441825
578,0.23027399999999998,-0.9461700000000001,1.930593,0.133476,0.811182,-0.569358,3.038707,-1.19994,-0.303593,-0.312187,1.2765870000000001,-1.298226
579,0.1399,-0.901576,1.885591,0.086508,0.7843060000000001,-0.614313,0.777928,-1.429384,-1.968425,-0.750311,3.3377800000000004,-0.155935
580,0.146394,-0.9190290000000001,1.8315720000000002,0.08848500000000001,0.795013,-0.600104,-1.4182540000000001,2.9155349999999998,-1.31208,0.9802719999999999,0.38104299999999997,1.5726069999999999
581,0.13768,-0.948569,1.807539,0.079993,0.8125819999999999,-0.577331,-1.926062,0.354406,-0.554976,0.738611,-1.101431,0.238479
582,0.15623299999999998,-1.011485,1.81192,0.082561,0.847621,-0.5241399999999999,-3.5794019999999995,0.5631010000000001,-0.428991,0.843404,-1.053996,-0.164718
583,0.165598,-1.098869,1.808505,0.074938,0.8906940000000001,-0.44838500000000003,-4.786865,0.644757,-0.887252,0.873091,0.107673,0.072988
584,0.15421300000000002,-1.208944,1.805318,0.054376,0.935243,-0.349806,-5.5678160000000005,-1.6816119999999999,-1.323424,1.242758,1.507415,0.070937
585,0.023968,-1.303112,1.7173180000000001,0.006339,0.9643860000000001,-0.264423,-3.8548400000000003,-1.6201649999999999,-1.3916540000000002,0.377496,1.4797209999999998,0.109348
586,-0.057089999999999995,-1.3781780000000001,1.6583459999999999,-0.010923,0.981506,-0.191118,-3.841225,-1.39741,-0.6334069999999999,-0.150912,0.213608,-0.21243099999999998
587,-0.295145,-1.433417,1.453901,-0.039835,0.9905780000000001,-0.131026,-2.1842650000000003,-1.819114,-1.306022,-0.231771,0.195304,-0.164949
588,-0.571515,-1.444201,1.197194,-0.06829299999999999,0.9919979999999999,-0.10619200000000001,-0.838534,-0.517893,-1.270516,-0.169133,0.07476000000000001,-0.325738
589,-0.745797,-1.429716,1.025823,-0.095414,0.990065,-0.10328699999999999,0.39296,-0.160314,-1.450379,-0.061507000000000006,-0.395246,0.074463
590,-0.790549,-1.3926690000000002,0.9853299999999999,-0.125933,0.9841770000000001,-0.124643,1.480685,-0.30353,-1.476781,0.14664000000000002,-0.8711549999999999,0.325006
591,-0.7508020000000001,-1.349324,1.0314860000000001,-0.149862,0.975575,-0.160608,2.048343,-0.26171700000000003,-0.9708049999999999,0.094808,-1.052311,-0.08512
592,-0.679188,-1.3079530000000001,1.1122670000000001,-0.163214,0.9656549999999999,-0.202167,2.288337,-0.423545,-0.403832,0.31352800000000003,-0.9643120000000001,0.199711
593,-0.5848300000000001,-1.264939,1.2243389999999998,-0.166231,0.9535889999999999,-0.25106799999999996,2.9294599999999997,-0.7819020000000001,0.21106,0.600893,-0.831442,0.260513
594,-0.48976400000000003,-1.211509,1.35575,-0.165402,0.936148,-0.310273,3.673139,-2.04202,0.605634,0.889172,-0.633368,0.6482859999999999
595,-0.420353,-1.140666,1.486202,-0.170166,0.908911,-0.380688,4.674442,-2.650393,0.8281200000000001,0.652512,-0.073996,0.303601
596,-0.351944,-1.050416,1.6325530000000001,-0.1714,0.8676299999999999,-0.46673400000000004,5.941057,-3.3615239999999997,1.741595,1.131117,1.405106,-0.630709
597,-0.300035,-0.953991,1.801445,-0.170958,0.8157300000000001,-0.552592,5.469145,-4.75378,3.997236,1.683043,4.601323000000001,-0.261389
598,-0.233908,-0.883808,1.956003,-0.146998,0.773159,-0.616941,4.269597,-1.9751459999999998,2.809184,-0.780782,0.201343,0.743406
599,-0.19176500000000002,-0.8180850000000001,2.043297,-0.13029200000000002,0.729838,-0.671089,3.4135730000000004,-1.0184799999999998,1.94206,-0.816577,1.1079,-0.24387399999999998
600,-0.16484300000000002,-0.7780199999999999,2.11184,-0.116888,0.701871,-0.702649,1.762186,-1.155623,2.238348,-0.20083099999999998,1.142795,-0.30344
601,-0.13513599999999998,-0.767358,2.195366,-0.096968,0.694236,-0.713186,0.5757979999999999,-1.606027,3.213403,0.40131999999999995,0.862618,0.061925
602,-0.108501,-0.7788930000000001,2.286973,-0.077068,0.702492,-0.7075060000000001,-0.585065,-1.8820700000000001,3.188556,0.26171500000000003,0.21968800000000002,0.255373
603,-0.09417,-0.8043779999999999,2.3515,-0.065216,0.7204,-0.6904859999999999,-1.280371,-1.449378,1.880983,-0.076339,-0.550325,0.26500999999999997
604,-0.099847,-0.838558,2.388173,-0.06664099999999999,0.74368,-0.6652060000000001,-1.754763,-1.772173,1.231808,0.027014,-1.031308,0.341964
605,-0.10996700000000001,-0.880336,2.410759,-0.069896,0.770953,-0.633045,-2.119711,-1.033056,0.795682,0.013546,-1.116473,0.43016499999999996
606,-0.113595,-0.926113,2.420746,-0.068118,0.79929,-0.597072,-2.29515,-0.327843,0.41540299999999997,-0.226377,-1.046757,0.267253
607,-0.12456300000000001,-0.970606,2.417183,-0.070172,0.8252280000000001,-0.560424,-2.086431,-0.557141,0.034731,-0.131321,-0.910601,0.421706
608,-0.146285,-1.002625,2.406305,-0.078434,0.842886,-0.5323439999999999,-1.300722,-0.614614,-0.12635,-0.044643,-0.7870550000000001,0.6528579999999999
609,-0.16101500000000002,-1.011388,2.401265,-0.08507999999999999,0.847569,-0.523821,0.201126,-0.306178,0.026887,0.065457,-0.610264,1.126482
610,-0.14163199999999998,-0.978736,2.427464,-0.078777,0.829793,-0.552484,2.597946,-0.516191,0.650648,0.103755,-0.223225,0.869165
611,-0.135229,-0.953427,2.445927,-0.078044,0.815404,-0.573607,0.310784,-0.108466,0.03915,-0.343663,-0.002996,-0.088884
612,-0.15403699999999998,-0.9358299999999999,2.43133,-0.09100599999999999,0.805092,-0.5861270000000001,0.723997,0.35562699999999997,-0.758657,-0.24804400000000001,0.640831,0.082648
613,-0.14116800000000002,-0.9683370000000001,2.367048,-0.07973,0.823945,-0.561033,-3.3310779999999998,2.934357,-2.759019,-0.13402999999999998,2.2682189999999998,0.865873
614,-0.23146599999999998,-1.019937,2.289991,-0.120075,0.852075,-0.50946,-2.5923119999999997,-2.196368,-0.383309,1.6301459999999999,0.108298,-0.42132600000000003
615,-0.30336799999999997,-1.08188,2.245711,-0.140307,0.882842,-0.448222,-3.597838,-1.877376,-0.42919700000000005,1.229678,0.6064,-0.723912
616,-0.400206,-1.1476979999999999,2.186548,-0.159968,0.9118209999999999,-0.378143,-3.714389,-1.8886560000000001,0.0945,0.826075,0.744826,-0.14003
617,-0.530277,-1.218831,2.079581,-0.174362,0.9386969999999999,-0.29739899999999997,-4.0528830000000005,-1.646267,-0.553381,0.415847,0.338754,-0.39156599999999997
618,-0.750941,-1.2651,1.8897970000000002,-0.205352,0.9536379999999999,-0.220014,-3.403516,-2.2876830000000004,-1.351326,0.559233,0.53646,-0.08708400000000001
619,-1.001637,-1.2800850000000001,1.679698,-0.241448,0.95804,-0.154474,-2.5622599999999998,-2.422632,-1.366641,0.741463,0.532103,-0.030905000000000002
620,-1.206021,-1.275366,1.505567,-0.271995,0.956677,-0.10386500000000001,-1.8457459999999999,-1.498631,-1.291256,0.445701,0.001423,0.013212999999999999
621,-1.320243,-1.261824,1.40595,-0.294585,0.9526459999999999,-0.075393,-0.806503,-0.6578149999999999,-0.9389700000000001,0.31106500000000004,-0.171076,-0.049835000000000004
622,-1.342592,-1.2478040000000001,1.391095,-0.309177,0.94829,-0.071806,0.37842600000000004,-0.46917,-0.65747,0.269428,-0.459963,0.153731
623,-1.313372,-1.230957,1.442423,-0.32235199999999997,0.942808,-0.084864,1.390947,-1.337991,-0.580918,0.345621,-0.783507,0.115199
624,-1.258291,-1.211978,1.5336459999999998,-0.33416,0.936312,-0.107965,1.9356080000000002,-1.481349,-0.367559,0.356758,-0.887683,-0.11070899999999999
625,-1.179033,-1.193318,1.6529580000000001,-0.34065300000000004,0.9295969999999999,-0.14073,2.533083,-1.84064,-0.013616,0.396852,-0.9430700000000001,-0.05873300000000001
626,-1.0985639999999999,-1.1716360000000001,1.7890849999999998,-0.34611,0.9213879999999999,-0.176785,2.963634,-2.515967,0.131262,0.580271,-0.8162550000000001,0.24274899999999996
627,-1.022605,-1.141623,1.9345599999999998,-0.355144,0.9093100000000001,-0.216858,3.52576,-3.015422,0.136897,0.6512560000000001,-0.7616970000000001,0.483551
628,-0.9348629999999999,-1.097436,2.0991169999999997,-0.366763,0.890042,-0.27076,4.64709,-2.900457,0.251404,0.42003199999999996,0.140827,0.209939
629,-0.819084,-1.040774,2.290251,-0.369317,0.8627959999999999,-0.345237,5.854258,-2.454104,1.067908,0.90928,2.04556,-0.746209
630,-0.706246,-0.976143,2.4973330000000002,-0.36357399999999995,0.828343,-0.42621800000000004,5.8913519999999995,-3.240628,2.719578,1.4566219999999999,4.320339,0.196955
631,-0.590013,-0.931833,2.682271,-0.3318,0.802714,-0.495539,4.366280000000001,-1.23156,2.4542509999999997,-0.41014300000000004,0.242299,0.36432800000000004
632,-0.521228,-0.889251,2.798298,-0.313703,0.7766,-0.5463359999999999,3.3229699999999998,-1.4084299999999998,1.7699369999999999,-0.012728,1.2044489999999999,-0.408498
633,-0.485338,-0.858324,2.890418,-0.30495900000000004,0.756748,-0.5782149999999999,2.50596,-2.0458,2.028898,0.564923,1.240292,-0.494859
634,-0.469253,-0.840076,2.981802,-0.30181399999999997,0.744694,-0.595264,1.9088209999999999,-3.05923,2.367856,0.5378069999999999,1.0853389999999998,-0.368695
635,-0.468434,-0.844621,3.0607759999999997,-0.299796,0.7477199999999999,-0.592485,0.43934399999999996,-2.637702,2.390167,0.30348800000000004,0.558601,-0.158431
636,-0.48156499999999997,-0.8667290000000001,3.114042,-0.299819,0.762215,-0.573704,-0.619475,-2.86797,2.018802,-0.043519,-0.102212,-0.098552
637,-0.516155,-0.9085,-3.127035,-0.303492,0.788582,-0.534818,-1.3452469999999999,-3.6344980000000002,2.263611,0.19608599999999998,-0.71885,0.175672
638,-0.55453,-0.954218,-3.089141,-0.30447199999999996,0.815862,-0.491596,-1.485463,-3.061909,1.985228,0.293593,-1.4113209999999998,0.24284699999999998
639,-0.5883970000000001,-0.995933,-3.070882,-0.30178,0.839267,-0.452283,-1.3985530000000002,-2.014263,1.258102,0.233161,-1.267795,0.215757
640,-0.610494,-1.025043,-3.06387,-0.297564,0.8547370000000001,-0.42530100000000004,-0.862771,-1.144342,0.896466,0.12961,-1.130692,0.181832
641,-0.60688,-1.0437530000000002,-3.045023,-0.286853,0.864298,-0.41316400000000003,-0.308612,-0.274052,0.9590420000000001,0.156681,-0.994059,0.283769
642,-0.570249,-1.0578100000000001,-3.013522,-0.264944,0.871283,-0.41312299999999996,-0.10881300000000001,0.901731,1.122369,0.09792100000000001,-1.051016,0.291831
643,-0.498345,-1.076125,-2.971882,-0.22691399999999998,0.880125,-0.41700200000000004,-0.5069819999999999,2.3750459999999998,1.457394,-0.00473,-1.1315899999999999,0.721751
644,-0.403904,-1.111529,-2.941984,-0.174219,0.8963780000000001,-0.407621,-1.6225209999999999,3.8883449999999997,1.2073129999999999,-0.187247,-1.165359,1.029798
645,-0.312818,-1.123801,-2.923912,-0.133024,0.90175,-0.41128100000000006,0.849044,2.897964,0.316789,-0.34579699999999997,-1.248765,0.712428
646,-0.272631,-1.11443,-2.925441,-0.118663,0.89766,-0.424413,-0.6369640000000001,2.163646,-0.705324,-0.082585,1.067718,0.565053
647,-0.368363,-1.096578,-3.014065,-0.164432,0.88965,-0.426011,0.6931,-1.114369,-3.678581,0.385013,6.915709,1.116135
648,-0.48547700000000005,-1.088355,-3.133204,-0.21649000000000002,0.885865,-0.41033500000000006,-1.3023360000000002,-1.7542849999999999,-0.433623,1.466734,-0.177674,-0.209858
649,-0.5307189999999999,-1.137119,3.121044,-0.212691,0.9074270000000001,-0.362408,-3.420718,0.398395,0.662977,0.7370439999999999,-1.927843,-0.429386
650,-0.608638,-1.203427,3.011558,-0.20535100000000003,0.933275,-0.294666,-4.12499,1.0609709999999999,-0.31701,0.46987700000000004,-0.040621,-0.317105
651,-0.81123,-1.265064,2.7965310000000003,-0.21825999999999998,0.953627,-0.207265,-4.994111,-0.267953,-1.029609,0.9381229999999999,1.273073,-0.289699
652,-1.131666,-1.29681,2.467807,-0.2449,0.9627,-0.115034,-4.368961,-0.432608,-1.420273,0.9864930000000001,1.6935650000000002,-0.170793
653,-1.4295719999999998,-1.2935969999999999,2.1661639999999998,-0.270939,0.9618260000000001,-0.03852,-3.665576,-0.115525,-1.405084,0.7730899999999999,0.631055,-0.292489
654,-1.665391,-1.261413,1.929864,-0.30311,0.952522,0.028758,-3.0981959999999997,-0.8866879999999999,-1.654369,0.83793,0.37197199999999997,-0.21642600000000004
655,-1.7922330000000002,-1.229975,1.8145380000000002,-0.3261,0.9424799999999999,0.073414,-1.437606,-0.577723,-0.9723229999999999,0.567005,0.10720199999999999,-0.440709
656,-1.811114,-1.214896,1.7983740000000001,-0.338421,0.937333,0.08293099999999999,0.16606500000000002,-0.18953699999999998,-0.6048319999999999,0.40018899999999996,-0.013444,-0.140259
657,-1.764261,-1.210656,1.861156,-0.345831,0.935847,0.067754,1.479107,-0.702256,-0.33115300000000003,0.42368199999999995,-0.373103,0.122279
658,-1.672186,-1.213359,1.974416,-0.348078,0.9367969999999999,0.035413,2.268281,-0.723214,-0.037193000000000004,0.423608,-0.816557,-0.36991599999999997
659,-1.549105,-1.2184139999999999,2.1246080000000003,-0.34505399999999997,0.9385530000000001,-0.007486,2.839238,-1.073787,0.29091500000000003,0.513419,-0.9404450000000001,-0.22235700000000003
660,-1.407304,-1.22146,2.313387,-0.33771,0.9396,-0.05571,3.44317,-2.282587,0.494304,0.670413,-0.6982520000000001,0.236161
661,-1.257021,-1.2138639999999998,2.537267,-0.332342,0.936973,-0.10784300000000001,4.147744,-3.269779,0.6030399999999999,0.656606,-0.145698,0.038797000000000005
662,-1.073313,-1.193087,2.801252,-0.32409,0.9295120000000001,-0.175993,5.1019,-2.883276,1.15507,0.872475,0.7881239999999999,-0.175325
663,-0.8655809999999999,-1.152472,3.099991,-0.309332,0.9137709999999999,-0.263317,6.46096,-4.196542,1.7858150000000002,1.185309,1.5880299999999998,-0.160908
664,-0.695566,-1.089165,-2.901246,-0.296844,0.8862399999999999,-0.355614,6.20224,-3.581907,2.283148,0.192932,1.3330739999999999,0.6736989999999999
665,-0.595176,-1.023403,-2.720761,-0.2918,0.853884,-0.43096899999999994,4.719428,-2.317229,1.1239,-0.347238,1.009412,-0.022796
666,-0.537945,-0.9716100000000001,-2.608661,-0.288963,0.8257950000000001,-0.484318,3.3399339999999995,-1.825553,1.37428,0.034294,1.043972,-0.416195
667,-0.500677,-0.939153,-2.510523,-0.283438,0.8070579999999999,-0.517996,2.6008869999999997,-2.303972,1.775655,0.089087,0.9760690000000001,-0.334406
668,-0.498068,-0.9191309999999999,-2.4318880000000003,-0.289748,0.795075,-0.532825,1.431006,-3.6409830000000003,1.746764,0.281066,0.781998,0.062426999999999996
669,-0.518566,-0.928477,-2.3742490000000003,-0.296912,0.800709,-0.520297,-0.13484200000000002,-3.073123,1.755395,0.149741,0.46418400000000004,0.083789
670,-0.560751,-0.9663370000000001,-2.339152,-0.302244,0.82281,-0.481283,-1.7165759999999999,-3.735214,1.933202,-0.198153,-0.672846,0.017827000000000003
671,-0.599996,-1.022612,-2.318644,-0.29425500000000004,0.8534719999999999,-0.43011499999999997,-2.2123779999999997,-1.901636,2.036342,-0.292476,-1.720461,-0.13089
672,-0.616418,-1.083053,-2.310947,-0.270925,0.883392,-0.382384,-2.313,-0.9314209999999999,1.654109,-0.070765,-1.571655,-0.11729500000000001
673,-0.62885,-1.121053,-2.311014,-0.255717,0.900559,-0.351571,-0.875461,-0.5376270000000001,0.765271,0.116328,-0.9944459999999999,0.046014
674,-0.614635,-1.1225690000000002,-2.2831930000000003,-0.24990700000000002,0.901217,-0.354055,0.7954439999999999,-0.49140900000000004,0.546147,-0.104799,-0.854952,0.28928200000000004
675,-0.563673,-1.1126909999999999,-2.229053,-0.236292,0.896892,-0.37383299999999997,1.122433,0.602549,0.815153,0.013406999999999999,-0.9499770000000001,0.341271
676,-0.48155,-1.105979,-2.170465,-0.20761300000000002,0.8939030000000001,-0.397283,0.771408,2.012219,1.041631,-0.036497,-1.091123,0.5040180000000001
677,-0.374981,-1.107752,-2.115059,-0.163597,0.894697,-0.415637,0.30796799999999996,3.244743,1.176751,-0.316094,-1.0775430000000001,1.0619379999999998
678,-0.252027,-1.102566,-2.057591,-0.112542,0.892368,-0.437051,1.090091,3.5443870000000004,1.222423,-0.256385,-1.013355,-0.33557800000000004
679,-0.11019100000000001,-1.110967,-2.000309,-0.048803,0.896128,-0.441104,-1.9589419999999997,6.034633,1.294074,-0.026545,-0.301844,1.088443
680,0.011958,-1.157266,-1.999426,0.004804999999999999,0.915708,-0.401816,-1.949345,6.169423,-0.717493,0.079286,2.785555,0.916952
681,-0.053464,-1.188714,-2.167202,-0.019925,0.92789,-0.37232,-1.6987439999999998,2.037227,-4.128758,1.870465,6.182003,0.380591
682,-0.155997,-1.234876,-2.250626,-0.051213999999999996,0.9441069999999999,-0.325635,-3.0217,-1.9153209999999998,-0.22965100000000002,1.114309,-0.674668,-0.324862
683,-0.278144,-1.303611,-2.3474049999999997,-0.072492,0.964518,-0.253871,-3.871197,-1.3127229999999999,-1.00334,0.731549,-1.4236090000000001,0.262171
684,-0.537447,-1.365202,-2.585537,-0.10451300000000001,0.9789399999999999,-0.175368,-4.11437,-1.393724,-1.580706,0.605184,0.17715799999999998,0.13583199999999998
685,-1.1194709999999999,-1.404491,3.139257,-0.148964,0.986203,-0.072202,-5.576907,-1.752529,-2.224986,0.749352,1.3019129999999999,-0.41581999999999997
686,-1.771516,-1.384754,2.508379,-0.181257,0.9827440000000001,0.036877999999999994,-4.989858,-1.400586,-0.971517,0.405393,1.376051,0.056170000000000005
687,-2.151275,-1.328292,2.136097,-0.200801,0.9707399999999999,0.131696,-4.402335,-0.510211,-1.431094,0.190806,0.511835,-0.607785
688,-2.28572,-1.260398,1.9997040000000001,-0.23064899999999997,0.9522120000000001,0.200233,-2.967346,0.177335,-1.453999,0.39767199999999997,0.272977,-0.541755
689,-2.328346,-1.215941,1.9461060000000001,-0.252434,0.9376969999999999,0.23875100000000002,-1.631016,0.44186899999999996,-0.8350479999999999,0.21475999999999998,0.31117399999999995,-0.721417
690,-2.330743,-1.1974360000000002,1.941559,-0.264395,0.931107,0.251267,-0.00504,-0.190361,-0.516301,0.483755,-0.168427,-0.324845
691,-2.290921,-1.206875,1.9935060000000002,-0.26757,0.934508,0.234736,1.3905969999999999,-0.456818,-0.093877,0.449744,-0.7491899999999999,-0.219584
692,-2.2403419999999996,-1.237301,2.053629,-0.256675,0.9449040000000001,0.20316199999999998,2.045953,-0.306678,0.9509559999999999,0.617301,-1.317661,-0.5400149999999999
693,-2.1773580000000003,-1.289774,2.13983,-0.227865,0.960772,0.158095,3.01054,-1.45292,1.44734,0.702855,-0.8468200000000001,-0.5084529999999999
694,-2.043026,-1.347825,2.331152,-0.196927,0.975245,0.10058500000000001,3.7739089999999997,-3.152038,1.0531979999999999,0.570874,-0.585093,-0.001403
695,-1.7470240000000001,-1.3926690000000002,2.705439,-0.174442,0.9841770000000001,0.031063999999999998,4.529114,-3.74874,0.9684389999999999,0.447651,0.1436,-0.042554
696,-1.185186,-1.407162,-2.922165,-0.15094200000000002,0.986642,-0.061273,6.093013,-4.556948,1.392732,0.623034,0.6543800000000001,-0.195823
697,-0.619875,-1.331531,-2.225062,-0.137675,0.971512,-0.19289800000000001,7.930702,-6.799336,1.6594740000000001,1.111277,2.057601,-0.348148
698,-0.386561,-1.233416,-1.882064,-0.124795,0.943625,-0.306591,5.828394,-3.239896,1.529133,-0.5176149999999999,1.921975,0.928219
699,-0.299167,-1.145389,-1.7571430000000001,-0.12163,0.9108709999999999,-0.394361,4.380193,-0.923791,0.605924,-1.0281799999999999,0.762835,-0.092578
700,-0.242312,-1.08046,-1.667915,-0.112997,0.882175,-0.457165,3.4448510000000003,-1.420507,1.223869,-0.033961,0.8946350000000001,-0.27125900000000003
701,-0.22113200000000002,-1.018872,-1.595171,-0.115003,0.851517,-0.511559,3.208723,-2.509318,0.921308,0.099561,0.8722989999999999,-0.040336000000000004
702,-0.230352,-0.9911059999999999,-1.523582,-0.125066,0.8366319999999999,-0.533297,0.6635270000000001,-3.6831120000000004,2.025599,0.454503,0.673759,0.0027489999999999997
703,-0.23831999999999998,-1.016095,-1.459905,-0.12433599999999999,0.850058,-0.511803,-1.306757,-2.853136,1.837721,-0.0523,-0.24452800000000002,-0.060478
704,-0.228623,-1.068916,-1.40868,-0.109029,0.8766799999999999,-0.46855699999999995,-2.81128,-0.8988450000000001,1.932598,-0.22693899999999997,-1.7180799999999998,-0.272913
705,-0.209885,-1.1353440000000001,-1.376298,-0.087885,0.9066790000000001,-0.412563,-2.9766880000000002,-0.400289,1.009996,-0.198232,-1.741991,0.006024
706,-0.21784499999999998,-1.177093,-1.3776190000000001,-0.08290800000000001,0.9234950000000001,-0.37454499999999996,-1.38221,-0.454471,0.124965,-0.35480500000000004,-1.355776,0.417971
707,-0.219349,-1.184899,-1.374746,-0.0819,0.9264610000000001,-0.367372,0.11962,0.088323,0.27897,-0.27076100000000003,-1.2165,0.593858
708,-0.170487,-1.1859600000000001,-1.343633,-0.063693,0.92686,-0.369965,-0.09904199999999999,1.679026,0.672783,-0.157392,-1.121226,0.613571
709,-0.082888,-1.1886940000000001,-1.3100370000000001,-0.030871,0.927883,-0.37159200000000003,0.107759,3.47462,0.608901,-0.246808,-0.983226,0.41405699999999995
710,0.031549,-1.185557,-1.2781360000000002,0.011854,0.926709,-0.375594,-0.017953999999999998,4.465758,0.609958,-0.486875,-1.081372,0.47074799999999994
711,0.14335,-1.188481,-1.249631,0.053296,0.9278040000000001,-0.369243,0.183124,4.3456150000000004,0.377576,-0.583356,-0.8381280000000001,0.9838969999999999
712,0.22227800000000003,-1.151263,-1.249403,0.089798,0.9132790000000001,-0.397313,1.508124,3.994217,0.5250819999999999,-0.144897,-0.373042,1.504644
713,0.38047,-1.172942,-1.209082,0.143879,0.9218940000000001,-0.359736,-1.7870979999999999,6.598752,-0.064226,-0.587208,2.960079,0.62797
714,0.386994,-1.230017,-1.331739,0.126137,0.9424950000000001,-0.30950500000000003,-2.019016,4.591424,-5.096736,1.072547,6.54629,0.792339
715,0.31054299999999996,-1.288602,-1.428346,0.085092,0.9604469999999999,-0.265144,-2.825009,-0.351657,-0.890441,1.203147,-0.810316,-0.6315390000000001
716,0.352104,-1.37093,-1.3839700000000001,0.068471,0.980093,-0.186358,-4.520329,0.198168,-1.054675,0.703853,-1.38761,0.203966
717,0.389851,-1.4626379999999999,-1.357116,0.041025,0.994157,-0.099848,-4.268665,0.46093900000000004,-1.71662,0.60877,0.199935,0.14982
718,-0.677344,-1.562942,-2.4205490000000003,-0.004925,0.999969,-0.006123,-5.063964,-0.683551,-2.528284,0.900524,1.438172,-0.497722
719,-2.6693189999999998,-1.4622760000000001,1.886709,-0.04927,0.994117,0.096451,-5.139801,-0.756139,-1.627142,0.42161499999999996,1.264168,0.006179
720,-2.772839,-1.360698,1.791998,-0.075174,0.97801,0.194536,-4.52604,-0.30835500000000005,-1.7185,0.045663999999999996,0.345598,-0.776781
721,-2.740629,-1.2826309999999999,1.827388,-0.110922,0.958767,0.261653,-2.816231,0.32479600000000003,-1.6966860000000001,0.162131,0.22809200000000002,-0.9290719999999999
722,-2.7070529999999997,-1.231492,1.840484,-0.14012,0.9429860000000001,0.3019,-2.011934,1.231049,-0.989345,0.030164999999999997,0.400748,-0.777012
723,-2.6662619999999997,-1.208291,1.8598279999999998,-0.16228499999999998,0.935011,0.315306,-0.1209,0.904839,-0.705458,0.46367700000000006,-0.317915,-0.06551900000000001
724,-2.6314580000000003,-1.2159799999999998,1.8933220000000002,-0.16964300000000002,0.93771,0.303185,0.9119659999999999,-0.06339299999999999,-0.029363999999999998,0.615901,-1.0208709999999999,-0.11443299999999999
725,-2.632802,-1.247725,1.893144,-0.154651,0.9482649999999999,0.277266,1.7971830000000002,-0.018445,1.281061,0.705707,-1.4317090000000001,-0.692809
726,-2.672173,-1.3128790000000001,1.865963,-0.11538399999999999,0.966923,0.22747699999999998,3.223276,-1.367009,2.1558740000000003,0.637754,-1.084355,-0.89186
727,-2.734555,-1.401429,1.852785,-0.066731,0.985692,0.15478699999999998,4.244214,-2.9637029999999998,1.765536,0.362614,-0.488911,0.020124
728,-2.728616,-1.4968219999999999,1.924398,-0.029662,0.997265,0.06769299999999999,4.762841000000001,-3.417276,1.524049,-0.016115,0.07175,-0.080617
729,0.095029,-1.522333,-1.458603,0.0045969999999999995,0.998826,-0.048226,6.766664,-4.188599,1.6672209999999998,0.528713,1.303603,-0.5921390000000001
730,0.069926,-1.358842,-1.376416,0.014698,0.9776219999999999,-0.20985700000000002,8.196625,-6.189424,1.02068,0.90176,3.8900690000000004,0.616595
731,0.029084,-1.2147700000000001,-1.317343,0.010136,0.9372889999999999,-0.348405,6.533604,-3.413385,0.8815930000000001,-0.43820600000000004,1.324216,0.866182
732,0.006204,-1.104472,-1.300918,0.0027890000000000002,0.893227,-0.449597,4.774163,-1.449878,0.491841,-0.790784,0.890159,0.181455
733,0.027354000000000003,-1.019003,-1.259451,0.014337,0.8515860000000001,-0.524019,4.193529,-0.47737299999999994,1.283432,0.131643,1.3450389999999999,-0.570967
734,0.032647,-0.940666,-1.2237129999999998,0.019234,0.80795,-0.588936,3.5872349999999997,-1.762097,1.010584,0.2257,0.807558,0.018165999999999998
735,0.013866999999999999,-0.9020549999999999,-1.1737360000000001,0.008598,0.7846029999999999,-0.619939,0.617891,-2.952141,1.7519419999999999,0.088296,0.33676500000000004,0.080907
736,0.009155,-0.9206979999999999,-1.117756,0.005541,0.796024,-0.60524,-1.8351689999999998,-2.326698,1.715846,-0.244921,-1.2934450000000002,0.069275
737,0.034321,-0.98145,-1.048978,0.019072,0.831304,-0.555491,-3.57809,-0.8428770000000001,1.9218240000000002,-0.199096,-1.65978,0.281763
738,0.078935,-1.044283,-1.000184,0.039625,0.8645639999999999,-0.500957,-2.687963,0.48151400000000005,0.555815,-0.626524,-1.678438,0.168102
739,0.082732,-1.077028,-1.002067,0.039166,0.880553,-0.47232700000000005,-1.097488,-0.114372,-0.455668,-0.6073729999999999,-1.556029,0.467474
740,0.07435900000000001,-1.0919299999999998,-1.0113729999999999,0.034231,0.887518,-0.4595,-0.704758,0.291792,-0.071022,-0.5110680000000001,-1.623541,0.799756
741,0.118244,-1.112786,-0.993866,0.052162,0.896934,-0.43907700000000005,-1.277851,2.213389,0.46516899999999994,-0.176429,-1.237831,0.850942
742,0.218139,-1.136711,-0.9607889999999999,0.091019,0.9072549999999999,-0.41061400000000003,-1.1957959999999999,4.113465,0.48787700000000006,-0.28779699999999997,-0.934141,0.5342859999999999
743,0.332332,-1.146799,-0.9298,0.134221,0.911452,-0.388896,-0.28634,4.261386,0.5367689999999999,-0.144215,-0.711424,0.079158
744,0.448384,-1.151585,-0.901648,0.176456,0.91341,-0.366804,-0.8438190000000001,4.835326,0.282175,-0.16109,-0.783726,0.710996
745,0.56011,-1.164108,-0.8965549999999999,0.210159,0.918436,-0.33512600000000003,0.367435,5.261642,-0.551669,-0.8007350000000001,-0.613336,0.434964
746,0.577091,-1.147126,-0.9508270000000001,0.224296,0.911586,-0.344531,0.080277,3.492657,-0.146552,-0.30695300000000003,0.211094,1.195285
747,0.646836,-1.217341,-0.9915790000000001,0.20860700000000001,0.938182,-0.276219,-3.1459740000000003,4.603648000000001,-4.778821,-0.851582,2.863987,0.695592
748,0.667315,-1.2937530000000002,-1.014633,0.169272,0.9618680000000001,-0.21484099999999998,-2.435901,1.423139,-0.7062689999999999,1.542184,0.8978729999999999,0.13406099999999999
749,0.899503,-1.349417,-0.800603,0.171932,0.9755959999999999,-0.136576,-4.755074,0.7847430000000001,-0.220654,1.05695,-1.385675,-0.10111
750,1.297376,-1.414575,-0.412274,0.149807,0.987822,-0.042012,-4.31305,1.152923,-1.832122,0.816029,-0.9775379999999999,0.315023
751,1.989371,-1.4613969999999998,0.274475,0.099755,0.994022,0.044377,-4.563405,-0.085026,-2.920802,0.891639,0.8590969999999999,-0.174321
752,2.874841,-1.424209,1.182863,0.038502,0.989275,0.140897,-4.850872,-1.02099,-3.041251,0.37144,1.655546,0.023531
753,-3.138623,-1.331092,1.4788139999999999,-0.000705,0.9714079999999999,0.237414,-4.912241000000001,-0.910602,-2.090036,0.41064799999999996,1.673413,-0.072986
754,-2.999659,-1.247871,1.632499,-0.04489,0.948311,0.314152,-3.237438,-0.03652,-2.348649,0.160644,0.474357,-1.0327950000000001
755,-2.902708,-1.200183,1.7097939999999998,-0.0857,0.932105,0.351902,-1.655678,1.544533,-1.369681,0.023413999999999997,0.441384,-0.86945
756,-2.8341119999999997,-1.182836,1.7514939999999999,-0.114496,0.925682,0.360559,0.170942,1.426146,-0.787408,0.339136,0.107307,-0.538644
757,-2.786916,-1.196261,1.785579,-0.127051,0.9306780000000001,0.34307,0.966347,0.397715,-0.035983999999999995,0.749686,-1.10414,-0.243842
758,-2.8101119999999997,-1.223763,1.759077,-0.11068599999999999,0.940386,0.32159499999999996,1.412607,-0.14794200000000002,1.4985950000000001,0.8473959999999999,-1.393465,-0.7144020000000001
759,-2.904629,-1.27969,1.6793080000000002,-0.06737699999999999,0.9579270000000001,0.278992,2.911152,-1.554246,2.098386,0.7176,-0.9980120000000001,-0.9118350000000001
760,-3.067987,-1.357053,1.564016,-0.015599000000000002,0.977244,0.21154499999999998,3.853452,-3.082376,1.945625,0.39063000000000003,-0.5523170000000001,0.166629
761,2.904859,-1.441926,1.315377,0.030139999999999997,0.991708,0.124929,4.721538,-3.3764279999999998,1.735216,-0.061161,0.179679,-0.26524899999999996
762,1.588889,-1.500884,0.073446,0.069845,0.9975569999999999,0.0012640000000000001,7.102111,-4.373867,1.621732,0.669291,2.288316,-0.7245149999999999
763,0.45280600000000004,-1.3800780000000001,-0.9558059999999999,0.082933,0.9818680000000001,-0.170461,7.970036,-6.55069,0.9864459999999999,0.427749,3.6656690000000003,0.8355459999999999
764,0.244523,-1.246775,-1.0738940000000001,0.077078,0.9479629999999999,-0.30891,6.169925,-2.5785970000000002,0.49662799999999996,-1.086645,0.7604420000000001,0.586422
765,0.185594,-1.142275,-1.116941,0.076677,0.909581,-0.40839000000000003,4.68251,-0.703907,0.5030640000000001,-1.1330280000000001,0.9612379999999999,-0.49493000000000004
766,0.190445,-1.056905,-1.1103809999999998,0.093052,0.8708379999999999,-0.48268199999999994,4.076734,0.473763,1.1585530000000002,-0.235294,1.100322,-0.397445
767,0.20920300000000003,-0.9780280000000001,-1.085452,0.116022,0.8293969999999999,-0.546479,3.3537480000000004,-0.9007719999999999,1.6007129999999998,-0.097223,1.068109,-0.013869999999999999
768,0.21503699999999998,-0.933306,-1.0248110000000001,0.127002,0.803592,-0.581472,0.65941,-2.5384599999999997,2.426818,0.168378,0.42345900000000003,0.201193
769,0.232461,-0.942948,-0.950652,0.135322,0.809294,-0.571605,-1.8909200000000002,-1.8770950000000002,1.7512,-0.112419,-1.5460639999999999,0.117228
770,0.27676100000000003,-0.993031,-0.8715219999999999,0.149232,0.837685,-0.52537,-3.427741,-0.485284,1.345576,-0.096635,-1.757332,0.1663
771,0.310607,-1.046686,-0.8245389999999999,0.152954,0.86577,-0.47649600000000003,-2.270787,-0.366589,-0.300102,-0.51152,-1.556611,0.2241
772,0.267125,-1.079468,-0.849619,0.12453499999999999,0.881707,-0.45506499999999994,-1.093651,-1.476876,-1.251857,-0.5808949999999999,-1.609795,0.613527
773,0.22456199999999998,-1.098661,-0.8732559999999999,0.101272,0.890599,-0.44337,-0.724123,-0.46137799999999995,-0.31482,-0.42048599999999997,-1.52245,0.919032
774,0.268167,-1.1167690000000001,-0.853798,0.11621,0.8986879999999999,-0.422913,-1.1443809999999999,2.372067,0.36227600000000004,-0.276672,-1.101264,0.779358
775,0.373241,-1.1344,-0.819758,0.154123,0.906281,-0.393575,-0.8703719999999999,4.322328,0.45569499999999996,-0.281625,-0.948456,0.438604
776,0.49849799999999994,-1.135411,-0.784505,0.201646,0.906708,-0.370433,-0.083356,4.830579,0.8098489999999999,-0.273897,-0.6870569999999999,0.428889
777,0.625793,-1.125604,-0.762683,0.252238,0.9025280000000001,-0.349026,0.20690799999999998,5.618476,0.39426,-0.6282300000000001,-0.38598699999999997,0.652584
778,0.646651,-1.103805,-0.809561,0.271254,0.892927,-0.359309,2.101432,1.519939,-0.0765,-0.652953,0.041323,-0.202612
779,0.71829,-1.1119459999999999,-0.836533,0.291484,0.8965620000000001,-0.333487,-1.082063,8.112919,-1.839841,-1.429637,2.555007,0.46350699999999995
780,0.772633,-1.216127,-0.9082540000000001,0.24241,0.9377610000000001,-0.24867899999999998,-2.9619619999999998,2.810913,-5.500565,-0.132486,4.403303,0.104895
781,0.780456,-1.3024639999999998,-0.925726,0.186542,0.9642139999999999,-0.188395,-3.4381269999999997,1.39907,-2.074158,1.6629599999999998,-0.102657,-0.098226
782,1.028965,-1.386496,-0.701695,0.15700899999999998,0.983065,-0.09450700000000001,-4.960033,1.590625,-1.772045,0.9236639999999999,-0.216021,0.336405
783,1.620954,-1.455414,-0.130171,0.11498199999999999,0.993351,0.005772,-4.822918,0.6518729999999999,-2.361679,0.943535,0.348904,-0.099446
784,2.595845,-1.447476,0.864532,0.063849,0.9924059999999999,0.10514000000000001,-5.22421,-1.1891690000000001,-2.750956,1.081339,1.591457,-0.626808
785,3.0272900000000003,-1.359475,1.3096379999999999,0.023923,0.9777549999999999,0.20838299999999998,-5.016951000000001,-0.248527,-1.8672939999999998,0.048022,0.836195,-0.26090399999999997
786,-3.077501,-1.28425,1.5111430000000001,-0.018103,0.959226,0.282061,-3.016141,-1.030608,-2.493249,-0.26090399999999997,0.381671,-0.724825
787,-2.966358,-1.233502,1.630209,-0.057695,0.9436530000000001,0.325868,-2.13079,0.543445,-1.82358,-0.358656,0.297771,-0.9234629999999999
788,-2.8754869999999997,-1.1954719999999999,1.692179,-0.0964,0.9303889999999999,0.353672,-1.03427,2.155846,-1.336219,0.199947,-0.065292,-0.520405
789,-2.786849,-1.185699,1.7502490000000002,-0.130482,0.9267620000000001,0.352259,0.148457,1.199099,-0.997719,0.394703,-0.469792,-0.45691899999999996
790,-2.746756,-1.19181,1.7755310000000002,-0.142315,0.92904,0.341512,0.682365,0.60543,0.213862,0.8815879999999999,-1.344583,-0.195043
791,-2.7840830000000003,-1.2272,1.7359799999999999,-0.11788699999999999,0.941549,0.315575,1.941927,-0.45701400000000003,1.874425,1.110593,-1.444097,-0.763848
792,-2.875563,-1.296916,1.666066,-0.071107,0.9627290000000001,0.260955,3.491888,-1.81897,1.995955,0.7969069999999999,-0.664892,-0.74298
793,-2.994116,-1.376758,1.602357,-0.028333999999999998,0.981233,0.19072999999999998,3.8214989999999998,-3.25962,1.277985,0.252592,-0.582537,-0.129207
794,3.1007569999999998,-1.464631,1.481962,0.004326,0.9943700000000001,0.105877,4.77839,-3.6692940000000003,1.133507,0.136681,0.351593,-0.255795
795,0.873043,-1.5344870000000002,-0.647718,0.027818,0.999341,-0.023324,7.768839,-5.765946,0.720179,0.542342,1.427035,-0.501685
796,0.12064100000000001,-1.382719,-1.264494,0.022502,0.982366,-0.185612,7.127897999999999,-6.839863,0.772626,-0.514491,2.428706,1.180149
797,0.054314999999999995,-1.256448,-1.26337,0.016786000000000002,0.950998,-0.308741,5.9758379999999995,-1.2629620000000001,0.12825,-1.284867,0.492041,-0.193578
798,0.05336900000000001,-1.1518959999999998,-1.2521149999999999,0.021698,0.913537,-0.406177,4.620794999999999,-0.324765,0.8471780000000001,-1.244873,0.811561,-0.501462
