,attitude.roll,attitude.pitch,attitude.yaw,gravity.x,gravity.y,gravity.z,rotationRate.x,rotationRate.y,rotationRate.z,userAcceleration.x,userAcceleration.y,userAcceleration.z
0,0.553761,-1.235284,2.3307130000000003,0.173145,0.944242,-0.280037,0.056365,6.2484,-0.078113,0.347974,0.23424,3.1232990000000003
1,0.5866359999999999,-1.245088,2.337597,0.177122,0.9474239999999999,-0.266471,-0.588954,0.036861,-0.8704860000000001,0.135897,-0.7894800000000001,0.484382
2,0.54415,-1.280838,2.27624,0.148007,0.958256,-0.24460500000000002,-1.089673,0.42702299999999993,-1.834815,0.012378,0.36204200000000003,0.684714
3,0.513085,-1.334125,2.2537689999999997,0.11508299999999999,0.972124,-0.20426,-2.60387,-1.117224,-1.422534,0.167311,1.511717,0.49046899999999993
4,0.49,-1.3883860000000001,2.228514,0.08536,0.983409,-0.16003299999999998,-1.7582229999999999,1.103212,-1.722847,0.57768,0.687962,-0.021988999999999998
5,0.349037,-1.439033,2.099716,0.044919,0.991332,-0.123425,-2.578169,-2.094194,-1.948804,0.51073,0.652772,-0.06978200000000001
6,0.23256999999999997,-1.515258,2.007461,0.012771,0.998458,-0.05391900000000001,-3.766175,-0.308627,-1.227658,0.099717,0.98169,0.051569000000000004
7,-1.970178,-1.551511,-0.213131,-0.017488999999999998,0.999814,0.007381,-2.391611,1.385718,-1.7575459999999998,-0.31190300000000004,0.9651370000000001,-0.692852
8,-2.251287,-1.503314,-0.522456,-0.052345,0.9977239999999999,0.042372,-1.672402,1.537179,-1.6298709999999998,0.47356400000000004,0.726611,-0.610166
9,-2.206655,-1.455562,-0.516555,-0.09246499999999999,0.993368,0.06825099999999999,-1.371646,1.8656840000000001,-1.990318,0.707044,0.621577,-0.855132
10,-2.15769,-1.4167,-0.49812,-0.12777,0.988151,0.084976,-0.843879,1.399262,-1.425218,0.709695,-0.527946,-0.513458
11,-2.144745,-1.39083,-0.511744,-0.150285,0.98385,0.09716699999999999,-0.624286,1.123969,-0.704418,0.92296,-1.196466,-0.712631
12,-2.1517020000000002,-1.38907,-0.518951,-0.151052,0.983533,0.09916,0.194456,-0.684064,0.24792600000000004,1.094381,-0.994459,-0.6514220000000001
13,-2.17857,-1.4040979999999998,-0.514318,-0.136182,0.986138,0.09473,0.56118,-2.110709,0.788563,0.945859,-1.257836,-0.368533
14,-2.193124,-1.4374799999999999,-0.481508,-0.107964,0.9911270000000001,0.077456,1.652426,-2.126005,1.535415,0.128243,-0.7258680000000001,-0.444934
15,-2.010945,-1.489382,-0.26287,-0.073505,0.9966879999999999,0.034618,2.613356,-1.726679,1.539479,-0.45351800000000003,-0.275771,-0.637783
16,-1.113392,-1.513975,0.670592,-0.05086,0.9983860000000001,-0.025034,3.370792,-1.7360509999999998,0.830141,-0.617414,-0.25895999999999997,-0.258642
17,-0.39592,-1.465293,1.427329,-0.040594,0.99444,-0.097116,3.8116980000000003,-1.872079,0.63257,-0.259119,0.231116,0.017343
18,-0.129991,-1.401211,1.728164,-0.021874,0.985655,-0.167322,3.581957,-1.208367,1.61822,0.209938,1.333559,0.14602
19,0.10411300000000001,-1.3228959999999998,1.968143,0.025498,0.9694299999999999,-0.244023,4.086567,0.41085200000000005,2.777622,0.364196,2.184761,0.454304
20,0.27719699999999997,-1.235048,2.124431,0.090161,0.9441639999999999,-0.316887,4.1830680000000005,0.47917600000000005,3.455461,-0.986661,0.913899,-0.177071
21,0.38052600000000003,-1.14437,2.2225770000000002,0.153619,0.91045,-0.38402600000000003,2.939019,1.8233560000000002,2.187752,-0.22175,2.074215,0.282509
22,0.450366,-1.088284,2.244168,0.201977,0.885832,-0.41773299999999997,2.265521,2.64918,1.647878,0.451862,0.804048,-0.243675
23,0.511822,-1.027592,2.27775,0.25314899999999996,0.856057,-0.45064,2.257476,0.871541,2.376491,0.647807,0.660285,-0.008283
24,0.529817,-0.9717959999999999,2.31585,0.284937,0.8259,-0.48651300000000003,1.602048,-1.548853,2.167779,0.42761800000000005,0.5254800000000001,0.25885199999999997
25,0.512174,-0.937816,2.350526,0.289901,0.806268,-0.51564,0.591073,-2.5050529999999998,1.342617,0.214387,0.479483,0.580276
26,0.481142,-0.926158,2.3793330000000004,0.278094,0.799317,-0.532683,-0.210589,-2.7298150000000003,0.9698370000000001,-0.336444,-0.090394,0.554732
27,0.45411,-0.9352159999999999,2.411769,0.260408,0.804728,-0.533475,-1.251464,-2.351738,0.298716,-1.04738,-0.932901,0.682477
28,0.45531400000000005,-0.975426,2.4374689999999997,0.246613,0.827941,-0.503677,-2.7335529999999997,-0.096719,-0.503942,-0.945817,-1.547683,0.731186
29,0.512076,-1.050082,2.472007,0.24376599999999998,0.8674639999999999,-0.43368,-4.2896,2.286632,-1.101115,-0.497352,-1.7619340000000001,1.059717
30,0.626109,-1.13875,2.522686,0.245369,0.9081110000000001,-0.33929499999999996,-4.017486,3.724648,-1.576415,-0.34139200000000003,-1.670043,0.706208
31,0.708987,-1.199606,2.545829,0.23615,0.931896,-0.275307,-1.8659849999999998,2.684996,-1.325046,0.092662,-0.6101949999999999,-0.621909
32,0.7325109999999999,-1.214588,2.540139,0.233197,0.937226,-0.259266,0.53715,0.358427,0.054568,0.392902,-0.073273,-1.584041
33,0.7678699999999999,-1.190356,2.552332,0.257919,0.928501,-0.267123,0.20822600000000002,2.830875,1.417494,0.775192,0.880718,-0.411603
34,0.9088799999999999,-1.18187,2.632478,0.299106,0.9253170000000001,-0.233058,-1.569073,2.52937,0.8361040000000001,-0.504657,-0.458291,1.664652
35,0.997417,-1.202433,2.714035,0.302491,0.932918,-0.19533299999999998,-1.374417,-0.9541219999999999,-0.38652800000000004,-1.626863,2.417622,-3.3222
36,0.714147,-1.196956,2.5425169999999997,0.239184,0.930932,-0.275951,2.685682,-2.118776,-1.430238,-0.19426300000000002,1.520057,3.0625869999999997
37,0.737425,-1.192813,2.519778,0.24813400000000002,0.9294110000000001,-0.273161,0.060011,1.576188,-0.102013,-0.113094,-0.35133200000000003,1.326964
38,0.702194,-1.2168809999999999,2.459982,0.223842,0.9380229999999999,-0.264575,-0.817045,1.005463,-2.334651,-0.41668299999999997,-0.102711,0.9129360000000001
39,0.65451,-1.2759340000000001,2.399593,0.176905,0.956842,-0.230541,-2.241061,0.20133099999999998,-2.735605,-0.326075,0.637015,0.796093
40,0.624734,-1.349405,2.380559,0.12842,0.975593,-0.178094,-2.927965,-0.9655450000000001,-2.0413580000000002,0.8654299999999999,1.58651,0.36675399999999997
41,0.631994,-1.4113149999999999,2.389526,0.093797,0.98731,-0.128108,-2.3952299999999997,0.144529,-1.718593,0.48185600000000006,0.613139,0.106868
42,0.725309,-1.476793,2.492697,0.062229,0.995585,-0.07019600000000001,-3.3756160000000004,-0.24211300000000002,-1.4151610000000001,0.19833,0.9450129999999999,0.09776900000000001
43,1.4769219999999998,-1.532196,-3.05018,0.038274,0.9992549999999999,-0.003604,-2.888421,1.164221,-1.347331,-0.431249,1.129575,-0.773435
44,3.135974,-1.5333780000000001,-1.418404,0.00020899999999999998,0.9993,0.037251,-1.5947850000000001,1.39534,-2.189964,0.09698899999999999,0.729063,-0.814229
45,-2.5516970000000003,-1.48974,-0.8510620000000001,-0.044997,0.996717,0.067219,-1.528245,1.77413,-2.1355049999999998,0.43316499999999997,0.6866939999999999,-0.725911
46,-2.352991,-1.4431459999999998,-0.695539,-0.090269,0.991864,0.089693,-1.0168700000000002,2.2075549999999997,-2.010711,0.800551,0.349796,-0.529894
47,-2.259935,-1.4085860000000001,-0.6398119999999999,-0.12461400000000002,0.986873,0.10266800000000001,-0.852198,1.636087,-1.235436,0.9095260000000001,-0.952235,-0.756843
48,-2.236856,-1.3915440000000001,-0.635163,-0.140158,0.983977,0.110144,-0.176807,0.428407,-0.309431,1.119879,-1.120025,-0.7937069999999999
49,-2.231977,-1.398023,-0.622533,-0.135656,0.9851120000000001,0.10554000000000001,0.44574899999999995,-0.863516,0.41762200000000005,1.039251,-0.9594309999999999,-0.7015939999999999
50,-2.271191,-1.416421,-0.621605,-0.117531,0.988108,0.099074,0.840368,-2.53298,0.9181729999999999,0.21874200000000002,-0.80781,-0.433379
51,-2.240224,-1.4602680000000001,-0.546363,-0.086449,0.993898,0.068409,2.2849619999999997,-1.892883,1.563035,-0.184471,-0.5406810000000001,-0.378544
52,-1.825664,-1.5105030000000002,-0.095592,-0.058203,0.998183,0.015163999999999999,3.069748,-1.6904970000000001,1.1537879999999998,-0.348352,0.168046,-0.390545
53,-0.652928,-1.508166,1.12564,-0.037965,0.9980389999999999,-0.049638,3.2833660000000005,-3.100444,1.115426,-0.245711,0.39958899999999997,-0.5182329999999999
54,-0.102246,-1.45535,1.754541,-0.011752,0.993343,-0.11453800000000001,3.6493660000000006,-3.391834,2.0049799999999998,0.148974,1.4673040000000002,0.59107
55,0.179336,-1.372436,2.044023,0.035146,0.980391,-0.193875,4.086448000000001,1.770189,2.500278,-0.45293199999999995,0.8863690000000001,0.523999
56,0.360477,-1.284347,2.172741,0.099655,0.959253,-0.264373,3.6499639999999998,2.681606,2.726797,-0.721374,1.476736,-0.5549930000000001
57,0.45053699999999997,-1.1935950000000002,2.260508,0.16038,0.9296989999999999,-0.331557,3.126217,0.193472,2.82674,-0.348536,2.076298,-0.180315
58,0.5092760000000001,-1.132383,2.278693,0.20695999999999998,0.9054260000000001,-0.370625,2.384688,2.685619,1.7576189999999998,0.750498,0.850174,-0.173533
59,0.576117,-1.066396,2.318514,0.263275,0.8754649999999999,-0.405267,2.293735,0.744306,2.7294169999999998,0.312882,0.66079,0.136514
60,0.602825,-1.004147,2.3601900000000002,0.304352,0.8437040000000001,-0.442184,1.774587,-1.234593,2.551001,0.41680900000000004,0.5432130000000001,0.305237
61,0.595487,-0.957075,2.405134,0.323034,0.817511,-0.47678000000000004,0.8929239999999999,-2.489814,2.331739,-0.097173,0.36175,0.6748850000000001
62,0.578833,-0.9321959999999999,2.443413,0.326077,0.8029310000000001,-0.49896899999999994,0.168626,-2.476066,1.121708,-0.310483,-0.10806099999999999,0.520667
63,0.548922,-0.9376950000000001,2.466759,0.3087,0.806196,-0.504724,-1.251127,-2.056581,0.28124499999999997,-0.6078180000000001,-0.465605,0.6373989999999999
64,0.559592,-0.9722,2.506373,0.299117,0.8261270000000001,-0.47753199999999996,-2.487568,-0.47017700000000007,-0.296651,-0.8917069999999999,-1.6605849999999998,1.107338
65,0.6242310000000001,-1.038442,2.5546580000000003,0.296654,0.861614,-0.41183800000000004,-4.070398,2.327803,-0.929793,-0.764305,-1.9696619999999998,1.458439
66,0.7523529999999999,-1.114106,2.621745,0.301342,0.897517,-0.321946,-3.44066,3.6704489999999996,-1.30847,-0.783107,-2.209193,1.035508
67,0.832894,-1.1670120000000002,2.653207,0.290692,0.919581,-0.264312,-1.7918619999999998,1.7689270000000001,-1.404543,-0.373227,-0.998408,-0.152162
68,0.8411360000000001,-1.1942540000000001,2.6484669999999997,0.274081,0.929942,-0.245112,-0.12649200000000002,-0.050121,-0.8286950000000001,0.079664,-0.10547899999999999,-1.696493
69,0.841046,-1.1836010000000001,2.624367,0.281427,0.9259719999999999,-0.251727,0.648324,2.700175,0.690068,0.494788,0.5710529999999999,-1.479916
70,0.945556,-1.176144,2.663103,0.311741,0.9231299999999999,-0.22503,-1.007228,2.852464,0.5383720000000001,-0.864201,-0.582585,1.391473
71,1.035225,-1.195024,2.728143,0.31559299999999996,0.9302239999999999,-0.187281,-1.474535,1.149373,-0.458293,-1.422984,-0.07588500000000001,0.11831099999999999
72,0.8470040000000001,-1.2071459999999998,2.6138310000000002,0.266507,0.9346049999999999,-0.235539,4.148668,-7.002362,-2.338845,-2.0219549999999997,2.240108,-5.269786
73,0.759238,-1.189136,2.497026,0.256382,0.928048,-0.27016,0.9707819999999999,1.837641,-0.472004,0.174678,0.120277,1.8004799999999999
74,0.717212,-1.201442,2.430895,0.237281,0.9325610000000001,-0.272065,-0.25366500000000003,1.408872,-1.9402669999999997,-0.320456,-0.462559,0.9353799999999999
75,0.6897770000000001,-1.2458879999999999,2.387274,0.203132,0.94768,-0.246232,-1.888382,0.084378,-2.032241,-0.19509100000000001,0.534223,1.111452
76,0.698922,-1.316461,2.412378,0.161866,0.967831,-0.19259500000000002,-3.355175,-0.9220209999999999,-1.8980560000000002,0.278426,1.819294,0.799208
77,0.786007,-1.3890049999999998,2.493831,0.127896,0.9835209999999999,-0.12774000000000002,-2.979318,1.357129,-1.8225069999999999,0.817829,1.129302,-0.162726
78,0.8996639999999999,-1.4524270000000001,2.6047849999999997,0.092442,0.9930030000000001,-0.073408,-2.928646,-0.884447,-1.8075299999999999,0.352504,0.9070520000000001,-0.20099
79,1.425577,-1.50563,3.140431,0.064342,0.997877,-0.00941,-3.228227,0.402395,-1.279297,0.009709,1.049562,-0.41382299999999994
80,2.511606,-1.520375,-2.0802869999999998,0.029617,0.9987290000000001,0.040621,-2.031223,1.134941,-1.9587419999999998,-0.213394,0.9469190000000001,-0.9468260000000001
81,-2.985909,-1.493863,-1.3122989999999999,-0.011903,0.997042,0.07584,-1.6352440000000001,1.2228350000000001,-1.904814,0.18998900000000002,0.614866,-0.645191
82,-2.670074,-1.4587290000000002,-1.036331,-0.050771,0.993727,0.099574,-1.034295,2.469373,-1.668273,0.624562,0.279802,-0.414638
83,-2.527729,-1.42865,-0.9393809999999999,-0.081576,0.989914,0.11576199999999999,-0.9607399999999999,1.9147040000000002,-1.018637,0.668093,-0.607102,-0.714974
84,-2.5097869999999998,-1.412095,-0.9382149999999999,-0.093309,0.987433,0.127492,-0.37608,0.17489200000000002,-0.140655,1.001665,-1.089118,-0.8411299999999999
85,-2.526768,-1.418236,-0.94352,-0.08763,0.9883850000000001,0.1241,0.456818,-1.030721,0.39868200000000004,0.856261,-1.201642,-0.42018199999999994
86,-2.587554,-1.4387159999999999,-0.965067,-0.06926,0.99129,0.111949,1.132906,-2.230464,0.9379850000000001,0.49752799999999997,-1.1178620000000001,-0.44849700000000003
87,-2.657139,-1.485791,-1.003415,-0.039501,0.996389,0.075057,2.335317,-1.232185,1.4642600000000001,0.00256,-0.755926,-0.561599
88,-2.5825150000000003,-1.54742,-0.90599,-0.012237999999999999,0.999727,0.019559,3.112575,-1.152793,1.1833040000000001,-0.433151,-0.23120300000000002,-0.483808
89,0.131797,-1.5168270000000001,1.840323,0.007073,0.9985440000000001,-0.053357,3.902248,-2.038868,0.9731069999999999,-0.134438,0.19611199999999998,-0.111026
90,0.21523299999999998,-1.437065,1.978303,0.028467000000000003,0.9910709999999999,-0.13021300000000002,3.694746,-2.882521,1.6734919999999998,0.147619,0.6161979999999999,0.059916
91,0.33650399999999997,-1.348933,2.140765,0.072649,0.9754889999999999,-0.207682,4.007791,-0.952401,3.038393,0.457502,1.897787,0.702403
92,0.452268,-1.248507,2.2289790000000003,0.13840999999999998,0.9485129999999999,-0.284879,4.124612,2.9864889999999997,3.061935,-0.753736,0.8595010000000001,0.34213000000000005
93,0.562699,-1.1526299999999998,2.294641,0.216629,0.9138350000000001,-0.343464,3.417298,0.5224979999999999,3.6765160000000003,-1.040405,1.410887,-0.8957629999999999
94,0.591075,-1.079548,2.321371,0.262866,0.8817450000000001,-0.391687,2.8049180000000002,1.142004,1.66746,0.452679,0.960098,-0.106833
95,0.628076,-1.008148,2.329452,0.31343200000000004,0.8458450000000001,-0.431622,2.5814630000000003,1.31987,2.667664,0.369139,0.7350409999999999,0.013591999999999998
96,0.664686,-0.942792,2.365907,0.362392,0.8092020000000001,-0.462446,1.6538869999999999,-0.589427,2.753362,0.285298,0.696261,0.09220700000000001
97,0.660483,-0.895043,2.4083349999999997,0.383731,0.7802359999999999,-0.493939,0.798538,-2.366964,2.327718,-0.12440799999999999,0.30944,0.723813
98,0.6443800000000001,-0.86445,2.453834,0.389888,0.760738,-0.5189,0.14086700000000002,-2.46505,1.853232,0.07310900000000001,0.307697,0.651087
99,0.613349,-0.8570120000000001,2.480228,0.376848,0.75589,-0.535359,-0.503551,-2.730745,0.393084,-0.559922,-0.64389,0.630452
100,0.584558,-0.887667,2.495751,0.348325,0.775601,-0.526408,-2.3257470000000002,-1.163774,-0.6770550000000001,-0.990827,-1.472561,0.883403
101,0.6277729999999999,-0.9554090000000001,2.5375349999999997,0.339055,0.81655,-0.46720500000000004,-4.1588389999999995,1.499892,-1.071423,-0.991231,-1.7590400000000002,1.031551
102,0.750949,-1.046692,2.603993,0.341459,0.865772,-0.365834,-4.67028,4.247674,-1.8017029999999998,-1.051771,-2.036396,1.1487020000000001
103,0.8689100000000001,-1.127099,2.6457450000000002,0.327801,0.903171,-0.27716199999999996,-2.519564,3.4073089999999997,-2.367784,-0.263135,-1.0920290000000001,0.17473
104,0.8869319999999999,-1.172049,2.625794,0.30094699999999996,0.9215479999999999,-0.245294,-0.242763,0.591554,-1.6208129999999998,0.22964600000000002,-0.09256900000000001,-1.6117920000000001
105,0.8219350000000001,-1.158548,2.567164,0.293468,0.916222,-0.27276999999999996,1.377717,0.35136300000000004,0.560372,0.753789,0.691657,-1.816845
106,0.917932,-1.138466,2.6023509999999996,0.332812,0.907992,-0.254512,-0.35091700000000003,3.7776589999999994,1.432668,0.175763,0.276517,1.3276629999999998
107,1.0095809999999998,-1.142056,2.659864,0.351946,0.9094899999999999,-0.22124899999999997,-1.312482,1.434118,-0.14560499999999998,-1.376802,-0.184347,0.926525
108,0.9393370000000001,-1.170479,2.6290009999999997,0.31455,0.9209370000000001,-0.23004699999999997,1.6417580000000003,-7.653134,-2.590531,-1.981069,1.013663,-3.534953
109,0.754726,-1.1518950000000001,2.478592,0.27865700000000004,0.913536,-0.296298,1.8955060000000001,3.022087,-0.17117000000000002,0.095321,-0.181145,2.324419
110,0.784646,-1.15193,2.451604,0.287373,0.91355,-0.287806,-0.037846,2.133181,-1.041318,-0.006474,-0.603751,0.592692
111,0.762475,-1.188399,2.4014159999999998,0.257727,0.927773,-0.269822,-0.908442,-0.071322,-2.304008,-0.061026,-0.47771499999999995,0.532243
112,0.731038,-1.24892,2.395911,0.211196,0.948644,-0.235502,-2.808112,-1.659084,-1.864452,0.624559,1.562892,0.845701
113,0.7737390000000001,-1.309167,2.4498349999999998,0.18073599999999998,0.9659700000000001,-0.185,-2.335271,0.464949,-1.4440600000000001,0.47198900000000005,0.762729,0.09915399999999999
114,0.821836,-1.357415,2.495317,0.155075,0.9773200000000001,-0.14416700000000002,-2.341371,-0.516705,-1.305044,0.167496,0.478048,-0.23730300000000001
115,0.964248,-1.422356,2.647173,0.121478,0.9890030000000001,-0.084281,-3.368325,0.026887,-1.821388,-0.084506,0.9057569999999999,-0.073099
116,1.305142,-1.482008,2.971651,0.085483,0.9960610000000001,-0.023259000000000002,-2.522944,1.339302,-2.020127,-0.11548199999999999,0.9831409999999999,-0.752666
117,2.085715,-1.5221719999999999,-2.558579,0.042168000000000004,0.998818,0.02386,-2.307475,1.462545,-2.124534,0.302406,0.7796850000000001,-0.680873
118,3.137818,-1.509772,-1.54566,0.00022999999999999998,0.9981389999999999,0.060858,-1.4793690000000002,2.241589,-1.859101,0.702331,0.712997,-0.41480100000000003
119,-2.7705990000000003,-1.478983,-1.214645,-0.033208,0.9957879999999999,0.085365,-1.1929969999999999,2.1861479999999998,-1.297282,0.673375,-0.295211,-0.6279520000000001
120,-2.6356479999999998,-1.45611,-1.109091,-0.055425,0.993431,0.100036,-0.504691,0.862764,-0.751326,0.939107,-1.1016,-0.720229
121,-2.5693509999999997,-1.45412,-1.041651,-0.063001,0.993201,0.097807,0.468587,-0.366018,-0.13406700000000002,1.125776,-1.14527,-0.730772
122,-2.572797,-1.4700600000000001,-1.026011,-0.054123000000000004,0.99493,0.084663,0.819975,-1.3952,0.656986,0.885086,-1.1591,-0.402336
123,-2.673937,-1.50569,-1.094778,-0.029274,0.9978809999999999,0.057966,1.8277889999999999,-1.557876,1.303031,0.0033490000000000004,-0.5898,-0.595396
124,-3.109552,-1.5606440000000001,-1.497486,-0.0003,0.999948,0.009367,2.796484,-1.7383549999999999,1.3741219999999998,-0.16805,-0.552454,-0.595076
125,0.379806,-1.508917,2.027289,0.022885,0.998086,-0.05732999999999999,3.5865519999999997,-1.8583610000000002,1.129831,-0.218427,-0.344049,-0.181592
126,0.309527,-1.4291200000000002,1.9987970000000002,0.042998,0.989981,-0.13445,3.7821019999999996,-2.287082,1.346458,-0.064345,0.20386700000000002,-0.061915
127,0.345798,-1.350472,2.082145,0.074067,0.975827,-0.205585,3.5472660000000005,-1.930611,2.4467659999999998,0.37564000000000003,1.2608979999999999,0.279147
128,0.43952299999999994,-1.257061,2.184859,0.13130999999999998,0.9511870000000001,-0.27926599999999996,3.805107,0.780189,3.103118,-0.11287799999999999,1.495895,0.673828
129,0.553238,-1.1672209999999998,2.251902,0.20634,0.9196629999999999,-0.334117,3.1558650000000004,3.036644,3.348861,-0.711849,1.297104,-0.22250799999999998
130,0.598213,-1.083252,2.305025,0.263815,0.8834860000000001,-0.38709899999999997,2.5617509999999997,-1.06126,3.012404,-0.740606,1.451292,-0.10330299999999999
131,0.620223,-1.022646,2.321283,0.302872,0.85349,-0.424045,2.2872209999999997,1.218913,1.799405,0.615081,0.599055,0.044971
132,0.666036,-0.962299,2.34481,0.353194,0.820508,-0.44945799999999997,1.79888,0.858553,2.5623709999999997,0.588029,0.559329,0.014247
133,0.6890350000000001,-0.91141,2.38455,0.38950300000000004,0.7903680000000001,-0.472861,0.857029,-1.167876,2.382132,0.29844,0.337027,0.432501
134,0.681549,-0.881136,2.428639,0.40084699999999995,0.771462,-0.494125,-0.025013,-2.450177,1.743091,-0.168624,-0.0037619999999999997,0.598526
135,0.660342,-0.8696659999999999,2.466991,0.395681,0.764113,-0.50947,-0.525936,-2.589309,1.008038,-0.333136,-0.223235,0.5689489999999999
136,0.636286,-0.8890889999999999,2.495802,0.374421,0.7764979999999999,-0.5068050000000001,-1.927273,-1.8453,-0.28457,-0.8251040000000001,-0.919,0.807312
137,0.665814,-0.9516549999999999,2.535947,0.358469,0.814377,-0.45637799999999995,-4.019173,1.073976,-1.238686,-0.968774,-1.6568150000000001,1.1848940000000001
138,0.7762720000000001,-1.0420280000000002,2.6006709999999997,0.353437,0.8634290000000001,-0.359948,-4.491708,3.57295,-1.853007,-0.974988,-1.8726450000000001,1.0134809999999999
139,0.8844620000000001,-1.117709,2.646318,0.338617,0.8991,-0.277392,-2.518576,2.853727,-2.190816,-0.30042399999999997,-1.029517,0.287738
140,0.910063,-1.170712,2.640597,0.30751100000000003,0.9210280000000001,-0.23902199999999998,-1.054574,0.773555,-1.939711,-0.009767,-0.392006,-0.9179299999999999
141,0.8686719999999999,-1.182621,2.595632,0.288962,0.925601,-0.244441,0.983099,0.279323,-0.259486,0.44323100000000004,0.203381,-1.525167
142,0.926005,-1.167758,2.603457,0.31345500000000004,0.919874,-0.235724,-0.066115,3.10406,1.008227,0.156897,0.464571,0.5371
143,1.005914,-1.168317,2.6637720000000003,0.330837,0.920093,-0.209675,-1.562865,0.144818,0.152328,-1.264095,-0.245944,0.854893
144,1.001011,-1.196572,2.689702,0.307786,0.930791,-0.197187,0.21806399999999998,-4.458296,-1.9070259999999999,-1.801651,1.250941,-2.803026
145,0.788502,-1.181999,2.511018,0.268867,0.925366,-0.267203,2.543708,2.119907,-0.49343000000000004,0.172402,0.14821199999999998,2.307914
146,0.776035,-1.168268,2.456543,0.27439,0.920074,-0.279577,0.893267,2.070498,-0.559375,-0.0036229999999999995,-0.644057,0.614767
147,0.7685029999999999,-1.189986,2.3895,0.258324,0.928364,-0.267204,-0.174206,1.736692,-2.201851,-0.268074,-0.923328,0.570137
148,0.708745,-1.245034,2.348484,0.20829,0.947407,-0.24294699999999997,-2.694753,-2.148252,-2.177091,0.198707,1.4082139999999999,0.947781
149,0.7534029999999999,-1.321183,2.423871,0.168982,0.969008,-0.18015599999999998,-3.480431,-0.229343,-1.5836290000000002,0.7573340000000001,1.34691,0.440853
150,0.8354020000000001,-1.3779139999999999,2.4693259999999997,0.142124,0.981456,-0.128577,-1.9517509999999998,1.7928529999999998,-1.652454,0.550625,0.578816,-0.23882399999999998
151,0.970773,-1.438266,2.607703,0.109017,0.991231,-0.074586,-3.159348,-0.370556,-1.7125970000000001,0.21416500000000002,0.8727520000000001,-0.07484299999999999
152,1.4687059999999998,-1.494137,3.097268,0.07609199999999999,0.9970629999999999,-0.007795000000000001,-2.965814,1.2633969999999999,-1.835116,-0.06068099999999999,1.065849,-0.775087
153,2.417842,-1.524586,-2.257945,0.030483999999999997,0.9989319999999999,0.034495,-1.858941,0.8483379999999999,-2.360964,0.139758,1.05986,-0.861857
154,-2.954923,-1.49957,-1.3788,-0.013188,0.9974639999999999,0.069825,-1.540089,2.148515,-1.9737060000000002,0.635761,0.7353390000000001,-0.556656
155,-2.628135,-1.465998,-1.095378,-0.051347000000000004,0.9945139999999999,0.091055,-1.000041,2.126879,-1.560777,0.649857,-0.05454199999999999,-0.523718
156,-2.508929,-1.4395639999999998,-1.009475,-0.077341,0.991401,0.105484,-0.680532,1.276062,-0.85777,0.651621,-0.530403,-0.630402
157,-2.488628,-1.431818,-0.9947940000000001,-0.084131,0.990358,0.10999,0.088736,-0.24908400000000003,-0.009751000000000001,1.082834,-1.062181,-0.774571
158,-2.513293,-1.4459549999999999,-1.002038,-0.073151,0.992217,0.100688,0.6835319999999999,-1.332021,0.69334,0.646134,-1.32138,-0.397471
159,-2.595683,-1.478141,-1.048597,-0.047996,0.995711,0.07900700000000001,1.646363,-1.7364959999999998,1.373564,0.620979,-1.324873,-0.37579
160,-2.725567,-1.533591,-1.149494,-0.014957,0.999308,0.033854,2.653085,-1.383969,1.588441,-0.20629499999999998,-0.369242,-0.629436
161,0.41713900000000004,-1.538231,2.018038,0.013113,0.9994700000000001,-0.029589999999999998,3.471689,-1.166073,1.267004,-0.279104,-0.320316,-0.382351
162,0.323498,-1.457663,1.9524080000000001,0.03587,0.993607,-0.10698699999999998,4.010205,-1.635861,1.333324,-0.271878,-0.24044899999999997,-0.088494
163,0.36614,-1.373659,2.028047,0.070111,0.9806309999999999,-0.182853,3.550935,-1.3436780000000002,2.45458,0.685779,1.60111,0.26725
164,0.489976,-1.2808629999999999,2.1740909999999998,0.13453199999999998,0.9582629999999999,-0.252236,3.4850849999999998,-0.314745,4.138455,1.045613,2.757725,0.42939099999999997
165,0.620017,-1.181473,2.271027,0.22053699999999998,0.9251659999999999,-0.308904,3.3515650000000003,3.054641,3.742236,0.808607,2.562734,0.616842
166,0.69645,-1.088638,2.332573,0.297452,0.8859959999999999,-0.355702,2.454108,-1.035935,3.9666040000000002,-0.797696,1.308019,-0.48360699999999995
167,0.705394,-1.013276,2.354007,0.343018,0.84857,-0.402816,2.7166509999999997,0.37507199999999996,2.263884,0.022857,1.1516899999999999,0.134902
168,0.745169,-0.942723,2.374852,0.398436,0.809161,-0.431856,1.922206,1.1443290000000002,3.185634,0.198778,0.704862,-0.036314
169,0.782235,-0.8803200000000001,2.4179880000000002,0.448929,0.770943,-0.45177799999999996,0.961226,-0.655021,2.978265,-0.081375,0.166389,0.44364499999999996
170,0.778188,-0.8408629999999999,2.462782,0.46809799999999996,0.745219,-0.474897,0.034931,-2.227386,1.922679,-0.25272,-0.072779,0.425489
171,0.758995,-0.82795,2.497366,0.46548100000000003,0.736546,-0.490734,-0.520119,-2.136057,0.878237,-0.073742,-0.16451,0.37604899999999997
172,0.731896,-0.844699,2.513209,0.44370600000000004,0.747771,-0.49391899999999994,-1.333473,-1.842672,-0.6543100000000001,-0.9774280000000001,-0.860778,1.0580829999999999
173,0.735317,-0.895452,2.53095,0.419372,0.780492,-0.46363000000000004,-2.882321,0.575209,-1.633899,-1.162887,-1.270253,1.144172
174,0.803917,-0.9721,2.558539,0.40580700000000003,0.8260709999999999,-0.391049,-3.3334010000000003,3.349965,-2.235605,-1.222641,-1.888693,1.204281
175,0.888491,-1.040132,2.5755630000000003,0.392793,0.8624709999999999,-0.319137,-1.9525259999999998,3.015702,-2.159302,0.327529,-0.979353,-0.01001
176,0.912537,-1.081582,2.568942,0.371736,0.882703,-0.287471,-0.779094,0.487835,-1.3210620000000002,0.438705,-0.674908,-0.848134
177,0.9348629999999999,-1.086215,2.59575,0.374767,0.88487,-0.276669,-1.288646,0.759393,1.003754,1.303029,1.424075,0.268948
178,1.064346,-1.08646,2.6924770000000002,0.40716399999999997,0.884984,-0.225856,-1.56316,1.998766,1.127367,0.389757,0.752437,0.9213370000000001
179,1.114741,-1.0889440000000001,2.7393549999999998,0.416049,0.8861379999999999,-0.20409000000000002,-1.00051,-0.08408500000000001,-0.098762,-2.0455650000000003,-0.8806290000000001,-1.160824
180,0.945033,-1.105866,2.68186,0.36339499999999997,0.8938530000000001,-0.262606,2.8383950000000002,-12.145951,-2.95244,-2.5908729999999998,0.482917,-4.400663
181,0.734472,-1.110387,2.474125,0.297772,0.8958709999999999,-0.329757,1.518371,8.18442,-2.5038080000000003,-0.9916959999999999,2.031864,3.28514
182,0.847134,-1.131656,2.453579,0.318602,0.905118,-0.281507,-0.561153,4.105007,-0.8520209999999999,-0.125578,-0.7145050000000001,0.614408
183,0.804841,-1.156435,2.388244,0.290157,0.915374,-0.279088,0.17919300000000002,-0.728023,-2.5882680000000002,0.068989,-1.128615,0.844548
184,0.747639,-1.21517,2.358726,0.23671999999999999,0.9374290000000001,-0.255307,-2.813253,-1.542281,-2.02915,0.59731,1.512614,1.055218
185,0.816603,-1.278033,2.437855,0.210325,0.95745,-0.19759100000000002,-2.848479,1.154133,-0.984926,0.858798,2.32795,0.673254
186,0.918048,-1.3229309999999999,2.498027,0.194881,0.9694379999999999,-0.14899600000000002,-2.1064849999999997,1.035189,-1.452813,0.93047,0.747984,-0.251715
187,1.033109,-1.3913959999999999,2.644187,0.15323399999999998,0.983951,-0.09137200000000001,-3.434244,-1.525325,-2.001463,-0.104894,0.989941,-0.09649400000000001
188,1.321291,-1.448144,2.9347849999999998,0.11850999999999999,0.9924879999999999,-0.030198000000000003,-2.871394,0.9274370000000001,-1.814804,-0.333278,1.133626,-0.616607
189,1.799741,-1.4983790000000001,-2.906804,0.070383,0.9973790000000001,0.016401,-1.7966490000000002,2.088161,-2.638793,-0.137186,1.122052,-0.782637
190,2.6942369999999998,-1.514626,-2.048855,0.024237,0.998423,0.050515,-1.450366,1.964863,-1.9429400000000001,0.65156,0.896963,-0.697259
191,-2.991216,-1.495689,-1.4877049999999998,-0.011229000000000001,0.997181,0.07410599999999999,-1.076366,1.7755580000000002,-1.546979,0.925428,-0.368473,-0.738016
192,-2.745085,-1.470947,-1.261672,-0.038473,0.9950190000000001,0.09189,-0.72138,0.571653,-1.0205959999999998,0.9005639999999999,-0.9112180000000001,-0.83954
193,-2.709511,-1.465151,-1.2249079999999999,-0.044131000000000004,0.994425,0.0957,0.149616,-0.40826599999999996,0.053897,0.813113,-1.232157,-0.7637
194,-2.754084,-1.47745,-1.247547,-0.035196,0.9956459999999999,0.086235,0.691543,-1.6327690000000001,0.507905,0.5767,-1.234858,-0.392326
195,-2.9091169999999997,-1.510643,-1.369278,-0.013826,0.9981909999999999,0.058397000000000004,1.949159,-1.446157,1.2342950000000001,0.331331,-1.0341719999999999,-0.45608699999999996
196,2.259506,-1.553042,-2.458913,0.01344,0.999842,0.011063,2.626935,-1.09822,1.281313,-0.364651,-0.471995,-0.504075
197,0.5846,-1.506559,2.1647380000000003,0.035377,0.9979379999999999,-0.053459000000000007,3.5245300000000004,-0.816901,1.014825,-0.34507,-0.28179699999999996,-0.142708
198,0.412217,-1.429665,2.015694,0.05634,0.990057,-0.12884600000000002,3.671504,-1.480332,1.3606690000000001,-0.24690700000000002,-0.033926,-0.124771
199,0.419609,-1.353314,2.069631,0.087897,0.9764440000000001,-0.19703199999999998,3.388378,-2.576864,2.494549,0.7984100000000001,1.477948,0.163661
200,0.489966,-1.2570860000000001,2.16546,0.145214,0.9511950000000001,-0.272271,3.8498309999999996,0.318759,3.374276,0.139713,1.418159,0.728051
201,0.595569,-1.162939,2.222608,0.222503,0.9179729999999999,-0.328345,3.065746,2.953655,3.137892,-0.596695,0.8671840000000001,0.67774
202,0.635829,-1.088496,2.2599150000000003,0.275431,0.8859299999999999,-0.373172,2.41241,-0.502106,2.3750459999999998,0.262579,1.573695,0.141986
203,0.63218,-1.0247190000000002,2.250095,0.30687600000000004,0.854568,-0.41896700000000003,2.814843,0.581333,1.7472860000000001,0.612481,0.730927,0.027395
204,0.650313,-0.9559469999999999,2.264581,0.349233,0.816861,-0.459095,2.244145,0.024898,2.597522,0.488947,0.734058,0.087788
205,0.653907,-0.901625,2.2984169999999997,0.377343,0.7843359999999999,-0.49236499999999994,1.063519,-2.0418950000000002,2.329141,0.25449299999999997,0.5139279999999999,0.5184270000000001
206,0.6313,-0.868023,2.341801,0.38146199999999997,0.763053,-0.521759,0.289593,-2.9963990000000003,1.93933,-0.165824,0.363229,0.7024229999999999
207,0.60446,-0.8497600000000001,2.382716,0.375181,0.7511220000000001,-0.543185,-0.21629400000000001,-2.7786869999999997,1.4804549999999999,-0.285657,0.191307,0.659381
208,0.580662,-0.8526219999999999,2.418936,0.360968,0.753008,-0.5501590000000001,-1.251442,-2.307129,0.33816799999999997,-0.778937,-0.799395,0.650547
209,0.588128,-0.8951120000000001,2.453337,0.34699,0.780279,-0.520343,-3.11741,0.066112,-0.392547,-0.854558,-1.3857629999999999,0.773242
210,0.670273,-0.968219,2.513383,0.352073,0.8238770000000001,-0.444144,-4.345651999999999,2.584374,-0.912827,-0.823569,-1.554728,0.8805459999999999
211,0.803029,-1.04835,2.5815189999999997,0.359008,0.8666010000000001,-0.346567,-3.844781,4.148148,-1.5982020000000001,-0.639556,-1.697595,0.6743859999999999
212,0.896359,-1.108563,2.614194,0.348304,0.895059,-0.278469,-1.74765,2.544378,-1.685116,-0.047431,-0.5503779999999999,-0.8318969999999999
213,0.8917209999999999,-1.124275,2.5884240000000003,0.336022,0.901955,-0.271215,1.0277889999999998,0.0022660000000000002,-0.27271599999999996,0.339683,-0.071175,-1.4666700000000001
214,0.912949,-1.094909,2.569477,0.36251300000000003,0.8888860000000001,-0.2801,0.9089379999999999,3.553666,1.483401,0.26150999999999996,0.916121,0.351115
215,0.997181,-1.0823450000000001,2.6083439999999998,0.39414299999999997,0.8830610000000001,-0.25464899999999996,-1.304569,0.604403,0.352223,-0.801446,0.564129,1.035242
216,0.933757,-1.093386,2.590943,0.36935,0.8881879999999999,-0.273302,2.030152,-4.317261,-0.916067,-0.957485,1.991756,-2.019957
217,0.8509,-1.073724,2.534002,0.358528,0.8789819999999999,-0.314388,0.9890100000000001,-0.318244,-0.273644,-1.1231309999999999,-1.287185,1.27386
218,0.8472209999999999,-1.083911,2.478136,0.350639,0.8837950000000001,-0.30976,-0.049662,3.757536,-1.7773599999999998,-0.881584,-0.09312999999999999,1.103491
219,0.885768,-1.13426,2.435235,0.327411,0.906222,-0.267499,-1.219718,3.094296,-2.9992509999999997,-0.714816,0.117704,0.9692350000000001
220,0.843334,-1.209991,2.3950240000000003,0.263654,0.9356129999999999,-0.234746,-2.326734,-2.085386,-3.293039,-0.09260299999999999,1.154414,0.381002
221,0.832142,-1.278568,2.416056,0.21299099999999999,0.9576040000000001,-0.193955,-2.0548669999999998,-0.70189,-1.858291,1.237128,1.449195,0.441758
222,0.816999,-1.330869,2.422118,0.173239,0.971355,-0.16262200000000002,-2.4470110000000003,-1.498607,-1.811939,0.639688,0.91576,0.257807
223,0.9635879999999999,-1.400116,2.5823270000000003,0.139463,0.985469,-0.09689500000000001,-3.627396,0.311255,-1.5778809999999999,-0.022382,0.849842,0.043321
224,1.210726,-1.459073,2.81142,0.10429100000000001,0.993765,-0.039264,-2.246233,1.129796,-2.077756,-0.338376,0.964349,-0.638517
225,1.585993,-1.512046,-3.119144,0.058605,0.998275,0.000891,-1.879257,1.290607,-2.384115,0.427342,0.904832,-0.776647
226,2.836286,-1.529111,-1.8977259999999998,0.012482,0.999131,0.039604,-1.719048,1.817418,-2.13157,0.745529,0.602538,-0.588539
227,-2.744852,-1.497829,-1.237931,-0.028137,0.997339,0.06716,-1.309859,2.323665,-1.748005,0.7444609999999999,-0.069498,-0.43423999999999996
228,-2.564491,-1.463635,-1.0961889999999999,-0.058322000000000006,0.9942639999999999,0.089584,-1.068756,1.579705,-1.059569,0.478275,-1.019715,-0.802383
229,-2.536306,-1.449989,-1.08146,-0.06854099999999999,0.992712,0.09905800000000001,-0.158332,0.142424,-0.195723,0.882811,-0.982992,-0.7689189999999999
230,-2.5496689999999997,-1.452877,-1.0872620000000002,-0.065611,0.9930559999999999,0.097585,0.22324899999999998,-0.730826,0.20330399999999998,0.79286,-1.4019,-0.460592
231,-2.58335,-1.472827,-1.1009,-0.051777,0.9952049999999999,0.08290800000000001,1.29006,-0.933634,0.976931,0.6748689999999999,-1.4811969999999999,-0.48635100000000003
232,-2.6947,-1.518722,-1.193941,-0.022446,0.9986440000000001,0.046838,2.117725,-0.9630299999999999,1.482677,0.06308,-0.6378050000000001,-0.539956
233,0.804221,-1.562999,2.3235919999999997,0.005078,0.99997,-0.00489,2.874964,-1.01586,1.250889,-0.14161400000000002,-0.5170899999999999,-0.383537
234,0.366697,-1.4945950000000001,1.9155099999999998,0.027268999999999998,0.9970979999999999,-0.071,3.5438709999999998,-1.769075,1.220207,-0.14216800000000002,-0.386716,-0.08479199999999999
235,0.363763,-1.416015,1.9534189999999998,0.054839,0.9880450000000001,-0.144047,3.313739,-2.137739,1.9711,0.22209299999999998,0.237175,-0.021862
236,0.480868,-1.334191,2.115914,0.10841400000000001,0.972139,-0.20780300000000002,3.177832,-1.6648349999999998,3.970325,1.25502,2.8996869999999997,0.501352
237,0.635777,-1.2313040000000002,2.256264,0.197733,0.942924,-0.267931,3.2874220000000003,2.647656,4.077726999999999,0.22185300000000002,2.663903,0.745913
238,0.7297600000000001,-1.136738,2.31698,0.28037399999999996,0.907266,-0.313448,2.661045,-0.47775200000000007,4.060266,-0.759332,1.744574,-0.754912
239,0.737779,-1.0567739999999999,2.352159,0.33072399999999996,0.8707739999999999,-0.363822,2.592078,0.083117,2.390502,0.076686,1.0945120000000002,0.044731
240,0.772285,-0.9910370000000001,2.35983,0.382251,0.8365950000000001,-0.39241,1.8340439999999998,1.363338,2.840766,0.370648,0.712966,-0.010605
241,0.814372,-0.924076,2.408007,0.43824399999999997,0.798064,-0.41355699999999995,1.107125,-0.665197,3.266645,0.412968,0.5253,0.353224
242,0.8069970000000001,-0.873374,2.4531080000000003,0.463833,0.7665,-0.44421700000000003,0.467582,-2.827194,2.628288,-0.38313,0.23754299999999998,0.741336
243,0.7763220000000001,-0.837469,2.4986759999999997,0.46898,0.742951,-0.47757200000000005,0.064775,-3.3612849999999996,1.7438069999999999,-0.337099,0.134811,0.6843279999999999
244,0.733151,-0.836777,2.51755,0.448276,0.742488,-0.497749,-0.9896729999999999,-2.4010599999999998,0.159584,-1.271518,-0.723796,0.5852430000000001
245,0.732471,-0.8726450000000001,2.556132,0.429845,0.7660319999999999,-0.47793599999999997,-2.894318,-0.8891319999999999,-0.661097,-1.368611,-1.2841129999999998,1.106079
246,0.794656,-0.950599,2.613481,0.41475,0.813764,-0.407141,-4.541961,2.119063,-1.858982,-1.2992110000000001,-1.49632,1.2690489999999999
247,0.914607,-1.040948,2.669549,0.400435,0.862884,-0.308342,-3.501579,4.027387999999999,-2.597643,-1.098006,-1.8390490000000002,0.805077
248,0.9884149999999999,-1.109855,2.677671,0.371461,0.895634,-0.244635,-1.507482,2.549579,-2.659801,-0.364442,-1.09081,0.091834
249,0.973744,-1.153712,2.645141,0.335003,0.914274,-0.227741,0.148791,-0.273104,-1.774013,-0.143292,-0.838774,-0.565868
250,0.9185139999999999,-1.140548,2.572669,0.331458,0.9088620000000001,-0.25317199999999995,1.809575,1.968011,0.5687800000000001,1.032007,0.871533,-1.214358
251,1.0053530000000002,-1.121322,2.590569,0.36685500000000004,0.900675,-0.232791,-0.8642639999999999,3.3505589999999996,0.8004319999999999,-0.10084800000000001,0.28735900000000003,1.6433740000000001
252,1.096367,-1.1443780000000001,2.6649380000000003,0.36791999999999997,0.9104530000000001,-0.188946,-2.1662779999999997,0.62848,-0.657956,-0.927948,-0.432899,1.8361169999999998
253,1.016761,-1.180992,2.648533,0.323151,0.924983,-0.199924,2.369526,-7.706538,-2.913338,-1.201111,2.649983,-3.159573
254,0.871172,-1.166313,2.491231,0.301085,0.919306,-0.253407,1.623549,2.288189,-0.217004,0.429795,0.581427,2.1545919999999996
255,0.8344370000000001,-1.1585290000000001,2.447451,0.296869,0.916215,-0.26909299999999997,0.5344770000000001,0.890911,-0.9609620000000001,0.35253,-0.064179,1.402744
256,0.814702,-1.185806,2.37705,0.273212,0.926802,-0.257651,-0.426094,1.596489,-2.0827310000000003,-0.123676,-0.438734,0.8481209999999999
257,0.8334309999999999,-1.247766,2.4147060000000002,0.23497300000000002,0.9482780000000001,-0.213419,-3.8755309999999996,-1.859327,-1.475351,0.29128699999999996,2.012721,1.0257209999999999
258,0.99739,-1.319639,2.5945,0.20875900000000003,0.968625,-0.13481300000000002,-3.7683690000000003,1.604434,-1.439517,0.345913,1.326769,0.387728
259,1.146476,-1.375405,2.705037,0.17690799999999998,0.980972,-0.079921,-2.238874,0.72777,-1.9799810000000002,0.276964,1.0762180000000001,-0.099095
260,1.42474,-1.4320389999999998,2.990999,0.136799,0.990389,-0.020124,-3.350547,0.048695,-1.958034,0.349453,1.145033,-0.195971
261,1.867866,-1.471822,-2.867583,0.094426,0.9951059999999999,0.028907,-1.722921,1.306597,-2.255925,0.086146,1.062526,-0.9416110000000001
262,2.51602,-1.492398,-2.2418,0.045813,0.996928,0.063422,-1.628233,1.423701,-2.317374,0.25472399999999995,0.854619,-0.74047
263,3.136407,-1.4817209999999998,-1.6625900000000002,0.00046100000000000004,0.996035,0.088886,-1.0440200000000002,2.562481,-2.025264,0.658764,0.098996,-0.487675
264,-2.782439,-1.45517,-1.350425,-0.040530000000000004,0.993323,0.107955,-1.065774,2.423412,-1.5947440000000002,0.7612939999999999,-0.462225,-0.65193
265,-2.675696,-1.427076,-1.267288,-0.06432,0.98969,0.12792,-0.936858,0.425183,-0.699318,1.030232,-1.210225,-0.7540640000000001
266,-2.6787099999999997,-1.417844,-1.261475,-0.068013,0.988326,0.136286,-0.103487,-0.81067,-0.057388999999999996,1.148091,-1.2889700000000002,-0.599863
267,-2.710604,-1.423229,-1.268363,-0.061408000000000004,0.989132,0.133548,0.432364,-1.5502,0.333998,0.773429,-1.627758,-0.45822399999999996
268,-2.828773,-1.453059,-1.359313,-0.036132,0.9930770000000001,0.111713,1.7731540000000001,-1.044445,1.6299219999999999,0.178344,-0.767354,-0.864597
269,3.1415580000000003,-1.5113940000000001,-1.648136,2e-06,0.998236,0.059262,3.014992,-1.586487,1.573061,-0.296358,-0.079443,-0.536496
270,1.0589680000000001,-1.540921,2.589484,0.025873,0.999554,-0.014535,4.088977,-2.096646,1.148587,-0.286066,-0.1992,-0.175803
271,0.505053,-1.459549,2.086225,0.053693,0.993818,-0.09711399999999999,3.7718089999999997,-2.7837520000000002,1.9558959999999999,0.129459,0.41646000000000005,-0.008965
272,0.559767,-1.362358,2.187811,0.109866,0.978355,-0.17532999999999999,3.931314,-1.62053,3.960572,0.683804,1.963295,0.37606
273,0.6484,-1.245042,2.2588939999999997,0.19325799999999999,0.9474100000000001,-0.255064,4.292048,2.540807,3.8220949999999996,-0.07607,2.278314,0.7174659999999999
274,0.710754,-1.1461629999999998,2.276918,0.268776,0.9111899999999999,-0.312225,3.2317299999999998,0.719197,3.140839,-0.749336,1.987324,-0.741746
275,0.692755,-1.064166,2.27713,0.309894,0.874384,-0.37337600000000004,3.205931,-0.409684,2.287528,-0.21246700000000002,1.712759,0.11592999999999999
276,0.701049,-0.9821790000000001,2.262853,0.358118,0.831709,-0.42426899999999995,3.172482,1.628474,2.511145,0.375189,0.8872389999999999,0.29434
277,0.734826,-0.9079879999999999,2.2772229999999998,0.412551,0.788267,-0.456541,2.031069,0.301782,2.807179,0.45591800000000005,0.617495,0.218336
278,0.739402,-0.854857,2.313342,0.44226000000000004,0.7544770000000001,-0.484937,0.766271,-1.810243,2.467766,0.031968,0.415429,0.679746
279,0.718959,-0.819436,2.34951,0.44958100000000006,0.730761,-0.5136729999999999,0.395648,-2.529745,1.8347799999999999,-0.07285599999999999,0.315931,0.6782239999999999
280,0.688375,-0.80372,2.3779619999999997,0.440905,0.719943,-0.535985,-0.41025200000000006,-2.5680560000000003,0.926552,-0.803362,-0.303195,0.555104
281,0.667983,-0.829868,2.4000630000000003,0.418079,0.737842,-0.5299,-2.293725,-0.85106,-0.843893,-1.114658,-1.428043,1.080193
282,0.722687,-0.897802,2.440654,0.41226899999999994,0.781959,-0.467513,-4.003232,2.433443,-1.2905360000000001,-1.143302,-1.6890939999999999,1.274032
283,0.8546959999999999,-0.980342,2.5040150000000003,0.41998199999999997,0.8306879999999999,-0.365465,-4.095358999999999,4.643251,-1.8494869999999999,-0.9791860000000001,-2.056701,1.097933
284,0.9542860000000001,-1.047868,2.535417,0.407469,0.866361,-0.28875500000000004,-1.833431,2.528165,-2.083077,-0.528655,-1.164884,0.017911
285,0.953117,-1.0842399999999999,2.5243990000000003,0.381179,0.883948,-0.270794,-0.23851799999999998,-0.7922939999999999,-1.337018,-0.342055,-0.8342200000000001,-0.56374
286,0.909592,-1.083364,2.495043,0.369647,0.8835379999999999,-0.287599,0.56821,0.705415,0.375853,1.055234,0.870856,-0.246383
287,1.031268,-1.075993,2.5348889999999997,0.407398,0.8800620000000001,-0.243945,-1.237344,4.457177,0.643649,-0.110202,0.729603,0.8147
288,1.0814540000000001,-1.091965,2.583552,0.40666199999999997,0.887534,-0.21656599999999998,-0.515037,-1.798698,-0.635838,-0.953766,0.809609,0.31677
289,0.9315450000000001,-1.0790959999999998,2.485332,0.378894,0.881531,-0.281663,1.743959,-0.924608,-0.072113,-0.398227,0.354476,2.489732
290,0.9435969999999999,-1.0797700000000001,2.468763,0.38178,0.881849,-0.276727,0.180766,2.151564,-0.7610210000000001,-0.620061,-0.5547310000000001,1.994516
291,0.927278,-1.1099510000000001,2.411702,0.35575300000000004,0.8956770000000001,-0.266824,-0.461554,2.2419990000000003,-2.570919,-1.19848,-1.318223,0.9175200000000001
292,0.932707,-1.190639,2.3808540000000002,0.298045,0.9286059999999999,-0.221023,-2.483651,0.729358,-4.025205000000001,-0.34208099999999997,1.2510350000000001,0.646912
293,0.917307,-1.277975,2.384002,0.22916999999999998,0.957433,-0.175481,-2.682461,-1.250818,-2.83192,1.060716,2.107646,0.223104
294,0.942299,-1.3394270000000001,2.4185849999999998,0.185477,0.973353,-0.13480699999999998,-2.211922,-0.6030810000000001,-2.187462,1.2590729999999999,1.005361,0.1385
295,1.0909959999999999,-1.410046,2.586333,0.14196,0.987108,-0.07387,-3.570388,0.008029999999999999,-1.9862259999999998,0.069451,1.093108,0.010241
296,1.470828,-1.468244,2.9453840000000002,0.101813,0.9947459999999999,-0.010212,-2.514541,1.516149,-2.290568,-0.25411100000000003,1.181035,-0.8133050000000001
297,2.0973759999999997,-1.510613,-2.736573,0.051922,0.9981899999999999,0.030184,-1.825547,1.082906,-2.43582,0.068637,1.1070959999999999,-0.77405
298,3.047527,-1.507677,-1.810617,0.005915999999999999,0.998009,0.062711,-1.4249129999999999,1.526567,-2.1109869999999997,0.92574,0.613808,-0.613935
299,-2.746568,-1.480482,-1.354763,-0.034684,0.995924,0.083187,-0.856716,1.801109,-1.730287,0.9318549999999999,-0.10386500000000001,-0.505916
300,-2.580511,-1.450444,-1.219665,-0.06386,0.992766,0.101614,-1.083328,1.2142600000000001,-1.031433,0.743563,-0.59378,-0.5965630000000001
301,-2.601027,-1.434013,-1.2440209999999998,-0.070149,0.99066,0.116877,-0.469944,-0.310341,0.081483,1.182057,-0.995756,-0.876383
302,-2.687302,-1.4362549999999998,-1.313338,-0.058842,0.9909629999999999,0.12048900000000001,-0.016135,-1.3771229999999999,0.59663,0.846775,-1.4652370000000001,-0.43248500000000006
303,-2.832757,-1.454229,-1.422364,-0.035334,0.9932139999999999,0.11075,1.117696,-1.698107,1.295033,0.6706340000000001,-1.335117,-0.527361
304,3.083813,-1.498528,-1.762227,0.004164999999999999,0.99739,0.072002,2.431531,-1.474954,1.892514,-0.208648,-0.28817600000000004,-0.700863
305,1.8582889999999999,-1.532632,-2.957802,0.036445,0.9992719999999999,0.010776,3.402395,-1.550697,1.344986,-0.43749099999999996,-0.131642,-0.287448
306,0.7782279999999999,-1.478359,2.279347,0.06476,0.9957309999999999,-0.065695,3.691029,-2.047301,1.673446,-0.15912,0.22749,-0.164072
307,0.6507229999999999,-1.394247,2.2016259999999996,0.106376,0.984456,-0.13972,3.608721,-2.552491,2.870995,0.630166,2.010753,0.39957800000000004
308,0.6567029999999999,-1.287563,2.231008,0.170603,0.9601569999999999,-0.221323,4.30054,0.151278,3.577389,0.236227,2.074145,0.656503
309,0.6982510000000001,-1.180632,2.238044,0.24450500000000003,0.924847,-0.29131999999999997,3.727901,1.8757150000000002,3.3361709999999998,-0.620451,1.7833290000000002,-0.059526
310,0.712004,-1.092026,2.256807,0.30098600000000003,0.8875620000000001,-0.34875900000000004,2.973421,-0.605833,2.789288,-0.301734,1.947689,0.076588
311,0.7158399999999999,-1.014338,2.24269,0.346616,0.849131,-0.39853099999999997,3.119446,1.450685,2.263175,0.265231,0.738012,0.091753
312,0.7510859999999999,-0.9405899999999999,2.25066,0.40216199999999996,0.807906,-0.430752,2.224599,1.031131,2.730685,0.344466,0.65735,0.059033
313,0.768506,-0.883654,2.282167,0.440895,0.773062,-0.45604799999999995,0.87671,-1.318993,2.600364,0.436012,0.441065,0.442193
314,0.758721,-0.847146,2.3261220000000002,0.455534,0.749394,-0.48051099999999997,0.11451099999999999,-2.4295139999999997,2.055943,0.026719999999999997,0.209468,0.758831
315,0.73842,-0.8280649999999999,2.364036,0.45523,0.736624,-0.500145,-0.365334,-2.266783,1.205282,-0.46468999999999994,-0.107351,0.711845
316,0.723565,-0.8367049999999999,2.395654,0.44351899999999994,0.74244,-0.502063,-1.5526149999999999,-1.513254,0.010297,-0.9738540000000001,-0.790566,0.801272
317,0.749934,-0.885883,2.4325810000000003,0.431174,0.774474,-0.462895,-3.317868,0.865215,-1.048734,-1.072119,-1.483855,1.036702
318,0.8506379999999999,-0.96272,2.49863,0.42943400000000004,0.820749,-0.376763,-4.298347,3.214245,-1.5542479999999999,-1.191244,-1.831598,1.21122
319,0.969665,-1.036658,2.555133,0.41984499999999997,0.860707,-0.287929,-2.6675869999999997,3.1621740000000003,-2.199747,-0.98764,-2.096685,0.562008
320,0.996042,-1.08274,2.552721,0.39355999999999997,0.8832459999999999,-0.254907,-0.429903,0.397692,-1.72017,-0.014562,-0.575354,-1.404944
321,0.921708,-1.0858510000000001,2.4953529999999997,0.37135100000000004,0.8847,-0.281769,1.657187,-1.047692,-0.11742999999999999,0.6958479999999999,-0.06339600000000001,-1.775909
322,0.998959,-1.056833,2.4939150000000003,0.41341000000000006,0.8708030000000001,-0.26605500000000004,0.37827,6.221307,1.6322290000000002,1.2375909999999999,1.45276,-0.159024
323,1.0762260000000001,-1.04935,2.527994,0.438436,0.8671,-0.23643699999999998,-0.84391,-0.32873800000000003,-0.053568,-1.591542,1.521557,-1.278746
324,0.947607,-1.056743,2.455447,0.39927199999999996,0.8707590000000001,-0.286971,2.1090709999999997,-3.5488660000000003,-1.32991,-1.5229139999999999,1.581253,-1.59897
325,0.9137940000000001,-1.052617,2.4109689999999997,0.39218400000000003,0.8687219999999999,-0.302496,1.053275,1.377334,-0.773166,-0.806491,-0.986276,2.241843
326,0.931376,-1.082957,2.35155,0.37611,0.8833479999999999,-0.279692,-0.655259,4.235742,-2.820522,-0.641415,0.121749,0.910307
327,0.9372159999999999,-1.160501,2.302262,0.321452,0.917003,-0.236143,-1.665877,0.8467889999999999,-4.262133,-0.501139,0.581044,0.7435430000000001
328,0.864383,-1.251884,2.263315,0.23849,0.949577,-0.203507,-2.749229,-2.4095310000000003,-3.38104,1.122838,2.031883,0.275314
329,0.8518049999999999,-1.31752,2.2787290000000002,0.18853499999999998,0.968097,-0.165022,-1.9131060000000002,-1.262591,-2.152487,1.050952,0.589032,0.24734299999999998
330,0.9034129999999999,-1.385417,2.3624709999999998,0.14474700000000001,0.982866,-0.114061,-3.464108,-0.9121520000000001,-1.864668,0.581068,0.7652869999999999,0.335451
331,1.163718,-1.450148,2.615701,0.110472,0.9927309999999999,-0.047631,-2.857869,1.0543129999999998,-1.8490659999999999,-0.281477,1.151694,-0.660331
332,1.5034459999999998,-1.503168,2.938702,0.067324,0.997714,-0.004541,-1.83312,0.639563,-2.3808290000000003,0.318968,0.837674,-0.8711909999999999
333,2.562513,-1.531719,-2.2951639999999998,0.021281,0.999237,0.032546,-1.7338930000000001,0.784583,-2.236111,0.574545,0.598206,-0.7300260000000001
334,-2.805571,-1.506084,-1.4050129999999998,-0.021286000000000003,0.997907,0.060946,-1.234048,1.418762,-1.9556950000000002,0.768494,0.078234,-0.383944
335,-2.5532060000000003,-1.470364,-1.1828809999999998,-0.055608000000000005,0.9949610000000001,0.083343,-1.2872270000000001,1.562547,-1.370865,0.5552729999999999,-0.8139460000000001,-0.71141
336,-2.55245,-1.444512,-1.196144,-0.069952,0.9920370000000001,0.10466900000000001,-0.8347120000000001,-0.032267000000000004,-0.142546,0.712408,-1.135805,-0.8682340000000001
337,-2.637786,-1.445476,-1.267327,-0.060313,0.992158,0.10941,0.10684300000000001,-1.046363,0.626972,1.026622,-1.076966,-0.745625
338,-2.77375,-1.462466,-1.368315,-0.038855,0.994138,0.10082,0.8984129999999999,-1.998111,1.1197620000000001,0.663061,-1.520627,-0.392477
339,-3.138949,-1.506481,-1.7076349999999998,-0.00016999999999999999,0.9979319999999999,0.064158,2.319817,-1.1474950000000002,2.151957,0.3743,-1.032799,-0.528514
340,1.676718,-1.5293290000000002,3.131234,0.041066000000000005,0.9991399999999999,0.004366,3.3786620000000003,-1.260017,1.934102,-0.29349200000000003,-0.06752999999999999,-0.303667
341,0.869034,-1.46438,2.3530900000000003,0.081073,0.994343,-0.06853200000000001,3.3302660000000004,-2.031107,2.199672,-0.078525,0.635418,-0.437953
342,0.748892,-1.38158,2.286341,0.12803699999999998,0.982152,-0.137744,3.3984370000000004,-2.698159,2.986145,0.111008,0.8698530000000001,-0.079786
343,0.7224149999999999,-1.278416,2.278034,0.19056700000000001,0.9575610000000001,-0.21622199999999997,4.2125449999999995,0.635687,3.4618510000000002,-0.11003099999999999,1.372365,0.8228200000000001
344,0.76961,-1.175362,2.273209,0.268042,0.9228290000000001,-0.276642,3.3224970000000003,2.428646,3.409539,-0.6212979999999999,1.604285,-0.54715
345,0.797186,-1.092745,2.284903,0.32910900000000004,0.887893,-0.321441,2.774843,0.550582,2.54927,-0.562615,2.117554,-0.387544
346,0.800539,-1.019069,2.259288,0.3762,0.85162,-0.364977,3.0792479999999998,1.374854,2.348446,0.476415,0.652027,0.08113300000000001
347,0.821081,-0.945348,2.258205,0.42848400000000003,0.810701,-0.398947,2.215071,0.8233889999999999,2.7436990000000003,0.38351199999999996,0.594176,0.205862
348,0.826988,-0.885048,2.275943,0.466004,0.773945,-0.42876899999999996,1.29574,-1.2974450000000002,2.44303,0.342147,0.501735,0.469616
349,0.802129,-0.8406629999999999,2.30227,0.47943900000000006,0.745085,-0.463659,0.712062,-2.696648,2.008116,-0.135536,0.268754,0.690756
350,0.7635569999999999,-0.812808,2.329572,0.47537399999999996,0.72622,-0.49660699999999997,-0.00967,-2.980229,1.357164,-0.799547,-0.429666,0.651804
351,0.730432,-0.811973,2.3579220000000003,0.459071,0.725646,-0.512529,-1.069775,-2.414638,0.164376,-0.9021399999999999,-0.80429,0.788011
352,0.725681,-0.854376,2.383539,0.435806,0.754161,-0.49123100000000003,-2.867584,-0.184134,-1.159612,-1.011688,-1.517482,1.060155
353,0.801583,-0.928845,2.436594,0.43018,0.800929,-0.416475,-4.211180000000001,2.8000849999999997,-1.421717,-1.0944559999999999,-1.863673,1.153734
354,0.9272549999999999,-1.001217,2.496546,0.431403,0.8421280000000001,-0.32358000000000003,-3.0114959999999997,3.986158,-1.76737,-1.0375889999999999,-1.8215439999999998,0.713594
355,0.99316,-1.0474370000000002,2.512416,0.41869700000000004,0.866145,-0.272905,-0.913751,1.691702,-1.492336,-0.441479,-0.8632920000000001,-0.31643499999999997
356,0.966828,-1.056914,2.479833,0.404593,0.870842,-0.27915999999999996,1.091795,-0.424255,-0.22259099999999998,0.691126,0.418296,-0.6548609999999999
357,1.0070629999999998,-1.03433,2.46095,0.43201000000000006,0.8595200000000001,-0.27310100000000004,0.511981,4.667112,0.707938,0.5170710000000001,0.9122540000000001,0.348586
358,1.080854,-1.053734,2.5035,0.43616800000000006,0.869275,-0.23261500000000002,-2.4089549999999997,-0.101917,-0.806137,-0.961117,-0.118848,0.584086
359,1.01235,-1.081584,2.4969200000000003,0.39853099999999997,0.882703,-0.24899699999999997,1.784285,-4.419007,-1.6280290000000002,-0.510454,1.163546,1.6673779999999998
360,0.9648,-1.0780129999999999,2.4304650000000003,0.388834,0.881019,-0.269453,0.548819,2.006193,-0.422846,0.079336,0.860893,2.3840619999999997
361,0.958521,-1.0857430000000001,2.387054,0.38155,0.88465,-0.267967,0.638283,2.1802650000000003,-1.406277,-0.331882,-0.6473760000000001,0.686714
362,0.9659469999999999,-1.120409,2.3442790000000002,0.358076,0.900279,-0.247531,-1.076155,1.791353,-2.294764,-0.047057,0.688604,0.847766
363,0.992368,-1.194672,2.379983,0.307555,0.9300950000000001,-0.20081,-3.3606730000000002,-1.543965,-2.726259,0.13610999999999998,0.8585860000000001,0.7020310000000001
364,1.049844,-1.265993,2.4614689999999997,0.260283,0.9539059999999999,-0.149358,-2.3786869999999998,0.116244,-2.1072990000000003,0.456849,1.2879459999999998,0.27934699999999996
365,1.092226,-1.322699,2.50769,0.21795599999999998,0.969382,-0.113075,-2.275634,-0.8825780000000001,-2.297581,0.331788,1.0821020000000001,0.10875599999999999
366,1.2519879999999999,-1.390336,2.678152,0.170413,0.9837610000000001,-0.056248,-3.0209650000000003,0.576493,-2.361272,0.343869,1.0747870000000002,0.076435
367,1.508285,-1.449838,2.908776,0.12038800000000001,0.992693,-0.007534999999999999,-1.842817,1.33711,-2.851809,0.047702999999999995,1.027616,-1.049792
368,2.010486,-1.4987469999999998,-2.881818,0.065077,0.9974059999999999,0.030612,-1.8015150000000002,0.551986,-2.617642,0.273119,0.793702,-0.555454
369,2.862104,-1.508627,-2.05975,0.017117,0.9980680000000001,0.059641,-1.191686,2.075723,-2.1795009999999997,0.5125770000000001,0.662622,-0.392542
370,-2.8912709999999997,-1.484799,-1.576276,-0.021262,0.9963049999999999,0.08315700000000001,-1.228944,2.328663,-1.466513,0.741446,-0.133298,-0.5462
371,-2.766746,-1.456758,-1.475848,-0.041645999999999996,0.993505,0.105849,-1.056682,0.529289,-0.520832,1.241689,-1.104589,-0.780196
372,-2.780729,-1.445901,-1.485999,-0.043969,0.9922110000000001,0.11650999999999999,-0.2007,-0.530439,0.013138999999999998,1.305963,-1.159249,-0.794854
373,-2.817605,-1.452143,-1.498049,-0.037672000000000004,0.9929690000000001,0.11218,0.613088,-1.6659849999999998,0.36317699999999997,0.867735,-1.43674,-0.503583
374,-2.9909369999999997,-1.4846540000000001,-1.6462759999999999,-0.012905000000000002,0.996292,0.08501,1.8496299999999999,-0.9952469999999999,1.5171569999999999,0.110195,-0.44133,-0.940586
375,2.644323,-1.531547,-2.2664299999999997,0.018665,0.99923,0.034388999999999996,2.9165810000000003,-1.791139,1.4241489999999999,-0.11278099999999999,-0.248665,-0.805858
376,0.845535,-1.51025,2.258998,0.045231,0.998168,-0.040094,4.05501,-2.348666,1.3334700000000002,-0.225575,-0.042281,0.008462
377,0.551809,-1.427974,2.019691,0.07460399999999999,0.989818,-0.121189,3.7195160000000005,-2.910787,2.069989,0.22874099999999997,0.788044,0.127461
378,0.5599770000000001,-1.330074,2.0725540000000002,0.126625,0.971166,-0.20198,4.013898,-1.443452,3.564607,0.406731,1.5348,0.37177899999999997
379,0.6248279999999999,-1.22042,2.133966,0.200782,0.939243,-0.278391,4.020476,1.4233770000000001,3.7821010000000004,-0.593727,1.54623,0.673014
380,0.6913279999999999,-1.122519,2.1693860000000003,0.276323,0.9011950000000001,-0.333897,3.155179,0.578813,3.4171489999999998,-0.639055,1.8399400000000001,-0.667507
381,0.707538,-1.0367979999999999,2.191391,0.330815,0.8607790000000001,-0.386802,2.811575,0.317771,2.929042,-0.682774,1.609024,0.081428
382,0.7410399999999999,-0.957457,2.189863,0.38856,0.817731,-0.42465600000000003,2.899724,2.2321880000000003,2.5576,0.319173,0.660892,0.15428599999999998
383,0.791403,-0.887432,2.206408,0.449142,0.775453,-0.443779,1.7333169999999998,1.35164,2.9265950000000003,0.43649399999999994,0.518752,0.213189
384,0.8143239999999999,-0.838375,2.2418709999999997,0.48629700000000003,0.7435579999999999,-0.45894700000000005,0.384102,-1.115645,2.259103,0.192353,0.33884000000000003,0.5111020000000001
385,0.8027270000000001,-0.811287,2.281526,0.495251,0.725174,-0.47837799999999997,-0.215786,-2.236149,1.6730990000000001,-0.21203200000000003,-0.098785,0.579284
386,0.778436,-0.8064720000000001,2.310891,0.485932,0.72185,-0.492746,-0.8648469999999999,-2.284767,0.276735,-0.795136,-0.650942,0.533334
387,0.762467,-0.841205,2.333231,0.460399,0.745447,-0.482013,-2.38604,-1.0020040000000001,-1.109268,-0.870174,-1.259226,0.873065
388,0.798348,-0.9105049999999999,2.372764,0.439279,0.789813,-0.428047,-3.832356,1.064754,-1.7501330000000002,-0.973306,-1.643054,1.099983
389,0.8786799999999999,-0.9884200000000001,2.416692,0.42344799999999994,0.835158,-0.35099600000000003,-3.103605,2.948718,-2.253794,-1.0255290000000001,-1.8915540000000002,1.0411350000000001
390,0.925765,-1.0494629999999998,2.415737,0.397967,0.8671559999999999,-0.299428,-1.167335,1.500626,-2.238414,-0.473696,-1.177245,0.171193
391,0.898537,-1.076843,2.382628,0.370946,0.880466,-0.29525,0.36398600000000003,-0.611082,-1.0873549999999998,-2.1e-05,-0.35632600000000003,-0.750572
392,0.91835,-1.069381,2.372721,0.38193299999999997,0.8769030000000001,-0.291824,0.255736,3.67634,0.946699,0.5351199999999999,-0.005291,-0.472183
393,1.041799,-1.065274,2.418941,0.418066,0.874922,-0.244389,-1.707307,2.266012,0.227631,-0.364279,0.349642,0.306996
394,1.04768,-1.096182,2.475279,0.395873,0.8894690000000001,-0.22830300000000003,-0.9337290000000001,-4.968967,-1.333322,-1.3649129999999998,1.144512,-3.077468
395,0.8877,-1.0991030000000002,2.355005,0.352434,0.8908,-0.28680900000000004,1.984202,1.567523,-1.188856,-0.28798,1.580605,2.636571
396,0.896215,-1.104584,2.3300810000000003,0.351045,0.8932770000000001,-0.280744,0.030188999999999997,0.820108,-0.397177,-0.481309,-0.24914299999999998,1.6460549999999998
397,0.8983530000000001,-1.1228479999999998,2.297634,0.338823,0.901337,-0.269784,-0.326165,1.906711,-1.690402,-0.6206689999999999,-0.89499,0.900186
398,0.8960610000000001,-1.183433,2.283385,0.29496700000000003,0.925908,-0.23597100000000001,-2.501288,-0.587862,-3.075064,-0.162368,0.359462,0.703516
399,0.913955,-1.2749709999999999,2.325895,0.230861,0.9565620000000001,-0.178007,-3.630315,-0.911805,-2.871027,0.353078,2.049343,0.5605140000000001
400,1.006859,-1.344079,2.4064240000000003,0.189962,0.974409,-0.12014100000000001,-2.316415,1.357209,-2.140502,0.815455,0.9854139999999999,0.06521
401,1.146816,-1.407089,2.54893,0.148527,0.9866299999999999,-0.067038,-3.0155790000000002,-0.322666,-2.083413,0.094622,0.8757969999999999,-0.053765
402,1.489727,-1.464307,2.876444,0.105903,0.9943350000000001,-0.008604,-2.3976669999999998,1.737914,-2.436387,-0.076942,1.1908450000000002,-0.509508
403,2.082173,-1.5117639999999999,-2.834906,0.051394,0.998258,0.028841000000000002,-1.74144,0.626342,-2.61625,0.192761,0.8919090000000001,-0.8428209999999999
404,3.0932060000000003,-1.5117559999999999,-1.843391,0.0028510000000000002,0.998258,0.058870000000000006,-1.29829,1.4493340000000001,-2.351426,0.66492,0.713016,-0.509019
405,-2.647014,-1.481012,-1.337648,-0.042538,0.995972,0.07887899999999999,-0.8857139999999999,2.0310669999999997,-1.9337509999999998,0.9660770000000001,0.19306900000000002,-0.396461
406,-2.482349,-1.446244,-1.207183,-0.076072,0.992253,0.09817100000000001,-1.19769,1.3978190000000001,-1.279231,0.911933,-0.73319,-0.6991229999999999
407,-2.49827,-1.424381,-1.228952,-0.087496,0.9893,0.11670499999999999,-0.722154,-0.37148200000000003,-0.125303,1.232852,-1.049374,-0.843893
408,-2.56925,-1.422688,-1.281906,-0.079907,0.989052,0.124025,-0.118289,-1.215357,0.46003999999999995,1.1377680000000001,-1.145943,-0.8109609999999999
409,-2.683208,-1.438511,-1.3587989999999999,-0.05835,0.9912629999999999,0.118252,0.945024,-1.982652,1.209797,0.6873020000000001,-1.5241,-0.43949499999999997
410,-2.934357,-1.487555,-1.582141,-0.017096,0.9965370000000001,0.08131100000000001,2.397624,-1.492548,2.061074,-0.273385,-0.270768,-0.60185
411,2.268072,-1.541892,-2.631524,0.022045,0.999582,0.018466,3.5858760000000003,-1.590386,1.788557,-0.357586,-0.015711000000000003,-0.306384
412,0.8605280000000001,-1.4910290000000002,2.284552,0.060377999999999994,0.99682,-0.051925,3.060823,-2.620393,2.2145669999999997,-0.060226,0.532385,-0.382828
413,0.752898,-1.403242,2.2283619999999997,0.114016,0.9859959999999999,-0.121679,3.563831,-2.123753,3.3198489999999996,0.240125,2.12727,0.581121
414,0.715389,-1.300058,2.1918189999999997,0.17540999999999998,0.9635739999999999,-0.20186600000000002,4.365705,1.151961,2.893964,-0.17058900000000002,1.7449830000000002,0.769127
415,0.720317,-1.2048709999999998,2.1616869999999997,0.23601599999999998,0.933793,-0.268925,3.313617,1.28696,2.8159330000000002,-0.6332939999999999,1.539412,-0.012447
416,0.739661,-1.124889,2.17112,0.290693,0.90222,-0.31857800000000003,2.86139,0.343623,2.551201,9.4e-05,1.226366,0.385534
417,0.763759,-1.0489549999999999,2.162059,0.344764,0.8669030000000001,-0.36001700000000003,2.826675,2.24569,2.443835,0.095498,0.8885290000000001,0.319658
418,0.8054279999999999,-0.9823799999999999,2.1705900000000002,0.400254,0.8318209999999999,-0.384533,1.7735150000000002,1.30006,2.47401,0.370452,0.49899,0.276715
419,0.8317040000000001,-0.931934,2.1991560000000003,0.440698,0.802775,-0.40166399999999997,0.730251,-0.716521,2.316551,0.31594,0.431249,0.515937
420,0.83144,-0.8990299999999999,2.24127,0.45986800000000005,0.782723,-0.419358,-0.126199,-1.9935080000000003,1.9244400000000002,0.054674,0.244483,0.677201
421,0.827584,-0.8819290000000001,2.2862259999999996,0.46803500000000003,0.771967,-0.430123,-0.642295,-1.8793279999999999,1.258391,-0.832491,-0.524408,0.6896439999999999
422,0.826677,-0.8950530000000001,2.323051,0.46015100000000003,0.780242,-0.423649,-1.8626919999999998,-0.9657290000000001,-0.24361,-1.148491,-1.120925,0.9897040000000001
423,0.872935,-0.950205,2.377565,0.445565,0.813535,-0.373668,-3.7480330000000004,0.724252,-1.384851,-1.0806200000000001,-1.405271,1.044292
424,0.9655030000000001,-1.0296610000000002,2.4473599999999998,0.423588,0.857124,-0.293096,-3.6261690000000004,2.295359,-2.244863,-1.1509129999999999,-2.094337,0.9353229999999999
425,1.026445,-1.092782,2.473067,0.393521,0.8879100000000001,-0.238222,-1.336077,0.9654790000000001,-2.261345,-0.699094,-1.524507,-0.20954699999999998
426,0.9758129999999999,-1.1283530000000002,2.4398299999999997,0.354568,0.903708,-0.23997,0.21763400000000002,-2.055381,-1.5437319999999999,-0.300842,-1.029929,-0.64594
427,0.915379,-1.124033,2.3898200000000003,0.342519,0.90185,-0.263325,1.258842,1.683284,0.328139,0.892451,0.679555,-0.679379
428,1.027492,-1.093315,2.393249,0.393365,0.8881549999999999,-0.237565,0.5662739999999999,6.011966,1.609234,0.291022,1.028669,-0.20805300000000002
429,1.089383,-1.088282,2.429337,0.411261,0.8858309999999999,-0.214846,-1.141549,-0.6734479999999999,-0.168444,-0.930716,0.35693600000000003,0.468722
430,0.9464459999999999,-1.102948,2.34936,0.36588200000000004,0.892541,-0.263617,3.0713,-3.563225,-2.032476,0.23624499999999998,0.37750900000000004,2.864492
431,0.89385,-1.091613,2.28335,0.359381,0.8873719999999999,-0.28880700000000004,0.690704,0.453265,-0.071632,-0.118612,-0.263806,1.7833439999999998
432,0.8939799999999999,-1.103482,2.239113,0.35118299999999997,0.8927809999999999,-0.282143,0.081794,3.142254,-1.730802,-0.39358699999999996,-0.9412739999999999,1.2464680000000001
433,0.911156,-1.152093,2.207323,0.321274,0.913617,-0.24915700000000002,-1.6845720000000002,1.0315290000000001,-2.758451,-0.175705,0.312579,0.797665
434,0.891573,-1.235724,2.219747,0.255846,0.9443870000000001,-0.206564,-3.252316,-2.61603,-2.9837130000000003,0.098067,2.0313830000000004,0.48189399999999993
435,0.9409620000000001,-1.304843,2.291016,0.212385,0.964842,-0.154799,-2.219047,0.262831,-1.871371,0.659456,0.8892680000000001,-0.153703
436,0.975497,-1.3666200000000002,2.3511509999999998,0.167864,0.9792280000000001,-0.11368699999999998,-2.969164,-2.034032,-2.2539540000000002,-0.089861,0.9376110000000001,0.324991
437,1.1870290000000001,-1.439342,2.5683740000000004,0.12150699999999999,0.9913719999999999,-0.049063,-3.2897870000000005,1.136399,-2.284825,-0.043504,0.925467,0.260367
438,1.5217610000000001,-1.500415,2.881465,0.07016599999999999,0.997524,-0.003443,-1.619493,0.534971,-2.779793,0.045191,1.043339,-0.8842979999999999
439,2.563605,-1.532059,-2.370192,0.021083,0.99925,0.032322000000000004,-1.761189,1.069326,-2.2879490000000002,0.7945909999999999,0.72539,-0.5257149999999999
440,-2.748529,-1.505282,-1.432809,-0.025044,0.9978549999999999,0.060399,-1.184149,1.898691,-2.134362,0.969792,0.467325,-0.43588699999999997
441,-2.4885610000000002,-1.468169,-1.209775,-0.062215999999999994,0.9947379999999999,0.081328,-1.2757479999999999,1.845362,-1.5068190000000001,0.7805989999999999,-0.557986,-0.538878
442,-2.458183,-1.43846,-1.19987,-0.08329099999999999,0.9912559999999999,0.102284,-0.872883,0.385798,-0.491596,1.168268,-1.177185,-0.76299
443,-2.4989689999999998,-1.43497,-1.2338040000000001,-0.081125,0.99079,0.10836400000000002,-0.004388,-0.721869,0.29782800000000004,1.220621,-1.140036,-0.7894100000000001
444,-2.5785709999999997,-1.444788,-1.284885,-0.067053,0.9920709999999999,0.10623699999999998,0.44743599999999994,-1.8097310000000002,0.758509,0.836935,-1.507315,-0.34786
445,-2.710227,-1.4813370000000001,-1.39473,-0.037328,0.996001,0.081099,1.8485470000000002,-0.7575810000000001,1.759325,-0.15441400000000002,-0.45616,-0.811995
446,-3.102794,-1.5385879999999998,-1.7640900000000002,-0.001243,0.999481,0.032014,2.857694,-1.389098,1.635792,-0.323678,-0.306992,-0.590501
447,0.659037,-1.5229190000000001,2.025439,0.029242,0.9988540000000001,-0.037752999999999995,3.7420080000000002,-1.4824760000000001,1.576927,-0.350943,-0.154066,0.008411
448,0.562192,-1.443336,1.9687990000000002,0.06773799999999999,0.9918879999999999,-0.107519,3.174881,-2.3662259999999997,2.492769,0.11848099999999999,0.566126,-0.10610399999999999
449,0.638246,-1.348655,2.08512,0.131251,0.9754280000000001,-0.176931,3.4779419999999996,-1.260376,4.069097,0.679708,2.479604,0.18721500000000002
450,0.697272,-1.2412940000000001,2.1328549999999997,0.207767,0.946204,-0.24803899999999998,3.9526,1.9393060000000002,3.493608,-0.498721,1.8087400000000002,0.7654340000000001
451,0.736761,-1.152234,2.14163,0.273083,0.913674,-0.301028,2.811301,0.690793,2.8879639999999998,-0.627575,1.488441,-0.38458000000000003
452,0.75781,-1.081402,2.154114,0.323104,0.882618,-0.341442,2.374632,0.5644939999999999,2.350965,-0.21951199999999998,1.246319,0.189602
453,0.79106,-1.0134,2.150617,0.376152,0.848635,-0.37191599999999997,2.367356,2.247741,2.329529,0.259667,0.6604899999999999,0.23864499999999997
454,0.832872,-0.9508840000000001,2.166554,0.429831,0.813929,-0.390842,1.4693479999999999,0.7326520000000001,2.6413919999999997,0.42794099999999996,0.380254,0.186664
455,0.845965,-0.9043959999999999,2.199434,0.462758,0.7860520000000001,-0.409842,0.402905,-1.563691,2.1369569999999998,0.040629000000000005,0.306371,0.494025
456,0.82888,-0.881073,2.240513,0.469078,0.771422,-0.429961,-0.460412,-2.711846,1.501079,-0.070564,0.051622,0.59645
457,0.811699,-0.878971,2.281718,0.46279799999999993,0.770083,-0.439072,-1.178412,-2.219808,0.556466,-0.7420640000000001,-0.498079,0.5732119999999999
458,0.816551,-0.913636,2.3207459999999998,0.44519200000000003,0.79173,-0.418283,-2.75589,-0.523044,-0.949033,-1.048829,-1.456083,0.9771209999999999
459,0.8802260000000001,-0.9853360000000001,2.382111,0.425971,0.833458,-0.351978,-4.084894,1.3342479999999999,-1.789637,-0.9556950000000001,-1.673225,1.055973
460,0.97093,-1.062043,2.442269,0.402041,0.873352,-0.274972,-2.899331,2.1107080000000003,-2.252368,-0.8688540000000001,-2.1191259999999996,0.8888790000000001
461,0.9903489999999999,-1.115764,2.447881,0.367502,0.8982469999999999,-0.24101,-0.9649790000000001,-0.258654,-2.017903,-0.24085399999999998,-1.257118,0.065763
462,0.928215,-1.1380190000000001,2.4131709999999997,0.33573800000000004,0.907804,-0.251321,0.600576,-1.799793,-0.791493,0.13430899999999998,-0.707411,-0.788321
463,0.917684,-1.1163379999999998,2.376109,0.348625,0.8984989999999999,-0.266743,1.368871,3.416271,1.085124,0.892601,0.961456,-0.7639279999999999
464,1.003739,-1.086898,2.3907439999999998,0.392409,0.885188,-0.249896,-0.270604,1.9323139999999999,1.1813280000000002,-0.8744799999999999,0.391942,1.015582
465,1.034247,-1.105849,2.449346,0.385359,0.8938450000000001,-0.229192,-1.827969,-2.289135,-0.988358,-1.585524,0.354003,0.755025
466,0.853435,-1.127548,2.332493,0.323168,0.9033629999999999,-0.281935,2.6675009999999997,-0.1305,-2.048247,-0.275591,0.570437,3.509581
467,0.882282,-1.112306,2.299732,0.34175900000000003,0.8967219999999999,-0.28121399999999996,0.376636,2.7098880000000003,0.376204,-0.34175900000000003,-0.402764,1.308435
468,0.9214319999999999,-1.124486,2.271605,0.343779,0.9020459999999999,-0.260998,-0.090892,3.145228,-1.523714,-0.520613,-0.940391,0.7609520000000001
469,0.897315,-1.174941,2.230004,0.301394,0.922667,-0.24049299999999998,-1.669316,-0.877273,-3.078506,-0.34260799999999997,0.8664719999999999,0.598068
470,0.8641989999999999,-1.257385,2.23731,0.234477,0.9512870000000001,-0.200156,-3.042026,-1.922971,-2.788721,0.22816999999999998,1.877906,0.750892
471,0.907839,-1.3244690000000001,2.275189,0.192173,0.969814,-0.150059,-2.074855,1.418324,-2.1773599999999997,0.586987,1.2654,0.31769200000000003
472,0.966933,-1.388519,2.334373,0.14918399999999998,0.983433,-0.10290999999999999,-2.825583,-0.885339,-2.1914029999999998,0.353731,0.917033,0.091268
473,1.18828,-1.456302,2.5585869999999997,0.10593399999999999,0.993453,-0.042621,-2.871366,0.830843,-2.1576020000000002,0.149834,0.987367,-0.51666
474,1.532691,-1.515399,2.883212,0.055202,0.998466,-0.002105,-1.720877,0.730421,-2.816008,0.20714200000000002,1.0510030000000001,-0.7862560000000001
475,3.050386,-1.536291,-1.896182,0.003123,0.9994049999999999,0.034145999999999996,-1.73763,1.140309,-2.4748189999999997,0.432287,0.5519109999999999,-0.516079
476,-2.499421,-1.4940440000000001,-1.19797,-0.045866000000000004,0.9970559999999999,0.061325,-1.128963,1.9427,-2.263292,0.8464950000000001,0.326171,-0.453705
477,-2.335025,-1.453508,-1.067696,-0.08443200000000001,0.99313,0.08093,-1.1865700000000001,1.493584,-1.522841,0.8986559999999999,0.020512,-0.6001569999999999
478,-2.329739,-1.4263649999999999,-1.0788879999999998,-0.10439100000000001,0.9895879999999999,0.099009,-0.67748,0.41286000000000006,-0.499885,1.019399,-1.316355,-0.701014
479,-2.354489,-1.428356,-1.097276,-0.100513,0.989873,0.10017000000000001,0.20305,-0.7263029999999999,0.429601,1.063648,-1.240773,-0.621594
480,-2.405159,-1.445217,-1.1229120000000001,-0.08408099999999999,0.992125,0.09274600000000001,0.840335,-1.350466,0.919825,0.868749,-1.382354,-0.35588400000000003
481,-2.421659,-1.490067,-1.122015,-0.05310700000000001,0.996743,0.060559,2.038472,-0.77413,1.7393040000000002,-0.1354,-0.445428,-0.757748
482,-2.043561,-1.548529,-0.726799,-0.019538,0.9997520000000001,0.009993,2.8829740000000004,-0.83595,1.548729,-0.168969,-0.448437,-0.707182
483,0.148248,-1.5121120000000001,1.4839930000000001,0.008646,0.9982790000000001,-0.057896,3.7176419999999997,-1.11534,1.429935,-0.161601,-0.345736,-0.125026
484,0.292719,-1.427109,1.6585919999999998,0.041306999999999996,0.9896950000000001,-0.137061,3.746168,-1.6520119999999998,2.146531,0.109358,0.142309,0.031715
485,0.443288,-1.344498,1.8479259999999997,0.096225,0.974504,-0.20266199999999998,3.0591180000000002,-1.664755,3.795356,1.041211,2.948134,0.43407700000000005
486,0.6050989999999999,-1.247493,2.0066650000000004,0.180713,0.948191,-0.261278,3.2366490000000003,1.9345310000000002,3.9778540000000002,0.36109600000000003,2.644109,0.676668
487,0.707244,-1.158416,2.0672099999999998,0.260403,0.916169,-0.304655,2.453893,1.4908700000000001,3.451663,-0.7176020000000001,1.5248549999999998,-0.5647300000000001
488,0.727645,-1.0839889999999999,2.106064,0.311138,0.8838309999999999,-0.34932399999999997,2.469131,-1.496779,2.528381,0.08906900000000001,1.443867,0.20468599999999998
489,0.7331979999999999,-1.014008,2.102766,0.353668,0.848957,-0.392662,2.4460759999999997,1.567495,2.413198,0.48634399999999994,0.6914640000000001,0.290916
490,0.7757029999999999,-0.952491,2.127812,0.40588,0.814862,-0.413828,1.350626,0.434775,2.64628,0.267994,0.41075500000000004,0.292459
491,0.791283,-0.9093549999999999,2.171021,0.43688699999999997,0.789108,-0.43177600000000005,0.11920499999999999,-1.8488669999999998,2.305183,0.05321,0.336457,0.450925
492,0.78149,-0.886302,2.225069,0.44533599999999995,0.7747390000000001,-0.44883,-0.554797,-2.760652,1.801716,-0.150902,0.098338,0.690254
493,0.763486,-0.879834,2.269152,0.44063800000000003,0.770633,-0.46038500000000004,-0.982085,-2.410166,0.8390190000000001,-1.090419,-0.6512180000000001,0.676007
494,0.767484,-0.906388,2.309843,0.428113,0.7872819999999999,-0.443733,-2.506191,-0.572449,-0.530624,-1.17822,-0.932759,0.758034
495,0.8305530000000001,-0.979345,2.364896,0.41164799999999996,0.830132,-0.376056,-4.288928,1.812921,-1.9679369999999998,-1.1288719999999999,-1.516198,0.935153
496,0.9378129999999999,-1.068437,2.426809,0.388205,0.876449,-0.28482399999999997,-3.5627989999999996,3.069623,-2.515677,-0.845633,-1.981796,0.5454899999999999
497,0.9865389999999999,-1.130933,2.4437130000000002,0.355172,0.90481,-0.23486500000000002,-1.3161610000000001,0.506966,-2.165552,-0.401208,-1.4164219999999998,0.170351
498,0.939053,-1.162903,2.416173,0.32010700000000003,0.9179579999999999,-0.23425100000000001,0.14868800000000001,-1.894454,-1.233572,-0.021371,-0.7715350000000001,-0.750811
499,0.909007,-1.156024,2.380606,0.3179,0.915208,-0.24763600000000002,0.9074969999999999,2.351365,0.596152,0.8688370000000001,0.645201,-0.649169
500,1.003551,-1.131888,2.396507,0.358387,0.905216,-0.22832399999999997,-0.148366,3.404464,1.092696,0.394436,0.683117,-0.107445
501,1.066144,-1.146526,2.4599189999999997,0.36032800000000004,0.9113389999999999,-0.19902999999999998,-1.8840569999999999,-1.096282,-0.6078600000000001,-1.358665,0.160194,0.5239659999999999
502,0.901157,-1.1661700000000002,2.359467,0.30864899999999995,0.91925,-0.24434699999999998,3.242055,-1.797953,-1.9395470000000001,0.223593,1.55803,3.466103
503,0.8815540000000001,-1.14726,2.323697,0.317161,0.911641,-0.261361,0.295654,-0.712915,0.730401,0.216836,0.603877,2.45443
504,0.884027,-1.1496389999999999,2.301183,0.316128,0.912616,-0.25919899999999996,0.343418,2.179999,-1.079336,-0.7754939999999999,-1.783939,0.84593
505,0.885534,-1.195303,2.2676130000000003,0.283932,0.930327,-0.232087,-1.947069,0.805357,-2.9779169999999997,-0.47695600000000005,0.633882,0.863908
506,0.8737809999999999,-1.2897610000000002,2.2712369999999997,0.212646,0.9607690000000001,-0.178027,-3.3831860000000002,-1.465882,-3.5789690000000003,-0.352462,1.594666,0.8476440000000001
507,0.9295540000000001,-1.3668420000000001,2.3478060000000003,0.16228399999999998,0.979273,-0.12114200000000001,-2.953224,0.290604,-2.050659,0.597329,2.067403,0.517199
508,1.076151,-1.438815,2.474483,0.115782,0.991303,-0.062449,-2.870018,0.25082899999999997,-2.56491,0.434084,0.760314,-0.44652299999999995
509,1.5178610000000001,-1.4970430000000001,2.923409,0.073489,0.997281,-0.003894,-2.7994060000000003,0.204403,-1.939448,-0.163501,1.055987,-0.477857
510,2.496027,-1.5264790000000001,-2.4015619999999998,0.026562,0.9990180000000001,0.035264,-1.5596700000000001,1.028098,-2.539662,-0.125637,0.8740290000000001,-0.7193
511,-2.7920689999999997,-1.50118,-1.429613,-0.023787,0.9975780000000001,0.065261,-1.340501,1.5029649999999999,-2.402007,0.38352800000000004,0.5566369999999999,-0.45698500000000003
512,-2.423012,-1.460632,-1.099796,-0.07233400000000001,0.9939379999999999,0.082709,-0.764459,2.1818419999999996,-2.176663,0.6873239999999999,0.368641,-0.408744
513,-2.273295,-1.424425,-0.9909180000000001,-0.11127999999999999,0.9893069999999999,0.094206,-0.882316,1.820439,-1.474133,1.026548,-0.343097,-0.538725
514,-2.2714090000000002,-1.403117,-1.006789,-0.12755,0.985975,0.10756700000000001,-0.589196,0.378471,-0.235373,1.413637,-1.096967,-0.762368
515,-2.318477,-1.404511,-1.044801,-0.12133800000000002,0.9862059999999999,0.11251300000000002,-0.055348,-0.96315,0.47616899999999995,1.326706,-1.0143280000000001,-0.7299140000000001
516,-2.397298,-1.418986,-1.0944610000000001,-0.10241600000000001,0.988499,0.111201,0.608862,-1.489568,1.008117,0.794371,-1.50539,-0.415706
517,-2.450943,-1.4635200000000002,-1.126541,-0.068165,0.994251,0.082481,1.9593330000000002,-1.1292360000000001,1.901572,-0.109036,-0.608006,-0.695274
518,-2.3347919999999998,-1.524793,-0.9863129999999999,-0.033096,0.998942,0.031708,3.055009,-1.054761,1.5085469999999999,-0.327409,-0.378688,-0.5926060000000001
519,-0.11006099999999999,-1.528622,1.262877,-0.004614,0.9991110000000001,-0.041753,3.9249050000000003,-1.4497950000000002,1.507652,-0.084833,0.116352,-0.194682
520,0.33668400000000004,-1.457889,1.759575,0.037203,0.993633,-0.10629000000000001,2.90537,-2.9712560000000003,2.984104,0.635908,1.6480150000000002,0.032773000000000004
521,0.591259,-1.362536,2.0597090000000002,0.11523299999999999,0.978392,-0.17163599999999998,3.5955660000000003,-0.5985739999999999,4.43653,0.509508,3.0000009999999997,0.822469
522,0.6656850000000001,-1.255829,2.097897,0.19131199999999998,0.9508059999999999,-0.24363,3.9455980000000004,2.445533,3.18205,-0.35249,1.808929,0.7725920000000001
523,0.70977,-1.175011,2.131673,0.251227,0.922694,-0.292421,2.265906,-0.385984,3.043622,-0.51731,1.636708,-0.299941
524,0.720009,-1.104983,2.138035,0.296159,0.8934559999999999,-0.337663,2.677621,1.545395,2.1467169999999998,0.069595,0.88021,0.4572
525,0.781559,-1.041811,2.149577,0.355468,0.8633190000000001,-0.35820799999999997,1.801434,2.403146,2.588151,0.5490729999999999,0.409554,0.167931
526,0.8298719999999999,-0.984923,2.182645,0.407968,0.8332299999999999,-0.373203,0.963065,0.0275,2.5362009999999997,0.246679,0.38159899999999997,0.47952700000000004
527,0.836957,-0.947679,2.225021,0.43335799999999997,0.812063,-0.390827,0.045951,-2.057302,2.014379,0.22129000000000001,0.402765,0.49715
528,0.828743,-0.923997,2.2746419999999996,0.444187,0.798017,-0.407258,-0.478955,-2.30269,1.7642669999999998,-0.365757,-0.155469,0.686585
529,0.829521,-0.919658,2.321784,0.447053,0.795395,-0.409246,-1.258723,-1.530451,0.5988100000000001,-1.394227,-0.998138,0.9854790000000001
530,0.85731,-0.95701,2.368773,0.43547399999999997,0.817473,-0.37695,-2.986627,0.23357399999999998,-1.07981,-1.412509,-1.6898490000000002,1.26817
531,0.9379790000000001,-1.033372,2.4288369999999997,0.412789,0.85903,-0.30275599999999997,-3.7157139999999997,2.244823,-2.3127299999999997,-1.430017,-2.017996,1.258353
532,1.021617,-1.104683,2.472315,0.383321,0.893322,-0.23458299999999999,-2.115871,1.626849,-2.339219,-1.05692,-2.201595,0.38912399999999997
533,0.9929629999999999,-1.152827,2.451663,0.339994,0.9139149999999999,-0.221702,-0.299406,-1.792531,-2.088209,0.162204,-0.731557,-1.084756
534,0.884986,-1.166246,2.3924790000000002,0.304602,0.9192799999999999,-0.249261,1.078683,-2.037698,-0.582758,0.631754,-0.318205,-1.404181
535,0.916251,-1.136952,2.365771,0.333473,0.907357,-0.25590799999999997,1.202512,5.423587,1.414667,1.139443,1.1380540000000001,-0.799879
536,1.02209,-1.1068280000000001,2.386017,0.381796,0.894284,-0.233402,-0.28479,2.50259,1.108919,-0.413763,0.15372,1.376835
537,1.111696,-1.119713,2.446174,0.390787,0.899975,-0.193177,-1.781334,1.539141,-0.41183400000000003,-1.401667,-0.9324,0.850709
538,0.9722620000000001,-1.147365,2.421448,0.339451,0.911684,-0.231501,2.80298,-11.159559,-2.631375,-2.377613,0.684003,-4.053045
539,0.818764,-1.147734,2.2671669999999997,0.299819,0.9118360000000001,-0.280451,0.393502,-0.070909,-1.6582860000000001,1.075074,2.928328,3.137506
540,0.769564,-1.1759959999999998,2.247776,0.267619,0.923074,-0.276231,-1.5059120000000001,1.7479740000000001,-1.192116,0.844197,0.22142699999999998,0.9340219999999999
541,0.793668,-1.207387,2.216764,0.25340799999999997,0.9346899999999999,-0.24925100000000003,-0.724384,1.1443940000000001,-1.444394,-0.140874,-1.15605,0.378417
542,0.8228639999999999,-1.25876,2.266245,0.225043,0.9517100000000001,-0.20878200000000002,-3.222171,-1.821809,-1.291397,-0.325477,1.0374709999999998,0.786709
543,0.931639,-1.321026,2.3817,0.19836600000000001,0.9689690000000001,-0.14743299999999998,-2.769367,1.280093,-1.372326,-0.6676350000000001,1.753184,1.100268
544,1.057331,-1.388262,2.48867,0.158081,0.9833870000000001,-0.089145,-3.0031689999999998,0.419016,-2.682496,0.227692,1.0922049999999999,-0.45434300000000005
545,1.306039,-1.456849,2.736975,0.109676,0.9935149999999999,-0.029736000000000002,-2.678101,0.231071,-2.317857,0.481526,1.163284,-0.445667
546,1.744623,-1.509279,-3.108072,0.060426,0.998108,0.010611,-1.8556270000000001,0.111418,-2.412371,0.150877,0.725967,-0.748572
547,2.831603,-1.52734,-2.040086,0.013194999999999998,0.9990559999999999,0.041192,-1.327863,1.52188,-2.3463990000000003,0.14007999999999998,0.638487,-0.507303
548,-2.616367,-1.496326,-1.245862,-0.037248,0.9972280000000001,0.064273,-0.9905579999999999,2.391506,-2.462662,0.577775,0.487299,-0.45192299999999996
549,-2.3387439999999997,-1.456025,-1.014966,-0.082324,0.9934209999999999,0.079499,-1.065218,2.113177,-1.793051,0.885424,-0.097501,-0.44728199999999996
550,-2.318094,-1.421465,-1.0196100000000001,-0.109088,0.9888709999999999,0.101077,-1.073764,0.7169449999999999,-0.8074899999999999,1.202106,-1.339167,-0.708957
551,-2.341218,-1.4134870000000002,-1.038626,-0.112381,0.9876520000000001,0.10906500000000001,-0.068389,-0.7662909999999999,0.011146,1.105668,-1.440274,-0.5992689999999999
552,-2.379781,-1.4161920000000001,-1.047303,-0.106249,0.988073,0.111383,0.265408,-1.722994,0.27535,0.889711,-1.595433,-0.36409899999999995
553,-2.3837509999999997,-1.449235,-1.031319,-0.083301,0.9926200000000001,0.088024,1.9126029999999998,-0.637966,1.631425,0.12131099999999999,-0.49056099999999997,-0.894496
554,-2.2450419999999998,-1.510019,-0.873526,-0.047342,0.9981540000000001,0.037835,2.9392419999999997,-1.019831,1.664722,-0.193472,-0.23942600000000003,-0.6975640000000001
555,-0.415943,-1.5326389999999999,0.97554,-0.015332,0.9992719999999999,-0.034711,3.9781160000000004,-1.076734,1.674188,-0.290286,-0.223973,-0.07359600000000001
556,0.27816,-1.463178,1.705224,0.029476,0.994215,-0.10322,3.054825,-2.066033,2.919895,0.3373,1.1523,0.047937
557,0.553908,-1.3731149999999999,2.026437,0.103289,0.980525,-0.167001,3.3527709999999997,-1.6333799999999998,4.486366,0.725538,3.043355,0.681451
558,0.639165,-1.2626680000000001,2.099508,0.1809,0.9529030000000001,-0.243391,4.266443,1.965977,3.481871,-0.432853,1.6476220000000001,0.205184
559,0.6860149999999999,-1.168191,2.123037,0.248191,0.920043,-0.303168,2.963902,0.667078,3.095218,-0.544669,1.505082,-0.358621
560,0.705782,-1.0926879999999999,2.130799,0.298427,0.887867,-0.35017600000000004,2.816024,0.850023,2.2297599999999997,-0.383418,1.354015,-0.020277
561,0.743186,-1.02419,2.129102,0.351704,0.8542930000000001,-0.38272399999999995,2.332019,2.64436,2.279627,0.098461,0.616807,0.18317
562,0.799651,-0.966158,2.152184,0.407647,0.822708,-0.396189,1.2445760000000001,1.042397,2.636211,0.36753,0.45919899999999997,0.205592
563,0.822523,-0.9226700000000001,2.193364,0.44242,0.797216,-0.410733,0.288497,-1.366264,2.15192,0.261635,0.49531000000000003,0.388974
564,0.810344,-0.8972100000000001,2.2343669999999998,0.45194799999999996,0.78159,-0.42994399999999994,-0.236988,-2.460752,1.6550650000000002,0.176226,0.239132,0.593808
565,0.7966409999999999,-0.8877200000000001,2.27662,0.451298,0.7756350000000001,-0.441262,-0.922004,-2.0186669999999998,0.91905,-0.847751,-0.473984,0.6108939999999999
566,0.80219,-0.909219,2.3152209999999998,0.441647,0.789024,-0.427059,-2.116228,-0.666567,-0.507487,-1.419034,-1.215904,1.012264
567,0.859692,-0.973295,2.36686,0.42622600000000005,0.826744,-0.367173,-4.048169000000001,1.7185130000000002,-1.742879,-1.319704,-1.4896770000000001,1.193406
568,0.9742940000000001,-1.056627,2.439568,0.406869,0.8707020000000001,-0.27626999999999996,-3.556046,2.72012,-2.2299729999999998,-1.026558,-2.1747330000000002,0.262171
569,1.005623,-1.114235,2.456825,0.372296,0.897574,-0.236103,-1.036576,-0.44098000000000004,-2.1762770000000002,-0.39433,-1.373099,-0.209195
570,0.928214,-1.144279,2.419464,0.33117800000000003,0.9104120000000001,-0.247908,0.28844000000000003,-3.168657,-1.318563,0.326598,-0.527111,-1.205156
571,0.886619,-1.132409,2.3846119999999997,0.328935,0.905437,-0.268278,1.129797,2.762619,0.924048,1.190764,1.709141,-0.922213
572,0.9866309999999999,-1.095787,2.390924,0.381495,0.889288,-0.25222100000000003,0.675182,3.148282,1.5751979999999999,0.097722,0.949594,0.42598800000000003
573,1.039169,-1.094136,2.433198,0.39547899999999997,0.888532,-0.23258299999999998,-1.503983,0.949725,-0.039539,-1.364214,-1.006345,1.50744
574,1.060735,-1.1280139999999999,2.498573,0.373906,0.9035629999999999,-0.209177,-1.0821129999999999,-6.163703,-1.32323,-1.2421309999999999,2.008607,-0.592916
575,0.832744,-1.117899,2.304248,0.323698,0.899183,-0.29441100000000003,2.624628,3.125347,-1.833739,0.509402,3.265566,2.6738049999999998
576,0.78686,-1.128096,2.263617,0.303344,0.9035979999999999,-0.302458,-0.365859,-1.441894,-0.473973,0.8121189999999999,0.826169,1.235625
577,0.80511,-1.140622,2.234807,0.300629,0.9088930000000001,-0.289004,0.644984,2.289825,-1.36366,-0.246689,-2.790073,0.664905
578,0.805673,-1.178017,2.226435,0.27607,0.923849,-0.265096,-2.3348310000000003,-0.772241,-1.594194,-0.203072,1.202967,0.748235
579,0.833198,-1.251925,2.290579,0.231998,0.9495899999999999,-0.210815,-3.47084,-1.3377430000000001,-1.980623,-0.131152,2.292537,0.9645540000000001
580,0.872851,-1.311558,2.329508,0.19638,0.9665860000000001,-0.16472,-2.066047,1.031499,-2.1501040000000002,0.405594,1.2850780000000002,0.183229
581,0.9609219999999999,-1.385449,2.411575,0.15103,0.982872,-0.10553,-3.5559269999999996,-0.03071,-2.158081,0.262468,0.83625,-0.12941
582,1.234032,-1.451251,2.686897,0.112496,0.9928629999999999,-0.039385,-2.742252,0.420034,-2.097428,0.027092,0.858318,-0.608854
583,1.636842,-1.5057450000000001,3.0895669999999997,0.064733,0.997885,0.004282,-2.1052880000000003,0.030583999999999997,-2.493062,0.016856,0.657434,-0.592371
584,2.714228,-1.526129,-2.1348439999999997,0.018424,0.9990030000000001,0.040452999999999996,-1.60219,1.6638279999999999,-2.174379,0.265436,0.681478,-0.341082
585,-2.765332,-1.501066,-1.3777270000000001,-0.025554,0.9975700000000001,0.06468099999999999,-1.073025,2.621861,-1.921947,0.377834,0.23244099999999998,-0.613417
586,-2.539108,-1.469632,-1.193132,-0.057178999999999994,0.9948870000000001,0.083135,-0.873767,1.658318,-1.163019,0.430867,-0.7293689999999999,-0.796956
587,-2.4767069999999998,-1.460364,-1.147292,-0.067944,0.993909,0.086667,0.16535999999999998,0.37196399999999996,-0.059185,0.9715239999999999,-1.31564,-0.651883
588,-2.47476,-1.468516,-1.139764,-0.06309400000000001,0.9947739999999999,0.08015900000000001,0.402008,-0.704241,0.336953,1.038879,-1.4406510000000001,-0.36188200000000004
589,-2.47195,-1.491806,-1.127733,-0.048908999999999994,0.9968819999999999,0.061779999999999995,1.417153,-0.149093,1.019517,0.9189649999999999,-1.399226,-0.494733
590,-2.409096,-1.542519,-1.057036,-0.018709,0.9996,0.020801,2.392887,-0.637343,1.593115,0.10409700000000001,-0.679669,-0.7041350000000001
591,0.355528,-1.532842,1.720961,0.013134999999999999,0.99928,-0.035375,3.069518,-0.638433,1.5455,-0.18900799999999998,-0.599912,-0.550197
592,0.389052,-1.45635,1.773783,0.043291,0.993458,-0.105602,3.768311,-1.225162,1.6793200000000001,-0.206591,-0.43932,0.037273
593,0.425328,-1.370846,1.838513,0.081941,0.9800760000000001,-0.180893,3.3195010000000003,-1.4285809999999999,2.587639,0.163375,0.144557,0.14793399999999998
594,0.563603,-1.283419,2.013772,0.151411,0.958991,-0.239581,2.652974,-1.312462,5.025858,0.9702780000000001,2.109796,0.334995
595,0.7446189999999999,-1.176467,2.170244,0.260351,0.9232540000000001,-0.282501,2.774715,2.965127,4.527709,-0.6523800000000001,2.10032,-0.165543
596,0.798319,-1.089233,2.205849,0.331703,0.886272,-0.32324,2.347427,-0.585014,3.4621190000000004,-0.990516,1.366963,-0.8163779999999999
597,0.791315,-1.013341,2.2249220000000003,0.376279,0.8486040000000001,-0.371852,2.5142349999999998,-0.39259299999999997,2.618074,-0.178541,1.270292,0.144939
598,0.8351350000000001,-0.947103,2.234469,0.43299099999999996,0.8117270000000001,-0.391928,1.7242549999999999,2.56755,2.834158,0.342964,0.637721,0.2116
599,0.9001620000000001,-0.8853190000000001,2.274369,0.495937,0.774117,-0.39342,0.675371,0.638907,3.067516,0.283269,0.606559,0.106052
600,0.9125049999999999,-0.842852,2.3180810000000003,0.526301,0.746544,-0.407026,-0.075667,-1.8128380000000002,2.257836,-0.119959,0.441475,0.3775
601,0.8966069999999999,-0.820924,2.3576639999999998,0.5324270000000001,0.731776,-0.42546000000000006,-0.521062,-2.357313,1.343161,-0.190691,-0.149577,0.428176
602,0.8835700000000001,-0.818422,2.39235,0.528249,0.730069,-0.433525,-1.1339629999999998,-1.613697,0.530352,-0.49609899999999996,-0.262753,0.40521999999999997
603,0.897566,-0.8487889999999999,2.431838,0.516687,0.7504810000000001,-0.412071,-2.621012,0.029474,-0.9712430000000001,-1.1306100000000001,-0.75129,0.680916
604,0.9691350000000001,-0.923502,2.485831,0.497129,0.797718,-0.341318,-3.901853,2.330751,-2.592949,-1.626264,-1.5998729999999999,1.111673
605,1.061404,-1.008981,2.520218,0.465079,0.84629,-0.259775,-2.3157419999999997,3.16459,-3.099957,-1.568885,-1.94715,1.01034
606,1.077221,-1.066009,2.503434,0.425887,0.8752770000000001,-0.229123,-0.452891,0.48491300000000004,-2.457534,0.180818,-1.183627,-0.337482
607,1.023083,-1.093005,2.465928,0.392544,0.8880129999999999,-0.239438,0.46015100000000003,-1.845609,-0.929158,0.7654449999999999,-0.278897,-1.203357
608,1.039859,-1.081756,2.4693970000000003,0.405095,0.882784,-0.237862,-0.025368,3.021626,1.3557540000000001,1.263362,0.269926,-0.702857
609,1.146155,-1.057268,2.506048,0.447612,0.871017,-0.202388,-0.590874,2.365827,0.944584,0.5040789999999999,0.685883,0.056224
610,1.192193,-1.070949,2.554739,0.44533599999999995,0.877656,-0.177152,-1.497547,-0.609505,-0.660269,-1.493752,0.041564,-0.196414
611,1.037017,-1.106151,2.498886,0.385758,0.8939799999999999,-0.227985,2.950977,-6.223871,-3.090663,-0.957383,2.421709,-0.305508
612,0.9916870000000001,-1.101458,2.426473,0.378538,0.891868,-0.247525,-0.172744,0.662038,0.685837,-0.051863,1.531213,2.9327669999999997
613,1.015527,-1.103389,2.449162,0.382867,0.892739,-0.237523,-0.39110900000000004,2.233145,-0.6775479999999999,-0.32493,-1.0807579999999999,0.698842
614,1.0233700000000001,-1.136573,2.398229,0.359214,0.9071969999999999,-0.218966,0.01951,1.630527,-2.44502,-0.43500500000000003,0.844558,0.6198600000000001
615,0.9959389999999999,-1.202682,2.377312,0.302002,0.9330069999999999,-0.19565,-2.190185,-1.452624,-3.1316200000000003,-0.32809499999999997,1.8987189999999998,0.610414
616,1.022282,-1.270557,2.430127,0.252343,0.955266,-0.154197,-2.310572,-0.280706,-1.9920330000000002,0.579383,1.520458,0.583183
617,1.086088,-1.3247959999999999,2.475188,0.21544899999999997,0.969894,-0.11345799999999999,-2.05532,0.609452,-2.1099639999999997,0.545354,0.37811300000000003,-0.175223
618,1.265825,-1.3805459999999998,2.667059,0.180342,0.981957,-0.05677000000000001,-3.274277,-0.18097,-1.589764,-0.107573,0.789085,0.14235699999999998
619,1.573058,-1.424115,2.950941,0.146102,0.9892620000000001,0.00033,-2.107713,2.079428,-2.038506,-0.44314499999999996,0.842068,-0.5271859999999999
620,1.9562709999999999,-1.463311,-2.983085,0.099335,0.9942290000000001,0.040308,-1.650092,1.6852040000000001,-2.4161610000000002,-0.040344,0.5775640000000001,-0.555322
621,2.548343,-1.483068,-2.431736,0.048928,0.9961540000000001,0.072564,-1.244285,2.583546,-2.3140650000000003,0.666435,0.771958,-0.367836
622,3.085037,-1.4775459999999998,-1.948047,0.005258,0.995655,0.092873,-0.842909,2.6982209999999998,-1.7698189999999998,0.941016,-0.06468600000000001,-0.648613
623,-2.899022,-1.46041,-1.684911,-0.026441000000000003,0.993914,0.10685599999999999,-0.555424,1.315094,-1.120833,1.203443,-1.359667,-0.666442
624,-2.81956,-1.456481,-1.617214,-0.036075,0.9934729999999999,0.108124,0.090003,0.229452,-0.052052,1.259983,-1.2694590000000001,-0.665421
625,-2.854373,-1.459188,-1.643531,-0.031528,0.993778,0.106733,0.195946,-0.754588,0.31955300000000003,1.00986,-1.288273,-0.450209
626,-3.011225,-1.480934,-1.7860900000000002,-0.011653,0.995965,0.088878,1.400463,-0.7212,1.313893,0.44247,-0.9170309999999999,-0.763423
627,2.7652669999999997,-1.5178610000000001,-2.272929,0.019383,0.998599,0.049052,2.275183,-1.2884790000000002,1.4927139999999999,-0.095265,-0.684497,-0.6080270000000001
628,1.399581,-1.521572,2.669491,0.048319,0.9987889999999999,-0.008355,3.2155110000000002,-1.295633,1.401015,-0.236688,-0.500101,-0.055625
629,0.796006,-1.459908,2.094198,0.079025,0.993858,-0.07736599999999999,3.091573,-1.8636240000000002,1.823893,-0.000641,0.122643,-0.243175
630,0.740754,-1.383781,2.1057919999999997,0.125447,0.982563,-0.137179,2.825967,-3.5725309999999997,3.4351059999999998,0.563549,1.691143,0.274996
631,0.810628,-1.283595,2.184125,0.20527399999999998,0.959041,-0.195169,3.061052,2.0151209999999997,3.959426,-0.367231,2.280385,0.8796930000000001
632,0.863585,-1.194975,2.187388,0.279,0.930207,-0.238458,2.684905,1.311275,3.145852,-1.002617,1.503708,-0.646887
633,0.859866,-1.1188719999999999,2.183852,0.330899,0.899609,-0.284953,2.38307,0.465945,2.750653,-0.41981199999999996,1.592457,-0.160222
634,0.9025920000000001,-1.05112,2.194482,0.389789,0.86798,-0.307674,1.792731,2.0329610000000002,2.7306340000000002,0.0061920000000000005,1.1142889999999999,0.150844
635,0.96878,-0.9878549999999999,2.210393,0.453696,0.8348469999999999,-0.311735,1.3752879999999998,2.509373,3.033688,0.364358,0.575019,0.13503800000000002
636,1.011908,-0.9288629999999999,2.239009,0.5076350000000001,0.80094,-0.31747600000000004,0.611132,-0.049551,2.664161,0.278498,0.538782,0.16864200000000001
637,1.009882,-0.8901549999999999,2.267984,0.532857,0.777169,-0.334754,0.101542,-1.858137,1.7122009999999999,0.184352,0.352988,0.43485100000000004
638,0.9857360000000001,-0.870172,2.293002,0.537461,0.76444,-0.356028,-0.276852,-2.1940169999999997,1.055169,-0.221146,-0.049627,0.42313599999999996
639,0.964701,-0.8674709999999999,2.3192310000000003,0.5315489999999999,0.762695,-0.368429,-0.894077,-1.9531349999999998,0.22694899999999998,-0.945047,-0.36392199999999997,0.46133900000000005
640,0.9618770000000001,-0.896177,2.349639,0.5123310000000001,0.780945,-0.357254,-2.181795,-0.680886,-1.129635,-1.466433,-1.265594,1.0802610000000001
641,1.023888,-0.9627030000000001,2.404069,0.487962,0.820739,-0.297101,-3.635041,2.1349,-2.331257,-1.553025,-1.536956,1.230206
642,1.1521700000000001,-1.042083,2.465778,0.46085200000000004,0.8634569999999999,-0.20504499999999998,-2.83606,4.070444999999999,-2.741559,-1.526251,-2.149803,0.969709
643,1.2221469999999999,-1.100021,2.492722,0.42627200000000004,0.891217,-0.154949,-1.094483,1.074371,-2.257673,-0.155093,-0.936795,-0.887547
644,1.183657,-1.129456,2.476666,0.395523,0.9041799999999999,-0.161261,0.44294700000000004,-2.294252,-0.873157,0.196655,-0.6364029999999999,-1.632379
645,1.187641,-1.111375,2.4586360000000003,0.411261,0.896309,-0.165769,0.669578,4.0282599999999995,1.565484,1.440973,0.592216,-1.291048
646,1.2731620000000001,-1.074311,2.461725,0.45538,0.8792620000000001,-0.13968599999999998,0.277402,2.1518479999999998,1.488237,-0.532269,0.48574300000000004,1.243934
647,1.27639,-1.069483,2.47676,0.45988599999999996,0.8769520000000001,-0.13944600000000001,-0.24852600000000002,-1.154898,-0.417975,-1.2532370000000002,0.780488,1.1794850000000001
648,1.188602,-1.0612139999999999,2.409818,0.452604,0.872948,-0.181929,2.675933,-0.442079,1.0030459999999999,-0.575925,2.520607,-1.27286
649,1.16229,-1.02475,2.388226,0.47656899999999996,0.854584,-0.20628600000000002,0.5549430000000001,0.632206,1.12145,-0.86193,-0.9694530000000001,0.843432
650,1.225555,-1.0258180000000001,2.396416,0.48779799999999995,0.855139,-0.17543399999999998,-0.398683,3.2055830000000003,-0.630778,-0.934896,-1.0747280000000001,0.844852
651,1.258583,-1.068743,2.39731,0.45794799999999997,0.8765959999999999,-0.147812,-0.915449,0.212142,-2.839635,-1.109621,-0.30286599999999997,0.793121
652,1.232189,-1.143537,2.405119,0.390833,0.9101049999999999,-0.13764,-1.847854,-2.085124,-3.495888,-0.26511599999999996,2.4195919999999997,0.526342
653,1.294376,-1.195019,2.485082,0.353045,0.9302229999999999,-0.10015299999999999,-2.2160919999999997,0.785698,-1.2909190000000001,0.480817,1.778289,0.317392
654,1.394983,-1.231227,2.563908,0.327924,0.9428979999999999,-0.058254999999999994,-1.778046,0.97125,-1.718591,0.644397,0.230762,0.184857
655,1.542938,-1.271883,2.698353,0.29434,0.955657,-0.008202,-2.530813,1.216072,-1.8170979999999999,-0.14008900000000002,0.574235,0.085213
656,1.7447830000000002,-1.311821,2.868054,0.252192,0.9666530000000001,0.044326,-1.8177310000000002,2.341036,-2.442741,-0.042658999999999996,0.768043,-0.24504
657,1.992059,-1.349769,3.085532,0.20002899999999998,0.9756729999999999,0.08963,-2.093338,1.483657,-2.511934,0.216658,0.744725,-0.443238
658,2.285724,-1.3665370000000001,-2.938873,0.153139,0.9792120000000001,0.132945,-1.6127639999999999,2.422351,-1.910507,0.8093090000000001,0.377798,-0.65861
659,2.533745,-1.369549,-2.732707,0.114131,0.9798180000000001,0.164048,-1.023776,2.1045119999999997,-1.525699,0.513005,-0.5031180000000001,-0.886444
660,2.6896400000000003,-1.37501,-2.605292,0.084938,0.9808950000000001,0.17496199999999998,0.026105,1.24004,-0.9713959999999999,0.482933,-0.8059529999999999,-0.739904
661,2.728018,-1.3900370000000002,-2.584736,0.072229,0.983707,0.164573,0.7915979999999999,0.677241,-0.22077800000000003,0.596304,-0.92519,-0.700691
662,2.664632,-1.405102,-2.655816,0.07569400000000001,0.9863040000000001,0.14648,1.140355,0.178862,0.49907399999999996,0.346227,-1.0879889999999999,-0.771282
663,2.438357,-1.4251909999999999,-2.880867,0.09379,0.989418,0.110623,2.1588439999999998,-0.49078900000000003,1.11166,0.11476700000000001,-0.9976729999999999,-0.621777
664,2.0102439999999997,-1.4363110000000001,2.985957,0.12128599999999999,0.99097,0.057017,2.864249,-0.890617,1.386292,-0.11211600000000001,-0.8306620000000001,-0.142833
665,1.523968,-1.416393,2.509968,0.15357200000000001,0.9881030000000001,-0.007197,3.22989,-0.531415,1.8167419999999999,-0.112221,-0.296453,-0.226064
666,1.2573239999999999,-1.356549,2.256129,0.202219,0.977137,-0.065551,2.1564400000000004,-1.9706569999999999,3.025657,0.320562,1.0146389999999998,-0.442276
667,1.133255,-1.262666,2.174843,0.274687,0.952902,-0.128493,3.225458,-0.8241360000000001,4.423548,0.206483,2.9868099999999997,0.49639799999999995
668,1.102956,-1.168387,2.100597,0.349538,0.92012,-0.17660499999999998,3.153172,2.786777,2.982726,-0.844533,1.460968,0.299392
669,1.062948,-1.0955489999999999,2.032025,0.39979899999999996,0.88918,-0.222503,2.926326,0.346364,2.347608,-0.350468,1.160182,-0.395523
670,1.060976,-1.0266879999999998,1.9938069999999999,0.451816,0.8555889999999999,-0.252621,2.137856,2.356802,2.7027099999999997,-0.413303,1.058382,0.143154
671,1.103492,-0.959879,1.982673,0.5121100000000001,0.819122,-0.2584,1.733177,2.672924,2.8533020000000002,-0.333369,0.7737890000000001,0.16906
672,1.140431,-0.901208,1.976073,0.564058,0.784077,-0.258939,1.2178209999999998,1.7083139999999999,2.36917,-0.072786,0.396419,0.176236
673,1.16262,-0.854807,1.978577,0.602433,0.754444,-0.260531,0.6184029999999999,0.499321,2.066362,-0.026475,0.283352,0.10940799999999999
674,1.168543,-0.821958,1.99585,0.626441,0.73248,-0.266521,-0.19105899999999998,-0.723788,1.4800950000000002,-0.171729,0.188006,0.244456
675,1.173235,-0.808046,2.0241700000000002,0.637019,0.722939,-0.267498,-0.8822409999999999,-0.670642,0.77765,-0.531321,-0.23098000000000002,0.341961
676,1.2016149999999999,-0.81486,2.064353,0.6397430000000001,0.72763,-0.24753000000000003,-1.732837,0.379348,-0.25513,-1.178562,-0.693725,0.440676
677,1.271776,-0.855057,2.121577,0.627049,0.754608,-0.193296,-2.9887200000000003,2.074346,-1.8641349999999999,-1.6308790000000002,-1.153275,0.822401
678,1.392639,-0.921824,2.196606,0.594791,0.796705,-0.107102,-2.758211,3.565233,-3.00316,-1.8060490000000002,-1.6912209999999999,0.672135
679,1.467547,-0.9827879999999999,2.233335,0.5517380000000001,0.832047,-0.057170000000000006,-0.746909,1.0748799999999998,-2.681476,-0.734798,-1.6067209999999998,-0.247258
680,1.4579879999999998,-1.0295860000000001,2.2342020000000002,0.511886,0.857086,-0.057990999999999994,-0.160548,-1.186169,-1.991889,0.452454,-0.7105100000000001,-0.898918
681,1.46605,-1.041503,2.239502,0.502142,0.8631639999999999,-0.052791,-0.179625,1.931973,0.398935,1.537683,0.125376,-0.418919
682,1.518149,-1.010857,2.206839,0.5303859999999999,0.8472870000000001,-0.027949,1.533626,3.666758,1.712979,1.262262,1.002627,-1.079015
683,1.492983,-0.996859,2.194818,0.541287,0.8397700000000001,-0.042205,-0.459458,-2.533363,0.034166,-1.171231,0.037594999999999996,0.534621
684,1.4029049999999998,-1.02051,2.1886810000000003,0.515566,0.852375,-0.087382,2.088936,-4.658213,-1.9995009999999998,-1.0256370000000001,2.727856,0.378168
685,1.332282,-1.002923,2.08343,0.5226029999999999,0.8430469999999999,-0.127067,1.8842130000000001,2.137975,1.7035,-0.47025,0.147706,2.044684
686,1.370356,-0.968199,2.066836,0.555426,0.823866,-0.112845,0.30507399999999996,3.7593199999999998,1.209692,-0.756857,-0.7391949999999999,0.998755
687,1.480809,-0.967457,2.091209,0.565088,0.8234459999999999,-0.050989,-0.962586,3.8305800000000003,-0.590662,-1.038614,-0.502492,0.49358500000000005
688,1.529293,-1.005191,2.120191,0.535452,0.8442649999999999,-0.022236000000000002,-0.816025,-0.322314,-2.467592,-0.684469,1.6633040000000001,0.191181
689,1.541862,-1.0615780000000001,2.1657759999999997,0.48727600000000004,0.8731260000000001,-0.014103000000000001,-1.4909860000000001,-1.045873,-2.090025,-0.171511,2.681714,0.192722
690,1.6059889999999999,-1.074188,2.198876,0.47613599999999995,0.8792040000000001,0.016763999999999998,-0.506729,2.352045,-0.47021599999999997,0.556823,0.517571,-0.051538
691,1.6603560000000002,-1.09426,2.243407,0.456849,0.888589,0.041025,-1.228924,0.413541,-1.249373,-0.435609,0.37662399999999996,0.15349400000000002
692,1.745252,-1.120213,2.310021,0.428863,0.900193,0.075586,-1.3301319999999999,1.7129900000000002,-1.6469880000000001,-0.400619,0.35279699999999997,0.032996
693,1.8663740000000002,-1.153576,2.396528,0.387629,0.914219,0.118032,-1.42945,2.2803400000000003,-2.248749,-0.26858000000000004,0.39057600000000003,-0.025044999999999998
694,2.0147630000000003,-1.184461,2.504131,0.34024899999999997,0.9262959999999999,0.161834,-1.355481,2.609309,-1.9965540000000002,0.471962,0.7208899999999999,-0.08187799999999999
695,2.1573290000000003,-1.200524,2.605385,0.301369,0.9322290000000001,0.200273,-1.074912,2.415539,-1.46878,0.720482,0.528922,-0.203401
696,2.2841720000000003,-1.212782,2.679319,0.264949,0.9365950000000001,0.229291,-0.466746,3.014942,-1.110651,0.8788799999999999,-0.09952799999999999,-0.67175
697,2.346767,-1.2250809999999999,2.699725,0.241846,0.940833,0.237328,0.6099859999999999,1.58535,-0.448614,0.254019,-0.49935100000000004,-0.9514239999999999
698,2.33091,-1.242837,2.654867,0.23343200000000003,0.946702,0.221917,1.391909,1.368543,0.077349,0.305935,-0.589188,-0.813973
699,2.248088,-1.260895,2.539852,0.237627,0.952364,0.191098,2.333453,1.183705,0.728301,0.304212,-0.671556,-0.934781
700,2.072306,-1.2773450000000002,2.3399509999999997,0.253612,0.9572510000000001,0.139046,3.2262310000000003,0.533643,1.080406,-0.149501,-0.67974,-0.534051
701,1.824471,-1.282159,2.082817,0.27551,0.958633,0.07142899999999999,3.570531,-0.418047,1.148124,-0.328,-0.6973560000000001,-0.112658
702,1.578746,-1.267983,1.829825,0.298172,0.954501,0.0023710000000000003,3.546007,0.14840899999999999,1.2369569999999999,-0.35893200000000003,-0.602908,0.10473099999999999
703,1.398862,-1.2286489999999999,1.623514,0.330543,0.9420360000000001,-0.057398000000000005,3.232366,1.247549,2.0964810000000003,0.111977,1.633952,-0.343343
704,1.331828,-1.160567,1.540434,0.38747,0.9170299999999999,-0.09439700000000001,2.2889169999999996,0.176834,3.4735419999999997,0.05505,1.658959,-0.306345
705,1.2777370000000001,-1.075784,1.444743,0.454776,0.8799629999999999,-0.137227,3.333982,2.484559,3.2824,-0.496906,0.9320639999999999,0.600057
706,1.275388,-1.008585,1.384525,0.509957,0.8460780000000001,-0.155186,1.8677119999999998,2.02768,2.658516,-0.234475,1.050192,-0.368587
707,1.252364,-0.959084,1.324358,0.5453899999999999,0.818666,-0.179788,2.52562,1.6872369999999999,1.445775,0.23227399999999998,0.938017,0.254312
708,1.2626110000000001,-0.909697,1.276087,0.5850489999999999,0.7893180000000001,-0.18623699999999999,1.7763060000000002,2.562617,2.1636729999999997,-0.32755700000000004,0.725071,-0.10056699999999999
709,1.2866030000000002,-0.8615440000000001,1.258925,0.625135,0.758849,-0.182602,0.926639,1.332739,1.972376,-0.341764,0.44004899999999997,-0.171158
710,1.296719,-0.8286190000000001,1.255356,0.650659,0.736999,-0.182935,0.37855500000000003,0.295342,1.337489,-0.41614700000000004,0.120164,-0.07434400000000001
711,1.29915,-0.80978,1.261715,0.664361,0.724136,-0.18504600000000002,-0.132117,-0.253217,0.70117,-0.48571099999999995,-0.06005800000000001,0.105029
712,1.2995709999999998,-0.810667,1.274566,0.66382,0.724747,-0.184593,-0.634196,-0.401022,-0.261411,-0.537035,-0.415771,0.23630500000000002
713,1.324523,-0.8320700000000001,1.301256,0.653022,0.7393270000000001,-0.164154,-1.540374,0.79973,-1.119584,-0.65464,-0.49639099999999997,0.256363
714,1.4066889999999999,-0.8735790000000001,1.358251,0.633451,0.766632,-0.104897,-2.662985,2.747984,-1.975954,-1.058958,-0.8325040000000001,0.365578
715,1.557884,-0.930299,1.447335,0.597534,0.801798,-0.007716,-3.044124,4.853751,-2.905327,-1.517318,-1.202021,0.369059
716,1.73708,-0.9850200000000001,1.539458,0.545208,0.833283,0.091504,-1.779225,4.716457,-2.701899,-1.351055,-1.541138,0.12800899999999998
717,1.8156729999999999,-1.029928,1.568619,0.499507,0.8572620000000001,0.124822,0.374067,1.5460260000000001,-2.129457,-0.034785,-0.900337,-0.668646
718,1.8325669999999998,-1.054699,1.562933,0.476663,0.8697520000000001,0.127707,0.0015300000000000001,1.53624,-0.42716400000000004,1.025794,-0.08186399999999999,-0.415945
719,1.925745,-1.0318450000000001,1.587849,0.481229,0.858247,0.178366,-0.87315,4.970059,1.5513549999999998,1.267199,0.24934299999999998,-0.15981099999999998
720,1.9901119999999999,-1.003049,1.5682909999999999,0.49113500000000004,0.843115,0.21892399999999998,0.21055,2.2902430000000003,1.3070540000000002,-0.229508,0.036387,-0.6088779999999999
721,1.9472740000000002,-0.9928370000000001,1.533232,0.5080399999999999,0.8375790000000001,0.200845,0.9225530000000001,-2.0337259999999997,0.6947939999999999,-0.260847,2.3184419999999997,-1.825159
722,1.89457,-0.9826370000000001,1.464503,0.525988,0.8319629999999999,0.176512,1.926643,1.143669,1.236119,-0.650866,2.0173259999999997,1.4077309999999998
723,1.8765990000000001,-0.97857,1.405846,0.532297,0.8297,0.168049,0.834881,2.372591,0.154424,-1.2513370000000001,-0.735507,-0.8598370000000001
724,1.9739240000000002,-0.9924629999999999,1.424295,0.502795,0.837375,0.214434,-0.524738,4.511011,-1.4313040000000001,-1.306949,-0.657382,0.458158
725,2.056516,-1.0401559999999999,1.456861,0.447536,0.862483,0.236256,0.766932,1.362069,-3.084673,-0.9368549999999999,0.493413,0.284298
726,2.098596,-1.0986559999999999,1.5141120000000001,0.392887,0.890597,0.229039,-0.343812,-1.442186,-2.542977,0.079327,2.762449,0.177668
727,2.14293,-1.097957,1.577975,0.382874,0.890279,0.246565,-1.504817,0.937227,-0.10470299999999999,1.032378,0.797603,0.402117
728,2.237971,-1.094018,1.631269,0.3605,0.8884780000000001,0.283953,-0.967641,2.490176,-1.0461799999999999,0.8886299999999999,0.33516999999999997,-0.095294
729,2.3595990000000002,-1.104199,1.722207,0.31699299999999997,0.8931040000000001,0.319159,-1.284149,1.8624189999999998,-1.759023,0.257866,0.452217,-0.43321800000000005
730,2.471469,-1.111556,1.80445,0.275293,0.896389,0.34739200000000003,-0.7633770000000001,2.038976,-1.6081969999999999,0.04029,0.802188,-0.41415
731,2.589472,-1.118808,1.8828799999999999,0.229064,0.8995799999999999,0.371841,-0.570973,2.585893,-1.616099,0.302201,0.668199,-0.540924
732,2.7040990000000003,-1.1260370000000002,1.953917,0.18227100000000002,0.9027139999999999,0.389698,-0.37137800000000004,2.297963,-1.446625,0.970088,0.187969,-0.856785
733,2.791662,-1.13084,2.010765,0.146004,0.9047700000000001,0.400067,-0.09137200000000001,1.599824,-1.061351,0.901344,-0.425324,-0.693997
734,2.8506549999999997,-1.1398030000000001,2.03989,0.119832,0.908551,0.400194,0.41072700000000006,1.690245,-0.399935,0.857341,-0.72746,-0.7538159999999999
735,2.847882,-1.154327,2.009156,0.11710799999999999,0.914523,0.38718600000000003,1.23848,0.9103899999999999,0.76373,0.575321,-0.64136,-0.976175
736,2.779893,-1.177597,1.9227400000000001,0.135572,0.923688,0.35833000000000004,1.8080740000000002,0.42290500000000003,1.497929,0.5088060000000001,-0.940564,-0.954567
737,2.652022,-1.2080629999999999,1.7791849999999998,0.166845,0.934931,0.313126,2.989496,0.177557,1.8889189999999998,0.290339,-0.997934,-0.84221
738,2.453461,-1.245752,1.5696709999999998,0.2028,0.9476370000000001,0.246656,3.7529839999999997,-0.197759,1.844527,-0.496379,-0.579335,-0.748456
739,2.194599,-1.272899,1.318505,0.238208,0.9559559999999999,0.17143,3.6756839999999995,-1.311649,1.548449,-0.573611,-0.369759,-0.20876799999999998
740,1.9060139999999999,-1.2805309999999999,1.0252370000000002,0.27024899999999996,0.958168,0.094145,4.041173000000001,0.41534899999999997,1.7175669999999998,-0.347428,0.151375,-0.5090319999999999
741,1.6980849999999998,-1.2458280000000002,0.79145,0.316671,0.9476610000000001,0.040527999999999995,2.470383,0.6766479999999999,3.000946,0.406519,1.8049790000000001,-0.033463
742,1.557839,-1.172225,0.5956600000000001,0.388049,0.921616,-0.005028,3.4341169999999996,2.25969,4.284311,-0.316608,2.437148,-0.047187
743,1.4766540000000001,-1.09509,0.458823,0.45592299999999997,0.88897,-0.043049000000000004,2.758528,2.448958,3.094691,-0.67185,1.3584209999999999,0.22235500000000002
744,1.420665,-1.042267,0.351752,0.498579,0.863549,-0.07542,3.204905,1.518233,1.828886,0.047915,1.270926,-0.031849
745,1.369065,-0.987484,0.251014,0.53961,0.834643,-0.110358,2.789688,1.629109,2.6985810000000003,0.559236,0.8271,-0.332025
746,1.3545690000000001,-0.9258200000000001,0.205842,0.58717,0.799114,-0.128978,1.3798860000000002,0.751183,2.623628,0.050342000000000005,0.8549389999999999,-0.285115
747,1.337581,-0.874482,0.193742,0.6240220000000001,0.767211,-0.148228,0.7493479999999999,-1.040137,2.252983,-0.10528399999999999,0.381333,-0.289958
748,1.303078,-0.837973,0.19328499999999998,0.6451319999999999,0.743289,-0.17696199999999998,0.25045700000000004,-1.9694880000000001,1.462341,-0.658208,-0.220873,0.135153
749,1.27496,-0.822574,0.206204,0.650774,0.732899,-0.19834300000000002,-0.507827,-1.751771,0.422727,-0.663851,-0.210484,0.15653399999999998
750,1.279617,-0.835749,0.237256,0.6423840000000001,0.741799,-0.192521,-1.6647830000000001,-0.137798,-0.724011,-0.9358719999999999,-0.891228,0.43380799999999997
751,1.358922,-0.87259,0.297661,0.62846,0.765996,-0.135183,-2.774444,2.813816,-1.559144,-1.148922,-1.061208,0.595816
752,1.516988,-0.91963,0.383698,0.605226,0.795377,-0.032598,-2.8757900000000003,5.504415,-2.197823,-1.295609,-1.2093180000000001,0.508825
753,1.7013169999999997,-0.964226,0.462636,0.56519,0.821608,0.074191,-1.8726310000000002,5.7673879999999995,-2.230677,-1.3473709999999999,-1.658262,0.192991
754,1.828572,-0.997466,0.5192319999999999,0.5244949999999999,0.8400989999999999,0.13827899999999999,-0.760645,3.031103,-1.699179,-0.42767799999999995,-1.209255,-0.45846899999999996
755,1.874152,-1.019564,0.522466,0.49980699999999995,0.85188,0.156448,0.7527729999999999,1.851853,-0.617807,0.7095130000000001,-0.311184,-1.6941680000000001
756,1.9324810000000001,-1.017148,0.506627,0.49176099999999995,0.850612,0.18604600000000002,-0.014615000000000001,4.7605319999999995,0.459487,0.924407,0.6520279999999999,0.11598599999999999
757,1.990951,-1.014274,0.516349,0.482278,0.8490969999999999,0.215462,-0.195325,0.618153,-0.035325999999999996,0.108771,1.420068,-0.8259200000000001
758,1.944641,-1.019683,0.480559,0.48745299999999997,0.851942,0.191224,1.468389,-0.37756,0.306583,0.227696,2.393145,0.043975
759,1.923039,-1.024649,0.43949099999999997,0.487493,0.854532,0.17918900000000001,0.7325010000000001,1.263611,-0.015786,-1.01209,-0.342294,0.532939
760,1.975907,-1.039959,0.43283599999999994,0.465262,0.862383,0.199519,0.250225,3.677396,-1.16204,-1.306052,-0.502657,-0.049799
761,2.0846709999999997,-1.07585,0.47584399999999993,0.413621,0.879994,0.233471,-0.255591,2.911622,-2.6259200000000003,-0.884279,-0.000172,0.241352
762,2.1791560000000003,-1.127345,0.564971,0.352062,0.903276,0.245204,-0.344046,-0.282638,-3.472749,0.080387,1.400404,0.131794
763,2.2480990000000003,-1.172016,0.649223,0.30256500000000003,0.921535,0.24332600000000001,0.08007,-0.213991,-2.0950729999999997,1.308198,0.9988290000000001,-0.099847
764,2.316657,-1.186387,0.725194,0.275429,0.9270200000000001,0.254467,-1.090597,-0.056228999999999994,-1.6387759999999998,1.015739,0.597867,-0.036084
765,2.455658,-1.1900030000000001,0.8583129999999999,0.235389,0.92837,0.287578,-1.782762,1.5327819999999999,-2.008842,0.07325,0.561529,0.080068
766,2.6476450000000002,-1.1858090000000001,1.017506,0.178036,0.926803,0.33063400000000004,-1.6925139999999999,2.1384279999999998,-2.495029,0.057803999999999994,0.632538,-0.465888
767,2.813042,-1.1828969999999999,1.163522,0.12204000000000001,0.9257059999999999,0.357987,-0.934501,1.197818,-2.3603419999999997,0.729126,1.068175,-0.727692
768,2.936081,-1.180547,1.272309,0.077626,0.9248139999999999,0.37238699999999997,-0.529913,1.151329,-1.742161,1.277782,0.820089,-0.737301
769,3.038415,-1.1782549999999998,1.356837,0.039397,0.92394,0.38047600000000004,-0.310141,1.175071,-1.476805,1.125414,0.136973,-1.065382
770,3.113316,-1.1745510000000001,1.414348,0.010911,0.922516,0.385776,-0.21043800000000001,0.976123,-0.8295799999999999,0.792616,-0.267304,-0.860325
771,-3.133966,-1.171433,1.4318540000000002,-0.0029649999999999998,0.921309,0.38879400000000003,-0.115656,1.0364440000000001,-0.013941,0.5755060000000001,-0.6269819999999999,-0.8731389999999999
772,3.138431,-1.176189,1.408301,0.001215,0.9231469999999999,0.384416,0.47480100000000003,0.19208599999999998,0.705901,0.731115,-0.740347,-0.8909469999999999
773,3.0792439999999996,-1.187352,1.3513870000000001,0.023309,0.9273819999999999,0.373361,0.580132,-0.547515,1.221399,0.9129709999999999,-1.222181,-1.098001
774,2.969737,-1.208797,1.254063,0.06055700000000001,0.935191,0.34889899999999996,1.925272,-1.0473139999999999,1.9653040000000002,0.703496,-1.482798,-0.698951
775,2.785176,-1.25169,1.077812,0.10945099999999999,0.949516,0.293973,3.173746,-1.172195,2.275423,-0.412704,-0.272239,-0.9194760000000001
776,2.527559,-1.2965200000000001,0.840203,0.15603699999999998,0.962621,0.221347,3.913992,-1.314022,1.936808,-0.555634,-0.1191,-0.5638770000000001
777,2.18338,-1.325976,0.5035930000000001,0.19827999999999998,0.970181,0.139346,3.7060120000000003,-1.099982,2.136975,-0.304374,0.776554,-0.252154
778,1.8211959999999998,-1.30891,0.147308,0.250799,0.9659030000000001,0.06414600000000001,4.044598000000001,-0.030373,2.889997,0.285853,1.8925869999999998,-0.008237999999999999
779,1.575395,-1.24918,-0.13687,0.316073,0.9487260000000001,0.0014529999999999999,3.253596,1.7158369999999998,3.784882,0.42448199999999997,2.6442,-0.001408
780,1.482705,-1.173716,-0.297688,0.38521,0.9221940000000001,-0.034022000000000004,3.009376,3.062423,3.444961,-0.766008,1.447725,0.169505
781,1.363507,-1.108716,-0.45091899999999996,0.436253,0.895127,-0.091748,3.8748519999999997,0.694239,2.448844,0.66296,0.823959,0.21107199999999998
782,1.3022989999999999,-1.034284,-0.558582,0.49281499999999995,0.859497,-0.135594,2.931007,1.85952,3.29854,0.741301,0.841477,-0.007625
783,1.2849709999999999,-0.966975,-0.6004229999999999,0.544745,0.8231719999999999,-0.16008499999999998,1.505162,0.092602,2.5772720000000002,0.516076,0.46148100000000003,-0.19976300000000002
784,1.243163,-0.91784,-0.613827,0.5752109999999999,0.794291,-0.19550399999999998,0.9249709999999999,-2.501564,2.070207,0.223617,0.30135100000000004,0.143228
785,1.173525,-0.881964,-0.614088,0.586124,0.771989,-0.24592600000000003,0.428493,-3.754063,1.3697270000000001,-0.071095,0.313781,0.378037
786,1.112319,-0.8688379999999999,-0.6033109999999999,0.579022,0.763579,-0.285779,-0.408075,-3.106944,0.373881,-0.8063020000000001,-0.604247,0.615247
787,1.0991790000000001,-0.885631,-0.572386,0.563713,0.774315,-0.287495,-1.8465209999999999,-0.9233620000000001,-0.716801,-1.117607,-1.282844,0.743794
788,1.163736,-0.9341200000000001,-0.509525,0.545938,0.804076,-0.23537600000000003,-3.2498810000000002,1.80725,-1.7075259999999999,-1.189218,-1.394729,0.805872
789,1.299452,-0.996459,-0.425933,0.5233899999999999,0.8395520000000001,-0.14561,-3.05836,4.153768,-2.334105,-1.4003729999999999,-1.954741,0.75265
790,1.449775,-1.05444,-0.348936,0.49008900000000005,0.869624,-0.059602999999999996,-2.1906380000000003,3.77345,-2.549747,-0.5893619999999999,-1.105281,-0.10839700000000001
791,1.536418,-1.105924,-0.30202199999999996,0.44802700000000006,0.8938790000000001,-0.015408000000000002,-0.634944,1.2719049999999998,-2.231231,-0.206664,-0.743442,-0.953204
792,1.507032,-1.13277,-0.333158,0.42327299999999995,0.905591,-0.027025999999999998,0.939118,0.053255,-0.674026,0.955374,0.269305,-0.399014
793,1.550167,-1.126439,-0.35194899999999996,0.42976899999999996,0.9028870000000001,-0.008867,0.14511400000000002,4.4744150000000005,0.479125,-0.172933,0.934591,-1.0280129999999998
794,1.593803,-1.131001,-0.322846,0.425624,0.904839,0.009794,-0.7198479999999999,-2.122446,-0.7319640000000001,-0.6587930000000001,1.952782,-1.683759
795,1.509089,-1.140357,-0.39289,0.416458,0.908783,-0.025731,1.7592860000000001,0.683585,0.024172,-0.168792,1.631516,1.301275
796,1.5055690000000002,-1.14344,-0.429307,0.413567,0.910065,-0.027014,0.597935,2.216091,-0.46019499999999997,-0.97036,-1.148087,0.24550500000000003
797,1.534035,-1.163483,-0.460088,0.395857,0.9181889999999999,-0.014559,0.388558,2.82165,-1.463357,-0.999159,-0.88764,0.269518
798,1.574194,-1.217302,-0.456564,0.346155,0.938169,0.001176,-0.371813,0.872331,-3.498997,-0.543024,0.427203,0.368697
799,1.6213,-1.2938100000000001,-0.385495,0.273083,0.961884,0.013803,-1.235471,-1.501884,-3.62056,1.454487,1.518997,0.11806300000000002
800,1.681729,-1.338529,-0.318323,0.228737,0.973147,0.025478999999999998,-0.43428,-0.041363,-1.6609209999999999,1.453376,0.730665,0.053424
