,attitude.roll,attitude.pitch,attitude.yaw,gravity.x,gravity.y,gravity.z,rotationRate.x,rotationRate.y,rotationRate.z,userAcceleration.x,userAcceleration.y,userAcceleration.z
0,-2.274838,-1.153234,1.336073,-0.309094,0.9140799999999999,0.262489,2.786937,-0.354002,0.423385,-0.094425,0.165128,-0.24822199999999997
1,-2.206038,-1.1826510000000001,1.424555,-0.304625,0.9256129999999999,0.22456199999999998,1.630126,-1.128924,-0.054787999999999996,0.233123,-0.069595,0.15295599999999998
2,-2.215507,-1.193039,1.452446,-0.294783,0.929494,0.221644,0.46690699999999996,-1.856818,0.231781,0.535292,-0.22571300000000002,-0.13433399999999998
3,-2.227521,-1.208197,1.472595,-0.280907,0.9349780000000001,0.21654299999999999,1.048804,-1.298343,0.458388,0.5091319999999999,-0.23868899999999998,-0.312108
4,-2.199357,-1.237692,1.523199,-0.264464,0.945032,0.192242,1.7927810000000002,-0.880452,0.802744,0.338606,-0.110849,-0.222683
5,-2.17815,-1.271056,1.569317,-0.242443,0.955413,0.168495,1.29846,-1.260792,0.9738979999999999,-0.040287,0.0309,0.039055
6,-2.177006,-1.299552,1.593877,-0.220163,0.9634379999999999,0.15263800000000002,1.070177,-1.01711,0.9719909999999999,-0.133429,-0.047743,-0.028019
7,-2.16687,-1.32796,1.62687,-0.198961,0.9706600000000001,0.134972,1.197602,-1.221803,0.901573,-0.133376,-0.185412,-0.190194
8,-2.1444810000000003,-1.3548280000000001,1.680539,-0.179954,0.976769,0.116283,1.291675,-1.603815,0.714713,-0.090248,-0.148812,-0.08665
9,-2.0915630000000003,-1.378667,1.765899,-0.165601,0.9816,0.094986,1.359551,-1.469882,0.46291499999999997,-0.123278,-0.075899,0.020234000000000002
10,-2.02583,-1.3929040000000001,1.861127,-0.15891,0.9842190000000001,0.077751,0.873383,-1.327002,0.052342999999999994,-0.29484099999999996,0.043552,0.108116
11,-1.9996479999999999,-1.391742,1.909541,-0.161931,0.9840129999999999,0.07404,0.062091999999999994,-0.902747,-0.377952,-0.309718,-0.009037,0.029735
12,-2.0199979999999997,-1.380008,1.9047509999999999,-0.170783,0.9818549999999999,0.082329,-0.447488,-0.785086,-0.588897,-0.249094,-0.011182,-0.08355
13,-2.063603,-1.3614899999999999,1.881386,-0.183023,0.978175,0.09828300000000001,-0.7439479999999999,-1.212473,-0.811542,-0.047994999999999996,0.026799,-0.31566
14,-2.12118,-1.334625,1.851625,-0.199398,0.972241,0.122357,-1.056395,-1.527432,-1.163698,-0.11038599999999998,0.167392,-0.343991
15,-2.153581,-1.2946469999999999,1.8394119999999998,-0.22762,0.9621120000000001,0.15003699999999998,-1.309872,-0.444695,-1.8462450000000001,-0.082164,0.177521,-0.37167100000000003
16,-2.168453,-1.232186,1.79798,-0.274573,0.943217,0.18690199999999998,-3.3924,2.168992,-2.578781,-0.34377399999999997,0.5929770000000001,0.247698
17,-2.216927,-1.137815,1.7146099999999997,-0.334981,0.907719,0.25261500000000003,-3.7777089999999998,0.809354,-2.9568119999999998,-0.098994,0.705791,-0.103033
18,-2.247887,-1.0603129999999998,1.682826,-0.380797,0.872508,0.306108,-2.488009,-0.528085,-2.347886,0.081985,0.785161,-0.33032399999999995
19,-2.2806189999999997,-1.00658,1.665884,-0.405584,0.845008,0.348486,-1.727829,-1.195777,-1.468983,0.333242,0.6266109999999999,-0.849035
20,-2.304555,-0.972145,1.667725,-0.418498,0.8260959999999999,0.377363,-0.8634780000000001,-1.066001,-1.372313,0.163051,0.429687,-0.589888
21,-2.288745,-0.9348350000000001,1.6987619999999999,-0.447325,0.804501,0.390714,-0.423897,-0.40620300000000004,-2.382762,-0.34456,0.36995300000000003,-0.305631
22,-2.285673,-0.892769,1.744141,-0.47367700000000007,0.7788109999999999,0.41117200000000004,-0.251665,-2.254845,-2.4347380000000003,-0.169069,0.30807199999999996,-0.353555
23,-2.301577,-0.8553719999999999,1.7836509999999999,-0.48843400000000003,0.754815,0.437796,-0.32372199999999995,-2.301684,-2.1147139999999998,0.233079,0.140098,-0.28423200000000004
24,-2.325177,-0.8235100000000001,1.8168349999999998,-0.495246,0.733536,0.46543900000000005,-0.164932,-2.527107,-1.8238279999999998,0.34810599999999997,-0.012482,-0.407929
25,-2.353528,-0.800546,1.8514009999999999,-0.49366800000000005,0.717737,0.49104200000000003,0.185048,-2.728599,-1.556206,0.350602,-0.101556,-0.572433
26,-2.381184,-0.787423,1.8847909999999999,-0.48635100000000003,0.708537,0.511286,0.441749,-2.380794,-1.1115469999999998,0.489387,-0.176707,-0.520564
27,-2.400432,-0.7866310000000001,1.9106400000000001,-0.476799,0.707978,0.520967,0.665347,-1.5640459999999998,-0.42736999999999997,0.488167,-0.236954,-0.353929
28,-2.411223,-0.7970470000000001,1.9254080000000002,-0.466204,0.715295,0.520559,0.77279,-0.803007,0.169542,0.41908500000000004,-0.269586,-0.364614
29,-2.417505,-0.816678,1.931428,-0.453533,0.728876,0.512857,0.959026,-0.398769,0.682003,0.275753,-0.27428600000000003,-0.371714
30,-2.4235279999999997,-0.8463219999999999,1.932023,-0.43602399999999997,0.748848,0.499084,1.2091180000000001,-0.32794,1.1333799999999998,0.185506,-0.24938200000000002,-0.359222
31,-2.437863,-0.883652,1.925199,-0.410443,0.7730600000000001,0.48362200000000005,1.277933,-0.54382,1.513356,0.077984,-0.157582,-0.33574899999999996
32,-2.4619720000000003,-0.9232309999999999,1.91188,-0.379126,0.797555,0.469196,1.2605540000000002,-0.7805300000000001,1.582973,0.004661,0.027305,-0.302921
33,-2.4900290000000003,-0.9614159999999999,1.899692,-0.347083,0.820003,0.45508699999999996,1.28005,-0.946915,1.35045,-0.019235,0.192143,-0.23600100000000002
34,-2.513661,-0.99423,1.8928009999999997,-0.32024600000000003,0.83834,0.44114,1.1315110000000002,-0.861952,1.0117450000000001,0.006159,0.173104,-0.15718900000000002
35,-2.532491,-1.020559,1.889315,-0.299147,0.8524010000000001,0.428834,0.96783,-0.752717,0.7434069999999999,-0.061174,0.037217,-0.21219000000000002
36,-2.542185,-1.043293,1.892393,-0.283969,0.864066,0.415604,1.0159340000000001,-0.525963,0.473192,-0.076352,0.025552000000000002,-0.198959
37,-2.535422,-1.064953,1.9104720000000002,-0.276043,0.8747659999999999,0.398196,1.234559,-0.428345,0.114603,-0.000736,0.016652,-0.354968
38,-2.517417,-1.086832,1.941555,-0.271914,0.885157,0.377537,1.325185,-0.535874,0.020302,0.108081,0.031423,-0.308705
39,-2.5114970000000003,-1.106491,1.9691400000000001,-0.263839,0.894133,0.36178899999999997,1.058376,-1.195703,0.09085499999999999,0.11860599999999999,-0.193205,-0.22290300000000002
40,-2.522396,-1.1249049999999998,1.991845,-0.250281,0.902227,0.351174,1.0769090000000001,-1.735138,0.176065,0.122244,-0.501302,-0.17022
41,-2.54121,-1.145538,2.011606,-0.23306100000000002,0.910932,0.340385,1.0555649999999999,-1.878196,0.272239,0.046446,-0.893049,-0.33773000000000003
42,-2.5631909999999998,-1.163934,2.030318,-0.216324,0.918367,0.331336,0.924097,-2.0498369999999997,0.152968,-0.070953,-1.195284,-0.536719
43,-2.586088,-1.1793639999999999,2.054548,-0.201184,0.924364,0.324121,0.925636,-2.40687,-0.073027,0.063443,-1.3487870000000002,-0.7467590000000001
44,-2.600581,-1.1978719999999998,2.09631,-0.187621,0.931266,0.312283,1.428049,-2.8170740000000003,-0.22388400000000003,0.412124,-0.867957,-0.332531
45,-2.6007,-1.2254770000000001,2.154599,-0.174276,0.940967,0.29015,1.631038,-2.437799,-0.142835,0.26798099999999997,-0.537327,-0.011906
46,-2.586017,-1.231801,2.203288,-0.175375,0.943089,0.282497,0.079611,-0.798646,-0.8511850000000001,-0.29247399999999996,1.19894,1.029362
47,-2.518455,-1.231738,2.265391,-0.194081,0.943068,0.270061,0.550619,0.90349,-0.683433,0.041127,1.33748,-1.060131
48,-2.488095,-1.220351,2.2780270000000002,-0.208706,0.93922,0.272555,-0.716847,1.021417,-0.570661,0.310283,1.502751,-0.48398100000000005
49,-2.463072,-1.19211,2.2733119999999998,-0.232021,0.9291510000000001,0.28778899999999996,-1.27611,1.532015,-0.967259,-1.079381,-0.5758489999999999,0.37859299999999996
50,-2.450018,-1.149705,2.256415,-0.260667,0.912644,0.31482,-1.7876849999999997,0.8577819999999999,-0.811871,0.07513500000000001,-0.405823,-0.533723
51,-2.462428,-1.1293520000000001,2.239183,-0.268355,0.904135,0.332418,-0.55065,-0.031233999999999998,-0.14299800000000001,0.124098,-0.18064000000000002,-0.29984
52,-2.470393,-1.132228,2.226556,-0.26408000000000004,0.90536,0.332507,0.192884,0.374701,0.527177,-0.21492399999999998,0.759465,-0.520007
53,-2.473366,-1.140361,2.208798,-0.258519,0.908784,0.3275,-0.170241,0.88882,0.41181899999999994,-0.363688,0.619689,-0.167374
54,-2.4485759999999996,-1.125394,2.197062,-0.27521799999999996,0.902438,0.331419,-0.9803059999999999,2.266291,-0.7663760000000001,-0.573431,0.495878,-0.089125
55,-2.3888119999999997,-1.080066,2.21017,-0.322177,0.8819889999999999,0.343911,-1.8540349999999999,2.1870220000000002,-2.294594,-0.558164,0.427856,0.305732
56,-2.349666,-1.000485,2.231768,-0.384231,0.841733,0.379247,-2.815266,0.078265,-3.7118660000000006,-0.590058,0.976657,-0.039174
57,-2.367255,-0.905358,2.244549,-0.43170200000000003,0.786646,0.441358,-3.05087,-2.042627,-3.260004,-0.33265700000000004,1.013799,-0.529752
58,-2.4037349999999997,-0.838527,2.249705,-0.449729,0.7436590000000001,0.49466000000000004,-1.8130970000000002,-1.677098,-1.9720959999999998,0.44536499999999996,0.9413530000000001,0.44522
59,-2.390531,-0.800621,2.260034,-0.47512600000000005,0.717789,0.5089279999999999,-0.765655,1.438261,-1.4058190000000002,0.26022199999999995,1.65567,0.311567
60,-2.351773,-0.7853399999999999,2.276802,-0.5022220000000001,0.707066,0.4978,0.043754,0.988883,-0.818477,0.19197999999999998,1.441891,0.148028
61,-2.329502,-0.777246,2.295403,-0.51732,0.7013189999999999,0.490415,0.316021,0.274505,-0.627653,0.170259,0.202688,-0.11396500000000001
62,-2.316846,-0.784842,2.304188,-0.519558,0.706713,0.480199,0.535249,0.351141,0.528528,0.08868,-0.604541,-0.41597399999999995
63,-2.3155639999999997,-0.806966,2.298048,-0.508551,0.7221920000000001,0.468818,0.6502439999999999,0.16306600000000002,1.107481,0.172278,-0.675408,-0.444694
64,-2.323543,-0.83681,2.291188,-0.48884099999999997,0.74251,0.457917,0.974482,-0.331185,1.349661,0.300746,-0.527239,-0.24783400000000003
65,-2.342193,-0.874187,2.28261,-0.459988,0.767022,0.447284,1.1366479999999999,-0.734603,1.661095,0.262265,-0.479943,-0.190754
66,-2.36883,-0.9186979999999999,2.2681709999999997,-0.423642,0.794812,0.434485,1.3143559999999999,-0.693084,2.045774,0.252835,-0.364774,-0.205985
67,-2.392425,-0.970775,2.24346,-0.384536,0.8253229999999999,0.41346099999999997,1.428501,0.23148600000000003,2.501518,0.21606399999999998,-0.21375100000000002,-0.301385
68,-2.407706,-1.029269,2.207344,-0.345211,0.856922,0.382742,1.539526,0.933328,2.7150380000000003,0.176738,-0.24535,-0.27066599999999996
69,-2.431858,-1.080867,2.175893,-0.30661900000000003,0.882366,0.356921,1.3224719999999999,-0.6447890000000001,1.949629,0.099664,0.392536,-0.55498
70,-2.479818,-1.119761,2.165507,-0.267851,0.8999959999999999,0.343861,1.40441,-2.4304959999999998,1.156664,0.057463,0.15629400000000002,-0.24080300000000002
71,-2.5223240000000002,-1.1535540000000002,2.167505,-0.235202,0.9142100000000001,0.329967,1.296913,-1.8986560000000001,0.917019,0.062259,-0.036067,-0.183315
72,-2.549813,-1.179552,2.165849,-0.212709,0.924435,0.31646799999999997,0.9181299999999999,-1.020469,0.6130770000000001,0.09128,-0.564679,-0.24220300000000003
73,-2.554624,-1.198702,2.179272,-0.20134100000000002,0.9315680000000001,0.302689,1.0182149999999999,-0.773049,0.191512,0.06141799999999999,-0.8676950000000001,-0.206986
74,-2.5441439999999997,-1.2199389999999999,2.206727,-0.193327,0.9390780000000001,0.284139,1.152462,-0.77686,0.22877399999999998,-0.004488000000000001,-1.062659,-0.054341999999999994
75,-2.5413799999999998,-1.237266,2.225982,-0.184893,0.944892,0.27013400000000004,0.757016,-0.736961,0.1843,-0.162351,-1.148475,-0.141487
76,-2.540712,-1.245557,2.242482,-0.180637,0.947574,0.26353899999999997,0.261984,-0.824471,-0.145922,-0.062251999999999995,-0.944492,-0.232731
77,-2.53268,-1.244612,2.274089,-0.18326099999999998,0.9472719999999999,0.262814,0.317372,-1.071005,-0.612032,0.008654,-0.344168,0.30312
78,-2.486918,-1.233198,2.331693,-0.20166199999999998,0.9435530000000001,0.262716,-0.021074000000000002,-0.07887999999999999,-1.4713129999999999,-0.0921,0.624379,-0.385274
79,-2.4001360000000003,-1.21635,2.404045,-0.23437800000000003,0.937839,0.25593699999999997,0.340459,1.2348370000000002,-1.310238,0.019794,0.903302,-0.806871
80,-2.3295529999999998,-1.2018229999999999,2.445378,-0.261706,0.9326979999999999,0.24811999999999998,-0.6119600000000001,1.86749,-0.9876209999999999,-0.5501689999999999,1.185451,0.482746
81,-2.30472,-1.164899,2.438936,-0.293172,0.9187489999999999,0.264443,-1.7937869999999998,1.633014,-1.531823,-1.262843,-0.256685,0.5756140000000001
82,-2.309231,-1.1270440000000002,2.413392,-0.31748200000000004,0.9031469999999999,0.28898,-1.010635,0.17361500000000002,-0.620767,-0.00985,0.02712,-0.557778
83,-2.322273,-1.117659,2.4137869999999997,-0.319866,0.899078,0.298869,-0.089339,-0.928573,-0.181357,0.118603,0.097367,-0.404262
84,-2.323414,-1.122321,2.419593,-0.316461,0.901109,0.296365,0.46762700000000007,0.20872800000000002,0.237682,-0.271552,0.242903,-0.174035
85,-2.30626,-1.1301510000000001,2.420777,-0.316256,0.9044770000000001,0.28615,-0.011515000000000001,1.072455,0.173408,-0.24159,0.27879699999999996,-0.163485
86,-2.2896009999999998,-1.12399,2.40843,-0.325167,0.901832,0.284506,-0.47285600000000005,1.548553,-0.20536999999999997,-0.29478200000000004,0.47683000000000003,-0.110266
87,-2.259795,-1.104637,2.405779,-0.346911,0.893301,0.285734,-0.888332,1.552337,-1.056445,-0.282972,0.622782,-0.035719
88,-2.234671,-1.059417,2.413232,-0.385424,0.8720700000000001,0.30153,-1.512631,0.430642,-2.3882369999999997,-0.541868,0.798416,-0.123261
89,-2.24306,-0.9893350000000001,2.416618,-0.429721,0.8356610000000001,0.342035,-2.396558,-1.107975,-2.863525,-0.361981,0.9439559999999999,-0.22770100000000001
90,-2.2643869999999997,-0.917013,2.411359,-0.467659,0.793788,0.388808,-2.171467,-0.18921400000000002,-2.649486,-0.22934699999999997,1.198979,0.43599099999999996
91,-2.252631,-0.8719629999999999,2.420705,-0.499475,0.7655930000000001,0.405423,-0.735388,0.225373,-1.281208,0.448846,1.7851119999999998,-0.12571500000000002
92,-2.259487,-0.849852,2.418677,-0.50963,0.751183,0.419496,-0.79924,-0.624532,-0.740045,0.163271,0.272056,-0.044892
93,-2.2757810000000003,-0.835615,2.416643,-0.510822,0.7417090000000001,0.43463,-0.31375,-0.601547,-0.249574,0.164462,0.28153,-0.060027
94,-2.287608,-0.8361540000000001,2.4067979999999998,-0.505344,0.74207,0.440378,-0.24399899999999997,-0.000793,0.5032399999999999,0.265049,-0.46236099999999997,-0.363215
95,-2.298397,-0.845608,2.3881740000000002,-0.495302,0.748375,0.441118,-0.027385000000000003,0.136526,0.873114,0.35833899999999996,-0.45858000000000004,-0.367983
96,-2.308225,-0.8638979999999999,2.375289,-0.480729,0.7603800000000001,0.436687,0.49373900000000004,-0.086386,1.021249,0.34376599999999996,-0.47058500000000003,-0.363552
97,-2.317588,-0.892757,2.36648,-0.460319,0.778804,0.42608100000000004,0.8984200000000001,-0.10955899999999999,1.403325,0.234427,-0.372417,-0.38800999999999997
98,-2.3309599999999997,-0.930567,2.353743,-0.43291999999999997,0.801959,0.41160399999999997,1.060186,-0.264106,1.815918,0.30199899999999996,-0.448748,-0.301222
99,-2.361784,-0.97956,2.327099,-0.391909,0.830252,0.396314,1.2369459999999999,-0.510744,2.600475,0.332521,-0.501288,-0.251249
100,-2.410472,-1.041398,2.2794470000000002,-0.33718400000000004,0.8631110000000001,0.375929,1.464178,-0.3543,3.239591,0.204433,-0.39694,-0.242765
101,-2.469312,-1.106549,2.219919,-0.27883,0.894159,0.3503,1.640261,-0.33375900000000003,3.012195,-0.317148,0.018881000000000002,-0.292058
102,-2.51452,-1.16209,2.177012,-0.23318200000000003,0.917636,0.321789,1.614231,-0.282604,1.9650900000000002,-0.392978,-0.06927799999999999,-0.241635
103,-2.540634,-1.197303,2.162745,-0.20629299999999998,0.9310579999999999,0.30091799999999996,1.055379,-1.100751,0.856625,-0.251776,-0.144925,-0.150146
104,-2.569211,-1.215632,2.170331,-0.188333,0.9375889999999999,0.292292,0.721703,-1.983067,0.14826199999999998,-0.013463999999999999,-0.213148,-0.09829199999999999
105,-2.5745869999999997,-1.222673,2.199031,-0.18320899999999998,0.9400149999999999,0.287724,0.450321,-1.232999,-0.44318500000000005,0.024151,-0.268964,-0.054661
106,-2.543368,-1.219278,2.241552,-0.193897,0.938851,0.284501,0.170424,-0.024638,-0.817362,0.13606600000000002,-0.44613,-0.064118
107,-2.50015,-1.211011,2.282825,-0.21064499999999997,0.9359729999999999,0.282068,0.077035,0.152252,-0.7509399999999999,0.433118,-0.592863,-0.295327
108,-2.487091,-1.208695,2.3138259999999997,-0.21563000000000002,0.935155,0.281012,0.360214,-1.4897790000000002,-0.353752,0.48799899999999996,-0.637929,-0.38556599999999996
109,-2.512034,-1.2132889999999998,2.329327,-0.206023,0.9367719999999999,0.282827,0.217606,-1.9511290000000001,0.057108000000000006,-0.074205,-0.522008,0.061440999999999996
110,-2.515909,-1.215933,2.3395599999999996,-0.203474,0.937694,0.281615,0.47729399999999994,0.377121,-0.32328,-0.585649,-0.225688,0.098603
111,-2.432677,-1.218731,2.4152009999999997,-0.22447399999999998,0.9386629999999999,0.261733,1.088516,0.082802,-1.308876,-0.033385000000000005,1.7416049999999998,-0.979949
112,-2.344534,-1.203107,2.503604,-0.257103,0.93316,0.251176,-0.173178,0.38008200000000003,-1.829748,-1.029564,2.4160369999999998,-0.192521
113,-2.3015790000000003,-1.161723,2.533952,-0.296174,0.9174899999999999,0.265468,-1.485566,1.277357,-2.101779,-0.674285,-0.6817409999999999,0.567906
114,-2.282189,-1.1166610000000001,2.538872,-0.332266,0.898641,0.286398,-0.986725,-0.15404,-1.286748,-0.016077,-0.5757800000000001,-0.491125
115,-2.293934,-1.108537,2.549416,-0.334343,0.8950469999999999,0.295102,0.308223,-1.2643010000000001,0.047247000000000004,0.316002,-0.016034,-0.089658
116,-2.304087,-1.129311,2.54845,-0.317444,0.904118,0.285973,0.826459,0.22414800000000001,1.13,0.018417,0.440853,-0.262489
117,-2.306707,-1.158442,2.529702,-0.297038,0.9161799999999999,0.269004,0.560867,0.9676110000000001,1.384634,-0.144307,0.185123,0.11416
118,-2.298078,-1.177681,2.49785,-0.286127,0.9237200000000001,0.25466300000000003,0.054221000000000005,2.372319,0.856934,-0.543814,0.230562,0.219779
119,-2.2555490000000002,-1.185087,2.497911,-0.29138800000000004,0.926532,0.237934,0.256076,1.8008790000000001,-0.002979,-0.45208100000000007,-0.000919,0.003948
120,-2.230407,-1.179459,2.500391,-0.301394,0.9244,0.233725,-0.35770799999999997,0.700667,-0.32418600000000003,-0.149396,-0.306785,-0.053763
121,-2.231794,-1.168104,2.4886169999999996,-0.309336,0.920009,0.24057199999999998,-0.633061,0.492629,-0.274568,0.082362,-0.498821,-0.10725599999999999
122,-2.238221,-1.1546809999999998,2.463494,-0.317456,0.914666,0.250178,-0.924377,1.034485,-0.196113,0.040692,-0.42504200000000003,-0.22346
123,-2.25391,-1.131905,2.423247,-0.32956799999999997,0.905223,0.26821,-1.6527880000000001,0.980917,-0.5536449999999999,-0.0067209999999999995,-0.201534,-0.285636
124,-2.279497,-1.089952,2.385341,-0.351138,0.886605,0.301021,-2.106405,0.060311000000000003,-1.439054,-0.415005,0.908698,-0.22198
125,-2.296682,-1.031145,2.376275,-0.38429,0.8578879999999999,0.34107,-2.0452779999999997,-0.8064600000000001,-2.3807560000000003,-1.029636,2.296669,-0.58341
126,-2.310683,-0.97034,2.382406,-0.417278,0.8250780000000001,0.38092600000000004,-1.7183119999999998,-0.895106,-2.3409709999999997,-0.770985,1.9614060000000002,-0.627645
127,-2.2986150000000003,-0.924974,2.404657,-0.44934799999999997,0.798605,0.400368,-0.645145,0.016486,-1.868898,0.46227299999999993,1.0783479999999999,0.070228
128,-2.278812,-0.902194,2.429025,-0.47088800000000003,0.7846890000000001,0.40312,-0.025129,-0.14955,-1.112326,0.24893400000000002,0.166391,0.009554
129,-2.272555,-0.8916639999999999,2.444932,-0.47968500000000003,0.778118,0.405477,0.081325,-0.272878,-0.467287,0.153223,-0.113384,0.031214
130,-2.273446,-0.89436,2.447392,-0.477721,0.779809,0.404548,0.19683699999999998,-0.084898,0.37396999999999997,0.11448599999999999,-0.515313,-0.245536
131,-2.282596,-0.908327,2.4403639999999998,-0.465707,0.7884760000000001,0.401748,0.359468,-0.281007,0.7898270000000001,0.411142,-0.436745,-0.440673
132,-2.297695,-0.9298690000000001,2.432922,-0.44678999999999996,0.801542,0.397351,0.6473300000000001,-0.534485,1.05815,0.44943,-0.488141,-0.46146899999999996
133,-2.315285,-0.9606540000000001,2.422729,-0.421378,0.819567,0.388239,0.908249,-0.399892,1.538363,0.531013,-0.7461260000000001,-0.407511
134,-2.337784,-1.001767,2.4039650000000004,-0.387935,0.842425,0.373908,1.1154700000000002,-0.324844,2.037506,0.408168,-0.680834,-0.373251
135,-2.372028,-1.052522,2.371543,-0.344684,0.868676,0.355775,1.2378,-0.317947,2.603441,0.364917,-0.7070850000000001,-0.355119
136,-2.42275,-1.1120079999999999,2.325372,-0.291616,0.89659,0.333268,1.6296389999999998,-0.777075,2.7947740000000003,0.108954,0.031876999999999996,-0.413483
137,-2.469637,-1.1734719999999998,2.306302,-0.24086999999999997,0.9221,0.302813,2.365185,-1.788125,1.917788,-0.25205,0.361165,-0.055680999999999994
138,-2.4811900000000002,-1.228004,2.322827,-0.206171,0.9418200000000001,0.265428,2.13656,-0.903493,1.204689,-0.286749,0.341445,-0.018296
139,-2.46564,-1.260743,2.344862,-0.190872,0.952317,0.23799800000000002,1.1090719999999998,-0.044525,0.409132,0.058685,0.088256,0.185006
140,-2.4473849999999997,-1.2701879999999999,2.364313,-0.189421,0.9551559999999999,0.22755100000000003,0.269522,-0.008854,-0.057182000000000004,0.22694299999999998,-0.31691199999999997,0.027988
141,-2.434837,-1.2656319999999999,2.3744,-0.19508499999999998,0.9537979999999999,0.228463,-0.209986,0.273226,-0.38563200000000003,0.059023,-0.570878,-0.09736
142,-2.413643,-1.2560790000000002,2.383643,-0.205938,0.9508840000000001,0.231071,-0.289584,0.820075,-0.40718499999999996,0.037052999999999996,-0.8159810000000001,-0.141181
143,-2.405363,-1.2485,2.384282,-0.212677,0.9485110000000001,0.23469099999999998,-0.198466,-0.019625,-0.15444000000000002,-0.094833,-1.157129,-0.380168
144,-2.4182200000000003,-1.247124,2.3916169999999997,-0.210506,0.948074,0.238384,0.048415,-1.527023,-0.094168,-0.042270999999999996,-1.152511,-0.297771
145,-2.417482,-1.254259,2.421351,-0.206195,0.950319,0.23315500000000003,0.9668,-0.738262,-0.2052,-0.077481,-0.591539,-0.149812
146,-2.349324,-1.262451,2.491714,-0.216044,0.952837,0.213096,0.877966,-0.060877999999999995,-0.8935549999999999,-0.360173,1.6496560000000002,-0.9316629999999999
147,-2.224411,-1.252552,2.608736,-0.248387,0.949786,0.190246,1.067117,1.367995,-1.6738669999999998,-0.23463,1.872266,-0.47164799999999996
148,-2.130114,-1.226958,2.6731,-0.28571399999999997,0.9414680000000001,0.178857,-0.679492,1.663505,-1.598852,-0.46936700000000003,1.0018,0.07462200000000001
149,-2.124688,-1.187339,2.660837,-0.31817199999999995,0.927377,0.19677999999999998,-1.123883,0.12473,-1.351089,-0.27382399999999996,-0.156884,-0.345325
150,-2.144269,-1.171427,2.6465549999999998,-0.326613,0.921306,0.21095300000000003,-0.48116000000000003,-0.458714,-0.12700999999999998,0.153075,-0.081066,-0.49365200000000004
151,-2.172879,-1.177524,2.629954,-0.31581,0.92366,0.21702399999999997,0.213757,-0.46566499999999994,0.740976,0.151626,0.365189,-0.251402
152,-2.1735889999999998,-1.201665,2.6233400000000002,-0.297196,0.9326409999999999,0.204544,0.717778,0.70719,1.1061889999999999,-0.118346,0.36545500000000003,-0.395279
153,-2.133259,-1.224064,2.6393009999999997,-0.287453,0.9404879999999999,0.181206,1.012937,1.5444360000000001,0.599773,-0.218178,-0.0009279999999999999,-0.33059
154,-2.0498939999999997,-1.241945,2.67003,-0.286572,0.946414,0.148864,0.650559,3.267266,0.577942,-0.365344,-0.017428,0.034257
155,-1.9999049999999998,-1.259507,2.679611,-0.278492,0.95194,0.127422,0.46670200000000006,0.907947,0.67048,-0.672847,0.028620999999999997,-0.21607600000000002
156,-1.9962330000000001,-1.266874,2.690146,-0.272563,0.9541700000000001,0.123501,0.131483,-0.689578,0.065572,-0.659138,-0.06382,0.039951
157,-2.038758,-1.261993,2.656227,-0.27121999999999996,0.9526979999999999,0.137076,-0.855881,-0.091692,0.055773,-0.061742,0.337829,-0.02648
158,-2.067965,-1.252569,2.615638,-0.274981,0.9497909999999999,0.149214,-0.721471,0.559906,-0.23895300000000003,0.08465800000000001,0.24343099999999998,-0.273283
159,-2.1068830000000003,-1.23365,2.571975,-0.284368,0.943702,0.16895,-1.37365,-0.197667,-0.6965359999999999,0.153753,0.138802,-0.24713600000000002
160,-2.162999,-1.195445,2.521641,-0.304154,0.9303790000000001,0.204619,-1.954278,-0.437992,-1.364718,-0.415314,0.963786,0.053193
161,-2.212356,-1.1440379999999999,2.479293,-0.331602,0.9103129999999999,0.24769699999999997,-2.231871,-0.602833,-1.725368,-0.223284,0.747387,-0.182374
162,-2.2555520000000002,-1.092942,2.4436419999999996,-0.356192,0.887984,0.290851,-2.102596,-0.42900699999999997,-1.351879,0.074225,0.44357399999999997,-0.26359899999999997
163,-2.289721,-1.0524200000000001,2.414203,-0.37283499999999997,0.868625,0.326293,-1.6816900000000001,-0.480687,-1.047634,0.591112,0.402066,0.186433
164,-2.302895,-1.019462,2.401596,-0.38959299999999997,0.851826,0.350129,-1.022229,0.48550299999999996,-0.816734,0.273108,0.807491,0.019393
165,-2.293466,-1.003499,2.394549,-0.403026,0.843356,0.35539,-0.52527,0.688472,-0.324277,0.15426199999999998,0.916165,-0.154401
166,-2.29593,-0.9959469999999999,2.3907990000000003,-0.406904,0.839274,0.360595,-0.174465,-0.318213,-0.09621,0.019880000000000002,0.038548,-0.105376
167,-2.307786,-0.9981909999999999,2.387747,-0.40120500000000003,0.840492,0.364127,0.077056,-0.49523100000000003,0.26362800000000003,0.193472,-0.243263,-0.31604699999999997
168,-2.326957,-1.007036,2.3784509999999996,-0.388727,0.845252,0.366636,0.15166500000000002,-0.6152310000000001,0.637112,0.24946,-0.385291,-0.394621
169,-2.353945,-1.023407,2.361206,-0.36883499999999997,0.853886,0.367179,0.288502,-0.5950840000000001,1.073877,0.281936,-0.5605359999999999,-0.338645
170,-2.391267,-1.047991,2.332089,-0.340458,0.8664219999999999,0.365218,0.429839,-0.673309,1.598393,0.242191,-0.548718,-0.290694
171,-2.44866,-1.084334,2.28723,-0.298626,0.883992,0.35967,0.793176,-1.072433,2.259467,0.17947000000000002,-0.48631800000000003,-0.261586
172,-2.527507,-1.13142,2.228989,-0.245094,0.905017,0.347643,1.25127,-1.4627290000000002,2.496039,-0.166451,0.12545499999999998,-0.27807800000000005
173,-2.597255,-1.179386,2.181469,-0.197545,0.924372,0.326336,1.589016,-1.116846,1.754473,-0.32304,0.224081,-0.21570999999999999
174,-2.622709,-1.218133,2.1722069999999998,-0.171275,0.938456,0.299914,1.507123,-0.763563,0.8582780000000001,-0.301091,0.017858000000000002,-0.12079100000000001
175,-2.650129,-1.243213,2.1649279999999997,-0.15183,0.946823,0.283652,0.702654,-1.246631,0.615064,-0.074763,-0.146301,-0.089941
176,-2.6781610000000002,-1.252743,2.163923,-0.13978,0.949846,0.279711,0.310542,-1.298088,-0.028542,0.024362,-0.123674,-0.121706
177,-2.6725849999999998,-1.254402,2.189035,-0.140625,0.950363,0.277522,0.196679,-0.653837,-0.401904,0.218018,-0.145218,0.006978
178,-2.653771,-1.24926,2.212582,-0.14811,0.948751,0.27914,-0.246521,0.123527,-0.47863500000000003,0.220604,-0.418523,-0.028957
179,-2.630932,-1.238541,2.228373,-0.159408,0.9453090000000001,0.284542,-0.272845,0.456975,-0.46001800000000004,0.178267,-0.669003,-0.296535
180,-2.606288,-1.238905,2.248895,-0.166196,0.945428,0.28023200000000004,0.430805,0.20603200000000002,-0.120428,0.087689,-1.015908,-0.40520100000000003
181,-2.5915060000000003,-1.249351,2.264514,-0.165148,0.94878,0.26931,0.628957,-0.372834,0.079319,-0.046431,-1.286686,-0.443245
182,-2.6032319999999998,-1.260934,2.282395,-0.156332,0.952376,0.26177399999999995,0.7300369999999999,-1.8528759999999997,0.085126,0.08608099999999999,-1.165694,-0.421213
183,-2.6110130000000003,-1.280584,2.313903,-0.144791,0.958183,0.24679099999999998,1.15151,-1.877635,0.050713999999999995,-0.095687,-0.7396159999999999,0.04073
184,-2.563701,-1.2955219999999998,2.3827279999999997,-0.148465,0.9623510000000001,0.22765100000000002,1.031527,0.189883,-0.863967,-0.625903,0.8001,0.21985900000000003
185,-2.4424919999999997,-1.290403,2.4765349999999997,-0.178071,0.9609469999999999,0.211799,0.21670599999999998,1.9342599999999999,-1.086606,-0.487472,1.863989,-0.513328
186,-2.394653,-1.280015,2.499048,-0.194767,0.9580200000000001,0.21035500000000001,-0.189827,0.914645,-0.432251,0.146488,0.204654,-0.172376
187,-2.3960790000000003,-1.280622,2.486962,-0.194073,0.9581940000000001,0.21020500000000003,-0.152111,0.552639,0.552309,-0.793842,1.223782,-0.25448699999999996
188,-2.4260490000000003,-1.281983,2.44541,-0.18683,0.958583,0.214941,-0.399492,0.511072,0.239781,-0.5830069999999999,0.351842,-0.000143
189,-2.43475,-1.2779340000000001,2.4208060000000002,-0.187472,0.9574219999999999,0.21950799999999998,-0.38996,0.7400439999999999,0.24703200000000003,-0.399671,0.11524100000000001,-0.128185
190,-2.482848,-1.28024,2.366145,-0.17535,0.9580850000000001,0.22652199999999997,-0.284377,-0.081982,0.861982,-0.371846,-0.033417,-0.320348
191,-2.530398,-1.294599,2.3230009999999996,-0.156473,0.9620989999999999,0.223309,0.523708,-0.388676,0.93425,-0.497931,-0.166399,-0.23340999999999998
192,-2.57669,-1.313366,2.274858,-0.13627899999999998,0.9670479999999999,0.21501900000000002,0.115717,0.388676,1.0959780000000001,-0.444684,-0.177344,0.11807999999999999
193,-2.6240759999999996,-1.3131549999999999,2.218955,-0.12604200000000002,0.966994,0.22141,-0.626903,0.1479,0.148928,-0.5800890000000001,-0.043517,0.071513
194,-2.61436,-1.2879479999999999,2.226407,-0.14040999999999998,0.9602639999999999,0.241169,-1.297564,0.361083,-1.1646020000000001,-0.286546,0.143556,0.011853
195,-2.566194,-1.23837,2.261775,-0.17757,0.9452530000000001,0.273769,-2.137058,0.6702140000000001,-2.084192,0.075641,0.334059,-0.117229
196,-2.52877,-1.174663,2.303157,-0.221923,0.92256,0.31562199999999996,-2.121666,-0.567187,-2.475604,0.166579,0.48820699999999995,-0.310632
197,-2.51619,-1.120861,2.343921,-0.254594,0.900475,0.352576,-1.365813,-1.4249459999999998,-2.013095,0.022538,0.47273999999999994,-0.725165
198,-2.5012529999999997,-1.0878940000000001,2.386489,-0.277424,0.8856510000000001,0.372345,-0.4588,-0.8604280000000001,-1.71479,-0.19842100000000001,0.421188,-0.700073
199,-2.440403,-1.059123,2.4513380000000002,-0.315867,0.871926,0.374106,-0.02049,0.834404,-2.354833,-0.21863400000000002,1.1545020000000001,0.22268000000000002
200,-2.36903,-1.035172,2.521276,-0.356218,0.85995,0.36548200000000003,0.484918,0.085983,-1.845075,-0.037474,0.706593,0.175869
201,-2.326517,-1.0232299999999999,2.580459,-0.378877,0.853794,0.357031,0.72354,-0.595788,-1.255012,0.12831199999999998,0.208614,0.10840799999999999
202,-2.303676,-1.019868,2.6220380000000003,-0.389063,0.852039,0.350202,0.636247,-0.643792,-0.6306510000000001,0.12974000000000002,-0.46046800000000004,-0.252058
203,-2.300495,-1.022748,2.645832,-0.388344,0.853543,0.347326,0.528764,-1.006664,-0.102167,0.05957899999999999,-0.65585,-0.343602
204,-2.317177,-1.033555,2.65352,-0.375702,0.859124,0.34747100000000003,0.501688,-1.242146,0.467308,0.115356,-0.6612939999999999,-0.375593
205,-2.354556,-1.051215,2.646354,-0.351652,0.868027,0.350501,0.47877700000000006,-1.800171,0.974201,0.290709,-0.48640500000000003,-0.35639099999999996
206,-2.421894,-1.0773270000000001,2.617162,-0.31222,0.8806950000000001,0.356198,0.465395,-2.198081,1.658279,0.30237800000000004,-0.513355,-0.334927
207,-2.514236,-1.109828,2.562745,-0.26109699999999997,0.8956219999999999,0.360097,0.544559,-2.131104,2.155469,0.214894,-0.47350299999999995,-0.313879
208,-2.6155459999999997,-1.1482700000000001,2.492492,-0.20589000000000002,0.912056,0.354605,0.965636,-1.772241,2.35664,-0.018872,-0.253471,-0.179861
209,-2.724561,-1.186972,2.413004,-0.151668,0.9272389999999999,0.342353,0.910525,-1.862971,2.183321,-0.08795599999999999,-0.250726,-0.042457
210,-2.851778,-1.20604,2.316652,-0.101935,0.934211,0.341821,-0.154248,-1.7756869999999998,1.7922790000000002,-0.174219,-0.193152,0.151053
211,-2.9413709999999997,-1.199467,2.257216,-0.072162,0.931846,0.355581,-0.70808,-1.7777049999999999,0.381565,-0.801816,0.431329,0.418955
212,-2.9570689999999997,-1.186195,2.273046,-0.06883500000000001,0.926948,0.368796,-0.501648,-1.123019,-0.746942,-0.592893,-0.043235,0.033471
213,-2.924131,-1.176175,2.315714,-0.082942,0.923142,0.375379,-0.259558,0.135875,-0.891074,-0.397084,-0.34120300000000003,-0.09234400000000001
214,-2.872223,-1.168491,2.35885,-0.104192,0.920161,0.377397,-0.075191,0.750108,-0.942917,-0.171336,-0.615092,-0.092272
215,-2.81276,-1.163166,2.413211,-0.12801600000000002,0.918063,0.375172,0.114042,0.125089,-1.181144,0.173488,-0.11645699999999999,0.011608
216,-2.775282,-1.159581,2.4666580000000002,-0.14316199999999998,0.916636,0.373182,0.274845,-0.814178,-0.8647600000000001,0.15648199999999998,0.609106,-0.403562
217,-2.773057,-1.155535,2.482628,-0.145326,0.915011,0.376318,-0.272476,-0.9106299999999999,-0.246754,0.41395699999999996,0.6043069999999999,-1.591849
218,-2.780456,-1.16303,2.507488,-0.14011099999999999,0.918009,0.37095700000000004,1.417317,-1.752384,-0.333217,0.431096,1.39147,-0.7077640000000001
219,-2.786683,-1.2044569999999999,2.531837,-0.12446800000000001,0.9336450000000001,0.335852,1.9931400000000001,-1.284405,0.683948,0.085878,1.879145,-0.8775540000000001
220,-2.808879,-1.239819,2.534783,-0.106128,0.945725,0.30712,1.662139,-0.700377,0.374308,-0.84573,0.27365,0.28074
221,-2.762211,-1.2467219999999999,2.56663,-0.11792000000000001,0.947946,0.295763,-0.243242,0.42988699999999996,-0.904156,-0.47193900000000005,0.43826899999999996,-0.550127
222,-2.732456,-1.2430709999999998,2.61218,-0.12804200000000002,0.9467770000000001,0.295296,0.610217,-0.918665,-0.334582,-0.10322,0.598496,-0.636407
223,-2.743534,-1.271297,2.625882,-0.114355,0.955484,0.271947,1.7231,-1.315403,0.677829,0.189673,0.763037,-0.515462
224,-2.769874,-1.315572,2.620964,-0.091687,0.967607,0.23518899999999998,2.155783,-0.8696940000000001,0.9954059999999999,0.120571,0.39764299999999997,-0.27782199999999996
225,-2.804954,-1.364214,2.599314,-0.06774,0.9787379999999999,0.19356500000000001,2.107556,-0.562138,1.114315,0.012121999999999999,0.160636,-0.0017620000000000001
226,-2.88121,-1.405211,2.5278419999999997,-0.042423,0.9863219999999999,0.159227,1.567261,-0.253081,1.284266,-0.25663400000000003,0.039404,0.095442
227,-3.012292,-1.4368670000000001,2.4005490000000003,-0.01721,0.9910450000000001,0.132357,1.270989,-0.265556,1.1978229999999999,-0.18059,-0.257662,-0.033175
228,3.074375,-1.459813,2.209307,0.0074340000000000005,0.993848,0.11043499999999999,1.022921,-0.346883,1.237855,-0.097309,-0.456509,-0.116569
229,2.7594830000000004,-1.47393,1.8997709999999999,0.036032999999999996,0.9953120000000001,0.089666,1.072625,-0.41206000000000004,1.509614,-0.193779,-0.46978400000000003,7.099999999999999e-05
230,2.349297,-1.474157,1.500825,0.06863999999999999,0.995334,0.0677,0.98819,-0.822292,1.607826,-0.37937,-0.289066,0.139774
231,2.068803,-1.45576,1.239582,0.100784,0.993391,0.054798,0.266478,-1.063197,1.4727709999999998,-0.45634399999999997,-0.310224,0.185955
232,1.9792029999999998,-1.433222,1.166759,0.12581199999999998,0.9905520000000001,0.054444000000000006,-0.218707,-0.722096,1.041656,-0.466571,-0.371594,0.11891199999999999
233,1.972172,-1.418981,1.164256,0.13916900000000001,0.988498,0.059065,-0.24084,0.12106800000000001,0.396283,-0.74151,-0.144763,-0.125121
234,1.998109,-1.41769,1.1838030000000002,0.138752,0.988302,0.063184,-0.12531,0.325386,-0.182148,-0.7740670000000001,-0.128683,-0.215268
235,2.031223,-1.423837,1.217883,0.13113699999999998,0.9892209999999999,0.065042,-0.106723,-0.356284,-0.490929,-0.8503299999999999,0.037512000000000004,-0.197686
236,2.108444,-1.430078,1.31366,0.120422,0.990115,0.0718,-0.7817649999999999,-1.1819899999999999,-0.6751159999999999,-0.8937219999999999,-0.011295,-0.262703
237,2.3210669999999998,-1.433497,1.554545,0.10008099999999999,0.9905889999999999,0.093285,-1.411311,-1.100737,-1.5331270000000001,-0.91107,0.265133,-0.223122
238,2.730824,-1.432277,1.9697200000000001,0.055115,0.9904209999999999,0.12654200000000002,-1.8949479999999999,0.517365,-2.6975990000000003,-0.7924800000000001,0.496914,-0.11340399999999999
239,-3.0887130000000003,-1.400696,2.426471,-0.008945,0.985568,0.168999,-2.1915270000000002,0.42482299999999995,-3.273188,-0.47979399999999994,0.6448189999999999,-0.12049100000000001
240,-2.841381,-1.348529,2.686041,-0.065179,0.9754,0.210548,-1.981813,-0.9250430000000001,-2.616241,-0.348548,0.712512,-0.217842
241,-2.759983,-1.300906,2.802814,-0.099284,0.9638,0.24741799999999997,-1.6389529999999999,-1.8428919999999998,-1.9535770000000001,-0.109304,0.664618,-0.591931
242,-2.72043,-1.265116,2.88478,-0.12302,0.953642,0.274618,-0.865276,-1.991616,-1.6627669999999999,-0.10993599999999999,0.303743,-0.513372
243,-2.678855,-1.241408,2.962919,-0.14438299999999998,0.94624,0.28942399999999996,-0.464613,-1.3582290000000001,-1.63087,-0.141994,0.271518,-0.35944699999999996
244,-2.6276189999999997,-1.216553,3.048669,-0.170529,0.937909,0.30204200000000003,-0.354458,-1.721237,-2.0547880000000003,-0.506366,0.133166,-0.38300500000000004
245,-2.559804,-1.1859979999999999,-3.115796,-0.206262,0.926874,0.31359699999999996,-0.158187,-2.4032240000000002,-2.970145,-0.663764,0.195684,-0.420439
246,-2.507868,-1.1496620000000002,-2.990291,-0.242056,0.912626,0.329402,0.020964,-3.6182279999999998,-2.9780189999999997,-0.112543,0.181002,-0.643718
247,-2.4852819999999998,-1.118685,-2.875839,-0.26656199999999997,0.8995270000000001,0.34609,0.328825,-4.24432,-2.784923,0.163168,-0.10372,-0.6176659999999999
248,-2.48127,-1.094873,-2.7736520000000002,-0.28101,0.88887,0.361836,0.5300020000000001,-4.393756,-2.3528330000000004,0.288609,-0.362686,-0.543523
249,-2.492038,-1.080714,-2.688597,-0.284681,0.882294,0.37482600000000005,0.716246,-4.198421,-1.813398,0.298887,-0.340806,-0.440042
250,-2.5071220000000003,-1.076435,-2.615078,-0.281231,0.8802719999999999,0.382116,0.973894,-3.847543,-1.338826,0.206539,-0.191063,-0.33742300000000003
251,-2.520868,-1.082563,-2.551886,-0.272808,0.8831629999999999,0.38154899999999997,1.212457,-3.202705,-0.833785,0.21629,-0.189529,-0.278659
252,-2.529332,-1.098929,-2.500161,-0.261227,0.8907209999999999,0.371965,1.441829,-2.456671,-0.319324,0.222057,-0.157796,-0.233079
253,-2.5329900000000003,-1.123473,-2.4587220000000003,-0.247288,0.901608,0.35486999999999996,1.578462,-1.7898209999999999,0.09738200000000001,0.22215700000000002,-0.24172600000000002,-0.136028
254,-2.534043,-1.1546299999999998,-2.428275,-0.23076,0.914645,0.331896,1.670739,-1.2337069999999999,0.539558,0.17230399999999998,-0.30101300000000003,-0.008608
255,-2.5361380000000002,-1.192065,-2.410301,-0.21041999999999997,0.929134,0.303998,1.79608,-0.788061,0.8731479999999999,0.077394,-0.271313,0.075167
256,-2.542768,-1.2318930000000001,-2.399912,-0.187379,0.9431200000000001,0.27458299999999997,1.6151790000000001,-0.9586790000000001,1.072928,-0.266844,-0.212956,0.282362
257,-2.590999,-1.262238,-2.424234,-0.158871,0.952772,0.25878,0.6875319999999999,-1.249711,1.130915,-0.635273,0.049013,0.252741
258,-2.637378,-1.2740209999999998,-2.458014,-0.141268,0.956285,0.25601799999999997,0.124248,-0.340269,0.364173,-0.931746,0.096709,0.056955
259,-2.606735,-1.276176,-2.419402,-0.14799400000000001,0.9569129999999999,0.249796,0.591118,-0.430879,-0.822449,-0.8240360000000001,-0.08983200000000001,-0.352869
260,-2.529312,-1.2816670000000001,-2.3269759999999997,-0.163849,0.958492,0.233298,1.137418,-0.585512,-0.987215,-0.470504,-0.41412,-0.346564
261,-2.4228419999999997,-1.293469,-2.204843,-0.180252,0.961791,0.206035,1.8618080000000001,-0.557283,-0.9490770000000001,-0.346649,-0.412184,-0.359478
262,-2.26936,-1.32305,-2.037588,-0.187756,0.969468,0.157684,2.615581,-0.289588,-0.08316799999999999,0.20235799999999998,1.097015,-0.189605
263,-2.277805,-1.3333,-2.015873,-0.178852,0.97193,0.152801,-1.02321,-2.211866,0.270961,0.337696,1.6093540000000002,0.9587559999999999
264,-2.388271,-1.31766,-2.093624,-0.171296,0.968132,0.18265399999999998,-1.028124,-1.363107,0.075422,-0.15985,0.353432,0.044168
265,-2.469161,-1.308437,-2.15517,-0.16153299999999998,0.965781,0.202875,-0.8103060000000001,-0.990236,0.41295600000000005,0.12703299999999998,-0.6221369999999999,-0.7605069999999999
266,-2.5476490000000003,-1.3072780000000002,-2.214517,-0.145755,0.9654799999999999,0.215842,-0.190802,-1.09976,0.624659,0.212588,0.010701,-1.0415709999999998
267,-2.605091,-1.315719,-2.236141,-0.128952,0.9676440000000001,0.21684099999999998,0.400996,-2.415191,0.332444,0.195785,0.008537000000000001,-1.04257
268,-2.645337,-1.336484,-2.217511,-0.11052999999999999,0.9726739999999999,0.20413599999999998,1.544251,-2.936053,0.392372,-0.02242,0.19558499999999998,-0.452579
269,-2.630788,-1.3852309999999999,-2.1582689999999998,-0.090177,0.9828319999999999,0.16091,2.8774029999999997,-1.523075,0.7288859999999999,-0.49827899999999997,0.259142,-0.194724
270,-2.456285,-1.443452,-1.9783099999999998,-0.080339,0.9919030000000001,0.098277,3.173809,0.48937299999999995,0.170765,-0.604689,0.186625,0.185613
271,-2.157714,-1.465547,-1.6751189999999998,-0.08741499999999999,0.994466,0.05814,1.181805,-1.0853389999999998,-0.440403,0.008786,0.037562,0.287426
272,-2.080657,-1.473492,-1.555317,-0.084727,0.9952700000000001,0.047376999999999996,0.750479,-2.362811,0.25042800000000004,0.127101,-0.119202,-0.086577
273,-1.9118709999999999,-1.490107,-1.34466,-0.07587100000000001,0.9967459999999999,0.026930000000000003,1.481514,-1.722406,0.372219,0.041477999999999994,-0.185131,-0.068938
274,-1.503363,-1.503601,-0.907148,-0.066884,0.997743,-0.004517,1.6598110000000001,-1.323022,0.507548,0.040609,-0.204057,0.13733
275,-1.0236459999999998,-1.5082879999999999,-0.39878,-0.053251,0.9980469999999999,-0.03244,1.428442,-1.427972,0.8457610000000001,-0.006959999999999999,-0.128815,0.13649
276,-0.507858,-1.501416,0.146983,-0.033664,0.9975940000000001,-0.060486,1.47939,-1.415542,1.155885,-0.180097,-0.101293,0.033143
277,-0.126466,-1.481385,0.555792,-0.011253,0.9960049999999999,-0.088504,1.422182,-1.2738690000000001,1.207647,-0.241738,-0.09564500000000001,0.05437
278,0.068488,-1.4520389999999999,0.779975,0.008104,0.992957,-0.118146,1.559304,-1.523072,1.071124,-0.234148,-0.11144100000000001,0.172192
279,0.155333,-1.4179959999999998,0.9024790000000001,0.023541,0.988349,-0.150334,1.557245,-1.8401290000000001,0.9743069999999999,-0.25166,-0.15492899999999998,0.201603
280,0.18572,-1.388422,0.9720979999999999,0.033484,0.983416,-0.178213,1.234868,-1.889144,0.724291,-0.33843,-0.170794,0.223242
281,0.185633,-1.3655629999999999,1.004604,0.037609,0.9790129999999999,-0.200267,0.9674649999999999,-1.41605,0.396009,-0.461636,0.02593,0.25843299999999997
282,0.16784300000000002,-1.34964,1.0114299999999998,0.036641,0.9756450000000001,-0.21624899999999997,0.6329060000000001,-1.138849,0.09635099999999999,-0.389454,0.045626,0.261857
283,0.136602,-1.34233,1.000707,0.030839,0.974015,-0.22434899999999997,0.22617199999999998,-0.9606899999999999,-0.148136,-0.312546,0.04306,0.21645999999999999
284,0.09525800000000001,-1.343957,0.9749329999999999,0.021388,0.974382,-0.22385300000000002,-0.22222199999999998,-0.795164,-0.393967,-0.41277600000000003,0.00685,-0.028222000000000004
285,0.023803,-1.356932,0.9252450000000001,0.005051,0.977218,-0.21214899999999998,-0.8606389999999999,-1.423447,-0.696723,-0.44349700000000003,0.006943,-0.126138
286,-0.105744,-1.376949,0.825623,-0.020329,0.9812700000000001,-0.191529,-1.065153,-1.576398,-1.1637,-0.534054,0.27071300000000004,-0.090103
287,-0.311282,-1.390276,0.637288,-0.05497899999999999,0.98375,-0.170879,-0.9837790000000001,-0.525729,-1.842799,-0.380843,0.295989,-0.009145
288,-0.563591,-1.387428,0.368906,-0.097393,0.9832350000000001,-0.154111,-0.8643360000000001,1.2509649999999999,-2.431764,-0.226582,0.273555,0.384092
289,-0.910224,-1.3853870000000001,-0.017619,-0.14554,0.9828610000000001,-0.11308800000000001,-3.574877,1.198048,-2.831984,-0.04991,0.173069,0.509007
290,-1.330124,-1.3661020000000001,-0.449662,-0.197374,0.979123,-0.048441000000000005,-2.8422490000000002,-0.14513199999999998,-2.435245,0.055665,0.204394,0.218531
291,-1.552358,-1.331507,-0.664918,-0.23693899999999998,0.971507,-0.004369,-1.801721,-0.8767229999999999,-1.8031979999999999,0.126969,0.38825,-0.414088
292,-1.679471,-1.298622,-0.770659,-0.26721100000000003,0.963189,0.029154000000000003,-1.173188,-1.276334,-1.516285,-0.068757,0.355873,-0.318995
293,-1.743832,-1.262209,-0.816393,-0.299152,0.9527629999999999,0.052287,-0.788593,-0.83616,-1.902995,-0.167477,0.339488,-0.217295
294,-1.7820349999999998,-1.214485,-0.8356389999999999,-0.341043,0.93719,0.073132,-0.771571,-1.3996549999999999,-2.458698,-0.274039,0.44212799999999997,0.047137
295,-1.819659,-1.164568,-0.834842,-0.382954,0.918618,0.09732,-0.396663,-1.946663,-2.387012,0.04369,0.40389200000000003,0.08609
296,-1.844546,-1.118882,-0.819628,-0.42041000000000006,0.8996129999999999,0.118051,-0.211691,-1.90546,-2.1956290000000003,0.21067800000000003,0.140152,0.026572000000000002
297,-1.8652630000000001,-1.079448,-0.798349,-0.45148999999999995,0.881698,0.136929,-0.025567,-2.02641,-1.9474150000000001,0.29707100000000003,-0.106048,-0.080121
298,-1.883331,-1.04641,-0.772824,-0.476412,0.8656309999999999,0.15394000000000002,0.178115,-1.961309,-1.621336,0.36341999999999997,-0.319931,-0.116175
299,-1.895716,-1.0229629999999998,-0.745909,-0.493572,0.8536549999999999,0.16626400000000002,0.340521,-1.655982,-1.128142,0.404903,-0.423403,-0.064991
300,-1.904092,-1.0120770000000001,-0.7227210000000001,-0.5009140000000001,0.847935,0.173422,0.43855,-1.255266,-0.458196,0.358671,-0.539768,-0.038945999999999995
301,-1.9096520000000001,-1.01357,-0.703773,-0.49874700000000005,0.848725,0.175783,0.5322640000000001,-0.982958,0.093312,0.213377,-0.5270699999999999,-0.04915
302,-1.9120650000000001,-1.024055,-0.687009,-0.489908,0.854223,0.173998,0.642417,-0.755942,0.501851,0.243265,-0.528021,-0.038424
303,-1.908409,-1.043515,-0.667408,-0.47476499999999994,0.8641780000000001,0.166667,0.8920370000000001,-0.616676,0.8890450000000001,0.258761,-0.507885,-0.047161
304,-1.897886,-1.0705049999999998,-0.642209,-0.45423199999999997,0.8774430000000001,0.15411,1.099121,-0.546103,1.175616,0.232431,-0.292742,-0.033306
305,-1.877837,-1.10343,-0.608876,-0.42944899999999997,0.8927579999999999,0.136165,1.342001,-0.390248,1.4163940000000002,0.069098,-0.133694,0.042989
306,-1.846122,-1.1391280000000001,-0.568924,-0.402611,0.9082690000000001,0.113738,1.3013569999999999,-0.138849,1.453176,-0.030402999999999996,0.062297000000000005,0.020875
307,-1.812114,-1.172787,-0.5284479999999999,-0.376335,0.921834,0.09262100000000001,1.18949,-0.160603,1.395807,-0.05751799999999999,0.221568,0.089263
308,-1.770852,-1.203159,-0.48089399999999993,-0.352223,0.9331790000000001,0.07142000000000001,1.204342,-0.125825,1.211064,-0.020702,0.24905700000000003,0.11990999999999999
309,-1.719291,-1.228905,-0.42336999999999997,-0.331558,0.9421219999999999,0.0496,1.212587,-0.133649,1.029534,0.006012,0.143449,0.25434
310,-1.661689,-1.25061,-0.35838200000000003,-0.313421,0.949177,0.028566,1.129678,-0.193563,0.899776,-0.021403,-0.119129,0.283049
311,-1.6108719999999999,-1.2669979999999998,-0.302166,-0.298883,0.9542069999999999,0.011984,0.7523810000000001,-0.11986,0.647076,-0.101233,-0.273024,0.189874
312,-1.579212,-1.274046,-0.265426,-0.292379,0.956292,0.002461,0.49606000000000006,-0.21703899999999998,0.130527,-0.075816,-0.36301500000000003,0.179058
313,-1.549575,-1.2708,-0.226894,-0.295427,0.9553379999999999,-0.00627,0.622674,-0.45237799999999995,-0.266734,0.17268499999999998,-0.391281,0.178069
314,-1.514661,-1.265942,-0.176998,-0.299659,0.9538909999999999,-0.016839,0.834047,-0.762592,-0.129196,0.451316,-0.44703999999999994,0.14510499999999998
315,-1.483278,-1.267766,-0.122199,-0.29725,0.9544370000000001,-0.026082,0.7209270000000001,-1.249851,0.34172399999999997,0.408761,-0.706847,-0.003078
316,-1.474491,-1.278294,-0.08010700000000001,-0.286991,0.957525,-0.027725,0.561446,-1.73537,0.684132,0.201969,-1.0657709999999998,-0.19761700000000001
317,-1.444261,-1.29131,-0.013821,-0.273634,0.961197,-0.03481,1.0753059999999999,-1.526462,0.743001,0.123976,-1.242478,-0.153437
318,-1.376449,-1.29847,0.087653,-0.263886,0.963148,-0.051940999999999994,1.3719350000000001,-1.600781,0.423633,0.269364,-1.104368,-0.083511
319,-1.30824,-1.294889,0.186144,-0.26306199999999996,0.9621780000000001,-0.070701,1.054292,-1.51794,-0.036959,0.26611399999999996,-0.206502,0.484519
320,-1.351,-1.283391,0.175349,-0.276624,0.958983,-0.061799,-0.11631199999999998,-0.609913,-0.9884709999999999,-0.393572,1.6873340000000001,-0.216964
321,-1.3434709999999999,-1.261817,0.152659,-0.296244,0.952644,-0.06852799999999999,-0.5612520000000001,2.3726529999999997,-1.084063,-0.278296,1.903664,-0.060897
322,-1.366,-1.248071,0.08241799999999999,-0.31050500000000003,0.948375,-0.06449500000000001,-0.8889440000000001,1.864697,-0.8453510000000001,-0.101024,0.05470800000000001,-0.270771
323,-1.385463,-1.233969,0.026963,-0.324816,0.943808,-0.060898,-0.755305,1.241999,-0.816914,-0.641645,-0.193655,0.52565
324,-1.4344729999999999,-1.222666,-0.033953,-0.337957,0.9400120000000001,-0.046359,-0.776634,0.271808,-0.601107,-0.532374,-0.165049,0.746905
325,-1.4380549999999999,-1.215755,-0.039346,-0.344552,0.937632,-0.046007,0.339634,0.056326999999999995,-0.163609,-0.064337,-0.036173000000000004,-0.146101
326,-1.38557,-1.2199659999999999,0.006808,-0.337781,0.9390879999999999,-0.063291,0.9308219999999999,0.624259,0.619595,-0.389987,0.352981,-0.16907
327,-1.316448,-1.2317719999999999,0.069411,-0.32185,0.9430790000000001,-0.083674,0.737535,0.489071,0.76156,-0.5845520000000001,0.323995,0.103999
328,-1.293316,-1.234936,0.088483,-0.316956,0.944127,-0.090278,0.126427,-0.100761,-0.12216800000000001,-0.666671,0.045558,0.34331500000000004
329,-1.310101,-1.225573,0.081371,-0.326955,0.941,-0.087221,-0.132404,-0.573753,-0.6938,-0.183299,0.275934,0.225404
330,-1.37355,-1.2058879999999998,0.023408,-0.349927,0.934157,-0.069931,-1.23333,-0.38565900000000003,-1.487943,-0.05173,0.298586,0.276779
331,-1.496369,-1.171553,-0.097707,-0.387629,0.9213549999999999,-0.028904000000000003,-2.401837,-0.759772,-2.288246,0.079691,0.6536569999999999,0.403827
332,-1.636698,-1.126941,-0.22882,-0.42847700000000005,0.9031030000000001,0.028277999999999998,-2.717522,-1.007692,-2.087171,-0.119253,0.9392739999999999,-0.151127
333,-1.74442,-1.0857780000000001,-0.331812,-0.4592,0.884666,0.080539,-2.320343,-0.47406099999999995,-1.615063,-0.045835,0.9715959999999999,0.23682899999999998
334,-1.783449,-1.048867,-0.379605,-0.487309,0.866859,0.105218,-0.9516479999999999,0.295282,-1.523167,0.22948200000000002,1.092019,0.183417
335,-1.783033,-1.0211629999999998,-0.385854,-0.51064,0.852716,0.11003399999999999,-0.259081,0.157426,-1.215846,0.17223,0.659033,0.25419400000000003
336,-1.7807110000000002,-1.0022659999999999,-0.381119,-0.526562,0.842693,0.112186,0.057497,-0.120525,-0.7133510000000001,0.105405,-0.335399,0.210248
337,-1.7692419999999998,-0.997727,-0.37002399999999996,-0.531559,0.840241,0.106893,0.335572,0.24856599999999998,-0.016469,0.391239,-0.620636,0.031154
338,-1.7535169999999998,-1.008177,-0.358298,-0.524511,0.8458610000000001,0.09692,0.44761999999999996,0.269746,0.716019,0.548284,-0.718847,-0.016949000000000002
339,-1.7382240000000002,-1.0313700000000001,-0.342411,-0.506448,0.8580030000000001,0.085595,0.740363,-0.056192,1.251524,0.409097,-0.7405109999999999,0.051826
340,-1.720806,-1.0638450000000002,-0.315872,-0.480047,0.874229,0.07255700000000001,0.980233,-0.40699,1.6563689999999998,0.298239,-0.549567,0.078429
341,-1.7011900000000002,-1.1071469999999999,-0.280993,-0.443402,0.894426,0.058147000000000004,1.177055,-0.60837,2.2946619999999998,0.262998,-0.484041,0.060795
342,-1.674643,-1.163055,-0.239352,-0.394383,0.918019,0.041103,1.205937,-0.53073,2.833148,0.21147600000000003,-0.399922,0.04337
343,-1.635283,-1.21947,-0.18446600000000002,-0.343407,0.938917,0.022175999999999998,1.275973,-0.662985,2.546455,0.048241,0.078798,-0.089666
344,-1.577356,-1.260902,-0.103629,-0.30492800000000003,0.9523659999999999,0.002,1.4678879999999999,-1.093687,1.664928,-0.029925999999999998,0.067196,-0.058503999999999994
345,-1.5020280000000001,-1.282784,0.0017920000000000002,-0.283353,0.95881,-0.019516,1.472232,-1.360164,0.902589,-0.010882,-0.015771,0.063904
346,-1.443808,-1.294614,0.091423,-0.270465,0.962103,-0.034532,0.978449,-1.3700620000000001,0.609665,0.101383,0.047739,0.32829400000000003
347,-1.410048,-1.299536,0.149161,-0.264468,0.963434,-0.042883,0.630517,-0.8728530000000001,0.181445,0.137179,-0.18902,0.252722
348,-1.384725,-1.296794,0.185854,-0.265892,0.9626959999999999,-0.050054,0.444484,-0.337188,-0.14741700000000002,0.214394,-0.331409,0.228185
349,-1.3713629999999999,-1.289795,0.20572600000000002,-0.27179899999999996,0.960778,-0.054936,0.259025,-0.27071100000000003,-0.360306,0.019938,-0.865685,0.168278
350,-1.372508,-1.282084,0.21600100000000003,-0.279118,0.9586110000000001,-0.056083,0.22699,-0.7351260000000001,-0.343911,-0.09264800000000001,-1.196038,0.010215
351,-1.3786450000000001,-1.27393,0.226622,-0.28712,0.9562579999999999,-0.05586,0.164175,-0.769804,-0.40839899999999996,-0.01685,-1.397634,0.135877
352,-1.390922,-1.2625979999999999,0.235485,-0.298428,0.952882,-0.054265999999999995,0.41701000000000005,-1.243797,-0.641034,0.096295,-0.997697,-0.015375
353,-1.3623319999999999,-1.2419120000000001,0.290383,-0.315977,0.9464030000000001,-0.066841,1.287684,-1.0676459999999999,-0.957781,0.19975,0.033821,0.453392
354,-1.303977,-1.2116,0.35126999999999997,-0.339067,0.9361799999999999,-0.09268,1.4097879999999998,0.965211,-1.407118,-0.204085,2.2530900000000003,-0.253313
355,-1.256414,-1.1839520000000001,0.355129,-0.358763,0.926104,-0.116657,-0.35013099999999997,2.4449110000000003,-1.22155,-0.48298800000000003,2.543714,0.189777
356,-1.301862,-1.160245,0.27857600000000005,-0.384755,0.9169010000000001,-0.10604300000000001,-1.9487,0.920493,-1.9635630000000002,-1.030635,-0.9359129999999999,1.5680180000000001
357,-1.372679,-1.153117,0.196966,-0.397692,0.914033,-0.079837,-0.8562709999999999,-0.29997399999999996,-0.067888,-0.32348499999999997,-0.69484,-0.053357
358,-1.4087459999999998,-1.158416,0.172348,-0.39552600000000004,0.916169,-0.064662,-0.41766400000000004,-0.8049350000000001,0.355634,0.197803,0.0061329999999999996,0.030483
359,-1.403351,-1.170442,0.182697,-0.384279,0.9209229999999999,-0.064954,0.380844,0.360554,0.7090270000000001,-0.005599,0.432364,0.03877
360,-1.3629850000000001,-1.178597,0.199793,-0.373983,0.9240709999999999,-0.078856,0.026193,1.757859,0.302039,0.032888,0.163011,0.255782
361,-1.3211629999999999,-1.183817,0.189933,-0.36568,0.926053,-0.093231,-0.263453,2.679869,0.15035199999999999,-0.22179899999999997,0.345034,0.371764
362,-1.2988110000000002,-1.1883299999999999,0.175841,-0.359475,0.927747,-0.100256,-0.507813,1.169395,0.07260499999999999,-0.5070859999999999,0.137225,0.15834700000000002
363,-1.336054,-1.1857540000000002,0.120066,-0.365282,0.926783,-0.087358,-1.171725,0.532593,-0.740929,-0.45817299999999994,0.099508,0.061952
364,-1.4124379999999999,-1.16406,0.027264999999999998,-0.390648,0.918417,-0.062385,-1.8268659999999999,0.43675699999999995,-1.779421,-0.17176,0.36747199999999997,0.220237
365,-1.52542,-1.125041,-0.091333,-0.43068100000000004,0.902285,-0.019556,-2.4067380000000003,-0.738156,-2.363079,-0.519881,1.00662,0.20336300000000002
366,-1.6390360000000002,-1.078164,-0.196526,-0.471832,0.881091,0.032248,-2.333406,-1.051442,-2.1367700000000003,-0.35444699999999996,1.129041,-0.12956800000000002
367,-1.718474,-1.041815,-0.268337,-0.499147,0.8633219999999999,0.074254,-1.587674,-0.313472,-1.38582,0.553438,0.9754229999999999,0.358013
368,-1.735197,-1.018114,-0.29663,-0.517881,0.8511190000000001,0.08591499999999999,-0.546748,0.623486,-0.836025,0.256315,0.242722,0.363563
369,-1.727384,-1.006885,-0.302473,-0.527943,0.8451709999999999,0.083352,-0.143646,0.593495,-0.346061,0.099232,0.093473,0.276069
370,-1.7196220000000002,-1.0048709999999998,-0.305762,-0.530257,0.844093,0.07950399999999999,-0.077582,0.5159560000000001,0.072174,0.04106,-0.10451500000000001,0.150507
371,-1.7094330000000002,-1.011299,-0.305145,-0.525655,0.8475219999999999,0.07334500000000001,0.160483,0.458185,0.45953900000000003,0.37311300000000003,-0.43168900000000004,-0.025311
372,-1.6954060000000002,-1.026467,-0.297354,-0.5138159999999999,0.855475,0.06436,0.38402600000000003,0.305454,0.8971309999999999,0.404914,-0.508414,-0.045897
373,-1.677945,-1.0516290000000001,-0.281828,-0.49329799999999996,0.868233,0.05306,0.629685,0.139657,1.386168,0.38728,-0.595802,0.057918
374,-1.6569599999999998,-1.0862180000000001,-0.256822,-0.464092,0.884871,0.040087,0.822556,-0.19193,1.822707,0.325817,-0.5169060000000001,0.156172
375,-1.634741,-1.1295870000000001,-0.22265300000000002,-0.426145,0.904236,0.027287,0.998251,-0.506575,2.299696,0.26867399999999997,-0.41845699999999997,0.186916
376,-1.595718,-1.182116,-0.170578,-0.378832,0.9254100000000001,0.009443,1.282322,-0.335321,2.649701,0.043185,0.10191900000000001,0.139956
377,-1.525672,-1.229479,-0.08996,-0.334368,0.942315,-0.015097999999999999,1.461937,-0.282775,2.141347,-0.076627,0.18701900000000002,0.102378
378,-1.439933,-1.2605950000000001,0.008526,-0.302619,0.9522719999999999,-0.039829,1.385468,-0.448996,1.418908,-0.05896799999999999,0.005765999999999999,0.110142
379,-1.367055,-1.276126,0.100719,-0.28439699999999996,0.9568979999999999,-0.058759000000000006,1.105267,-1.0163719999999998,0.759653,0.092945,-0.073292,0.250852
380,-1.324225,-1.282165,0.171752,-0.276011,0.958634,-0.06947,0.838959,-1.272902,0.407744,0.133616,-0.199601,0.288006
381,-1.289886,-1.283606,0.225358,-0.272136,0.959044,-0.07852200000000001,0.624537,-0.527748,0.19592,0.158641,-0.34075700000000003,0.283249
382,-1.265363,-1.2827469999999999,0.251899,-0.270915,0.9588,-0.08541900000000001,0.22715500000000002,0.146488,0.028843,0.03712,-0.816207,0.19864
383,-1.254416,-1.282467,0.267592,-0.27021799999999996,0.9587200000000001,-0.088463,0.251013,-0.471488,0.037279,-0.073608,-1.0465799999999998,0.065789
384,-1.247485,-1.2803360000000001,0.287879,-0.271536,0.9581120000000001,-0.09098300000000001,0.329342,-0.6686,-0.021741999999999997,-0.070154,-1.160978,0.06922400000000001
385,-1.255883,-1.277694,0.297112,-0.274696,0.9573520000000001,-0.08948300000000001,0.153442,-1.000913,-0.148595,0.003684,-1.324875,0.13634300000000002
386,-1.239436,-1.266262,0.340412,-0.28352,0.953987,-0.097544,1.2186549999999998,-1.230197,-0.476282,0.205242,-0.546241,0.109919
387,-1.218249,-1.2446059999999999,0.390434,-0.300712,0.9472700000000001,-0.11063699999999999,0.8284969999999999,-1.411155,-0.971226,0.184303,0.039669,0.17588399999999998
388,-1.2060680000000001,-1.218005,0.402882,-0.322775,0.9384120000000001,-0.12323900000000002,0.6130140000000001,1.0255450000000002,-1.154247,-0.133981,1.835834,-0.06252100000000001
389,-1.187209,-1.2037360000000001,0.380264,-0.332778,0.9333870000000001,-0.134302,-0.701217,2.420805,-0.7518130000000001,-0.125077,2.4000939999999997,0.538263
390,-1.235303,-1.1938469999999999,0.29291999999999996,-0.34755,0.929792,-0.121182,-1.34323,1.027526,-1.019431,-0.022933000000000002,-0.062513,0.088238
391,-1.289039,-1.19069,0.214887,-0.35637399999999997,0.928625,-0.103155,-1.229252,1.1332879999999999,-0.394929,-0.183451,0.008036,0.321997
392,-1.320617,-1.187075,0.157782,-0.362703,0.927278,-0.092683,-0.824377,0.9881629999999999,-0.41755200000000003,0.086962,-0.067613,0.10246400000000001
393,-1.323035,-1.188732,0.134508,-0.36143600000000004,0.927897,-0.091428,-0.188289,1.0098209999999999,0.27373000000000003,0.151826,-0.006464,0.026579000000000002
394,-1.277924,-1.1993129999999999,0.158625,-0.347524,0.93179,-0.10479400000000001,0.546456,1.1916879999999999,0.775353,-0.068491,0.057727,-0.134144
395,-1.2147809999999999,-1.211096,0.195668,-0.329905,0.936002,-0.122679,0.119219,1.676233,0.652107,-0.46874,0.18341300000000002,0.34527399999999997
396,-1.2073969999999998,-1.211665,0.17089000000000001,-0.328492,0.9362020000000001,-0.124922,-0.609463,1.262416,-0.722982,-0.714095,0.24031100000000002,0.295134
397,-1.262973,-1.185837,0.08381799999999999,-0.357854,0.9268139999999999,-0.113772,-1.397979,1.325854,-2.31488,-0.405696,0.47531599999999996,0.367892
398,-1.369049,-1.135609,-0.045732999999999996,-0.41301400000000005,0.906791,-0.08447400000000001,-2.1139419999999998,0.012733,-3.3821480000000004,-0.25652600000000003,0.649438,0.403123
399,-1.507418,-1.078368,-0.178582,-0.471803,0.881187,-0.029942,-2.7495529999999997,-1.2647,-3.0559380000000003,-0.40484499999999995,0.8281940000000001,-0.034038
400,-1.61869,-1.022925,-0.28139200000000003,-0.5202600000000001,0.853635,0.024936,-2.266428,-0.8622920000000001,-2.6097669999999997,-0.067143,0.6335930000000001,0.199506
401,-1.6577490000000001,-0.982482,-0.33066999999999996,-0.5528489999999999,0.8318770000000001,0.048193,-0.946019,0.493925,-1.388782,0.27274299999999996,0.8357559999999999,0.371194
402,-1.665027,-0.9645100000000001,-0.348666,-0.567278,0.8217700000000001,0.053614,-0.44627799999999995,0.10797999999999999,-0.678702,0.050737,0.572716,0.41135200000000005
403,-1.667766,-0.955893,-0.351128,-0.574156,0.816829,0.055851,0.08379500000000001,0.025568,-0.24333200000000002,0.091337,0.13980499999999998,0.267849
404,-1.651847,-0.9591879999999999,-0.33818000000000004,-0.572286,0.8187260000000001,0.046486,0.532813,0.362451,0.368259,0.397939,-0.42591899999999994,0.072517
405,-1.6285,-0.976548,-0.317182,-0.55894,0.82857,0.032289,0.714665,0.236425,1.089672,0.393275,-0.485125,0.09619
406,-1.600962,-1.006733,-0.287063,-0.534367,0.84509,0.016124,1.006633,0.051864,1.701903,0.230503,-0.6609619999999999,0.202961
407,-1.564586,-1.048445,-0.243635,-0.49889399999999995,0.866648,-0.003098,1.1911610000000001,-0.101274,2.274887,0.192803,-0.643092,0.13884000000000002
408,-1.520875,-1.10019,-0.187772,-0.452846,0.891293,-0.022625,1.302556,-0.37457199999999996,2.857128,0.167782,-0.600201,0.126187
409,-1.464033,-1.16045,-0.11388399999999999,-0.39663699999999996,0.916983,-0.042508,1.342997,-0.561322,3.169571,0.170929,-0.310446,0.11662
410,-1.395964,-1.213519,-0.024218,-0.344373,0.936853,-0.060828,1.231547,-0.9604209999999999,2.639465,0.034604,0.107047,-0.043648
411,-1.3317649999999999,-1.252118,0.077203,-0.30438200000000004,0.94965,-0.074175,1.303679,-1.9603990000000002,1.966134,-0.057496000000000005,0.168819,-0.119322
412,-1.265775,-1.272132,0.194735,-0.28063899999999997,0.95573,-0.088358,1.523289,-2.385932,1.099749,-0.095139,0.332371,0.078288
413,-1.204383,-1.27407,0.29787800000000003,-0.272961,0.956299,-0.104747,1.210847,-1.417833,0.365661,0.332439,0.061569000000000006,0.429896
414,-1.163879,-1.271625,0.35602,-0.270642,0.9555809999999999,-0.116639,0.625145,-0.43701999999999996,0.15094200000000002,0.42077299999999995,-0.058319,0.426407
415,-1.14541,-1.270133,0.371863,-0.269741,0.95514,-0.122206,0.028981,0.59282,-0.060709000000000006,0.377956,-0.353562,0.43984799999999996
416,-1.139994,-1.270484,0.35922800000000005,-0.26877,0.9552440000000001,-0.123525,-0.23084899999999997,0.7427010000000001,-0.021055,0.053621,-0.7956979999999999,0.08089199999999999
417,-1.148123,-1.2724799999999998,0.348148,-0.268025,0.955833,-0.120553,-0.15967,-0.203795,0.050089,-0.006587000000000001,-0.9187540000000001,0.037637000000000004
418,-1.168765,-1.275401,0.337488,-0.267885,0.9566870000000001,-0.113902,-0.232542,-0.7288100000000001,0.071618,-0.134657,-1.278297,0.019603
419,-1.20309,-1.275755,0.32629400000000003,-0.27132,0.9567899999999999,-0.10452,0.011641,-1.459531,-0.15434,-0.150326,-1.443897,0.064038
420,-1.2030299999999998,-1.265119,0.358646,-0.28079499999999996,0.953643,-0.10818900000000001,1.035919,-1.288182,-0.46893999999999997,-0.063443,-1.096359,0.195576
421,-1.15578,-1.2427270000000001,0.41725100000000004,-0.294844,0.946666,-0.129911,1.2080110000000002,-0.364902,-0.805411,-0.032304,1.959813,0.059537
422,-1.1355110000000002,-1.214452,0.43291499999999994,-0.316304,0.9371780000000001,-0.147092,0.696032,1.324065,-1.28651,-0.106303,2.24315,-0.23721599999999998
423,-1.087226,-1.193179,0.43415299999999996,-0.326416,0.9295459999999999,-0.17142000000000002,0.248527,2.669047,-0.783954,-0.056885000000000005,2.4115029999999997,0.29822
424,-1.099469,-1.18469,0.381791,-0.335509,0.9263819999999999,-0.170988,-1.125442,1.1351209999999998,-0.942205,-0.9630139999999999,-0.70452,0.330045
425,-1.148931,-1.182366,0.310252,-0.345516,0.9255049999999999,-0.15507200000000002,-1.173617,0.781201,-0.306496,-0.507023,-0.077253,0.163678
426,-1.192662,-1.1857719999999998,0.258615,-0.349033,0.926789,-0.138654,-0.819082,-0.430749,-0.164666,-0.207394,0.050933,-0.12137200000000001
427,-1.223428,-1.1896360000000001,0.242033,-0.34976199999999996,0.928234,-0.126631,-0.004545,-0.695933,0.176786,-0.106949,0.181248,0.026151999999999998
428,-1.204634,-1.194256,0.262818,-0.34331300000000003,0.929942,-0.131645,0.23512399999999997,0.403781,0.414196,-0.132548,0.11974000000000001,0.083732
429,-1.19902,-1.205602,0.248142,-0.332716,0.934054,-0.12972899999999998,-0.865157,1.236586,0.362714,-0.200686,0.125073,0.345152
430,-1.221373,-1.211822,0.206806,-0.330067,0.936257,-0.120268,-0.655424,0.404805,-0.134683,-0.374294,0.140677,0.320479
431,-1.2726,-1.209344,0.152863,-0.338009,0.935384,-0.10389100000000001,-1.070917,-0.194703,-0.63354,-0.135624,0.060832000000000004,0.308267
432,-1.365053,-1.195503,0.061773,-0.358796,0.9304,-0.074879,-1.596809,-0.419013,-1.357976,0.002473,0.059224,0.199559
433,-1.471563,-1.165733,-0.047117,-0.392121,0.919077,-0.03904,-1.9515310000000001,-0.233001,-2.012307,0.33876,0.544164,0.342018
434,-1.574127,-1.127069,-0.15051900000000001,-0.42928999999999995,0.903158,0.00143,-2.005341,-0.48776099999999994,-1.925831,0.263106,0.875239,0.179372
435,-1.6418810000000001,-1.0929360000000001,-0.228735,-0.45870200000000005,0.8879809999999999,0.032662000000000004,-1.60196,0.6649689999999999,-1.502543,0.16150699999999998,1.015965,-0.25563800000000003
436,-1.6452939999999998,-1.060602,-0.26967399999999997,-0.48697700000000005,0.872649,0.036345999999999996,-0.753737,1.856211,-1.5045540000000002,-0.046348,1.3395700000000001,0.418259
437,-1.625526,-1.038248,-0.27966599999999997,-0.506955,0.861516,0.027773000000000003,-0.16279200000000002,1.177684,-0.9654450000000001,-0.21345799999999998,0.8684950000000001,0.39925900000000003
438,-1.609324,-1.020734,-0.27824,-0.5223369999999999,0.852492,0.020135,0.062811,0.510401,-0.7899619999999999,-0.309267,0.25369400000000003,0.243583
439,-1.597642,-1.009276,-0.271669,-0.532267,0.8464459999999999,0.014293,0.191125,0.206031,-0.443641,0.056620000000000004,-0.207256,0.11354500000000001
440,-1.5932540000000002,-1.007296,-0.264112,-0.533999,0.84539,0.011994,0.195919,-0.301192,0.12213199999999999,0.357348,-0.5560689999999999,0.080917
441,-1.5990360000000001,-1.016645,-0.257997,-0.525996,0.850347,0.014858000000000001,0.160944,-0.665412,0.658602,0.486216,-0.760336,0.066441
442,-1.6073629999999999,-1.035757,-0.251231,-0.509518,0.8602489999999999,0.01864,0.262363,-0.668672,1.11865,0.43874799999999997,-0.807148,0.10370499999999999
443,-1.6076290000000002,-1.063397,-0.239037,-0.48556000000000005,0.8740110000000001,0.017891999999999998,0.383056,-0.49910200000000005,1.4984950000000001,0.34339400000000003,-0.730945,0.093558
444,-1.60212,-1.0974409999999999,-0.222654,-0.45563400000000004,0.8900440000000001,0.014277000000000001,0.500538,-0.393189,1.816442,0.206702,-0.6129899999999999,0.107885
445,-1.584804,-1.13925,-0.195545,-0.418217,0.9083200000000001,0.0058590000000000005,0.723747,-0.390358,2.246354,0.208423,-0.399836,0.092835
446,-1.55799,-1.187677,-0.151622,-0.373764,0.9275030000000001,-0.004787,0.9498340000000001,-0.9256459999999999,2.44624,0.082245,0.198275,0.121898
447,-1.5284719999999998,-1.2315399999999999,-0.089814,-0.332465,0.943003,-0.01408,1.065564,-1.6882400000000002,2.044238,-0.041513,0.435385,0.14937899999999998
448,-1.49414,-1.2636020000000001,-0.016613,-0.301473,0.9531860000000001,-0.023155000000000002,1.054547,-1.6782290000000002,1.416034,-0.11143,0.153962,0.211754
449,-1.447864,-1.2803799999999999,0.059135,-0.284165,0.958125,-0.03511,0.9953790000000001,-1.0955620000000001,0.678869,-0.012314,0.019413999999999997,0.281158
450,-1.397989,-1.286223,0.133633,-0.276541,0.959782,-0.04827,1.0392379999999999,-1.120123,0.389719,0.004141,-0.10881400000000001,0.258368
451,-1.352689,-1.289636,0.19980799999999999,-0.270872,0.960734,-0.060034000000000004,0.664884,-0.711505,0.293645,0.202101,-0.34997,0.370718
452,-1.3346930000000001,-1.2920559999999999,0.225165,-0.267487,0.9614030000000001,-0.064355,0.162455,-0.107369,0.165447,0.156281,-0.5489729999999999,0.287042
453,-1.327021,-1.295157,0.24012600000000003,-0.26409,0.962251,-0.06568500000000001,0.235945,-0.565872,0.21034499999999998,0.078848,-0.760637,0.074306
454,-1.305509,-1.298173,0.275381,-0.259814,0.963068,-0.070589,0.516606,-0.481904,0.280564,-0.021543,-1.267664,0.019411
455,-1.276649,-1.299516,0.314844,-0.25643,0.9634290000000001,-0.077682,0.49505299999999997,-0.657087,0.152452,-0.008126999999999999,-1.434208,-0.055328999999999996
456,-1.236723,-1.295849,0.380877,-0.256463,0.9624389999999999,-0.089014,1.31679,-1.425451,0.048081,0.05965499999999999,-1.335685,-0.050145999999999996
457,-1.1621059999999999,-1.284965,0.48488400000000004,-0.258713,0.9594280000000001,-0.112042,1.3056290000000002,-1.345323,-0.00016999999999999999,0.28508,-0.388245,0.416653
458,-1.104254,-1.267368,0.543818,-0.266842,0.954318,-0.134388,1.4059540000000001,1.2809409999999999,-0.708929,-0.353489,1.2114989999999999,0.481663
459,-1.036494,-1.243958,0.584626,-0.276287,0.9470620000000001,-0.163482,0.627833,1.215419,-0.698257,-0.379948,1.426885,-0.24726900000000002
460,-1.073775,-1.23764,0.521396,-0.287443,0.9450149999999999,-0.155921,-1.349955,0.9541620000000001,-0.7822399999999999,-0.420901,1.121071,0.013205000000000001
461,-1.184376,-1.23385,0.394714,-0.306211,0.9437690000000001,-0.12459,-1.887605,0.434288,-0.844081,-1.440112,-0.693021,1.160708
462,-1.2378879999999999,-1.2401879999999998,0.33915700000000004,-0.30677600000000005,0.945845,-0.106076,-0.626799,-0.839359,0.08716499999999999,-0.04735,-0.11613299999999999,-0.41939
463,-1.274676,-1.24794,0.343509,-0.303448,0.948333,-0.092579,0.352844,-2.4086689999999997,0.608765,-0.453846,0.344987,-0.057613
464,-1.265118,-1.259682,0.40271,-0.29190900000000003,0.951993,-0.09211699999999999,0.802257,-2.160669,0.803867,-0.507774,0.5317109999999999,-0.07872
465,-1.233765,-1.2656120000000002,0.4606,-0.283544,0.953792,-0.099354,0.636026,-0.324289,0.45531400000000005,-0.500467,0.282537,0.240254
466,-1.206469,-1.2673370000000002,0.47843,-0.27919,0.954309,-0.10646900000000001,-0.09464199999999999,0.6687069999999999,-0.015738,-0.5139319999999999,0.196448,0.214517
467,-1.265249,-1.265465,0.41147100000000003,-0.286665,0.9537469999999999,-0.090421,-1.409481,-0.15894,-0.75773,-0.31187600000000004,0.11589400000000001,0.345457
468,-1.425003,-1.245011,0.26191,-0.31663600000000003,0.9474,-0.046493,-2.343281,-1.174612,-1.961496,-0.286635,0.140842,0.377731
469,-1.602854,-1.20269,0.102979,-0.359644,0.933011,0.011533,-2.5477849999999997,-1.663674,-2.291311,0.11145899999999999,0.47888500000000006,-0.131635
470,-1.7380639999999998,-1.158572,0.013587,-0.395038,0.9162319999999999,0.0667,-1.387953,-2.9113860000000003,-1.89705,0.139377,0.637235,-0.23189200000000001
471,-1.7855509999999999,-1.119278,-0.000229,-0.426291,0.8997860000000001,0.09298200000000001,-0.315266,-1.0491549999999998,-1.793668,0.13346,0.626017,-0.301036
472,-1.780431,-1.088768,0.013586,-0.45341099999999995,0.886057,0.096468,0.057714999999999995,-0.09095299999999999,-1.448323,0.19878800000000002,0.341269,-0.09718500000000001
473,-1.770532,-1.062276,0.036621,-0.47718999999999995,0.873466,0.0966,0.531523,-0.976942,-1.40649,0.003786,0.173851,0.383182
474,-1.754977,-1.041728,0.082858,-0.49617700000000003,0.8632780000000001,0.092434,1.051167,-1.117458,-1.083282,-0.067604,0.297306,0.351383
475,-1.737709,-1.030815,0.125725,-0.5069600000000001,0.857718,0.085413,0.9113030000000001,-1.038331,-0.504316,0.082979,0.014581,0.170843
476,-1.737959,-1.029873,0.157335,-0.507735,0.857234,0.085674,0.734965,-1.569114,-0.01669,0.078826,-0.32223,-0.02647
477,-1.756168,-1.034925,0.18074300000000001,-0.5018279999999999,0.859824,0.094105,0.593812,-2.102271,0.23510799999999998,0.102109,-0.31453600000000004,-0.062030999999999996
478,-1.786173,-1.046014,0.200782,-0.48943400000000004,0.865433,0.107073,0.628791,-2.519243,0.583059,0.356621,-0.21331799999999998,-0.014894999999999999
479,-1.8210540000000002,-1.065381,0.22123299999999999,-0.46907299999999996,0.874974,0.119903,0.796404,-2.592717,0.9624739999999999,0.425417,-0.010762,0.200913
480,-1.8425740000000002,-1.0924559999999999,0.246642,-0.443395,0.88776,0.12356199999999999,0.970923,-1.928694,1.254467,0.367375,-0.027836,0.241459
481,-1.858528,-1.1239190000000001,0.26599,-0.414369,0.9018010000000001,0.12262999999999999,0.744386,-1.5718370000000002,1.4532530000000001,0.23347600000000002,-0.15730999999999998,0.187703
482,-1.884508,-1.155227,0.27204,-0.38399,0.9148870000000001,0.12457599999999999,0.5030600000000001,-1.6380299999999999,1.432424,0.107775,-0.5125890000000001,0.106717
483,-1.927661,-1.18201,0.267881,-0.355164,0.92537,0.132415,0.288172,-2.1999009999999997,1.204112,0.078904,-0.635514,0.03888
484,-1.9897330000000002,-1.204137,0.256655,-0.32747600000000004,0.93353,0.145824,0.187204,-2.756015,1.03534,-0.038872000000000004,-0.590192,0.050724
485,-2.0593,-1.218056,0.24237899999999998,-0.305043,0.9384290000000001,0.16212100000000002,0.002637,-2.839407,0.47227299999999994,-0.12057000000000001,-0.503478,0.049732
486,-2.115112,-1.213219,0.24316100000000002,-0.29940500000000003,0.9367479999999999,0.181233,-0.19992200000000002,-2.737259,-0.653042,-0.28276399999999996,-0.131236,0.36498600000000003
487,-2.1448270000000003,-1.1886299999999999,0.262189,-0.31314000000000003,0.927859,0.202498,-0.43040900000000004,-2.126009,-1.463011,-0.193604,-0.034335000000000004,0.537096
488,-2.1521630000000003,-1.1587049999999999,0.291796,-0.334708,0.916285,0.21994499999999997,-0.231789,-1.49663,-1.5852760000000001,0.0011970000000000001,-0.186229,0.16151
489,-2.135335,-1.12976,0.330658,-0.360624,0.9043100000000001,0.22838000000000003,-0.07258300000000001,-0.641175,-1.732675,0.27689899999999995,-0.308744,-0.17361600000000002
490,-2.102024,-1.093921,0.37445700000000004,-0.39573200000000003,0.8884340000000001,0.232519,0.018382,-0.14194500000000002,-2.247562,0.605632,0.564371,-0.6247010000000001
491,-2.03704,-1.067598,0.460808,-0.43074300000000004,0.8760450000000001,0.216771,1.3725209999999999,-0.241581,-1.6825,0.935473,1.0267110000000002,-0.24893600000000002
492,-1.958115,-1.058025,0.5306420000000001,-0.45423800000000003,0.8713879999999999,0.18529500000000002,1.413243,1.343142,-1.083906,0.294052,0.866984,-0.094261
493,-1.8742020000000001,-1.033196,0.606622,-0.48867299999999997,0.8589399999999999,0.15299000000000001,1.558446,0.26156999999999997,-2.1945930000000002,-0.7253470000000001,1.090263,-1.6833240000000003
494,-1.787146,-1.0171379999999999,0.68234,-0.5135310000000001,0.850607,0.11286900000000001,1.147319,1.5731110000000001,-0.5551520000000001,-0.095157,0.671412,1.279267
495,-1.7899509999999998,-1.02401,0.697354,-0.507495,0.8542,0.113035,0.5431560000000001,-1.890351,0.562427,0.011691,0.886782,-0.691862
496,-1.803104,-1.045449,0.7248859999999999,-0.48802700000000004,0.86515,0.11545699999999999,1.12743,-1.715423,1.065143,0.069891,0.9012680000000001,-0.067682
497,-1.801575,-1.0728799999999998,0.767215,-0.46491899999999997,0.8785799999999999,0.10924,1.377133,-1.7342819999999999,1.035933,-0.015199,0.766913,0.014722999999999998
498,-1.782161,-1.098231,0.819306,-0.44502700000000006,0.8904040000000001,0.095489,1.5565209999999998,-1.06136,0.963685,-0.07078200000000001,0.606499,0.021897
499,-1.744305,-1.1257030000000001,0.884861,-0.42406000000000005,0.9025709999999999,0.074325,1.774986,-1.17788,1.141617,-0.075253,0.288698,-0.144516
500,-1.7031619999999998,-1.157147,0.9679,-0.398419,0.91566,0.053047000000000004,2.0364619999999998,-2.0810779999999998,1.4084510000000001,-0.14058199999999998,0.028783,-0.26427399999999995
501,-1.664565,-1.1932770000000001,1.0642989999999999,-0.366976,0.929582,0.034512,2.0037689999999997,-2.70512,1.650441,-0.22001500000000002,-0.10513399999999999,-0.26205100000000003
502,-1.635728,-1.2280659999999999,1.158725,-0.335329,0.941841,0.021804,1.6716380000000002,-3.138102,1.52583,-0.288802,-0.227501,-0.111678
503,-1.613728,-1.254362,1.250718,-0.310869,0.9503510000000001,0.013354,1.475123,-3.200421,1.0310190000000001,-0.135756,-0.21130700000000002,-0.09006
504,-1.584745,-1.27196,1.336691,-0.29435500000000003,0.95568,0.004106,1.266125,-2.245237,0.771962,0.075132,-0.217139,-0.06327999999999999
505,-1.530392,-1.285326,1.424748,-0.281353,0.9595290000000001,-0.011373999999999999,1.280633,-1.03678,0.650874,0.234936,-0.201259,0.028571
506,-1.443986,-1.2965870000000002,1.5229219999999999,-0.268586,0.9626399999999999,-0.034243,1.280373,-0.12074000000000001,0.675335,0.30897600000000003,-0.22625100000000004,0.09804
507,-1.345394,-1.304661,1.624442,-0.256326,0.9647950000000001,-0.058775,1.304927,0.075366,0.63039,0.248346,-0.25140100000000004,0.048262
508,-1.2479,-1.311585,1.729703,-0.24304800000000001,0.966592,-0.081326,1.063002,-0.44843299999999997,0.760763,-0.029825,-0.219385,0.102108
509,-1.20494,-1.319922,1.7865389999999999,-0.231796,0.9686959999999999,-0.08880199999999999,0.188357,-0.686062,0.471879,-0.444229,-0.099402,0.194408
510,-1.241909,-1.322508,1.77325,-0.232548,0.9693350000000001,-0.07936499999999999,-0.364237,-1.576289,-0.199547,-0.602184,-0.23135799999999998,-0.08051699999999999
511,-1.332258,-1.314295,1.717868,-0.24648899999999999,0.967284,-0.059938,-0.71049,-1.820915,-0.794515,-0.581056,-0.460203,-0.009962
512,-1.485376,-1.293366,1.5838860000000001,-0.272861,0.9617620000000001,-0.023365,-2.255676,-0.710199,-1.759586,-0.213207,-0.350938,-0.15736
513,-1.6706990000000002,-1.2430649999999999,1.389686,-0.320268,0.946775,0.032103,-2.977445,0.30409200000000003,-2.767919,-0.300383,-0.134519,-0.10575699999999999
514,-1.7663970000000002,-1.176094,1.285615,-0.377182,0.923111,0.074732,-1.9150880000000001,-0.378765,-3.1516610000000003,-0.723068,0.849564,0.07129400000000001
515,-1.8547470000000001,-1.110132,1.2331729999999999,-0.426726,0.895757,0.12453399999999999,-1.8158400000000001,-3.026993,-2.717082,0.012556,0.830118,-1.029868
516,-1.9501509999999997,-1.0581639999999999,1.2092530000000001,-0.45558699999999996,0.8714559999999999,0.181627,-0.9309209999999999,-3.698487,-2.060561,0.154364,0.6382329999999999,-0.864015
517,-1.975839,-1.023822,1.237941,-0.47800699999999996,0.854102,0.20494600000000002,0.42645500000000003,-1.761005,-1.842055,0.052897,0.46697299999999997,-0.35933400000000004
518,-1.968403,-0.984519,1.279935,-0.510091,0.8330059999999999,0.214225,0.094614,-1.763396,-2.5536689999999997,-0.209392,0.427996,-0.451179
519,-1.9992849999999998,-0.9375020000000001,1.319169,-0.538288,0.806082,0.24588600000000002,0.12048199999999999,-3.779238,-2.491085,0.13007,0.526788,-0.47363900000000003
520,-2.042424,-0.896634,1.3609950000000002,-0.556082,0.78123,0.28361,0.377587,-3.6485809999999996,-2.35486,0.270804,0.5467420000000001,-0.321254
521,-2.070242,-0.861065,1.41208,-0.57202,0.758537,0.31208400000000003,0.731147,-3.3015339999999997,-2.336812,0.264052,0.454064,-0.33826799999999996
522,-2.097584,-0.8286690000000001,1.468505,-0.584217,0.7370329999999999,0.339787,0.8831450000000001,-3.615454,-2.28621,0.37128,0.355619,-0.42279399999999995
523,-2.13393,-0.804214,1.52071,-0.586553,0.720286,0.370304,0.8907069999999999,-3.7349629999999996,-1.7113009999999997,0.497929,-0.030497000000000003,-0.5405770000000001
524,-2.1779990000000002,-0.7945369999999999,1.561161,-0.5753659999999999,0.713539,0.399744,0.953838,-3.582968,-0.883182,0.540058,-0.418724,-0.497949
525,-2.224341,-0.79933,1.5942,-0.553509,0.716889,0.42388400000000004,1.159829,-3.4337910000000003,-0.273048,0.49933999999999995,-0.42384399999999994,-0.46006199999999997
526,-2.270196,-0.815874,1.621864,-0.524347,0.728325,0.441114,1.309082,-3.200879,0.225487,0.38602600000000004,-0.33564,-0.411024
527,-2.311136,-0.8426739999999999,1.6433380000000002,-0.49126400000000003,0.746425,0.448874,1.5403200000000001,-2.541033,0.713366,0.306861,-0.248256,-0.365088
528,-2.3363560000000003,-0.8803639999999999,1.66218,-0.459168,0.770971,0.441302,1.838123,-1.700784,1.050859,0.21617199999999998,-0.159719,-0.360446
529,-2.351943,-0.9226620000000001,1.681686,-0.428679,0.797211,0.42505,1.9229040000000002,-1.552095,1.089717,0.174376,-0.015534000000000001,-0.13131800000000002
530,-2.3706959999999997,-0.9637,1.7021979999999999,-0.39749,0.821308,0.409188,1.830142,-1.925085,0.9399959999999999,0.090223,0.085293,0.054206
531,-2.400093,-0.9929389999999999,1.716733,-0.368909,0.837635,0.402808,0.8959219999999999,-2.026655,0.5105850000000001,-0.27376,0.542782,0.110269
532,-2.424313,-0.993625,1.723581,-0.358668,0.83801,0.411191,-0.12186099999999998,-1.147578,-0.526349,-0.376134,0.329013,-0.116254
533,-2.4109279999999997,-0.984757,1.752849,-0.369085,0.8331379999999999,0.411872,0.5286350000000001,-0.26907,-1.003631,-0.07703600000000001,-0.178093,-0.486839
534,-2.368029,-0.9893930000000001,1.808066,-0.383707,0.835693,0.392898,1.602601,-0.220098,-0.8615959999999999,0.141397,-0.354461,-0.5711970000000001
535,-2.3390619999999998,-1.004975,1.8560900000000002,-0.38551399999999997,0.844148,0.372525,0.9978889999999999,-0.809194,-0.07244400000000001,0.374069,0.82614,-0.34971399999999997
536,-2.378429,-1.003444,1.8504099999999999,-0.371446,0.843327,0.388342,-0.6727920000000001,-2.082249,0.056386,-0.092375,0.791027,0.017266999999999998
537,-2.427616,-0.9914299999999999,1.834552,-0.358512,0.83681,0.413763,-0.567099,-1.560866,-0.150778,-0.493188,0.298551,-0.6122340000000001
538,-2.457432,-0.9866889999999999,1.8335560000000002,-0.348522,0.8342040000000001,0.42733699999999997,0.12023800000000001,-1.524824,-0.169524,-0.17754,-0.173743,-1.115264
539,-2.462821,-0.9999469999999999,1.861602,-0.339239,0.841442,0.420563,1.481739,-1.255787,-0.164632,0.124609,0.021731999999999998,-1.046188
540,-2.456814,-1.026838,1.9019849999999998,-0.327325,0.855667,0.400841,1.731057,-1.722404,0.158174,0.238839,0.138382,-0.9031450000000001
541,-2.4719599999999997,-1.054086,1.9292669999999998,-0.306627,0.869449,0.387324,1.293143,-1.8686909999999999,0.357197,-0.19259400000000002,0.333203,-0.151652
542,-2.480321,-1.074659,1.95197,-0.29233000000000003,0.8794280000000001,0.375675,1.154708,-1.136321,0.07969,-0.408796,0.5254489999999999,-0.297764
543,-2.46599,-1.09578,1.98648,-0.286002,0.889285,0.356871,1.3979139999999999,-0.714083,0.038119,-0.30399499999999996,0.42207,-0.35478000000000004
544,-2.455032,-1.1184450000000001,2.019341,-0.277044,0.8994219999999999,0.338036,1.272742,-1.085091,0.21931799999999999,0.156912,-0.039162,-0.378945
545,-2.459292,-1.141422,2.04107,-0.262498,0.909226,0.323085,1.1689180000000001,-1.16874,0.448367,0.183534,-0.15820399999999998,-0.263316
546,-2.459857,-1.167508,2.059011,-0.247281,0.919775,0.304708,1.299782,-0.640296,0.584268,0.16080999999999998,-0.202292,-0.219014
547,-2.453637,-1.196925,2.076848,-0.231886,0.9309200000000001,0.282132,1.362732,-0.511069,0.713797,0.044400999999999996,-0.21549699999999997,-0.148374
548,-2.453929,-1.226286,2.089266,-0.21435700000000002,0.941241,0.260961,1.170934,-0.625727,0.782039,-0.108107,-0.198489,-0.090459
549,-2.465475,-1.249434,2.090107,-0.197639,0.9488059999999999,0.24635300000000002,0.748119,-0.589647,0.650853,-0.196114,-0.176086,-0.107956
550,-2.477464,-1.264823,2.089808,-0.185649,0.9535540000000001,0.237177,0.5625680000000001,-0.609192,0.371844,-0.24765500000000001,-0.176546,-0.236475
551,-2.480596,-1.2757209999999999,2.102005,-0.178514,0.95678,0.22954000000000002,0.50379,-0.901913,0.099412,-0.096099,-0.402993,-0.11699100000000001
552,-2.489426,-1.281996,2.1173990000000003,-0.17283199999999999,0.958586,0.22633000000000003,0.252382,-1.169028,-0.016302,-0.10753299999999999,-0.430937,0.123615
553,-2.5057169999999998,-1.277264,2.111601,-0.17181400000000002,0.9572280000000001,0.232762,-0.501238,-0.21559,-0.165929,-0.051117,-0.35194200000000003,0.20565300000000003
554,-2.523918,-1.262601,2.100085,-0.17565999999999998,0.952883,0.247268,-0.726133,-0.559331,-0.32302,0.078859,-0.467958,-0.27929699999999996
555,-2.545907,-1.250248,2.09403,-0.176773,0.9490629999999999,0.260795,-0.47051499999999996,-0.803467,-0.23119099999999998,0.145904,-0.477933,-0.209083
556,-2.5583169999999997,-1.242156,2.091873,-0.177748,0.9464819999999999,0.269372,-0.264798,-0.323937,-0.182299,0.110197,-0.352564,-0.360406
557,-2.555111,-1.238623,2.097166,-0.18046099999999998,0.9453360000000001,0.27158499999999997,0.015312000000000001,0.068074,-0.156275,-0.15651400000000001,-0.181801,-0.203241
558,-2.532418,-1.238492,2.113542,-0.186648,0.945293,0.267522,0.18933,0.392022,-0.3328,-0.21049299999999999,-0.10526600000000001,-0.266988
559,-2.501614,-1.238062,2.143942,-0.19504200000000002,0.945153,0.261973,0.356331,-0.032236,-0.408001,-0.06994199999999999,-0.089989,-0.350398
560,-2.472686,-1.241165,2.175643,-0.200717,0.9461620000000001,0.25392,0.40389,-0.0030960000000000002,-0.277384,-0.058667,-0.001216,-0.161375
561,-2.445877,-1.239097,2.196429,-0.208706,0.9454899999999999,0.24995,-0.049295,0.648763,-0.39461599999999997,-0.07645,0.044485000000000004,-0.161876
562,-2.412209,-1.224414,2.211838,-0.226231,0.940607,0.253108,-0.658992,0.974662,-0.9120389999999999,-0.162365,-0.016077,-0.300487
563,-2.396273,-1.1826459999999999,2.213668,-0.25667199999999996,0.9256110000000001,0.278117,-2.097435,0.567523,-1.7440959999999999,-0.41196800000000006,0.923968,0.164418
564,-2.392876,-1.113689,2.2042919999999997,-0.30041799999999996,0.897333,0.323307,-2.812744,0.513007,-2.408115,-0.408674,1.330374,0.24219899999999997
565,-2.409771,-1.039955,2.195276,-0.338285,0.862381,0.37662399999999996,-2.772784,-1.115529,-2.2444479999999998,-0.194949,1.042511,-0.563422
566,-2.417306,-0.982411,2.207882,-0.367746,0.831838,0.415682,-1.3771200000000001,-0.19217,-2.063898,0.10961300000000002,1.510386,-0.018328
567,-2.379412,-0.94637,2.228716,-0.40367800000000004,0.811299,0.422872,-0.783374,1.201163,-1.500723,-0.030282,1.6036030000000001,-0.009329
568,-2.3495630000000003,-0.915442,2.25451,-0.433777,0.792832,0.428062,-0.33358899999999997,-0.030060000000000003,-1.682943,-0.3376,0.45083500000000004,-0.118431
569,-2.3310560000000002,-0.891915,2.288879,-0.45501899999999995,0.778276,0.43269799999999997,0.008465,-0.607418,-1.452282,0.028566,-0.154832,-0.279469
570,-2.328773,-0.8756879999999999,2.312532,-0.465117,0.767984,0.440283,0.001818,-0.835404,-0.9104479999999999,0.23947,-0.321588,-0.26413600000000004
571,-2.330743,-0.86813,2.329704,-0.46844300000000005,0.7631220000000001,0.44518500000000005,0.224516,-0.725974,-0.497767,0.43220299999999995,-0.471053,-0.283197
572,-2.336785,-0.870872,2.340649,-0.464235,0.764891,0.446554,0.427856,-0.688655,0.11569600000000001,0.43946999999999997,-0.566801,-0.341482
573,-2.3489310000000003,-0.8863989999999999,2.339142,-0.450263,0.7748,0.44376899999999997,0.541829,-0.481041,0.843686,0.41260399999999997,-0.587255,-0.323377
574,-2.3692349999999998,-0.910898,2.326076,-0.42778299999999997,0.7900550000000001,0.43908800000000003,0.6076819999999999,-0.544974,1.322791,0.291659,-0.49397299999999994,-0.288926
575,-2.397211,-0.9428850000000001,2.304447,-0.398002,0.8092560000000001,0.43206700000000003,0.822865,-0.44829300000000005,1.7332990000000001,0.198081,-0.424109,-0.261443
576,-2.423285,-0.986419,2.273533,-0.363057,0.8340559999999999,0.41536000000000006,1.135921,0.265083,2.349868,0.174581,-0.425731,-0.251526
577,-2.449369,-1.040081,2.2256299999999998,-0.32304099999999997,0.8624450000000001,0.389637,1.271141,0.948606,2.860546,0.193707,-0.301471,-0.298786
578,-2.478532,-1.093905,2.1721790000000003,-0.282531,0.888426,0.361746,1.262264,0.70207,2.450603,0.012237,0.47308500000000003,-0.304784
579,-2.507725,-1.135648,2.1376310000000003,-0.249656,0.906808,0.339642,1.140119,-0.330326,1.528129,-0.093041,0.500159,-0.266308
580,-2.547431,-1.165548,2.115473,-0.22069499999999997,0.919005,0.326665,0.8678100000000001,-1.250338,1.135368,-0.009285999999999999,0.111803,0.011119
581,-2.5851349999999997,-1.188869,2.099121,-0.196849,0.927948,0.31646399999999997,0.744583,-0.8529469999999999,0.699232,-0.13091,-0.12498499999999998,-0.074169
582,-2.583171,-1.200687,2.1003220000000002,-0.191645,0.9322879999999999,0.306753,0.372601,0.513307,0.08065499999999999,-0.081426,-0.36890300000000004,-0.229285
583,-2.557821,-1.204587,2.110996,-0.197353,0.933692,0.298761,0.260355,0.805056,-0.054029999999999995,0.084865,-0.563483,-0.29784499999999997
584,-2.5428040000000003,-1.212726,2.119298,-0.197527,0.936575,0.289476,0.5083449999999999,-0.037276,0.188063,0.085635,-0.693365,-0.287951
585,-2.550912,-1.2231040000000002,2.122113,-0.18975,0.940162,0.28298,0.388797,-0.674247,0.275638,-0.20970999999999998,-1.128486,-0.169164
586,-2.5619709999999998,-1.231883,2.122376,-0.182081,0.943117,0.278144,0.397785,-0.455416,0.15578,-0.363284,-1.243806,-0.184928
587,-2.542806,-1.237803,2.153476,-0.184228,0.945068,0.269987,0.662941,-0.573819,-0.5664710000000001,-0.204062,-0.8974610000000001,-0.262755
588,-2.505184,-1.238903,2.220999,-0.193635,0.945427,0.262031,0.647309,-1.875911,-1.00395,0.24266100000000002,-0.132027,-0.204688
589,-2.448546,-1.234176,2.29393,-0.21101,0.943876,0.25408400000000003,0.480818,0.394075,-1.0966850000000001,-0.20782899999999999,1.405306,-0.062998
590,-2.3757919999999997,-1.218356,2.335372,-0.239242,0.938533,0.248808,-0.603329,2.1210400000000003,-0.9943069999999999,-0.265656,1.402348,0.304919
591,-2.329212,-1.197814,2.342537,-0.26450999999999997,0.9312450000000001,0.250607,-0.604631,1.863229,-0.723726,-0.07219,0.48280200000000006,0.209552
592,-2.306775,-1.1875129999999998,2.3375470000000003,-0.277161,0.927442,0.25103600000000004,-0.43415200000000004,1.469241,-0.114212,-0.8890379999999999,0.903399,0.150575
593,-2.294486,-1.1759899999999999,2.325034,-0.288215,0.9230709999999999,0.25467199999999995,-0.608086,0.49932600000000005,-0.36735300000000004,-0.280022,0.149698,-0.42923199999999995
594,-2.306896,-1.1676549999999999,2.31414,-0.290724,0.919833,0.263385,-0.21349400000000002,-0.109703,0.012198,-0.11928,-0.180041,-0.384723
595,-2.301152,-1.174828,2.312684,-0.28730900000000004,0.922624,0.257302,0.453637,0.611766,0.42933599999999994,-0.090392,0.044188,-0.454888
596,-2.273584,-1.18923,2.322968,-0.284123,0.928083,0.24067,0.5811350000000001,1.0741829999999999,0.297174,-0.22878600000000002,0.361483,-0.404321
597,-2.2417380000000002,-1.1797739999999999,2.3251459999999997,-0.298503,0.9245200000000001,0.236948,-0.890487,1.628741,-0.976454,-0.340566,0.34691900000000003,-0.12288900000000001
598,-2.204538,-1.126971,2.332297,-0.346001,0.903116,0.254263,-1.6602580000000002,1.504859,-2.892721,-0.47464700000000004,0.338279,0.16633
599,-2.176629,-1.040127,2.352966,-0.416024,0.862469,0.288194,-2.533224,-0.790031,-4.193768,-0.5255350000000001,1.272785,-0.212983
600,-2.226998,-0.9478139999999999,2.344388,-0.46227299999999993,0.812142,0.35596700000000003,-2.8486119999999997,-2.238823,-3.118415,-0.37348200000000004,1.677452,-0.363306
601,-2.264832,-0.8840870000000001,2.335684,-0.48732299999999995,0.7733369999999999,0.405523,-1.859191,-1.0566389999999999,-1.778809,0.289966,0.620035,-0.6389670000000001
602,-2.261743,-0.845382,2.330723,-0.511269,0.748224,0.422783,-1.017585,1.210072,-1.128493,0.7447590000000001,0.363531,0.165687
603,-2.2327169999999996,-0.830458,2.336564,-0.5320729999999999,0.73824,0.41458500000000004,0.024714,1.0730469999999999,-0.533515,0.422576,0.6133529999999999,0.205639
604,-2.206396,-0.8323,2.346192,-0.541705,0.739482,0.39963000000000004,0.46464099999999997,0.899341,0.166261,0.038577,0.256398,-0.18104800000000001
605,-2.18845,-0.8530209999999999,2.349637,-0.536181,0.753271,0.380888,0.7942520000000001,0.674818,1.148411,0.092119,-0.317617,-0.276548
606,-2.186874,-0.888498,2.3402279999999998,-0.514636,0.776125,0.364365,0.754199,0.301404,1.856841,0.17816500000000002,-0.6431600000000001,-0.30951
607,-2.1983189999999997,-0.9333670000000001,2.3238220000000003,-0.481738,0.803629,0.349418,1.063348,-0.057123,2.269657,0.364566,-0.8277530000000001,-0.23436700000000002
608,-2.213366,-0.9932780000000001,2.3115,-0.43705,0.8378200000000001,0.327152,1.733502,-0.38355,2.866551,0.426598,-0.6903590000000001,-0.173527
609,-2.243075,-1.0669030000000002,2.293766,-0.377762,0.875709,0.300687,1.8822740000000002,-1.010151,3.324524,0.322403,-0.47791300000000003,-0.184766
610,-2.301806,-1.134568,2.2658139999999998,-0.31455500000000003,0.906352,0.282073,1.551964,-2.040762,2.668717,0.078487,0.16481500000000002,-0.188201
611,-2.365192,-1.18153,2.241448,-0.265914,0.9251879999999999,0.27074299999999996,1.0454860000000001,-1.9617240000000002,1.725043,0.084594,-0.5573140000000001,-0.263709
612,-2.438973,-1.214084,2.2044040000000003,-0.22564299999999998,0.93705,0.266473,0.6050260000000001,-2.0852459999999997,1.561891,0.015499,-0.781838,-0.294869
613,-2.5327330000000003,-1.237291,2.152047,-0.18721400000000002,0.944901,0.268513,0.26876,-2.170303,1.279778,-0.163769,-0.9048459999999999,-0.313298
614,-2.598663,-1.252446,2.116777,-0.161698,0.9497530000000001,0.267969,0.456351,-1.232891,0.59302,-0.392669,-1.3112030000000001,-0.197138
615,-2.586919,-1.263759,2.139078,-0.159164,0.953233,0.25690100000000005,0.706896,-0.070976,-0.346754,-0.41388,-1.329393,-0.151722
616,-2.523123,-1.263743,2.199479,-0.175228,0.9532280000000001,0.24624400000000002,0.36178699999999997,0.400314,-0.955451,0.029049000000000002,-0.9026299999999999,-0.155226
617,-2.4542610000000002,-1.250715,2.2705919999999997,-0.19962,0.94921,0.24318299999999998,0.241565,-0.28426799999999997,-1.4809780000000001,0.353398,0.024286000000000002,-0.336827
618,-2.343925,-1.239161,2.37545,-0.23301799999999998,0.9455110000000001,0.22736900000000002,0.878749,1.0329780000000002,-1.6416540000000002,0.291825,0.373214,-0.292188
619,-2.233139,-1.230344,2.465774,-0.263292,0.9426040000000001,0.20533200000000001,0.852094,1.836157,-1.076711,-7.5e-05,0.924767,-0.26526900000000003
620,-2.1329700000000003,-1.220008,2.51778,-0.290734,0.939102,0.183157,0.037771,2.337182,-0.9901059999999999,-0.9487530000000001,0.855927,-0.22653800000000002
621,-2.112861,-1.186782,2.502893,-0.320921,0.927168,0.193271,-1.286329,0.801776,-1.088186,-1.6076979999999998,0.902681,1.217144
622,-2.136266,-1.16546,2.469713,-0.332929,0.9189700000000001,0.211275,-1.062339,0.140596,-0.307041,-0.11641199999999999,0.21300300000000003,-0.569018
623,-2.194393,-1.15598,2.4287009999999998,-0.32715,0.91519,0.235337,-0.850666,-1.6751040000000001,0.159305,-0.233671,-0.063796,-0.606705
624,-2.232884,-1.143354,2.405063,-0.326941,0.9100290000000001,0.254836,-0.9503280000000001,0.415839,-0.504232,-0.22915,0.26558400000000004,-0.324507
625,-2.2149959999999997,-1.101825,2.3860490000000003,-0.36137199999999997,0.892034,0.271424,-1.8952529999999999,1.9554,-2.139707,-0.54442,0.916774,-0.148957
626,-2.167591,-1.022285,2.399689,-0.43127299999999996,0.853302,0.293025,-2.046423,1.456893,-4.147314,-0.494249,1.086273,0.044118
627,-2.160609,-0.9210870000000001,2.424504,-0.502734,0.7962600000000001,0.336472,-2.243477,-1.969775,-4.32376,-0.861662,1.853734,-0.038193
628,-2.202143,-0.8515209999999999,2.4298830000000002,-0.531827,0.7522840000000001,0.388861,-1.595518,-1.943139,-2.2255529999999997,0.585431,0.688879,-0.526479
629,-2.237476,-0.8149649999999999,2.423143,-0.5390199999999999,0.727701,0.42413500000000004,-1.1229209999999998,-1.165817,-0.9563370000000001,0.7986479999999999,-0.178385,-0.012087
630,-2.23582,-0.7976409999999999,2.422034,-0.54956,0.7157100000000001,0.430957,-0.113371,0.7667069999999999,-0.262758,0.857299,-0.030987,0.391797
631,-2.21409,-0.807232,2.4194419999999996,-0.553276,0.722376,0.414778,0.356025,1.315925,0.7770600000000001,0.326896,0.070883,-0.20748699999999998
632,-2.190677,-0.8357030000000001,2.412569,-0.545868,0.741768,0.389602,0.789582,1.503961,1.5949010000000001,0.161896,-0.291634,-0.399581
633,-2.1712380000000002,-0.878703,2.400194,-0.526516,0.769912,0.360551,0.939528,1.2762799999999999,2.19124,0.130154,-0.369216,-0.377076
634,-2.17025,-0.930708,2.381765,-0.493117,0.8020430000000001,0.336964,1.02643,0.42826099999999995,2.6629509999999996,0.362532,-0.48240200000000005,-0.31050500000000003
635,-2.203532,-0.9940180000000001,2.350514,-0.439745,0.838224,0.32247,1.1370360000000002,-0.864927,3.351179,0.27719299999999997,-0.365201,-0.186377
636,-2.271139,-1.064943,2.304825,-0.37048600000000004,0.874761,0.312273,1.344066,-1.6959279999999999,3.4594440000000004,0.153673,-0.251272,-0.090349
637,-2.342669,-1.125256,2.266492,-0.308802,0.902378,0.30056,1.3941540000000001,-1.839823,2.372528,0.012797,-0.174122,-0.131707
638,-2.388329,-1.173337,2.2504150000000003,-0.264754,0.922047,0.28234000000000004,1.499562,-1.476892,1.8312110000000001,-0.026567,-0.555241,-0.158821
639,-2.449688,-1.217135,2.222723,-0.220948,0.938111,0.26666999999999996,1.0943129999999999,-1.9897029999999998,1.753194,-0.10493399999999999,-0.766633,-0.19458699999999998
640,-2.52318,-1.24415,2.185638,-0.186006,0.947124,0.261422,0.5036149999999999,-1.749041,0.9572069999999999,-0.278075,-0.942363,-0.265404
641,-2.548614,-1.252521,2.1856299999999997,-0.174861,0.9497770000000001,0.259484,0.244533,-0.917033,-0.155552,-0.307714,-1.1655659999999999,-0.278817
642,-2.515334,-1.248579,2.2259740000000003,-0.185592,0.948536,0.25655500000000003,0.22173400000000001,0.13858199999999998,-0.915501,-0.278092,-1.2719,-0.172524
643,-2.434414,-1.2387290000000002,2.30524,-0.211783,0.94537,0.24780500000000003,0.576224,0.115104,-1.478084,0.221335,-0.536801,-0.44118
644,-2.332107,-1.229919,2.403588,-0.242004,0.9424620000000001,0.23061700000000002,0.693226,0.7962779999999999,-1.429002,0.30241399999999996,0.258527,-0.151562
645,-2.258468,-1.2162549999999999,2.464268,-0.268243,0.9378059999999999,0.22034299999999998,-0.006816,1.430813,-0.996734,-0.034415,1.492294,0.92045
646,-2.218788,-1.187991,2.459736,-0.297795,0.9276200000000001,0.22544299999999998,-1.223292,2.219437,-1.353413,-0.644313,1.533058,-1.340051
647,-2.1629709999999998,-1.155407,2.4413080000000003,-0.334819,0.914959,0.22523600000000002,-1.200479,3.537161,-0.8357870000000001,-0.858189,0.12094500000000001,0.9264969999999999
648,-2.172149,-1.139384,2.4093709999999997,-0.34478400000000003,0.9083760000000001,0.236565,-0.878114,0.061242,-0.069575,-0.0067480000000000005,-0.036885,-0.688164
649,-2.203506,-1.132752,2.3919770000000002,-0.342049,0.905583,0.250815,-0.17818599999999998,-1.151205,-0.102657,-0.559272,-0.20457899999999998,-0.261176
650,-2.2128,-1.126563,2.385992,-0.344186,0.902941,0.257335,-0.637903,0.723242,-0.393485,-0.644233,0.10809200000000001,-0.022258
651,-2.190545,-1.083442,2.375948,-0.381188,0.883575,0.271989,-1.8585049999999999,1.8071549999999998,-2.394566,-0.603416,0.483124,-0.019059
652,-2.1541810000000003,-1.001903,2.375127,-0.44959,0.8424969999999999,0.296737,-2.436628,1.585923,-3.8425559999999996,-0.190211,0.978776,-0.038635
653,-2.158159,-0.894998,2.386711,-0.520676,0.780208,0.346636,-2.65772,-1.88192,-4.888651,-0.09597699999999999,1.589146,-0.263873
654,-2.184316,-0.809079,2.402779,-0.564289,0.7236520000000001,0.397355,-1.638335,-1.578676,-3.021076,0.304111,1.501934,-0.301744
655,-2.212486,-0.761451,2.406459,-0.579846,0.689972,0.433245,-1.1063459999999998,-1.290671,-1.448511,0.500149,-0.06686399999999999,0.178053
656,-2.216484,-0.742271,2.409394,-0.588571,0.675963,0.443442,-0.011806,0.336945,-0.502916,0.990793,0.180833,0.42081499999999994
657,-2.189706,-0.7524310000000001,2.414671,-0.594609,0.683416,0.423518,0.69352,1.531408,0.676592,0.553044,0.49102299999999993,-0.016337
658,-2.149322,-0.7838430000000001,2.416444,-0.59295,0.706006,0.387234,1.004481,2.120907,1.6372719999999998,0.299691,-0.015958,-0.342144
659,-2.118993,-0.831643,2.406805,-0.5749380000000001,0.739039,0.351073,0.991809,1.5816709999999998,2.497793,0.12729100000000002,-0.338557,-0.393446
660,-2.116499,-0.8932450000000001,2.389249,-0.53583,0.7791100000000001,0.32536,1.196208,0.25306,3.171767,0.017153,-0.5473600000000001,-0.25301799999999997
661,-2.15161,-0.965407,2.361525,-0.47575100000000003,0.8222809999999999,0.312251,1.1707299999999998,-1.136841,3.6551379999999996,0.0043,-0.40518200000000004,-0.21935500000000002
662,-2.216956,-1.036583,2.3224869999999997,-0.406506,0.86067,0.306571,1.273132,-1.784317,3.247554,-0.052097000000000004,-0.109357,-0.169898
663,-2.258941,-1.09364,2.312084,-0.35472800000000004,0.8883049999999999,0.291665,1.70315,-1.474583,1.876427,-0.046166000000000006,0.048311,-0.061166
664,-2.278886,-1.1342219999999998,2.319644,-0.321177,0.9062049999999999,0.274996,1.046149,-1.469155,1.35588,0.10640999999999999,-0.096483,-0.067873
665,-2.360847,-1.154372,2.276266,-0.284674,0.9145409999999999,0.287335,-0.45920900000000003,-2.302836,1.221451,0.105047,-0.319784,0.136508
666,-2.4380990000000002,-1.151197,2.232671,-0.263527,0.9132520000000001,0.31066,-0.7097680000000001,-1.6532509999999998,0.16667,-0.21035,-0.603346,-0.25191399999999997
667,-2.4646470000000003,-1.1454280000000001,2.227793,-0.258483,0.9108870000000001,0.321648,0.048717,-0.574381,-0.160563,-0.335923,-1.191084,-0.9199139999999999
668,-2.435752,-1.157223,2.2539130000000003,-0.26068,0.915691,0.305846,1.311708,0.479496,-0.0035399999999999997,0.272291,-1.571803,-0.552413
669,-2.371785,-1.185181,2.3368189999999998,-0.261772,0.926567,0.27006399999999997,2.027103,-2.083705,-0.319998,0.607002,-1.273918,-0.40876599999999996
670,-2.381162,-1.1935950000000002,2.36715,-0.253845,0.9296989999999999,0.266848,0.22850700000000002,-0.273293,-0.21951500000000002,-0.626953,2.0042150000000003,-0.72333
671,-2.3199970000000003,-1.189215,2.40958,-0.272661,0.928077,0.253603,0.245668,1.296032,-0.809996,-0.328779,1.695855,-0.660799
672,-2.27218,-1.179154,2.4272549999999997,-0.291591,0.924283,0.246294,-0.088226,1.655848,-0.459208,-0.11825999999999999,1.139117,-0.35017600000000004
673,-2.225755,-1.179306,2.444568,-0.302595,0.924341,0.232411,0.296929,1.217711,-0.18356,-0.460207,0.6791739999999999,-0.444432
674,-2.18878,-1.172067,2.467501,-0.31642600000000004,0.9215549999999999,0.224938,-0.024978999999999998,0.9303889999999999,-0.778303,-0.49836199999999997,0.690567,-0.39531700000000003
675,-2.155243,-1.158556,2.471521,-0.33414499999999997,0.916226,0.22105100000000003,-0.393936,1.396556,-0.353121,-0.46361499999999994,-0.02055,0.109775
676,-2.15992,-1.1584969999999999,2.4519509999999998,-0.33315300000000003,0.9162020000000001,0.222642,-0.18850899999999998,0.308755,0.571584,-0.006476999999999999,-0.088443,-0.36313
677,-2.176825,-1.176153,2.430462,-0.31599499999999997,0.923134,0.21899200000000002,0.308278,0.034337,1.099902,0.007585,-0.058876,-0.374769
678,-2.198798,-1.1932,2.404012,-0.29832800000000004,0.9295530000000001,0.216604,-0.256687,0.556297,0.797253,-0.175595,0.121975,-0.345617
679,-2.192156,-1.182965,2.3804819999999998,-0.30748000000000003,0.925731,0.22014499999999998,-0.763896,1.607816,-0.9146559999999999,-0.771133,0.352925,-0.188895
680,-2.155774,-1.1415389999999999,2.387809,-0.346978,0.909275,0.22980599999999998,-1.300574,1.546506,-2.164941,-0.593726,0.287502,-0.134408
681,-2.1337919999999997,-1.073467,2.3908270000000003,-0.403436,0.8788600000000001,0.254621,-1.9829700000000001,0.313284,-3.2619860000000003,-0.46652899999999997,0.421418,-0.018537
682,-2.147311,-1.001335,2.390771,-0.45201899999999995,0.842192,0.293902,-1.89562,-1.045413,-2.688136,-0.31964899999999996,1.2063620000000002,-0.196352
683,-2.181465,-0.947167,2.376994,-0.47842799999999996,0.811765,0.334859,-1.722653,-1.034851,-1.751179,0.139469,0.7644380000000001,-0.41106099999999995
684,-2.189522,-0.9097280000000001,2.3718779999999997,-0.5001329999999999,0.789337,0.356088,-0.827257,0.31049499999999997,-1.171945,0.47118699999999997,0.710907,-0.091257
685,-2.183939,-0.8960940000000001,2.3690439999999997,-0.5108689999999999,0.7808930000000001,0.359451,-0.33461,0.234722,-0.233713,0.370137,1.005667,-0.09413099999999999
686,-2.177252,-0.8930799999999999,2.373224,-0.515192,0.779007,0.35736599999999996,0.231281,0.19081700000000001,-0.134632,-0.18009,0.43675200000000003,-0.092458
687,-2.167885,-0.8967729999999999,2.3814290000000002,-0.516134,0.781317,0.350905,0.318349,0.078847,0.085105,0.056799,0.079752,-0.21325500000000003
688,-2.16781,-0.904748,2.386084,-0.510991,0.78627,0.347352,0.373877,-0.358108,0.350972,0.336217,-0.235015,-0.221406
689,-2.178598,-0.9189209999999999,2.387134,-0.49801599999999996,0.7949470000000001,0.346445,0.444614,-0.649515,0.702216,0.485961,-0.421199,-0.176874
690,-2.197311,-0.9396629999999999,2.3794939999999998,-0.477984,0.807359,0.34596,0.407548,-0.595873,1.171906,0.534029,-0.485246,-0.17973
691,-2.2235240000000003,-0.9688200000000001,2.3594209999999998,-0.449854,0.824218,0.343921,0.38979,-0.45414099999999996,1.70678,0.396341,-0.5478810000000001,-0.194354
692,-2.25757,-1.0068489999999999,2.32665,-0.413337,0.845152,0.338906,0.566418,-0.231199,2.2770900000000003,0.29325,-0.568724,-0.175759
693,-2.2970759999999997,-1.058189,2.282237,-0.366675,0.871469,0.325696,0.9379360000000001,-0.011368000000000001,2.923541,0.22691999999999998,-0.59327,-0.180173
694,-2.354088,-1.113532,2.2260419999999996,-0.31283,0.897264,0.311514,0.85661,-0.695431,2.7668209999999998,-0.060522,-0.29875300000000005,-0.405783
695,-2.424389,-1.154588,2.17378,-0.265723,0.9146280000000001,0.304683,0.711696,-1.359061,1.819146,-0.252251,-0.27871799999999997,-0.398906
696,-2.478542,-1.1806889999999999,2.151888,-0.234064,0.924868,0.299696,0.758724,-1.8803189999999999,0.7989229999999999,-0.197805,-0.259326,-0.22152600000000003
697,-2.497982,-1.199099,2.168059,-0.21793800000000002,0.9317120000000001,0.290518,0.9933629999999999,-1.385198,0.12160599999999999,-0.22606199999999999,-0.060573,-0.122824
698,-2.4804150000000003,-1.2142540000000002,2.196466,-0.214312,0.937109,0.275468,0.798581,0.055015999999999995,0.034011,0.17793499999999998,-0.319952,-0.09308
699,-2.455482,-1.224575,2.2143770000000003,-0.21497399999999997,0.9406620000000001,0.262542,0.49604,0.509412,0.148819,0.296669,-0.364886,-0.053069000000000005
700,-2.448239,-1.233066,2.215116,-0.211756,0.943509,0.254825,0.232094,0.093194,0.301333,0.31800300000000004,-0.389386,-0.148898
701,-2.467324,-1.2397690000000001,2.205119,-0.202901,0.945709,0.253872,0.151812,-0.8209129999999999,0.395947,0.31354299999999996,-0.43045,-0.205548
702,-2.5047639999999998,-1.2477530000000001,2.183436,-0.18875999999999998,0.948274,0.25521,0.050796,-0.569864,0.572245,0.368112,-0.21682800000000002,0.188744
703,-2.510752,-1.2548860000000002,2.1639619999999997,-0.18323399999999998,0.950514,0.250867,0.21439899999999998,1.3716139999999999,0.29423,-0.20795500000000003,0.023287000000000002,-0.077421
704,-2.470112,-1.255169,2.188469,-0.193108,0.9506020000000001,0.24300500000000003,0.336171,0.139715,-0.499166,-0.042914999999999995,0.083501,-1.188424
705,-2.391938,-1.269107,2.263761,-0.20244700000000002,0.954836,0.217462,1.9368599999999998,0.645768,-0.300627,0.061486,0.61836,-0.6141449999999999
706,-2.319943,-1.274457,2.319483,-0.213821,0.956412,0.198855,-0.5532050000000001,0.955461,-0.7296819999999999,-0.9774930000000001,1.749032,0.804487
707,-2.313695,-1.2524389999999999,2.322618,-0.230517,0.949751,0.211711,-0.35152100000000003,-0.222371,-0.7289,-0.215711,0.356829,-0.720332
708,-2.3084279999999997,-1.249654,2.3357639999999997,-0.233585,0.948875,0.212272,0.037663999999999996,-0.467521,0.03257,-0.290005,0.230827,-0.409934
709,-2.3425849999999997,-1.249163,2.313631,-0.22653299999999998,0.9487200000000001,0.22044899999999998,-0.343157,-0.579457,0.38256599999999996,-0.382766,0.142817,-0.09136
710,-2.392922,-1.2576450000000001,2.2642860000000002,-0.209669,0.951367,0.225665,-0.109956,0.051692999999999996,1.118323,0.12869,-0.083325,-0.378954
711,-2.4342330000000003,-1.278532,2.213981,-0.18721300000000002,0.9575940000000001,0.21897600000000003,0.596748,0.362612,1.33971,0.2233,-0.060788999999999996,-0.38255
712,-2.47586,-1.315521,2.175565,-0.155943,0.9675940000000001,0.19857,1.1693790000000002,-0.515478,1.717645,0.113722,0.042782,-0.227897
713,-2.554877,-1.338251,2.093297,-0.127571,0.973083,0.191891,-0.166229,0.440349,1.209299,-0.633293,0.021699,0.019244999999999998
714,-2.628112,-1.33743,2.0049069999999998,-0.113581,0.972893,0.201407,-0.708179,0.625484,0.670097,-0.650701,-0.410714,-0.08211399999999999
715,-2.688202,-1.331042,1.9363580000000002,-0.104001,0.9713959999999999,0.21344699999999997,-0.611089,0.018473,0.536957,-0.575214,-0.602973,-0.17643
716,-2.756601,-1.324702,1.871677,-0.09147999999999999,0.9698709999999999,0.225758,-0.6243340000000001,-0.311739,0.542629,-0.454007,-0.6110300000000001,-0.149251
717,-2.80803,-1.311344,1.822566,-0.083988,0.9665309999999999,0.242383,-1.035823,-0.10015399999999999,0.201926,-0.48037399999999997,-0.036248,-0.22613200000000003
718,-2.821998,-1.281258,1.8050709999999999,-0.089693,0.958376,0.271025,-1.790045,0.28075900000000004,-0.62743,-0.507933,-0.19375799999999999,-0.314406
719,-2.770996,-1.229635,1.85327,-0.12116700000000001,0.942367,0.311844,-2.4101049999999997,0.098531,-2.2018150000000003,-0.460284,0.264771,-0.11119100000000001
720,-2.676107,-1.160839,1.9658799999999998,-0.178891,0.9171379999999999,0.356144,-1.967805,-0.700663,-3.855582,-0.518741,0.537391,-0.108891
721,-2.575399,-1.093235,2.095255,-0.246538,0.8881180000000001,0.387876,-1.446588,-0.853575,-3.89661,-0.119826,1.2235610000000001,-0.755841
722,-2.5122400000000003,-1.048175,2.186626,-0.293802,0.8665139999999999,0.403506,0.028669999999999998,-0.801081,-2.587415,0.100138,1.321749,-0.691272
723,-2.460341,-1.0339260000000001,2.264425,-0.322083,0.8593139999999999,0.397273,0.764205,-0.846301,-1.7746439999999999,0.006195,1.439133,-0.337107
724,-2.411897,-1.021269,2.338131,-0.348166,0.852772,0.389286,0.810189,-0.568599,-1.996868,-0.31217399999999995,0.648571,-0.047779
725,-2.34023,-1.002375,2.431151,-0.386653,0.8427520000000001,0.37450100000000003,1.1493879999999999,-0.348527,-2.7126259999999998,-0.541493,0.5258390000000001,-0.307881
726,-2.275071,-0.980241,2.531013,-0.424332,0.8306309999999999,0.36052199999999995,1.352909,-1.391883,-2.51011,-0.41119300000000003,0.431148,-0.408618
727,-2.243692,-0.9624799999999999,2.621738,-0.446903,0.8206110000000001,0.356172,1.432608,-2.593905,-2.215321,-0.130123,0.238837,-0.353272
728,-2.241926,-0.948795,2.701841,-0.456283,0.812714,0.36233200000000004,1.358203,-3.5073309999999998,-1.76388,-0.060592999999999994,-0.007873999999999999,-0.448773
729,-2.264976,-0.945634,2.766264,-0.449783,0.810868,0.374394,1.376818,-3.845946,-1.0176969999999999,0.112152,-0.12573299999999998,-0.47639899999999996
730,-2.302365,-0.9560420000000001,2.814659,-0.42917,0.816915,0.385286,1.42149,-3.820432,-0.24509299999999998,0.47943199999999997,-0.38240599999999997,-0.540148
731,-2.350437,-0.9769110000000001,2.846458,-0.397946,0.828773,0.393391,1.3536569999999999,-3.613744,0.339554,0.508954,-0.440025,-0.610371
732,-2.399507,-1.0052510000000001,2.864716,-0.362148,0.8442959999999999,0.394961,1.394224,-2.930686,0.782274,0.47098900000000005,-0.473462,-0.590792
733,-2.442168,-1.040377,2.873406,-0.32567199999999996,0.8625950000000001,0.38710300000000003,1.5268190000000001,-2.311361,1.099668,0.520221,-0.618043,-0.55028
734,-2.486609,-1.082176,2.872173,-0.285926,0.8829809999999999,0.37225199999999997,1.6604580000000002,-2.093962,1.495565,0.49399499999999996,-0.538682,-0.38726700000000003
735,-2.535252,-1.133283,2.860229,-0.241432,0.905808,0.348143,2.0769509999999998,-1.681255,1.8216169999999998,0.44950100000000004,-0.561509,-0.363157
736,-2.582145,-1.187568,2.837211,-0.198431,0.9274620000000001,0.316891,1.749179,-1.2232530000000001,1.8561279999999998,-0.14693599999999998,0.007809999999999999,-0.19811700000000002
737,-2.665714,-1.2107860000000001,2.790877,-0.161376,0.935893,0.313119,-0.12854300000000002,-2.5068029999999997,0.7945949999999999,-0.43940799999999997,0.35909,-0.079308
738,-2.71017,-1.194345,2.79819,-0.15371600000000002,0.929975,0.333915,-0.8399110000000001,-2.31305,-1.217811,-1.1810770000000002,1.049517,0.219277
739,-2.66958,-1.164722,2.868952,-0.17959,0.9186790000000001,0.35179299999999997,-0.616812,-0.48893100000000006,-2.034712,-0.845251,-0.30114,-0.562807
740,-2.586309,-1.1428129999999999,2.945912,-0.21878899999999998,0.909805,0.352659,0.133687,1.097726,-1.7356049999999998,-0.49942700000000007,-0.388534,-0.85629
741,-2.500918,-1.140123,3.0154349999999996,-0.249531,0.9086850000000001,0.334675,1.083812,0.855715,-0.9136049999999999,0.142292,-0.040933,-0.517582
742,-2.449577,-1.166312,3.075412,-0.251102,0.919306,0.30299699999999996,1.962025,-0.74057,0.313416,0.205952,1.582525,0.220807
743,-2.483068,-1.182636,3.06981,-0.2316,0.925607,0.299324,-0.221379,-1.6486869999999998,0.46703900000000004,-0.30763,0.933982,-0.087868
744,-2.5449889999999997,-1.185423,3.0447330000000004,-0.21118299999999998,0.926658,0.310946,-0.058736000000000003,-1.9743380000000001,0.511321,-0.193983,-0.27436,-0.751742
745,-2.600575,-1.194201,3.024362,-0.189386,0.9299219999999999,0.315216,0.26813200000000004,-1.7873189999999999,0.611641,-0.081153,-0.6843319999999999,-0.44586099999999995
746,-2.678291,-1.202524,2.991563,-0.160876,0.932951,0.322031,0.02058,-2.8183,0.774671,0.036212,-0.37635599999999997,-0.97909
747,-2.771011,-1.21076,2.967405,-0.127582,0.935884,0.328368,0.30090500000000003,-4.0234239999999994,0.34020300000000003,-0.089429,0.322295,-1.099944
748,-2.842114,-1.2260719999999998,2.981675,-0.099691,0.941169,0.32287,1.258445,-3.9479699999999998,-0.177703,-0.088374,0.514764,-0.638879
749,-2.848467,-1.26472,3.035702,-0.087056,0.953523,0.288438,2.513001,-2.193087,-0.292966,-0.070475,0.245848,-0.308748
750,-2.796026,-1.31777,3.114986,-0.084784,0.968159,0.235504,2.857064,-0.75776,-0.158874,-0.191796,0.07610700000000001,0.310425
751,-2.778088,-1.346084,-3.119577,-0.079213,0.974858,0.20823000000000003,0.728434,-2.227751,0.065287,0.084233,0.052775,0.014044999999999998
752,-2.824843,-1.358587,-3.1133830000000002,-0.065592,0.977568,0.200106,0.80865,-2.5682150000000004,0.156014,0.113962,-0.115889,-0.45637799999999995
753,-2.843591,-1.3881709999999998,-3.092648,-0.05331,0.9833700000000001,0.173565,1.816096,-1.574427,0.37649,0.197643,-0.1346,-0.302563
754,-2.910126,-1.426915,-3.128038,-0.032881,0.989667,0.13951,1.660021,-1.7489,0.9855780000000001,0.053297000000000004,-0.085339,0.076936
755,-3.10185,-1.459978,2.999435,-0.004391,0.993866,0.110437,1.442779,-1.816532,1.3035459999999999,-0.288608,-0.180099,0.004691
756,2.849202,-1.4838799999999999,2.69706,0.024998,0.996225,0.08304500000000001,1.3133860000000002,-1.401716,1.309588,-0.352696,-0.17746900000000002,-0.102256
757,2.389036,-1.493757,2.259863,0.052546,0.997034,0.056116,1.327291,-1.1779700000000002,1.2880340000000001,-0.352351,-0.092508,-0.124872
758,1.879536,-1.4879959999999999,1.778002,0.078722,0.996574,0.025107,1.537511,-1.7004569999999999,1.2314200000000002,-0.375017,-0.078071,-0.071036
759,1.480376,-1.468123,1.418632,0.102011,0.994734,-0.009249,1.4718790000000002,-2.200345,1.090597,-0.44893500000000003,-0.145262,0.0016350000000000002
760,1.254493,-1.444721,1.23421,0.119457,0.9920629999999999,-0.039097,1.147543,-1.9946650000000001,0.818875,-0.550121,-0.071378,0.07465
761,1.13161,-1.427683,1.142361,0.129052,0.989777,-0.060627,0.6871229999999999,-1.345866,0.407835,-0.47670799999999997,0.059601,0.131718
762,1.0909149999999999,-1.4223370000000002,1.122539,0.131173,0.989,-0.06827000000000001,-0.016890000000000002,-0.9531790000000001,0.053105999999999993,-0.474145,0.047468,0.094485
763,1.1061159999999999,-1.428703,1.155261,0.126563,0.989922,-0.063445,-0.5350550000000001,-0.777287,-0.326753,-0.542289,-0.011208,-0.0007639999999999999
764,1.176059,-1.446647,1.238815,0.114264,0.992303,-0.047603,-1.1213790000000001,-0.60211,-0.734861,-0.590536,-0.10561500000000001,-0.256261
765,1.350272,-1.47596,1.429217,0.09234099999999999,0.995506,-0.0207,-1.523234,-0.858324,-1.314179,-0.58195,0.010765,-0.323798
766,1.6697380000000002,-1.5125870000000001,1.762155,0.057787,0.9983059999999999,0.005736,-1.2618850000000001,-0.34946900000000003,-1.985985,-0.574693,0.150177,-0.231292
767,2.946113,-1.537501,3.034199,0.006428,0.999446,0.032466,-1.523408,0.595801,-2.91624,-0.42068900000000004,0.117131,0.39665700000000004
768,-2.508101,-1.4744059999999999,-2.423868,-0.056929999999999994,0.995358,0.077511,-2.415865,-0.205602,-3.128682,-0.297334,0.280094,0.255131
769,-2.382644,-1.4116819999999999,-2.281039,-0.10900399999999999,0.987368,0.114928,-1.460674,-1.107597,-2.432919,-0.18842,0.557554,-0.408828
770,-2.332827,-1.367604,-2.205704,-0.14596199999999998,0.979427,0.139295,-0.8579030000000001,-1.228215,-1.83035,-0.129582,0.530888,-0.465757
771,-2.2903130000000003,-1.337942,-2.135811,-0.173534,0.9730120000000001,0.152053,-0.218425,-1.3136709999999998,-1.527739,-0.178822,0.263408,-0.36209
772,-2.252468,-1.312335,-2.06248,-0.198452,0.966784,0.16103,-0.12406800000000001,-2.017758,-1.624454,-0.482029,0.015302000000000001,-0.26669699999999996
773,-2.219843,-1.2813450000000002,-1.9789720000000002,-0.227367,0.9584010000000001,0.172504,-0.026806,-2.4476459999999998,-2.0953779999999997,-0.494205,0.036945,-0.24477
774,-2.173012,-1.2459799999999999,-1.8801310000000002,-0.262975,0.947709,0.180768,0.305628,-2.358161,-2.383727,-0.290919,0.17036300000000001,-0.22102
775,-2.1296459999999997,-1.211057,-1.778085,-0.29845700000000003,0.935989,0.186639,0.563728,-2.896846,-2.427167,0.003092,0.180024,-0.245752
776,-2.100246,-1.176698,-1.674422,-0.331387,0.923343,0.19392,0.844555,-3.557228,-2.4264959999999998,0.159908,0.051861000000000004,-0.298672
777,-2.08573,-1.146695,-1.579528,-0.358125,0.911409,0.202646,0.9058229999999999,-3.599257,-2.0927290000000003,0.255998,-0.061525,-0.280451
778,-2.082684,-1.125271,-1.500594,-0.37568,0.902385,0.21107199999999998,0.934535,-3.30119,-1.5331620000000001,0.271524,-0.24575300000000003,-0.147412
779,-2.084521,-1.1145200000000002,-1.435063,-0.38372,0.897699,0.21651700000000002,1.017079,-2.866005,-0.9445520000000001,0.22776,-0.277323,-0.126155
780,-2.08555,-1.114825,-1.378901,-0.383258,0.897834,0.216777,1.13416,-2.3860240000000004,-0.399557,0.21644899999999997,-0.242164,-0.083232
781,-2.079543,-1.1247770000000001,-1.325999,-0.376731,0.902171,0.210108,1.324306,-1.919628,0.016712,0.275885,-0.23934499999999997,-0.045161
782,-2.064674,-1.143046,-1.273082,-0.365238,0.9099010000000001,0.19663599999999998,1.4813459999999998,-1.486038,0.40715500000000004,0.282551,-0.351704,0.017109
783,-2.0389060000000003,-1.1699110000000001,-1.2189530000000002,-0.34823699999999996,0.920716,0.176065,1.638371,-0.9930450000000001,0.8605459999999999,0.209504,-0.41061499999999995,0.038992
784,-1.99695,-1.204588,-1.158893,-0.326034,0.933692,0.148011,1.8737669999999997,-0.533842,1.171386,-0.045869,-0.340354,0.101745
785,-1.9309669999999999,-1.2434290000000001,-1.081034,-0.30089899999999997,0.946892,0.113318,1.924,-0.342955,1.3434760000000001,-0.278844,-0.201515,0.130273
786,-1.8834520000000001,-1.277303,-1.013483,-0.27524899999999997,0.957239,0.088976,1.2339879999999999,-1.2132020000000001,1.1218540000000001,-0.524602,0.18800899999999998,0.22227199999999997
787,-1.877162,-1.2918129999999999,-0.976361,-0.26253200000000004,0.9613360000000001,0.08304500000000001,0.455554,-1.438589,0.08694,-0.79089,0.355269,0.302788
788,-1.862308,-1.283434,-0.940896,-0.271443,0.958995,0.08144900000000001,0.390888,-0.579344,-0.812988,-0.546672,-0.018702,0.147509
789,-1.806829,-1.268721,-0.881626,-0.289231,0.9547209999999999,0.069564,0.773416,0.121904,-0.9522200000000001,-0.201492,-0.331278,-0.144729
790,-1.732288,-1.256366,-0.806982,-0.305229,0.950973,0.049725,1.192921,0.17061700000000002,-0.711138,0.154701,-0.30136,-0.127224
791,-1.607465,-1.254157,-0.679279,-0.31114400000000003,0.9502870000000001,0.011414,2.395729,0.318869,0.065125,0.009081,1.085784,0.087783
792,-1.532086,-1.260743,-0.5965060000000001,-0.30485999999999996,0.952317,-0.011807,0.308489,-0.8471690000000001,0.16633900000000001,0.010884999999999999,1.658461,0.18015699999999998
793,-1.563941,-1.262466,-0.60573,-0.30344099999999996,0.952842,-0.0020800000000000003,-0.11238900000000002,-1.203624,0.16172,-0.003047,-0.216239,-0.194987
794,-1.585138,-1.267903,-0.593885,-0.298232,0.954477,0.004278,0.28705,-1.8896060000000001,0.33416799999999997,0.143371,-0.445078,-0.08931499999999999
795,-1.6162370000000001,-1.278224,-0.582277,-0.288098,0.9575049999999999,0.0131,0.14135799999999998,-2.201349,0.630516,0.24686799999999998,-0.221848,-0.291238
796,-1.646722,-1.293182,-0.564292,-0.27325,0.9617120000000001,0.020787,0.459528,-2.529874,0.7260939999999999,0.233134,0.075123,-0.439381
