,attitude.roll,attitude.pitch,attitude.yaw,gravity.x,gravity.y,gravity.z,rotationRate.x,rotationRate.y,rotationRate.z,userAcceleration.x,userAcceleration.y,userAcceleration.z
0,-2.696034,-1.243257,-0.099222,-0.13864400000000002,0.946837,0.29030100000000003,0.141199,1.112903,0.372182,-0.16029100000000002,-0.034804,-0.00487
1,-2.698403,-1.2472530000000002,-0.12083599999999999,-0.13633199999999998,0.9481149999999999,0.287207,-0.057949,0.747027,0.400102,-0.326787,-0.102198,-0.062094
2,-2.7181669999999998,-1.244524,-0.149423,-0.131692,0.9472440000000001,0.29220300000000005,-0.479641,0.132024,0.317828,-0.338172,-0.124169,-0.13488499999999998
3,-2.753168,-1.232322,-0.181971,-0.125755,0.943262,0.307307,-0.972224,-0.377166,0.209285,-0.24500300000000003,-0.163981,-0.105174
4,-2.798023,-1.210056,-0.216504,-0.118895,0.935636,0.332333,-1.3918540000000001,-0.782269,0.115006,-0.143571,-0.252027,-0.359631
5,-2.848853,-1.17898,-0.24789499999999998,-0.110196,0.924217,0.365616,-1.798025,-1.255691,0.044410000000000005,0.11773399999999999,-0.347938,-0.363662
6,-2.8911740000000004,-1.1373520000000001,-0.27116799999999996,-0.104078,0.907525,0.406893,-2.30498,-0.849117,-0.224572,0.20977600000000002,-0.067086,-0.155596
7,-2.914135,-1.092627,-0.277742,-0.10376400000000001,0.8878389999999999,0.448297,-2.029794,-0.877832,-0.474713,0.22148600000000002,0.120538,-0.22764
8,-2.917194,-1.0575729999999999,-0.270201,-0.10925399999999999,0.871167,0.478674,-1.494514,-0.101615,-0.579859,0.17511,0.155399,0.027262
9,-2.901933,-1.028923,-0.260427,-0.122422,0.8567440000000001,0.5009979999999999,-1.271415,0.414206,-0.5640069999999999,0.222519,0.468558,-0.017752
10,-2.8860099999999997,-1.005414,-0.24993400000000002,-0.135438,0.844384,0.518332,-0.9261879999999999,0.33303499999999997,-0.5444,0.009111,0.4663,0.22258899999999998
11,-2.865144,-0.99198,-0.236639,-0.149307,0.837111,0.5262600000000001,-0.271037,0.615073,-0.514547,-0.008576,0.39689800000000003,0.20547600000000002
12,-2.834725,-0.9939549999999999,-0.220006,-0.164744,0.83819,0.519898,0.484494,0.873611,-0.289548,0.10299200000000001,0.21214899999999998,0.127441
13,-2.813646,-1.008992,-0.20972600000000002,-0.171586,0.846295,0.504321,0.9757120000000001,0.41651000000000005,0.107575,-0.20942600000000003,-0.44399700000000003,-0.030626999999999998
14,-2.8042130000000003,-1.033742,-0.20580700000000002,-0.169349,0.8592190000000001,0.48276199999999997,1.297168,0.332081,0.42932700000000007,-0.21518800000000002,-0.52287,-0.0070079999999999995
15,-2.797417,-1.063066,-0.20657399999999998,-0.164051,0.87385,0.457678,1.40163,0.393173,0.512231,-0.175488,-0.558222,0.033976
16,-2.785674,-1.0922020000000001,-0.203294,-0.160471,0.8876430000000001,0.43166499999999997,1.376926,0.428015,0.34537199999999996,0.008707,-0.608682,0.004721
17,-2.768479,-1.119089,-0.19105999999999998,-0.159111,0.899703,0.406466,1.366148,0.24440100000000003,0.185298,0.069862,-0.656463,0.001112
18,-2.7534919999999996,-1.148842,-0.179445,-0.15498299999999998,0.9122899999999999,0.37908200000000003,1.551559,0.228809,0.460078,0.23330599999999999,-0.577207,-0.002541
19,-2.757231,-1.184135,-0.18675799999999998,-0.141398,0.9261729999999999,0.349581,1.561442,0.047921,0.931465,0.151408,0.356313,0.046019
20,-2.769227,-1.2165700000000002,-0.196089,-0.126195,0.9379149999999999,0.32309,1.346219,-0.216325,0.60022,-0.084575,0.505505,0.096511
21,-2.755504,-1.240391,-0.183838,-0.12216700000000001,0.9459110000000001,0.300541,1.096195,0.340694,0.048693,-0.336894,-0.10811199999999999,-0.0405
22,-2.710414,-1.258109,-0.148311,-0.128564,0.9515100000000001,0.279457,1.0230700000000001,0.637187,-0.240617,-0.074241,-0.29947199999999996,-0.114952
23,-2.658601,-1.276283,-0.10426300000000001,-0.13480999999999999,0.956943,0.257065,1.119304,0.323205,-0.12631099999999998,0.169401,-0.091267,-0.08430499999999999
24,-2.636227,-1.29293,-0.079797,-0.132795,0.961643,0.24000900000000003,0.742516,-0.265127,0.27453,0.176099,0.205304,0.139492
25,-2.674459,-1.300662,-0.112669,-0.120172,0.963735,0.238263,-0.302716,-0.230225,0.710497,0.06817000000000001,0.588572,-0.267529
26,-2.744437,-1.297597,-0.179655,-0.10436,0.9629129999999999,0.24880500000000003,-0.48576800000000003,-0.347909,0.728597,-0.0056560000000000004,0.342736,-0.537288
27,-2.8036119999999998,-1.300743,-0.226096,-0.08845800000000001,0.963757,0.251683,0.123866,-0.842781,0.61278,-0.087049,0.099049,-0.173954
28,-2.85295,-1.303903,-0.263692,-0.075071,0.9645950000000001,0.252818,-0.157441,-0.457625,0.442611,-0.181491,0.20526599999999998,0.24100300000000002
29,-2.873398,-1.302093,-0.281709,-0.07034800000000001,0.964116,0.255983,-0.026129000000000003,-0.111384,0.056388,-0.090662,0.49334300000000003,0.191374
30,-2.874623,-1.301396,-0.280406,-0.070212,0.963931,0.256718,-0.035695,0.123054,0.045339,-0.403558,1.187131,0.223873
31,-2.8511849999999996,-1.305584,-0.262979,-0.075052,0.965037,0.251131,0.32650300000000004,0.336367,-0.332692,-0.49440600000000007,0.06573999999999999,0.11671199999999998
32,-2.840543,-1.309034,-0.24862800000000002,-0.07673300000000001,0.965935,0.24713800000000002,0.23999499999999999,-0.497878,0.041651,-0.08278200000000001,-0.10378299999999999,-0.120902
33,-2.862047,-1.3207950000000002,-0.256272,-0.068262,0.9689120000000001,0.23779499999999998,0.726043,-0.748026,0.371174,0.009226,-0.197214,-0.048281
34,-2.895813,-1.340771,-0.27916399999999997,-0.055474,0.9736610000000001,0.221144,0.93247,-0.455445,0.5506340000000001,0.027780000000000003,-0.112256,-0.025328
35,-2.921264,-1.36095,-0.30079,-0.045525,0.9780629999999999,0.203268,0.9176489999999999,-0.079913,0.42506700000000003,0.006813,-0.234975,-0.044759
36,-2.94066,-1.381416,-0.32040599999999997,-0.03757,0.9821209999999999,0.18445799999999998,0.985225,0.010361,0.43503800000000004,-0.08993200000000001,-0.119343,-0.077814
37,-2.968112,-1.402128,-0.345438,-0.028975,0.985809,0.16534400000000002,0.951309,-0.185498,0.42650600000000005,-0.257676,-0.013472999999999999,0.013519
38,-3.013353,-1.418634,-0.38500500000000004,-0.019384000000000002,0.9884459999999999,0.150325,0.638827,-0.37412,0.44806599999999996,-0.27234899999999995,-0.40113499999999996,0.0031940000000000002
39,-3.088221,-1.428419,-0.45162299999999994,-0.007568999999999999,0.9898809999999999,0.141689,0.343107,-0.488804,0.61279,-0.22930799999999998,-0.46131700000000003,0.029758999999999997
40,3.073688,-1.433343,-0.563118,0.009297,0.990568,0.136699,0.22007100000000002,-0.562846,0.8534440000000001,-0.263646,-0.44404399999999994,0.01183
41,2.923891,-1.436544,-0.701379,0.028908,0.991002,0.130684,0.353608,-0.698851,0.916507,-0.395318,-0.288273,0.05890700000000001
42,2.757089,-1.43925,-0.850598,0.049199,0.99136,0.12158499999999998,0.43096,-1.0931170000000001,0.8780290000000001,-0.459462,-0.12243299999999999,0.048474
43,2.593725,-1.4386510000000001,-0.991874,0.068627,0.991282,0.112471,0.365675,-1.193868,0.822154,-0.469354,-0.169519,0.091417
44,2.440817,-1.435424,-1.121027,0.087019,0.990851,0.10315,0.39828800000000003,-1.33975,0.778772,-0.424833,-0.250449,0.022232
45,2.2921709999999997,-1.431166,-1.241729,0.104504,0.990267,0.091912,0.39987,-1.493032,0.748001,-0.337186,-0.0591,0.030998
46,2.1920669999999998,-1.424963,-1.309201,0.11815899999999999,0.9893850000000001,0.084582,0.011127,-1.654478,0.433572,-0.384471,0.026026,0.09245
47,2.176037,-1.415243,-1.291336,0.127402,0.987926,0.088145,-0.627746,-1.7316619999999998,0.309567,-0.35575,-0.120601,0.31001799999999996
48,2.2309639999999997,-1.396624,-1.203981,0.136879,0.98487,0.106269,-1.3696760000000001,-1.41458,0.246294,-0.394493,-0.116737,-0.14701
49,2.334158,-1.380551,-1.06387,0.136624,0.981958,0.130732,-1.685355,-1.942927,-0.552127,-0.365842,0.656744,-0.194208
50,2.503402,-1.3734790000000001,-0.838169,0.11678599999999999,0.9805959999999999,0.15745,-1.590498,-2.932306,-1.763697,0.0658,1.579066,-0.35052
51,2.668009,-1.360709,-0.615373,0.095111,0.9780129999999999,0.185589,-1.7798080000000003,-2.2458169999999997,-1.446501,0.49631899999999995,1.106918,-0.072201
52,2.8161810000000003,-1.3452899999999999,-0.424703,0.071484,0.9746809999999999,0.21186300000000002,-1.281406,-1.9993439999999998,-1.71039,0.12048699999999998,0.509496,-0.10076399999999999
53,2.941455,-1.331073,-0.258126,0.047202,0.971404,0.23269099999999998,-1.1970450000000001,-1.6941080000000002,-1.6589180000000001,-0.287162,0.45401099999999994,0.012655
54,3.064597,-1.3107,-0.103001,0.019782,0.9663649999999999,0.25640799999999997,-1.276289,-1.188324,-1.801125,-0.39710100000000004,0.5876359999999999,-0.044157999999999996
55,-3.111954,-1.288866,0.035309,-0.008244,0.96052,0.278084,-1.022991,-1.590708,-1.826613,-0.332088,0.524984,-0.251869
56,-3.047546,-1.269565,0.15262699999999998,-0.027862,0.9549719999999999,0.29538000000000003,-0.759513,-2.883311,-1.68318,-0.30651999999999996,0.42098900000000006,-0.226502
57,-3.018842,-1.252672,0.254058,-0.038298,0.949824,0.31042800000000004,-0.6423989999999999,-3.583872,-1.616301,-0.095552,0.32076,-0.12865
58,-3.0007770000000002,-1.235696,0.350979,-0.046156,0.944377,0.325606,-0.6214689999999999,-3.747704,-1.6896520000000002,0.093138,0.285603,-0.224226
59,-2.9823169999999997,-1.220229,0.448643,-0.054469000000000004,0.9391780000000001,0.339081,-0.44655,-3.596741,-1.764468,0.031504000000000004,0.16864,-0.280167
60,-2.963914,-1.207753,0.539922,-0.062765,0.9348200000000001,0.349527,-0.29425,-3.217777,-1.561996,-0.044702,0.022012999999999998,-0.338419
61,-2.963753,-1.19869,0.6070180000000001,-0.064318,0.931564,0.35784099999999996,-0.198594,-3.061296,-1.084033,-0.015364,-0.31553600000000004,-0.41422200000000003
62,-2.982104,-1.19313,0.653378,-0.058563,0.929528,0.36407,-0.07950499999999999,-3.11501,-0.808599,0.101592,-0.32811799999999997,-0.399241
63,-3.006618,-1.192585,0.694998,-0.049689,0.929327,0.365899,0.20899600000000002,-3.20039,-0.753063,0.109153,-0.31749499999999997,-0.32090100000000005
64,-3.030347,-1.1988,0.739458,-0.040352,0.9316040000000001,0.361228,0.500101,-3.27581,-0.7925939999999999,0.030570999999999997,-0.322732,-0.14119600000000002
65,-3.0493419999999998,-1.207667,0.788082,-0.032721,0.93479,0.353689,0.53283,-3.1628119999999997,-0.8405799999999999,-0.001734,-0.37291599999999997,-0.213125
66,-3.065008,-1.217039,0.837146,-0.026505,0.9380780000000001,0.345407,0.537515,-3.004367,-0.774521,-0.08757000000000001,-0.535826,-0.311319
67,-3.0853,-1.226703,0.873451,-0.01898,0.9413819999999999,0.336806,0.5392,-2.563504,-0.469562,-0.122103,-0.40444,-0.11714100000000001
68,-3.111018,-1.2385110000000001,0.8964479999999999,-0.009972,0.945299,0.326049,0.656274,-2.232179,-0.31107199999999996,-0.140434,-0.252947,0.083116
69,-3.128716,-1.2481389999999999,0.9205959999999999,-0.004083,0.9483959999999999,0.31705700000000003,0.232658,-1.88085,-0.42344,-0.140738,0.187666,0.14055399999999998
70,-3.141188,-1.239557,0.946084,-0.000132,0.9456399999999999,0.325212,-0.773456,-1.827522,-0.36644299999999996,-0.005056000000000001,0.182381,0.141875
71,3.1316040000000003,-1.2241870000000001,0.9708190000000001,0.003393,0.94053,0.33968899999999996,-0.596645,-1.535778,-0.484154,-0.16078699999999999,-0.161325,0.15725899999999998
72,-3.134058,-1.222267,1.013244,-0.002573,0.939876,0.341502,0.069599,-0.8823770000000001,-0.891603,-0.134191,-0.21627399999999997,0.080831
73,-3.092957,-1.2092559999999999,1.071205,-0.017196,0.9353530000000001,0.35329299999999997,-0.9093979999999999,-0.42047799999999996,-1.000515,-0.23904499999999998,0.524242,-0.357398
74,-3.0580979999999998,-1.203292,1.1254170000000001,-0.029963,0.933227,0.358033,0.086789,-1.3128790000000001,-0.87384,0.036036,1.448151,-0.295548
75,-3.069481,-1.195243,1.148109,-0.026427,0.9303049999999999,0.365832,-0.582958,-1.451108,-0.358117,-0.314317,0.601769,-0.09392
76,-3.0527130000000002,-1.18705,1.188108,-0.033232,0.927269,0.37291599999999997,-0.150587,-1.0676510000000001,-0.9879760000000001,-0.27379000000000003,-0.639335,-0.52851
77,-3.038768,-1.190157,1.234197,-0.038133,0.928427,0.36954899999999996,0.478299,-1.637661,-0.712592,-0.231947,-0.5112220000000001,-0.42272600000000005
78,-3.044237,-1.200658,1.266741,-0.035162,0.932277,0.360028,0.555257,-1.781879,-0.4117,-0.234949,-0.109951,-0.130002
79,-3.068702,-1.209856,1.27475,-0.025719,0.935565,0.352213,0.587738,-1.626444,0.11603,-0.09958600000000001,0.435468,-0.442636
80,-3.11439,-1.230931,1.2707629999999999,-0.009067,0.9428,0.33323200000000003,1.2627959999999998,-2.128664,-0.08371,-0.276516,0.3567,-0.12861199999999998
81,-3.125052,-1.2611299999999999,1.298941,-0.00504,0.952435,0.304695,1.638832,-1.762752,-0.5398189999999999,-0.14712,0.039783,-0.089942
82,-3.135728,-1.2939559999999999,1.321956,-0.001603,0.961924,0.273308,1.601293,-1.58338,-0.076703,0.059189,-0.283854,-0.145424
83,3.096027,-1.324047,1.301018,0.011125,0.9697110000000001,0.24399400000000002,1.503488,-1.523095,0.38294,0.004561,-0.279541,-0.104163
84,3.0207900000000003,-1.3534959999999998,1.251998,0.02598,0.976483,0.21401799999999999,1.545833,-1.330543,0.41183100000000006,-0.056834,-0.19526400000000002,-0.150755
85,2.9365669999999997,-1.383999,1.193589,0.037808,0.982604,0.181817,1.60711,-1.33883,0.300106,-0.037885,-0.18222,-0.109551
86,2.827511,-1.413637,1.110148,0.048352,0.987676,0.148851,1.603048,-1.255874,0.337359,-0.023953,-0.19203699999999999,-0.026093
87,2.683838,-1.439732,0.9895149999999999,0.057753,0.9914229999999999,0.117228,1.486599,-1.132643,0.25734,-0.098707,-0.140075,0.039373000000000005
88,2.51097,-1.460685,0.8330219999999999,0.064791,0.993944,0.088747,1.3091979999999999,-0.680523,0.300387,-0.163149,-0.147112,0.15923900000000002
89,2.307644,-1.474618,0.638659,0.071112,0.9953780000000001,0.064522,1.128135,-0.43994099999999997,0.233652,-0.309057,-0.082888,0.146248
90,2.083185,-1.483118,0.42079099999999997,0.076309,0.996159,0.042924000000000004,1.013211,-0.348028,0.258369,-0.40679899999999997,-0.093052,0.19432
91,1.8782459999999999,-1.4862549999999999,0.226471,0.080471,0.9964280000000001,0.025551,0.711287,-0.686387,0.154144,-0.33453,-0.060027,0.10723099999999999
92,1.720882,-1.487392,0.087153,0.082361,0.996524,0.012454999999999999,0.497568,-1.135707,0.016495,-0.136011,-0.009798999999999999,0.042964999999999996
93,1.596596,-1.487796,-0.012140999999999999,0.082866,0.996557,0.0021379999999999997,0.377254,-1.302599,0.031891,-0.182201,0.06872,0.086256
94,1.493298,-1.48634,-0.08930199999999999,0.084092,0.9964360000000001,-0.006529999999999999,0.273385,-1.329104,0.089952,-0.347702,0.316171,0.22608899999999998
95,1.472055,-1.485689,-0.084954,0.08457999999999999,0.996381,-0.008379000000000001,-0.24515100000000004,-1.2223979999999999,-0.03772,-0.682846,0.567783,0.040895
96,1.5971870000000001,-1.492143,0.066051,0.07852999999999999,0.996908,0.002073,-0.8444379999999999,-1.379304,-0.505314,-0.7061390000000001,0.698755,-0.117506
97,1.8885330000000002,-1.504449,0.395185,0.062963,0.9978,0.020707,-1.139364,-2.128715,-0.9176790000000001,-0.43877200000000005,0.5983,-0.187944
98,2.4039639999999998,-1.5048979999999998,0.958514,0.044274,0.9978290000000001,0.04872,-1.803575,-2.418726,-1.0768389999999999,0.038474,0.28194,-0.22016799999999997
99,2.825575,-1.478221,1.436312,0.028725999999999998,0.995718,0.087853,-2.0634330000000003,-3.032357,-0.8439270000000001,0.113471,0.07798200000000001,-0.446862
100,2.986558,-1.442828,1.660871,0.019705,0.991823,0.12608,-2.045961,-2.9461169999999997,-0.8471200000000001,-0.053839,0.16371,-0.095196
101,3.108143,-1.399619,1.83234,0.005697,0.9853850000000001,0.17024,-2.3375529999999998,-2.16823,-1.185576,0.035762,0.305799,-0.194929
102,-3.0799790000000002,-1.351269,1.96897,-0.013409,0.976001,0.21735,-2.3914560000000002,-1.8505669999999999,-1.4576870000000002,0.133953,0.402906,-0.227696
103,-3.004986,-1.303283,2.078528,-0.035997,0.9644309999999999,0.261868,-2.1274330000000004,-1.38123,-1.573949,0.273241,0.339905,-0.306394
104,-2.9445650000000003,-1.260518,2.165514,-0.059767999999999995,0.952249,0.299414,-1.780202,-1.0478889999999998,-1.5858379999999999,0.16217,0.129081,-0.232077
105,-2.892382,-1.221322,2.242887,-0.084449,0.9395530000000001,0.331823,-1.5537299999999998,-1.122686,-1.725165,0.089271,0.063819,-0.242743
106,-2.847875,-1.183912,2.322436,-0.109233,0.9260889999999999,0.361143,-1.321756,-1.728696,-1.9588450000000002,-0.22272199999999998,-0.056674,-0.25147800000000003
107,-2.819461,-1.150868,2.3971400000000003,-0.129071,0.913118,0.38672199999999995,-0.995669,-2.085387,-1.753148,-0.263766,-0.16935899999999998,-0.226123
108,-2.814863,-1.126862,2.449177,-0.137844,0.903069,0.406771,-0.692159,-2.181149,-1.2467030000000001,0.056195,-0.2734,-0.32506
109,-2.825757,-1.1098729999999999,2.48713,-0.138151,0.895642,0.42277200000000004,-0.44841000000000003,-2.287434,-0.9863540000000001,0.30180100000000004,-0.276563,-0.32452
110,-2.838886,-1.100149,2.521226,-0.135179,0.891275,0.432842,-0.094111,-2.0541009999999997,-0.770534,0.42808599999999997,-0.371423,-0.30790300000000004
111,-2.854217,-1.098455,2.547234,-0.128955,0.8905059999999999,0.43631099999999995,0.204347,-1.8474220000000001,-0.50059,0.371737,-0.34729299999999996,-0.242189
112,-2.869222,-1.104776,2.567326,-0.120877,0.8933639999999999,0.432766,0.565517,-1.4895559999999999,-0.264586,0.122357,-0.51049,-0.251187
113,-2.8787529999999997,-1.117525,2.5842560000000003,-0.113778,0.899019,0.42286599999999996,0.7910149999999999,-1.085863,-0.182343,-0.037406,-0.708651,-0.257125
114,-2.873985,-1.135585,2.60566,-0.111481,0.906781,0.406592,1.1279290000000002,-0.47217600000000004,-0.22991399999999998,-0.028366000000000002,-0.866925,-0.17037
115,-2.851317,-1.1576170000000001,2.6331189999999998,-0.11492100000000001,0.915849,0.384721,1.1951120000000002,-0.005814,-0.231111,0.09185,-0.8178880000000001,-0.144013
116,-2.8334509999999997,-1.174399,2.655281,-0.117097,0.922458,0.367908,0.719983,-0.204909,-0.11346500000000001,0.077638,-0.709796,0.020138999999999997
117,-2.831398,-1.18139,2.6616459999999997,-0.115881,0.925135,0.361516,0.209696,-0.133391,0.026019999999999998,-0.12056900000000001,-0.481516,0.126613
118,-2.830227,-1.184691,2.662172,-0.11536800000000001,0.926383,0.35846999999999996,0.19679100000000002,0.12109400000000001,0.066197,-0.29527600000000004,-0.146048,-0.002514
119,-2.831517,-1.193172,2.6562669999999997,-0.11250399999999999,0.929543,0.351124,0.5096189999999999,0.251886,0.386544,-0.290099,0.538856,-0.051136
120,-2.840778,-1.212357,2.644902,-0.10394400000000001,0.9364459999999999,0.335055,1.028489,-0.17377599999999999,0.357599,-0.25559899999999997,0.940874,0.038678
121,-2.823852,-1.232359,2.669372,-0.103726,0.943275,0.315389,1.034498,-0.20842600000000003,-0.30568,-0.1879,0.181115,0.21226
122,-2.77975,-1.246326,2.714757,-0.112855,0.9478200000000001,0.298158,0.8417889999999999,0.15524300000000002,-0.50725,-0.106887,-0.036733,0.14369
123,-2.740875,-1.254219,2.756153,-0.12143599999999999,0.950306,0.28665,0.405658,-0.17491600000000002,-0.41480100000000003,0.108374,0.090923,0.0009630000000000001
124,-2.723321,-1.257679,2.7862139999999997,-0.125112,0.9513780000000001,0.281467,0.26275,-0.757596,-0.29754899999999995,0.066229,0.11145799999999999,-0.12865
125,-2.733221,-1.257421,2.791808,-0.12241800000000001,0.951298,0.28291900000000003,-0.11439200000000001,-0.792724,0.022465,0.106091,0.18101099999999998,-0.587194
126,-2.768939,-1.254577,2.778753,-0.113222,0.950418,0.28962899999999997,-0.066849,-1.424276,0.208409,0.150255,0.103278,-0.583605
127,-2.811115,-1.258712,2.763289,-0.099633,0.9516959999999999,0.290425,0.112232,-1.1598950000000001,0.271278,0.118218,0.368785,-0.09563200000000001
128,-2.8247310000000003,-1.2611569999999999,2.760948,-0.094944,0.952443,0.289544,0.155478,-0.20411700000000002,-0.08856699999999999,0.009709,0.339289,0.067451
129,-2.798182,-1.263001,2.786346,-0.102005,0.9530040000000001,0.28526599999999996,0.15557100000000001,0.177599,-0.44156899999999993,0.009689,0.609328,0.18774100000000002
130,-2.776335,-1.2594290000000001,2.804852,-0.109428,0.951916,0.286148,-0.048617,0.305261,-0.22203699999999998,-0.456704,0.90192,-0.292877
131,-2.738423,-1.259888,2.8452439999999997,-0.120024,0.9520559999999999,0.28139400000000003,0.307838,-0.365259,-0.681228,0.074477,-0.43988,-0.13109400000000002
132,-2.7328919999999997,-1.261507,2.8690330000000004,-0.120966,0.95255,0.27931,0.259233,-1.060033,-0.05363099999999999,0.14869100000000002,-0.484075,-0.20974600000000002
133,-2.747762,-1.271918,2.874685,-0.112988,0.955667,0.271906,0.60926,-0.8351770000000001,0.154693,0.12388199999999999,-0.41605600000000004,-0.135965
134,-2.752005,-1.283109,2.878303,-0.10776500000000001,0.9589030000000001,0.262473,0.45116000000000006,-0.12956700000000002,0.192208,0.211189,-0.141795,0.21595
135,-2.7559080000000002,-1.291013,2.870705,-0.10388499999999999,0.9611149999999999,0.255862,0.290699,0.293731,0.23540999999999998,-0.02197,0.123144,-0.040347
136,-2.7445049999999998,-1.296357,2.873972,-0.104808,0.962577,0.24991999999999998,0.24466,0.448434,-0.050325,-0.125249,0.142022,-0.008068
137,-2.7194599999999998,-1.2959,2.8930599999999997,-0.111213,0.9624530000000001,0.247617,-0.092874,0.29635900000000004,-0.354794,-0.05198,-0.23068699999999998,0.051119
138,-2.696704,-1.285395,2.908197,-0.121163,0.959549,0.254135,-0.513191,0.50676,-0.392183,-0.071312,-0.2957,0.058854
139,-2.689189,-1.273037,2.905447,-0.128243,0.955996,0.263862,-0.624521,0.45811599999999997,-0.119433,-0.123527,-0.293505,0.002724
140,-2.705953,-1.2602010000000001,2.8819369999999997,-0.12897,0.952152,0.27707800000000005,-0.775207,0.15942699999999999,0.113837,-0.136594,-0.284244,-0.131998
141,-2.73809,-1.243536,2.849411,-0.12621400000000002,0.946926,0.295634,-1.125701,-0.195178,0.118253,-0.176978,-0.292157,-0.18273399999999998
142,-2.779643,-1.216424,2.814603,-0.12287200000000001,0.937865,0.324517,-1.67208,-0.622996,-0.046317000000000004,-0.12316099999999999,-0.282179,-0.400246
143,-2.8210740000000003,-1.1772120000000001,2.79026,-0.120825,0.9235399999999999,0.363969,-2.214425,-1.040535,-0.387128,0.030614999999999996,-0.026170999999999996,-0.32103000000000004
144,-2.845425,-1.12533,2.786522,-0.125755,0.90241,0.412117,-2.640869,-0.996553,-0.892228,0.08858400000000001,0.5468390000000001,-0.089882
145,-2.846303,-1.073123,2.796604,-0.138926,0.8786959999999999,0.456719,-2.1756740000000003,-0.058528,-0.9083399999999999,0.296885,0.24595300000000003,0.272545
146,-2.828826,-1.040341,2.803188,-0.155669,0.862577,0.48138100000000006,-1.111086,0.797883,-0.48218999999999995,0.115218,0.161425,0.106876
147,-2.815008,-1.018664,2.8056240000000003,-0.168266,0.8514079999999999,0.49677899999999997,-1.090225,0.506778,-0.429329,0.08655499999999999,0.347566,0.124528
148,-2.800298,-0.9963059999999999,2.806174,-0.181882,0.839469,0.5120640000000001,-0.888965,0.898201,-0.188074,0.13961500000000002,0.22618899999999997,0.116156
149,-2.796734,-0.9943559999999999,2.796002,-0.18425899999999998,0.838408,0.512951,0.31364699999999995,0.34093,0.400016,0.012475,-0.007018000000000001,-0.044430000000000004
150,-2.792289,-1.017407,2.794378,-0.179874,0.850748,0.493834,1.4479520000000001,0.333988,0.35346900000000003,-0.130582,-0.18299300000000002,0.062212
151,-2.767513,-1.051139,2.811686,-0.18145899999999998,0.8679899999999999,0.46224,1.7870840000000001,0.5340590000000001,0.109891,0.016465999999999998,-0.287499,0.133692
152,-2.739619,-1.082042,2.832971,-0.183695,0.882918,0.4321,1.471904,0.491253,0.165428,0.215219,-0.41769300000000004,0.22029
153,-2.7165470000000003,-1.1067360000000002,2.843035,-0.184566,0.894243,0.40775500000000003,1.1268690000000001,0.8060149999999999,0.337803,0.087413,-0.409395,0.105169
154,-2.69277,-1.131014,2.852983,-0.184731,0.9048440000000001,0.383575,1.2768030000000001,0.6289239999999999,0.271779,-0.19278599999999999,-0.42155299999999996,0.039856
155,-2.663818,-1.158901,2.8788259999999997,-0.18408,0.916364,0.355514,1.59825,0.028839,0.077172,-0.26664899999999997,-0.46928100000000006,0.034775
156,-2.629881,-1.189864,2.92003,-0.182051,0.928318,0.32416100000000003,1.8307900000000001,-0.277466,0.0183,-0.159471,-0.20995,0.003064
157,-2.5856169999999996,-1.224699,2.973016,-0.179033,0.9407040000000001,0.288133,2.019304,-0.24127600000000002,0.128529,0.080919,0.065812,0.001662
158,-2.5454,-1.257058,3.022418,-0.173285,0.9511870000000001,0.25537,1.575434,-0.397754,0.21749699999999997,0.121527,0.034592000000000005,0.072526
159,-2.513562,-1.276047,3.0596099999999997,-0.170681,0.956875,0.235065,0.863489,0.004091,-0.024066,0.052609,-0.22094299999999997,-0.11183499999999999
160,-2.4674869999999998,-1.285096,3.104147,-0.17591500000000002,0.959465,0.22018000000000001,0.721491,0.162365,-0.32009,0.257763,-0.494911,-0.28170300000000004
161,-2.4267790000000002,-1.292914,-3.131679,-0.179807,0.9616379999999999,0.20716700000000002,0.553335,-0.490886,-0.115329,0.354124,-0.46185200000000004,-0.11012100000000001
162,-2.4714169999999998,-1.29616,3.121307,-0.168444,0.9625239999999999,0.212536,-0.500851,-0.8008270000000001,0.783557,0.421862,-0.15670699999999999,-0.086789
163,-2.56937,-1.298959,3.0378060000000002,-0.145392,0.9632790000000001,0.225725,-0.318046,-0.894393,0.8469110000000001,-0.161814,1.306206,-0.285921
164,-2.587784,-1.30132,3.0262279999999997,-0.140014,0.96391,0.226429,0.034733999999999994,-0.054375,-0.135534,-0.064469,0.594622,0.163402
165,-2.571148,-1.297207,3.039085,-0.145901,0.962807,0.22740300000000002,-0.065835,0.26911199999999996,-0.225313,0.092526,0.141319,0.06258999999999999
166,-2.5680080000000003,-1.2911569999999999,3.038801,-0.14977200000000002,0.961155,0.231832,-0.44428,0.238972,-0.085845,-0.375359,0.6287189999999999,0.159907
167,-2.565418,-1.286152,3.0331740000000003,-0.15299100000000002,0.9597620000000001,0.235475,-0.123786,0.207472,-0.211752,-0.571633,0.507676,0.0829
168,-2.567545,-1.2814459999999999,3.038841,-0.154942,0.9584290000000001,0.23959,-0.13986400000000002,-0.641967,-0.09434,-0.086498,-0.23076799999999997,0.0025210000000000002
169,-2.5849919999999997,-1.283297,3.0386740000000003,-0.1498,0.9589559999999999,0.240749,0.16078599999999998,-0.95704,0.115399,-0.069789,0.229704,0.16081600000000001
170,-2.605828,-1.289849,3.037588,-0.141541,0.960793,0.23840999999999998,0.348414,-0.92599,0.179695,-0.025162,0.42803100000000005,0.186532
171,-2.602967,-1.298,3.052412,-0.138201,0.9630209999999999,0.231273,0.483286,-0.339654,-0.045509,0.045122,0.026876999999999998,0.295414
172,-2.586261,-1.302812,3.070563,-0.1396,0.964306,0.224992,0.204792,0.090769,-0.08325700000000001,0.055112,-0.171292,0.22364699999999998
173,-2.580443,-1.2994459999999999,3.070925,-0.14263299999999998,0.96341,0.226923,-0.37962199999999996,0.349668,-0.11865,0.003824,-0.08577,0.069189
174,-2.592761,-1.2840639999999999,3.0520009999999997,-0.147541,0.9591729999999999,0.24127800000000002,-1.0040040000000001,0.209436,-0.20615300000000003,-0.001873,-0.170797,-0.228964
175,-2.634347,-1.25821,3.0089639999999997,-0.149382,0.951542,0.268795,-1.7344279999999999,-0.201139,0.005052,0.155135,-0.45579899999999995,-0.217266
176,-2.708502,-1.223483,2.9397860000000002,-0.142846,0.94029,0.30894499999999997,-2.185089,-0.485154,0.291756,0.32177100000000003,-0.6527229999999999,-0.441406
177,-2.773746,-1.1823059999999999,2.878616,-0.136215,0.9254819999999999,0.35344899999999996,-2.4307939999999997,-0.259872,0.111358,0.343033,-0.611883,-0.348734
178,-2.804386,-1.1365100000000001,2.84375,-0.139209,0.907171,0.397063,-2.310915,0.173681,-0.25476,0.209918,-0.41684499999999997,-0.24005
179,-2.814987,-1.094314,2.82848,-0.14715,0.8886139999999999,0.434408,-2.025426,0.114897,-0.453516,-0.065573,-0.179706,-0.39266
180,-2.813279,-1.051526,2.827486,-0.160012,0.868182,0.469738,-2.108011,0.170811,-0.777836,-0.171195,0.102506,-0.281903
181,-2.809231,-1.009832,2.828132,-0.17357899999999998,0.846742,0.5028859999999999,-1.7458,0.258203,-0.5692510000000001,0.102976,1.006224,0.28976199999999996
182,-2.800976,-0.985093,2.8279490000000003,-0.184667,0.833324,0.521025,-0.818098,0.5589430000000001,-0.391173,0.15428699999999998,0.40598,0.369921
183,-2.7797400000000003,-0.9769979999999999,2.8375630000000003,-0.198071,0.828822,0.523278,-0.006292,0.6080260000000001,-0.316131,0.22749,-0.119624,0.067527
184,-2.762511,-0.9845959999999999,2.847385,-0.20472,0.8330489999999999,0.5139229999999999,0.734717,0.328323,-0.009358,0.125069,-0.166377,-0.047918999999999996
185,-2.743796,-1.0043950000000001,2.861348,-0.207871,0.8438370000000001,0.494697,1.188796,0.505575,0.025633999999999997,0.015563999999999998,0.021031,0.177621
186,-2.7132389999999997,-1.0274889999999999,2.875053,-0.214734,0.8560040000000001,0.47025900000000004,1.185585,1.181218,0.229844,0.032819,-0.02797,0.32472399999999996
187,-2.678632,-1.054042,2.8848529999999997,-0.220646,0.8694270000000001,0.442051,1.422548,1.343891,0.369091,-0.01524,-0.09463200000000001,0.265545
188,-2.631982,-1.085124,2.907034,-0.22772199999999998,0.8843610000000001,0.407486,1.723084,1.32441,0.185345,-0.096252,-0.264916,0.145538
189,-2.579749,-1.118662,2.9400049999999998,-0.23274899999999998,0.899517,0.369724,1.85241,1.0060850000000001,0.291342,0.0070409999999999995,-0.563945,0.129605
190,-2.54126,-1.155255,2.9674099999999997,-0.228048,0.914898,0.333098,1.8569419999999999,0.503826,0.681918,-0.034236,-0.557705,0.004579
191,-2.514243,-1.195371,2.991245,-0.21523299999999998,0.9303520000000001,0.296848,1.8824610000000002,0.077355,0.749941,-0.11246500000000001,-0.241204,-0.046756
192,-2.4784990000000002,-1.22814,3.030161,-0.206819,0.941866,0.264788,1.595345,-0.007917,0.21286599999999997,-0.199431,-0.036775,-0.016619
193,-2.422402,-1.247855,3.091226,-0.209065,0.948306,0.23875700000000002,1.2895370000000002,-0.198659,-0.306046,0.085469,-0.115817,-0.158023
194,-2.379309,-1.257624,-3.136637,-0.212748,0.951361,0.222818,0.771514,-0.697954,-0.20327,0.5473279999999999,-0.22128899999999999,-0.208002
195,-2.400394,-1.2632290000000002,3.1406110000000003,-0.2044,0.953073,0.22331700000000002,-0.41377600000000003,-0.645746,0.554299,0.405465,0.023581,0.036189
196,-2.4587,-1.2672459999999999,3.094304,-0.188621,0.9542809999999999,0.23187600000000003,0.171076,-1.077089,0.5568,0.038566,0.904804,-1.1743350000000001
197,-2.469224,-1.274744,3.101955,-0.18170899999999998,0.9564959999999999,0.228244,0.272949,-0.609513,-0.043427999999999994,-0.15166500000000002,1.198045,0.143414
198,-2.49865,-1.265276,3.079889,-0.180337,0.9536899999999999,0.240729,-0.961456,-0.275377,0.051139,0.082483,0.8508600000000001,0.15339
199,-2.52493,-1.254061,3.0516360000000002,-0.180123,0.950257,0.25409499999999996,-0.384761,0.21416,-0.05976,-0.102546,-0.007127,0.18899000000000002
200,-2.503508,-1.250041,3.0586290000000003,-0.187799,0.948998,0.253245,-0.039085,0.993426,-0.23032800000000003,-0.10613099999999999,-0.27404,0.47177600000000003
201,-2.478103,-1.249789,3.066074,-0.194319,0.948918,0.248581,0.151855,0.744677,0.005265,0.030424,-0.302296,0.194885
202,-2.4706200000000003,-1.25841,3.066898,-0.19108,0.9516030000000001,0.240704,0.449142,0.090167,0.3874,-0.13808299999999998,0.43748100000000006,-0.030087
203,-2.469491,-1.272529,3.070075,-0.18296700000000002,0.9558469999999999,0.22995100000000002,0.663867,-0.118176,0.354983,-0.198319,0.42498199999999997,-0.016114
204,-2.455868,-1.2861719999999999,3.086647,-0.177807,0.959767,0.217322,0.632566,-0.116377,0.198802,-0.126774,-0.155919,0.128458
205,-2.444102,-1.296374,3.101597,-0.17405299999999999,0.9625819999999999,0.207698,0.45793999999999996,-0.093182,0.14414100000000002,-0.010411,-0.305844,0.1787
206,-2.434245,-1.3037100000000001,3.1110740000000003,-0.171498,0.9645440000000001,0.200599,0.306079,0.08622200000000001,0.166352,0.11246199999999999,-0.359502,0.155144
207,-2.437462,-1.310376,3.1037049999999997,-0.166685,0.966282,0.196245,0.095835,0.26726300000000003,0.362272,0.259687,-0.34479099999999996,0.14991600000000002
208,-2.455866,-1.3153780000000002,3.076298,-0.159984,0.967558,0.195537,-0.100633,0.544615,0.43745600000000007,-0.062077,-0.21296500000000002,0.05219
209,-2.4756139999999998,-1.315883,3.0437119999999998,-0.155789,0.967685,0.198273,-0.33991,0.562051,0.28087,-0.170032,-0.278202,0.10762000000000001
210,-2.511981,-1.310603,2.999508,-0.15148399999999998,0.96634,0.207934,-0.673713,0.159305,0.321784,-0.21243800000000002,-0.279557,-0.045718
211,-2.5709400000000002,-1.300683,2.9410130000000003,-0.14414000000000002,0.963741,0.224556,-0.962865,-0.290423,0.351319,-0.16811600000000002,-0.229167,-0.241997
212,-2.646528,-1.282171,2.873755,-0.135225,0.958636,0.25045700000000004,-1.525651,-0.654883,0.340377,0.051011,-0.23259200000000002,-0.365676
213,-2.738112,-1.248766,2.793252,-0.12426,0.9485950000000001,0.291075,-2.2315650000000002,-0.831306,0.316444,0.314186,0.06645,-0.23448000000000002
214,-2.810916,-1.19905,2.730627,-0.11793800000000002,0.931694,0.34356,-2.952811,-0.49387700000000007,-0.057562999999999996,0.254565,0.46172299999999994,-0.060006
215,-2.844836,-1.148475,2.702769,-0.11985599999999999,0.91214,0.39196,-2.163391,-0.320779,-0.339622,0.21885500000000002,0.423645,0.020241
216,-2.8441799999999997,-1.115249,2.6998290000000003,-0.128926,0.89802,0.42063599999999995,-1.379975,0.5728979999999999,-0.46348199999999995,0.142049,0.308874,0.055927
217,-2.818812,-1.084819,2.703545,-0.14815699999999998,0.8842190000000001,0.44294799999999995,-1.48231,1.18308,-0.585687,0.063608,0.6543100000000001,0.356719
218,-2.8042599999999998,-1.05725,2.703021,-0.16259500000000002,0.871008,0.463579,-1.10499,0.43812299999999993,-0.29795,-0.079638,0.42884300000000003,0.054549
219,-2.7984259999999996,-1.042969,2.705827,-0.169465,0.8639030000000001,0.474288,-0.351552,0.159945,-0.38313,-0.046051,0.22699299999999997,0.021211
220,-2.774286,-1.040532,2.7271419999999997,-0.181619,0.8626729999999999,0.47202299999999997,0.325502,0.325701,-0.59653,0.12774000000000002,-0.158617,-0.049629
221,-2.745319,-1.04992,2.754315,-0.192079,0.867384,0.45907200000000004,0.8648389999999999,0.21844299999999997,-0.349071,0.043123,-0.250135,0.004063000000000001
222,-2.719823,-1.067548,2.777384,-0.197429,0.8760209999999999,0.44000600000000006,1.088256,0.341244,-0.083817,-0.005803,-0.08824,0.21833400000000003
223,-2.691965,-1.0896489999999999,2.8012610000000002,-0.20114300000000002,0.886465,0.41679399999999994,1.345059,0.314604,-0.038192000000000004,-0.04434,0.012598999999999999,0.309189
224,-2.665699,-1.11566,2.826046,-0.20138599999999998,0.898201,0.390735,1.4039,0.106806,0.19429000000000002,-0.110672,-0.292488,0.193524
225,-2.6542779999999997,-1.144233,2.840691,-0.193735,0.910393,0.365577,1.441775,-0.21612800000000001,0.466296,-0.150381,-0.6130909999999999,0.00013000000000000002
226,-2.647753,-1.175567,2.856911,-0.1825,0.922908,0.339011,1.578178,-0.534936,0.42065600000000003,-0.048106,-0.806743,-0.19921
227,-2.638605,-1.2073969999999998,2.881844,-0.17134100000000002,0.934694,0.311423,1.6403990000000002,-0.7946840000000001,0.322079,0.089447,-0.9309860000000001,-0.146079
228,-2.6304060000000002,-1.2403620000000002,2.907269,-0.158723,0.945902,0.28297100000000003,1.647402,-0.713426,0.507894,0.15294000000000002,-0.797983,0.016559
229,-2.618677,-1.2725090000000001,2.928922,-0.146764,0.9558409999999999,0.254604,1.4575770000000001,-0.29699899999999996,0.430191,0.124105,-0.47325100000000003,0.037357
230,-2.591032,-1.291949,2.960756,-0.143996,0.9613729999999999,0.23456799999999997,0.811189,-0.08275,-0.106573,0.085753,0.36287600000000003,-0.1701
231,-2.546287,-1.296533,3.0073369999999997,-0.151871,0.962625,0.224242,0.42012,0.064175,-0.5453279999999999,0.16477999999999998,-0.10920099999999999,-0.142516
232,-2.5035380000000003,-1.2930030000000001,3.05241,-0.163338,0.9616629999999999,0.22027399999999997,0.158626,-0.173628,-0.523349,0.24656,-0.5658810000000001,-0.156416
233,-2.516939,-1.287048,3.048504,-0.163718,0.9600129999999999,0.227084,-0.593726,-0.527251,0.11598699999999999,0.193305,-0.301413,-0.111239
234,-2.567466,-1.281128,3.009959,-0.155124,0.9583389999999999,0.239831,-0.26971300000000004,-1.157511,0.271814,0.042682,0.661031,-0.810983
235,-2.5798400000000004,-1.2806540000000002,3.015434,-0.152387,0.958203,0.242117,-0.064415,-0.413538,-0.274635,-0.38991,1.342746,0.369303
236,-2.570523,-1.274635,3.033267,-0.157751,0.956464,0.245535,-0.242691,-0.5530649999999999,-0.392138,0.066015,0.462603,0.15365
237,-2.617213,-1.257897,3.000966,-0.154113,0.9514450000000001,0.266452,-1.129011,-0.48576400000000003,0.32797600000000005,-0.18982000000000002,1.043413,0.246061
238,-2.654504,-1.250356,2.973437,-0.147426,0.949097,0.278344,-0.197707,-0.803136,0.033649,-0.327397,-0.16127,0.040976
239,-2.6768490000000003,-1.246292,2.9668810000000003,-0.142898,0.947809,0.285014,-0.18024400000000002,-0.751918,-0.002614,-0.100709,-0.25828,0.246144
240,-2.693942,-1.24728,2.966383,-0.1376,0.948124,0.286572,0.175297,-0.8780040000000001,0.051306,-0.085895,0.247738,0.14895999999999998
241,-2.695541,-1.2541950000000002,2.980873,-0.13430999999999998,0.950299,0.280869,0.524204,-0.6237010000000001,-0.176251,-0.031736,0.29635900000000004,0.116073
242,-2.672513,-1.260656,3.0118560000000003,-0.137963,0.952291,0.272219,0.416728,-0.186162,-0.276907,0.061302999999999996,0.040293999999999996,0.257764
243,-2.658754,-1.262728,3.027836,-0.140779,0.9529209999999999,0.268547,0.10407999999999999,-0.034457999999999996,-0.11477899999999999,-0.055434000000000004,0.090322,0.331383
244,-2.653963,-1.261685,3.032207,-0.142529,0.9526040000000001,0.26874699999999996,-0.10146000000000001,0.098149,-0.06511,-0.09711,-0.106199,-0.041010000000000005
245,-2.6629549999999997,-1.255758,3.022255,-0.142705,0.950784,0.275024,-0.499704,-0.076748,0.061587,-0.073894,-0.265619,-0.175979
246,-2.703173,-1.2416200000000002,2.987298,-0.137224,0.9463090000000001,0.292682,-1.128723,-0.508851,0.24041300000000002,-0.001158,-0.506612,-0.442615
247,-2.76282,-1.214721,2.936522,-0.128901,0.9372719999999999,0.323881,-1.831967,-0.555362,0.22701500000000002,0.237956,-0.590806,-0.29611
248,-2.814356,-1.175127,2.890268,-0.123884,0.922739,0.364965,-2.244529,-0.416879,0.05304,0.2926,-0.531519,-0.30533299999999997
249,-2.8434369999999998,-1.136351,2.864182,-0.123642,0.9071040000000001,0.402329,-1.8004080000000002,-0.131905,-0.201664,0.296448,-0.40580700000000003,-0.195053
250,-2.8510470000000003,-1.102473,2.8571470000000003,-0.12930999999999998,0.8923260000000001,0.432464,-1.6207559999999999,0.0035409999999999994,-0.396068,0.04795,-0.141029,-0.224487
251,-2.85205,-1.069439,2.851717,-0.137221,0.8769309999999999,0.460603,-1.650784,0.284563,-0.317589,-0.094835,0.11199100000000001,-0.20273
252,-2.85574,-1.038657,2.844734,-0.143066,0.8617239999999999,0.486782,-1.348483,0.0060799999999999995,-0.201889,-0.193207,1.048707,0.31351100000000004
253,-2.8606540000000003,-1.021885,2.84785,-0.14465899999999998,0.853093,0.501296,-0.439658,-0.514883,-0.445905,0.013663,0.6187699999999999,0.301667
254,-2.85487,-1.019095,2.864747,-0.14823,0.851634,0.502733,0.268329,-0.348071,-0.41767299999999996,0.15354,0.279134,0.193236
255,-2.845788,-1.030949,2.882486,-0.149835,0.8577870000000001,0.491674,0.892408,-0.354419,-0.170819,0.191019,-0.037597000000000005,0.145899
256,-2.844977,-1.049433,2.895275,-0.145575,0.8671409999999999,0.476308,0.99434,-0.5110680000000001,0.020237,-0.058526999999999996,0.33415300000000003,0.413448
257,-2.843257,-1.070103,2.904213,-0.141094,0.87725,0.458823,1.1190209999999998,-0.16373,0.163805,-0.155399,0.331689,0.47191700000000003
258,-2.8371459999999997,-1.096126,2.910612,-0.137004,0.889443,0.43601999999999996,1.396067,0.079983,0.24874899999999997,-0.142278,0.100882,0.40623400000000004
259,-2.824671,-1.1275870000000001,2.923757,-0.133643,0.90338,0.407478,1.6926310000000002,0.004654999999999999,0.181482,-0.12272000000000001,-0.033125,0.289452
260,-2.808402,-1.162967,2.9437919999999997,-0.129715,0.917984,0.374799,1.869953,-0.172844,0.193631,-0.074401,-0.26527399999999995,0.078403
261,-2.791346,-1.2013120000000002,2.967936,-0.12391400000000001,0.932514,0.339204,2.011162,-0.303397,0.21721999999999997,-0.11484000000000001,-0.5475949999999999,-0.138062
262,-2.7664020000000002,-1.241783,3.003289,-0.11840099999999999,0.946362,0.300628,2.16432,-0.549443,0.076532,-0.028266000000000003,-0.580196,-0.276275
263,-2.731707,-1.280152,3.056439,-0.114197,0.958059,0.262827,1.9551169999999998,-0.9253469999999999,-0.043019999999999996,0.025055,-0.753775,-0.280695
264,-2.702379,-1.306239,3.1065,-0.111187,0.965208,0.236659,1.15888,-0.859332,-0.143738,0.022045,-0.7609239999999999,-0.254527
265,-2.668328,-1.317424,-3.12603,-0.114251,0.968073,0.22311199999999998,0.64646,-0.788024,-0.481763,-0.099891,-0.869699,-0.237089
266,-2.631696,-1.316324,-3.066122,-0.122866,0.9677959999999999,0.21970900000000002,0.053359000000000004,-1.248373,-0.72887,0.25143699999999997,-0.881279,-0.391309
267,-2.655275,-1.299164,-3.065117,-0.125396,0.963334,0.237193,-1.1501569999999999,-1.128385,-0.122135,0.416671,-0.5528420000000001,-0.313456
268,-2.698984,-1.296433,-3.076062,-0.116039,0.962598,0.244823,0.008367,-1.711493,0.039461,0.363018,1.102878,0.095799
269,-2.7534509999999996,-1.295223,-3.1231880000000003,-0.102979,0.962269,0.251854,-0.548421,0.136265,0.9112819999999999,0.47366099999999994,1.980205,-0.018211
270,-2.783902,-1.295734,3.118577,-0.095091,0.962408,0.25441199999999997,0.0705,0.707685,0.267531,-0.098299,-0.066733,-0.240236
271,-2.7730900000000003,-1.29326,3.107538,-0.098694,0.961733,0.25559,-0.463496,1.0832549999999999,0.049675,-0.403091,0.139051,0.564998
272,-2.771162,-1.281052,3.095075,-0.103429,0.958317,0.266324,-0.552949,0.46006099999999994,-0.13709000000000002,-0.95875,0.598934,0.192447
273,-2.76622,-1.272986,3.110227,-0.107574,0.955981,0.272992,-0.097104,-1.1448530000000001,-0.379677,-0.613937,0.23742399999999997,-0.08421000000000001
274,-2.781462,-1.27535,3.126043,-0.102605,0.956672,0.272485,0.32858200000000004,-1.515236,-0.03333,-0.16073099999999998,-0.193825,0.182837
275,-2.811025,-1.284875,3.123581,-0.091544,0.9594020000000001,0.26676700000000003,0.516129,-1.219007,0.315841,0.065421,-0.191519,0.16031099999999998
276,-2.83656,-1.298935,3.1137610000000002,-0.08064299999999999,0.9632729999999999,0.256125,0.636638,-0.5078630000000001,0.326454,0.031174,0.183746,0.262185
277,-2.841686,-1.311156,3.110114,-0.075846,0.966482,0.24527,0.523768,0.090804,0.162529,-0.035986000000000004,0.36828,0.284866
278,-2.835554,-1.320024,3.1162810000000003,-0.074763,0.9687209999999999,0.236619,0.395476,-0.128615,0.000612,-0.21501599999999998,0.0017530000000000002,-0.105744
279,-2.837605,-1.322467,3.122657,-0.07356900000000001,0.969325,0.234512,-0.087505,-0.573117,-0.042783999999999996,-0.210306,-0.151896,-0.11544700000000001
280,-2.869296,-1.313434,3.108027,-0.068454,0.967065,0.24514899999999998,-0.6976899999999999,-1.082007,0.14161300000000002,-0.15723900000000002,-0.23179,-0.167818
281,-2.939985,-1.294333,3.060653,-0.054657000000000004,0.9620270000000001,0.267424,-1.325273,-1.246413,0.5070439999999999,0.20931999999999998,-0.346731,-0.16046
282,-3.012117,-1.261305,3.006049,-0.039324,0.9524889999999999,0.30202199999999996,-2.030321,-0.8185720000000001,0.419318,0.351321,-0.22701,-0.20725
283,-3.039375,-1.2158719999999998,2.987347,-0.035461,0.937673,0.345704,-2.297059,-0.293008,-0.24338,0.190658,0.10848499999999998,-0.22375599999999998
284,-3.020261,-1.174157,3.009344,-0.046758,0.922364,0.38348000000000004,-1.8212490000000001,0.095333,-0.8003020000000001,0.050572000000000006,0.32434,-0.004253
285,-2.984713,-1.142988,3.041038,-0.064819,0.909877,0.409782,-1.249097,0.371487,-0.825501,-0.027527,0.392644,0.060708000000000005
286,-2.962861,-1.1204180000000001,3.068168,-0.077389,0.9002829999999999,0.42836899999999994,-0.8987459999999999,-0.6410140000000001,-0.740572,-0.41656800000000005,0.401353,0.017676
287,-2.961374,-1.100751,3.099313,-0.081184,0.891548,0.44559,-0.8271,-1.513995,-0.93871,-0.38211799999999996,0.311867,0.089475
288,-2.956477,-1.084501,3.135928,-0.086021,0.88407,0.45936800000000005,-0.45337,-1.2445620000000002,-0.9759690000000001,0.036079,0.323373,0.184858
289,-2.941969,-1.081507,-3.108348,-0.09320099999999999,0.882667,0.460663,0.317223,-0.8598129999999999,-0.890963,0.07118200000000001,0.07936900000000001,0.287414
290,-2.920784,-1.089782,-3.06715,-0.10133500000000001,0.886526,0.45144399999999996,0.7227560000000001,-0.762446,-0.816684,-0.117644,-0.11870399999999999,0.180041
291,-2.907405,-1.1020370000000002,-3.029871,-0.10483699999999999,0.8921290000000001,0.43944700000000003,0.7947609999999999,-1.145985,-0.603113,-0.21332399999999999,-0.18418299999999999,0.102468
292,-2.90882,-1.11465,-3.001155,-0.101611,0.8977569999999999,0.428612,0.756307,-1.449122,-0.420328,-0.234433,-0.291082,-0.12076600000000001
293,-2.914823,-1.129504,-2.9738990000000003,-0.096027,0.9042,0.416174,0.953168,-1.5648520000000001,-0.420941,-0.125088,-0.32207800000000003,-0.18063900000000002
294,-2.9155729999999997,-1.150399,-2.940991,-0.091461,0.912927,0.39774299999999996,1.303583,-1.4743979999999999,-0.43463199999999996,0.088729,-0.381799,-0.197548
295,-2.908546,-1.17677,-2.9056509999999998,-0.088661,0.9233709999999999,0.373531,1.507361,-1.1378139999999999,-0.334296,0.275474,-0.345765,-0.030361000000000003
296,-2.90117,-1.2059600000000001,-2.877055,-0.084958,0.934182,0.346534,1.5200770000000001,-0.8705620000000001,-0.046129,0.273908,-0.37275,0.004174000000000001
297,-2.904992,-1.23266,-2.865088,-0.077757,0.943375,0.322488,1.229641,-0.687277,0.190889,0.122923,-0.420212,-0.002679
298,-2.914437,-1.256074,-2.8621369999999997,-0.069714,0.950882,0.301601,1.136193,-0.5613630000000001,0.218917,-0.079761,-0.435517,-0.064434
299,-2.915868,-1.2789979999999999,-2.853885,-0.064385,0.957728,0.280377,1.1449559999999999,-0.422308,0.069249,-0.047645,-0.359217,0.098804
300,-2.900249,-1.296657,-2.830348,-0.064703,0.962659,0.262871,0.705403,-0.272454,-0.26089,-0.03663,0.012927000000000001,0.218757
301,-2.8582650000000003,-1.295654,-2.786336,-0.07595,0.9623860000000001,0.260852,-0.250655,0.129255,-0.7883060000000001,-0.005807,0.547471,0.334378
302,-2.802542,-1.2787190000000002,-2.733994,-0.09576699999999999,0.9576479999999999,0.271549,-0.695897,0.332924,-0.9850260000000001,0.009921,0.60795,0.6879390000000001
303,-2.7511810000000003,-1.259595,-2.688232,-0.116531,0.951966,0.283161,-0.5847899999999999,0.367685,-0.983226,-0.327286,-0.038407,0.39085
304,-2.703273,-1.24451,-2.64169,-0.13603800000000002,0.9472389999999999,0.290227,-0.260917,0.084031,-0.925053,-0.406549,-0.64098,0.133769
305,-2.6714279999999997,-1.2346110000000001,-2.600552,-0.14945,0.9440200000000001,0.294093,-0.467218,-0.773518,-0.745933,-0.01243,-0.308461,-0.376918
306,-2.7388529999999998,-1.195199,-2.63659,-0.143775,0.9302889999999999,0.337478,-1.8945779999999999,-2.343892,0.263056,0.210135,0.46906400000000004,-1.337509
307,-2.8388139999999997,-1.1596950000000001,-2.683595,-0.119156,0.916681,0.381441,-2.333565,-2.329125,0.147807,-0.273728,2.996572,0.3795
308,-2.811843,-1.128051,-2.63958,-0.138725,0.9035790000000001,0.405339,-0.673724,-0.321156,-2.068278,0.226952,-1.109161,-0.10432899999999999
309,-2.766763,-1.108516,-2.574245,-0.16328299999999998,0.8950379999999999,0.415025,-0.269863,-0.6099829999999999,-1.053481,0.165969,-1.050586,-0.218507
310,-2.773763,-1.106326,-2.5644139999999997,-0.161079,0.894059,0.41798599999999997,0.047193,-0.8267049999999999,0.11978299999999999,0.104301,-0.034348000000000004,-0.166811
311,-2.8123669999999996,-1.118961,-2.591773,-0.141163,0.899647,0.41316899999999995,0.593046,-0.601571,1.153073,0.028325,0.254604,-0.15851500000000002
312,-2.852352,-1.145766,-2.634837,-0.117612,0.911026,0.395219,1.288668,0.384446,1.190849,0.12289100000000001,0.856201,0.189879
313,-2.8554619999999997,-1.183346,-2.659287,-0.10663900000000001,0.925875,0.36246799999999996,1.821568,1.121084,0.8624790000000001,0.06124400000000001,0.42231499999999994,0.15396600000000002
314,-2.83626,-1.2231940000000001,-2.659072,-0.102401,0.940192,0.324888,1.93215,0.815749,0.40110300000000004,-0.329941,0.049951,-0.022368
315,-2.797231,-1.262217,-2.630008,-0.10253,0.952766,0.285876,2.0415900000000002,0.417092,0.10113899999999999,-0.314066,-0.113639,-0.06550800000000001
316,-2.7574400000000003,-1.301947,-2.589107,-0.099548,0.9640770000000001,0.246263,2.072331,-0.229016,0.212209,-0.14941400000000002,-0.306576,-0.199129
317,-2.73097,-1.3433030000000001,-2.551531,-0.090029,0.9742350000000001,0.206787,2.1034889999999997,-0.626479,0.479991,-0.017072,-0.439353,-0.223007
318,-2.722881,-1.386578,-2.528121,-0.074477,0.98308,0.167353,2.030193,-0.767897,0.7435109999999999,0.03781,-0.395906,-0.150446
319,-2.740365,-1.427677,-2.532553,-0.055702999999999996,0.989776,0.131301,1.760468,-0.559887,0.906935,0.015878,-0.35746700000000003,-0.071075
320,-2.808138,-1.4626620000000001,-2.592994,-0.035324,0.994159,0.101976,1.3388149999999999,-0.269085,1.01044,0.060348,-0.344882,0.014433000000000001
321,-2.952927,-1.4895180000000001,-2.736468,-0.015226,0.996699,0.07974400000000001,1.005336,0.015659,0.954334,0.049742,-0.264399,-0.0021379999999999997
322,3.131816,-1.508434,-2.939448,0.000609,0.9980559999999999,0.062311,0.818696,0.28139899999999995,0.728363,-0.048826999999999995,-0.148569,0.012320000000000001
323,2.8771880000000003,-1.52157,3.083572,0.012856999999999999,0.9987889999999999,0.047487,0.698477,0.172836,0.54286,-0.176263,-0.02247,0.046782
324,2.574361,-1.5313459999999999,2.779304,0.021188,0.9992219999999999,0.033259,0.718776,-0.012884999999999999,0.349892,-0.272943,-0.022965,0.129415
325,2.252304,-1.537883,2.462861,0.025551,0.999458,0.020725999999999998,0.569801,-0.38114000000000003,0.130338,-0.311181,0.11696600000000001,0.22414699999999999
326,1.9739389999999999,-1.542689,2.1932419999999997,0.025852999999999998,0.999605,0.011026000000000001,0.401539,-0.47789499999999996,-0.036288,-0.080464,0.20838800000000002,0.234762
327,1.819118,-1.543642,2.049311,0.026318,0.9996309999999999,0.006673,0.044215,-0.588937,0.07031699999999999,-0.166928,0.34584299999999996,0.180812
328,1.9127509999999999,-1.539389,2.154128,0.029580000000000002,0.9995069999999999,0.010529,-0.335919,-0.528488,0.20111199999999999,-0.306573,0.435018,0.257492
329,2.11335,-1.530271,2.3658259999999998,0.034693,0.999179,0.020916,-0.673508,-0.563793,0.265029,-0.355478,0.406003,0.080509
330,2.368637,-1.5157969999999998,2.6322900000000002,0.038381,0.9984879999999999,0.039348,-1.11002,-0.530694,0.09208999999999999,-0.342763,0.44291800000000003,-0.091442
331,2.629286,-1.490744,2.906348,0.039197,0.996798,0.069698,-1.8270810000000002,-0.670478,-0.027038999999999997,-0.119718,0.18466,-0.190547
332,2.802891,-1.454098,3.098062,0.038686,0.9931979999999999,0.10981600000000001,-2.161117,-1.032161,-0.131458,0.127193,-0.079319,-0.29528699999999997
333,2.9002380000000003,-1.409369,-3.061418,0.038417,0.986999,0.156068,-2.479427,-1.459929,-0.239956,0.027776,-0.086608,-0.190202
334,2.971893,-1.366654,-2.948575,0.034238,0.9792350000000001,0.19981500000000002,-2.1481369999999997,-2.1798349999999997,-0.847742,-0.481946,0.589094,-0.43098500000000006
335,3.071078,-1.328445,-2.804137,0.016909,0.970776,0.239389,-2.057689,-1.9972439999999998,-1.565189,-0.580431,0.6494479999999999,-0.392923
336,-3.139379,-1.290656,-2.679539,-0.000612,0.961017,0.276489,-1.8414720000000002,-2.698253,-1.471982,-0.402998,0.32864099999999996,-0.31311
337,-3.109893,-1.257179,-2.5897930000000002,-0.009778,0.951224,0.308347,-1.544834,-2.744758,-1.288253,-0.001743,0.070184,-0.112897
338,-3.088593,-1.2275200000000002,-2.514513,-0.017830000000000002,0.941657,0.33610100000000004,-1.377884,-2.38849,-1.2832700000000001,0.073357,0.101037,-0.116237
339,-3.0708990000000003,-1.2001959999999998,-2.444012,-0.025582,0.93211,0.361269,-1.213918,-2.512434,-1.332172,0.047967,0.088001,-0.214723
340,-3.063073,-1.178067,-2.376148,-0.030019,0.923868,0.38153000000000004,-0.8559620000000001,-2.884322,-1.349492,-0.102274,-0.032618,-0.28073000000000004
341,-3.063577,-1.1641629999999998,-2.311371,-0.030825,0.918458,0.394314,-0.45365200000000006,-3.048921,-1.295196,-0.111402,-0.042985,-0.260189
342,-3.068262,-1.156885,-2.248152,-0.029466000000000003,0.9155549999999999,0.40110999999999997,-0.163992,-3.169236,-1.2951549999999998,-0.135283,-0.051862,-0.192873
343,-3.074559,-1.154479,-2.183281,-0.027087,0.914585,0.403483,0.037045,-3.330685,-1.321318,-0.150891,-0.148792,-0.215556
344,-3.081729,-1.154253,-2.11857,-0.024206000000000002,0.914493,0.403873,0.073563,-3.267996,-1.312597,-0.097834,-0.202899,-0.280659
345,-3.086513,-1.153932,-2.055861,-0.02229,0.9143629999999999,0.404277,0.049883,-3.0050790000000003,-1.2404600000000001,0.15348499999999998,-0.37469,-0.40830500000000003
346,-3.089713,-1.154528,-1.9987240000000002,-0.020968,0.9146040000000001,0.403802,0.145129,-2.5469049999999998,-1.083353,0.272356,-0.328926,-0.297433
347,-3.087422,-1.1591870000000002,-1.947904,-0.021662,0.916478,0.399494,0.374201,-2.030424,-0.9713200000000001,0.25205500000000003,-0.174825,-0.185657
348,-3.080701,-1.167154,-1.901556,-0.023902,0.919637,0.39203899999999997,0.472283,-1.663831,-0.824758,0.16117,-0.080174,-0.044688
349,-3.076996,-1.175509,-1.86305,-0.024857,0.9228860000000001,0.384267,0.463571,-1.534516,-0.655138,-0.020477000000000002,-0.13921,0.052654
350,-3.077976,-1.182226,-1.835321,-0.024085,0.925452,0.37809499999999996,0.297404,-1.251473,-0.431266,-0.12726600000000002,-0.18833,-0.005765
351,-3.08698,-1.185978,-1.816702,-0.020491,0.926867,0.374828,0.175458,-1.4050719999999999,-0.275961,-0.14763099999999998,-0.24615700000000001,0.010136
352,-3.104087,-1.189017,-1.803554,-0.013969999999999998,0.928003,0.372307,0.14637999999999998,-1.465691,-0.276086,-0.27259,-0.064127,0.21743
353,-3.1029299999999997,-1.185814,-1.7787110000000002,-0.014516,0.9268049999999999,0.375259,-0.38101999999999997,-0.972309,-0.657485,-0.40468899999999997,0.093047,0.017242
354,-3.077485,-1.173959,-1.7315509999999998,-0.024761000000000002,0.9222879999999999,0.385707,-0.617008,-0.8710950000000001,-0.988275,-0.285878,0.431609,0.300451
355,-3.057055,-1.159864,-1.6889439999999998,-0.033729,0.9167489999999999,0.39803499999999997,-0.5873970000000001,-1.007131,-0.8276610000000001,-0.401436,0.21090599999999998,0.413488
356,-3.038793,-1.151664,-1.643736,-0.041762,0.913442,0.404818,-0.132602,-1.1750200000000002,-1.0614139999999999,-0.6893779999999999,-0.251409,0.27317600000000003
357,-2.994837,-1.151881,-1.5790620000000002,-0.05948200000000001,0.913531,0.402395,0.249113,-0.5764600000000001,-1.360753,-0.43511700000000003,0.013044,0.081125
358,-2.965948,-1.155273,-1.525803,-0.070538,0.914905,0.397455,0.602586,-1.355513,-0.7847189999999999,-0.02779,0.896847,-0.302881
359,-2.966383,-1.172064,-1.4898930000000001,-0.067677,0.9215540000000001,0.382304,0.949564,-1.741322,-0.508336,0.20296199999999998,1.1902469999999998,-0.37658200000000003
360,-2.9649810000000003,-1.179974,-1.455919,-0.06693099999999999,0.9245959999999999,0.37502199999999997,0.336755,-1.203023,-0.5934229999999999,0.276464,-0.19556199999999999,-0.359168
361,-2.958303,-1.185605,-1.427116,-0.068483,0.9267270000000001,0.36944,0.42865699999999995,-1.142623,-0.326871,0.191377,-0.558196,-0.698084
362,-2.98065,-1.197793,-1.422321,-0.058397000000000004,0.9312370000000001,0.359702,0.711561,-1.322429,0.169922,0.002687,-0.279504,-0.521598
363,-3.009197,-1.213451,-1.428057,-0.046175,0.9368290000000001,0.346725,0.777449,-1.098064,0.21495999999999998,-0.21981599999999998,0.027069,-0.301651
364,-3.040664,-1.2297129999999998,-1.4375790000000002,-0.033704000000000005,0.942393,0.332803,0.7993020000000001,-1.1474389999999999,0.288883,-0.202441,0.329,-0.11866099999999999
365,-3.0779229999999997,-1.2480229999999999,-1.452066,-0.020182,0.9483590000000001,0.31655300000000003,0.9570110000000001,-1.22561,0.253765,-0.230001,0.32256,-0.12728299999999998
366,-3.093971,-1.269652,-1.441993,-0.014119999999999999,0.9549979999999999,0.296275,1.163986,-1.278537,-0.275627,-0.178232,0.013675999999999999,-0.14431300000000002
367,-3.0981419999999997,-1.2949680000000001,-1.420477,-0.01183,0.9622,0.27208499999999997,1.340817,-1.230588,-0.165495,-0.062206,-0.17289300000000002,-0.17711400000000002
368,-3.1203849999999997,-1.3223850000000001,-1.4183,-0.005214,0.969304,0.24580700000000003,1.360047,-1.1870209999999999,0.11125299999999999,-0.031620999999999996,-0.195394,-0.17284000000000002
369,3.124737,-1.3484450000000001,-1.434242,0.0037170000000000003,0.9753809999999999,0.22048800000000002,1.261886,-1.086953,0.212988,-0.036798000000000004,-0.137949,-0.16453399999999999
370,3.0813759999999997,-1.372893,-1.459708,0.011831999999999999,0.9804809999999999,0.19625499999999999,1.219343,-0.815178,0.21768400000000002,-0.022757,-0.111844,-0.10680799999999999
371,3.0355220000000003,-1.395162,-1.49167,0.018499,0.9846159999999999,0.17374900000000001,1.091202,-0.625025,0.195181,-0.012075,-0.128827,-0.088742
372,2.986379,-1.41574,-1.5326790000000001,0.023874,0.9880030000000001,0.152575,1.05409,-0.381832,0.14974500000000002,-0.135141,-0.126019,-0.104281
373,2.941897,-1.437179,-1.570418,0.026425999999999998,0.991086,0.13056700000000002,1.1292879999999998,-0.360412,0.056239,-0.234769,-0.124891,-0.027433
374,2.879995,-1.458618,-1.62471,0.028949000000000003,0.993715,0.108128,1.093583,-0.42121000000000003,0.10627400000000001,-0.281727,-0.085374,0.04713
375,2.790002,-1.477543,-1.704735,0.032067,0.995655,0.08741499999999999,0.984197,-0.539104,0.11313800000000002,-0.253075,-0.047504000000000005,0.095522
376,2.667993,-1.4926409999999999,-1.814884,0.035608,0.9969469999999999,0.069478,0.81067,-0.654767,0.150531,-0.164667,-0.16159,0.072703
377,2.5219240000000003,-1.502987,-1.9468020000000001,0.039349,0.9977020000000001,0.055156,0.63312,-0.795662,0.10780999999999999,-0.089276,-0.1267,0.034718
378,2.37868,-1.511193,-2.07597,0.041161,0.998224,0.043055,0.507166,-0.6436649999999999,0.035164999999999995,-0.103432,-0.071436,0.112784
379,2.286283,-1.516163,-2.1572299999999998,0.041210000000000004,0.998508,0.035816,0.206972,-0.592158,-0.064206,-0.320156,0.30988699999999997,0.14848
380,2.2917110000000003,-1.519666,-2.137455,0.03839,0.998693,0.033733,0.011434,-0.8166770000000001,-0.22444899999999998,-0.348144,0.26722199999999996,0.10400799999999999
381,2.397939,-1.521018,-2.0104130000000002,0.033684,0.998761,0.036621,-0.310827,-1.134866,-0.293591,-0.345803,0.169497,0.07623300000000001
382,2.589802,-1.516705,-1.7941610000000001,0.028341,0.9985370000000001,0.046039,-0.638632,-1.242191,-0.34274499999999997,-0.368489,0.302656,-0.083729
383,2.820867,-1.5055319999999999,-1.538298,0.020558,0.997871,0.061886000000000004,-0.962884,-1.173196,-0.532037,-0.289876,0.378289,-0.084499
384,3.049347,-1.481831,-1.2891110000000001,0.008184,0.9960450000000001,0.08846699999999999,-1.551476,-0.8771770000000001,-0.788628,0.04452,0.44284300000000004,-0.228818
385,-3.0957209999999997,-1.4470450000000001,-1.1305610000000001,-0.00566,0.992353,0.123305,-1.921876,-1.1496899999999999,-0.783388,0.099731,0.25908200000000003,-0.472975
386,-3.046496,-1.404207,-1.05008,-0.015745,0.9861559999999999,0.16507,-2.1230450000000003,-1.689354,-0.716804,0.007139,0.11030999999999999,-0.319092
387,-3.022016,-1.358724,-0.992769,-0.025109,0.9775969999999999,0.208983,-2.2495830000000003,-1.475385,-0.835467,-0.095191,0.1926,-0.225874
388,-2.986623,-1.313719,-0.929794,-0.039244,0.9671370000000001,0.251208,-2.0227180000000002,-1.185066,-1.17288,-0.077958,0.468501,-0.240481
389,-2.933313,-1.271871,-0.855193,-0.060894000000000004,0.9556530000000001,0.288129,-1.784619,-0.743618,-1.484772,0.049328,0.452962,-0.110883
390,-2.881319,-1.23179,-0.786144,-0.08557999999999999,0.9430860000000001,0.32135,-1.657547,-0.736532,-1.502053,0.134744,0.362609,-0.12600699999999998
391,-2.852118,-1.19359,-0.7329600000000001,-0.10513800000000001,0.9296969999999999,0.353,-1.520694,-1.2510059999999998,-1.3679780000000001,0.042638,0.020773,-0.22160700000000003
392,-2.843098,-1.159721,-0.6872189999999999,-0.11751400000000001,0.9166920000000001,0.381925,-1.256003,-1.883866,-1.309771,-0.09788,-0.13693699999999998,-0.249296
393,-2.8465119999999997,-1.132788,-0.64523,-0.123346,0.9055979999999999,0.405805,-0.9014969999999999,-2.139253,-1.154212,-0.118628,-0.205006,-0.184247
394,-2.85685,-1.112649,-0.610966,-0.124243,0.8968729999999999,0.42447799999999997,-0.677964,-2.001496,-0.899658,-0.07119199999999999,-0.23603000000000002,-0.198205
395,-2.871952,-1.0978459999999999,-0.583174,-0.121342,0.890228,0.43905500000000003,-0.456527,-2.002689,-0.793424,-0.009487,-0.174271,-0.23818899999999998
396,-2.884072,-1.087256,-0.5525260000000001,-0.118407,0.8853540000000001,0.449586,-0.24586100000000002,-1.9287150000000002,-0.827299,0.15229600000000001,-0.194604,-0.311875
397,-2.891241,-1.081626,-0.5207970000000001,-0.116414,0.8827229999999999,0.45524499999999996,0.01656,-1.609342,-0.7361439999999999,0.26981,-0.334108,-0.28662
398,-2.895326,-1.082278,-0.495613,-0.11441300000000001,0.8830290000000001,0.455157,0.259615,-1.136201,-0.454111,0.277071,-0.378681,-0.273456
399,-2.897893,-1.087491,-0.480126,-0.112132,0.8854639999999999,0.450977,0.383604,-0.604973,-0.209302,0.077326,-0.435696,-0.16663
400,-2.89595,-1.0958299999999999,-0.470749,-0.11120799999999999,0.889308,0.44358000000000003,0.532808,-0.239697,-0.044222000000000004,0.034456,-0.463466,-0.253334
401,-2.8972900000000004,-1.111148,-0.46436400000000005,-0.107306,0.896209,0.43045900000000004,0.9314530000000001,-0.435467,0.082727,-0.009897,-0.527007,-0.314264
402,-2.898174,-1.132076,-0.45442200000000005,-0.102382,0.9052959999999999,0.41225900000000004,1.0884209999999999,-0.49955200000000005,-0.011165999999999999,-0.015355,-0.512153,-0.227963
403,-2.8919,-1.148509,-0.43929399999999996,-0.101276,0.9121540000000001,0.39713699999999996,0.668856,-0.23224899999999998,-0.159718,-0.002438,-0.411025,0.10684500000000001
404,-2.875364,-1.1532120000000001,-0.422401,-0.106699,0.914071,0.391266,0.147572,0.176087,-0.324115,0.005305,-0.39826300000000003,-0.008376999999999999
405,-2.858659,-1.152293,-0.40920100000000004,-0.113454,0.913698,0.390235,0.007343000000000001,0.211171,-0.185203,0.055807,-0.357653,-0.167884
406,-2.859921,-1.1562139999999999,-0.40973999999999994,-0.11196500000000001,0.915285,0.386934,0.33881,-0.192073,0.202189,-0.065968,-0.166246,-0.216356
407,-2.864649,-1.1692879999999999,-0.40860599999999997,-0.106853,0.920473,0.375916,0.782941,-0.296261,0.031305,-0.277439,0.13986099999999999,-0.085678
408,-2.846878,-1.186401,-0.38308000000000003,-0.108925,0.927025,0.35883000000000004,1.018204,-0.302003,-0.334513,-0.21534,-0.004723,-0.019704
409,-2.823877,-1.204224,-0.35120999999999997,-0.111969,0.9335610000000001,0.340479,1.050567,-0.342006,-0.21566300000000002,0.004272,-0.161635,-0.036616
410,-2.8046900000000003,-1.226538,-0.323667,-0.11156600000000001,0.941326,0.31852600000000003,1.29948,-0.296846,-0.003542,0.11141300000000001,-0.042064,-0.029356999999999998
411,-2.787731,-1.252656,-0.302386,-0.108392,0.9498190000000001,0.293419,1.3306870000000002,-0.073905,0.160896,0.117105,0.05834400000000001,0.019295
412,-2.778088,-1.271277,-0.29223899999999997,-0.10490899999999999,0.955478,0.27578,0.5478930000000001,0.034122,0.198019,0.142003,0.563488,-0.028908
413,-2.791199,-1.269782,-0.308053,-0.101775,0.9550360000000001,0.278473,-0.521513,0.172132,0.178622,0.015227000000000001,0.691921,-0.106949
414,-2.812084,-1.255878,-0.333577,-0.10022400000000001,0.950822,0.293074,-0.7860229999999999,0.12325,0.11060899999999999,-0.115855,0.312972,-0.363661
415,-2.833854,-1.248146,-0.351406,-0.096045,0.948398,0.302184,-0.24247800000000003,-0.375477,0.21652600000000002,-0.038689999999999995,0.042813,-0.441787
416,-2.85406,-1.247639,-0.366929,-0.090056,0.9482370000000001,0.30452399999999996,-0.150453,-0.139058,0.154909,-0.25235100000000005,1.3334549999999998,0.5657909999999999
417,-2.861442,-1.2344600000000001,-0.379411,-0.091253,0.9439700000000001,0.31716300000000003,-0.823708,0.338239,-0.073664,-0.45943599999999996,1.2235559999999999,0.044394
418,-2.822325,-1.22859,-0.348833,-0.105324,0.942017,0.318606,0.163114,0.53274,-0.816912,-0.575966,0.329208,-0.306247
419,-2.784653,-1.228574,-0.30854000000000004,-0.117255,0.942011,0.314429,0.252384,-0.34478600000000004,-0.427399,0.062583,-0.572596,-0.125327
420,-2.783316,-1.236731,-0.2931,-0.114976,0.944717,0.30706500000000003,0.576023,-0.740897,0.047523,0.01085,-0.25459299999999996,-0.056989
421,-2.788852,-1.247049,-0.286672,-0.109901,0.94805,0.298533,0.460766,-0.479628,0.07843,-0.076348,-0.112173,0.066076
422,-2.790251,-1.255008,-0.27929,-0.10688299999999999,0.9505520000000001,0.291592,0.384633,-0.421461,-0.01618,-0.140401,0.12559,0.110554
423,-2.7879970000000003,-1.2609780000000002,-0.267333,-0.105573,0.9523889999999999,0.286023,0.342972,-0.508364,-0.092203,-0.244631,-0.043286,0.002445
424,-2.7862299999999998,-1.2666549999999999,-0.250306,-0.104196,0.9541040000000001,0.280762,0.319394,-0.865827,-0.189118,-0.196204,-0.31358600000000003,-0.035919
425,-2.7882849999999997,-1.2682870000000002,-0.23059699999999997,-0.10307999999999999,0.954592,0.279514,0.151086,-1.1142370000000001,-0.25941,-0.017053,-0.462816,-0.06778300000000001
426,-2.792529,-1.269887,-0.21493299999999999,-0.10137,0.955067,0.278514,0.100663,-0.806729,-0.126628,0.086386,-0.404057,0.034886
427,-2.7989439999999997,-1.270208,-0.212148,-0.099479,0.9551620000000001,0.278871,0.016371,-0.215682,-0.008334000000000001,-0.09358999999999999,-0.208046,0.016112
428,-2.7962130000000003,-1.269973,-0.20942800000000003,-0.100316,0.9550930000000001,0.278808,-0.039715,0.071284,-0.061436000000000004,-0.148586,-0.114212,-0.044844999999999996
429,-2.7976099999999997,-1.265706,-0.211838,-0.101299,0.9538200000000001,0.28278200000000003,-0.34408299999999997,0.043422,-0.022934,-0.1516,0.22678299999999998,-0.076834
430,-2.805002,-1.254186,-0.222043,-0.10282899999999999,0.9502959999999999,0.293875,-0.751929,0.169665,-0.07081,-0.06923,0.198935,-0.153845
431,-2.81556,-1.234407,-0.237246,-0.10572000000000001,0.943953,0.31269,-1.176415,0.17338199999999998,-0.09941699999999999,0.006141,-0.073103,-0.30825
432,-2.833466,-1.203495,-0.256736,-0.108905,0.9333,0.342184,-1.865189,-0.083673,-0.220335,-0.025831,-0.08192,-0.32869499999999996
433,-2.850384,-1.154298,-0.27059099999999997,-0.11615299999999999,0.9145110000000001,0.387525,-2.708324,-0.345306,-0.660655,-0.042661000000000004,0.42244899999999996,-0.158674
434,-2.856898,-1.093694,-0.267788,-0.128974,0.888329,0.44072,-2.877201,-0.34309,-1.067762,-0.012261,0.857642,0.079925
435,-2.8394169999999996,-1.038549,-0.24910900000000002,-0.15102100000000002,0.861669,0.484475,-2.1884639999999997,0.313604,-1.252868,0.147771,0.767558,0.15146600000000002
436,-2.812709,-1.001098,-0.22894699999999998,-0.17421099999999998,0.8420639999999999,0.510467,-1.3218290000000001,0.424518,-0.9702870000000001,0.200883,0.198098,0.034791
437,-2.8025450000000003,-0.9733280000000001,-0.217085,-0.18709800000000001,0.8267629999999999,0.530523,-1.2031379999999998,-0.13330899999999998,-0.635458,-0.022313999999999997,0.214696,0.214991
438,-2.791575,-0.9498469999999999,-0.21053000000000002,-0.199509,0.813327,0.546528,-0.8367870000000001,0.528692,-0.536539,0.05368099999999999,0.323148,0.178753
439,-2.773477,-0.94179,-0.202988,-0.211718,0.808612,0.548924,0.022685,0.521179,-0.20258199999999998,0.10364000000000001,-0.11363599999999999,-0.12505
440,-2.762032,-0.9517180000000001,-0.198965,-0.215002,0.814413,0.538982,0.776712,0.4082,0.22370900000000002,0.010244,-0.48897399999999996,-0.15174400000000002
441,-2.753118,-0.9735889999999999,-0.197521,-0.21299899999999997,0.826909,0.520432,1.125546,0.342341,0.40676,-0.061155999999999995,-0.503057,-0.094452
442,-2.7422419999999996,-0.998384,-0.193851,-0.210608,0.8405969999999999,0.499037,1.186028,0.46904799999999996,0.369632,0.029394,-0.36846,0.091387
443,-2.72757,-1.021906,-0.19070399999999998,-0.209893,0.8531040000000001,0.477656,1.0630870000000001,0.683466,0.401613,0.163216,-0.390427,-2.6000000000000002e-05
444,-2.710918,-1.045532,-0.188181,-0.20934299999999997,0.8651909999999999,0.45565,1.1856799999999998,0.7073550000000001,0.44837299999999997,0.189369,-0.47824399999999995,-0.086616
445,-2.694821,-1.075883,-0.182554,-0.205206,0.8800100000000001,0.428335,1.588458,0.46370600000000006,0.5572520000000001,-0.000681,-0.5743,-0.082952
446,-2.677388,-1.1136540000000001,-0.172102,-0.19761199999999998,0.897317,0.394676,1.9013970000000002,0.403615,0.660996,-0.175816,-0.49584300000000003,-0.001945
447,-2.658645,-1.155443,-0.160363,-0.187387,0.914974,0.35736100000000004,1.9957340000000001,0.357115,0.752513,-0.257208,-0.176555,0.12175
448,-2.645955,-1.194952,-0.14647000000000002,-0.174569,0.930198,0.322887,1.7534990000000001,-0.250888,0.6287550000000001,-0.28469,0.041894,0.13422
449,-2.6350860000000003,-1.2261870000000001,-0.125911,-0.163889,0.941208,0.29541100000000003,1.450028,-0.44134700000000004,0.303208,-0.279211,0.134888,0.06287999999999999
450,-2.6094,-1.250681,-0.090668,-0.159674,0.949199,0.271154,1.293868,-0.333152,0.022105,-0.006663,0.185063,0.06225
451,-2.573545,-1.270821,-0.04662,-0.158972,0.9553440000000001,0.249088,1.104642,-0.283082,-0.080762,0.448142,0.325372,-0.082264
452,-2.551581,-1.287015,-0.017212,-0.155775,0.9600040000000001,0.232648,0.792345,-0.363208,0.247239,0.543913,0.473788,-0.083112
453,-2.5724650000000002,-1.2986360000000001,-0.032685000000000006,-0.144861,0.963192,0.226437,0.117493,-0.13326400000000002,0.604358,0.30089699999999997,0.31164899999999995,-0.028043000000000002
454,-2.5969130000000002,-1.303562,-0.066211,-0.136822,0.964505,0.22585,-0.10781700000000001,0.569291,0.398922,0.021084000000000002,0.039447,-0.474919
455,-2.6055040000000003,-1.304225,-0.081233,-0.134549,0.96468,0.22646599999999997,0.07113799999999999,0.14826,0.039652,-0.195773,0.163128,-0.46903500000000004
456,-2.601025,-1.3038049999999999,-0.070268,-0.135771,0.964569,0.22620900000000002,-0.100488,-0.51923,-0.187154,-0.300539,0.53009,0.039401
457,-2.624079,-1.290325,-0.083999,-0.13694,0.960925,0.240556,-0.969261,-0.339426,-0.176361,-0.22159600000000002,0.707715,0.156814
458,-2.635158,-1.274183,-0.093544,-0.141773,0.956332,0.255592,-0.527571,-0.000597,-0.31044299999999997,-0.093609,-0.19581800000000002,-0.058708
459,-2.625107,-1.27027,-0.083354,-0.146182,0.955181,0.25740599999999997,0.081768,-0.044913999999999996,-0.145896,-0.045788999999999996,-0.32571,-0.003072
460,-2.627214,-1.2717530000000001,-0.082246,-0.14494100000000001,0.955619,0.256479,0.028506999999999998,-0.224807,0.1317,-0.011736,0.006723000000000001,0.033911000000000004
461,-2.648498,-1.274845,-0.09729199999999999,-0.138051,0.956525,0.2569,0.049267,-0.410962,0.31261300000000003,-0.076167,0.021685,-0.226352
462,-2.6672919999999998,-1.281279,-0.104701,-0.130385,0.958382,0.25397,0.353987,-0.651112,0.16443,-0.10551600000000001,-0.091316,-0.135287
463,-2.6738560000000002,-1.285577,-0.099511,-0.126856,0.9596,0.251141,0.082188,-0.539702,-0.021346,-0.101995,-0.11874900000000001,0.089298
464,-2.680244,-1.285521,-0.094927,-0.125273,0.959584,0.25199299999999997,0.042973000000000004,-0.539334,-0.079304,-0.007372,-0.053975,0.049261
465,-2.6844770000000002,-1.284361,-0.089157,-0.124696,0.959257,0.253519,-0.08456799999999999,-0.457812,-0.107011,0.046907,-0.084837,0.056036
466,-2.689191,-1.280537,-0.085137,-0.125102,0.9581700000000001,0.2574,-0.16809300000000002,-0.338012,-0.156886,-0.065312,-0.11979100000000001,0.12371800000000001
467,-2.687393,-1.272829,-0.081572,-0.128801,0.9559350000000001,0.263804,-0.420896,0.072239,-0.23395300000000002,-0.156858,-0.273532,0.074864
468,-2.68995,-1.2610860000000002,-0.087732,-0.133017,0.9524219999999999,0.274215,-0.656682,0.18870399999999998,-0.117177,-0.12726800000000002,-0.34939499999999996,-0.054183
469,-2.709654,-1.245696,-0.111364,-0.133709,0.9476190000000001,0.290061,-1.0037459999999998,0.07195700000000001,0.074965,-0.014621,-0.282122,-0.197578
470,-2.749109,-1.2241440000000001,-0.152117,-0.129946,0.940516,0.31390999999999997,-1.413965,-0.106295,0.25179,0.154864,-0.051203,-0.188895
471,-2.801136,-1.193997,-0.206039,-0.12286199999999999,0.929847,0.34681999999999996,-1.978574,-0.036632,0.36953400000000003,0.105726,0.038674,-0.307758
472,-2.847465,-1.151101,-0.256281,-0.118129,0.9132129999999999,0.389977,-2.532039,0.038613999999999996,0.147654,0.003856,0.154353,-0.289056
473,-2.871457,-1.09784,-0.282012,-0.12155999999999999,0.890225,0.43899499999999997,-2.719138,-0.16183499999999998,-0.44412299999999993,-0.24376599999999998,0.657504,-0.012497
474,-2.8746720000000003,-1.049303,-0.279618,-0.13139800000000001,0.8670760000000001,0.480529,-2.069355,-0.25222,-0.781299,0.098333,0.49316899999999997,0.17114400000000002
475,-2.8691709999999997,-1.015151,-0.27379000000000003,-0.141928,0.84956,0.508034,-1.343639,0.134854,-0.44023599999999996,0.276541,0.35683000000000004,0.146904
476,-2.8713900000000003,-0.9939690000000001,-0.274873,-0.145572,0.838197,0.525574,-0.911058,-0.257393,-0.22627199999999997,0.171542,0.31852600000000003,0.134826
477,-2.864268,-0.9772040000000001,-0.269921,-0.153137,0.828937,0.5379659999999999,-0.652452,0.593633,-0.417836,0.44137600000000005,0.311185,0.24972399999999997
478,-2.835457,-0.9717899999999999,-0.261205,-0.16992100000000002,0.825896,0.537602,0.163582,1.220696,-0.23027399999999998,0.41726599999999997,0.152955,0.045116
479,-2.79969,-0.986867,-0.249117,-0.18484,0.834303,0.51939,1.155959,1.265255,0.020156,0.089564,-0.433867,-0.17757799999999999
480,-2.7690900000000003,-1.0144520000000001,-0.238058,-0.192193,0.849191,0.491864,1.462583,0.9508409999999999,0.326075,-0.283225,-0.33408499999999997,0.080112
481,-2.744106,-1.043695,-0.22852399999999998,-0.194722,0.8642690000000001,0.46380699999999997,1.4399680000000001,0.843571,0.265166,-0.20803400000000002,-0.260814,0.218063
482,-2.710267,-1.069663,-0.21253699999999998,-0.20085,0.8770389999999999,0.436414,1.265297,0.996059,0.11206300000000001,-0.07618899999999999,-0.261408,0.14345
483,-2.681236,-1.0907200000000001,-0.19701300000000002,-0.205182,0.8869600000000001,0.41376199999999996,1.042616,0.619599,0.143037,-0.010089,-0.421368,0.015375999999999999
484,-2.660029,-1.111709,-0.182606,-0.20524,0.896457,0.392729,1.158134,0.279097,0.212646,-0.039084,-0.639698,-0.178022
485,-2.6436330000000003,-1.139591,-0.164979,-0.199632,0.9084629999999999,0.367202,1.579177,-0.090654,0.405136,-0.057036,-0.164108,0.021149
486,-2.625471,-1.174564,-0.142783,-0.190465,0.9225209999999999,0.33566599999999996,1.7677330000000002,-0.108537,0.451342,-0.19247,0.045618,0.1284
487,-2.606898,-1.204713,-0.119301,-0.18240499999999998,0.933736,0.307992,1.312389,-0.19270299999999999,0.315809,-0.22968899999999998,0.11925699999999999,0.12828699999999998
488,-2.5876919999999997,-1.22335,-0.095976,-0.179101,0.9402450000000001,0.28958,0.879935,-0.086704,0.024233,-0.136817,0.16630699999999998,0.10267799999999999
489,-2.560743,-1.237286,-0.065552,-0.17962999999999998,0.9448989999999999,0.27366599999999996,0.896106,-0.12374600000000001,-0.050381999999999996,0.202823,0.20999299999999999,0.092865
490,-2.538672,-1.253109,-0.03782,-0.177125,0.94996,0.257287,0.8124239999999999,-0.260631,0.154307,0.618699,0.540411,0.22394499999999998
491,-2.547773,-1.265274,-0.043289999999999995,-0.168297,0.9536899999999999,0.24929099999999998,0.196986,-0.028007,0.588749,0.312874,0.648422,0.027763
492,-2.583437,-1.268838,-0.089463,-0.1575,0.9547559999999999,0.252248,-0.328264,0.677693,0.6557470000000001,0.026549,0.217745,-0.764516
493,-2.5993880000000003,-1.275333,-0.1176,-0.150253,0.956667,0.24941100000000002,0.223714,0.316558,0.445353,-0.137787,-0.064242,-0.390448
494,-2.61711,-1.2815809999999999,-0.137559,-0.14281300000000002,0.958468,0.246856,0.015358000000000002,-0.06485,0.369611,-0.33713699999999996,-0.156573,-0.21897800000000003
495,-2.634553,-1.281595,-0.150104,-0.138479,0.9584719999999999,0.249297,-0.180696,-0.364206,0.010771,-0.316309,-0.050009,0.002153
496,-2.6527950000000002,-1.272723,-0.156552,-0.137897,0.9559040000000001,0.25928,-0.585804,-0.744375,-0.204148,-0.027218,1.220442,0.296323
497,-2.668756,-1.25803,-0.167331,-0.140123,0.951486,0.273924,-0.62093,0.194372,-0.23337,-0.085524,0.11617100000000001,0.133165
498,-2.630761,-1.247884,-0.14741500000000002,-0.15514,0.948315,0.27681300000000003,-0.18199300000000002,1.187921,-0.525338,0.070164,-0.391491,0.17005499999999998
499,-2.608848,-1.245878,-0.14093,-0.162133,0.947677,0.274984,0.079697,0.450538,0.09913999999999999,0.084848,-0.651885,-0.17063
500,-2.617613,-1.253482,-0.150729,-0.156107,0.9500770000000001,0.270148,0.300874,-0.142599,0.384523,-0.10253,-0.399586,-0.064825
501,-2.631852,-1.2607620000000002,-0.161097,-0.148865,0.9523229999999999,0.266298,0.17288900000000001,-0.25140100000000004,0.265196,-0.108688,0.16635999999999998,0.07810800000000001
502,-2.6432740000000003,-1.2651299999999999,-0.166465,-0.143824,0.9536469999999999,0.264324,0.178497,-0.322264,0.132867,-0.197576,0.34448,0.101215
503,-2.644469,-1.270742,-0.16229200000000002,-0.140954,0.9553200000000001,0.259788,0.340475,-0.21488200000000002,0.045198,-0.160712,-0.065321,0.21471500000000002
504,-2.638068,-1.2763879999999999,-0.151371,-0.14001,0.956974,0.254153,0.305527,-0.235749,-0.034068,-0.12878900000000001,-0.349659,0.09181
505,-2.632541,-1.280802,-0.136737,-0.139352,0.9582459999999999,0.24968400000000002,0.29375100000000004,-0.538021,-0.090378,-0.019094999999999997,-0.423929,0.101588
506,-2.6325439999999998,-1.284724,-0.12531099999999998,-0.137519,0.95936,0.246401,0.223873,-0.567959,-0.002166,0.027563999999999998,-0.329889,-0.053835
507,-2.643769,-1.2892430000000001,-0.123795,-0.132673,0.960625,0.244117,0.16758599999999998,-0.6130479999999999,0.133163,-0.049823,-0.26432100000000003,-0.008918
508,-2.662979,-1.291466,-0.133424,-0.126975,0.96124,0.244723,-0.043068,-0.435663,0.178466,-0.178445,0.047854,-0.009845
509,-2.688256,-1.2913379999999999,-0.149758,-0.120803,0.961205,0.247966,-0.147038,-0.5100020000000001,0.21095,-0.034332999999999995,0.15084,-0.03802
510,-2.721851,-1.287909,-0.174868,-0.113749,0.960254,0.254892,-0.414786,-0.434766,0.276281,0.00889,0.119123,0.03916
511,-2.764559,-1.278836,-0.213429,-0.105966,0.957681,0.267606,-0.761735,-0.17179,0.34722800000000004,-0.121802,0.057486,-0.011594
512,-2.80627,-1.263518,-0.254195,-0.099531,0.95316,0.285612,-1.0366360000000001,-0.18218800000000002,0.255591,-0.12451400000000001,-0.009343,-0.29444699999999996
513,-2.8511990000000003,-1.23889,-0.293719,-0.093297,0.9454229999999999,0.31219600000000003,-1.590598,-0.549605,0.17741700000000002,0.042607,0.115521,-0.402146
514,-2.900848,-1.1981700000000002,-0.331432,-0.0868,0.9313739999999999,0.353557,-2.436529,-0.671766,0.025318,0.10569100000000001,0.286918,-0.284481
515,-2.924561,-1.146583,-0.352756,-0.08863,0.9113629999999999,0.401942,-2.60823,0.192003,-0.31561500000000003,0.298744,0.653914,0.197453
516,-2.9094290000000003,-1.102547,-0.353813,-0.103841,0.89236,0.43921099999999996,-1.807527,1.061401,-0.5119560000000001,0.314931,0.360356,0.12011500000000001
517,-2.8758939999999997,-1.075358,-0.345552,-0.12483599999999999,0.87976,0.45873,-0.991876,1.39953,-0.529125,0.21741100000000002,0.23416199999999998,0.06040499999999999
518,-2.843356,-1.054892,-0.33350799999999997,-0.144954,0.8698469999999999,0.47153900000000004,-0.9186219999999999,0.8018270000000001,-0.5716439999999999,-0.183629,0.063884,-0.121701
519,-2.8285099999999996,-1.035678,-0.32356,-0.157057,0.860208,0.48514799999999997,-0.733028,0.13622,-0.513947,-0.147798,0.076147,0.057179999999999995
520,-2.813485,-1.026274,-0.310329,-0.166928,0.855375,0.490371,-0.06404299999999999,0.233672,-0.42287299999999994,0.023602,0.056155,0.07869
521,-2.793734,-1.031903,-0.29466,-0.17493599999999998,0.8582770000000001,0.482444,0.653572,0.380424,-0.181972,0.178095,-0.327073,-0.022331
522,-2.77474,-1.050395,-0.281441,-0.178344,0.8676200000000001,0.464139,1.1502290000000002,0.33378800000000003,0.12706900000000002,0.075179,-0.505849,-0.063016
523,-2.762167,-1.07692,-0.270805,-0.175577,0.880502,0.44032299999999996,1.415042,0.060608,0.280956,0.013147999999999998,-0.462869,-0.037766
524,-2.749956,-1.1074190000000002,-0.257757,-0.17060799999999998,0.894548,0.413125,1.5779889999999999,0.019468,0.30458,-0.038620999999999996,-0.503252,-0.008661
525,-2.737846,-1.137945,-0.244848,-0.16479000000000002,0.9077729999999999,0.38573,1.461571,0.026126,0.339009,-0.034963,-0.6000949999999999,-0.021547999999999998
526,-2.723907,-1.164651,-0.229192,-0.16025699999999998,0.918651,0.361102,1.294434,-0.065277,0.164907,-0.005484,-0.683787,-0.033938
527,-2.702976,-1.188718,-0.2031,-0.158343,0.927892,0.337552,1.331918,-0.206393,-0.008771,0.022082,-0.709813,0.000736
528,-2.678265,-1.2146379999999999,-0.172576,-0.155831,0.937243,0.311911,1.462734,-0.127638,0.162958,0.019112,-0.535876,0.12081300000000002
529,-2.655558,-1.24538,-0.148558,-0.149338,0.9475180000000001,0.282674,1.5582049999999998,0.005227000000000001,0.419828,-0.122772,0.581489,0.061885
530,-2.636182,-1.272316,-0.121499,-0.142375,0.955784,0.257297,1.230906,-0.49517100000000003,0.100921,-0.178624,0.616039,0.099179
531,-2.5972720000000002,-1.287173,-0.073624,-0.144906,0.9600479999999999,0.23938800000000002,0.8473069999999999,-0.131935,-0.359423,-0.050788,0.15659,0.090232
532,-2.546896,-1.292928,-0.023449,-0.153679,0.961642,0.227208,0.45305,0.145624,-0.430899,0.40676100000000004,0.279935,0.165736
533,-2.52846,-1.293237,-0.0032380000000000004,-0.15767,0.961727,0.224093,0.012487,-0.161215,-0.039409,0.299165,0.482731,0.200102
534,-2.57504,-1.284036,-0.057891,-0.151807,0.9591649999999999,0.23864699999999997,-1.190337,0.7824,0.5246149999999999,-0.137301,0.606921,-0.45346000000000003
535,-2.618404,-1.286103,-0.099655,-0.140328,0.9597479999999999,0.243286,0.38421500000000003,-1.112001,0.576497,-0.045478,0.037368,0.10472100000000001
536,-2.666943,-1.295101,-0.13063,-0.12440699999999999,0.9622360000000001,0.242117,-0.16301400000000002,-0.625364,0.56671,-0.06350499999999999,0.179732,0.124796
537,-2.695496,-1.291188,-0.153774,-0.11906800000000001,0.9611639999999999,0.24896500000000002,-0.17354,-0.29248,-0.085406,-0.047177,0.238513,-0.06502000000000001
538,-2.674127,-1.2881799999999999,-0.12923199999999999,-0.125662,0.9603290000000001,0.248944,-0.005643,0.136669,-0.457592,-0.010904,1.15959,0.22627600000000003
539,-2.637475,-1.2831299999999999,-0.10416600000000001,-0.137041,0.958909,0.248414,0.039219,0.901217,-0.41659799999999997,-0.44354099999999996,0.173171,0.010314
540,-2.588461,-1.279952,-0.07005399999999999,-0.150648,0.958002,0.24399400000000002,0.046564999999999995,0.612599,-0.440746,-0.31488299999999997,-0.13228800000000002,-0.006384
541,-2.584461,-1.280734,-0.06577000000000001,-0.151226,0.958226,0.24275300000000002,0.147075,-0.348058,0.214939,-0.095326,-0.126073,-0.161942
542,-2.609827,-1.291856,-0.07899199999999999,-0.13960799999999998,0.961348,0.23731,0.469304,-0.754128,0.51788,-0.025569,0.006121,-0.048589
543,-2.6376720000000002,-1.3058969999999999,-0.09249500000000001,-0.126415,0.9651190000000001,0.22926,0.539408,-0.642292,0.461611,0.017849,-0.002045,0.033832
544,-2.6488400000000003,-1.318406,-0.096785,-0.118126,0.968318,0.220004,0.501676,-0.189788,0.28771599999999997,0.025109,-0.151286,0.095899
545,-2.645003,-1.3293540000000001,-0.091821,-0.11391199999999999,0.970994,0.210215,0.535039,-0.010445,0.164873,0.06410700000000001,-0.265367,0.184942
546,-2.636959,-1.3390870000000001,-0.085949,-0.111024,0.973275,0.201009,0.378106,0.216957,0.176305,0.068834,-0.29930999999999996,0.24814899999999998
547,-2.637874,-1.3435620000000001,-0.095437,-0.10873699999999999,0.9742930000000001,0.197294,-0.007861,0.5674779999999999,0.23298000000000002,0.040576,-0.46277299999999993,0.13275399999999998
548,-2.649041,-1.3446850000000001,-0.12203599999999999,-0.10600899999999999,0.9745459999999999,0.19753199999999999,-0.09695,0.7698510000000001,0.317556,-0.035882,-0.472257,0.052361000000000005
549,-2.660625,-1.34647,-0.149291,-0.10290899999999999,0.974944,0.197203,-0.040583999999999995,0.698408,0.285995,-0.225735,-0.43018999999999996,0.088975
550,-2.672016,-1.3475979999999999,-0.171483,-0.10015800000000001,0.975195,0.197382,-0.09093899999999999,0.354738,0.22626300000000002,-0.456818,-0.39208000000000004,0.106619
551,-2.695239,-1.345764,-0.196685,-0.09632,0.9747870000000001,0.201268,-0.277472,-0.10896099999999999,0.19777999999999998,-0.563684,-0.30062300000000003,-0.012638
552,-2.731939,-1.341261,-0.22240900000000002,-0.09061799999999999,0.973772,0.20869200000000002,-0.336227,-0.893642,0.14176,-0.347141,-0.186159,-0.194105
553,-2.782536,-1.3335059999999999,-0.246694,-0.082598,0.971979,0.22007,-0.614517,-1.5977649999999999,0.11080799999999999,-0.183653,-0.19153699999999999,-0.296272
554,-2.85127,-1.3121770000000001,-0.280883,-0.07320800000000001,0.966744,0.245035,-1.499564,-1.828645,0.007712999999999999,0.299831,0.488975,-0.224802
555,-2.9083919999999996,-1.272008,-0.303525,-0.068023,0.955694,0.286387,-2.343156,-1.6781700000000002,-0.39361399999999996,0.294647,0.500025,-0.266154
556,-2.934543,-1.218539,-0.30259,-0.070925,0.9385959999999999,0.33764099999999997,-2.605248,-1.140396,-0.651439,0.42964399999999997,0.718584,0.023824
557,-2.93396,-1.17379,-0.28931,-0.079706,0.9222229999999999,0.378348,-1.8248830000000003,-0.168061,-0.729487,0.262751,0.232089,0.279519
558,-2.903244,-1.1402510000000001,-0.273335,-0.098538,0.9087379999999999,0.405561,-1.486248,1.44428,-0.635184,0.20535,0.255263,0.28868299999999997
559,-2.8615180000000002,-1.1060510000000001,-0.267246,-0.123892,0.8939360000000001,0.430726,-1.680761,1.729954,-0.511927,0.11398900000000001,0.357605,0.10450699999999999
560,-2.833116,-1.076281,-0.265762,-0.144092,0.880199,0.452197,-1.163902,1.1644649999999999,-0.470204,-0.402478,0.22276700000000002,-0.032809
561,-2.806621,-1.060483,-0.256914,-0.160573,0.872591,0.46129899999999996,-0.40863,0.7439479999999999,-0.39281900000000003,-0.05680399999999999,-0.047915,0.019459999999999998
562,-2.790194,-1.0575350000000001,-0.246779,-0.169014,0.8711479999999999,0.461012,0.137621,0.22249000000000002,-0.19926,0.11631,0.055702,0.34984
563,-2.78169,-1.065973,-0.24072800000000003,-0.17033299999999998,0.87526,0.452661,0.626676,0.165151,0.128969,-0.075395,0.22528,0.38466500000000003
564,-2.7734959999999997,-1.0845420000000001,-0.23628200000000002,-0.168158,0.8840899999999999,0.43601,1.0809959999999998,0.254664,0.260214,-0.307199,0.12396700000000001,0.32660900000000004
565,-2.755451,-1.112593,-0.22484400000000002,-0.16659000000000002,0.896849,0.409763,1.552542,0.507542,0.282412,-0.29186,-0.098814,0.269787
566,-2.7316409999999998,-1.144898,-0.20903200000000002,-0.164661,0.910668,0.378902,1.639071,0.367397,0.355835,-0.180417,-0.27878600000000003,0.109944
567,-2.718036,-1.179561,-0.195439,-0.156727,0.9244389999999999,0.34763,1.740651,-0.12579400000000002,0.5259560000000001,-0.018749000000000002,-0.580994,-0.10890599999999999
568,-2.716036,-1.219291,-0.18732100000000002,-0.14213900000000002,0.9388549999999999,0.31359699999999996,1.954184,-0.289585,0.8054020000000001,0.155857,-0.86366,-0.292403
569,-2.7210259999999997,-1.267015,-0.186749,-0.122126,0.9542120000000001,0.273059,2.3074049999999997,-0.27153299999999997,1.046059,0.243617,-0.40420900000000004,-0.255633
570,-2.720895,-1.31708,-0.176072,-0.102506,0.967986,0.229111,2.2095580000000004,-0.754628,0.729801,0.006376,-0.36119,-0.246216
571,-2.7218240000000002,-1.347828,-0.158745,-0.090117,0.975245,0.201922,0.981349,-0.8006439999999999,0.249127,-0.312319,-0.794383,-0.293261
572,-2.690266,-1.355007,-0.118878,-0.093387,0.976808,0.192673,0.42745,-0.28283,-0.62387,-0.275906,-0.989625,-0.322358
573,-2.583025,-1.35719,0.004887,-0.11234200000000001,0.977273,0.17976,0.827152,-1.1905459999999999,-1.210642,0.258033,-1.488381,-0.005383
574,-2.5608560000000002,-1.34884,0.063319,-0.120772,0.975469,0.184042,-0.647833,-1.685097,-0.399916,0.598128,-0.44605,-0.370581
575,-2.629421,-1.328948,0.02374,-0.11736700000000001,0.9708969999999999,0.20876,-0.948177,-1.5360040000000001,-0.12874000000000002,0.42521400000000004,0.13152,-0.520497
576,-2.62755,-1.317636,0.042276999999999995,-0.12315,0.968126,0.21808899999999998,-0.41844,0.043741,-0.572513,0.074521,1.094969,0.485005
577,-2.6083979999999998,-1.315625,0.041250999999999996,-0.12829300000000002,0.96762,0.21736599999999998,0.081934,1.119877,0.27243,-0.5862609999999999,0.790223,0.61587
578,-2.623052,-1.3156,0.008815,-0.125107,0.967614,0.219244,-0.822508,0.561263,0.359764,-0.7247319999999999,1.4816200000000002,0.298898
579,-2.686779,-1.296355,-0.060009,-0.119049,0.962577,0.243452,-0.732322,-0.137419,0.246989,-1.017181,0.480004,-0.094053
580,-2.714687,-1.287982,-0.06768500000000001,-0.115543,0.960274,0.25400700000000004,-0.528148,-1.4031129999999998,-0.159092,-0.626904,-0.47640299999999997,0.318396
581,-2.753606,-1.2802229999999999,-0.070235,-0.10838800000000001,0.9580799999999999,0.26519899999999996,-0.169458,-2.03726,-0.126932,-0.44983999999999996,-0.234188,0.248656
582,-2.794079,-1.278029,-0.06855800000000001,-0.09828300000000001,0.957449,0.271342,-0.012028,-2.025493,-0.009411,0.009279,0.160822,0.08045
583,-2.830712,-1.280241,-0.07147,-0.087632,0.9580850000000001,0.272742,0.073417,-1.42964,0.091904,0.143723,0.25808600000000004,-0.120825
584,-2.8512009999999997,-1.276442,-0.07346799999999999,-0.083067,0.95699,0.277966,-0.37030799999999997,-0.6666449999999999,-0.120477,0.11190599999999999,-0.027775,-0.272884
585,-2.862609,-1.259983,-0.074635,-0.084218,0.9520850000000001,0.294,-1.097489,-0.44633199999999995,-0.23906999999999998,0.090809,-0.224363,-0.235833
586,-2.88246,-1.2269780000000001,-0.089334,-0.086373,0.941475,0.325821,-1.9564549999999998,-0.208023,-0.21546500000000002,0.014122,-0.048530000000000004,-0.131149
587,-2.889584,-1.181577,-0.096388,-0.094618,0.9252049999999999,0.36747199999999997,-2.303586,-0.009087,-0.6454340000000001,0.077314,0.15526900000000002,-0.320521
588,-2.883426,-1.141254,-0.077889,-0.106322,0.909157,0.402645,-1.5547870000000001,-0.836009,-0.960678,0.112105,0.170998,-0.062954
589,-2.872459,-1.1082020000000001,-0.051476999999999995,-0.11865999999999999,0.894898,0.430199,-1.509483,-0.5069229999999999,-0.978943,-0.040382,0.5451199999999999,0.134667
590,-2.862925,-1.0725129999999998,-0.028387,-0.131461,0.8784040000000001,0.459474,-1.498958,-0.56226,-1.0023,-0.255181,0.9679399999999999,0.448805
591,-2.848568,-1.046616,-0.001593,-0.144568,0.865735,0.479162,-0.745833,-0.34544400000000003,-0.997317,0.022437000000000002,0.611438,0.24262399999999998
592,-2.823156,-1.036546,0.033571,-0.159418,0.860651,0.48358900000000005,0.090215,-0.176924,-0.9746020000000001,0.068186,-0.18604400000000001,0.051048
593,-2.798252,-1.040335,0.067949,-0.170312,0.862574,0.476396,0.6137,-0.35390900000000003,-0.592568,-0.080634,-0.508814,-0.039002999999999996
594,-2.794451,-1.051674,0.085329,-0.168782,0.8682549999999999,0.46651800000000004,0.738711,-0.66886,0.004777,-0.23545300000000002,-0.343902,0.025304
595,-2.805573,-1.071401,0.09234400000000001,-0.157904,0.877872,0.45210500000000003,1.1472959999999999,-0.9692940000000001,0.189614,-0.176049,-0.18256,0.133252
596,-2.813479,-1.098753,0.10518699999999999,-0.14653,0.890641,0.430442,1.510518,-0.892674,0.161074,0.019959,-0.27674899999999997,0.13463599999999998
597,-2.813335,-1.129485,0.11991199999999999,-0.1377,0.904192,0.404312,1.5748149999999999,-0.55111,0.202746,0.157277,-0.46980500000000003,-0.07785
598,-2.815258,-1.1616739999999999,0.131456,-0.127523,0.9174700000000001,0.376803,1.6267530000000001,-0.7032079999999999,0.364605,0.12702,-0.5325979999999999,-0.113376
599,-2.8302,-1.197052,0.135096,-0.11185999999999999,0.930967,0.347539,1.7320520000000001,-1.0558969999999999,0.5602090000000001,-0.023012,-0.5024850000000001,-0.004215999999999999
600,-2.8598630000000003,-1.233032,0.129183,-0.092127,0.943498,0.318307,1.626335,-1.234815,0.639817,-0.197561,-0.336,0.161673
601,-2.8912709999999997,-1.260791,0.11951300000000001,-0.075567,0.952332,0.295548,1.054649,-0.994173,0.364187,-0.265879,-0.129471,0.13783199999999998
602,-2.900496,-1.272951,0.13056500000000001,-0.07006699999999999,0.9559709999999999,0.284965,0.343171,-1.094716,-0.24847199999999997,0.108107,0.333122,0.203041
603,-2.901097,-1.2672780000000001,0.156937,-0.071186,0.954291,0.29027,-0.473108,-1.313728,-0.44831000000000004,0.21120100000000003,0.243463,0.345442
604,-2.903595,-1.251851,0.17276,-0.073923,0.949567,0.304718,-0.723459,-0.526654,-0.456408,0.11564100000000001,-0.004102000000000001,0.32135
605,-2.8801669999999997,-1.240329,0.20033399999999998,-0.083864,0.945891,0.31345100000000004,-0.277003,-0.032491,-0.54579,-0.056867999999999995,-0.462675,-0.024130000000000002
606,-2.866104,-1.236102,0.22362800000000002,-0.08935,0.9445110000000001,0.316085,0.377015,-0.602058,-0.40269099999999997,-0.42522200000000004,-0.863792,0.379441
607,-2.83327,-1.22666,0.254911,-0.10238,0.941367,0.321465,-1.457917,0.094695,-0.692002,0.258615,1.008462,-1.6620409999999999
608,-2.914874,-1.197842,0.202873,-0.081901,0.9312549999999999,0.355036,-2.143284,-2.2973060000000003,0.813537,-0.377892,3.7303660000000005,1.0373139999999998
609,-2.922552,-1.155689,0.21405500000000002,-0.08763,0.9150729999999999,0.393644,-1.060727,0.583011,-1.938605,-0.483278,-0.21297,-0.8213020000000001
610,-2.815155,-1.143797,0.33133,-0.132801,0.9102129999999999,0.39226300000000003,0.22341799999999998,-0.098607,-2.291957,-0.086728,-1.758891,0.212275
611,-2.7963869999999997,-1.141055,0.361625,-0.140983,0.9090739999999999,0.392049,0.127304,-0.810887,0.35427,0.046531,-0.027024,-0.39667199999999997
612,-2.887438,-1.160279,0.296458,-0.100339,0.9169139999999999,0.386256,0.841759,-2.03678,2.069986,-0.258548,0.714861,-0.44510900000000003
613,-2.978254,-1.194424,0.23381799999999997,-0.059766999999999994,0.930004,0.362649,1.827559,-1.149945,0.819507,0.052489,1.280125,0.031226
614,-2.97332,-1.2388940000000002,0.24875,-0.05457000000000001,0.9454239999999999,0.321229,2.331598,-0.22790700000000003,-0.026322,0.189961,-0.0014089999999999999,0.091628
615,-2.960242,-1.285143,0.268269,-0.05082,0.959478,0.27715100000000004,2.3571150000000003,-0.271468,0.188624,-0.027747000000000004,-0.10584,-0.099692
616,-2.942657,-1.333458,0.28943800000000003,-0.046463,0.971967,0.230467,2.442427,0.003954,0.235869,0.030899,-0.23745500000000003,-0.19821
617,-2.93761,-1.381278,0.291381,-0.038158,0.982095,0.18446400000000002,2.265623,0.205474,0.609322,-0.015019,-0.06817000000000001,-0.201172
618,-2.973493,-1.4251610000000001,0.25275,-0.024277,0.9894139999999999,0.143057,1.998607,0.042834,0.74975,-0.124725,-0.109928,-0.067954
619,-3.057269,-1.462408,0.17022,-0.009109,0.994132,0.10776500000000001,1.6412060000000002,-0.171194,0.7699600000000001,-0.086426,-0.451834,-0.070595
620,3.041241,-1.490883,-0.009739,0.007994,0.9968090000000001,0.079391,1.303951,-0.332353,0.8714290000000001,-0.07714700000000001,-0.5688,-0.152588
621,2.702807,-1.5099879999999999,-0.342443,0.025798,0.998152,0.054971000000000006,1.195437,-0.25000300000000003,0.884452,-0.062053,-0.46955699999999995,-0.064492
622,2.2412520000000002,-1.516483,-0.800072,0.042493,0.998525,0.033697000000000005,0.951926,-0.17735,0.775836,-0.09536499999999999,-0.256658,0.06811
623,1.8959419999999998,-1.511843,-1.145681,0.05579,0.9982629999999999,0.018807,0.621925,0.041848,0.5916520000000001,-0.045489999999999996,0.074125,0.16353499999999999
624,1.726141,-1.505525,-1.314458,0.064398,0.997871,0.010085,0.351364,-0.094761,0.357065,-0.084524,0.024453,0.295014
625,1.652996,-1.5006959999999998,-1.384584,0.069763,0.9975440000000001,0.0057469999999999995,0.125338,-0.18720599999999998,0.22848600000000002,-0.28209,-0.025025,0.31749499999999997
626,1.6479270000000001,-1.49781,-1.384463,0.072659,0.997338,0.005615,-0.11139500000000001,-0.287076,0.10091,-0.48743800000000004,0.121208,0.406494
627,1.7137509999999998,-1.49614,-1.310859,0.073784,0.997215,0.010620000000000001,-0.38614499999999996,-0.468052,0.042607,-0.63932,0.239144,0.282654
628,1.842398,-1.492609,-1.169183,0.075206,0.9969450000000001,0.020944,-0.678836,-0.7632720000000001,0.064442,-0.6319229999999999,0.27919299999999997,0.01937
629,2.047748,-1.48482,-0.940433,0.076252,0.9963059999999999,0.039403,-1.218841,-1.357604,-0.022958000000000003,-0.31802800000000003,0.537187,-0.37080799999999997
630,2.2968900000000003,-1.471926,-0.6546609999999999,0.073786,0.995116,0.065515,-1.54126,-1.9846849999999998,-0.367306,0.026983,0.23510799999999998,-0.346017
631,2.534795,-1.45495,-0.376607,0.06589400000000001,0.993297,0.094926,-1.688145,-1.9659380000000002,-0.665321,-0.06095,0.258152,-0.173295
632,2.7650900000000003,-1.4276719999999998,-0.102088,0.05243300000000001,0.989775,0.13262000000000002,-2.258857,-2.102991,-1.0611700000000002,-0.24008600000000002,0.5319689999999999,-0.114508
633,2.954549,-1.387418,0.131295,0.033905000000000005,0.983233,0.179151,-2.46048,-1.967744,-1.4077870000000001,-0.23332199999999997,0.573087,-0.36929
634,3.098361,-1.346667,0.312656,0.009604999999999999,0.974988,0.22203299999999998,-2.035241,-1.602842,-1.65418,-0.050315,0.410312,-0.352694
635,-3.087262,-1.310656,0.44875299999999996,-0.013966999999999999,0.966354,0.256821,-1.6512779999999998,-1.8237990000000002,-1.6095540000000002,0.092199,0.261856,-0.18595899999999999
636,-3.028181,-1.278326,0.5494060000000001,-0.032626999999999996,0.957535,0.286452,-1.427072,-1.857217,-1.439166,0.059528,0.290497,-0.070754
637,-2.992396,-1.246145,0.626255,-0.047413,0.9477620000000001,0.315424,-1.466365,-1.951239,-1.335703,-0.10268800000000002,0.181007,-0.08587
638,-2.977667,-1.2141170000000001,0.690787,-0.056979999999999996,0.937061,0.344474,-1.330511,-2.562201,-1.313675,-0.213635,0.04063,-0.188987
639,-2.981318,-1.188197,0.749654,-0.059578,0.9276969999999999,0.368539,-0.9674440000000001,-3.101835,-1.2111020000000001,-0.172676,-0.036858999999999996,-0.19114
640,-2.998684,-1.169125,0.80181,-0.05567999999999999,0.920409,0.386963,-0.700225,-3.346132,-1.0892819999999999,-0.114151,-0.150374,-0.166214
641,-3.022407,-1.154756,0.8481860000000001,-0.048053,0.914696,0.401266,-0.5457310000000001,-3.257727,-0.9537200000000001,-0.0032020000000000004,-0.21491300000000002,-0.18128
642,-3.047531,-1.1433200000000001,0.890442,-0.038937,0.910015,0.412734,-0.41834799999999994,-3.152752,-0.942283,0.00048499999999999997,-0.227093,-0.222243
643,-3.064501,-1.135538,0.9396389999999999,-0.032472,0.906761,0.420385,-0.22258699999999998,-2.974829,-1.1174,-0.006392,-0.28331799999999996,-0.237752
644,-3.06948,-1.1322370000000002,0.9961399999999999,-0.030594,0.905364,0.42352399999999996,0.0063560000000000005,-2.717347,-1.23684,0.015015,-0.36293000000000003,-0.347337
645,-3.070664,-1.133577,1.05229,-0.030007,0.905933,0.422349,0.23501,-2.547017,-1.1403889999999999,0.026467,-0.34694200000000003,-0.359239
646,-3.073591,-1.1393719999999998,1.102495,-0.028413,0.9083709999999999,0.417192,0.43149,-2.3353450000000002,-0.965168,0.05996900000000001,-0.234406,-0.286088
647,-3.077968,-1.148562,1.145126,-0.026055000000000002,0.912175,0.408963,0.556845,-2.050959,-0.796946,0.1419,-0.131139,-0.098538
648,-3.079786,-1.15858,1.182292,-0.024746,0.916235,0.399868,0.547451,-1.616899,-0.64588,0.145336,-0.14446099999999998,-0.061916
649,-3.082796,-1.169712,1.209757,-0.022941999999999997,0.920638,0.389735,0.6298729999999999,-1.343204,-0.430942,0.12334400000000001,-0.151778,-0.014506
650,-3.090242,-1.183733,1.227867,-0.019374000000000002,0.9260209999999999,0.37696599999999997,0.734684,-1.1067360000000002,-0.249984,-0.289769,-0.205227,0.12455999999999999
651,-3.097237,-1.195173,1.242143,-0.016266,0.9302790000000001,0.366483,0.45345,-1.014134,-0.253135,-0.311691,-0.131482,0.182666
652,-3.102805,-1.200424,1.261023,-0.014036000000000002,0.932193,0.361681,0.203507,-1.181165,-0.357216,-0.32409899999999997,-0.09241,0.27062800000000004
653,-3.102837,-1.194972,1.28688,-0.014221000000000001,0.930205,0.366755,-0.545946,-1.3043129999999998,-0.6122569999999999,-0.335907,0.47248900000000005,0.334402
654,-3.08682,-1.182173,1.333932,-0.020743,0.9254319999999999,0.378339,-0.50368,-1.346422,-1.040265,-0.42763599999999996,0.47563,0.471789
655,-3.0517119999999998,-1.173497,1.399149,-0.034730000000000004,0.9221090000000001,0.38536,-0.315812,-1.24535,-1.436461,-0.642379,0.019724000000000002,0.46246400000000004
656,-3.003269,-1.165589,1.478983,-0.054354,0.9190200000000001,0.390437,-0.06855599999999999,-1.247614,-1.617397,-0.5353680000000001,-0.6754600000000001,0.233327
657,-2.96215,-1.167368,1.552934,-0.070066,0.9197200000000001,0.386263,0.499722,-1.464025,-1.271319,-0.353518,-0.355817,-0.043077
658,-2.944813,-1.1779899999999999,1.60838,-0.074837,0.9238379999999999,0.37538699999999997,0.900993,-1.8425919999999998,-0.72217,-0.227134,0.676137,-0.478017
659,-2.960611,-1.196489,1.637119,-0.06581000000000001,0.9307610000000001,0.359647,0.9045489999999999,-2.2153240000000003,-0.221739,0.308531,2.182428,-0.277905
660,-2.987437,-1.2005379999999999,1.6560080000000001,-0.055560000000000005,0.932234,0.357556,-0.086662,-1.9989029999999999,-0.470358,0.256351,0.317873,-0.18496400000000002
661,-2.96449,-1.197908,1.7059900000000001,-0.06418099999999999,0.9312790000000001,0.358599,0.13538499999999998,-0.954167,-1.119625,0.005465,-0.728124,-0.822298
662,-2.950186,-1.200977,1.7505970000000002,-0.06876,0.932393,0.35483600000000004,0.417364,-1.6576520000000001,-0.465139,-0.010906,-0.584752,-0.685906
663,-2.971621,-1.2094530000000001,1.7670540000000001,-0.0598,0.935423,0.348426,0.453034,-1.930775,-0.12698099999999998,-0.146514,-0.36421,-0.445457
664,-3.002063,-1.21862,1.776388,-0.047972,0.938624,0.341578,0.554458,-1.884381,-0.095354,-0.003389,0.266637,-0.055628
665,-3.0126459999999997,-1.2329860000000001,1.7985919999999997,-0.042616,0.943483,0.328658,0.8826620000000001,-1.347322,-0.41955699999999996,0.026899,0.424422,-0.010024
666,-2.99843,-1.2520120000000001,1.838536,-0.044714,0.949617,0.310194,1.124053,-1.172959,-0.543077,-0.143137,0.439986,-0.124021
667,-2.972426,-1.2739200000000002,1.890782,-0.04925,0.956255,0.28834699999999996,1.236558,-1.1517,-0.628844,-0.134527,0.052137,-0.10516500000000001
668,-2.949478,-1.297352,1.939454,-0.051559,0.9628459999999999,0.26506799999999997,1.295528,-1.259649,-0.324919,-0.071243,-0.135698,-0.125496
669,-2.956397,-1.322912,1.9606880000000002,-0.045176,0.969434,0.241144,1.30215,-1.462874,0.137936,0.024684,-0.266873,-0.212198
670,-2.9917700000000003,-1.351108,1.954925,-0.032526,0.975965,0.215468,1.42724,-1.415219,0.36628,-0.001257,-0.099531,0.003496
671,-3.0314330000000003,-1.3807129999999999,1.937439,-0.020769,0.9819889999999999,0.187777,1.4475959999999999,-0.956017,0.33165100000000003,-0.050398,-0.060876,-0.11503800000000002
672,-3.055288,-1.409222,1.931409,-0.013865,0.986975,0.160252,1.397585,-0.917638,0.10158400000000001,-0.136022,-0.118094,-0.090001
673,-3.063605,-1.436903,1.9419240000000002,-0.010398000000000001,0.99105,0.13306199999999999,1.39447,-0.973783,0.025791,-0.165719,-0.21749000000000002,-0.11231
674,-3.0754080000000004,-1.464767,1.950425,-0.006997,0.994384,0.10556600000000001,1.385586,-1.0090780000000001,0.068503,-0.148063,-0.24392600000000003,-0.061697
675,-3.109063,-1.492054,1.9343439999999998,-0.0025570000000000002,0.996901,0.078578,1.33797,-0.8398610000000001,0.150207,-0.136405,-0.091445,0.033971
676,3.106084,-1.519069,1.878796,0.0018329999999999998,0.998662,0.051609,1.356291,-0.50247,0.209723,-0.159273,-0.054082000000000005,0.11259100000000001
677,2.814412,-1.544084,1.594466,0.008545,0.9996430000000001,0.02518,1.262273,-0.353721,0.388337,-0.15792899999999999,-0.02186,0.101422
678,1.702492,-1.554099,0.49168100000000003,0.016365,0.9998610000000001,0.002168,1.107137,-0.45330699999999996,0.38524400000000003,-0.16169,-0.09329,-0.001405
679,0.9593450000000001,-1.540874,-0.23969400000000002,0.024413999999999998,0.999552,-0.017116,0.860756,-0.6570520000000001,0.401944,-0.18556199999999998,0.018255,-0.031437
680,0.79602,-1.526543,-0.389244,0.031567000000000005,0.9990209999999999,-0.030902999999999996,0.542899,-0.703627,0.336758,-0.178036,0.186144,0.100498
681,0.737189,-1.517744,-0.43593000000000004,0.035611000000000004,0.9985930000000001,-0.039221,0.324673,-0.539149,0.153426,-0.185895,0.216876,0.12679100000000001
682,0.699555,-1.513217,-0.46409300000000003,0.037023,0.998343,-0.043995,0.162158,-0.46473400000000004,0.066737,-0.350179,0.20507199999999998,0.048145
683,0.67779,-1.512058,-0.474995,0.036781,0.998275,-0.045689999999999995,0.003954999999999999,-0.63846,-0.040967,-0.444572,0.42183000000000004,0.024679
684,0.620318,-1.515633,-0.516131,0.032019,0.9984790000000001,-0.04482,-0.118628,-0.885151,-0.313904,-0.20937199999999997,0.522929,0.082586
685,0.494755,-1.526912,-0.623436,0.020797,0.9990370000000001,-0.038548,-0.500347,-0.9293549999999999,-0.649799,-0.030685000000000004,0.485475,-0.003002
686,0.187075,-1.547456,-0.913193,0.0043170000000000005,0.9997280000000001,-0.022803999999999998,-0.9900110000000001,-0.87574,-0.845568,-0.02661,0.276273,-0.097023
687,-1.893282,-1.556751,-2.975521,-0.013109,0.999901,0.004379999999999999,-1.593143,-0.965195,-0.8624850000000001,-0.028638999999999998,0.15976700000000002,-0.154191
688,-2.550735,-1.517693,2.67322,-0.029536,0.99859,0.04403,-2.129276,-1.289447,-0.828427,-0.064321,-0.11384000000000001,-0.22367199999999998
689,-2.694052,-1.470318,2.559904,-0.043394999999999996,0.994956,0.090401,-2.337011,-1.663829,-0.797351,0.099563,0.266366,-0.12687
690,-2.757234,-1.420038,2.529658,-0.056307,0.988658,0.139209,-2.361629,-1.536602,-0.8906209999999999,0.166979,0.443441,-0.104175
691,-2.763282,-1.3719430000000001,2.545788,-0.07295700000000001,0.980294,0.183561,-2.062812,-0.788929,-1.111682,0.244115,0.505165,-0.09892000000000001
692,-2.739407,-1.326797,2.5809439999999997,-0.094558,0.9703799999999999,0.222295,-1.8909759999999998,-0.437431,-1.249801,0.112365,0.10269500000000001,-0.203191
693,-2.720925,-1.2847540000000002,2.610223,-0.115219,0.959368,0.257546,-1.687299,-0.5887789999999999,-1.1402940000000001,0.032227,0.037168,-0.248986
694,-2.71714,-1.247183,2.6344220000000003,-0.13095199999999999,0.9480930000000001,0.28976599999999997,-1.5003600000000001,-1.2201899999999999,-1.110406,-0.044051,0.023250999999999997,-0.245836
695,-2.72188,-1.212407,2.662214,-0.142932,0.9364629999999999,0.320312,-1.3336700000000001,-1.6670060000000002,-1.138579,-0.10343699999999999,-0.023957,-0.10912999999999999
696,-2.731599,-1.1808319999999999,2.68926,-0.151527,0.9249229999999999,0.348639,-1.195907,-1.771234,-1.033866,0.002052,-0.09402100000000001,-0.119056
697,-2.748895,-1.1536799999999998,2.709605,-0.15503,0.9142610000000001,0.374278,-1.023169,-1.813191,-0.814688,0.056047,-0.142288,-0.166881
698,-2.772369,-1.131972,2.723427,-0.15333,0.9052520000000001,0.396233,-0.8245239999999999,-1.7881259999999999,-0.5954149999999999,0.18011,-0.22658699999999998,-0.214455
699,-2.796243,-1.1152799999999998,2.7351810000000003,-0.148923,0.898034,0.413943,-0.60674,-1.6720490000000001,-0.5085850000000001,0.21789299999999998,-0.247888,-0.26318600000000003
700,-2.814392,-1.103993,2.749895,-0.14463499999999999,0.8930110000000001,0.426149,-0.30618,-1.494162,-0.49923599999999996,0.22038000000000002,-0.280402,-0.312258
701,-2.822464,-1.099475,2.770495,-0.142455,0.890969,0.43113,0.08677699999999999,-1.187639,-0.504362,0.186751,-0.41617600000000005,-0.260308
702,-2.81987,-1.102498,2.793355,-0.14272,0.892338,0.428202,0.408557,-0.7034100000000001,-0.399117,0.14970899999999998,-0.468616,-0.170236
703,-2.8096669999999997,-1.110279,2.8144549999999997,-0.144815,0.8958229999999999,0.420145,0.584903,-0.28263699999999997,-0.283056,0.103723,-0.489954,-0.157526
704,-2.794655,-1.121843,2.834017,-0.147573,0.9009020000000001,0.408154,0.742202,-0.065262,-0.167937,0.06755599999999999,-0.56855,-0.158047
705,-2.779137,-1.137091,2.852221,-0.149,0.907415,0.392923,0.921056,-0.046066,-0.062026,0.0184,-0.6001489999999999,-0.129251
706,-2.764037,-1.154986,2.870418,-0.14890499999999998,0.914789,0.375472,0.9632120000000001,-0.11245699999999999,-0.012508,0.041529,-0.544199,-0.079024
707,-2.7550060000000003,-1.171693,2.885609,-0.146506,0.9214100000000001,0.359904,0.8242790000000001,-0.327462,0.062641,-0.027139,-0.485939,-0.063807
708,-2.7543729999999997,-1.186359,2.89412,-0.14161500000000002,0.92701,0.34726,0.72238,-0.346692,0.164503,-0.099672,-0.35387399999999997,-0.08110099999999999
709,-2.7524919999999997,-1.202769,2.90226,-0.136479,0.933039,0.33287100000000003,0.895682,-0.23547300000000002,0.173048,-0.030193,0.042745,-0.033723
710,-2.7426470000000003,-1.222961,2.9164369999999997,-0.132403,0.9401129999999999,0.31408600000000003,1.088388,-0.125203,0.135797,0.095492,0.387371,0.040712
711,-2.721586,-1.2432,2.940207,-0.13120199999999999,0.9468190000000001,0.293792,1.076755,-0.028627999999999997,-0.028914,0.08151900000000001,0.305913,0.118806
712,-2.68833,-1.260551,2.973952,-0.133683,0.952259,0.274454,0.959522,0.12244400000000001,-0.144226,0.047455000000000004,-0.051410000000000004,0.131231
713,-2.65102,-1.274797,3.007164,-0.13742100000000002,0.9565110000000001,0.257283,0.796194,0.397617,-0.085899,-0.004013,-0.117842,-0.018466999999999997
714,-2.621636,-1.2826799999999998,3.030198,-0.14117000000000002,0.958781,0.246583,0.186479,0.20086099999999998,-0.170023,0.072902,0.21635900000000002,-0.006242
715,-2.613283,-1.277184,3.040785,-0.145878,0.957205,0.249942,-0.346844,-0.130224,-0.294033,0.107197,0.777201,-0.141483
716,-2.628643,-1.264602,3.028594,-0.147922,0.9534879999999999,0.26262800000000003,-0.811018,-0.165707,-0.07610800000000001,0.144321,0.379703,-0.8295530000000001
717,-2.6537490000000004,-1.2603389999999999,3.0163290000000003,-0.14318599999999998,0.9521940000000001,0.26984600000000003,0.22544099999999997,-1.0245360000000001,0.144809,0.034207999999999995,-0.044327,-0.065897
718,-2.6629259999999997,-1.2677209999999999,3.020141,-0.137462,0.9544229999999999,0.26490199999999997,0.22705100000000003,-0.28486500000000003,0.050937,-0.050206,0.342375,0.105353
719,-2.66578,-1.266274,3.019551,-0.13733800000000002,0.95399,0.26652,-0.185225,-0.24044899999999997,-0.042799000000000004,-0.218955,1.7235150000000001,0.303777
720,-2.677778,-1.2597610000000001,3.008975,-0.136907,0.952017,0.2737,-0.296266,0.198876,-0.059079,-0.45046499999999995,1.520441,0.06146
721,-2.632422,-1.257366,3.044978,-0.15028699999999998,0.951282,0.2692,0.338405,0.498508,-0.681008,-0.030362,-0.448428,-0.155446
722,-2.6116479999999997,-1.261261,3.072346,-0.153972,0.952475,0.262822,0.443492,-0.647455,-0.042145,-0.130665,-0.372992,-0.23740100000000003
723,-2.612384,-1.273549,3.0915340000000002,-0.147859,0.9561459999999999,0.252813,0.80367,-1.102981,0.075254,-0.037261,-0.35320999999999997,-0.13614400000000002
724,-2.6072130000000002,-1.287814,3.119886,-0.142202,0.960227,0.240281,0.7747229999999999,-1.005503,-0.034031,0.133413,-0.165885,0.006987999999999999
725,-2.591069,-1.297188,-3.1311400000000003,-0.141347,0.962802,0.23027199999999998,0.54365,-0.592856,-0.196407,0.063329,0.12281500000000001,0.051283
726,-2.569553,-1.3002799999999999,-3.101697,-0.144655,0.963633,0.224673,0.22681500000000002,-0.178154,-0.265382,-0.011824,0.096471,-0.004732
727,-2.551428,-1.299553,-3.083169,-0.149094,0.9634389999999999,0.22259600000000002,0.053712,0.070375,-0.195338,0.136352,-0.28263699999999997,0.048125
728,-2.5448009999999996,-1.299505,-3.076381,-0.150591,0.963426,0.22164099999999998,0.015144999999999999,0.000449,0.008512,0.164355,-0.491258,0.099114
729,-2.555911,-1.299043,-3.0911939999999998,-0.148366,0.963302,0.223671,-0.20764200000000002,0.24860900000000002,0.213873,0.042256,-0.365234,0.083335
730,-2.571417,-1.2967110000000002,-3.113258,-0.146091,0.962673,0.22783499999999998,-0.28610599999999997,0.283267,0.139573,-0.12321099999999999,-0.19178399999999998,0.052637
731,-2.585809,-1.291369,-3.132774,-0.145509,0.9612139999999999,0.234279,-0.419646,0.148824,0.043741,-0.2117,-0.186418,-0.112727
732,-2.5975919999999997,-1.283871,3.137393,-0.146464,0.959119,0.24213800000000002,-0.440209,-0.044468,-0.08541,-0.11942,-0.31387,-0.223293
733,-2.62053,-1.271568,3.11884,-0.14673599999999998,0.955564,0.25564899999999996,-0.8579100000000001,-0.392468,-0.07613099999999999,0.050712,-0.203291,-0.342853
734,-2.668734,-1.24545,3.0795369999999997,-0.145567,0.9475399999999999,0.28455,-1.805339,-0.629944,-0.073899,0.163908,-0.050095,-0.451588
735,-2.737901,-1.2018520000000001,3.025002,-0.141657,0.932709,0.331631,-2.733478,-0.945926,-0.169708,0.301203,0.342819,-0.014218000000000001
736,-2.786916,-1.14076,2.986322,-0.144782,0.90895,0.390945,-3.186173,-0.46339300000000005,-0.5665939999999999,0.255835,0.556855,0.159851
737,-2.795191,-1.083264,2.973363,-0.15904200000000002,0.883492,0.44061300000000003,-2.4503369999999998,0.689609,-0.764825,0.033324,0.391731,0.314209
738,-2.7712849999999998,-1.0427549999999999,2.9712330000000002,-0.182339,0.8637959999999999,0.469682,-1.673518,1.426323,-0.525334,-0.358219,0.39120900000000003,0.251967
739,-2.757162,-1.007388,2.96588,-0.20029,0.8454389999999999,0.495083,-1.746225,0.539763,-0.665712,-0.306286,0.8661690000000001,0.195606
740,-2.748207,-0.9763149999999999,2.969011,-0.214685,0.8284389999999999,0.517291,-1.082473,0.253458,-0.5058159999999999,0.089304,0.45682399999999995,0.228528
741,-2.739481,-0.9690979999999999,2.973005,-0.221525,0.824376,0.520886,0.224331,0.347582,-0.13575,0.239668,-0.16586700000000001,-0.098462
742,-2.717167,-0.9863870000000001,2.988619,-0.227188,0.834038,0.502749,1.332878,0.498683,0.010669,0.224029,-0.33168800000000004,-0.170596
743,-2.694602,-1.017098,3.0069779999999997,-0.227291,0.8505860000000001,0.474166,1.661026,0.23104499999999997,0.32202,0.096721,-0.383117,0.019318000000000002
744,-2.6826939999999997,-1.050171,3.018682,-0.220335,0.867508,0.44595200000000007,1.583721,0.076079,0.513959,0.091322,-0.383835,0.124025
745,-2.6697,-1.081876,3.025996,-0.213497,0.88284,0.41833400000000004,1.4232879999999999,0.49940200000000007,0.550752,0.10003200000000001,-0.45492299999999997,0.128297
746,-2.6495040000000003,-1.109979,3.033404,-0.21009299999999997,0.895689,0.39191,1.307069,0.6674,0.464267,-0.049245,-0.697142,-0.10611300000000001
747,-2.631349,-1.137975,3.046626,-0.204843,0.9077860000000001,0.366001,1.40267,0.049408,0.41445200000000004,-0.061545,-0.72378,-0.07309299999999999
748,-2.619629,-1.1680629999999999,3.0650169999999997,-0.195407,0.9199930000000001,0.339737,1.539531,-0.354825,0.41913,-0.033169,-0.721125,0.017868000000000002
749,-2.602286,-1.199001,3.087797,-0.186558,0.9316770000000001,0.311716,1.5656889999999999,0.02743,0.44125600000000004,-0.10616600000000001,-0.409628,0.155614
750,-2.576524,-1.2321790000000001,3.108422,-0.17787,0.9432149999999999,0.280537,1.522499,0.312422,0.6040270000000001,-0.025041,0.31472,0.04919
751,-2.5601700000000003,-1.2563030000000002,3.128174,-0.16988499999999998,0.950953,0.258497,0.9081379999999999,-0.30056900000000003,0.186051,-0.004294,0.395208,-0.085158
752,-2.534625,-1.265217,-3.1206139999999998,-0.17159100000000002,0.953673,0.247102,0.599857,-0.358027,-0.36189,0.222845,0.097398,-0.08770800000000001
753,-2.504938,-1.264416,-3.082631,-0.179304,0.953432,0.242513,0.139984,-0.24305100000000002,-0.47741300000000003,0.483076,0.231917,-0.043554
754,-2.513802,-1.25786,-3.086073,-0.180815,0.951434,0.24914699999999998,-0.653835,-0.347177,0.142085,0.516523,0.628171,0.079985
755,-2.58168,-1.247376,3.124407,-0.16878800000000002,0.948154,0.26927399999999996,-0.841017,0.028752,0.8645510000000001,-0.066853,0.042187,-0.821413
756,-2.6134630000000003,-1.25525,3.096463,-0.156379,0.950627,0.268045,0.477998,0.010464,0.299084,-0.252877,0.137081,-0.032083
757,-2.5929450000000003,-1.255188,3.1082970000000003,-0.161876,0.950608,0.26483,-0.286507,0.45552700000000007,-0.313576,-0.227604,0.27822800000000003,0.189333
758,-2.604518,-1.235299,3.0929130000000002,-0.168442,0.944247,0.282877,-1.243892,0.209281,-0.2409,-0.484283,1.410444,0.168036
759,-2.572948,-1.219774,3.1108740000000004,-0.185159,0.9390219999999999,0.289738,-0.08023,0.8716780000000001,-0.931169,-0.18537,-0.17336600000000002,0.255153
760,-2.534253,-1.214608,3.1409700000000003,-0.198995,0.937233,0.286337,0.177866,0.11485799999999999,-0.238325,-0.09186799999999999,-0.202125,-0.074179
761,-2.533441,-1.224358,-3.132802,-0.193996,0.9405879999999999,0.27866199999999997,0.647217,-0.587621,0.268986,-0.170948,0.13059400000000002,0.052545
762,-2.534679,-1.238602,-3.1212560000000003,-0.18599100000000002,0.9453290000000001,0.26787,0.688113,-0.558801,0.21902800000000003,-0.11239400000000001,0.293486,-0.023882
763,-2.527403,-1.251044,-3.102698,-0.181143,0.949313,0.25687600000000005,0.678403,-0.515471,0.047989,-0.14443399999999998,0.070905,-0.028117000000000003
764,-2.510377,-1.261257,-3.0734939999999997,-0.179758,0.9524739999999999,0.24591500000000002,0.686585,-0.546692,-0.143125,-0.046468,-0.286779,0.103878
765,-2.484801,-1.268618,-3.036478,-0.181702,0.954691,0.23567800000000003,0.544628,-0.42116499999999996,-0.242554,0.09336900000000001,-0.38324899999999995,0.12387999999999999
766,-2.469173,-1.272247,-3.013583,-0.183203,0.955764,0.23009699999999997,0.266234,-0.240831,-0.077019,0.301001,-0.411071,0.11290499999999999
767,-2.467345,-1.276354,-3.0099270000000002,-0.181172,0.9569639999999999,0.226694,0.151142,0.03767,0.172852,0.252339,-0.33407,0.174155
768,-2.468156,-1.280915,-3.016455,-0.178264,0.9582780000000001,0.223427,0.11296300000000001,0.355137,0.20208900000000002,0.054622000000000004,-0.17818699999999998,0.017967
769,-2.46548,-1.284454,-3.021518,-0.176738,0.959283,0.220302,0.010798,0.36845300000000003,0.15756099999999998,-0.218511,-0.17215899999999998,-0.011087999999999999
770,-2.482552,-1.282972,-3.043198,-0.173822,0.9588639999999999,0.224411,-0.384705,0.025497,0.218263,-0.187003,-0.10908699999999999,-0.104675
771,-2.521937,-1.2767110000000002,-3.079503,-0.16833499999999998,0.957068,0.235965,-0.684074,-0.34210300000000005,0.22946799999999998,-0.134796,-0.078192,-0.124118
772,-2.5801279999999998,-1.262875,-3.1292709999999997,-0.161363,0.952965,0.256542,-1.176188,-0.627004,0.24135,0.083314,0.00164,-0.168499
773,-2.6578310000000003,-1.238453,3.087891,-0.15174300000000002,0.9452799999999999,0.28881399999999996,-1.882443,-0.764473,0.332733,0.134394,-0.08943,-0.409007
774,-2.746093,-1.20155,3.013777,-0.139045,0.9326,0.333044,-2.37347,-1.051482,0.338217,0.206627,-0.04463,-0.47903999999999997
775,-2.8134959999999998,-1.146582,2.95607,-0.132634,0.9113620000000001,0.38964099999999996,-3.217837,-0.405474,-0.107548,0.37985599999999997,0.401611,-0.019494
776,-2.840577,-1.086891,2.92595,-0.13793699999999998,0.885185,0.44431400000000004,-2.7833900000000003,0.312141,-0.38851199999999997,0.263135,0.315209,0.25077
777,-2.824491,-1.043342,2.916758,-0.156945,0.8640909999999999,0.478234,-1.789927,1.7097919999999998,-0.452798,-0.171119,0.132262,0.38121700000000003
778,-2.781324,-1.010263,2.91872,-0.187414,0.8469709999999999,0.497503,-1.546374,2.123741,-0.819095,-0.058802,1.1391280000000001,0.546107
779,-2.734761,-0.9807049999999999,2.932629,-0.220181,0.83089,0.5110140000000001,-0.89405,1.367944,-0.722771,-0.194645,0.5560729999999999,0.20565999999999998
780,-2.7184619999999997,-0.9739469999999999,2.940664,-0.230781,0.82711,0.512466,0.189249,0.136775,-0.136787,-0.15299300000000002,-0.435616,-0.13305699999999998
781,-2.712066,-0.989298,2.9531080000000003,-0.22873800000000002,0.835641,0.49937600000000004,1.173047,-0.359567,0.056590999999999995,-0.079092,-0.601083,-0.334978
782,-2.710917,-1.016529,2.970022,-0.219728,0.8502860000000001,0.478253,1.492402,-0.84385,0.20792600000000003,-0.017622,-0.48703500000000005,-0.11585699999999999
783,-2.721003,-1.043575,2.982895,-0.205427,0.864208,0.45928,1.25401,-1.1181379999999999,0.276046,0.14253,-0.353207,0.06782
784,-2.732793,-1.065074,2.991002,-0.19256600000000001,0.874825,0.44451599999999997,0.9666790000000001,-0.76859,0.224453,0.134049,-0.356392,0.149814
785,-2.733518,-1.082799,2.998079,-0.18606099999999998,0.883274,0.430353,0.8556739999999999,-0.112875,0.177972,0.101939,-0.38864499999999996,0.055273
786,-2.7247939999999997,-1.1002,3.008414,-0.183557,0.8912979999999999,0.414595,0.930948,-0.058496000000000006,0.100448,0.094583,-0.45697200000000004,-0.11744600000000001
787,-2.716936,-1.1215629999999999,3.0238560000000003,-0.178922,0.9007799999999999,0.39569699999999997,1.269197,-0.45092299999999996,0.17488499999999998,0.16253399999999998,-0.592064,-0.18244000000000002
788,-2.710725,-1.15329,3.039726,-0.169351,0.9141030000000001,0.368417,1.7543080000000002,-0.22584200000000001,0.47601899999999997,0.13686500000000001,-0.589503,-0.029351
789,-2.694893,-1.1935200000000001,3.048579,-0.159138,0.9296719999999999,0.33223600000000003,1.9194529999999999,0.759792,0.801717,0.07370399999999999,-0.34429899999999997,0.125085
790,-2.6747360000000002,-1.228935,3.052977,-0.150883,0.942132,0.29936,1.3427879999999999,0.627514,0.548963,0.008854,0.34918899999999997,0.08214099999999999
791,-2.6502060000000003,-1.2453809999999998,3.070693,-0.150847,0.9475180000000001,0.281868,0.650986,0.333269,-0.12526800000000002,-0.012879,0.030784,-0.112007
