,attitude.roll,attitude.pitch,attitude.yaw,gravity.x,gravity.y,gravity.z,rotationRate.x,rotationRate.y,rotationRate.z,userAcceleration.x,userAcceleration.y,userAcceleration.z
0,0.048486,-1.349184,-0.625792,0.010653,0.9755440000000001,-0.219545,0.259413,-0.088585,-0.133746,-0.34634699999999996,0.19788699999999998,0.038652
1,0.055612,-1.345124,-0.630865,0.012437,0.9746440000000001,-0.22341599999999998,0.053742,1.092803,0.044900999999999996,-0.477419,-0.05664500000000001,-0.079288
2,0.11826800000000001,-1.353998,-0.604527,0.025381,0.976591,-0.213601,-0.725351,2.312869,0.372249,-0.528112,-0.023665000000000002,-0.13130899999999998
3,0.21506399999999998,-1.366858,-0.562879,0.043220999999999996,0.9792770000000001,-0.19786199999999998,-0.637462,2.773183,0.267588,-0.46087,0.654726,0.06350900000000001
4,0.30942800000000004,-1.368314,-0.513946,0.061238,0.97957,-0.191551,0.136187,2.207677,0.623025,-0.351903,0.48306099999999996,0.332588
5,0.39079899999999995,-1.358278,-0.475296,0.080346,0.977503,-0.19502,0.358617,2.176597,0.477204,0.39516399999999996,-0.20136500000000002,0.25959499999999996
6,0.45801499999999995,-1.355426,-0.447245,0.09449500000000001,0.9768969999999999,-0.191682,-0.305309,1.5866850000000001,0.19131199999999998,0.786455,-0.075317,0.25845500000000005
7,0.488674,-1.365821,-0.41869700000000004,0.095554,0.979066,-0.17972,-0.6762130000000001,-0.7332489999999999,-0.078566,0.609356,0.411361,-0.131636
8,0.47917200000000004,-1.375078,-0.400549,0.08966,0.980908,-0.17257,-0.180421,-1.274902,0.408359,0.9885870000000001,2.273181,-0.159416
9,0.59085,-1.353346,-0.26997,0.120182,0.9764510000000001,-0.17916600000000002,0.22701100000000002,-0.7041069999999999,1.965805,0.428112,0.605962,0.08569
10,0.660369,-1.335588,-0.184724,0.142952,0.9724659999999999,-0.184052,0.25873,-0.746397,0.794241,-0.08013200000000001,-0.244148,-0.16246
11,0.624208,-1.327102,-0.200716,0.141023,0.970453,-0.19578800000000002,0.487225,-1.228942,-0.207673,-0.10746800000000001,-0.19767200000000001,0.162341
12,0.5527489999999999,-1.324778,-0.245444,0.127868,0.9698899999999999,-0.20727600000000002,0.308165,-1.391557,-0.41167700000000007,0.004121,0.003087,0.14840799999999998
13,0.511433,-1.328082,-0.268321,0.117628,0.9706889999999999,-0.20958600000000002,-0.20555500000000002,-0.652129,-0.26452600000000004,-0.020368999999999998,0.006377000000000001,0.140509
14,0.508992,-1.338236,-0.266813,0.11230699999999999,0.97308,-0.201254,-0.57055,0.07231,-0.227411,-0.142947,-0.164669,0.189276
15,0.526468,-1.351855,-0.25655300000000003,0.10913800000000001,0.9761280000000001,-0.18778499999999998,-0.6497229999999999,0.48595900000000003,-0.23917600000000003,-0.147727,-0.28701,0.156703
16,0.543121,-1.364927,-0.249746,0.105645,0.978884,-0.175002,-0.570627,0.453985,-0.303744,-0.14341099999999998,-0.34877199999999997,0.08694299999999999
17,0.541842,-1.3769049999999998,-0.256718,0.099367,0.9812620000000001,-0.165079,-0.394285,0.190625,-0.39724699999999996,-0.05926699999999999,-0.47097700000000003,-0.067388
18,0.522421,-1.383766,-0.28226799999999996,0.09278099999999999,0.982561,-0.16114,-0.042463,0.40975900000000004,-0.357682,0.099968,-0.427171,-0.093453
19,0.502985,-1.384033,-0.314729,0.089505,0.98261,-0.162682,0.249471,0.707489,-0.207542,0.224124,-0.346609,-0.105125
20,0.492242,-1.3785290000000001,-0.338509,0.090307,0.981574,-0.168398,0.370142,0.492004,0.028586,0.25766999999999995,-0.30801999999999996,-0.09968300000000001
21,0.488259,-1.370498,-0.343983,0.093331,0.980007,-0.175713,0.39715500000000004,-0.224588,0.186722,0.32238,-0.124142,-0.013831999999999999
22,0.474129,-1.359168,-0.342829,0.095902,0.97769,-0.186881,0.576384,-1.051303,0.312947,0.379272,-0.021849,0.038183999999999996
23,0.44651199999999996,-1.34405,-0.340107,0.097077,0.974403,-0.202768,0.717863,-1.770139,0.400314,0.384185,0.006173,0.10836199999999999
24,0.405837,-1.3254540000000001,-0.338627,0.095889,0.9700540000000001,-0.22315900000000002,0.8981819999999999,-2.2723880000000003,0.37017,0.34879699999999997,-0.08119900000000001,0.186447
25,0.344561,-1.303624,-0.353031,0.08917699999999999,0.964521,-0.24848800000000001,1.225117,-2.3972439999999997,0.141878,0.32212399999999997,-0.172224,0.222075
26,0.268341,-1.273528,-0.38409,0.07766,0.95614,-0.282427,1.80466,-2.256993,-0.0027370000000000003,0.259331,-0.177698,0.28122199999999997
27,0.194276,-1.228069,-0.415945,0.06487799999999999,0.941841,-0.32973600000000003,2.661705,-2.11007,0.074633,-0.113553,0.24362899999999998,0.075311
28,0.14113399999999998,-1.165198,-0.43450500000000003,0.055501999999999996,0.918866,-0.390646,3.385467,-1.581823,0.278769,-0.350073,0.982043,-0.091532
29,0.11771199999999998,-1.0987149999999999,-0.434683,0.053404999999999994,0.890624,-0.45159399999999994,3.152914,-0.9042870000000001,0.47496499999999997,-0.41486999999999996,1.181733,0.027949
30,0.117453,-1.041431,-0.42535200000000006,0.059176,0.8631280000000001,-0.501506,2.571183,-0.11875899999999999,0.607696,-0.674029,0.5417029999999999,0.043987
31,0.142824,-0.9984700000000001,-0.406303,0.077089,0.8406440000000001,-0.5360739999999999,1.786195,0.8801379999999999,0.8380780000000001,-0.45231800000000005,0.5244840000000001,-0.026944
32,0.185557,-0.9699270000000001,-0.385544,0.104305,0.824845,-0.555654,1.0491270000000001,1.364311,0.8098770000000001,-0.341671,0.463394,-0.042872
33,0.226962,-0.951441,-0.3634,0.130625,0.814253,-0.565623,0.650734,1.019521,0.79899,-0.01034,0.519579,-0.09741699999999999
34,0.257934,-0.9389620000000001,-0.34339899999999995,0.150659,0.806946,-0.571087,0.313268,0.5632159999999999,0.650871,0.199988,0.289215,-0.06300700000000001
35,0.27784699999999996,-0.937966,-0.327129,0.162221,0.806357,-0.568747,-0.345398,0.224568,0.39567199999999997,0.149501,0.037226,0.014426
36,0.296732,-0.951124,-0.30706700000000003,0.16981500000000002,0.8140689999999999,-0.555387,-1.046806,0.10351500000000001,0.373836,-0.032669,-0.08154,0.104749
37,0.319318,-0.976,-0.282941,0.175902,0.828262,-0.532015,-1.5716809999999999,0.180591,0.20235999999999998,-0.073469,-0.168717,0.12542899999999998
38,0.341645,-1.008327,-0.26304099999999997,0.178668,0.8459409999999999,-0.502456,-1.746475,0.334983,-0.160117,-0.203326,-0.33928800000000003,0.145111
39,0.356136,-1.0460530000000001,-0.255388,0.174673,0.865452,-0.46955399999999997,-1.9038580000000003,0.440812,-0.647393,-0.212362,-0.433079,0.09016
40,0.35786599999999996,-1.089465,-0.26423800000000003,0.162164,0.8863790000000001,-0.43363,-1.965573,0.473846,-1.128567,-0.181436,-0.526058,0.065527
41,0.34134899999999996,-1.133708,-0.29199899999999995,0.141705,0.9059879999999999,-0.398881,-1.7757319999999999,0.386018,-1.440117,-0.072674,-0.556287,0.106919
42,0.305228,-1.173096,-0.338467,0.116388,0.921954,-0.369398,-1.439718,0.26915100000000003,-1.543374,-0.003595,-0.543673,0.126356
43,0.25062399999999996,-1.206699,-0.400255,0.08831699999999999,0.9344459999999999,-0.34498,-1.244164,0.065149,-1.579135,-0.030639,-0.47183,0.07708200000000001
44,0.17945899999999998,-1.236545,-0.474862,0.058558000000000006,0.9446559999999999,-0.322794,-1.1406459999999998,-0.122873,-1.535442,-0.07322200000000001,-0.32492,0.029001
45,0.098544,-1.260023,-0.554121,0.030085,0.952097,-0.304311,-0.865458,-0.391045,-1.310986,-0.10908,-0.1439,0.020863999999999997
46,0.022977,-1.273375,-0.623683,0.006732999999999999,0.956095,-0.292978,-0.437411,-0.44198000000000004,-0.9329850000000001,-0.14723599999999998,-0.035121,0.09618600000000001
47,-0.024987,-1.277807,-0.671608,-0.007215999999999999,0.957385,-0.288725,-0.142753,0.229739,-0.5386810000000001,-0.197404,-0.021578999999999997,0.087385
48,-0.020589,-1.2822639999999998,-0.688234,-0.0058579999999999995,0.9586620000000001,-0.284486,-0.350401,1.5058120000000002,-0.061066999999999996,-0.200898,0.003145,-0.034011
49,0.037505000000000004,-1.296541,-0.676449,0.010154999999999999,0.962627,-0.27064,-0.954132,2.799891,0.25352399999999997,-0.2678,0.013874000000000001,-0.09207699999999999
50,0.141209,-1.321413,-0.636375,0.034736,0.969065,-0.24435,-1.449784,3.382274,0.497143,-0.324363,0.066259,-0.079457
51,0.274094,-1.347502,-0.565371,0.059939,0.975173,-0.213177,-1.347331,2.949275,0.532597,-0.301181,0.180848,-0.11473399999999999
52,0.387208,-1.3651360000000001,-0.493392,0.077112,0.9789260000000001,-0.189095,-0.8965799999999999,1.7338740000000001,0.38882,0.13526,0.459367,0.30108
53,0.47261899999999996,-1.369913,-0.446798,0.09083200000000001,0.979891,-0.177662,-0.073675,2.165047,0.274375,0.450351,-0.08923500000000001,0.39865500000000004
54,0.510147,-1.364211,-0.43789399999999995,0.100161,0.9787370000000001,-0.179002,0.020861,0.5024069999999999,0.128683,0.558088,-0.283104,0.288484
55,0.5143909999999999,-1.373401,-0.419914,0.09648999999999999,0.9805809999999999,-0.170737,-0.629219,-0.994296,-0.108949,0.355536,0.167491,0.108802
56,0.526678,-1.3874309999999999,-0.385777,0.091656,0.9832360000000001,-0.157629,-0.887639,-0.952227,-0.015736,0.54578,0.50793,-0.132852
57,0.590017,-1.398662,-0.316711,0.095299,0.9852209999999999,-0.142327,-0.608913,0.252017,0.42050200000000004,0.22365500000000002,1.230111,-0.357765
58,0.66189,-1.400232,-0.252256,0.104323,0.985489,-0.13389600000000002,-0.230187,0.276149,0.45088999999999996,-0.14561300000000002,1.209503,-0.16125499999999998
59,0.698329,-1.393541,-0.218834,0.11336800000000001,0.984331,-0.135053,0.172295,0.190078,0.310619,-0.218852,0.235075,0.056027999999999994
60,0.7010430000000001,-1.390064,-0.21659699999999998,0.115941,0.983712,-0.13735899999999998,0.08969099999999999,-0.161232,0.058391,0.060649,-0.066873,0.156906
61,0.682824,-1.388298,-0.225748,0.114516,0.9833930000000001,-0.140797,0.12243599999999999,-0.5891149999999999,-0.059404,0.074037,-0.164729,0.134006
62,0.655474,-1.390066,-0.23896599999999998,0.10956300000000001,0.983713,-0.142497,-0.08478,-0.774284,-0.193074,0.042460000000000005,-0.242944,0.135432
63,0.6307159999999999,-1.396141,-0.250662,0.102476,0.984786,-0.140337,-0.217685,-0.537982,-0.296854,-0.068723,-0.28224099999999996,0.15196400000000002
64,0.6105189999999999,-1.402468,-0.265874,0.096046,0.985866,-0.13727,-0.133648,-0.09308999999999999,-0.2712,-0.058876,-0.28207,0.111223
65,0.591328,-1.405339,-0.28769,0.091816,0.9863430000000001,-0.136737,0.049864,0.199007,-0.216881,-0.012654,-0.301224,-0.017514
66,0.556085,-1.404539,-0.327546,0.087358,0.9862110000000001,-0.140558,0.330665,0.173815,-0.287527,0.075514,-0.349385,-0.057913
67,0.49231400000000003,-1.397599,-0.39405,0.081456,0.9850389999999999,-0.151867,0.722608,0.008461,-0.301669,0.142253,-0.357552,-0.013325
68,0.428533,-1.385765,-0.454061,0.076449,0.98293,-0.16734100000000002,0.746941,-0.364002,-0.152539,0.237866,-0.36122600000000005,-0.004412
69,0.389244,-1.372527,-0.48530500000000004,0.074749,0.980409,-0.182238,0.715438,-0.490544,0.084549,0.280445,-0.279954,-0.052213
70,0.36892800000000003,-1.358104,-0.489208,0.076123,0.977466,-0.196889,0.671446,-1.040948,0.30286399999999997,0.288119,-0.209598,-0.0209
71,0.351315,-1.341955,-0.479225,0.078066,0.97393,-0.212993,0.763487,-1.564819,0.42809200000000003,0.30999499999999997,-0.05622100000000001,0.037212
72,0.32515700000000003,-1.3226870000000002,-0.468866,0.07845,0.9693780000000001,-0.232704,0.9348040000000001,-1.912657,0.41905200000000004,0.326015,-0.053287,0.076378
73,0.28771199999999997,-1.3028629999999999,-0.46627799999999997,0.07512200000000001,0.9643200000000001,-0.253857,0.924366,-2.019576,0.25995100000000004,0.34568499999999996,-0.131129,0.101025
74,0.23523000000000002,-1.281984,-0.47849200000000003,0.066381,0.958583,-0.27697,1.171885,-2.0205439999999997,0.021332,0.33784000000000003,-0.14396199999999998,0.12185
75,0.176457,-1.253923,-0.500563,0.054699,0.9502139999999999,-0.306758,1.6425169999999998,-1.823759,-0.047204,0.058583,0.057735,0.137996
76,0.124356,-1.212132,-0.516534,0.043539,0.9363670000000001,-0.348313,2.40225,-1.8474119999999998,0.147208,-0.100928,0.299031,0.061875
77,0.096444,-1.1552639999999998,-0.51012,0.038872000000000004,0.914902,-0.401801,2.965791,-1.583809,0.603733,-0.41945699999999997,1.040222,-0.120706
78,0.08975599999999999,-1.09869,-0.48724300000000004,0.040763,0.8906129999999999,-0.45293199999999995,2.591022,-1.221074,0.79293,-0.615546,0.7611060000000001,0.071585
79,0.096854,-1.052028,-0.45893900000000004,0.047945999999999996,0.868431,-0.493487,2.05649,-0.6380239999999999,0.903817,-0.5479310000000001,0.395379,0.023715
80,0.11398900000000001,-1.015534,-0.435892,0.059961,0.8497620000000001,-0.523745,1.5863909999999999,0.17944000000000002,0.679433,-0.427774,0.33934000000000003,0.009768
81,0.13861300000000001,-0.991432,-0.421861,0.075647,0.8368110000000001,-0.542241,0.860823,0.883834,0.448067,-0.135888,0.329419,-0.117579
82,0.168214,-0.9806860000000001,-0.41186999999999996,0.093162,0.830879,-0.548599,0.308708,1.102563,0.307198,-0.062309,0.460304,-0.064332
83,0.198981,-0.9770270000000001,-0.39814,0.110595,0.828838,-0.54845,-0.007814,0.888804,0.49113100000000004,-0.085082,0.24231399999999997,0.033466
84,0.23450300000000002,-0.9801549999999999,-0.376277,0.1294,0.830584,-0.541652,-0.476579,0.8858299999999999,0.575455,-0.065893,-0.008928,0.196437
85,0.27289,-0.9930479999999999,-0.351666,0.14719300000000002,0.837694,-0.52593,-0.966765,0.861527,0.418238,-0.12375499999999999,-0.20572100000000001,0.312322
86,0.306294,-1.014791,-0.329049,0.159145,0.8493700000000001,-0.503233,-1.3572799999999998,0.61564,0.176544,-0.139553,-0.363744,0.298994
87,0.331539,-1.043834,-0.310556,0.163696,0.864339,-0.475523,-1.60658,0.392948,-0.127219,-0.129395,-0.495687,0.22894099999999998
88,0.34346,-1.078784,-0.302921,0.159079,0.8813840000000001,-0.44481000000000004,-1.767698,0.17163299999999998,-0.58526,-0.085852,-0.62055,0.13025
89,0.333802,-1.1190879999999999,-0.31394299999999997,0.143015,0.899703,-0.41241000000000005,-1.832813,-0.08292200000000001,-1.072497,-0.050424000000000004,-0.665251,0.05749
90,0.303193,-1.160895,-0.342959,0.118985,0.9171600000000001,-0.380341,-1.747239,-0.26445100000000005,-1.304539,-0.014203,-0.669022,0.098374
91,0.255291,-1.19994,-0.389782,0.091519,0.932017,-0.350668,-1.572262,-0.166488,-1.445516,-0.050457999999999996,-0.623546,0.096777
92,0.192728,-1.237018,-0.456787,0.062751,0.9448110000000001,-0.32155,-1.551189,0.114151,-1.581393,-0.100165,-0.442705,-0.0195
93,0.1186,-1.272225,-0.5372979999999999,0.034805,0.955758,-0.292089,-1.50842,0.06857100000000001,-1.409052,-0.141205,-0.08828,-0.16059400000000001
94,0.045855,-1.297412,-0.609769,0.012376,0.9628629999999999,-0.269708,-0.88161,-0.289179,-0.9331290000000001,-0.22111599999999998,0.400312,-0.082465
95,-0.0061070000000000004,-1.303413,-0.656417,-0.001614,0.9644659999999999,-0.264203,0.03914,-0.31547800000000004,-0.48335200000000006,-0.181477,0.368435,-1.8e-05
96,-0.025488999999999998,-1.299066,-0.6785909999999999,-0.006841,0.9633079999999999,-0.268311,0.20014500000000002,0.42742399999999997,-0.191555,-0.16131099999999998,0.203761,-0.005431
97,0.000609,-1.3007090000000001,-0.6734720000000001,0.000162,0.9637479999999999,-0.266816,-0.303098,1.42659,0.25978,-0.258006,-0.12251500000000001,-0.241378
98,0.07774099999999999,-1.314549,-0.631781,0.019684,0.967348,-0.252687,-0.9194979999999999,2.104714,0.641302,-0.313675,0.24874699999999997,-0.033294
99,0.178965,-1.333759,-0.5703199999999999,0.041801,0.972038,-0.231073,-0.9833350000000001,1.831464,0.5653630000000001,-0.308769,0.544823,0.15201800000000001
100,0.26750300000000005,-1.340748,-0.516634,0.060272000000000006,0.9736549999999999,-0.219914,-0.148866,1.822344,0.524201,0.296097,0.027152999999999997,0.43133999999999995
101,0.329309,-1.335682,-0.47738100000000006,0.075335,0.9724879999999999,-0.220437,0.024099000000000002,0.584213,0.44474300000000005,0.43099799999999994,-0.300323,0.332482
102,0.349271,-1.3417629999999998,-0.453284,0.077695,0.973886,-0.21332800000000002,-0.477729,-0.374382,0.042950999999999996,0.375324,0.045157,0.081675
103,0.342792,-1.350276,-0.447391,0.073522,0.975784,-0.206011,-0.405294,-0.792662,-0.113035,0.577098,0.673859,-0.048124
104,0.34124899999999997,-1.3553620000000002,-0.432875,0.071542,0.976884,-0.201445,-0.182088,-0.633975,0.235492,0.29686599999999996,0.907272,-0.275636
105,0.368588,-1.355703,-0.395524,0.076902,0.9769559999999999,-0.199103,-0.170093,-0.385511,0.42753800000000003,-0.152265,0.849124,0.020437999999999998
106,0.40941,-1.352031,-0.34985900000000003,0.086391,0.976166,-0.19908900000000002,0.050898,-0.070078,0.47461099999999995,-0.096355,0.166214,0.07363099999999999
107,0.432033,-1.350342,-0.327574,0.091562,0.9757979999999999,-0.19858,-0.074016,0.059501,0.146696,0.000998,0.026124,0.093218
108,0.434831,-1.350323,-0.321486,0.092125,0.975794,-0.19834000000000002,0.009182,-0.31416900000000003,0.014228999999999999,0.07382899999999999,-0.040674,0.22338000000000002
109,0.417937,-1.3507149999999999,-0.32864,0.08860599999999999,0.97588,-0.199519,0.000197,-0.5564479999999999,-0.128665,0.050798,-0.190937,0.208033
110,0.3954,-1.353586,-0.341406,0.083008,0.9765020000000001,-0.198878,-0.145011,-0.435222,-0.218538,-0.007447,-0.27414,0.162746
111,0.37537800000000004,-1.359989,-0.35751700000000003,0.07671599999999999,0.9778620000000001,-0.194679,-0.252827,-0.061646000000000006,-0.30736399999999997,-0.020548,-0.220752,0.029869
112,0.359065,-1.3659059999999998,-0.37828,0.071496,0.979083,-0.190484,-0.163575,0.345985,-0.292308,0.005592,-0.228275,-0.040412000000000003
113,0.349082,-1.369672,-0.399348,0.068329,0.979842,-0.187723,-0.062145000000000006,0.63949,-0.25245100000000004,0.047424,-0.295547,-0.133261
114,0.342641,-1.371108,-0.42108900000000005,0.06664500000000001,0.9801290000000001,-0.186833,0.04281,0.772108,-0.208091,0.22488899999999998,-0.318126,-0.067821
115,0.33424699999999996,-1.3704180000000001,-0.442903,0.06529700000000001,0.979991,-0.188025,0.142887,0.5064310000000001,-0.188892,0.263362,-0.28991300000000003,-0.060449
116,0.316961,-1.368147,-0.46378500000000006,0.06273,0.9795370000000001,-0.19124000000000002,0.17963800000000002,-0.04891,-0.137717,0.329314,-0.218856,-0.082457
117,0.296302,-1.364635,-0.477071,0.059771000000000005,0.978824,-0.19578399999999999,0.24384,-0.609908,-0.027591,0.42652700000000004,-0.039661,-0.0038929999999999998
118,0.272874,-1.3579709999999998,-0.48051099999999997,0.056924,0.9774379999999999,-0.203407,0.3974,-1.200097,0.11203900000000001,0.439749,-0.007361,0.000877
119,0.246525,-1.346215,-0.47863199999999995,0.054346000000000005,0.9748870000000001,-0.21596500000000002,0.658151,-1.510214,0.182624,0.469686,-0.12511,0.011742
120,0.204748,-1.329084,-0.486654,0.048668,0.97093,-0.234366,0.9859100000000001,-1.855868,0.025123,0.42328599999999994,-0.189191,0.076758
121,0.138728,-1.304254,-0.511504,0.036424,0.9646870000000001,-0.260867,1.485507,-2.213731,-0.158936,0.323211,-0.17443499999999998,0.21974499999999997
122,0.06372699999999999,-1.264506,-0.540502,0.019202,0.9534590000000001,-0.300912,2.387286,-2.45737,-0.21855500000000003,0.046609,-0.003614,0.203942
123,-0.00243,-1.204623,-0.55347,-0.0008699999999999999,0.9337040000000001,-0.35804400000000003,3.3473669999999998,-2.772527,-0.026642000000000002,-0.29277,0.551037,-0.037571
124,-0.036676,-1.131592,-0.538249,-0.015591999999999998,0.90509,-0.42493400000000003,3.670695,-2.14453,0.35403,-0.43597700000000006,0.9917600000000001,0.007575
125,-0.054236,-1.068238,-0.514985,-0.026111000000000002,0.876353,-0.48096000000000005,2.860112,-1.8105650000000002,0.390669,-0.510297,0.587819,0.233677
126,-0.054715,-1.022569,-0.485184,-0.028502,0.85345,-0.5203949999999999,1.965014,-0.9142899999999999,0.8052159999999999,-0.533601,0.265309,0.049234
127,-0.019663,-0.9974959999999999,-0.44418,-0.010665000000000001,0.840116,-0.5423020000000001,0.9281159999999999,0.629448,1.132485,-0.49792600000000004,0.166919,0.005422
128,0.037377999999999995,-0.9870110000000001,-0.404649,0.020597,0.834382,-0.550801,0.34162600000000004,1.332748,1.05378,-0.048841,0.051802,-0.04835
129,0.089795,-0.98062,-0.37114,0.049905,0.830843,-0.554265,0.216827,1.134798,0.8480629999999999,0.137214,0.032728,0.001592
130,0.130326,-0.980176,-0.343538,0.07237,0.8305959999999999,-0.552153,-0.288458,0.706378,0.798081,0.143145,0.138933,0.040952999999999996
131,0.167755,-0.9918540000000001,-0.30940700000000004,0.09135499999999999,0.837042,-0.539458,-0.969799,0.33478600000000003,0.8087529999999999,0.168364,0.120874,0.08492899999999999
132,0.201925,-1.015161,-0.274434,0.10579000000000001,0.8495659999999999,-0.516766,-1.5000870000000002,0.177438,0.657836,0.023162000000000002,-0.128405,0.21394000000000002
133,0.23141799999999998,-1.045949,-0.241038,0.114927,0.865401,-0.48772299999999996,-1.76562,-0.061318,0.389232,-0.06825,-0.265288,0.270804
134,0.243675,-1.08044,-0.220401,0.113624,0.882165,-0.457028,-1.785234,-0.435198,-0.133855,-0.12171099999999999,-0.317208,0.26162399999999997
135,0.22598800000000002,-1.117313,-0.224787,0.098165,0.898927,-0.42696000000000006,-1.7725490000000002,-0.836515,-0.749616,-0.135656,-0.403092,0.175831
136,0.177049,-1.1568399999999999,-0.256767,0.070844,0.915536,-0.395947,-1.819441,-1.048616,-1.21328,-0.11027200000000001,-0.426233,0.099972
137,0.104001,-1.197848,-0.312603,0.037826,0.931257,-0.362394,-1.925461,-1.074176,-1.389176,-0.062942,-0.370695,0.033415
138,0.017624,-1.2374399999999999,-0.381766,0.005767,0.94495,-0.327165,-1.8398560000000002,-1.084747,-1.217649,-0.006652,-0.15628399999999998,-0.10806099999999999
139,-0.065343,-1.269752,-0.44599300000000003,-0.019362,0.9550270000000001,-0.295885,-1.483192,-1.075931,-0.801767,-0.037294,0.12363199999999999,-0.31905900000000004
140,-0.121001,-1.288506,-0.48441599999999996,-0.033623,0.96042,-0.276519,-0.6055119999999999,-0.857449,-0.256465,-0.087654,0.318282,-0.24780300000000002
141,-0.129938,-1.2871,-0.48158199999999995,-0.036268,0.9600270000000001,-0.277547,0.458557,-0.33879000000000004,0.18507,-0.08684,0.19506300000000001,-0.103038
142,-0.090941,-1.271295,-0.443722,-0.026795,0.955484,-0.293825,0.962794,0.405829,0.548697,-0.039428,0.000129,-0.06338400000000001
143,-0.036849,-1.2583440000000001,-0.404539,-0.011325,0.951583,-0.307184,0.400483,1.087504,0.52894,-0.120527,-0.260878,0.002421
144,0.017029,-1.260265,-0.375134,0.005203,0.9521709999999999,-0.30551999999999996,-0.325358,1.349434,0.391075,-0.08694400000000001,-0.396156,-0.011039
145,0.057391,-1.267888,-0.35845,0.01711,0.9544729999999999,-0.297806,-0.322248,1.0512,0.111605,-0.145147,-0.145696,-0.223388
146,0.056788,-1.27043,-0.369937,0.016793000000000002,0.9552280000000001,-0.295394,-0.064182,0.040339,-0.39911199999999997,-0.218453,0.626849,-0.377977
147,-0.005465,-1.275189,-0.42055699999999996,-0.001592,0.956625,-0.291317,-0.26865500000000003,-0.744606,-0.794776,0.23769099999999999,0.555185,0.277919
148,-0.033219,-1.278039,-0.45317299999999994,-0.009585,0.9574520000000001,-0.288434,-0.10546900000000001,0.719594,-0.265675,0.624316,-0.133157,0.670834
149,-0.013280000000000002,-1.284601,-0.44787,-0.003749,0.959325,-0.282279,-0.654691,0.345483,0.259738,0.533687,-0.086797,0.620155
150,-0.019902,-1.3124200000000001,-0.431329,-0.005085,0.9668059999999999,-0.255461,-1.621039,-1.8589630000000001,0.12976300000000002,0.247059,0.771872,0.192701
151,-0.068703,-1.340064,-0.440684,-0.015699,0.973499,-0.22815100000000002,-1.151478,-1.769341,-0.045465,0.332258,1.8660240000000001,-0.259322
152,-0.033072000000000004,-1.3539450000000002,-0.386389,-0.007114,0.9765799999999999,-0.215038,-0.458862,-0.486796,0.9629260000000001,0.267033,0.308699,-0.015597999999999999
153,0.013637,-1.3651200000000001,-0.323104,0.002785,0.978923,-0.20421,-0.559873,-1.030434,0.33907600000000004,-0.11266400000000001,-0.064037,0.290423
154,-0.023306999999999998,-1.373802,-0.331858,-0.004561,0.9806590000000001,-0.195669,-0.47003599999999995,-1.592883,-0.274872,-0.039445,0.032417,0.247153
155,-0.10421199999999999,-1.388654,-0.380617,-0.018843000000000002,0.9834579999999999,-0.180154,-0.9366610000000001,-1.618248,-0.453287,-0.018694,0.23813,0.24315799999999999
156,-0.19831300000000002,-1.408411,-0.448687,-0.031852,0.986844,-0.158504,-1.09372,-1.1374879999999998,-0.397316,-0.076333,-0.030164,0.238734
157,-0.294249,-1.4270100000000001,-0.531562,-0.041558,0.9896799999999999,-0.137133,-1.024425,-0.436779,-0.396662,-0.067848,-0.139445,0.203585
158,-0.40789200000000003,-1.4418739999999999,-0.643055,-0.050998,0.991701,-0.11801700000000001,-0.9134770000000001,-0.064977,-0.497845,-0.065335,-0.282396,0.16152
159,-0.554768,-1.451751,-0.790265,-0.062559,0.992922,-0.100953,-0.8295950000000001,-0.045578,-0.626538,0.04022,-0.33667199999999997,0.16281199999999998
160,-0.731139,-1.455809,-0.9667100000000001,-0.07661,0.993396,-0.085409,-0.7521909999999999,-0.030468000000000002,-0.742453,0.111812,-0.319538,0.17641300000000001
161,-0.915724,-1.455066,-1.155147,-0.09156900000000001,0.993311,-0.070347,-0.803167,0.241404,-0.758145,0.217271,-0.252283,0.16664500000000002
162,-1.104603,-1.452964,-1.353274,-0.10501500000000001,0.993066,-0.05284199999999999,-0.9989379999999999,0.45900799999999997,-0.660447,0.189487,-0.11889000000000001,0.028901
163,-1.300586,-1.449624,-1.559793,-0.11649000000000001,0.992668,-0.032266,-1.122212,0.418599,-0.571525,0.176289,-0.075202,-0.042578
164,-1.476913,-1.442312,-1.742476,-0.12756800000000001,0.991757,-0.012012,-0.97304,0.132608,-0.576526,0.17371,0.011249,-0.097623
165,-1.593551,-1.430523,-1.858773,-0.13977799999999999,0.9901780000000001,0.003181,-0.621055,-0.18476199999999998,-0.635618,0.23451999999999998,0.10081,-0.077308
166,-1.6576110000000002,-1.417512,-1.915582,-0.15211,0.988275,0.013238999999999999,-0.365566,-0.521321,-0.607765,0.292308,0.13176600000000002,-0.095514
167,-1.695525,-1.405957,-1.939111,-0.16281800000000002,0.9864450000000001,0.020413999999999998,-0.174271,-0.846147,-0.528032,0.43533999999999995,0.173071,-0.127638
168,-1.712926,-1.39606,-1.9379009999999999,-0.172095,0.984772,0.024626,0.016059999999999998,-0.9301389999999999,-0.467843,0.542395,0.298537,-0.12328900000000001
169,-1.7039330000000001,-1.3893659999999999,-1.9130040000000001,-0.17884,0.9835870000000001,0.023952,0.304491,-0.6634359999999999,-0.28136700000000003,0.513023,0.314814,-0.089611
170,-1.635386,-1.389289,-1.8301740000000002,-0.180136,0.9835729999999999,0.011651,1.0009540000000001,-0.641536,0.031117000000000002,0.444708,0.5837640000000001,0.055259
171,-1.498933,-1.395491,-1.6768610000000002,-0.173959,0.9846729999999999,-0.012523000000000001,1.558506,-0.778385,0.469954,0.353662,0.39473600000000003,0.070842
172,-1.29206,-1.403124,-1.44757,-0.160447,0.9859760000000001,-0.045918,2.01628,-1.089391,0.85811,0.22943200000000002,0.044938,0.118824
173,-1.0245870000000001,-1.404111,-1.1478270000000002,-0.141774,0.98614,-0.086185,2.403151,-1.6340059999999998,1.12002,0.09010800000000001,-0.105281,0.068713
174,-0.7477689999999999,-1.387837,-0.8268059999999999,-0.12372000000000001,0.98331,-0.1334,2.787107,-2.125416,1.132945,-0.059584000000000005,-0.061801,0.049582999999999995
175,-0.5288579999999999,-1.3539290000000002,-0.557511,-0.10856400000000001,0.976576,-0.185775,3.018724,-2.331854,1.142305,-0.009432,0.210069,0.288955
176,-0.382044,-1.30826,-0.357792,-0.09675800000000001,0.965735,-0.24081999999999998,3.090544,-2.281934,1.117105,0.089754,0.606317,0.333532
177,-0.279979,-1.261635,-0.214207,-0.084078,0.9525889999999999,-0.292412,2.640412,-1.449848,1.2143760000000001,0.215486,0.522127,0.15340399999999998
178,-0.185773,-1.2247270000000001,-0.092017,-0.062653,0.9407129999999999,-0.333367,2.051805,-0.92763,1.6657259999999998,0.285813,0.376288,0.062798
179,-0.094498,-1.193133,0.028197000000000003,-0.034794,0.929529,-0.367104,1.7747650000000001,-1.256,1.97186,0.263325,0.371756,0.07929299999999999
180,-0.026117,-1.163137,0.142301,-0.010353,0.9180520000000001,-0.396326,1.516809,-2.178487,2.184885,0.19455699999999998,0.244821,0.13259300000000002
181,0.023007,-1.1363020000000001,0.253577,0.009684,0.907083,-0.42083999999999994,1.252942,-2.887363,2.264066,0.161443,0.160651,0.244312
182,0.046642,-1.112639,0.350869,0.020622,0.896869,-0.44181499999999996,1.018034,-3.370428,2.059014,0.112419,0.071026,0.329465
183,0.049286,-1.093716,0.43387200000000004,0.022622999999999997,0.88834,-0.45863000000000004,0.743653,-3.651871,1.817109,0.121741,-0.199939,0.44768900000000006
184,0.034634,-1.081958,0.502333,0.016261,0.8828790000000001,-0.469319,0.378338,-3.833596,1.4921870000000002,0.158422,-0.318304,0.469289
185,0.004193,-1.0788,0.5554720000000001,0.0019809999999999997,0.881392,-0.47238199999999997,-0.017972,-3.849854,1.107016,0.087527,-0.396773,0.47136000000000006
186,-0.037857,-1.084152,0.593022,-0.0177,0.883907,-0.46732700000000005,-0.387092,-3.6917410000000004,0.781632,-0.032746,-0.354198,0.447979
187,-0.08648,-1.0958510000000001,0.618202,-0.039497000000000004,0.889318,-0.455581,-0.622711,-3.4416589999999996,0.517951,-0.125649,-0.268254,0.37852399999999997
188,-0.138078,-1.110739,0.6317050000000001,-0.061112,0.896027,-0.439774,-0.754264,-2.991955,0.326313,-0.15266400000000002,-0.258042,0.323273
189,-0.18323699999999998,-1.128293,0.638162,-0.078024,0.903683,-0.421034,-0.8978719999999999,-2.243398,0.267734,-0.176676,-0.23707199999999998,0.258284
190,-0.213488,-1.148683,0.64131,-0.086801,0.912225,-0.400388,-1.043985,-1.293684,0.25588299999999997,-0.274771,-0.07810299999999999,0.114469
191,-0.22795300000000002,-1.171386,0.642833,-0.087879,0.9212899999999999,-0.378816,-1.147824,-0.573541,0.341829,-0.35439699999999996,0.134999,-0.19428900000000002
192,-0.2182,-1.199841,0.662432,-0.078472,0.931982,-0.35391,-1.377446,-0.352161,0.855892,-0.188099,0.263712,-0.381686
193,-0.189398,-1.225441,0.7000350000000001,-0.063734,0.9409549999999999,-0.332478,-0.861157,-0.32219899999999996,0.90753,0.150999,0.342507,-0.227016
194,-0.149306,-1.233961,0.748437,-0.049163,0.9438049999999999,-0.326825,0.09540900000000001,-0.25917399999999996,0.834015,0.136168,0.34469299999999997,-0.22159099999999998
195,-0.099445,-1.220375,0.8081079999999999,-0.034082999999999995,0.9392280000000001,-0.341598,1.178883,-0.37997,1.0649959999999998,0.162485,0.291973,-0.212006
196,-0.040215,-1.194048,0.882827,-0.014791,0.929866,-0.367601,1.385167,-0.581725,1.256839,0.374105,-0.235927,-0.098967
197,0.008196,-1.1735719999999998,0.950678,0.003171,0.9221379999999999,-0.386847,0.798237,-0.8247950000000001,1.279756,0.338535,-0.358921,0.034644
198,0.057428,-1.169244,1.019081,0.022433,0.9204549999999999,-0.390203,-0.224117,-0.598788,1.324668,0.342618,0.3546,0.145117
199,0.083396,-1.178041,1.064876,0.031882,0.923858,-0.381405,-0.510109,-1.023533,0.433386,0.353128,0.7084050000000001,0.20441800000000002
200,0.050982,-1.186183,1.057731,0.019119999999999998,0.9269440000000001,-0.374713,-0.365634,-1.468308,-0.351246,0.091552,0.546369,0.270099
201,-0.001504,-1.193174,1.033549,-0.0005549999999999999,0.929544,-0.368711,-0.356858,-1.365314,-0.540392,-0.09157799999999999,-0.078027,0.316144
202,-0.063019,-1.2041899999999999,0.987526,-0.022574,0.933549,-0.357738,-0.742895,-0.7478090000000001,-0.9156209999999999,-0.083215,-0.143556,0.34733200000000003
203,-0.135602,-1.220168,0.925542,-0.046435000000000004,0.939157,-0.340335,-0.961118,-0.775261,-1.053843,0.040637,-0.103647,0.44176000000000004
204,-0.22086999999999998,-1.235817,0.8570049999999999,-0.072022,0.9444170000000001,-0.320763,-0.964974,-1.248823,-0.905848,0.26211599999999996,0.093303,0.44829600000000003
205,-0.304771,-1.250816,0.80305,-0.094388,0.949242,-0.300052,-0.940843,-1.853606,-0.46800200000000003,0.287854,0.12928,0.35834099999999997
206,-0.37811500000000003,-1.26749,0.766262,-0.11026199999999999,0.954354,-0.277579,-1.017942,-1.8407490000000002,-0.15343099999999998,0.192858,0.090644,0.12518900000000002
207,-0.443104,-1.287882,0.731016,-0.11968699999999999,0.9602459999999999,-0.25219600000000003,-1.202402,-1.426326,-0.0014269999999999999,0.22958,0.066243,0.07316399999999999
208,-0.502826,-1.311197,0.695574,-0.123701,0.966493,-0.224921,-1.253079,-1.17846,0.128225,0.20085,0.040053,0.095419
209,-0.569399,-1.332047,0.649471,-0.127497,0.971635,-0.199176,-1.15517,-1.079393,0.044392,0.15445899999999999,-0.007873999999999999,0.102252
210,-0.643964,-1.350742,0.59516,-0.13105,0.975886,-0.174565,-1.094047,-1.074023,-0.019281,0.208412,-0.029597000000000002,0.096166
211,-0.7356689999999999,-1.365253,0.523238,-0.136967,0.97895,-0.151315,-1.019691,-1.075742,-0.18647,0.22739099999999998,-0.035499,0.067361
212,-0.8356899999999999,-1.3775959999999998,0.444558,-0.14241900000000002,0.981395,-0.128769,-0.94596,-1.1946379999999999,-0.090758,0.190072,-0.092463,0.063903
213,-0.9335389999999999,-1.386606,0.370578,-0.147204,0.983085,-0.108973,-0.752165,-1.28159,-0.092497,0.19739,-0.170646,0.08869400000000001
214,-1.028909,-1.392144,0.298958,-0.152245,0.9840840000000001,-0.091651,-0.6815260000000001,-1.247684,-0.108071,0.15168099999999998,-0.16339,0.10881700000000001
215,-1.132471,-1.396315,0.218484,-0.157186,0.984817,-0.073679,-0.757674,-1.178919,-0.188807,0.139226,-0.15936199999999998,0.146005
216,-1.255843,-1.3971639999999999,0.115219,-0.16426300000000002,0.984964,-0.053515999999999994,-0.9112239999999999,-1.0436729999999999,-0.310762,0.11909700000000001,-0.08428300000000001,0.103031
217,-1.3963299999999998,-1.394593,-0.009332,-0.17263199999999998,0.984516,-0.030427999999999997,-1.080225,-0.786927,-0.43404899999999996,0.125421,-0.07349,0.040773000000000004
218,-1.5375530000000002,-1.3871360000000001,-0.139964,-0.182528,0.983182,-0.00607,-1.130881,-0.518993,-0.5276810000000001,0.19089,-0.035138,-0.058414
219,-1.657303,-1.375075,-0.254958,-0.193747,0.980908,0.016802,-1.082467,-0.24516999999999997,-0.581105,0.269446,-0.003536,-0.073535
220,-1.751742,-1.360417,-0.34794400000000003,-0.205422,0.977952,0.037581,-0.9774299999999999,-0.159164,-0.601846,0.310936,0.047424,-0.049697000000000005
221,-1.825618,-1.345218,-0.419778,-0.21644699999999997,0.974665,0.056380999999999994,-0.87897,-0.269467,-0.542265,0.329271,0.091223,-0.046432
222,-1.882743,-1.331668,-0.468923,-0.225425,0.9715450000000001,0.07269400000000001,-0.608612,-0.5668810000000001,-0.459879,0.3469,0.272977,-0.019395
223,-1.9159,-1.3210790000000001,-0.49026400000000003,-0.23255900000000002,0.968982,0.083603,-0.298764,-0.632167,-0.38606,0.355042,0.239132,-0.08190900000000001
224,-1.925693,-1.313974,-0.48881199999999997,-0.238179,0.967202,0.088266,0.009761,-0.516355,-0.31141399999999997,0.419072,0.190253,-0.170542
225,-1.916139,-1.3100690000000002,-0.46935299999999996,-0.24256399999999997,0.966203,0.087265,0.264746,-0.450399,-0.243488,0.497996,0.223723,-0.164627
226,-1.885627,-1.311023,-0.426569,-0.24423699999999998,0.966448,0.079539,0.730406,-0.597772,-0.023197,0.292653,0.357527,-0.047617
227,-1.825694,-1.321659,-0.352977,-0.23860100000000004,0.969126,0.062171000000000004,1.215016,-0.5746180000000001,0.42560699999999996,0.26226700000000003,0.303686,-0.029548
228,-1.7296630000000002,-1.341249,-0.24036100000000002,-0.22467199999999998,0.973769,0.035996,1.667945,-0.761033,0.829593,0.23187399999999997,0.15846300000000002,-0.012253
229,-1.600063,-1.3656629999999998,-0.085596,-0.203611,0.979034,0.005961,1.8017729999999998,-1.258255,1.1804729999999999,0.05210599999999999,-0.11486800000000001,0.096487
230,-1.42039,-1.390568,0.128046,-0.177231,0.9838030000000001,-0.026860000000000002,2.130619,-1.633386,1.46633,-0.001907,-0.115593,0.156849
231,-1.1225399999999999,-1.407583,0.46524899999999997,-0.14643599999999998,0.9867100000000001,-0.070422,2.6751840000000002,-1.7237799999999999,1.7543959999999998,-0.06441000000000001,0.10613900000000001,0.154971
232,-0.750171,-1.4050770000000001,0.872458,-0.11246500000000001,0.9863,-0.120682,2.723545,-1.269634,1.894089,-0.053963,0.653089,0.119064
233,-0.43094,-1.383818,1.212698,-0.077651,0.98257,-0.16889500000000002,2.361212,-0.484257,1.8745290000000001,-0.042710000000000005,0.6242409999999999,0.129772
234,-0.184139,-1.358322,1.467883,-0.038612,0.977512,-0.207314,1.720607,-0.066648,2.157939,0.013175999999999998,0.490933,0.092324
235,0.029622000000000002,-1.3343260000000001,1.690602,0.006939,0.9721709999999999,-0.23417,1.218626,-0.33891,2.480589,0.244679,0.406003,-0.002204
236,0.193731,-1.306366,1.8789310000000001,0.050317,0.965241,-0.25647,1.09491,-1.31413,2.444655,0.156577,0.38558899999999996,0.044694
237,0.303216,-1.2728540000000002,2.033576,0.087653,0.955943,-0.28016199999999997,1.088198,-2.275217,2.502455,0.13231800000000002,0.356268,0.087322
238,0.366771,-1.236532,2.152589,0.117648,0.944652,-0.306255,1.103115,-2.562818,2.2177130000000003,-0.016208,0.235219,0.192821
239,0.38421900000000003,-1.202768,2.233488,0.134857,0.933039,-0.333546,1.013808,-3.2146369999999997,1.7308150000000002,-0.124221,-0.024439,0.261432
240,0.36251500000000003,-1.1755309999999999,2.2890669999999997,0.13655,0.922895,-0.360027,0.798319,-3.8620330000000003,1.312465,-0.16514500000000001,-0.11071500000000001,0.33475900000000003
241,0.326326,-1.155933,2.332292,0.129209,0.915172,-0.381793,0.5391,-3.651241,1.037987,-0.19253299999999998,-0.380473,0.335773
242,0.293697,-1.143817,2.367105,0.11988599999999999,0.910221,-0.396391,0.23526799999999998,-2.920444,0.7646689999999999,-0.156599,-0.44787899999999997,0.17091199999999998
243,0.27381700000000003,-1.1403510000000001,2.397582,0.11283499999999999,0.9087799999999999,-0.401731,-0.144239,-2.064121,0.600687,-0.081997,-0.402478,0.052654999999999993
244,0.263878,-1.142254,2.424569,0.108385,0.909573,-0.401161,-0.259942,-1.587022,0.471081,-0.06288300000000001,-0.327038,0.09819800000000001
245,0.253645,-1.144768,2.445698,0.1037,0.9106139999999999,-0.400035,-0.214873,-1.426844,0.33552600000000005,-0.040452999999999996,-0.337555,0.117397
246,0.23798200000000003,-1.147864,2.458437,0.09675700000000001,0.911889,-0.398868,-0.23068200000000003,-1.323807,0.156891,-0.031083,-0.432763,0.195133
247,0.22118800000000002,-1.153728,2.467661,0.088871,0.91428,-0.39521300000000004,-0.40368899999999996,-1.1823540000000001,0.097817,0.004635,-0.497654,0.235911
248,0.21011100000000002,-1.164449,2.477981,0.082438,0.9185709999999999,-0.38656399999999996,-0.670331,-0.936373,0.087094,-0.055552,-0.511283,0.24990700000000002
249,0.207378,-1.180482,2.491243,0.07833899999999999,0.924789,-0.372327,-0.9367280000000001,-0.6307590000000001,0.081637,-0.121948,-0.483063,0.23469299999999998
250,0.21175300000000002,-1.20126,2.50467,0.075911,0.9324950000000001,-0.353115,-1.129931,-0.2792,-0.021644999999999998,-0.142974,-0.47866800000000004,0.19173800000000002
251,0.212774,-1.224752,2.5095099999999997,0.071625,0.940722,-0.33153,-1.164469,-0.136417,-0.266692,-0.14216700000000002,-0.45015200000000005,0.122851
252,0.196025,-1.248106,2.494817,0.061765999999999995,0.9483860000000001,-0.311046,-1.038227,-0.153629,-0.600141,-0.09857,-0.42468900000000004,0.051265
253,0.15507100000000001,-1.269636,2.4545220000000003,0.045814,0.954993,-0.29307,-0.9128219999999999,-0.09424,-0.908057,-0.083031,-0.38966999999999996,0.031656000000000004
254,0.09402100000000001,-1.290334,2.390771,0.025987,0.9609280000000001,-0.275577,-0.931616,0.064172,-1.079307,-0.067628,-0.279104,0.03403
255,0.024875,-1.311941,2.315501,0.006367,0.966684,-0.255895,-1.081517,0.232805,-1.029296,-0.057423,-0.074655,0.020711
256,-0.037867000000000005,-1.335164,2.242136,-0.008838,0.972367,-0.23329,-1.205985,0.5688340000000001,-0.7720859999999999,-0.10363399999999999,0.106841,-0.020708
257,-0.067075,-1.3593819999999999,2.194884,-0.014065000000000001,0.977735,-0.20937199999999997,-1.24034,1.024993,-0.265505,-0.270283,0.23854299999999998,-0.11001
258,-0.058395,-1.37961,2.1793869999999997,-0.011090000000000001,0.9817790000000001,-0.1897,-0.848152,1.172852,-0.0194,-0.45669899999999997,0.713503,-0.204068
259,-0.038265,-1.39598,2.177753,-0.006654,0.984758,-0.1738,-0.855258,1.062964,0.027693000000000002,-0.318023,0.9530770000000001,0.24443299999999998
260,0.0070090000000000005,-1.413987,2.201923,0.0010949999999999998,0.9877309999999999,-0.156164,-0.8790620000000001,1.059677,0.33731500000000003,0.294239,0.069642,0.536489
261,0.069164,-1.4216469999999999,2.250341,0.010269,0.9888979999999999,-0.148241,-0.061624,0.622224,0.333971,0.54808,-0.356131,0.291308
262,0.130301,-1.4220620000000002,2.298143,0.019254,0.988959,-0.14693,-0.30836399999999997,0.343888,0.356105,0.5096310000000001,-0.301139,0.292575
263,0.181678,-1.4374069999999999,2.3589740000000003,0.024029,0.991117,-0.130805,-0.892583,-0.5795319999999999,0.28375100000000003,0.611957,1.689776,-0.5277029999999999
264,0.266307,-1.445446,2.446039,0.032902,0.9921540000000001,-0.12061500000000001,-0.19531099999999998,0.44233599999999995,0.9432,0.7453420000000001,1.3628719999999999,-0.23345
265,0.5544399999999999,-1.427638,2.716447,0.075111,0.98977,-0.121297,0.130776,0.8442629999999999,1.911704,-0.231361,-0.019235,-0.054469000000000004
266,0.620091,-1.409637,2.793764,0.09324600000000001,0.987042,-0.130588,0.582387,-1.2298950000000002,0.47328000000000003,-0.300613,-0.191693,0.13006900000000002
267,0.548534,-1.401964,2.754255,0.087618,0.9857819999999999,-0.14338,0.41623000000000004,-1.872038,-0.235289,0.06516799999999999,-0.017734,0.180764
268,0.455009,-1.400009,2.7012169999999998,0.074692,0.9854510000000001,-0.152666,0.187224,-1.957911,-0.406625,0.19406099999999998,0.014563999999999999,0.172213
269,0.386755,-1.404323,2.660044,0.062501,0.986175,-0.15346600000000002,-0.175798,-1.039568,-0.377223,-0.006745999999999999,-0.187271,0.128441
270,0.349592,-1.4124729999999999,2.631597,0.054002,0.9874930000000001,-0.148126,-0.365084,-0.150624,-0.339092,-0.145127,-0.301885,0.14147300000000002
271,0.341754,-1.423884,2.622439,0.049059,0.9892280000000001,-0.137918,-0.60019,0.130901,-0.208635,-0.118227,-0.38821500000000003,0.073542
272,0.35306,-1.43702,2.628345,0.046118,0.991065,-0.125151,-0.60446,0.383324,-0.192965,-0.106925,-0.509391,-0.073564
273,0.35289899999999996,-1.44795,2.6147560000000003,0.042352,0.9924639999999999,-0.11498599999999999,-0.400196,0.8454299999999999,-0.313908,-0.129174,-0.517671,-0.13216
274,0.33503099999999997,-1.4546709999999998,2.575793,0.038096,0.993265,-0.109422,-0.151409,1.105645,-0.334936,0.114568,-0.3724,-0.012556999999999999
275,0.31012199999999995,-1.457902,2.530026,0.034379,0.993634,-0.107281,-0.030923000000000003,0.921717,-0.264425,0.11828499999999999,-0.372769,-0.014698
276,0.29859600000000003,-1.458261,2.503802,0.033036,0.993675,-0.107329,0.043643,0.626613,-0.057359,0.355606,-0.263419,-0.120485
277,0.315107,-1.455673,2.51134,0.0356,0.993381,-0.109213,0.181207,0.336642,0.143731,0.43414200000000003,-0.039599,-0.165231
278,0.32615500000000003,-1.446799,2.522919,0.039626999999999996,0.9923219999999999,-0.11715999999999999,0.5631079999999999,-0.295694,0.23587199999999997,0.460251,-0.010923,-0.127195
279,0.317722,-1.429403,2.528906,0.044025,0.9900209999999999,-0.13387000000000002,0.9416889999999999,-0.951468,0.331223,0.491467,-0.038863999999999996,0.007222
280,0.281484,-1.404412,2.52009,0.046005000000000004,0.98619,-0.159099,1.380609,-1.630264,0.271066,0.491363,-0.227645,0.060512
281,0.21805100000000002,-1.369164,2.494079,0.043324,0.979741,-0.195527,2.070728,-1.992373,0.18448299999999998,0.46329899999999996,-0.310872,0.22549499999999997
282,0.14898599999999998,-1.314807,2.4680299999999997,0.037584,0.967413,-0.250397,3.126296,-2.328604,0.23608400000000002,0.19378499999999999,-0.094778,0.13131800000000002
283,0.099303,-1.239101,2.464982,0.032285,0.945492,-0.324042,4.123997,-2.216168,0.556967,-0.11063800000000001,0.64365,-0.252313
284,0.079098,-1.152274,2.4862,0.032113,0.91369,-0.40514,4.147276000000001,-1.935254,0.8825770000000001,-0.197121,1.4062709999999998,-0.240215
285,0.069536,-1.082771,2.515111,0.032577999999999996,0.8832610000000001,-0.46774899999999997,2.962277,-1.588263,0.9165840000000001,-0.59755,0.777277,0.016988999999999997
286,0.090213,-1.0356290000000001,2.554773,0.045945,0.860183,-0.507911,1.8910529999999999,-0.043511,1.286341,-0.6823279999999999,0.394379,-0.087685
287,0.145492,-1.005894,2.602249,0.077612,0.844641,-0.5296770000000001,1.037466,1.0634549999999998,1.4573530000000001,-0.567862,0.33725900000000003,-0.257921
288,0.20676399999999998,-0.985168,2.649809,0.113471,0.8333649999999999,-0.5409510000000001,0.70958,0.96985,1.440228,-0.002982,0.4134,-0.19789500000000002
289,0.256332,-0.9693,2.69237,0.143469,0.82449,-0.547387,0.299706,0.561667,1.308633,0.042765,0.347019,-0.14787899999999998
290,0.301671,-0.965667,2.7385450000000002,0.16902,0.8224290000000001,-0.543179,-0.489889,0.275838,1.2778459999999998,0.038103,0.199727,-0.037204
291,0.34374499999999997,-0.9754520000000001,2.785984,0.188996,0.8279549999999999,-0.527987,-1.093479,0.06385199999999999,1.0015049999999999,0.004744,-0.184508,0.152712
292,0.37637800000000005,-0.994532,2.828642,0.20027899999999998,0.8385040000000001,-0.506754,-1.400434,-0.265839,0.5992,-0.0015480000000000001,-0.295688,0.188806
293,0.39271300000000003,-1.020096,2.8584110000000003,0.200259,0.852158,-0.48344899999999996,-1.5219049999999998,-0.5306390000000001,0.059239,-0.102252,-0.419419,0.18590299999999998
294,0.39221999999999996,-1.051606,2.8722950000000003,0.189659,0.8682209999999999,-0.458499,-1.6556810000000002,-0.669754,-0.46601400000000004,-0.117531,-0.528698,0.0936
295,0.37761300000000003,-1.091227,2.872056,0.17011800000000002,0.887194,-0.42888999999999994,-1.9431029999999998,-0.726651,-0.9059200000000001,-0.080351,-0.56975,0.047741000000000006
296,0.352867,-1.1373090000000001,2.8597040000000002,0.14516099999999998,0.907507,-0.39415700000000004,-2.087821,-0.645282,-1.1484530000000002,-0.021946,-0.604604,0.005928
297,0.321864,-1.1836440000000001,2.838043,0.119433,0.9259879999999999,-0.358164,-1.993179,-0.498518,-1.1693440000000002,-0.002581,-0.518334,0.076304
298,0.287589,-1.22634,2.809908,0.09578099999999999,0.9412590000000001,-0.323817,-1.8275139999999999,-0.340738,-1.076522,-0.021685,-0.486334,0.051646000000000004
299,0.25361999999999996,-1.265508,2.779584,0.075415,0.95376,-0.290953,-1.715618,-0.23514000000000002,-0.9412799999999999,-0.119895,-0.323313,0.043562000000000003
300,0.21629,-1.301104,2.7469330000000003,0.057178999999999994,0.9638530000000001,-0.260227,-1.54287,-0.365151,-0.8127880000000001,-0.157795,-0.175004,0.078601
301,0.170401,-1.329165,2.7121880000000003,0.040577999999999996,0.970949,-0.235821,-1.109222,-0.780745,-0.6222880000000001,-0.17918900000000001,-0.106081,0.092297
302,0.12131900000000001,-1.346147,2.6820939999999998,0.026958999999999997,0.974872,-0.22112800000000002,-0.621814,-1.060345,-0.387789,-0.21153000000000002,-0.08472,0.12853699999999998
303,0.075388,-1.3573709999999999,2.654132,0.015953,0.977311,-0.211207,-0.550303,-0.77951,-0.35026199999999996,-0.266014,-0.151826,0.059855
304,0.044544,-1.373457,2.6285369999999997,0.00873,0.980592,-0.195866,-0.951312,0.056691,-0.259062,-0.37218,-0.142976,0.0033299999999999996
305,0.04336,-1.396185,2.6150900000000004,0.007529999999999999,0.9847940000000001,-0.173562,-1.193474,0.895418,-0.137915,-0.44623599999999997,-0.130714,-0.069602
306,0.066333,-1.419171,2.61065,0.010012,0.988527,-0.150713,-1.081677,1.632959,-0.061167,-0.48594899999999996,0.310591,0.062762
307,0.10703900000000001,-1.438084,2.613885,0.014137,0.991207,-0.13156600000000002,-0.866665,2.02412,-0.032393,-0.44216099999999997,0.429417,0.219304
308,0.186898,-1.449318,2.65097,0.022517,0.9926309999999999,-0.11906900000000001,-0.370116,2.2000900000000003,0.285976,0.19219,0.14717,0.08041799999999999
309,0.33881100000000003,-1.450561,2.760494,0.039866000000000006,0.9927799999999999,-0.11312699999999999,-0.261766,2.100837,0.769696,0.428014,0.580492,-0.160158
310,0.503846,-1.452835,2.88992,0.05681900000000001,0.993051,-0.10306300000000002,-0.472467,1.536757,0.557439,0.715993,0.9116280000000001,-0.128855
311,0.653267,-1.451337,3.019215,0.072433,0.992873,-0.094638,-0.222398,0.896911,0.7768550000000001,0.792588,1.218156,-0.583264
312,0.785762,-1.43644,3.1362669999999997,0.094753,0.9909879999999999,-0.094684,0.193974,0.665809,1.1988020000000001,0.38303000000000004,0.5655,-0.14893800000000001
313,0.855416,-1.422501,-3.079328,0.11152999999999999,0.989024,-0.096911,0.071723,-0.201164,0.46625900000000003,-0.002841,-0.171001,0.044299
314,0.8448459999999999,-1.423945,-3.079556,0.109431,0.989237,-0.097137,-0.117877,-0.62688,-0.268407,0.203679,-0.11025399999999999,0.10461400000000001
315,0.813227,-1.432508,-3.0975479999999997,0.100147,0.990453,-0.094723,-0.254879,-0.657675,-0.44023999999999996,0.24747800000000003,-0.074651,0.083966
316,0.8017350000000001,-1.443467,-3.098991,0.09124700000000001,0.9919040000000001,-0.088314,-0.421595,-0.41979099999999997,-0.377616,-0.045135,-0.11869,0.153942
317,0.816041,-1.4542959999999998,-3.080031,0.08467100000000001,0.9932219999999999,-0.079635,-0.475041,-0.087712,-0.259843,-0.038558999999999996,-0.12000699999999999,0.145263
318,0.866534,-1.463319,-3.0312200000000002,0.08175,0.99423,-0.06945499999999999,-0.5140170000000001,0.194036,-0.088492,-0.22419,-0.113554,-0.017185
319,0.948433,-1.468707,-2.957866,0.082804,0.994793,-0.059411,-0.41468599999999994,0.622325,0.079364,-0.233256,-0.176587,-0.149452
320,1.0152139999999998,-1.470233,-2.908069,0.08529400000000001,0.9949479999999999,-0.052951,-0.13653800000000002,1.008132,0.06051599999999999,-0.172559,-0.252882,-0.228375
321,1.03572,-1.469063,-2.913073,0.087363,0.9948299999999999,-0.051785000000000005,0.151227,1.389673,0.034263,-0.019294,-0.349108,-0.19913
322,1.0160209999999998,-1.465419,-2.959027,0.089407,0.994453,-0.055404999999999996,0.39369,1.2056360000000002,0.026579000000000002,0.180582,-0.476768,-0.152252
323,0.949915,-1.459914,-3.045288,0.090003,0.993859,-0.064374,0.611949,0.775938,-0.06428099999999999,0.28814,-0.5458,-0.050402999999999996
324,0.8627549999999999,-1.4538360000000001,-3.138741,0.088645,0.993168,-0.075892,0.559465,0.000669,-0.081814,0.306954,-0.515385,-0.077078
325,0.799075,-1.4475149999999999,3.085989,0.088133,0.99241,-0.085755,0.44819499999999995,-0.412797,0.04933,0.326692,-0.328546,-0.099349
326,0.7522439999999999,-1.436833,3.052556,0.091261,0.9910399999999999,-0.097522,0.62349,-0.798994,0.305286,0.407457,-0.096982,-0.10459600000000001
327,0.697281,-1.419155,3.015126,0.097002,0.988524,-0.115802,0.984891,-0.9839389999999999,0.421279,0.383833,-0.084319,-0.032224
328,0.6174390000000001,-1.395524,2.959956,0.10095499999999999,0.9846790000000001,-0.14218,1.3438649999999999,-1.452424,0.317564,0.372754,-0.234328,0.0381
329,0.5153989999999999,-1.36439,2.8897880000000002,0.101013,0.978774,-0.178321,1.910396,-1.7609009999999998,0.24607300000000001,0.351074,-0.22712600000000002,0.194205
330,0.40313000000000004,-1.3191549999999999,2.8159669999999997,0.09767999999999999,0.968505,-0.22903400000000002,2.669916,-2.230255,0.278686,0.032477,0.044877,0.033569
331,0.307623,-1.2577770000000001,2.764252,0.09324,0.951408,-0.293477,3.4311089999999997,-2.1814139999999997,0.45806,-0.151437,0.759224,-0.265773
332,0.249102,-1.183125,2.741784,0.093198,0.9257920000000001,-0.36636599999999997,3.6632839999999995,-1.741314,0.753947,-0.14668,1.305654,-0.241758
333,0.21283000000000002,-1.1178139999999999,2.740167,0.092443,0.8991459999999999,-0.427774,2.861268,-1.70114,0.726929,-0.432516,0.566628,-0.111823
334,0.197878,-1.070452,2.751113,0.09431,0.877417,-0.470367,1.9192799999999999,-0.768799,0.688176,-0.419642,0.46480699999999997,-0.10566800000000001
335,0.21207199999999998,-1.041297,2.763317,0.10631600000000001,0.86306,-0.49378500000000003,1.028124,0.656068,0.513483,-0.251763,0.398521,-0.380375
336,0.235352,-1.02651,2.771105,0.120745,0.855497,-0.503533,0.535624,0.766251,0.293053,-0.090518,0.634081,-0.291862
337,0.25877,-1.019523,2.784247,0.134029,0.851858,-0.506333,0.025574,0.532628,0.550435,-0.13006199999999998,0.504678,-0.291091
338,0.29493800000000003,-1.0245790000000001,2.817903,0.150997,0.8544959999999999,-0.49702799999999997,-0.788734,0.31049899999999997,0.861226,-0.073818,0.030483,0.033298
339,0.339967,-1.042838,2.863977,0.167986,0.8638370000000001,-0.474938,-1.465082,0.246058,0.779672,-0.080827,-0.248725,0.22716599999999998
340,0.385069,-1.070533,2.911136,0.18017,0.8774559999999999,-0.444533,-1.8063080000000002,0.18893800000000002,0.44193999999999994,-0.06737699999999999,-0.389846,0.24865500000000001
341,0.42205,-1.1043479999999999,2.949832,0.184218,0.8931709999999999,-0.41025500000000004,-1.9541680000000001,0.09212000000000001,0.007333,-0.134902,-0.628141,0.263434
342,0.44627,-1.142479,2.977999,0.179263,0.909666,-0.374664,-1.999468,-0.18413,-0.399622,-0.125246,-0.748487,0.170913
343,0.45401800000000003,-1.184718,2.99448,0.165151,0.926393,-0.33841,-2.051097,-0.42634099999999997,-0.788505,-0.07925900000000001,-0.836015,0.146912
344,0.44391099999999994,-1.228828,2.991707,0.144021,0.9420959999999999,-0.30284099999999997,-1.8934419999999998,-0.30637,-1.089864,-0.092111,-0.7896,0.132186
345,0.420407,-1.270483,2.969406,0.120733,0.9552440000000001,-0.27005999999999997,-1.659847,0.004488000000000001,-1.241386,-0.12615,-0.67114,0.103068
346,0.38104299999999997,-1.309601,2.925749,0.096035,0.966082,-0.23971399999999998,-1.519875,0.157925,-1.371997,-0.183376,-0.476443,0.05140599999999999
347,0.311054,-1.3460299999999998,2.852747,0.068215,0.9748459999999999,-0.21218299999999998,-1.334951,-0.077836,-1.448383,-0.23124,-0.152016,-0.068136
348,0.213058,-1.374109,2.7609790000000003,0.041322000000000005,0.980719,-0.191003,-0.93199,-0.589539,-1.172516,-0.298677,0.21311300000000002,-0.121146
349,0.11194000000000001,-1.38867,2.673711,0.020232,0.983461,-0.179988,-0.378868,-0.810338,-0.781673,-0.257858,0.253417,-0.095464
350,0.036677999999999995,-1.39157,2.609699,0.006537,0.983982,-0.178148,0.023794,-0.415584,-0.482401,-0.24298699999999998,-0.034687,-0.108885
351,0.003959000000000001,-1.390304,2.5723849999999997,0.000711,0.9837549999999999,-0.179513,0.055282000000000005,0.6677529999999999,-0.23146799999999998,-0.272012,-0.22768200000000002,-0.04087
352,0.033964,-1.392017,2.569629,0.006039,0.9840620000000001,-0.177726,-0.189067,2.1735919999999997,0.094976,-0.30041100000000004,-0.123298,0.022223
353,0.123142,-1.40052,2.6034,0.020814,0.9855379999999999,-0.16817200000000002,-0.6053189999999999,3.107185,0.352586,-0.345292,0.251446,0.005147
354,0.24371700000000002,-1.413095,2.662787,0.037898,0.987591,-0.152408,-0.721154,2.9351599999999998,0.315678,-0.267817,0.952167,0.058459000000000004
355,0.358363,-1.421239,2.71903,0.052261,0.9888370000000001,-0.139534,-0.31000900000000003,3.0401830000000003,0.335507,0.09918300000000001,0.253747,0.268822
356,0.45085299999999995,-1.418353,2.760657,0.06616799999999999,0.988403,-0.13668,0.119867,2.286695,0.313838,0.465815,-0.169723,0.015296
357,0.521003,-1.4165969999999999,2.7909509999999997,0.076449,0.988135,-0.133212,-0.198201,1.640685,0.17037,0.574231,0.090662,0.050356
358,0.558562,-1.424764,2.818827,0.07711799999999999,0.9893559999999999,-0.12339800000000001,-0.5732189999999999,-0.173218,-0.10232100000000001,0.697968,0.304314,0.124009
359,0.595218,-1.436492,2.867611,0.075077,0.9909950000000001,-0.110873,-0.726139,-0.562174,0.062683,0.8218200000000001,0.727984,-0.368512
360,0.706418,-1.4421,2.981691,0.08330800000000001,0.9917299999999999,-0.09762799999999999,-0.577055,0.180713,0.6342720000000001,0.576817,1.125549,-0.29972600000000005
361,0.857029,-1.435006,3.1297759999999997,0.102329,0.9907950000000001,-0.088627,-0.390531,0.039008,1.010702,-0.12440799999999999,0.039174,-0.083889
362,0.9392290000000001,-1.427915,-3.06259,0.114928,0.9898100000000001,-0.08407200000000001,-0.188019,-0.621814,0.391258,-0.081694,-0.057162,-0.035618000000000004
363,0.940838,-1.429009,-3.0445189999999998,0.11418800000000001,0.989965,-0.083249,-0.131602,-0.9182540000000001,-0.116442,-0.008292,-0.043081,0.027614999999999997
364,0.926016,-1.435658,-3.038265,0.107678,0.990883,-0.080974,-0.322465,-1.068155,-0.292771,-0.018857,-0.086662,0.109661
365,0.93984,-1.44687,-3.006112,0.09981,0.992331,-0.07291900000000001,-0.603707,-0.779384,-0.335698,-0.010989,-0.08811000000000001,0.10160599999999999
366,1.007308,-1.461359,-2.929596,0.092333,0.9940180000000001,-0.058338,-0.876157,-0.17541800000000002,-0.356552,-0.183977,-0.27455100000000005,0.07432899999999999
367,1.143357,-1.477217,-2.797034,0.085036,0.995625,-0.038736,-0.9758680000000001,0.396045,-0.388959,-0.255614,-0.30736199999999997,-0.037497
368,1.302867,-1.490564,-2.649809,0.07728600000000001,0.996783,-0.021217,-0.7062350000000001,0.781898,-0.41213900000000003,-0.231278,-0.298083,-0.089943
369,1.413716,-1.500751,-2.558932,0.06912599999999999,0.997548,-0.010948999999999999,-0.263871,1.143716,-0.43515,-0.10818900000000001,-0.341237,-0.059333000000000004
370,1.395211,-1.508787,-2.602116,0.061016999999999995,0.998078,-0.010825,0.25696399999999997,1.2248379999999999,-0.394228,0.135425,-0.373002,-0.056771
371,1.25461,-1.512237,-2.7631759999999996,0.055625,0.998286,-0.018198,0.513518,0.826845,-0.18896400000000002,0.302194,-0.352763,-0.048451999999999995
372,1.057237,-1.506667,-2.9695270000000002,0.05581900000000001,0.997944,-0.031484,0.804782,0.15041300000000002,0.08633400000000001,0.371107,-0.304417,-0.11646500000000001
373,0.8507450000000001,-1.492969,3.1141490000000003,0.058449,0.996973,-0.051269,1.0449030000000001,-0.692357,0.178822,0.347084,-0.263254,-0.201401
374,0.678733,-1.474422,2.967623,0.060411,0.99536,-0.07489900000000001,1.1368850000000001,-1.586462,0.183815,0.365126,-0.205519,-0.165152
375,0.563613,-1.453436,2.886803,0.062555,0.9931209999999999,-0.098981,1.095872,-1.7882220000000002,0.324792,0.351812,-0.11616800000000001,-0.063373
376,0.48247299999999993,-1.429713,2.842324,0.065242,0.9900639999999999,-0.12456400000000001,1.236194,-1.8857130000000002,0.340852,0.30835500000000005,-0.117323,-0.09121
377,0.4056,-1.402387,2.802715,0.066136,0.9858530000000001,-0.15401600000000001,1.462628,-1.8862729999999999,0.28475100000000003,0.33308000000000004,-0.16927799999999998,0.035638
378,0.324177,-1.366899,2.758517,0.064498,0.9792850000000001,-0.191941,2.081614,-1.9041669999999997,0.22714,0.203492,-0.10675699999999999,0.14315799999999998
379,0.238275,-1.312041,2.70948,0.060394,0.966709,-0.248648,3.264664,-1.929611,0.23650500000000002,0.06562799999999999,0.088543,0.077017
380,0.169236,-1.2336770000000001,2.677333,0.055711000000000004,0.9437110000000001,-0.326044,4.236202,-1.85907,0.401298,-0.27267600000000003,0.738875,-0.21111100000000002
381,0.132287,-1.150275,2.67414,0.053847000000000006,0.912876,-0.40467,3.8229019999999996,-1.469786,0.644671,-0.486937,1.118542,-0.239998
382,0.13095,-1.089091,2.6936259999999996,0.06049500000000001,0.8862059999999999,-0.459325,2.527037,-0.6184609999999999,0.9261530000000001,-0.634653,0.756265,-0.142726
383,0.152613,-1.045398,2.721473,0.07624700000000001,0.865124,-0.495728,1.863302,0.10594400000000001,0.9643860000000001,-0.48538100000000006,0.250293,-0.030517000000000002
384,0.177058,-1.0112370000000002,2.742729,0.09349400000000001,0.8474889999999999,-0.522514,1.412292,0.381285,0.6981,0.046566,0.196181,-0.238869
385,0.192951,-0.9899129999999999,2.751738,0.105229,0.8359780000000001,-0.538579,0.7392310000000001,0.456743,0.26067199999999996,0.047985,0.314336,-0.227214
386,0.20243699999999998,-0.982036,2.7530930000000002,0.111653,0.83163,-0.54399,0.173091,0.38795999999999997,0.10405,-0.04575,0.272084,-0.11902
387,0.21573699999999998,-0.9868319999999999,2.759202,0.118023,0.834284,-0.538555,-0.571339,0.45125299999999996,0.10624700000000001,-0.046474,0.082419,0.077175
388,0.237521,-1.0075209999999999,2.771763,0.125637,0.845511,-0.518967,-1.3664319999999999,0.623433,0.095131,-0.10628900000000001,-0.149069,0.2099
389,0.267219,-1.040485,2.791236,0.13355699999999998,0.86265,-0.48785,-1.9081439999999998,0.6520779999999999,0.0614,-0.12141099999999999,-0.391977,0.233715
390,0.302111,-1.081725,2.816074,0.139784,0.88277,-0.448529,-2.267073,0.676153,-0.053301,-0.10848800000000001,-0.6203029999999999,0.185559
391,0.333231,-1.129249,2.836922,0.139782,0.904091,-0.403831,-2.492901,0.575287,-0.473492,-0.118023,-0.728737,0.053749
392,0.351071,-1.183541,2.84554,0.129875,0.925949,-0.354614,-2.655941,0.441169,-0.891066,-0.082176,-0.78363,0.010803
393,0.354719,-1.238817,2.844471,0.113199,0.945399,-0.305625,-2.5215959999999997,0.074692,-1.0018209999999999,-0.051904,-0.748912,0.053748000000000004
394,0.34015500000000004,-1.291941,2.833627,0.091834,0.9613709999999999,-0.259484,-2.414343,-0.36951999999999996,-1.0966420000000001,-0.06652000000000001,-0.608847,0.062278999999999994
395,0.305105,-1.3438649999999999,2.8087020000000003,0.067585,0.974361,-0.214598,-2.297,-0.626594,-1.112585,-0.063786,-0.361477,0.09939400000000001
396,0.242116,-1.38704,2.7574229999999997,0.04381,0.9831639999999999,-0.177395,-1.641028,-0.618409,-1.064216,-0.065065,0.06573999999999999,0.028133
397,0.160889,-1.410551,2.68641,0.025561,0.987188,-0.1575,-0.671694,-0.529776,-0.627066,-0.137133,0.23354499999999997,-0.056535
398,0.114499,-1.41539,2.6475459999999997,0.017684000000000002,0.987949,-0.15376800000000002,0.035032,-0.272839,-0.22614800000000002,-0.141875,-0.014667,-0.050927999999999994
399,0.10180800000000001,-1.412107,2.632618,0.016059999999999998,0.9874350000000001,-0.15720599999999998,0.154314,0.3587,-0.021025,-0.16251400000000002,-0.204125,-0.062092999999999995
400,0.129373,-1.414565,2.642709,0.020074,0.987821,-0.15429600000000002,-0.306761,1.152385,0.098651,-0.320382,-0.10943299999999999,-0.079362
401,0.191917,-1.42241,2.6759060000000003,0.0282,0.9890110000000001,-0.145128,-0.435163,1.66262,0.217809,-0.37500100000000003,0.30256900000000003,-0.016859
402,0.27211,-1.4284709999999998,2.719093,0.038123000000000004,0.9898889999999999,-0.136627,-0.305386,2.10511,0.27155999999999997,-0.290198,0.81663,0.241577
403,0.391852,-1.426891,2.789586,0.054768,0.989664,-0.13253900000000002,0.06563300000000001,2.40916,0.636957,0.21514499999999998,0.185996,0.09929
404,0.504829,-1.417126,2.863612,0.074032,0.988216,-0.133972,0.11280799999999999,1.812185,0.7010770000000001,0.476261,0.08466,-0.140732
405,0.587587,-1.415198,2.923473,0.085909,0.9879190000000001,-0.12897999999999998,-0.245218,0.7637619999999999,0.26088,0.573103,0.426571,0.021634
406,0.605412,-1.419089,2.945817,0.086006,0.9885139999999999,-0.124266,-0.313814,-0.774191,-0.021775,0.545113,0.7048300000000001,-0.406099
407,0.652569,-1.426677,3.009168,0.087211,0.989633,-0.11411099999999999,-0.7279869999999999,-0.545894,0.254913,0.5411159999999999,1.1977149999999999,-0.31293699999999997
408,0.773985,-1.432042,3.136701,0.096677,0.990389,-0.09891,-0.796082,-0.24405700000000002,0.755047,0.26814499999999997,0.6751689999999999,0.08290299999999999
409,0.9280579999999999,-1.4311989999999999,-2.983286,0.11137899999999999,0.9902719999999999,-0.083402,-0.810898,-0.378646,0.592746,0.015284,-0.171379,0.01994
410,1.010032,-1.435869,-2.892713,0.113917,0.9909110000000001,-0.071542,-0.5287,-0.44620600000000005,-0.071766,0.054890999999999995,-0.159994,0.074013
411,1.02873,-1.444936,-2.8618189999999997,0.10753299999999999,0.9920899999999999,-0.064761,-0.378071,-0.684217,-0.354556,0.060191999999999996,-0.13128099999999998,0.100161
412,1.0504440000000002,-1.455319,-2.8256,0.099971,0.99334,-0.057287,-0.49987600000000004,-0.675466,-0.30628,-0.12696400000000002,-0.052422,0.12119
413,1.101306,-1.464877,-2.764642,0.094283,0.994396,-0.047832,-0.516934,-0.376302,-0.246962,-0.259658,-0.10821099999999999,0.08314099999999999
414,1.1689459999999998,-1.473032,-2.693698,0.089834,0.995225,-0.038176999999999996,-0.48132700000000006,0.010027,-0.18632,-0.281713,-0.14843800000000001,0.033798
415,1.241167,-1.4788219999999999,-2.628025,0.086899,0.9957729999999999,-0.029729000000000002,-0.321169,0.538805,-0.159173,-0.283433,-0.286072,-0.030925
416,1.293718,-1.4831159999999999,-2.5917220000000003,0.084228,0.996159,-0.023954,-0.175287,0.9632790000000001,-0.144826,-0.21423299999999998,-0.36496300000000004,-0.083285
417,1.3286360000000002,-1.4855200000000002,-2.579683,0.082687,0.996366,-0.020424,-0.0026449999999999998,1.231892,-0.069189,-0.150482,-0.41216800000000003,-0.098625
418,1.310353,-1.484077,-2.624302,0.08369,0.996242,-0.022303,0.335368,1.345137,0.088988,0.208485,-0.46908199999999994,-0.25704
419,1.2388370000000002,-1.476885,-2.7230119999999998,0.088654,0.9955940000000001,-0.030560000000000004,0.625538,1.285862,0.274825,0.29489099999999996,-0.461063,-0.23207399999999997
420,1.135139,-1.465384,-2.847235,0.095389,0.994449,-0.044402,0.880332,0.78423,0.292202,0.347238,-0.44000600000000006,-0.174394
421,1.017153,-1.45199,-2.971319,0.10082100000000001,0.992951,-0.06232000000000001,0.9011879999999999,-0.070053,0.257123,0.506234,-0.212952,-0.187603
422,0.915058,-1.4382,-3.061748,0.104788,0.9912219999999999,-0.080613,0.844933,-0.961467,0.250395,0.565653,-0.101116,-0.144317
423,0.810566,-1.42276,-3.138868,0.106887,0.9890629999999999,-0.101638,0.9913069999999999,-1.642624,0.235199,0.533601,-0.062717,0.033171
424,0.686218,-1.402175,3.0592669999999997,0.10633499999999999,0.985817,-0.12983599999999998,1.3409799999999998,-2.242265,0.171112,0.470401,-0.130074,0.134688
425,0.539267,-1.372336,2.9596560000000003,0.101243,0.9803709999999999,-0.16918,2.0441740000000004,-2.544759,0.083476,0.320495,-0.21624200000000002,0.259238
426,0.38808899999999996,-1.322424,2.859273,0.093026,0.9693139999999999,-0.227546,3.183662,-2.68437,0.176004,-0.08594600000000001,0.286652,-0.130304
427,0.273681,-1.246642,2.790052,0.086086,0.9479200000000001,-0.306654,4.251289,-2.1114029999999997,0.353642,-0.413249,1.057863,-0.388567
428,0.20306400000000002,-1.16231,2.755574,0.080108,0.917723,-0.389059,4.025963,-1.891291,0.382765,-0.459624,1.245683,-0.201517
429,0.15796300000000002,-1.094208,2.741427,0.07216499999999999,0.8885649999999999,-0.453039,3.007789,-1.330317,0.306568,-0.658438,0.720947,-0.039393
430,0.149523,-1.048837,2.7439970000000002,0.074272,0.8668440000000001,-0.493017,1.75825,-0.026983,0.464949,-0.6749649999999999,0.312661,-0.023905000000000003
431,0.167857,-1.022758,2.752884,0.087046,0.853548,-0.513691,1.065347,0.721495,0.369419,-0.26162199999999997,0.04463,-0.05476
432,0.185521,-1.0044799999999998,2.757919,0.098967,0.8438829999999999,-0.527321,0.748609,0.614486,0.23168000000000002,-0.05168,0.358983,-0.15645599999999998
433,0.19601300000000002,-0.995907,2.760857,0.10589900000000001,0.839253,-0.53333,0.16378399999999999,0.241941,0.130864,-0.11679400000000001,0.387112,-0.09106
434,0.20289400000000002,-1.002752,2.768882,0.10840699999999999,0.8429549999999999,-0.526949,-0.75008,-0.10545,0.151631,-0.133141,0.27684200000000003,-0.095762
435,0.214846,-1.029527,2.78432,0.10984400000000001,0.8570549999999999,-0.503379,-1.742576,0.028133,0.10714000000000001,-0.156887,-0.15113800000000002,0.029868000000000002
436,0.239339,-1.070435,2.806748,0.113728,0.877409,-0.466067,-2.296667,0.380697,0.06543,-0.163029,-0.252303,0.061953999999999995
437,0.271354,-1.119199,2.833334,0.116972,0.899751,-0.42043500000000006,-2.623249,0.407084,-0.12275599999999999,-0.108259,-0.44897600000000004,0.071314
438,0.294649,-1.173818,2.850517,0.11227999999999999,0.922234,-0.369971,-2.754536,0.379683,-0.61502,0.042627,-0.628899,0.006399
439,0.303036,-1.230253,2.851121,0.099672,0.942573,-0.318781,-2.619855,0.38357600000000003,-0.905709,0.077376,-0.648857,-0.006689
440,0.29229099999999997,-1.282938,2.833939,0.08180499999999999,0.9588540000000001,-0.271858,-2.343538,0.19163,-1.095813,0.058804999999999996,-0.578742,0.0009539999999999999
441,0.25251599999999996,-1.331995,2.793346,0.059097000000000004,0.971622,-0.229037,-2.14407,-0.169731,-1.210392,0.009339,-0.449115,0.01662
442,0.167492,-1.374841,2.713552,0.032458999999999995,0.9808620000000001,-0.19197899999999998,-1.726641,-0.446687,-1.3096709999999998,-0.116718,-0.166134,-0.027839
443,0.053125,-1.402693,2.6100849999999998,0.008884,0.9859040000000001,-0.167077,-0.991561,-0.743876,-0.887549,-0.198917,-0.032291,-0.08184
444,-0.029327999999999996,-1.4133799999999999,2.5443540000000002,-0.0045969999999999995,0.9876360000000001,-0.156699,-0.25950300000000004,-0.9050879999999999,-0.36841399999999996,-0.26824499999999996,-0.034251,-0.073907
445,-0.054905999999999996,-1.412091,2.5316349999999996,-0.008673,0.987433,-0.157802,0.18792999999999999,-0.393815,0.057072000000000005,-0.232752,-0.18044100000000002,-0.010320000000000001
446,-0.021446,-1.4092280000000001,2.560074,-0.00345,0.9869760000000001,-0.16083,0.06487000000000001,0.6870109999999999,0.270608,-0.254256,-0.260398,0.0049759999999999995
447,0.05297,-1.4129479999999999,2.608444,0.008323,0.987568,-0.156973,-0.35949000000000003,1.6570880000000001,0.46936300000000003,-0.34571,-0.164295,-0.078928
448,0.16858199999999998,-1.424617,2.685732,0.024439,0.9893350000000001,-0.143595,-0.8105600000000001,1.986595,0.509587,-0.36190300000000003,0.353729,-0.10724500000000001
449,0.280022,-1.4382469999999998,2.759035,0.036525999999999996,0.9912280000000001,-0.12701400000000002,-0.600484,2.170172,0.24055900000000002,-0.185864,0.7051069999999999,0.400406
450,0.36449299999999996,-1.44222,2.798843,0.045708,0.9917450000000001,-0.119799,-0.054787999999999996,1.9746830000000002,0.169846,0.296165,0.058241999999999995,0.219759
451,0.417596,-1.43785,2.819093,0.053759,0.9911760000000001,-0.12116400000000001,0.07779900000000001,1.361551,0.204672,0.420621,-0.110713,0.040079000000000004
452,0.443011,-1.442895,2.838018,0.054676999999999996,0.9918319999999999,-0.11524000000000001,-0.39473600000000003,-0.080202,-0.075587,0.39919499999999997,0.05801900000000001,-0.016626
453,0.440558,-1.4501600000000001,2.841719,0.051320000000000005,0.992732,-0.10885299999999999,-0.334023,-0.36262,-0.098301,0.779018,0.60555,-0.119144
454,0.506898,-1.455307,2.913036,0.055942,0.993339,-0.100743,-0.422575,-0.046024,0.45828599999999997,0.202542,0.428536,-0.303753
455,0.6319859999999999,-1.457719,3.035543,0.06665800000000001,0.993614,-0.091043,-0.552984,0.17690799999999998,0.49875,0.191826,0.42826099999999995,-0.313452
456,0.749731,-1.46014,-3.131586,0.075252,0.993884,-0.080821,-0.424725,0.11088800000000001,0.381158,0.10959300000000001,0.43717700000000004,-0.103887
457,0.829268,-1.459643,-3.051701,0.0818,0.9938290000000001,-0.07492,-0.23324099999999998,-0.08762,0.306906,0.229449,0.0021579999999999998,0.026152999999999996
458,0.872826,-1.457393,-3.001304,0.086698,0.993577,-0.072724,-0.078827,-0.475566,0.21982,0.190173,-0.125703,0.065751
459,0.87925,-1.456299,-2.980655,0.088001,0.993452,-0.07285900000000001,-0.073236,-0.820074,0.054726,0.082211,-0.292662,0.103224
460,0.8685069999999999,-1.459028,-2.9723349999999997,0.085142,0.9937600000000001,-0.072048,-0.14668599999999998,-0.9947370000000001,-0.15814,-0.052824,-0.406541,0.064404
461,0.838318,-1.4656559999999998,-2.984448,0.078029,0.9944780000000001,-0.07017899999999999,-0.183276,-0.792458,-0.361617,-0.10938599999999998,-0.40967,-0.044170999999999995
462,0.798589,-1.474604,-3.014521,0.06880399999999999,0.9953770000000001,-0.067012,-0.189093,-0.287097,-0.461649,-0.065584,-0.376755,-0.126393
463,0.757271,-1.483367,-3.058408,0.059983,0.99618,-0.063455,-0.174678,0.33911399999999997,-0.43137299999999995,0.070236,-0.294719,-0.21498699999999998
464,0.737452,-1.492106,-3.0893740000000003,0.05285700000000001,0.996906,-0.058185,-0.267527,0.635322,-0.366171,0.195358,-0.284152,-0.159192
465,0.724783,-1.5004709999999999,-3.112012,0.046584,0.9975280000000001,-0.052604,-0.22648200000000002,0.311179,-0.327013,0.28888,-0.22445700000000002,-0.149377
466,0.682337,-1.505946,3.1307009999999997,0.040866,0.997898,-0.050294,-0.040854,-0.33105500000000004,-0.253323,0.398465,-0.11542100000000001,-0.195204
467,0.591661,-1.504973,3.052075,0.036686,0.997834,-0.054595000000000005,0.36196500000000004,-0.7803939999999999,-0.12174600000000001,0.465893,0.039962,-0.223192
468,0.448568,-1.4922879999999998,2.9310650000000003,0.034013,0.99692,-0.07067000000000001,1.064107,-1.362771,-0.015696,0.403884,-0.204882,-0.052881
469,0.281123,-1.462004,2.800816,0.030123,0.994088,-0.104315,1.96747,-2.179632,-0.051068,0.32443,-0.280694,0.02883
470,0.137268,-1.4122700000000001,2.706534,0.021602,0.987461,-0.156378,2.921398,-2.723722,-0.145188,0.159032,-0.329044,0.218756
471,0.023802,-1.344428,2.6525090000000002,0.005342,0.9744879999999999,-0.22437600000000002,3.753138,-3.097179,-0.18056,-0.353471,0.15098499999999998,-0.006016
472,-0.034359,-1.261459,2.648246,-0.010458,0.952536,-0.304247,4.257261,-2.3198779999999997,0.002494,-0.432413,0.427378,-0.017026
473,-0.049897000000000004,-1.184863,2.6690080000000003,-0.018775,0.9264469999999999,-0.375956,3.477205,-1.403055,0.240494,-0.44530600000000004,1.010717,0.181223
474,-0.034341,-1.126857,2.700254,-0.014746,0.903067,-0.42924700000000005,2.6101400000000003,-0.095055,0.764735,-0.5751430000000001,0.35184699999999997,-0.08236399999999999
475,0.035011,-1.087919,2.754686,0.016253,0.8856629999999999,-0.464045,1.528781,1.62008,1.42476,-0.519336,0.21234499999999998,-0.271948
476,0.131277,-1.064905,2.8205430000000002,0.063433,0.874743,-0.480417,0.805233,1.878118,1.7248860000000001,0.13072,0.177808,-0.150198
477,0.205589,-1.046883,2.883194,0.102128,0.8658680000000001,-0.489737,0.549902,0.493571,1.602032,0.243759,0.304924,-0.21024400000000001
478,0.250366,-1.037367,2.934107,0.12598299999999998,0.8610680000000001,-0.49263599999999996,-0.176653,-0.12979100000000002,1.211059,0.146799,0.22821100000000002,-0.24119000000000002
479,0.288869,-1.045999,2.9823630000000003,0.14273,0.865426,-0.480278,-1.0365030000000002,-0.11306600000000001,0.971091,0.082536,-0.053109,-0.048514999999999996
480,0.331261,-1.068109,3.0325279999999997,0.156693,0.8762909999999999,-0.455589,-1.631902,-0.070855,0.788485,-0.06929099999999999,-0.307291,0.085396
481,0.376594,-1.0984040000000002,3.086074,0.16733499999999998,0.890482,-0.42313100000000003,-1.930928,-0.14446099999999998,0.540799,-0.13813,-0.5369970000000001,0.139776
482,0.408533,-1.1320299999999999,3.127681,0.168767,0.905276,-0.389862,-1.8716439999999999,-0.34370500000000004,-0.033235,-0.168416,-0.629428,0.126709
483,0.414087,-1.169608,-3.1383799999999997,0.157124,0.9205979999999999,-0.357508,-1.880697,-0.6085430000000001,-0.6610729999999999,-0.138753,-0.650624,0.050547
484,0.394226,-1.215064,3.138736,0.133771,0.937392,-0.321562,-2.186079,-0.722514,-1.1982389999999998,-0.072293,-0.629027,-0.037966
485,0.35546500000000003,-1.272294,3.1117619999999997,0.102351,0.955778,-0.275704,-2.682224,-0.621311,-1.567166,0.043462,-0.462812,-0.0017920000000000002
486,0.295241,-1.334861,3.061929,0.06801499999999999,0.9722959999999999,-0.22363899999999998,-2.712024,-0.6497890000000001,-1.612203,-0.009192,-0.015844999999999998,-0.019236000000000003
487,0.197638,-1.3873229999999999,2.981023,0.035824,0.983216,-0.178894,-1.9943669999999998,-1.136093,-1.301056,-0.207882,0.304717,-0.23323000000000002
488,0.104316,-1.410615,2.916525,0.016608,0.9871979999999999,-0.15863,-0.456888,-1.562975,-0.311278,-0.338477,0.548629,-0.297928
489,0.11199500000000001,-1.4033719999999998,2.947892,0.018624,0.986017,-0.165599,0.6779109999999999,-0.922047,0.660432,-0.103448,0.422171,-0.379628
490,0.236828,-1.380467,3.0903,0.044386,0.981942,-0.183902,0.988089,-0.557008,1.8094009999999998,-0.041089999999999995,0.24643600000000002,-0.279889
491,0.376934,-1.348875,-3.059239,0.081014,0.975476,-0.204652,1.156464,1.133664,1.643904,-0.324331,-0.261945,0.025301
492,0.448068,-1.3123280000000002,-3.013727,0.110732,0.966783,-0.230368,1.569188,1.097808,0.930056,-0.48763900000000004,0.143981,-0.076165
493,0.421379,-1.2879909999999999,-3.053534,0.11413699999999999,0.960276,-0.254641,1.1721840000000001,0.51403,-0.586707,-0.07055800000000001,0.053364999999999996,0.5545979999999999
494,0.332744,-1.278076,3.117583,0.09425399999999999,0.957462,-0.272731,0.8997799999999999,1.253423,-1.437726,0.073043,-0.189274,0.532512
495,0.297091,-1.2782799999999999,3.042416,0.084415,0.957521,-0.27573000000000003,-0.164761,1.899217,-0.841376,0.422299,-0.358446,0.761371
496,0.287199,-1.290159,3.01462,0.078456,0.960879,-0.26562399999999997,-0.296645,0.170526,-0.523888,0.820882,2.172391,-0.564332
497,0.262452,-1.303521,2.992214,0.068522,0.9644940000000001,-0.25506,-0.996657,-0.086781,-0.04027,1.269476,2.222563,-0.477896
498,0.36528299999999997,-1.318576,3.0902369999999997,0.089144,0.968361,-0.23309000000000002,-1.078395,0.438334,1.111097,0.411008,0.225685,0.12290699999999999
499,0.433475,-1.329504,-3.113255,0.100368,0.97103,-0.216856,-0.736967,-1.006529,0.370783,-0.27863699999999997,-0.055929999999999994,0.070982
500,0.416671,-1.342309,-3.097725,0.09167,0.97401,-0.207125,-0.634329,-1.85857,-0.295047,-0.095775,0.182316,0.131838
501,0.355277,-1.360076,-3.116181,0.072758,0.977881,-0.196102,-0.8790290000000001,-2.263364,-0.617772,-0.096439,0.111917,0.100017
502,0.295678,-1.38598,-3.137152,0.053547000000000004,0.9829700000000001,-0.175792,-1.306463,-1.662284,-0.579867,-0.122517,-0.146956,0.18946400000000002
503,0.255754,-1.4157620000000002,3.1268580000000004,0.039063,0.9880059999999999,-0.149392,-1.403769,-0.7288939999999999,-0.54756,-0.08480900000000001,-0.210296,0.16788499999999998
504,0.218202,-1.446072,3.09741,0.026930000000000003,0.992232,-0.121451,-1.444109,-0.24285199999999998,-0.58158,-0.05708099999999999,-0.246459,0.175223
505,0.143155,-1.476216,3.022304,0.013472999999999999,0.9955309999999999,-0.093474,-1.346054,0.057826,-0.734036,-0.0242,-0.232835,0.116606
506,-0.043443999999999997,-1.500723,2.834629,-0.003041,0.9975459999999999,-0.069951,-1.0896430000000001,-0.015954,-0.887042,0.077305,-0.19009600000000001,0.060674
507,-0.41142399999999996,-1.516465,2.4680470000000003,-0.021717,0.998524,-0.049773000000000005,-0.98345,-0.16955,-0.929901,0.216664,-0.20703600000000003,0.029754000000000003
508,-0.937416,-1.52217,1.9478830000000003,-0.039179000000000005,0.998818,-0.028769,-1.103473,-0.409285,-0.813996,0.291773,-0.22644899999999998,0.018042
509,-1.507032,-1.516391,1.3877,-0.054269000000000005,0.9985200000000001,-0.0034649999999999998,-1.328506,-0.534582,-0.7203350000000001,0.272989,-0.188599,0.011674
510,-1.926987,-1.497686,0.9800190000000001,-0.06846100000000001,0.9973290000000001,0.025472,-1.428554,-0.734441,-0.736801,0.212702,-0.071517,-0.017796
511,-2.141683,-1.471155,0.7816069999999999,-0.083701,0.9950399999999999,0.053755,-1.285987,-0.8965620000000001,-0.810373,0.122367,0.041947000000000005,-0.044249000000000004
512,-2.232734,-1.444431,0.709541,-0.099412,0.992027,0.077464,-0.987539,-1.020925,-0.8711540000000001,0.072526,0.091637,-0.09171499999999999
513,-2.273931,-1.422503,0.687871,-0.11270699999999999,0.989025,0.095537,-0.679585,-0.923657,-0.68753,0.094106,0.076374,-0.12487999999999999
514,-2.287677,-1.408496,0.6883630000000001,-0.121815,0.986858,0.10617,-0.324888,-0.5700770000000001,-0.43981499999999996,0.102772,0.05220399999999999,-0.092116
515,-2.283594,-1.40205,0.701101,-0.127057,0.9857959999999999,0.109829,-0.020794,-0.375881,-0.24993200000000002,0.169675,0.12254100000000001,-0.062069000000000006
516,-2.27019,-1.399144,0.721013,-0.13071,0.9853040000000001,0.10995999999999999,0.043337,-0.288995,-0.18870699999999999,0.253268,0.092714,-0.139776
517,-2.2641560000000003,-1.396796,0.734947,-0.13315,0.9849,0.110648,-0.007726,-0.461521,-0.156796,0.314791,0.18251900000000001,-0.20754099999999998
518,-2.269402,-1.394516,0.741379,-0.134287,0.984503,0.11278900000000001,-0.02576,-0.62148,-0.101181,0.300043,0.229471,-0.21429
519,-2.269046,-1.393868,0.753633,-0.13481600000000002,0.984389,0.113151,0.134438,-0.578389,-0.093708,0.32455900000000004,0.21273899999999998,-0.16468
520,-2.250665,-1.396082,0.784435,-0.135177,0.984776,0.10928299999999999,0.37206500000000003,-0.632522,-0.08236399999999999,0.385391,0.183421,-0.09758
521,-2.202782,-1.402452,0.847484,-0.135189,0.985864,0.09898,0.8162659999999999,-0.775795,-0.069464,0.382198,0.193732,-0.008022
522,-2.101234,-1.415377,0.971482,-0.133524,0.9879469999999999,0.078312,1.397529,-1.18413,0.04301,0.32757,0.201461,-0.069462
523,-1.926045,-1.434283,1.1768370000000001,-0.127592,0.9906969999999999,0.047335,1.97085,-1.541933,0.312392,0.235289,0.143352,-0.11366500000000002
524,-1.622749,-1.45329,1.5193780000000001,-0.117077,0.9931040000000001,0.0060880000000000005,2.4851,-1.9943099999999998,0.574005,0.094311,0.064315,0.029862
525,-1.169905,-1.456824,2.019606,-0.104709,0.9935120000000001,-0.04438,2.9844209999999998,-2.327904,0.714653,0.028613,0.037920999999999996,0.057564
526,-0.739698,-1.433563,2.5020130000000003,-0.092214,0.990598,-0.101052,3.106964,-2.444004,0.87055,0.002202,0.17761500000000002,0.253884
527,-0.456405,-1.395865,2.835833,-0.076704,0.9847379999999999,-0.156226,2.923658,-2.2436119999999997,1.265323,0.091215,0.332843,0.405891
528,-0.25213,-1.3558270000000001,3.083133,-0.053216,0.976983,-0.206573,2.5243759999999997,-1.655836,1.675182,0.21701900000000002,0.35794699999999996,0.046081
529,-0.080001,-1.321023,-2.998035,-0.019754,0.968968,-0.246394,1.8000619999999998,-1.013443,2.2942099999999996,0.334039,0.47396400000000005,-0.082586
530,0.080764,-1.2937530000000002,-2.8074619999999997,0.022066,0.9618680000000001,-0.272621,1.146472,-1.462465,2.463272,0.307219,0.421493,0.02314
531,0.18096199999999998,-1.267326,-2.654127,0.053783000000000004,0.954305,-0.293954,0.972836,-2.831896,2.219191,0.180897,0.201823,0.225442
532,0.21127800000000002,-1.239636,-2.5566310000000003,0.068185,0.945666,-0.317911,1.122793,-3.173639,1.504968,0.031119,0.008863,0.252039
533,0.20440999999999998,-1.213214,-2.4946490000000003,0.071048,0.936746,-0.342724,0.984825,-3.28816,1.226413,0.009503,-0.12304000000000001,0.265575
534,0.195251,-1.1937440000000001,-2.435637,0.07143200000000001,0.9297540000000001,-0.361186,0.610807,-3.141093,1.2695459999999998,0.047525,-0.172796,0.28782199999999997
535,0.196164,-1.179271,-2.370402,0.074377,0.924328,-0.37428,0.424662,-2.912892,1.372639,0.086649,-0.083538,0.287381
536,0.198284,-1.165792,-2.30485,0.07761799999999999,0.9191010000000001,-0.386303,0.397698,-2.975658,1.374667,0.032734,-0.056536,0.319637
537,0.190646,-1.1543940000000001,-2.244614,0.076645,0.91455,-0.397144,0.274395,-3.269672,1.215018,-0.007659999999999999,-0.09287999999999999,0.343098
538,0.168321,-1.147772,-2.193954,0.068773,0.911852,-0.40471799999999997,0.041708999999999996,-3.491768,1.013919,-0.099672,-0.137605,0.331034
539,0.144208,-1.148097,-2.146106,0.058953,0.911985,-0.405966,-0.299493,-3.261334,0.959966,-0.114754,-0.11526199999999999,0.301412
540,0.132955,-1.154957,-2.094505,0.05355,0.9147780000000001,-0.400393,-0.575643,-2.684313,1.022459,-0.13451300000000002,-0.11208900000000001,0.29265
541,0.140166,-1.165507,-2.037825,0.055085,0.918989,-0.390417,-0.7207640000000001,-1.944638,1.054681,-0.27665700000000004,-0.114988,0.239249
542,0.16672599999999999,-1.17727,-1.9792720000000001,0.063635,0.9235629999999999,-0.37813,-0.7654770000000001,-1.0100879999999999,1.0179200000000002,-0.31539,-0.13338599999999998,0.190523
543,0.20855500000000002,-1.188774,-1.9230369999999999,0.077186,0.9279129999999999,-0.364719,-0.762608,-0.276616,0.874926,-0.261726,-0.154628,-0.078625
544,0.252828,-1.201838,-1.87247,0.090213,0.9327040000000001,-0.349179,-0.9349200000000001,-0.120752,0.674834,0.009778,-0.101145,-0.339496
545,0.2889,-1.2193100000000001,-1.8275029999999999,0.098088,0.9388620000000001,-0.330025,-1.090162,-0.47507200000000005,0.439195,0.12676500000000002,-0.100651,-0.338233
546,0.303317,-1.23611,-1.795278,0.098111,0.9445129999999999,-0.313479,-0.814774,-0.946889,0.175736,0.264942,-0.081995,-0.301512
547,0.29644000000000004,-1.241947,-1.780556,0.094341,0.946415,-0.308868,-0.041937,-1.09976,0.172784,0.551808,0.093838,-0.054062
548,0.285965,-1.233538,-1.7648119999999998,0.093342,0.943666,-0.317463,0.460081,-1.368031,0.49176000000000003,0.48693500000000006,0.066329,-0.049801
549,0.283646,-1.222091,-1.734262,0.095622,0.939816,-0.328029,0.31580199999999997,-1.6614330000000002,0.729342,0.286061,-0.072201,-0.039266
550,0.288416,-1.214884,-1.692752,0.09911,0.9373290000000001,-0.334054,0.06467200000000001,-1.670477,0.81092,0.119121,-0.076947,0.018456
551,0.306357,-1.211506,-1.645993,0.10604100000000001,0.936147,-0.335239,-0.162101,-1.077443,0.8224629999999999,-0.027977,0.383327,0.046542
552,0.321146,-1.2147270000000001,-1.608148,0.110035,0.9372739999999999,-0.330771,-0.558012,-0.9893700000000001,0.45318500000000006,0.128658,1.32475,0.114462
553,0.36346,-1.226184,-1.550545,0.120103,0.941207,-0.315762,-0.94857,-0.492593,0.967908,-0.344468,0.121827,0.28844899999999996
554,0.40436700000000003,-1.2382440000000001,-1.4928059999999999,0.12844,0.945212,-0.300128,-0.86164,-0.716418,0.389826,-0.33184,-0.336219,0.275043
555,0.408615,-1.252748,-1.475861,0.124253,0.9498469999999999,-0.286968,-0.7626430000000001,-0.518989,-0.31583,-0.101884,-0.403095,0.419033
556,0.365225,-1.273691,-1.5075450000000001,0.10455999999999999,0.9561879999999999,-0.273444,-0.778546,-0.856461,-1.155132,0.15757100000000002,-0.10958499999999999,0.468711
557,0.24951199999999998,-1.294666,-1.597573,0.067322,0.962118,-0.264192,-0.49808500000000006,-1.8589209999999998,-1.6550200000000002,0.168487,0.047221,0.429017
558,0.10128,-1.3095450000000002,-1.706188,0.026115,0.966068,-0.25696599999999997,-0.543573,-2.235807,-1.404891,-0.029456,0.378461,0.25222
559,-0.008307,-1.3257709999999998,-1.7777290000000001,-0.002015,0.970131,-0.24257199999999998,-0.902257,-1.754005,-0.636758,-0.061049,0.285713,0.10589900000000001
560,-0.058043,-1.347437,-1.807934,-0.01285,0.975159,-0.22113400000000002,-1.196839,-0.5916170000000001,-0.15853699999999998,-0.04228,0.10339300000000001,0.042866
561,-0.081204,-1.372557,-1.828359,-0.015975,0.9804149999999999,-0.196295,-1.261515,-0.014063999999999998,-0.145842,0.093413,-0.15329700000000002,0.12212200000000001
562,-0.119098,-1.395142,-1.864211,-0.020763999999999998,0.984612,-0.173515,-1.088163,-0.254944,-0.263963,0.253292,-0.10714000000000001,0.14530099999999999
563,-0.185695,-1.414355,-1.9217529999999998,-0.028766000000000003,0.9877879999999999,-0.153125,-0.997707,-0.6394380000000001,-0.360047,0.263004,-0.10741700000000001,0.116443
564,-0.281445,-1.4323489999999999,-2.001444,-0.03833,0.990431,-0.132575,-1.018435,-0.967514,-0.349089,0.24169899999999997,-0.16050599999999998,0.118171
565,-0.39705100000000004,-1.449078,-2.095278,-0.046952,0.9926020000000001,-0.111972,-0.9612440000000001,-1.195034,-0.24478000000000003,0.190156,-0.206118,0.143512
566,-0.526794,-1.463514,-2.199411,-0.053834,0.994251,-0.09256,-0.8950670000000001,-1.386109,-0.204549,0.11956900000000001,-0.203495,0.18689
567,-0.698444,-1.476414,-2.342027,-0.0606,0.995549,-0.072175,-0.991761,-1.531731,-0.200765,0.039436,-0.107518,0.203034
568,-0.940371,-1.488211,-2.556494,-0.066635,0.996592,-0.048628,-1.138822,-1.288209,-0.23308299999999998,0.008453,0.027426,0.099089
569,-1.24906,-1.494275,-2.84622,-0.072524,0.997074,-0.024174,-1.1589459999999998,-0.809724,-0.26161999999999996,0.003646,0.102276,-0.06383899999999999
570,-1.549151,-1.491873,-3.135595,-0.078822,0.9968870000000001,-0.0017059999999999998,-1.019331,-0.44663400000000003,-0.340159,0.06859900000000001,0.082199,-0.17081
571,-1.748725,-1.483393,2.9548669999999997,-0.085914,0.996183,0.01545,-0.7049979999999999,-0.330419,-0.371227,0.15726400000000001,-0.002118,-0.12720499999999998
572,-1.838713,-1.474193,2.87055,-0.093012,0.995337,0.025533,-0.36354000000000003,-0.286994,-0.337919,0.22021,-0.01374,-0.073995
573,-1.8714819999999999,-1.467649,2.844718,-0.098345,0.994685,0.030494999999999998,-0.13508,-0.400015,-0.244311,0.224352,0.046666,-0.067422
574,-1.877177,-1.464072,2.847398,-0.101561,0.99431,0.032128,0.018911,-0.449988,-0.13528099999999998,0.186049,0.032667,-0.072121
575,-1.86451,-1.4626190000000001,2.871299,-0.103343,0.9941549999999999,0.031257,0.13639300000000001,-0.630546,-0.105387,0.200511,0.040407,-0.092414
576,-1.85706,-1.462134,2.89379,-0.10403599999999999,0.994102,0.030623,0.06489199999999999,-0.789357,-0.022362,0.24649200000000002,0.12452,-0.12725699999999998
577,-1.8667029999999998,-1.463103,2.8991700000000002,-0.10281300000000002,0.994207,0.031343,0.07235,-0.691779,0.07797799999999999,0.26312199999999997,0.192546,-0.080828
578,-1.826512,-1.468884,2.95296,-0.098427,0.9948110000000001,0.025733,0.585514,-0.725291,0.287772,0.337579,0.235413,0.061456
579,-1.665831,-1.4793100000000001,3.128906,-0.090947,0.995818,0.008669,1.12344,-0.765054,0.44113199999999997,0.392705,0.270417,0.12185499999999999
580,-1.3660729999999999,-1.48938,-2.8335049999999997,-0.07962799999999999,0.9966879999999999,-0.016533000000000003,1.4728299999999999,-1.1485020000000001,0.657708,0.316963,0.202348,0.049339999999999995
581,-0.897443,-1.489647,-2.3332349999999997,-0.06336699999999999,0.9967090000000001,-0.05055,2.053631,-1.700374,0.9679840000000001,0.062176999999999996,0.07438099999999999,0.043836
582,-0.427976,-1.4615719999999999,-1.821207,-0.045241,0.994041,-0.099176,2.857413,-2.192652,1.100279,-0.048875,0.022408,0.102136
583,-0.173848,-1.4048049999999999,-1.5205110000000002,-0.02858,0.9862549999999999,-0.16273900000000002,3.518011,-2.1088310000000003,1.14431,-0.307846,0.209454,0.179127
584,-0.052264,-1.333758,-1.3610440000000001,-0.012267,0.972038,-0.234504,3.7319150000000003,-1.473781,1.188788,-0.346787,0.370446,0.195915
585,0.021908,-1.264831,-1.266691,0.0065980000000000006,0.953557,-0.301141,3.2246919999999997,-0.373768,1.199858,-0.274497,0.717128,0.366174
586,0.09349600000000001,-1.209106,-1.196426,0.033036,0.9353,-0.35231,2.40531,0.551814,1.413003,-0.024079,0.381091,0.209091
587,0.174751,-1.166288,-1.123485,0.068426,0.9192959999999999,-0.387573,1.6884720000000002,0.6892590000000001,1.7614009999999998,0.10499000000000001,0.35992399999999997,0.13005
588,0.254653,-1.1307,-1.043001,0.10732,0.904711,-0.412287,1.2290219999999998,-0.04672,2.127671,0.34907,0.431242,0.022044
589,0.314472,-1.1004200000000002,-0.955399,0.140188,0.8913979999999999,-0.430996,0.679554,-1.450958,2.388415,0.24444000000000002,0.37297600000000003,0.098614
590,0.359786,-1.073724,-0.8635430000000001,0.167888,0.8789819999999999,-0.44632200000000005,0.557779,-1.940634,2.406352,0.09908,0.22329699999999997,0.111575
591,0.372553,-1.047369,-0.792642,0.181943,0.8661110000000001,-0.465563,0.5988760000000001,-2.8238790000000003,1.871523,-0.032926,-0.038794999999999996,0.208788
592,0.347273,-1.0274780000000001,-0.742598,0.175946,0.8559979999999999,-0.48611800000000005,0.389146,-3.709533,1.3573790000000001,-0.09261799999999999,-0.25971500000000003,0.411854
593,0.30164,-1.016744,-0.705209,0.156308,0.850399,-0.502383,0.074285,-3.8954,0.9591069999999999,-0.106885,-0.41572200000000004,0.47960200000000003
594,0.251868,-1.0148549999999998,-0.676848,0.131521,0.849404,-0.511092,-0.223225,-3.4924370000000002,0.612545,-0.10918199999999999,-0.47017700000000007,0.440459
595,0.206456,-1.020111,-0.6587609999999999,0.107267,0.852166,-0.512159,-0.435133,-2.762869,0.300346,-0.158735,-0.43436499999999995,0.367948
596,0.167485,-1.029611,-0.649285,0.085878,0.8570989999999999,-0.507944,-0.545419,-2.125612,0.074432,-0.127687,-0.382306,0.31948200000000004
597,0.134903,-1.041395,-0.645651,0.067922,0.86311,-0.500428,-0.635389,-1.581645,-0.016624,-0.136541,-0.32835,0.25349499999999997
598,0.112624,-1.05605,-0.641884,0.055328999999999996,0.870418,-0.489195,-0.8116369999999999,-1.113537,0.023206,-0.130876,-0.25590100000000005,0.19073299999999999
599,0.100351,-1.075044,-0.636714,0.047656,0.879611,-0.4733,-1.049563,-0.654583,0.008137,-0.190082,-0.19156199999999998,0.163043
600,0.09673,-1.098924,-0.634591,0.0439,0.890719,-0.45243,-1.271358,-0.037592,-0.11491199999999999,-0.231965,-0.15555,0.143623
601,0.100936,-1.1262780000000001,-0.6374340000000001,0.043331,0.902818,-0.427835,-1.386606,0.5460119999999999,-0.23931,-0.19025799999999998,-0.136231,0.133142
602,0.11190599999999999,-1.153705,-0.641717,0.045239,0.914271,-0.402569,-1.307657,0.814063,-0.20812399999999998,-0.083355,-0.18986,0.125668
603,0.126635,-1.177339,-0.643301,0.04842,0.923589,-0.380314,-1.078583,0.800261,-0.152027,-0.025715,-0.178258,0.091892
604,0.138774,-1.195767,-0.646129,0.05067,0.9304969999999999,-0.36277800000000004,-0.79498,0.712105,-0.196934,0.006703,-0.246094,0.089814
605,0.143771,-1.2083030000000001,-0.653502,0.050807,0.935016,-0.350948,-0.499054,0.534354,-0.22455,0.025838,-0.32043699999999997,0.11169000000000001
606,0.147287,-1.216813,-0.661628,0.050871,0.937999,-0.342884,-0.367763,0.5859449999999999,-0.18631099999999998,0.039553,-0.40353,0.137074
607,0.154828,-1.2253530000000001,-0.667863,0.052217999999999994,0.940925,-0.334564,-0.450441,0.727826,-0.164638,0.023694999999999997,-0.392509,0.15640199999999999
608,0.16635999999999998,-1.236797,-0.6725939999999999,0.054286,0.944739,-0.323298,-0.612139,0.822175,-0.175502,-0.05329400000000001,-0.310446,0.144541
609,0.177953,-1.250758,-0.676951,0.055689999999999996,0.9492229999999999,-0.309635,-0.701995,0.75331,-0.192065,-0.158046,-0.166768,0.06425800000000001
610,0.190625,-1.265036,-0.678056,0.057035,0.9536180000000001,-0.295566,-0.686855,0.6463869999999999,-0.10636400000000001,-0.231107,-0.030706,0.0013460000000000002
611,0.204479,-1.277347,-0.6752600000000001,0.058736000000000003,0.957252,-0.28323000000000004,-0.5424140000000001,0.499943,-0.10623599999999998,-0.27715,-0.019523,-0.088138
612,0.206121,-1.287241,-0.681103,0.057259000000000004,0.960067,-0.27384899999999995,-0.46842799999999996,0.232752,-0.218608,-0.36650900000000003,0.264939,-0.258042
613,0.19405999999999998,-1.29578,-0.693191,0.052369000000000006,0.9624209999999999,-0.266466,-0.332491,-0.184081,-0.258785,-0.188722,0.761624,0.033555
614,0.18776700000000002,-1.301895,-0.698318,0.049592000000000004,0.9640629999999999,-0.26100300000000004,-0.101406,0.267673,0.054171000000000004,0.41384799999999994,0.344881,0.688249
615,0.22905100000000003,-1.295657,-0.67295,0.061686000000000005,0.9623870000000001,-0.264585,0.271106,0.800214,0.553882,0.302023,-0.12651099999999998,0.522184
616,0.268664,-1.297167,-0.629671,0.07173,0.9627959999999999,-0.260534,-0.49689700000000003,-0.373087,0.528656,0.24109,0.21432800000000002,0.018835
617,0.31955700000000004,-1.3075709999999998,-0.576591,0.08174,0.965556,-0.24702399999999997,-0.8582709999999999,0.200099,0.558513,0.542833,0.66477,-0.350373
618,0.382058,-1.319987,-0.519777,0.092532,0.9687120000000001,-0.23029299999999997,-0.604807,0.650474,0.398404,0.530209,1.8857650000000001,-0.27211799999999997
619,0.44958400000000004,-1.317743,-0.46955600000000003,0.108805,0.968152,-0.225483,0.069772,0.8406629999999999,1.002145,0.292288,1.238635,0.126728
620,0.510116,-1.307911,-0.405357,0.126888,0.9656440000000001,-0.226784,0.033669,-0.6301359999999999,0.679029,0.013905,-0.015434,0.168953
621,0.507563,-1.305572,-0.385144,0.127406,0.9650340000000001,-0.22908,-0.124653,-1.294152,0.10513900000000001,0.133992,-0.041556,0.175781
622,0.483545,-1.312009,-0.37868,0.118977,0.966701,-0.226569,-0.42140900000000003,-1.598833,-0.166804,0.08251499999999999,-0.038921,0.194113
623,0.45637799999999995,-1.324732,-0.374546,0.107349,0.969879,-0.21865900000000002,-0.695691,-1.477117,-0.263947,-0.099354,-0.09600800000000001,0.23628200000000002
624,0.444,-1.342692,-0.364913,0.097136,0.9740969999999999,-0.204206,-0.9528459999999999,-0.800723,-0.29331599999999997,-0.21888600000000002,-0.18370699999999998,0.24516
625,0.458441,-1.363748,-0.344329,0.090976,0.978642,-0.184345,-1.07428,0.015455000000000002,-0.232185,-0.23244,-0.187611,0.16458499999999998
626,0.495342,-1.38342,-0.314705,0.088546,0.9824959999999999,-0.163892,-0.923709,0.571865,-0.180571,-0.203032,-0.157271,0.025769
627,0.525469,-1.397038,-0.299249,0.08672200000000001,0.984942,-0.149561,-0.47738,0.833665,-0.23654099999999997,-0.188117,-0.151202,-0.0651
628,0.5253770000000001,-1.402764,-0.316797,0.083879,0.985916,-0.14468699999999998,-0.019433000000000002,0.8439709999999999,-0.280357,-0.017472,-0.19734200000000002,-0.236371
629,0.5117229999999999,-1.403267,-0.346049,0.081653,0.986,-0.145387,0.139427,0.6811,-0.180763,0.097974,-0.230919,-0.21272199999999997
630,0.494051,-1.399851,-0.37254499999999996,0.080667,0.985424,-0.14977100000000002,0.359957,0.233587,-0.081441,0.43031899999999995,-0.37016,-0.012384000000000001
631,0.459319,-1.390785,-0.405438,0.079376,0.983842,-0.160484,0.606721,-0.349154,-0.020218,0.381409,-0.453705,0.004829
632,0.414346,-1.378981,-0.436137,0.076751,0.9816600000000001,-0.174509,0.669933,-0.974801,0.007731,0.330384,-0.465348,0.032023
633,0.365336,-1.365348,-0.460715,0.072884,0.9789700000000001,-0.19054200000000002,0.770396,-1.356737,0.062333000000000006,0.21064000000000002,-0.329281,0.098272
634,0.320029,-1.348286,-0.477678,0.069424,0.975347,-0.20947399999999997,0.918927,-1.4503030000000001,0.155358,0.22482600000000003,-0.20851599999999998,0.09628400000000001
635,0.284684,-1.327775,-0.486703,0.067584,0.970615,-0.23095,1.08922,-1.24129,0.219304,0.240644,-0.129459,0.097329
636,0.25191199999999997,-1.301267,-0.496982,0.066372,0.9638959999999999,-0.257874,1.468608,-1.089249,0.230305,0.35083400000000003,-0.056577999999999996,0.18199200000000001
637,0.22070700000000001,-1.264475,-0.5079899999999999,0.06601599999999999,0.953449,-0.294239,2.0617400000000004,-1.0223959999999999,0.313411,0.091562,0.015896,0.09557
638,0.19408399999999998,-1.211983,-0.514892,0.067728,0.936314,-0.34457,2.927654,-0.9005610000000001,0.5297430000000001,-0.017939,0.22257600000000002,0.008190000000000001
639,0.18870599999999998,-1.143923,-0.5066649999999999,0.077667,0.910265,-0.406677,3.455243,-0.57713,0.97419,-0.10293499999999998,0.47479099999999996,-0.055420000000000004
640,0.194123,-1.073256,-0.48959300000000006,0.092067,0.8787590000000001,-0.468301,3.255109,-0.406281,1.0462799999999999,-0.458599,0.8541200000000001,-0.191001
641,0.20871900000000002,-1.01419,-0.46401499999999996,0.10946900000000001,0.8490530000000001,-0.516842,2.435116,-0.31062,1.277575,-0.409487,0.728614,-0.033985
642,0.23518200000000003,-0.970774,-0.43451899999999993,0.131577,0.8253229999999999,-0.549117,1.6884290000000002,0.372931,1.214868,-0.23721399999999998,0.3538,0.039504000000000004
643,0.26035,-0.937535,-0.411753,0.152335,0.8061020000000001,-0.5718340000000001,1.301959,0.24767600000000004,0.905749,-0.034339,0.143239,-0.044361000000000005
644,0.280065,-0.915084,-0.397096,0.16853900000000002,0.792614,-0.585968,0.767633,0.50412,0.6421100000000001,-0.151327,0.328388,-0.160294
645,0.30315,-0.9029389999999999,-0.38266500000000003,0.18488,0.78515,-0.591066,0.24345100000000003,0.619056,0.592368,-0.176808,0.315787,-0.11314300000000001
646,0.33258000000000004,-0.902748,-0.361858,0.202242,0.785032,-0.585511,-0.454138,0.672546,0.6077229999999999,-0.17982599999999999,0.155397,0.011902
647,0.368628,-0.9146559999999999,-0.33569099999999996,0.21982800000000002,0.7923520000000001,-0.5690810000000001,-1.043039,0.8378959999999999,0.527554,-0.21550999999999998,-0.024072,0.117283
648,0.407277,-0.934893,-0.30603,0.235252,0.8045359999999999,-0.545325,-1.38889,0.6246149999999999,0.35129099999999996,-0.17139400000000002,-0.262406,0.18749100000000002
649,0.437608,-0.96154,-0.28023200000000004,0.242508,0.820074,-0.518332,-1.581402,0.40830900000000003,-0.000153,-0.21141,-0.285727,0.191733
650,0.459106,-0.993252,-0.263258,0.241944,0.8378059999999999,-0.489433,-1.671527,0.345353,-0.427991,-0.19456600000000002,-0.367133,0.151359
651,0.47043999999999997,-1.03215,-0.257215,0.23251999999999998,0.8584040000000001,-0.45724899999999996,-1.8978700000000002,0.31606799999999996,-0.899552,-0.071937,-0.506842,0.011204
652,0.472157,-1.078103,-0.26085,0.215125,0.8810620000000001,-0.421249,-2.058166,0.168802,-1.228427,-0.041158999999999994,-0.512624,-0.029327999999999996
653,0.46182799999999996,-1.126897,-0.273748,0.191363,0.903084,-0.384474,-1.9947560000000002,0.043797,-1.457491,0.022443,-0.5359119999999999,-0.034716000000000004
654,0.43615600000000004,-1.173314,-0.30485999999999996,0.16353299999999998,0.9220379999999999,-0.35085900000000003,-1.700979,0.23080799999999999,-1.592411,-0.040516,-0.32892899999999997,-0.14023
655,0.407999,-1.21497,-0.345096,0.138222,0.937359,-0.31977,-1.556883,0.601608,-1.4722389999999999,-0.003624,-0.09247999999999999,-0.176293
656,0.378334,-1.249116,-0.389862,0.116781,0.9487059999999999,-0.293802,-1.036352,0.560554,-1.2474290000000001,-0.102423,0.14538,-0.064154
657,0.333897,-1.264575,-0.441403,0.09879600000000001,0.9534799999999999,-0.28480900000000003,-0.125332,-0.009903,-0.838683,-0.270534,-0.003971,0.14545
658,0.29989099999999996,-1.268247,-0.472013,0.088021,0.9545799999999999,-0.284657,-0.152528,-0.32718800000000003,-0.324651,-0.22829499999999997,-0.169256,0.192799
659,0.29865,-1.281392,-0.470246,0.083968,0.958414,-0.27274899999999996,-0.9127360000000001,0.016465,-0.09112,-0.30082600000000004,-0.017953999999999998,0.12908699999999998
660,0.332543,-1.303926,-0.441129,0.086089,0.964601,-0.249266,-1.286934,0.458222,0.04991,-0.278105,0.546904,0.22959699999999997
661,0.381488,-1.3271959999999998,-0.407641,0.089798,0.970476,-0.223858,-1.115623,1.0425659999999999,0.024721,-0.11851500000000001,0.366118,0.194043
662,0.451229,-1.3384790000000002,-0.363117,0.100398,0.9731360000000001,-0.20718899999999998,-0.561241,1.562189,0.400737,0.11583399999999999,0.348871,0.026556
663,0.554765,-1.343541,-0.296164,0.118677,0.974289,-0.19151400000000002,-0.635296,2.125228,0.587505,0.43726099999999996,0.5139779999999999,0.12642
664,0.654343,-1.344462,-0.23656,0.13658299999999998,0.9744959999999999,-0.178055,-0.242664,1.759004,0.456121,0.558577,0.46285200000000004,-0.162948
665,0.7074050000000001,-1.3424180000000001,-0.200225,0.147128,0.974035,-0.172074,-0.17688800000000002,0.38498899999999997,0.351519,0.669553,0.89181,-0.125808
666,0.727317,-1.338681,-0.17456300000000002,0.152944,0.973182,-0.171829,0.028610000000000003,-0.646951,0.361754,0.40246,0.382974,0.03688
667,0.721321,-1.33429,-0.159321,0.15473199999999998,0.9721620000000001,-0.17595,0.052627999999999994,-1.165159,0.195943,0.100685,0.15473,0.083954
668,0.694865,-1.33318,-0.160705,0.15071400000000001,0.971902,-0.180809,0.034057,-1.286545,-0.06788200000000001,-0.0026579999999999998,0.114676,0.166588
669,0.661602,-1.335939,-0.170439,0.142969,0.9725469999999999,-0.183606,-0.064637,-1.083189,-0.220519,-0.069773,0.076555,0.175427
670,0.632837,-1.340013,-0.182819,0.135285,0.9734870000000001,-0.184445,-0.088382,-0.680387,-0.231883,-0.17494300000000002,-0.080589,0.175519
671,0.614925,-1.344758,-0.19247,0.12929300000000002,0.974562,-0.183064,-0.149573,-0.281803,-0.223216,-0.168524,-0.15093800000000002,0.140263
672,0.607813,-1.350065,-0.197048,0.125033,0.9757379999999999,-0.17973,-0.213842,-0.062289,-0.184422,-0.148302,-0.22158699999999998,0.10969200000000001
673,0.604353,-1.355948,-0.20092100000000002,0.121146,0.977009,-0.17543499999999998,-0.20247300000000001,0.051823,-0.226149,-0.142097,-0.42531199999999997,0.053838
674,0.591802,-1.361781,-0.214957,0.115754,0.9782360000000001,-0.172209,-0.146498,0.072232,-0.316583,-0.13037200000000002,-0.47666400000000003,0.018553
675,0.577779,-1.367844,-0.23355,0.11008599999999999,0.979476,-0.168843,-0.146477,0.309807,-0.32116100000000003,-0.073678,-0.540099,-0.011576999999999999
676,0.566271,-1.372863,-0.253769,0.10549700000000001,0.980475,-0.165949,-0.05311799999999999,0.452138,-0.29825799999999997,0.032839,-0.5858979999999999,0.040369
677,0.542714,-1.374241,-0.286771,0.100861,0.9807450000000001,-0.16723,0.219941,0.40551,-0.329406,0.08644099999999999,-0.6138319999999999,0.002649
678,0.501204,-1.371804,-0.335875,0.09498200000000001,0.980266,-0.173368,0.396681,0.302715,-0.350472,0.158146,-0.513241,0.016858
679,0.465292,-1.366809,-0.37695,0.090892,0.979267,-0.18104,0.422468,0.070646,-0.147033,0.189152,-0.280414,0.016749
680,0.440716,-1.356257,-0.39567800000000003,0.09081900000000001,0.977075,-0.192554,0.6884060000000001,-0.5025310000000001,0.16961700000000002,0.227204,-0.099008,-0.026119999999999997
681,0.417088,-1.335078,-0.405545,0.094608,0.972347,-0.21352,1.223506,-0.811228,0.446147,0.372891,0.21307800000000002,-0.025234
682,0.39062800000000003,-1.3005120000000001,-0.413287,0.101667,0.9636950000000001,-0.246892,1.889473,-1.038051,0.647642,0.405794,-0.05425599999999999,0.19054100000000002
683,0.342008,-1.25102,-0.43551899999999993,0.105428,0.949306,-0.296148,2.7633970000000003,-1.614744,0.517753,0.321696,-0.251994,0.280477
684,0.277607,-1.185391,-0.463768,0.103027,0.9266459999999999,-0.36154200000000003,3.554331,-1.9543419999999998,0.574987,0.026368,0.139501,-0.068482
685,0.231704,-1.1077059999999999,-0.479199,0.10258199999999999,0.894676,-0.434778,3.919513,-1.296671,0.692063,-0.12663,0.908638,-0.391882
686,0.202622,-1.036361,-0.484196,0.102502,0.860556,-0.498935,3.119592,-1.313834,0.615995,-0.309411,1.314828,-0.21752600000000002
687,0.186558,-0.9858610000000001,-0.477041,0.10241099999999999,0.8337479999999999,-0.542565,2.087629,-0.768546,0.744821,-0.6236659999999999,0.681557,-0.005104
688,0.204227,-0.953594,-0.457201,0.117378,0.815501,-0.566728,1.102408,0.48376199999999997,0.913659,-0.5466840000000001,0.35670999999999997,-0.100096
689,0.237087,-0.936282,-0.43544799999999995,0.139229,0.8053600000000001,-0.576204,0.546773,0.8103319999999999,0.713875,-0.422249,0.390151,-0.084395
690,0.265527,-0.9255030000000001,-0.420415,0.157826,0.798924,-0.5803550000000001,0.31411300000000003,0.830059,0.5113989999999999,-0.143224,0.381176,-0.08631699999999999
691,0.291663,-0.924054,-0.407905,0.173272,0.7980510000000001,-0.57714,-0.306312,0.7732479999999999,0.338359,-0.046426,0.419936,-0.150704
692,0.321483,-0.937111,-0.38873,0.187094,0.805851,-0.561783,-1.0534649999999999,0.685361,0.320434,-0.026708999999999997,0.4035,-0.009963
693,0.351552,-0.960606,-0.36551100000000003,0.197323,0.8195389999999999,-0.537977,-1.470021,0.481616,0.218441,-0.15243199999999998,-0.019872,0.13375599999999999
694,0.381374,-0.990792,-0.339845,0.203974,0.83646,-0.508654,-1.785506,0.42569799999999997,0.090258,-0.21561599999999997,-0.128651,0.11863900000000001
695,0.409,-1.027455,-0.317377,0.20560599999999998,0.855986,-0.474357,-1.9703849999999998,0.402506,-0.342565,-0.158197,-0.368071,0.120353
696,0.419083,-1.069809,-0.311784,0.195442,0.877109,-0.438729,-1.997498,0.180239,-0.944947,-0.127647,-0.556796,0.056480999999999996
697,0.406292,-1.1162809999999999,-0.327602,0.173506,0.898474,-0.40328600000000003,-1.9620689999999998,-0.013958000000000002,-1.4283549999999998,-0.053999,-0.667181,0.008465
698,0.371762,-1.1635030000000002,-0.362146,0.143896,0.9181959999999999,-0.369066,-1.864248,-0.254382,-1.5950739999999999,0.001169,-0.720747,0.049349000000000004
699,0.32253200000000004,-1.2075799999999999,-0.40922600000000003,0.112614,0.934759,-0.336963,-1.735484,-0.291197,-1.557808,0.073269,-0.721288,0.077777
700,0.265953,-1.248881,-0.46501400000000004,0.08315499999999999,0.948631,-0.305261,-1.6656970000000002,-0.0937,-1.4571610000000002,0.037893,-0.598396,0.043496
701,0.205672,-1.284793,-0.530623,0.057615999999999994,0.9593790000000001,-0.276175,-1.408782,0.22766,-1.3254549999999998,0.040467,-0.510328,0.033636
702,0.139148,-1.312034,-0.6046600000000001,0.035491,0.966707,-0.253411,-1.015189,0.162663,-1.130342,-0.107482,-0.112429,0.032922
703,0.07625599999999999,-1.328703,-0.666276,0.018264,0.9708379999999999,-0.23903899999999997,-0.5919449999999999,-0.362784,-0.6321260000000001,-0.267104,0.10458599999999998,-0.010045
704,0.04286,-1.336589,-0.689513,0.009944,0.972699,-0.231859,-0.267357,-0.5447890000000001,-0.15426700000000002,-0.39106199999999997,0.24161100000000002,-0.094221
705,0.036573,-1.341217,-0.69233,0.008320999999999999,0.9737620000000001,-0.22741599999999998,-0.253278,0.14054,0.010528000000000001,-0.481984,0.39962,-0.17924600000000002
706,0.071602,-1.349572,-0.6733859999999999,0.015698,0.9756299999999999,-0.218862,-0.541763,1.291915,0.307208,-0.377224,0.49923900000000004,0.001424
707,0.168158,-1.363536,-0.614095,0.034441,0.978598,-0.202877,-0.89133,2.238597,0.696659,-0.312654,0.484414,0.190197
708,0.31294099999999997,-1.370591,-0.518687,0.061224,0.9800260000000001,-0.189212,-0.23091599999999998,2.649995,0.8727280000000001,0.1038,-0.07019,0.264834
709,0.41167700000000007,-1.358846,-0.466804,0.084178,0.9776229999999999,-0.19279100000000002,0.5805819999999999,2.266978,0.581922,0.328496,-0.27079000000000003,0.010998
710,0.47088599999999997,-1.3483459999999998,-0.45133100000000004,0.10009,0.97536,-0.19660899999999998,0.215133,2.069219,0.270906,0.393486,-0.209918,0.021911
711,0.501995,-1.349625,-0.44042,0.105557,0.975641,-0.192307,-0.281565,0.146406,-0.099704,0.5699649999999999,0.644293,0.041321
712,0.483958,-1.358235,-0.44597600000000004,0.098159,0.9774940000000001,-0.18673800000000002,-0.387042,-0.652767,-0.22012600000000002,0.639939,0.8237,-0.253433
713,0.524072,-1.364434,-0.401946,0.10253399999999999,0.978783,-0.177401,-0.510933,0.090248,0.555722,0.610387,1.044517,-0.189695
714,0.614057,-1.36123,-0.311131,0.119868,0.9781209999999999,-0.170031,-0.284069,-0.06769299999999999,0.961297,0.040257999999999995,0.22299000000000002,0.147524
715,0.662024,-1.353241,-0.254399,0.132682,0.9764280000000001,-0.170246,0.13824,-0.561624,0.506613,0.005868,-0.092547,0.023152000000000002
716,0.646428,-1.345887,-0.25597800000000004,0.13433299999999998,0.974814,-0.178022,0.34629499999999996,-0.738571,0.088482,0.083624,-0.125144,0.088102
717,0.613854,-1.340484,-0.272276,0.131495,0.9735950000000001,-0.186605,0.29073699999999997,-0.861526,-0.017503,0.068334,-0.1661,0.103826
718,0.58727,-1.338614,-0.284209,0.127498,0.973166,-0.19155,0.066851,-0.660184,-0.090896,-0.009883,-0.243308,0.113974
719,0.5690810000000001,-1.341611,-0.291846,0.12242,0.973852,-0.191379,-0.169808,-0.47786999999999996,-0.18999000000000002,-0.076705,-0.347997,0.087512
720,0.5585760000000001,-1.348242,-0.29479,0.116978,0.9753370000000001,-0.187174,-0.295993,-0.315467,-0.200694,-0.065098,-0.429912,0.038126
721,0.555323,-1.355397,-0.29324,0.112686,0.976891,-0.18162,-0.30197199999999996,-0.182444,-0.161382,-0.043227999999999996,-0.474053,0.016779
722,0.551397,-1.360215,-0.295792,0.10950499999999999,0.9779100000000001,-0.178049,-0.11346300000000001,-0.008447,-0.149614,0.04496,-0.518834,0.035379
723,0.5405310000000001,-1.361542,-0.30948600000000004,0.106896,0.9781860000000001,-0.178115,0.098605,0.162374,-0.16117,0.09275,-0.494284,0.045837
724,0.522196,-1.359278,-0.329996,0.104717,0.9777129999999999,-0.18196400000000001,0.27276,0.040088,-0.10104500000000001,0.15247,-0.348319,0.031557999999999996
725,0.499104,-1.352375,-0.350837,0.103716,0.976241,-0.190255,0.506595,-0.254237,0.039835,0.204787,-0.134978,-0.033042
726,0.47386999999999996,-1.338156,-0.368197,0.105207,0.9730610000000001,-0.205144,0.874634,-0.552412,0.22759000000000001,0.286075,0.055183,0.026706999999999998
727,0.43551599999999996,-1.3124120000000001,-0.38973800000000003,0.107798,0.9668040000000001,-0.23166599999999998,1.5728879999999998,-1.019836,0.36338899999999996,0.338873,0.001854,0.225059
728,0.374295,-1.268082,-0.42676800000000004,0.10899500000000001,0.9545309999999999,-0.277473,2.667513,-1.427664,0.43672,0.289168,-0.053423000000000005,0.295509
729,0.306788,-1.201065,-0.46351099999999995,0.10913199999999999,0.932424,-0.344493,3.732453,-1.6803150000000002,0.623943,-0.10272300000000001,0.453013,-0.048313999999999996
730,0.258525,-1.119217,-0.484255,0.11156500000000001,0.899759,-0.421885,4.109015,-1.325279,0.755374,-0.295616,0.994025,-0.17597000000000002
731,0.223942,-1.041061,-0.49643699999999996,0.11221600000000001,0.862941,-0.492687,3.658156,-1.15049,0.592835,-0.46672299999999994,0.980245,-0.048817
732,0.205186,-0.976633,-0.499205,0.11406199999999998,0.828617,-0.5480729999999999,2.816981,-0.46396499999999996,0.667265,-0.581576,0.6877409999999999,-0.067192
733,0.21800799999999998,-0.930775,-0.489334,0.129168,0.802083,-0.5830770000000001,1.8255720000000002,0.547816,0.785093,-0.351641,0.408229,-0.154884
734,0.243216,-0.900151,-0.475838,0.149671,0.783421,-0.6032,1.181794,0.849701,0.707571,-0.18879500000000002,0.406932,-0.174342
735,0.27253499999999997,-0.8797659999999999,-0.46418999999999994,0.171553,0.77059,-0.613809,0.713966,1.0575299999999999,0.555554,-0.067824,0.45275299999999996,-0.196356
736,0.299736,-0.8720540000000001,-0.453071,0.189933,0.765652,-0.614575,-0.040608,0.8211719999999999,0.37753400000000004,0.014474,0.315906,-0.11784700000000001
737,0.32324899999999995,-0.882056,-0.43991199999999997,0.20188599999999998,0.772047,-0.602648,-0.9314520000000001,0.621621,0.170741,-0.013868,0.21718,-0.033918000000000004
738,0.348242,-0.9075799999999999,-0.421653,0.21009,0.7880159999999999,-0.5787,-1.6433659999999999,0.47316400000000003,0.084774,-0.08805,-0.116004,0.164927
739,0.374512,-0.9439200000000001,-0.398521,0.214596,0.809864,-0.545957,-2.067761,0.385716,-0.055879,-0.075543,-0.333423,0.246275
740,0.397582,-0.9857469999999999,-0.380281,0.21382199999999998,0.833685,-0.509165,-2.170459,0.390914,-0.4668,-0.085587,-0.534308,0.20739200000000002
741,0.41152,-1.0341,-0.37154299999999996,0.204522,0.859402,-0.468613,-2.420786,0.274252,-0.911711,-0.10616300000000001,-0.6874819999999999,0.089478
742,0.410346,-1.0891,-0.376031,0.184816,0.88621,-0.42482299999999995,-2.4506509999999997,0.074786,-1.35284,-0.035829,-0.782679,0.136218
743,0.389362,-1.142009,-0.39920500000000003,0.157825,0.9094709999999999,-0.384648,-2.084324,-0.043914999999999996,-1.556296,0.013500999999999999,-0.771714,0.1657
744,0.349154,-1.188124,-0.440028,0.12774100000000002,0.9276700000000001,-0.35086999999999996,-1.7488419999999998,-0.209,-1.588992,0.049718,-0.722287,0.177668
745,0.290962,-1.228988,-0.49536,0.09615800000000001,0.94215,-0.321103,-1.568358,-0.362141,-1.5437379999999998,-0.130627,-0.326855,0.11788599999999999
746,0.22520199999999999,-1.264265,-0.555767,0.067383,0.9533860000000001,-0.294134,-1.37602,-0.47266899999999995,-1.2431510000000001,-0.136184,-0.128298,0.039617
747,0.170601,-1.2911700000000002,-0.601955,0.046856999999999996,0.961159,-0.27199,-1.0532059999999999,-0.5259659999999999,-0.716331,-0.173582,0.093269,-0.05171
748,0.132328,-1.3061040000000002,-0.6296229999999999,0.034518,0.965173,-0.259325,-0.42038400000000004,-0.650881,-0.396625,-0.333956,0.260382,-0.08144900000000001
749,0.099913,-1.309576,-0.652622,0.025761000000000003,0.966075,-0.256972,-0.071623,-0.304292,-0.26003699999999996,-0.329243,0.159047,-0.074159
750,0.10266199999999999,-1.317424,-0.65635,0.025689,0.968073,-0.24935,-0.676197,0.7991159999999999,0.051588,-0.322305,0.069937,-0.111978
751,0.168524,-1.33933,-0.6227689999999999,0.038478,0.973331,-0.226156,-1.355617,2.066985,0.32616,-0.27389,0.47669700000000004,0.30853800000000003
752,0.274146,-1.362617,-0.559633,0.055952999999999996,0.978409,-0.198961,-1.101694,2.2178299999999997,0.47836000000000006,-0.202178,0.461624,0.422227
753,0.382011,-1.369477,-0.49566400000000005,0.074544,0.9798040000000001,-0.185548,-0.14571800000000001,2.24744,0.503159,-0.052525,0.200632,0.48393400000000003
754,0.45936800000000005,-1.360774,-0.457179,0.092437,0.9780260000000001,-0.186869,0.262277,1.669561,0.540932,0.405015,-0.020095,0.10531099999999999
755,0.511429,-1.357926,-0.420784,0.103399,0.9774280000000001,-0.18423399999999998,-0.176567,0.441503,0.337547,0.45275299999999996,0.197498,0.029235
756,0.538983,-1.358768,-0.392777,0.10801300000000001,0.977606,-0.180609,-0.23333,-0.23838,0.179925,0.6580550000000001,0.76069,-0.34881
757,0.5699069999999999,-1.360931,-0.353392,0.11240399999999999,0.978059,-0.175402,-0.281485,-0.342211,0.346364,0.570365,1.050841,-0.23953000000000002
758,0.613969,-1.359448,-0.303607,0.12085699999999999,0.977749,-0.171466,-0.243577,-0.252603,0.548408,0.12038499999999999,0.635242,0.113345
759,0.647904,-1.359538,-0.262625,0.126552,0.9777680000000001,-0.167197,-0.242148,-0.29271199999999997,0.188479,-0.0008349999999999999,0.152176,0.112571
760,0.655613,-1.362428,-0.248685,0.126114,0.9783700000000001,-0.163976,-0.18792799999999998,-0.319705,-0.034367,0.0672,0.017678,0.136266
761,0.651741,-1.366148,-0.24455900000000003,0.123269,0.979133,-0.16156800000000002,-0.169992,-0.424986,-0.09499500000000001,0.055182,-0.058158,0.17363800000000001
762,0.645612,-1.370694,-0.24243699999999999,0.11959700000000001,0.9800459999999999,-0.15876300000000002,-0.21011100000000002,-0.376724,-0.141271,-0.023253,-0.12088499999999999,0.136623
763,0.640423,-1.375642,-0.242472,0.115873,0.9810180000000001,-0.15549200000000002,-0.176085,-0.166974,-0.143438,-0.077543,-0.164535,0.11410999999999999
764,0.640109,-1.378924,-0.242916,0.1139,0.981649,-0.152945,-0.096255,0.092419,-0.07912000000000001,-0.101388,-0.224309,0.066947
765,0.63588,-1.379525,-0.250237,0.112902,0.9817629999999999,-0.15295,0.097245,0.176978,-0.081081,-0.067415,-0.388792,-0.093723
766,0.617243,-1.377059,-0.274338,0.11143299999999999,0.981292,-0.157002,0.321063,0.305331,-0.138434,0.029528,-0.49949499999999997,-0.057719000000000006
767,0.584145,-1.371157,-0.316894,0.109368,0.980138,-0.165432,0.579294,0.491101,-0.198825,0.15350999999999998,-0.555013,0.06048200000000001
768,0.541017,-1.3616030000000001,-0.369785,0.10695199999999999,0.9781989999999999,-0.17801199999999998,0.731102,0.34348,-0.17728,0.165433,-0.5359229999999999,0.049243
769,0.502761,-1.349569,-0.41081599999999996,0.10572999999999999,0.9756290000000001,-0.192274,0.723266,-0.037504,-0.00059,0.21278200000000003,-0.421109,-0.022675999999999998
770,0.485854,-1.335756,-0.424883,0.108748,0.972505,-0.205933,0.679415,-0.23351599999999997,0.303799,0.213549,-0.221162,-0.064545
771,0.48472,-1.31718,-0.417641,0.11691199999999999,0.9680110000000001,-0.22200300000000003,0.862384,-0.498601,0.635497,0.252671,0.007086,-0.075544
772,0.486224,-1.291385,-0.403028,0.128874,0.961218,-0.243827,1.1826299999999998,-0.7327560000000001,0.83886,0.270296,0.024302,0.000709
773,0.471164,-1.256868,-0.398271,0.140171,0.9511280000000001,-0.27515100000000003,1.725973,-1.170242,0.813298,0.259656,-0.238542,0.170003
774,0.417196,-1.2115040000000001,-0.421393,0.142473,0.9361459999999999,-0.32145300000000004,2.548061,-1.811082,0.519692,0.200209,-0.320423,0.230023
775,0.340142,-1.145239,-0.46704399999999996,0.137728,0.910809,-0.389176,3.94805,-1.669427,0.37867,-0.00783,0.17790599999999998,-0.038833
776,0.268025,-1.057951,-0.509916,0.12994,0.871352,-0.47313999999999995,4.556726,-1.790836,0.37559899999999996,-0.21670100000000003,0.885713,-0.346761
777,0.206404,-0.979108,-0.533399,0.114309,0.83,-0.545924,3.4564190000000004,-2.1490150000000003,0.325644,-0.171758,1.291368,-0.084539
778,0.171009,-0.9262799999999999,-0.531235,0.102244,0.799391,-0.5920479999999999,2.128221,-1.515267,0.700114,-0.380931,0.577196,0.014258000000000002
779,0.169898,-0.8920680000000001,-0.514645,0.10615,0.7783720000000001,-0.618764,1.330051,-0.261178,0.794413,-0.19576500000000002,0.20130399999999998,-0.129328
780,0.189135,-0.872607,-0.497572,0.120858,0.766007,-0.631368,0.605521,0.564141,0.691086,-0.243127,0.385955,-0.265314
781,0.21579099999999998,-0.8637299999999999,-0.47916899999999996,0.139094,0.760271,-0.63454,0.14058900000000002,0.559596,0.632297,-0.132838,0.679396,-0.278057
782,0.239366,-0.866236,-0.45786499999999997,0.153561,0.761896,-0.629232,-0.581091,0.283815,0.693839,-0.07835,0.485784,-0.13235
783,0.268627,-0.885655,-0.42586899999999994,0.167945,0.77433,-0.610088,-1.552559,0.21344499999999997,0.752305,-0.086204,0.233971,0.014613999999999999
784,0.30454000000000003,-0.919431,-0.38669000000000003,0.181794,0.795257,-0.578375,-2.152234,0.310834,0.627283,-0.07605,-0.06538300000000001,0.217047
785,0.345119,-0.961023,-0.34625700000000004,0.193743,0.8197780000000001,-0.538914,-2.449158,0.43336899999999995,0.345177,-0.10904200000000001,-0.325545,0.23433299999999999
786,0.38045999999999996,-1.0083799999999998,-0.312904,0.19801400000000002,0.8459690000000001,-0.49510200000000004,-2.568848,0.311374,-0.21097800000000003,-0.090012,-0.505302,0.190216
787,0.393586,-1.061269,-0.301634,0.187059,0.872975,-0.45047,-2.544597,0.110178,-1.065128,-0.06764400000000001,-0.638081,0.137329
788,0.376592,-1.118263,-0.31969699999999995,0.160798,0.899342,-0.406604,-2.422732,-0.170246,-1.6386209999999999,-0.024888,-0.678365,0.10222200000000001
789,0.32870900000000003,-1.172998,-0.361414,0.125058,0.921916,-0.36664800000000003,-2.183333,-0.698867,-1.7847540000000002,0.042835000000000005,-0.710735,0.084223
790,0.254475,-1.22299,-0.420387,0.085801,0.9401229999999999,-0.32986,-2.030637,-1.06617,-1.705236,0.071548,-0.5602550000000001,0.08842
791,0.162271,-1.2679639999999999,-0.495555,0.048181,0.9544950000000001,-0.29430700000000004,-1.906953,-0.992396,-1.613668,0.0034700000000000004,-0.462171,0.015895
792,0.051329,-1.3074709999999998,-0.591813,0.013355,0.9655299999999999,-0.259949,-1.734639,-0.952081,-1.455488,-0.013369999999999998,-0.35543800000000003,-0.038985
793,-0.059136,-1.335048,-0.6775979999999999,-0.013803999999999999,0.97234,-0.233163,-1.107361,-1.71333,-0.773946,-0.349889,0.21723499999999998,0.066476
794,-0.142713,-1.345587,-0.7184189999999999,-0.031761000000000005,0.9747469999999999,-0.221041,-0.254224,-2.2827669999999998,-0.303649,-0.331932,0.21482800000000002,0.054354
