,attitude.roll,attitude.pitch,attitude.yaw,gravity.x,gravity.y,gravity.z,rotationRate.x,rotationRate.y,rotationRate.z,userAcceleration.x,userAcceleration.y,userAcceleration.z
0,0.652796,-1.36747,0.5509310000000001,0.122637,0.9794,-0.160389,-0.033543,-1.468366,0.000737,-0.00044500000000000003,-0.023742,0.152149
1,0.619787,-1.368303,0.548374,0.116803,0.979568,-0.163684,-0.007948,-1.5480399999999999,-0.076962,-0.099973,-0.09095700000000001,0.216327
2,0.5768,-1.369062,0.537257,0.10925599999999999,0.97972,-0.16793,0.064402,-1.642897,-0.12761,-0.121707,-0.048797,0.240486
3,0.527267,-1.367082,0.520826,0.101784,0.9793219999999999,-0.174811,0.24962399999999998,-1.6630099999999999,-0.053651,-0.140541,-0.023115,0.24730500000000002
4,0.48822299999999996,-1.362061,0.5116109999999999,0.097188,0.978294,-0.18299100000000001,0.22135100000000002,-1.392942,0.098561,-0.20526599999999998,0.006920999999999999,0.141228
5,0.476336,-1.360644,0.524095,0.09564199999999999,0.977999,-0.185366,-0.145571,-1.085175,0.154251,-0.233398,-0.08720599999999999,0.032701
6,0.476785,-1.364097,0.544035,0.094175,0.978714,-0.182321,-0.234998,-0.892761,0.065785,-0.20164200000000002,-0.11213599999999999,0.045114
7,0.465567,-1.3655329999999999,0.548457,0.09149199999999999,0.979007,-0.182109,-0.006523999999999999,-0.714212,-0.027919,-0.07901,-0.138477,0.04034
8,0.450323,-1.365464,0.5449729999999999,0.08873500000000001,0.978993,-0.183544,0.013623,-0.49593400000000004,-0.019513,-0.15628599999999998,-0.039891,-0.003986
9,0.441679,-1.3647209999999999,0.544747,0.08745700000000001,0.978841,-0.18496300000000002,0.068129,-0.41328000000000004,0.042719,-0.173486,0.045663999999999996,-0.018940000000000002
10,0.435213,-1.36043,0.545112,0.088029,0.9779540000000001,-0.189332,0.267834,-0.28329499999999996,0.130473,-0.05391,0.095654,-0.07083099999999999
11,0.431904,-1.352101,0.547266,0.090809,0.976181,-0.19701300000000002,0.438971,-0.266417,0.289744,0.05508,-0.024308,0.08039
12,0.439366,-1.342032,0.561016,0.096453,0.9739469999999999,-0.205217,0.301358,-0.33584200000000003,0.454446,0.057279,-0.09086,0.186372
13,0.45853299999999997,-1.337795,0.590511,0.10219400000000001,0.9729780000000001,-0.20702800000000002,-0.123977,-0.521738,0.425008,-0.042547,-0.160127,0.180555
14,0.484241,-1.33962,0.627273,0.106655,0.973397,-0.202761,-0.29487399999999997,-0.489598,0.261403,-0.105099,-0.09818400000000001,0.14403
15,0.49072,-1.34174,0.6444880000000001,0.106994,0.973881,-0.200245,-0.07231,-0.556633,0.049399,-0.079558,0.063472,0.203907
16,0.480158,-1.3409959999999999,0.643613,0.105208,0.9737120000000001,-0.202007,0.106834,-0.394052,-0.004037,-0.097365,0.129331,0.284084
17,0.468624,-1.3375270000000001,0.635921,0.104396,0.972916,-0.206219,0.22121999999999997,-0.08984600000000001,0.012395,-0.140452,0.138717,0.249798
18,0.466767,-1.333648,0.633473,0.10570999999999998,0.9720120000000001,-0.20978200000000002,0.16936600000000002,0.10805799999999999,0.11646500000000001,-0.15423299999999998,0.15596400000000002,0.28029299999999996
19,0.479016,-1.3294350000000001,0.640407,0.11015799999999999,0.9710139999999999,-0.212104,0.138208,0.369931,0.18962,-0.099401,0.070551,0.29701900000000003
20,0.49703500000000006,-1.325072,0.648393,0.11598199999999999,0.9699610000000001,-0.21380700000000002,0.164796,0.570184,0.171389,-0.010482,0.046060000000000004,0.252427
21,0.5100020000000001,-1.3219100000000001,0.6501359999999999,0.12024100000000001,0.9691870000000001,-0.214961,0.168231,0.533246,0.08173,0.051939,0.067998,0.224483
22,0.516423,-1.3210600000000001,0.6483720000000001,0.122026,0.9689780000000001,-0.214901,0.102357,0.318444,0.043088999999999995,0.11508099999999999,0.076738,0.178722
23,0.521523,-1.319975,0.6488079999999999,0.123643,0.968709,-0.215187,0.029301999999999998,0.188803,0.025653,0.10105700000000001,-0.008031,0.179375
24,0.52171,-1.3192959999999998,0.646116,0.124011,0.96854,-0.21573299999999998,0.05497899999999999,0.135728,-0.043533999999999996,0.10069,-0.007862000000000001,0.179921
25,0.51577,-1.318761,0.636826,0.122983,0.968407,-0.216917,0.093831,0.159332,-0.11913699999999999,0.022601,0.042427,0.150221
26,0.516858,-1.3198219999999998,0.6334930000000001,0.12271099999999999,0.968671,-0.215889,0.075925,0.20416199999999998,-0.125729,0.06485,0.026965,0.177254
27,0.512731,-1.3199670000000001,0.625743,0.12175,0.968707,-0.216271,0.088339,0.142234,-0.100993,0.079971,0.048444,0.164956
28,0.509373,-1.3193110000000001,0.6212989999999999,0.121333,0.9685440000000001,-0.21723299999999998,0.089274,-0.038149,-0.014230000000000001,0.06729700000000001,0.06352999999999999,0.166376
29,0.517547,-1.320094,0.629608,0.122728,0.9687389999999999,-0.21557300000000001,0.089164,-0.004295,0.044478,-0.047395,-0.012394,0.127179
30,0.5234439999999999,-1.319109,0.634726,0.124474,0.9684940000000001,-0.215673,0.064799,0.072337,0.082666,-0.07396799999999999,0.008695,0.116292
31,0.533212,-1.317425,0.641217,0.127404,0.968073,-0.21585100000000002,0.114474,0.211689,0.089244,-0.091515,0.014471000000000001,0.091599
32,0.5510510000000001,-1.317882,0.6535810000000001,0.131001,0.9681870000000001,-0.213166,0.141605,0.253384,0.028491000000000002,0.019053,0.001478,0.050553
33,0.55191,-1.316302,0.649608,0.131986,0.967791,-0.21435500000000002,0.143682,0.218313,0.006118,0.026812,0.010313,0.040192
34,0.55172,-1.3140040000000002,0.645824,0.13311099999999998,0.96721,-0.21627399999999997,0.17508800000000002,0.149764,0.071587,0.004157,0.019774,0.021847
35,0.5580470000000001,-1.3133540000000001,0.6487850000000001,0.13480899999999998,0.967044,-0.21595999999999999,0.073377,0.211337,0.212871,-0.009794,-0.011844,-0.044629
36,0.5716100000000001,-1.3102719999999999,0.659552,0.13933800000000002,0.966255,-0.21661799999999998,0.06876399999999999,0.094335,0.172396,-0.014322,-0.011054999999999999,-0.043972000000000004
37,0.577152,-1.308062,0.666018,0.141701,0.965684,-0.217631,0.096898,-0.132356,0.094903,0.15496,-0.033692,-0.041692
38,0.571166,-1.306885,0.665728,0.14101,0.965377,-0.21943200000000002,0.042763999999999996,-0.360989,0.041407,0.05840700000000001,0.068238,-0.020604
39,0.564198,-1.305417,0.666988,0.140236,0.964993,-0.22160700000000003,0.052953999999999994,-0.415563,0.093891,0.001228,0.100849,-0.035976
40,0.560703,-1.302455,0.6716479999999999,0.14098,0.9642120000000001,-0.22451500000000002,0.084868,-0.392414,0.137881,-0.055347,0.060507000000000005,0.015424
41,0.5612689999999999,-1.298753,0.6800510000000001,0.143006,0.963224,-0.22745700000000002,0.070994,-0.378577,0.152721,-0.049638,0.055865,0.047892000000000004
42,0.569244,-1.29551,0.697059,0.146499,0.962347,-0.22894,-0.04817,-0.471131,0.22464699999999999,0.019486,-0.06252100000000001,0.035184
43,0.572487,-1.2950629999999999,0.710492,0.147473,0.962226,-0.22882399999999997,-0.082941,-0.48016899999999996,0.117593,0.044177,-0.04824,0.035114
44,0.56912,-1.296052,0.717036,0.146189,0.9624940000000001,-0.22851799999999997,-0.057226,-0.46742799999999995,0.10600599999999999,-0.020762,-0.003693,0.059512
45,0.569211,-1.296624,0.7257060000000001,0.14591300000000001,0.96265,-0.228041,-0.080203,-0.369295,0.09396900000000001,-0.044198,0.0048189999999999995,0.06428400000000001
46,0.573639,-1.29746,0.7361979999999999,0.146485,0.9628760000000001,-0.22671599999999997,-0.091267,-0.24876399999999999,0.06489600000000001,-0.07457000000000001,0.026504000000000003,0.038606
47,0.577912,-1.298381,0.7448670000000001,0.14696800000000002,0.963124,-0.225346,-0.065361,-0.201901,0.044719999999999996,-0.06325800000000001,0.02534,0.045673000000000005
48,0.579242,-1.298853,0.7500720000000001,0.147018,0.963251,-0.224769,-0.037632,-0.19033599999999998,0.058786,-0.06080599999999999,0.072348,0.059013
49,0.585451,-1.2996379999999998,0.760529,0.14799400000000001,0.963461,-0.223223,-0.067768,-0.159696,0.148267,0.013521,-0.044927999999999996,0.02646
50,0.590828,-1.300238,0.768538,0.148869,0.963622,-0.221942,-0.067159,-0.094434,0.077685,0.013149000000000001,-0.058806,0.024967
51,0.592486,-1.302033,0.771525,0.14827100000000001,0.9641,-0.22025999999999998,-0.069664,-0.018474,-0.001478,-0.0365,0.005886,0.004683
52,0.597059,-1.304189,0.775031,0.148107,0.96467,-0.21785900000000002,-0.09908600000000001,0.105108,0.021659,-0.069814,0.017172,0.001307
53,0.607323,-1.3063930000000001,0.782464,0.149121,0.965249,-0.214581,-0.161666,0.169312,0.0040479999999999995,-0.036999000000000004,-0.000634,-0.006123
54,0.617074,-1.309692,0.78892,0.149362,0.9661059999999999,-0.210517,-0.188026,0.173926,-0.061304,-0.005456,-0.010188,-0.007209999999999999
55,0.624202,-1.314056,0.792237,0.148393,0.9672229999999999,-0.20602399999999998,-0.226079,0.219998,-0.094743,0.023635,-0.033201999999999995,-0.042924000000000004
56,0.634141,-1.319431,0.79751,0.14735,0.9685739999999999,-0.200347,-0.26873400000000003,0.26260500000000003,-0.056639999999999996,-0.008999,0.0063100000000000005,-0.068116
57,0.649,-1.324219,0.806995,0.147506,0.9697530000000001,-0.194438,-0.27079699999999995,0.30183000000000004,-0.026894,-0.009765000000000001,0.017169999999999998,-0.066777
58,0.667501,-1.329141,0.8192530000000001,0.148121,0.970943,-0.187924,-0.342075,0.348943,-0.025315999999999998,-0.020939,0.038761000000000004,-0.060580999999999996
59,0.6964,-1.334582,0.840995,0.150097,0.972231,-0.179509,-0.428501,0.418202,0.045562,-0.051021,0.00427,-0.079845
60,0.732795,-1.340079,0.8679969999999999,0.152951,0.9735030000000001,-0.169953,-0.421601,0.528967,0.045468,-0.037229000000000005,-0.027687,-0.096161
61,0.762768,-1.3451629999999999,0.887782,0.154553,0.9746530000000001,-0.161711,-0.394498,0.552599,-0.027012,-0.034283,-0.039594,-0.100129
62,0.787235,-1.351421,0.902618,0.154138,0.9760340000000001,-0.15357300000000002,-0.367807,0.474009,-0.110046,0.02613,-0.009878,-0.093971
63,0.805963,-1.358487,0.913374,0.152006,0.9775469999999999,-0.145879,-0.321975,0.389991,-0.184394,0.039812,0.016731,-0.10294600000000001
64,0.817448,-1.364524,0.91732,0.149365,0.978801,-0.140085,-0.282612,0.399304,-0.149947,0.033770999999999995,0.085164,-0.129721
65,0.83186,-1.368462,0.923349,0.148517,0.9796,-0.13532,-0.153665,0.45071400000000006,-0.064723,0.037441,0.068618,-0.11361199999999999
66,0.845101,-1.3701219999999998,0.92696,0.149079,0.979932,-0.132262,-0.083176,0.503586,-0.027979,0.033721,0.056077999999999996,-0.087953
67,0.858973,-1.371341,0.930924,0.149996,0.980175,-0.129402,-0.135375,0.512325,-0.0369,0.027188999999999998,0.048726,-0.008232
68,0.881401,-1.3743,0.9428770000000001,0.15062,0.980757,-0.12415899999999999,-0.25146199999999996,0.55429,-0.04097,0.029539999999999997,0.053926999999999996,0.05769199999999999
69,0.913257,-1.3782940000000001,0.9633200000000001,0.151396,0.9815290000000001,-0.116904,-0.30668,0.625801,-0.02756,0.015077000000000002,0.064248,0.088232
70,0.9573459999999999,-1.3826610000000001,0.9937790000000001,0.152893,0.982355,-0.107647,-0.415025,0.767717,0.007821,-0.03299,0.040854,0.131665
71,1.01512,-1.3883219999999998,1.03478,0.154125,0.983398,-0.095703,-0.4993,0.923876,-0.076289,-0.015788999999999997,-0.013456999999999998,0.171356
72,1.077885,-1.395907,1.0802260000000001,0.153246,0.9847459999999999,-0.082314,-0.549347,0.876391,-0.146013,-0.01491,-0.014806,0.157967
73,1.1383290000000001,-1.403403,1.124509,0.151231,0.986022,-0.06981,-0.463046,0.828242,-0.16778099999999999,-0.011094,-0.063735,0.193269
74,1.196856,-1.4089209999999999,1.166643,0.14998699999999998,0.986927,-0.058855,-0.366336,0.8594,-0.051777,-0.051659000000000004,-0.09885,0.146898
75,1.259707,-1.410603,1.211012,0.151806,0.987196,-0.04881,-0.35126999999999997,1.023919,0.08485,-0.059612,-0.073744,0.115155
76,1.332172,-1.41045,1.261102,0.155086,0.9871719999999999,-0.037725999999999996,-0.376161,1.21138,0.113278,-0.050197000000000006,-0.054752999999999996,0.059546
77,1.405642,-1.41021,1.309507,0.157671,0.9871340000000001,-0.026279000000000004,-0.281754,1.299579,0.08605,0.016538,0.059634000000000006,-0.023235
78,1.453633,-1.408542,1.331854,0.160386,0.986866,-0.018878,-0.095389,1.2657370000000001,0.129056,0.048019,0.043591000000000005,-0.009336
79,1.482881,-1.4046049999999999,1.3375860000000002,0.16473800000000002,0.9862219999999999,-0.014519999999999998,-0.011184999999999999,1.125429,0.24519200000000002,0.11263599999999999,-0.010438,0.002527
80,1.5132459999999999,-1.399016,1.3476350000000001,0.17060699999999998,0.985282,-0.009829000000000001,-0.111338,0.964734,0.2917,0.117601,-0.07701799999999999,0.004961999999999999
81,1.5539209999999999,-1.393421,1.371912,0.176375,0.98431,-0.002977,-0.25306100000000004,0.756472,0.28136300000000003,0.092836,-0.10017000000000001,-0.007308
82,1.6015840000000001,-1.3884729999999998,1.407462,0.18118299999999998,0.983425,0.00558,-0.347477,0.5759569999999999,0.21791,0.054871,-0.078442,-0.038202999999999994
83,1.649084,-1.384994,1.4462030000000001,0.184123,0.9827879999999999,0.014444,-0.35733200000000004,0.41979700000000003,0.117628,0.031743,-0.04448,-0.049585000000000004
84,1.68782,-1.382567,1.4778959999999999,0.185793,0.9823370000000001,0.021842,-0.268845,0.362138,0.074523,0.03253,-0.018211,-0.038047000000000004
85,1.7156740000000001,-1.379769,1.499558,0.187832,0.9818100000000001,0.027405000000000002,-0.214709,0.315021,0.088848,0.052585,0.054551999999999996,-0.009491
86,1.741689,-1.376415,1.520526,0.190299,0.981167,0.032841,-0.264359,0.23298400000000002,0.13454000000000002,0.001215,0.0020629999999999997,-0.027408999999999996
87,1.7710549999999998,-1.372491,1.5476530000000002,0.193025,0.980402,0.03918,-0.350188,0.104475,0.11167300000000001,0.001189,-0.038461,0.036366
88,1.8040770000000002,-1.369949,1.580854,0.194051,0.9798979999999999,0.046107999999999996,-0.371501,-0.019566999999999998,-0.01864,0.037593,0.032736,0.0546
89,1.835705,-1.369885,1.614981,0.192556,0.979885,0.052237,-0.321282,-0.11092,-0.127131,0.058602999999999995,0.074665,0.113
90,1.860429,-1.371092,1.643266,0.190073,0.980125,0.05664400000000001,-0.244837,-0.182604,-0.115823,0.052679,0.067024,0.119305
91,1.8884419999999997,-1.370793,1.6755360000000001,0.18869,0.980066,0.062037,-0.364369,-0.16630999999999999,-0.091041,0.042817,0.042395,-0.069651
92,1.928294,-1.370362,1.7201939999999998,0.18646500000000002,0.97998,0.069654,-0.405923,-0.224473,-0.16176,-0.010211,0.016556,-0.12897999999999998
93,1.961452,-1.371961,1.757104,0.182604,0.980297,0.0752,-0.244873,-0.074523,-0.23773899999999998,-0.007157999999999999,-0.002438,-0.122976
94,1.9943060000000001,-1.373961,1.7885790000000001,0.178248,0.98069,0.08035199999999999,-0.22660999999999998,0.195973,-0.23261700000000002,0.057119,0.009361,-0.09121699999999999
95,2.034311,-1.3754309999999998,1.8227080000000002,0.173601,0.9809770000000001,0.086772,-0.3059,0.384694,-0.205639,0.049253,0.077373,-0.094752
96,2.076691,-1.375472,1.856916,0.169733,0.980985,0.094029,-0.30579,0.479221,-0.135257,0.028219,0.085727,-0.098607
97,2.114035,-1.375441,1.883586,0.166131,0.980979,0.10031699999999999,-0.21754099999999998,0.6451140000000001,-0.139126,-0.00747,0.06955800000000001,-0.100912
98,2.1416180000000002,-1.3771229999999999,1.895571,0.161911,0.9813040000000001,0.103968,0.016041999999999997,0.8563350000000001,-0.149515,0.121628,0.051335000000000006,-0.121271
99,2.155779,-1.3810069999999999,1.893097,0.157244,0.982044,0.104145,0.12779400000000002,0.781435,-0.16359400000000002,0.190504,0.1069,-0.054951
100,2.167993,-1.384121,1.8940990000000002,0.15343099999999998,0.982627,0.10433800000000001,0.035160000000000004,0.412911,-0.098607,0.111354,0.147653,-0.002043
101,2.168469,-1.384257,1.8891470000000001,0.153271,0.9826520000000001,0.104335,0.055896,0.23416199999999998,0.09511499999999999,0.107929,0.14392,0.021565
102,2.155805,-1.3825049999999999,1.8735099999999998,0.15601600000000002,0.982325,0.10333800000000001,0.083397,0.019641,0.171426,0.097066,0.161901,0.099604
103,2.12575,-1.381426,1.847001,0.159952,0.982123,0.099161,0.26234,-0.28670300000000004,0.168795,-0.034677,0.12375799999999999,0.249671
104,2.073655,-1.383514,1.7996150000000002,0.1631,0.9825139999999999,0.08970800000000001,0.545505,-0.253343,0.10556900000000001,-0.205184,0.057663,0.250227
105,1.9932590000000001,-1.3895309999999998,1.720693,0.164382,0.9836159999999999,0.073895,0.9256120000000001,-0.034881,0.022486000000000003,-0.24736,0.00114,0.21004099999999998
106,1.8836400000000002,-1.398221,1.606143,0.163339,0.985146,0.052834000000000006,1.157861,0.269367,-0.073489,-0.157632,0.045752999999999995,0.068885
107,1.7605110000000002,-1.405758,1.47407,0.16129300000000002,0.9864120000000001,0.030972000000000003,1.167958,0.361989,-0.085386,-0.029227999999999997,0.128578,0.133914
108,1.63253,-1.409861,1.335007,0.159884,0.987078,0.009883,1.10876,0.519712,-0.049682,0.008313,0.147154,0.113652
109,1.522729,-1.410455,1.213748,0.159418,0.987173,-0.007669,0.887498,0.462815,-0.014835,0.053335,0.09400399999999999,-0.022696
110,1.41893,-1.4084370000000002,1.1024260000000001,0.159736,0.986849,-0.024447,0.939427,0.191877,0.029672000000000004,0.024087,-0.023821000000000002,-0.03224
111,1.3043200000000001,-1.4035870000000001,0.986617,0.16050999999999999,0.9860530000000001,-0.043814,0.9836959999999999,-0.15241500000000002,0.043241,0.023313,-0.023025,-0.012872
112,1.1876950000000002,-1.397642,0.8749979999999999,0.15975799999999998,0.9850459999999999,-0.064385,0.991459,-0.42156499999999997,-0.054637,0.062013,0.004196,0.026345
113,1.091524,-1.390484,0.788272,0.159092,0.9837879999999999,-0.082678,0.747055,-0.614849,0.007997,-0.041935,-0.00457,0.007391
114,1.0050270000000001,-1.385165,0.715572,0.155772,0.98282,-0.09891799999999999,0.7190810000000001,-0.816551,-0.142559,-0.03152,-0.014558000000000001,0.011042
115,0.9125469999999999,-1.37707,0.63844,0.152263,0.981294,-0.117746,0.906442,-0.794227,-0.026979000000000003,-0.031597,-0.082322,0.068887
116,0.830606,-1.3631959999999999,0.5694899999999999,0.15215499999999998,0.9785280000000001,-0.138984,0.974433,-0.679072,0.153878,-0.058755999999999996,-0.14802300000000002,0.12879200000000002
117,0.7747569999999999,-1.3481290000000001,0.524582,0.15446,0.9753120000000001,-0.157783,0.783637,-0.5817,0.21117199999999997,-0.08779400000000001,-0.127396,0.093375
118,0.728144,-1.337213,0.490856,0.15401800000000002,0.972843,-0.172747,0.6046159999999999,-0.725183,0.017825999999999998,-0.08015,-0.070622,0.118334
119,0.678713,-1.330258,0.456079,0.149539,0.97121,-0.185409,0.471617,-0.801851,-0.141102,-0.057773000000000005,-0.06744700000000001,0.111419
120,0.63149,-1.325698,0.42150600000000005,0.143233,0.9701129999999999,-0.19583499999999998,0.42690200000000006,-0.607556,-0.205756,-0.09716699999999999,-0.065634,0.089558
121,0.588504,-1.320763,0.387928,0.13734200000000002,0.9689040000000001,-0.20579,0.44975200000000004,-0.49265,-0.189721,-0.109205,-0.015137999999999999,0.080485
122,0.548762,-1.314936,0.356575,0.132001,0.9674459999999999,-0.215898,0.446604,-0.454396,-0.16308599999999998,-0.117657,0.00463,0.07876699999999999
123,0.5153760000000001,-1.309875,0.332011,0.127132,0.966153,-0.224442,0.326727,-0.505252,-0.128607,-0.095958,-0.010570999999999999,0.077271
124,0.489683,-1.306181,0.31601599999999996,0.123002,0.9651930000000001,-0.23078200000000001,0.23150300000000001,-0.511529,-0.074785,-0.064988,-0.041213,0.071602
125,0.469149,-1.3030680000000001,0.30451300000000003,0.11959600000000001,0.964374,-0.235938,0.200771,-0.44439399999999996,-0.053721000000000005,-0.046842,-0.039234,0.056143
126,0.450829,-1.300162,0.29409,0.116475,0.963601,-0.24061100000000002,0.22119899999999998,-0.393396,-0.03762,-0.040211000000000004,0.023809999999999998,0.012279
127,0.435717,-1.296985,0.285967,0.11411700000000001,0.9627469999999999,-0.245119,0.190246,-0.352983,0.005909,-0.031627999999999996,0.052435,-0.020873
128,0.427637,-1.294686,0.284543,0.113051,0.962123,-0.248047,0.11428800000000001,-0.334868,0.070516,-0.005217,0.022481,-0.023545
129,0.42323,-1.293854,0.288215,0.112285,0.9618959999999999,-0.249273,0.0028829999999999997,-0.42506700000000003,0.079468,-0.010738,-0.021131,-0.034282
130,0.417962,-1.294823,0.292777,0.11059300000000001,0.96216,-0.249009,-0.073027,-0.49178999999999995,0.048045,-0.032422,-0.01845,-0.048186
131,0.40921599999999997,-1.295766,0.293996,0.10805,0.962417,-0.249135,-0.031183999999999996,-0.495971,-0.008273,-0.036562,0.011063,-0.035884
132,0.40105100000000005,-1.295923,0.295116,0.10595299999999999,0.96246,-0.249869,-0.024730000000000002,-0.434408,0.041899,-0.033962,0.004703,-0.05935
133,0.400173,-1.296034,0.30185,0.10569200000000001,0.96249,-0.24986399999999998,-0.06829,-0.321627,0.11409000000000001,-0.02041,-0.030666000000000002,-0.086623
134,0.402934,-1.2958889999999998,0.311434,0.10643599999999999,0.96245,-0.2497,-0.04922,-0.32924000000000003,0.136665,0.000223,-0.08671799999999999,-0.107097
135,0.40609,-1.2952549999999998,0.322117,0.107465,0.9622780000000001,-0.249923,-0.048379000000000005,-0.344298,0.171942,0.01987,-0.123609,-0.103974
136,0.41498900000000005,-1.2952649999999999,0.338018,0.109681,0.9622809999999999,-0.24894899999999998,-0.147626,-0.29411,0.2278,0.0059960000000000005,-0.13649,-0.127867
137,0.432208,-1.2973219999999999,0.361634,0.113121,0.962838,-0.245225,-0.30356500000000003,-0.28735700000000003,0.272635,-0.042533999999999995,-0.11274100000000001,-0.12657100000000002
138,0.452954,-1.3010110000000001,0.391746,0.116629,0.963828,-0.23963,-0.36541599999999996,-0.5034529999999999,0.287435,-0.026158999999999998,-0.059562000000000004,-0.10793499999999999
139,0.46572299999999994,-1.304474,0.417807,0.11818,0.9647450000000001,-0.235138,-0.366704,-0.6574909999999999,0.18187,0.056396,0.150199,-0.027389
140,0.47236000000000006,-1.310626,0.43777299999999997,0.11703499999999999,0.9663459999999999,-0.22905799999999998,-0.43283299999999997,-0.5608029999999999,0.036006,0.010895,0.12209400000000001,-0.002585
141,0.48052399999999995,-1.3190680000000001,0.45451499999999995,0.11512599999999999,0.968483,-0.220854,-0.492378,-0.322861,-0.008512,-0.04753,0.060493,-0.0105
142,0.494929,-1.326921,0.475209,0.114679,0.970409,-0.21247199999999997,-0.432759,-0.266948,0.076222,-0.065835,0.18268199999999998,-0.020255000000000002
143,0.512029,-1.331835,0.497788,0.11595699999999999,0.971584,-0.20631999999999998,-0.295234,-0.243115,0.124154,-0.036672,0.117176,-0.042901999999999996
144,0.526261,-1.336407,0.516972,0.116649,0.972656,-0.20080499999999998,-0.33431,-0.24050100000000002,0.037351999999999996,-0.013438,0.008102,-0.00229
145,0.530053,-1.343207,0.527646,0.11406199999999998,0.9742129999999999,-0.19465,-0.365101,-0.377131,-0.133604,0.042844,-0.139252,0.210641
146,0.531251,-1.352408,0.537004,0.109749,0.976248,-0.186775,-0.514591,-0.39476100000000003,-0.12394300000000001,0.037697,-0.072882,0.298638
147,0.551421,-1.363948,0.564941,0.10758399999999999,0.978683,-0.17491500000000001,-0.7304039999999999,-0.332742,0.004793,0.026831,0.006928,0.289448
148,0.59535,-1.376837,0.614985,0.108076,0.9812489999999999,-0.15956199999999998,-0.825235,-0.21241,0.09798,-0.002455,0.06779299999999999,0.221345
149,0.6427109999999999,-1.3878,0.66738,0.109054,0.983303,-0.145645,-0.644734,-0.212862,0.054376,0.0017399999999999998,0.01714,0.213562
150,0.668675,-1.395326,0.698453,0.108207,0.9846450000000001,-0.136953,-0.364875,-0.234756,-0.040849,0.009683,0.029851,0.21788600000000002
151,0.685851,-1.4008120000000002,0.719884,0.10712,0.9855870000000001,-0.130892,-0.29639,-0.153114,-0.004156,-0.00246,0.006936,0.158144
152,0.7203149999999999,-1.4062059999999998,0.7554609999999999,0.108055,0.9864860000000001,-0.12312200000000001,-0.37497800000000003,0.011937,0.080541,0.033027,-0.043263,0.164703
153,0.768597,-1.411194,0.80332,0.110449,0.987291,-0.114224,-0.430541,0.05025,0.13778800000000002,0.071894,-0.037462,0.147778
154,0.8344600000000001,-1.417342,0.870771,0.113226,0.9882489999999999,-0.102627,-0.527302,-0.112408,0.139457,0.12093599999999999,0.030764,0.116757
155,0.897076,-1.423422,0.938601,0.114726,0.98916,-0.091589,-0.54278,-0.29320799999999997,0.078692,0.091161,0.041525,0.11311900000000001
156,0.957733,-1.428821,1.006848,0.115695,0.9899379999999999,-0.08139,-0.543125,-0.359297,0.08945700000000001,0.064481,0.01174,0.09185800000000001
157,1.030713,-1.43339,1.087423,0.11743800000000001,0.990575,-0.070409,-0.515075,-0.33365300000000003,0.045823,-0.003089,-0.083089,0.143117
158,1.09786,-1.4380979999999999,1.1612049999999998,0.117743,0.991208,-0.06024500000000001,-0.539048,-0.30449899999999996,-0.046346,-0.014943999999999999,-0.05294600000000001,0.151645
159,1.1638549999999999,-1.4444350000000001,1.23356,0.11568699999999998,0.992027,-0.049861,-0.538521,-0.2722,-0.13184200000000001,-0.014369,-0.021599,0.143977
160,1.238085,-1.450014,1.3131030000000001,0.11383,0.992715,-0.039335,-0.511782,-0.21706199999999998,-0.091133,-0.028395999999999998,0.05326,0.091489
161,1.319793,-1.452983,1.39924,0.11380599999999999,0.9930680000000001,-0.029181,-0.49529700000000004,-0.199604,0.05744199999999999,-0.007634999999999999,0.018361000000000002,0.061225
162,1.40963,-1.4528969999999999,1.494107,0.11605,0.993058,-0.018867,-0.5043300000000001,-0.230787,0.137536,0.065453,-0.069993,0.068534
163,1.496858,-1.4520110000000002,1.586899,0.118131,0.9929530000000001,-0.00875,-0.515009,-0.27532,0.094789,0.089297,-0.052966,0.07653
164,1.5833840000000001,-1.451629,1.6806450000000002,0.118824,0.992908,0.0014960000000000002,-0.5416850000000001,-0.356928,0.013522999999999999,0.06808099999999999,-0.00046100000000000004,0.011108
165,1.6610770000000001,-1.451196,1.766041,0.118777,0.992856,0.010752,-0.4701,-0.335864,0.011859,0.068205,0.033541,-0.015391
166,1.728289,-1.448381,1.840094,0.120548,0.992517,0.019144,-0.44689700000000004,-0.311782,0.09638,0.09103,0.029776999999999998,-0.009561
167,1.7899669999999999,-1.443565,1.909545,0.123805,0.991917,0.027576999999999997,-0.45699300000000004,-0.404494,0.11352000000000001,0.131322,0.004924,0.002956
168,1.848037,-1.4401760000000001,1.9768029999999999,0.12523099999999998,0.991481,0.035637,-0.46085699999999996,-0.437013,-0.009311,0.143233,-0.006954000000000001,0.004265
169,1.9041080000000001,-1.438909,2.042443,0.124223,0.991315,0.04301,-0.43149099999999996,-0.44828599999999996,-0.145824,0.13304000000000002,0.087313,-0.009608
170,1.9598520000000001,-1.439763,2.1070919999999997,0.120852,0.9914270000000001,0.049544,-0.363665,-0.40023000000000003,-0.23407399999999998,0.149396,0.087903,-0.045103
171,2.0104189999999997,-1.44146,2.1659450000000002,0.11667000000000001,0.991648,0.054872000000000004,-0.29634299999999997,-0.383391,-0.241103,0.17791600000000002,0.051046,-0.043642
172,2.0524,-1.442403,2.2161150000000003,0.113436,0.991769,0.059287,-0.257248,-0.393415,-0.16604100000000002,0.183424,0.01171,-0.052191999999999995
173,2.083311,-1.441928,2.256397,0.11196099999999999,0.991708,0.06299600000000001,-0.24291999999999997,-0.495864,-0.132695,0.154076,0.005896,-0.018319
174,2.1116479999999997,-1.441851,2.296736,0.110195,0.991698,0.066182,-0.21254699999999999,-0.6280399999999999,-0.138723,0.132725,0.033036,-0.023381
175,2.126291,-1.442975,2.324893,0.108267,0.991842,0.0672,-0.069611,-0.663574,-0.16758900000000002,0.087915,0.10401400000000001,0.031387
176,2.131071,-1.446361,2.342747,0.105097,0.992268,0.06593099999999999,0.01714,-0.641296,-0.21935500000000002,0.09389199999999999,0.182384,0.101031
177,2.128301,-1.4506059999999998,2.352757,0.101704,0.9927860000000001,0.06341000000000001,0.092834,-0.634181,-0.199607,0.090526,0.234433,0.138433
178,2.0971610000000003,-1.455058,2.3348459999999998,0.09980399999999999,0.99331,0.05799,0.297006,-0.672624,-0.087036,-0.000225,0.151725,0.10541600000000001
179,2.017661,-1.459983,2.266697,0.099678,0.993866,0.047764999999999995,0.542662,-0.557585,-0.030989,-0.088601,0.017974,0.148829
180,1.8947439999999998,-1.466309,2.1553150000000003,0.098817,0.9945459999999999,0.03318,0.7505470000000001,-0.651817,-0.089236,-0.105531,-0.046029,0.169716
181,1.7225979999999999,-1.4724409999999999,1.9975150000000002,0.097011,0.995167,0.014841,0.887539,-0.8226209999999999,-0.117971,0.00301,-0.095585,0.109198
182,1.524494,-1.475741,1.815975,0.094752,0.9954860000000001,-0.00439,0.867082,-0.8651559999999999,-0.119127,0.11273699999999999,-0.022066,0.023632
183,1.334825,-1.475134,1.6421700000000001,0.092815,0.9954280000000001,-0.022317,0.806089,-0.842825,-0.056557,0.204701,0.12278199999999999,0.024209
184,1.1598620000000002,-1.4694969999999998,1.4859850000000001,0.092655,0.9948739999999999,-0.040374,0.8226959999999999,-1.060692,0.06668400000000001,0.180355,0.112731,0.001449
185,1.0090860000000001,-1.4591450000000001,1.3582379999999998,0.09425700000000001,0.9937729999999999,-0.059319000000000004,0.8671139999999999,-1.274348,0.17836300000000002,0.11648199999999999,0.09156900000000001,0.041451
186,0.883252,-1.4452690000000001,1.259298,0.09672,0.992132,-0.079428,0.8501860000000001,-1.41835,0.24038600000000002,0.007146,0.020228,0.07302
187,0.794724,-1.4310260000000001,1.1979799999999998,0.099397,0.9902479999999999,-0.09756000000000001,0.7391939999999999,-1.402082,0.26415900000000003,-0.026613,0.014879,0.087078
188,0.7275,-1.418093,1.160482,0.101131,0.9883639999999999,-0.113576,0.598874,-1.558059,0.231332,0.023824,0.008997,0.09375399999999999
189,0.674177,-1.407471,1.139319,0.101483,0.986692,-0.127001,0.484451,-1.6268639999999999,0.221007,0.034808,-0.022733,0.105806
190,0.6269859999999999,-1.395434,1.121476,0.10234299999999999,0.984663,-0.141258,0.649817,-1.359115,0.252798,0.032652,-0.042052,0.069328
191,0.582066,-1.380167,1.1010950000000002,0.104151,0.981885,-0.158254,0.7516,-1.208423,0.308863,0.022909,0.019457,0.078588
192,0.546754,-1.363877,1.0903450000000001,0.106803,0.978669,-0.175475,0.736132,-1.274626,0.361183,0.021402,0.0083,0.092208
193,0.5176470000000001,-1.348938,1.088458,0.108875,0.97549,-0.191196,0.580824,-1.412562,0.358138,0.077084,0.024066999999999998,0.068851
194,0.49458100000000005,-1.33748,1.0945200000000002,0.10973499999999999,0.9729049999999999,-0.203482,0.420804,-1.437458,0.329278,0.047369999999999995,-0.07552,0.09635
195,0.47405200000000003,-1.32735,1.100169,0.110029,0.970513,-0.21445100000000003,0.43812,-1.200804,0.273549,0.025422999999999998,-0.12375699999999999,0.095249
196,0.45040600000000003,-1.316876,1.098012,0.109347,0.967935,-0.22613200000000003,0.497025,-1.005691,0.180775,-0.049609,-0.033517,0.10751
197,0.426117,-1.306381,1.09181,0.108017,0.965245,-0.23795999999999998,0.5074609999999999,-0.8670530000000001,0.133668,-0.054932,0.018611000000000003,0.147277
198,0.404978,-1.296846,1.085509,0.106584,0.9627100000000001,-0.248638,0.43588699999999997,-0.681319,0.101952,-0.055574,-0.0038929999999999998,0.141307
199,0.38705100000000003,-1.289627,1.07891,0.10473099999999999,0.9607319999999999,-0.256938,0.321668,-0.532547,0.026188,-0.022151,-0.035896,0.1244
200,0.37338899999999997,-1.284907,1.074147,0.10286400000000001,0.959411,-0.26256399999999996,0.19306199999999998,-0.427687,0.02195,0.027949,0.019318000000000002,0.108694
201,0.363288,-1.2826540000000002,1.071721,0.100975,0.958773,-0.26561,0.08573099999999999,-0.371763,-0.017327000000000002,0.041283,0.012555,0.0858
202,0.349475,-1.282269,1.064878,0.09742200000000001,0.958664,-0.267326,0.082909,-0.36504899999999996,-0.095335,0.060659000000000005,-0.021515,0.034461
203,0.33429699999999996,-1.282158,1.056899,0.093389,0.9586319999999999,-0.268874,0.052878999999999995,-0.39055,-0.085899,0.065272,0.039307999999999996,0.017225999999999998
204,0.32463600000000004,-1.2820690000000001,1.054866,0.09081399999999999,0.958607,-0.26984400000000003,0.016227000000000002,-0.378027,0.011038,0.074668,0.036677999999999995,-0.018867
205,0.324842,-1.2825229999999999,1.062174,0.09073099999999999,0.958736,-0.269413,-0.036289,-0.329252,0.113158,0.096403,-0.050731,-0.042263
206,0.330667,-1.283196,1.0763530000000001,0.092089,0.9589270000000001,-0.268271,-0.11400999999999999,-0.457109,0.18648599999999999,0.124875,-0.08504099999999999,-0.079828
207,0.33814,-1.284836,1.095523,0.09357,0.959391,-0.26609099999999997,-0.18424200000000002,-0.612561,0.22785500000000003,0.172238,-0.08529199999999999,-0.099983
208,0.34655,-1.286584,1.119251,0.095235,0.959883,-0.26371700000000003,-0.218408,-0.796971,0.286605,0.216533,-0.062956,-0.095338
209,0.35848,-1.2876379999999998,1.149498,0.09801900000000001,0.9601780000000001,-0.261615,-0.249061,-0.902692,0.36015,0.21037600000000004,-0.080722,-0.104672
210,0.373079,-1.2898290000000001,1.184445,0.101061,0.960788,-0.25819699999999995,-0.30732800000000005,-0.9752219999999999,0.433544,0.207335,-0.081332,-0.10809
211,0.397073,-1.291523,1.231184,0.106597,0.961256,-0.254196,-0.44270200000000004,-1.087002,0.532086,0.145235,-0.135099,-0.092895
212,0.423666,-1.295644,1.282276,0.11168800000000001,0.962384,-0.247658,-0.550585,-1.1504,0.496162,0.055777,-0.133374,-0.039756
213,0.453128,-1.3020690000000001,1.337272,0.116226,0.96411,-0.238696,-0.639604,-1.206742,0.543683,0.070069,-0.049132,0.014788999999999998
214,0.480785,-1.3080180000000001,1.392156,0.120127,0.965672,-0.2303,-0.564737,-1.2630700000000001,0.44600100000000004,0.084738,0.103099,0.083053
215,0.5006970000000001,-1.316773,1.434707,0.120625,0.967909,-0.220437,-0.7270760000000001,-0.8704149999999999,0.162354,-0.156224,0.191927,0.146814
216,0.520534,-1.329346,1.469975,0.11891099999999999,0.970992,-0.207425,-0.73521,-0.6738529999999999,0.031722,-0.176635,0.19801400000000002,0.146802
217,0.536162,-1.340852,1.499012,0.116422,0.9736790000000001,-0.195922,-0.6290640000000001,-0.581446,0.007776000000000001,-0.16409,0.239181,0.11441
218,0.552492,-1.350396,1.524782,0.114723,0.9758100000000001,-0.186076,-0.50334,-0.393283,-0.0033380000000000003,-0.040413,-0.12115,0.240473
219,0.56733,-1.358235,1.54856,0.113357,0.9774940000000001,-0.177896,-0.48322299999999996,-0.423199,0.001114,-0.039046,-0.122834,0.23229299999999997
220,0.5908140000000001,-1.368458,1.581332,0.111929,0.979599,-0.166876,-0.6997770000000001,-0.412876,0.004929,-0.048575,0.034622,0.329443
221,0.633351,-1.3816549999999999,1.6301889999999999,0.11126199999999999,0.982166,-0.151529,-0.8652,-0.15888,0.033359,-0.036494,0.182858,0.289484
222,0.704504,-1.394189,1.7028419999999997,0.11376900000000001,0.9844450000000001,-0.13384300000000002,-0.890609,0.042974,0.192088,-0.040267000000000004,0.10909100000000001,0.248773
223,0.782854,-1.402922,1.781856,0.117827,0.985942,-0.11842799999999999,-0.6912590000000001,-0.007726,0.177522,-0.055434000000000004,-0.019679,0.179677
224,0.835016,-1.409492,1.8355580000000002,0.11903599999999999,0.9870190000000001,-0.10777300000000001,-0.46440299999999995,-0.039742,-0.004587,-0.064928,-0.030383999999999998,0.14993299999999998
225,0.861345,-1.416711,1.861907,0.116422,0.988152,-0.099957,-0.32554099999999997,0.052123,-0.187469,-0.056804999999999994,-0.0036090000000000002,0.121472
226,0.8898360000000001,-1.424914,1.887618,0.112919,0.9893780000000001,-0.09149299999999999,-0.338902,0.213896,-0.138631,0.091671,0.01729,0.063295
227,0.937678,-1.430447,1.930182,0.112749,0.990167,-0.082746,-0.411804,0.30508,0.031658,0.105452,0.000571,0.067472
228,0.999461,-1.433691,1.9872990000000001,0.114941,0.9906159999999999,-0.07389,-0.379618,0.204442,0.12922,0.107899,-0.013793999999999999,0.074699
229,1.064075,-1.435799,2.05008,0.117644,0.9909020000000001,-0.065299,-0.380279,0.075472,0.147541,0.068468,-0.048534,0.058189
230,1.1288610000000001,-1.437824,2.115617,0.11980999999999999,0.9911719999999999,-0.056687,-0.455319,-0.08692000000000001,0.063903,0.054140999999999995,-0.043647000000000005,0.040895
231,1.191455,-1.44167,2.1824779999999997,0.119577,0.991675,-0.047669,-0.48193800000000003,-0.193941,-0.055786,0.043631,-0.036749000000000004,0.02385
232,1.258506,-1.445781,2.252282,0.118621,0.992196,-0.038297000000000005,-0.44053000000000003,-0.046893000000000004,-0.101619,0.052186,0.026924,0.029202999999999996
233,1.322902,-1.448992,2.317501,0.117748,0.992591,-0.029802,-0.418279,-0.028009,-0.048076999999999995,0.072742,0.03486,0.059221
234,1.391299,-1.450094,2.387164,0.118434,0.9927239999999999,-0.021490000000000002,-0.424284,-0.05935599999999999,0.070494,0.09265599999999999,0.012891,0.065664
235,1.463802,-1.448381,2.462774,0.121369,0.992517,-0.013036,-0.46462600000000004,-0.177761,0.14513900000000002,0.07119600000000001,-0.034463,0.037419
236,1.537974,-1.446328,2.541906,0.124036,0.9922639999999999,-0.004072999999999999,-0.476361,-0.22970900000000002,0.09278099999999999,0.044512,-0.0033420000000000004,0.054183
237,1.6044690000000001,-1.4457950000000002,2.614277,0.12456199999999999,0.9921969999999999,0.004196,-0.436667,-0.289067,-0.015824,0.054759,0.021368,0.062226
238,1.671619,-1.445414,2.687904,0.124374,0.99215,0.012582,-0.44501,-0.279318,-0.049010000000000005,0.12525899999999998,0.048438,0.059348000000000005
239,1.731646,-1.4456069999999999,2.753109,0.123206,0.992174,0.01999,-0.365516,-0.20908200000000002,-0.099819,0.139626,0.067549,-0.001207
240,1.782568,-1.4468159999999999,2.808109,0.120858,0.992324,0.025983999999999997,-0.303273,-0.167595,-0.138962,0.143379,0.082978,-0.041441000000000006
241,1.823948,-1.44834,2.852057,0.11821400000000001,0.9925120000000001,0.030581999999999998,-0.185415,-0.06358,-0.145749,0.210842,0.032711000000000004,-0.142048
242,1.8467509999999998,-1.449278,2.874492,0.11658900000000001,0.992626,0.033016000000000004,-0.082723,0.069992,-0.071496,0.230334,-0.081264,-0.130931
243,1.861616,-1.4491020000000001,2.888788,0.11625,0.992604,0.034794,-0.097374,-0.018718000000000002,0.013973,0.230674,-0.081243,-0.13271
244,1.873316,-1.447445,2.903073,0.117406,0.992402,0.036642,-0.133328,-0.1678,0.031005,0.212139,0.044051,-0.08012999999999999
245,1.8860169999999998,-1.4465649999999999,2.920024,0.11776099999999999,0.992293,0.038401,-0.085382,-0.22743899999999997,-0.014518000000000001,0.13051400000000002,0.078172,-0.031855
246,1.877025,-1.4484489999999999,2.915037,0.11631500000000002,0.992525,0.036775999999999996,0.16178299999999998,-0.17991600000000002,-0.12501500000000002,0.116351,0.062407000000000004,-0.024599
247,1.832989,-1.45361,2.8736599999999997,0.11287,0.993142,0.030291000000000002,0.38202600000000003,-0.138888,-0.186555,0.127471,0.009941,-0.062273
248,1.763268,-1.457515,2.8060389999999997,0.110898,0.99359,0.021612,0.388948,-0.14046,-0.065795,0.095461,0.034881999999999996,0.119592
249,1.6844299999999999,-1.456119,2.735001,0.11363599999999999,0.993432,0.012969,0.43253400000000003,-0.5934729999999999,0.229919,0.084423,0.092735,0.210389
250,1.562138,-1.4490969999999999,2.62535,0.12134500000000001,0.992604,-0.001051,0.7523270000000001,-0.667928,0.456575,-0.094734,0.058681,0.23576100000000003
251,1.41454,-1.438259,2.489084,0.130496,0.9912299999999999,-0.020558,0.99275,-0.584611,0.458147,-0.321918,-0.017978,0.005681
252,1.261095,-1.424763,2.342377,0.13855399999999998,0.9893559999999999,-0.044337,1.219531,-0.28789000000000003,0.38457600000000003,-0.32997600000000005,-0.016105,0.029460000000000004
253,1.120592,-1.411094,2.2044509999999997,0.143148,0.987275,-0.06918400000000001,1.204788,-0.23684699999999997,0.153671,-0.083104,0.13819800000000002,0.036164
254,1.003211,-1.399303,2.0904130000000003,0.14387,0.985331,-0.091727,1.021887,-0.226124,0.028466,0.23891199999999999,0.203573,-0.016077
255,0.9199809999999999,-1.388443,2.011529,0.144254,0.9834200000000001,-0.109848,0.8215020000000001,-0.357775,0.091329,0.273242,0.19634400000000002,-0.069336
256,0.859241,-1.3745319999999999,1.959932,0.147669,0.9808020000000001,-0.127326,0.836511,-0.582477,0.32673,0.153402,0.144488,-0.105584
257,0.806554,-1.355522,1.921486,0.154194,0.9769180000000001,-0.147804,0.974318,-0.849951,0.49574700000000005,-0.068897,0.13128199999999998,-0.030587
258,0.7650899999999999,-1.335267,1.8995970000000002,0.16161,0.972391,-0.168311,0.811894,-1.08505,0.5547340000000001,-0.100819,0.086493,0.010657
259,0.735332,-1.318052,1.8928459999999998,0.167738,0.9682299999999999,-0.185434,0.6187199999999999,-1.1109639999999998,0.5427350000000001,-0.171522,0.08908200000000001,0.075113
260,0.71536,-1.301973,1.894773,0.174191,0.964084,-0.200475,0.567739,-1.072466,0.5347689999999999,-0.096295,-0.19681099999999999,0.063359
261,0.695868,-1.287654,1.8940029999999999,0.179084,0.960182,-0.21440700000000001,0.5404680000000001,-0.8471299999999999,0.417853,-0.076285,-0.22090900000000002,0.085288
262,0.674586,-1.276485,1.886916,0.181168,0.957002,-0.22653099999999998,0.466552,-0.687148,0.168236,-0.08902,-0.206682,0.083312
263,0.644192,-1.269993,1.869657,0.177928,0.955099,-0.236896,0.371498,-0.7273350000000001,-0.088749,-0.127711,-0.112936,0.055300999999999996
264,0.611166,-1.267835,1.85034,0.17119,0.954457,-0.244329,0.184348,-0.7038479999999999,-0.20545500000000003,-0.117434,-0.07076,0.071477
265,0.5828,-1.2689270000000001,1.834316,0.163618,0.954782,-0.248216,0.035587,-0.604121,-0.24080500000000002,-0.082732,-0.17956,0.06141799999999999
266,0.55901,-1.272507,1.819567,0.155853,0.9558409999999999,-0.249137,-0.065624,-0.401098,-0.308002,-0.07225,-0.184417,0.014700999999999999
267,0.54094,-1.2771290000000002,1.806604,0.14905,0.957189,-0.248123,-0.12051600000000001,-0.21577,-0.253075,-0.050569,-0.16985,0.007034
268,0.5319050000000001,-1.281979,1.799741,0.14444500000000002,0.9585809999999999,-0.245455,-0.182068,-0.075211,-0.185319,-0.018987,-0.161081,-0.067091
269,0.530092,-1.2872430000000001,1.7990810000000002,0.14144600000000002,0.960067,-0.24136,-0.248396,-0.0518,-0.12171900000000001,-0.018033,-0.14135699999999998,-0.105274
270,0.5320199999999999,-1.292678,1.8013240000000001,0.139263,0.9615739999999999,-0.23658600000000002,-0.248257,-0.0028699999999999997,-0.103621,0.0030559999999999997,-0.117961,-0.128603
271,0.535331,-1.298554,1.803813,0.13716,0.9631700000000001,-0.23125900000000002,-0.28838,0.063424,-0.130692,0.008135,-0.040456,-0.191746
272,0.5405909999999999,-1.3049540000000002,1.807461,0.135199,0.964872,-0.22524299999999997,-0.282941,0.11760999999999999,-0.099745,0.037943,-0.030088,-0.154823
273,0.551139,-1.3096649999999999,1.81466,0.135185,0.9660989999999999,-0.21992899999999999,-0.255399,0.17463299999999998,0.0018559999999999998,0.049401,-0.049717000000000004,-0.146755
274,0.567493,-1.313712,1.8281939999999999,0.13666,0.9671350000000001,-0.21439,-0.309001,0.169284,0.053831,-0.060138,0.09354900000000001,-0.20003800000000002
275,0.587504,-1.3183340000000001,1.844539,0.138443,0.9683,-0.20789000000000002,-0.36739499999999997,0.21111999999999997,0.032005,-0.113724,0.13014900000000001,-0.339764
276,0.601507,-1.322176,1.8572,0.139233,0.969253,-0.20285999999999998,-0.134404,0.029352999999999997,-0.002454,-0.044446,0.151658,-0.41293900000000006
277,0.594935,-1.322125,1.8511959999999998,0.137925,0.96924,-0.203812,0.127996,-0.056487,-0.075287,-0.020005000000000002,0.21796999999999997,-0.09487899999999999
278,0.575476,-1.319061,1.8351369999999998,0.135549,0.968482,-0.208948,0.316848,-0.323334,-0.10674000000000002,-0.118047,0.399865,-0.035452
279,0.560433,-1.3183120000000002,1.824927,0.132777,0.9682950000000001,-0.211579,-0.161618,-0.119575,-0.031294999999999996,-0.10404400000000001,0.325513,0.005615
280,0.584615,-1.3246040000000001,1.845932,0.13448800000000002,0.9698469999999999,-0.203221,-0.421522,0.32827199999999995,0.08595599999999999,-0.241071,-0.157927,0.13004000000000002
281,0.607332,-1.32683,1.8642130000000001,0.13783800000000002,0.9703870000000001,-0.19834000000000002,-0.06189600000000001,0.144715,0.12288699999999998,-0.297261,-0.007237,0.270972
282,0.6007560000000001,-1.323129,1.8555400000000002,0.138559,0.9694870000000001,-0.202204,0.355942,0.105679,-0.067493,-0.34994000000000003,0.16483599999999998,0.237909
283,0.584617,-1.318825,1.831237,0.13758,0.9684229999999999,-0.207892,0.263388,0.5718,-0.136035,-0.097205,0.27231500000000003,0.240957
284,0.592637,-1.317561,1.823015,0.139926,0.9681069999999999,-0.207796,0.07318200000000001,0.910544,0.03205,0.15565199999999998,-0.10160599999999999,0.28348
285,0.622049,-1.312518,1.833559,0.14882,0.966831,-0.20755700000000002,0.145731,0.9878549999999999,0.34865100000000004,0.22970500000000002,-0.131046,0.260703
286,0.6590550000000001,-1.3091139999999999,1.8553990000000002,0.158411,0.9659559999999999,-0.20451,-0.172258,0.654801,0.263536,0.083685,0.041382999999999996,0.25149099999999996
287,0.695369,-1.3131030000000001,1.881039,0.163262,0.96698,-0.195663,-0.441537,0.6149319999999999,0.077972,-0.216317,0.068557,0.15304500000000001
288,0.7378520000000001,-1.3182,1.9078490000000001,0.168106,0.968267,-0.18490299999999998,-0.352573,0.9841110000000001,0.11871199999999998,-0.306626,0.076472,0.093595
289,0.7862210000000001,-1.318,1.932391,0.17698699999999998,0.968217,-0.176696,-0.132921,1.3672090000000001,0.294944,-0.09935,-0.013383,0.134017
290,0.8446170000000001,-1.314608,1.960457,0.189452,0.967363,-0.168245,-0.192937,1.652478,0.403118,0.045655,-0.08986,0.21472399999999997
291,0.918285,-1.312358,2.002239,0.20305,0.9667899999999999,-0.155166,-0.422547,1.624423,0.425051,0.057509000000000005,-0.076837,0.176452
292,0.9964120000000001,-1.311964,2.050638,0.214862,0.9666889999999999,-0.139052,-0.5088,1.56121,0.324117,0.0040100000000000005,-0.108703,0.051757000000000004
293,1.068514,-1.313072,2.092609,0.223381,0.966973,-0.122697,-0.46420100000000003,1.605321,0.176957,-0.043968,-0.111077,0.068909
294,1.136233,-1.314469,2.128273,0.229946,0.9673280000000001,-0.10673099999999999,-0.423041,1.69167,0.125859,-0.014491999999999998,-0.065014,0.017574
295,1.203437,-1.3155,2.1623799999999997,0.23566199999999998,0.9675889999999999,-0.09068899999999999,-0.404708,1.723612,0.114196,0.060815999999999995,-0.029066,0.013113999999999999
296,1.266351,-1.316533,2.192748,0.23994400000000002,0.967849,-0.075394,-0.365508,1.613947,0.065472,0.044937,-0.041549,-0.030579000000000002
297,1.323659,-1.317474,2.221405,0.24298499999999998,0.9680850000000001,-0.061304,-0.348128,1.416925,0.037004,0.023632,-0.087348,-0.086355
298,1.373958,-1.3190899999999999,2.245586,0.24422399999999997,0.9684889999999999,-0.048702999999999996,-0.298149,1.295651,-0.047949,0.042092000000000004,-0.13026300000000002,-0.054583000000000007
299,1.422121,-1.322434,2.270457,0.24308000000000002,0.969316,-0.036409,-0.36790700000000004,1.10879,-0.144337,0.035575999999999997,-0.093935,-0.078582
300,1.476318,-1.327382,2.307266,0.23992,0.970521,-0.022735,-0.544774,0.8465959999999999,-0.223217,-0.000357,-0.11673,-0.092805
301,1.538141,-1.333731,2.355285,0.23470100000000002,0.972031,-0.007667,-0.590879,0.704377,-0.315224,-0.021124,-0.11550999999999999,-0.089669
302,1.5988870000000002,-1.341156,2.4043490000000003,0.22751,0.973748,0.006393,-0.556701,0.634266,-0.393943,-0.044008,0.030585,-0.12803599999999998
303,1.662575,-1.348649,2.456244,0.219369,0.975427,0.02019,-0.557379,0.6940310000000001,-0.42073,-0.013238,0.053503999999999996,-0.161029
304,1.7291459999999998,-1.356272,2.5091419999999998,0.21019000000000002,0.9770780000000001,0.033565,-0.489649,0.77277,-0.456678,0.017897999999999997,0.070423,-0.180476
305,1.793525,-1.363787,2.557201,0.200427,0.97865,0.045394,-0.375948,0.9214610000000001,-0.443255,0.017269999999999997,-0.009137000000000001,-0.19448800000000002
306,1.849229,-1.369931,2.594087,0.191802,0.979894,0.054827999999999995,-0.24683899999999998,1.004846,-0.362344,0.025894999999999998,-0.010381,-0.203922
307,1.901268,-1.373898,2.6256,0.18501099999999998,0.980678,0.063468,-0.259871,1.0821399999999999,-0.233279,0.119875,0.131001,-0.143516
308,1.948704,-1.375103,2.652043,0.18069200000000002,0.9809129999999999,0.071733,-0.228321,1.0869280000000001,-0.12624200000000002,0.12526199999999998,0.155211,-0.118913
309,1.9968439999999998,-1.3750930000000001,2.6798669999999998,0.17704,0.9809110000000001,0.080349,-0.26318400000000003,0.9813649999999999,-0.07080299999999999,0.101586,0.406143,-0.082348
310,2.0272419999999998,-1.372191,2.692279,0.17707,0.9803430000000001,0.086947,-0.087629,0.897676,0.192245,0.164452,0.292149,0.005095000000000001
311,2.020739,-1.36602,2.6689529999999997,0.183078,0.9791059999999999,0.088424,0.178386,0.748677,0.445245,0.105053,0.181767,-0.064101
312,1.990487,-1.359366,2.625164,0.191615,0.9777319999999999,0.085499,0.31069,0.569025,0.501947,0.047673,0.13786900000000002,-0.054249
313,1.9437810000000002,-1.354483,2.568524,0.199843,0.9766950000000001,0.078199,0.575821,0.35968,0.41006400000000004,-0.115569,-0.10473199999999999,0.102709
314,1.8688490000000002,-1.352768,2.4878150000000003,0.206738,0.976326,0.063511,0.9692700000000001,0.022938,0.364105,-0.187054,0.151756,0.20215999999999998
315,1.735377,-1.351688,2.356262,0.21439299999999997,0.976092,0.035607,1.573709,-0.30733699999999997,0.38263800000000003,-0.285193,0.472944,0.178611
316,1.585118,-1.346941,2.201396,0.221939,0.9750489999999999,0.003179,1.700461,0.35589899999999997,0.380537,-0.30275,0.572971,0.192592
317,1.457239,-1.338017,2.0535069999999997,0.22916999999999998,0.973029,-0.026136000000000003,1.656736,1.020988,0.32917199999999996,-0.21563600000000002,0.45641400000000004,0.1667
318,1.354586,-1.330275,1.923707,0.232638,0.9712139999999999,-0.051097000000000004,1.503179,1.177338,-0.00859,-0.137408,0.35231799999999996,0.114971
319,1.264705,-1.3265799999999999,1.811479,0.230533,0.970327,-0.072854,1.282845,0.821111,-0.243614,-0.125187,0.20623200000000003,0.061272
320,1.170201,-1.32301,1.6973650000000002,0.225819,0.969458,-0.09563300000000001,1.45318,0.8773780000000001,-0.342909,-0.11468900000000001,0.128458,0.056678
321,1.0676370000000002,-1.3147010000000001,1.570793,0.221892,0.9673860000000001,-0.12213199999999999,1.655182,1.020232,-0.278656,-0.08792,0.02738,0.05951
322,0.9755809999999999,-1.302342,1.458322,0.21961,0.964182,-0.148706,1.458043,0.671214,-0.20587800000000003,0.011225,-0.25738,0.038004
323,0.909005,-1.2895940000000001,1.381934,0.21891100000000002,0.960723,-0.170527,1.080439,0.178491,-0.003854,0.044989999999999995,-0.31551999999999997,0.047846
324,0.871343,-1.275882,1.341695,0.222396,0.9568270000000001,-0.187114,0.756425,0.028395999999999998,0.24938000000000002,0.034089,-0.42994099999999996,0.053951
325,0.8545510000000001,-1.2650709999999998,1.320283,0.22701300000000002,0.9536290000000001,-0.197603,0.49980699999999995,0.26198699999999997,0.13192,-0.076027,-0.550049,-0.019591
326,0.842159,-1.260851,1.301189,0.22754699999999997,0.95235,-0.203079,0.28566199999999997,0.301085,-0.135613,-0.14435599999999998,-0.558033,-0.035858999999999995
327,0.827298,-1.262401,1.281024,0.22341799999999998,0.952822,-0.20543899999999998,0.105751,0.19914300000000001,-0.326882,-0.177474,-0.586733,0.005915
328,0.8093359999999999,-1.268152,1.258363,0.21572199999999997,0.9545520000000001,-0.20563299999999998,0.034712,0.160528,-0.46513000000000004,-0.1661,-0.46759799999999996,-0.053644000000000004
329,0.798504,-1.2727190000000002,1.243076,0.21035700000000002,0.9559030000000001,-0.20491399999999999,-0.014097,0.210912,-0.235868,-0.125915,-0.30507,-0.126522
330,0.798115,-1.2744360000000001,1.237326,0.209101,0.956406,-0.20385,0.03349,0.292066,-0.059383000000000005,-0.094264,-0.25119,-0.16902899999999998
331,0.802226,-1.2728780000000002,1.233782,0.211009,0.95595,-0.204024,0.11033699999999999,0.418087,0.060634,0.080831,-0.1429,-0.228868
332,0.809429,-1.271226,1.232782,0.21361599999999997,0.955463,-0.20358800000000002,0.018563,0.372763,0.019458,0.092414,-0.002262,-0.30871
333,0.813836,-1.273517,1.232764,0.212919,0.9561370000000001,-0.20114100000000001,-0.11848900000000001,0.08208700000000001,-0.163793,0.074785,0.131494,-0.377091
334,0.799316,-1.278988,1.22319,0.206223,0.957725,-0.200561,-0.048639,-0.469211,-0.352742,0.043762,0.463692,-0.233841
335,0.771366,-1.2817180000000001,1.20696,0.198714,0.958507,-0.204371,0.114076,-0.607,-0.135648,-0.143218,0.538701,-0.226843
336,0.769404,-1.279717,1.210233,0.199647,0.957935,-0.20613800000000002,-0.031579,0.034697000000000006,0.156274,-0.122834,0.389462,-0.313012
337,0.7954720000000001,-1.27829,1.227657,0.20592800000000003,0.9575239999999999,-0.20182,-0.178787,0.650392,0.292257,-0.150065,-0.002721,-0.291283
338,0.819146,-1.271136,1.24499,0.21564699999999998,0.9554370000000001,-0.201562,0.384071,0.229149,0.451621,-0.173975,0.266899,0.083367
339,0.816991,-1.262227,1.237227,0.22141,0.9527690000000001,-0.207844,0.0060030000000000005,0.24156799999999998,0.071882,0.020457,0.36501100000000003,-0.096599
340,0.839144,-1.2738770000000001,1.257696,0.217685,0.956242,-0.195459,-0.766532,0.063675,-0.325324,-0.436924,-0.280354,0.32728
341,0.851008,-1.288615,1.272828,0.209367,0.96045,-0.183551,-0.50751,-0.167669,-0.5048159999999999,-0.558366,0.157103,0.608539
342,0.811052,-1.297442,1.227986,0.195713,0.9628709999999999,-0.18592,0.648366,0.530654,-0.849082,-0.585789,0.664525,0.576332
343,0.7847430000000001,-1.2931540000000001,1.160277,0.19367,0.9617040000000001,-0.193924,0.6057279999999999,2.615053,-0.194026,-0.012289,0.135876,-0.14769000000000002
344,0.835816,-1.286291,1.162352,0.208209,0.959801,-0.18820599999999998,0.118449,2.187842,0.502803,0.11170699999999999,-0.47231300000000004,0.331775
345,0.889496,-1.272674,1.180359,0.22813899999999998,0.95589,-0.184979,0.267108,1.590739,0.777003,0.262126,-0.31199899999999997,0.165447
346,0.94396,-1.264126,1.212342,0.244479,0.9533440000000001,-0.177071,-0.39479000000000003,0.942371,0.455949,0.27705100000000005,0.002543,0.006142
347,0.9899819999999999,-1.273224,1.252138,0.24510500000000002,0.956051,-0.16087100000000001,-0.9343629999999999,0.201785,-0.352311,0.084866,0.461506,0.13134500000000002
348,1.051985,-1.294594,1.303623,0.23680199999999998,0.962098,-0.13521,-1.2418790000000002,1.0085549999999999,-0.44095,-0.346192,0.25750700000000004,0.11804400000000001
349,1.1386040000000002,-1.3027959999999998,1.3639569999999999,0.24043499999999998,0.964302,-0.11090699999999999,-0.6136560000000001,1.648125,0.244144,-0.307818,-0.10691099999999999,0.043235
350,1.19823,-1.297389,1.386714,0.25146999999999997,0.9628559999999999,-0.09827899999999999,-0.029411,1.932092,0.385662,-0.07370499999999999,-0.395519,0.184858
351,1.25678,-1.29345,1.408059,0.260395,0.961785,-0.084566,-0.354416,1.851877,0.21471500000000002,-0.070774,-0.42681199999999997,0.21957600000000002
352,1.324565,-1.2948620000000002,1.4408239999999999,0.264207,0.9621709999999999,-0.06640399999999999,-0.45761599999999997,1.8523830000000001,-0.088313,-0.049652999999999996,-0.107725,0.105359
353,1.389859,-1.302771,1.468136,0.260482,0.9642959999999999,-0.047652,-0.476386,1.926997,-0.349186,-0.1416,0.028960000000000003,-0.06576699999999999
354,1.4709709999999998,-1.308043,1.515156,0.258423,0.9656790000000001,-0.025883,-0.734471,1.7584419999999998,-0.065558,0.034149,-0.308345,-0.057857000000000006
355,1.563813,-1.310983,1.573879,0.256869,0.9664379999999999,-0.001794,-0.770178,1.745279,-0.205727,0.153852,-0.34633600000000003,-0.090949
356,1.650466,-1.319689,1.638691,0.24766300000000002,0.9686379999999999,0.019773,-0.822468,0.844875,-0.631159,0.20971900000000002,-0.15984600000000002,-0.12309
357,1.7333919999999998,-1.333466,1.714307,0.231981,0.9719690000000001,0.038055,-0.8121659999999999,0.327913,-0.830182,0.229079,-0.051588999999999996,-0.184448
358,1.812112,-1.344174,1.7899310000000002,0.21814899999999998,0.9744309999999999,0.053689,-0.677854,0.305171,-0.587797,0.156805,0.10825599999999999,-0.24997800000000003
359,1.8767779999999998,-1.350516,1.8472810000000002,0.208326,0.975836,0.065811,-0.4398,0.449825,-0.47202,0.078936,0.10128200000000001,-0.26708899999999997
360,1.930682,-1.35976,1.894548,0.196025,0.977814,0.073759,-0.266345,0.364894,-0.695026,0.039189,0.15773,-0.237943
361,1.9832150000000002,-1.371564,1.940025,0.181292,0.9802190000000001,0.079317,-0.189181,0.44769499999999995,-0.6892520000000001,0.016401,0.212912,-0.137087
362,2.029492,-1.379805,1.9763380000000002,0.170179,0.981816,0.084039,-0.103369,0.576299,-0.42389799999999994,0.10321300000000001,0.11162799999999999,-0.03782
363,2.060819,-1.386487,1.9947869999999999,0.16167,0.9830629999999999,0.086238,0.05716,0.71404,-0.39098099999999997,0.165707,0.060364,-0.098429
364,2.090864,-1.394139,2.011841,0.152472,0.9844370000000001,0.087313,0.012565,0.542613,-0.372913,0.163217,0.466354,-0.09675800000000001
365,2.089427,-1.399879,2.004839,0.14768699999999998,0.9854290000000001,0.08429199999999999,0.35341500000000003,0.21542399999999998,-0.098785,0.044405,0.262328,0.093076
366,2.031393,-1.402668,1.94304,0.149867,0.9859,0.074363,0.6339090000000001,0.025723000000000003,0.21106599999999998,-0.077235,0.052614,0.092981
367,1.920636,-1.402587,1.8367080000000002,0.15724200000000002,0.985886,0.057369,0.9301649999999999,-0.49305200000000005,0.48299200000000003,-0.165635,-0.001588,0.23785799999999999
368,1.7432029999999998,-1.3953520000000001,1.672667,0.171924,0.984649,0.029938,1.454964,-0.919048,0.798056,0.053265,0.34224,0.143112
369,1.55009,-1.38221,1.495006,0.187399,0.9822700000000001,-0.0038810000000000003,1.555709,-0.873366,0.742085,0.0072569999999999996,0.518538,0.12306700000000001
370,1.405167,-1.3659700000000001,1.35725,0.200586,0.979096,-0.033530000000000004,1.322063,-0.26068,0.640323,-0.181864,0.57408,-0.032861
371,1.29795,-1.350767,1.2489540000000001,0.21016100000000001,0.975891,-0.058809,1.27758,0.044056,0.396068,-0.248858,0.399567,-0.07801699999999999
372,1.204697,-1.337415,1.148839,0.215923,0.9728899999999999,-0.082781,1.311369,0.253486,0.20802800000000002,-0.237163,0.333827,-0.010754999999999999
373,1.110079,-1.324709,1.0487229999999998,0.21819299999999997,0.969873,-0.108298,1.302389,-0.005765999999999999,0.046995999999999996,-0.145592,0.123419,0.08425099999999999
374,1.022369,-1.314686,0.9656129999999999,0.21615399999999999,0.967383,-0.13205799999999998,1.072417,-0.5337649999999999,-0.114167,-0.10906800000000001,-0.082129,0.06400299999999999
375,0.940226,-1.305548,0.89297,0.211721,0.9650280000000001,-0.154554,1.0103659999999999,-0.586752,-0.12948800000000002,-0.103078,-0.085511,0.043134
376,0.8760610000000001,-1.293793,0.8379780000000001,0.21007699999999999,0.961879,-0.17506300000000002,0.870658,-0.561707,0.12160499999999999,-0.122003,-0.116664,0.08755399999999999
377,0.8456370000000001,-1.279016,0.8191970000000001,0.21527,0.957733,-0.19078,0.579184,-0.661462,0.544849,-0.061324000000000004,-0.307373,0.142746
378,0.8367479999999999,-1.262846,0.823627,0.225036,0.9529569999999999,-0.203035,0.42412,-0.669737,0.617484,-0.040847,-0.441162,0.10536400000000001
379,0.8279540000000001,-1.254159,0.830607,0.229331,0.9502879999999999,-0.21059899999999998,0.050513999999999996,-0.869252,0.219888,-0.147834,-0.702866,0.090237
380,0.815454,-1.258109,0.83575,0.22394699999999998,0.9515100000000001,-0.21087399999999998,-0.315391,-0.888325,-0.286844,-0.255807,-0.7625609999999999,0.11237799999999999
381,0.797275,-1.2696290000000001,0.8301780000000001,0.21222,0.954991,-0.207238,-0.30835300000000004,-0.5081600000000001,-0.524428,-0.303635,-0.7186319999999999,0.081612
382,0.785311,-1.278884,0.824428,0.203467,0.9576950000000001,-0.203502,-0.23852800000000002,-0.190736,-0.31177,-0.21398000000000003,-0.396019,-0.074513
383,0.781088,-1.284429,0.8214959999999999,0.198864,0.959276,-0.200586,-0.12961199999999998,-0.029758999999999997,-0.170211,0.012653,-0.261156,-0.217459
384,0.779315,-1.287806,0.8216459999999999,0.19623,0.960225,-0.198632,-0.120815,-0.144036,-0.104841,0.015287,-0.26210500000000003,-0.21941300000000002
385,0.778994,-1.292165,0.825147,0.193223,0.961433,-0.195714,-0.238146,-0.17543399999999998,-0.143008,0.164351,0.015526,-0.338389
386,0.773021,-1.2990469999999998,0.8254799999999999,0.187426,0.963303,-0.192124,-0.187407,-0.44234300000000004,-0.30575,0.150221,0.34581,-0.262909
387,0.7360300000000001,-1.30376,0.802458,0.177143,0.964557,-0.19555699999999998,0.16852999999999999,-0.8555,-0.390328,-0.005436,0.673153,-0.166854
388,0.705329,-1.302726,0.7859,0.171703,0.964284,-0.20166199999999998,0.102397,-0.579288,0.12267,-0.234722,0.675609,-0.371245
389,0.7121569999999999,-1.2970959999999998,0.79668,0.176621,0.962777,-0.204592,0.296167,0.041208999999999996,0.36037399999999997,-0.332627,0.8087989999999999,-0.10063
390,0.707885,-1.278772,0.78294,0.187187,0.9576629999999999,-0.21871300000000002,0.974619,0.604071,0.472282,-0.224556,0.8343139999999999,-0.128654
391,0.7103729999999999,-1.267892,0.7790779999999999,0.19451400000000002,0.9544739999999999,-0.226133,0.08606,0.158603,0.223092,-0.297252,-0.007682,0.29318
392,0.7215779999999999,-1.270157,0.789518,0.195608,0.955147,-0.22231599999999999,-0.21530100000000002,-0.046738999999999996,-0.112035,-0.42023299999999997,-0.356926,0.327891
393,0.708025,-1.274712,0.777732,0.189745,0.9564860000000001,-0.22163899999999997,0.059864999999999995,-0.055312,-0.337634,-0.34860399999999997,0.0153,0.370809
394,0.6944359999999999,-1.276037,0.755318,0.185905,0.956872,-0.223223,0.183738,0.784347,-0.234227,-0.13730599999999998,0.175025,0.215029
395,0.7063560000000001,-1.272015,0.73895,0.191049,0.9556959999999999,-0.22391799999999998,0.355852,1.615666,0.047921,0.231711,0.22239,0.302836
396,0.734731,-1.270678,0.73564,0.198182,0.9553010000000001,-0.21935500000000002,-0.147225,1.398336,-0.045045,0.30375599999999997,0.180273,0.260676
397,0.7722319999999999,-1.2792270000000001,0.754423,0.20056,0.957794,-0.20591199999999998,-0.659903,0.760039,-0.084128,0.0058,-0.030014,0.136515
398,0.8220770000000001,-1.289703,0.792022,0.203207,0.9607530000000001,-0.188822,-0.769471,0.7258020000000001,0.04761,-0.13567200000000001,-0.087157,0.196665
399,0.892019,-1.2977450000000001,0.847245,0.20988600000000002,0.962952,-0.169302,-0.8850319999999999,0.886114,0.28374299999999997,-0.162217,-0.09993099999999999,0.178198
400,0.980309,-1.302414,0.919067,0.220259,0.964201,-0.14763099999999998,-0.880727,1.029368,0.419253,-0.195372,-0.259764,0.089861
401,1.061623,-1.302549,0.977985,0.231408,0.9642370000000001,-0.129189,-0.531319,1.334093,0.36896100000000004,-0.101114,-0.257282,0.148034
402,1.127948,-1.3016860000000001,1.017164,0.24021399999999998,0.964008,-0.113925,-0.44365699999999997,1.4537309999999999,0.211323,-0.020502,-0.196491,0.136401
403,1.19445,-1.304216,1.05656,0.244984,0.964677,-0.096813,-0.594672,1.385721,0.034098,-0.020741,-0.136659,0.007412
404,1.2679989999999999,-1.3086959999999999,1.10627,0.247308,0.9658479999999999,-0.07726,-0.712731,1.208317,0.012137,0.006308,-0.220502,-0.024287
405,1.343322,-1.310893,1.1598110000000001,0.25035300000000005,0.9664149999999999,-0.057952,-0.697299,1.174863,0.10629100000000001,0.030652999999999996,-0.31953400000000004,-0.056992999999999995
406,1.426854,-1.31324,1.223559,0.252069,0.967015,-0.036536,-0.922426,1.0164819999999999,-0.051039,0.057379,-0.355611,0.060523
407,1.522716,-1.3213290000000002,1.309374,0.246585,0.969044,-0.011865,-1.209476,0.362898,-0.45813100000000007,0.010679000000000001,-0.133839,-6e-06
408,1.625316,-1.334302,1.4137899999999999,0.233929,0.972165,0.012766,-1.228164,-0.023734,-0.723753,0.000278,-0.054730999999999995,-0.033473
409,1.71895,-1.346211,1.507248,0.22024200000000002,0.974886,0.032869999999999996,-0.831318,0.265461,-0.6615310000000001,0.035983,0.029264,-0.176074
410,1.788318,-1.355504,1.570195,0.20857699999999998,0.976914,0.046099,-0.488457,0.455599,-0.555763,0.037196,0.167251,-0.16952799999999998
411,1.855186,-1.3653899999999999,1.628248,0.195751,0.978978,0.057221,-0.463042,0.508282,-0.6987939999999999,0.041279,0.21267199999999997,-0.10829200000000001
412,1.932649,-1.378383,1.6955959999999999,0.178822,0.9815459999999999,0.067688,-0.392287,0.6557109999999999,-0.865132,0.039775,0.223609,-0.177856
413,2.0084720000000003,-1.3901629999999998,1.7562630000000001,0.162695,0.9837299999999999,0.076132,-0.22250799999999998,0.889668,-0.657086,0.19488,0.232411,-0.136221
414,2.066252,-1.395282,1.795757,0.153594,0.9846370000000001,0.083005,-0.19655799999999998,0.9092020000000001,-0.237118,0.358033,0.18473599999999998,-0.139127
415,2.1057770000000002,-1.397222,1.821705,0.14855,0.984974,0.088035,-0.109543,0.587106,-0.21686999999999998,0.290002,0.20003900000000002,-0.108924
416,2.142086,-1.398467,1.849551,0.144227,0.985188,0.09270700000000001,-0.192518,0.26422199999999996,-0.11875899999999999,0.136428,0.5597949999999999,-0.00619
417,2.129311,-1.400951,1.8343450000000001,0.143323,0.985611,0.08956,0.371764,0.164668,0.045543,0.031543,0.419785,0.051552999999999995
418,2.0699419999999997,-1.402164,1.7685959999999998,0.147334,0.985815,0.080325,0.586609,0.257756,0.28941100000000003,-0.088008,-0.10005800000000001,0.145276
419,1.9604689999999998,-1.401569,1.6608319999999999,0.15577,0.985715,0.06397,0.960757,-0.528544,0.529109,0.162971,0.11520599999999999,0.147623
420,1.7724229999999999,-1.395505,1.4931780000000001,0.17083800000000002,0.984676,0.03492,1.436936,-1.4120979999999999,0.758962,0.147903,0.116246,0.176674
421,1.576111,-1.384846,1.32257,0.184855,0.9827610000000001,0.000982,1.44508,-1.374388,0.6457390000000001,0.100622,0.590527,0.170923
422,1.430607,-1.370424,1.197641,0.197061,0.979993,-0.027808,1.1096780000000002,-1.0130569999999999,0.619432,-0.11626600000000001,0.5061680000000001,-0.007836
423,1.318307,-1.356718,1.099204,0.205693,0.977173,-0.053068,1.189195,-0.639571,0.39091,-0.124898,0.508988,0.017422999999999998
424,1.208867,-1.3428879999999999,0.9937469999999999,0.211287,0.974141,-0.07999500000000001,1.390355,-0.17206400000000002,0.253915,-0.25961100000000004,0.338359,0.078942
425,1.1015270000000001,-1.3286930000000001,0.8875959999999999,0.21381399999999998,0.970836,-0.10841400000000001,1.38625,-0.288614,0.100212,-0.22786700000000001,0.122182,0.093948
426,1.0033020000000001,-1.316401,0.797501,0.21220100000000003,0.967816,-0.135265,1.188888,-0.698417,-0.07689800000000001,-0.182355,0.003452,0.09617200000000001
427,0.9181530000000001,-1.305507,0.7290220000000001,0.208294,0.965017,-0.159216,0.9382379999999999,-1.072863,0.007289,-0.047664,-0.266256,0.097403
428,0.8603290000000001,-1.291274,0.693048,0.209137,0.9611870000000001,-0.179929,0.761073,-1.169697,0.40034899999999995,-0.041763,-0.25913,0.130796
429,0.8275549999999999,-1.274362,0.683187,0.215069,0.956384,-0.197659,0.622628,-1.168884,0.5831149999999999,-0.058498,-0.292856,0.10918800000000001
430,0.799928,-1.2604739999999999,0.682852,0.219033,0.952235,-0.212759,0.360647,-1.458157,0.423559,-0.008554,-0.485942,0.14644400000000002
431,0.7713840000000001,-1.255702,0.6834100000000001,0.216038,0.950767,-0.222179,0.030488,-1.526632,-0.014494,-0.063343,-0.510322,0.174786
432,0.737961,-1.261324,0.677652,0.204894,0.9524940000000001,-0.22531700000000002,-0.205719,-1.242168,-0.350862,-0.15223499999999998,-0.567805,0.215536
433,0.711216,-1.269234,0.6692779999999999,0.19387100000000002,0.954874,-0.225,-0.21437399999999998,-0.769255,-0.325891,-0.356209,-0.581598,0.08079
434,0.699292,-1.2757889999999998,0.6681560000000001,0.18714,0.9568,-0.22250100000000003,-0.257238,-0.412887,-0.164277,-0.334586,-0.427442,0.0018280000000000002
435,0.700649,-1.281075,0.673607,0.184179,0.958324,-0.218377,-0.242252,-0.086214,-0.085543,-0.228613,-0.351802,-0.076941
436,0.7068909999999999,-1.284455,0.68069,0.18343399999999999,0.959284,-0.214759,-0.154918,-0.038907,-0.0038079999999999998,-0.067498,-0.25856999999999997,-0.118584
437,0.7087140000000001,-1.285814,0.685288,0.182976,0.959667,-0.21343499999999999,-0.073306,-0.170175,-0.014821,0.081443,-0.139812,-0.193517
438,0.702708,-1.2894780000000001,0.68384,0.179418,0.9606899999999999,-0.21184499999999998,-0.171093,-0.297889,-0.22578,0.151027,0.21889,-0.310174
439,0.677283,-1.297008,0.6681590000000001,0.169435,0.9627540000000001,-0.210693,-0.08396100000000001,-0.6295390000000001,-0.480051,0.08322,0.779464,-0.186142
440,0.643343,-1.297687,0.6456649999999999,0.161796,0.962937,-0.215799,0.24813600000000002,-0.569735,-0.006722,-0.101142,0.456375,-0.421347
441,0.652404,-1.293632,0.660883,0.166114,0.961835,-0.217425,-0.128613,-0.012692,0.343514,-0.10713800000000001,0.195483,-0.5392279999999999
442,0.695045,-1.293138,0.6999850000000001,0.175536,0.9617,-0.210511,-0.336335,0.22810300000000003,0.51267,-0.090941,0.26155100000000003,0.12776300000000002
443,0.7013590000000001,-1.2815239999999999,0.711424,0.184056,0.9584520000000001,-0.217917,0.840549,-0.362406,0.37850500000000004,0.184368,0.5284260000000001,-0.128656
444,0.682913,-1.2717100000000001,0.701612,0.185933,0.955606,-0.22856100000000001,-0.088285,-0.529622,0.110517,-0.26117399999999996,-0.030206,0.41259700000000005
445,0.6907989999999999,-1.282592,0.718163,0.181093,0.9587559999999999,-0.21906,-0.6810390000000001,-0.29397199999999996,-0.230415,-0.581697,-0.119431,0.445333
446,0.692283,-1.293328,0.729223,0.174836,0.961752,-0.21085399999999999,-0.324872,-0.542469,-0.200903,-0.55356,0.534647,0.567605
447,0.662928,-1.292354,0.704597,0.16915,0.961485,-0.21663400000000002,0.572475,0.134275,-0.253186,-0.114554,0.581942,0.052999
448,0.657948,-1.289416,0.674298,0.169795,0.960673,-0.219708,0.13781500000000002,1.533144,-0.183239,0.150075,-0.190165,0.347179
449,0.6955439999999999,-1.2868700000000002,0.683796,0.1795,0.9599629999999999,-0.215047,-0.002339,1.3341399999999999,0.41958199999999995,0.13292400000000001,-0.331545,0.42403199999999996
450,0.755817,-1.278987,0.7220340000000001,0.197311,0.957725,-0.209344,-0.136964,1.11396,0.719094,0.149628,-0.26815,0.334329
451,0.820472,-1.276525,0.7671600000000001,0.21214899999999998,0.9570139999999999,-0.197765,-0.5531,1.0070290000000002,0.381971,-0.080511,0.166186,0.193157
452,0.882099,-1.28759,0.814982,0.215736,0.9601649999999999,-0.177583,-1.043668,0.7382479999999999,-0.17445,-0.184883,0.123911,0.21565399999999998
453,0.951994,-1.304207,0.868194,0.21458400000000002,0.964675,-0.152806,-0.9952639999999999,1.099064,-0.138255,-0.26454099999999997,0.049714,0.166676
454,1.0219559999999999,-1.308648,0.9108510000000001,0.221083,0.965835,-0.135195,-0.32466100000000003,1.6256469999999998,0.260997,-0.131941,-0.19906600000000002,0.088396
455,1.076299,-1.3038459999999998,0.929834,0.232179,0.9645799999999999,-0.125186,-0.06478099999999999,1.8438700000000001,0.34158099999999997,-0.018647999999999998,-0.33931999999999995,0.169772
456,1.1395540000000002,-1.300192,0.9582780000000001,0.24282800000000002,0.9636100000000001,-0.111731,-0.394887,1.726855,0.32019699999999995,-0.019851,-0.378267,0.118003
457,1.21112,-1.301418,1.000634,0.24908899999999998,0.963937,-0.093666,-0.619077,1.3985940000000001,0.021018000000000002,0.071452,-0.206475,-0.010826
458,1.2841799999999999,-1.3086520000000001,1.053058,0.24856599999999998,0.9658370000000001,-0.07326,-0.8570129999999999,0.9846590000000001,-0.153166,0.075668,-0.216493,-0.043119
459,1.372276,-1.31554,1.126044,0.24752,0.967598,-0.049794,-1.072445,0.823254,-0.095712,0.057626,-0.343819,-0.043377
460,1.479378,-1.324047,1.224037,0.243216,0.9697110000000001,-0.022297,-1.365259,0.432327,-0.38140300000000005,0.004342,-0.237,0.02425
461,1.592085,-1.337186,1.337384,0.23142100000000002,0.9728370000000001,0.004927,-1.3197290000000002,0.026556,-0.7117140000000001,-0.037237,-0.025281,-0.033492
462,1.6960220000000001,-1.3503319999999999,1.443123,0.21695100000000003,0.9757959999999999,0.027311000000000002,-1.015256,0.093769,-0.7342420000000001,-0.022737,0.019504,-0.082624
463,1.7859310000000002,-1.361011,1.528092,0.203429,0.9780760000000001,0.044453,-0.666987,0.519387,-0.646897,-0.014647,0.11501800000000001,-0.198292
464,1.8627509999999998,-1.371609,1.592196,0.189479,0.9802280000000001,0.056946000000000004,-0.424203,0.81492,-0.717216,0.123922,0.200223,-0.21733200000000003
465,1.945238,-1.383743,1.658448,0.173059,0.982557,0.068009,-0.403348,0.8620530000000001,-0.800452,0.237204,0.281543,-0.190659
466,2.023741,-1.39215,1.721186,0.15975899999999998,0.984085,0.077753,-0.307865,0.847558,-0.45579899999999995,0.285096,0.16433699999999998,-0.14657
467,2.074944,-1.393468,1.756402,0.154433,0.984319,0.085201,-0.217133,0.73928,-0.09717200000000001,0.444871,0.131694,-0.18241400000000002
468,2.105742,-1.392619,1.7780470000000002,0.152456,0.984168,0.09034199999999999,-0.192446,0.351218,-0.043092,0.387461,0.16788499999999998,-0.205012
469,2.124701,-1.389573,1.7958990000000001,0.153264,0.9836239999999999,0.094792,-0.109642,-0.098026,0.075567,0.18146900000000002,0.543506,0.027308999999999996
470,2.1001090000000002,-1.3883159999999999,1.771782,0.156616,0.983397,0.091619,0.251756,0.005511,0.243533,-0.051878999999999995,0.134676,0.08549
471,2.039167,-1.3863940000000001,1.7121669999999998,0.16359,0.9830459999999999,0.082763,0.579187,-0.339266,0.399018,-0.13591099999999998,-0.002089,0.127884
472,1.903458,-1.38334,1.591078,0.176119,0.982482,0.060849,1.221051,-1.0979139999999998,0.684347,-0.183306,0.047822,0.15674100000000002
473,1.713271,-1.3764399999999999,1.421873,0.191154,0.9811719999999999,0.02742,1.587649,-1.199289,0.6763560000000001,-0.002617,0.5701890000000001,0.25971900000000003
474,1.524039,-1.367061,1.249883,0.202086,0.979318,-0.009456,1.622401,-0.76407,0.499784,-0.084487,0.683707,0.162151
475,1.39685,-1.353551,1.125537,0.212269,0.9764950000000001,-0.0373,1.296972,-0.064091,0.492341,-0.090611,0.5591189999999999,0.050469
476,1.28705,-1.339587,1.0089620000000001,0.21997399999999998,0.97339,-0.064148,1.497824,0.326752,0.34689699999999996,-0.183384,0.386702,-0.057739
477,1.184758,-1.3246950000000002,0.8954489999999999,0.22568200000000002,0.9698690000000001,-0.091724,1.46671,0.372218,0.192797,-0.23750700000000002,0.370203,0.045429000000000004
478,1.0951870000000001,-1.312255,0.802345,0.227282,0.966764,-0.11706,1.258238,-0.173748,-0.022672,-0.27873400000000004,0.075167,0.073389
479,1.002458,-1.3011,0.7122390000000001,0.22454200000000002,0.963852,-0.143398,1.3049600000000001,-0.269598,-0.06922400000000001,-0.168481,-0.156876,0.064862
480,0.9252950000000001,-1.286617,0.638679,0.22394899999999998,0.959892,-0.16866199999999998,1.1968159999999999,-0.455135,0.069127,-0.151622,-0.16851,0.068504
481,0.86784,-1.270591,0.59304,0.225604,0.955276,-0.191167,0.8963620000000001,-0.787617,0.358011,-0.0376,-0.241546,0.17386300000000002
482,0.8386100000000001,-1.251458,0.579231,0.233473,0.949443,-0.20986,0.7081609999999999,-0.8339209999999999,0.645175,0.023012,-0.5090439999999999,0.085837
483,0.820716,-1.237039,0.578321,0.239673,0.944818,-0.223315,0.346175,-0.9136860000000001,0.393853,0.016812,-0.504419,0.09929099999999999
484,0.804767,-1.233333,0.5814159999999999,0.238603,0.9435979999999999,-0.22953400000000002,-0.054363999999999996,-0.886394,0.043848000000000005,-0.148698,-0.715204,0.083111
485,0.790766,-1.239899,0.582808,0.230956,0.945751,-0.22849,-0.309697,-0.6410520000000001,-0.349219,-0.276946,-0.717648,0.06844
486,0.7766609999999999,-1.249142,0.578056,0.22157399999999997,0.948714,-0.22548,-0.264963,-0.405841,-0.334253,-0.257798,-0.601866,0.017669999999999998
487,0.770365,-1.2559690000000001,0.577771,0.21563400000000002,0.95085,-0.222216,-0.208434,-0.271304,-0.195161,-0.219708,-0.52162,-0.07195800000000001
488,0.766451,-1.258773,0.58041,0.21291300000000002,0.951714,-0.221138,-0.079408,-0.32051,0.009833,0.024651,-0.24121900000000002,-0.20742
489,0.764295,-1.25779,0.584322,0.213083,0.951412,-0.222271,0.002448,-0.31363,0.083036,0.099784,-0.115902,-0.293979
490,0.757834,-1.2592370000000002,0.586533,0.210695,0.951857,-0.22264299999999998,-0.120323,-0.5498770000000001,-0.137573,0.164274,0.058321000000000005,-0.348173
491,0.727236,-1.265134,0.573551,0.20005,0.9536479999999999,-0.22478800000000002,-0.026670999999999997,-1.1211229999999999,-0.42033400000000004,0.204918,0.719631,-0.10141499999999999
492,0.692153,-1.266597,0.56093,0.191152,0.9540870000000001,-0.23059200000000002,0.07850499999999999,-0.9944559999999999,0.045982999999999996,0.21381599999999998,0.719192,-0.095611
493,0.705425,-1.2633379999999998,0.5843189999999999,0.19621,0.9531059999999999,-0.2304,-0.222442,-0.12155999999999999,0.463642,-0.20516700000000002,0.30395900000000003,-0.505729
494,0.741432,-1.258194,0.621525,0.20768499999999998,0.9515370000000001,-0.2268,0.038,-0.12436900000000001,0.673768,-0.323408,0.44784700000000005,0.12398599999999999
495,0.729072,-1.239818,0.61333,0.21648,0.945725,-0.242351,0.937084,-0.268984,0.36190300000000003,-0.128894,0.56192,-0.075245
496,0.722141,-1.241491,0.615714,0.21374899999999997,0.946267,-0.242659,-0.681768,-0.518562,-0.28894899999999996,-0.49075699999999994,-0.276833,0.457671
497,0.72233,-1.258167,0.624869,0.20333199999999998,0.951528,-0.23074499999999998,-0.560331,-0.49698000000000003,-0.46331700000000003,-0.47930200000000006,-0.108328,0.566896
498,0.697154,-1.264501,0.611123,0.19358599999999998,0.953457,-0.231165,0.23546,-0.613258,-0.3134,-0.391752,0.232227,0.6048680000000001
499,0.65846,-1.256894,0.567397,0.188931,0.9511360000000001,-0.244211,0.7604989999999999,0.975885,-0.173968,0.11751099999999999,0.614446,-0.096381
500,0.690715,-1.2560040000000001,0.564918,0.197247,0.9508610000000001,-0.238643,-0.306963,1.64199,0.14139300000000002,0.12553699999999998,-0.246927,0.260936
501,0.7439640000000001,-1.253947,0.593823,0.21099299999999999,0.9502219999999999,-0.22924499999999998,-0.036811,1.113312,0.5146310000000001,0.129216,-0.324108,0.263654
502,0.779343,-1.248682,0.615506,0.22248400000000002,0.9485680000000001,-0.225194,-0.201925,0.500009,0.317711,0.201772,0.066736,0.191808
503,0.8113520000000001,-1.2565680000000001,0.647374,0.224144,0.9510350000000001,-0.21280100000000002,-0.879279,-0.12553599999999998,-0.102826,0.041237,0.251067,0.238771
504,0.856302,-1.276636,0.692609,0.219016,0.957046,-0.189968,-1.3132700000000002,0.41378100000000007,-0.330875,-0.143042,0.325943,0.257275
505,0.9397790000000001,-1.292582,0.761329,0.221741,0.9615469999999999,-0.16202,-1.101672,1.059513,0.240206,-0.34910599999999997,-0.0997,0.055316
506,1.024348,-1.291231,0.8203309999999999,0.235744,0.961176,-0.14338599999999999,-0.378596,1.589272,0.599228,-0.201777,-0.35817899999999997,0.181426
507,1.097446,-1.283527,0.859527,0.25217,0.9590209999999999,-0.129158,-0.372222,1.808744,0.587241,-0.180377,-0.46131000000000005,0.25483
508,1.185402,-1.2814809999999999,0.916773,0.264358,0.9584389999999999,-0.10724500000000001,-0.851065,1.5092510000000001,0.24138,-0.137695,-0.3877,0.11313499999999999
509,1.2619790000000002,-1.2916590000000001,0.967671,0.262479,0.9612940000000001,-0.083737,-0.787704,1.352155,-0.48650299999999996,-0.080304,-0.10365799999999999,0.05701900000000001
510,1.333248,-1.3061690000000001,1.015525,0.25419,0.96519,-0.061545,-0.915523,1.197986,-0.44981099999999996,-0.067102,-0.12626199999999999,-0.005777
511,1.443872,-1.318144,1.106316,0.247946,0.968253,-0.031639999999999995,-1.433594,1.093123,-0.416975,-0.023199,-0.44377799999999995,0.101175
512,1.573882,-1.33198,1.2254260000000001,0.236535,0.971619,0.00073,-1.42321,0.493475,-0.7173729999999999,-0.047051,-0.11576800000000001,0.06422699999999999
513,1.6801,-1.346459,1.324176,0.221113,0.974942,0.024265000000000002,-0.894591,0.566364,-0.7554350000000001,-0.049803,0.070865,-0.06377000000000001
514,1.7666509999999997,-1.357094,1.397162,0.20800500000000002,0.977252,0.041268,-0.612239,0.8789969999999999,-0.594698,-0.016919,0.13255,-0.127907
515,1.8323029999999998,-1.366306,1.443007,0.196143,0.979165,0.05249500000000001,-0.20592399999999997,1.128727,-0.538836,0.082574,0.195854,-0.23970500000000003
516,1.88897,-1.378258,1.474939,0.181724,0.9815219999999999,0.059852999999999996,-0.131608,1.317843,-0.743658,0.1614,0.21934499999999998,-0.301613
517,1.956435,-1.390085,1.518983,0.166508,0.983716,0.067596,-0.193097,1.082019,-0.59103,0.46908199999999994,0.132388,-0.170044
518,2.0057560000000003,-1.392901,1.554306,0.160459,0.984218,0.074555,-0.287589,0.492325,-0.094211,0.648119,0.11552799999999999,-0.227677
519,2.045487,-1.3900540000000001,1.5921459999999998,0.159864,0.9837100000000001,0.082151,-0.391717,-0.030741,-0.000264,0.45117399999999996,0.178902,-0.286238
520,2.081096,-1.384403,1.632967,0.161687,0.9826790000000001,0.090505,-0.428917,-0.355996,0.11846500000000001,0.133418,0.71097,0.032435000000000005
521,2.077634,-1.3812719999999998,1.633528,0.16469,0.982094,0.091438,0.078993,-0.071335,0.15262699999999998,0.006788,0.296593,0.077812
522,2.04438,-1.381234,1.602558,0.167673,0.982087,0.08592899999999999,0.366557,-0.202218,0.133439,-0.133737,0.021087,0.135994
523,1.9676740000000001,-1.3815629999999999,1.532733,0.173467,0.9821489999999999,0.072703,0.796975,-0.573264,0.375134,-0.160436,-0.171159,0.18115699999999998
524,1.8097419999999997,-1.378283,1.388922,0.185872,0.981527,0.045278,1.453233,-0.982533,0.655844,0.165676,0.174128,0.203547
525,1.612674,-1.3698489999999999,1.213049,0.199403,0.979878,0.008356,1.7433740000000002,-1.2328139999999999,0.656055,0.010283,0.51025,0.194159
526,1.444909,-1.35394,1.059527,0.21344000000000002,0.9765790000000001,-0.027012,1.4701950000000001,-0.668741,0.757041,-0.158173,0.566695,0.131352
527,1.32749,-1.3365479999999998,0.94852,0.22526,0.9726889999999999,-0.055915,1.3876600000000001,-0.287163,0.510285,-0.250712,0.481275,0.07785700000000001
528,1.223632,-1.321238,0.841633,0.23222800000000002,0.9690219999999999,-0.084024,1.4716799999999999,0.141689,0.284927,-0.279591,0.36587800000000004,0.046228
529,1.134095,-1.3062639999999999,0.746575,0.23690799999999998,0.9652149999999999,-0.110578,1.34345,0.013572,0.200874,-0.269043,0.199321,0.05700499999999999
530,1.049201,-1.293469,0.665223,0.237368,0.961791,-0.13641099999999998,1.215027,-0.522034,-0.010844,-0.10118300000000001,-0.16602999999999998,0.028745
531,0.967996,-1.282007,0.5943510000000001,0.234587,0.9585889999999999,-0.161456,1.103359,-0.710079,-0.041293,-0.062011000000000004,-0.18983599999999998,0.055972
532,0.8966959999999999,-1.26836,0.5374439999999999,0.23269,0.954614,-0.185908,1.027967,-0.897078,0.167791,-0.026284,-0.20884,0.067911
533,0.853801,-1.250701,0.51036,0.237175,0.949205,-0.206761,0.79688,-0.897798,0.547533,-0.028052999999999998,-0.330874,0.08502699999999999
534,0.827241,-1.234246,0.5038729999999999,0.24306599999999998,0.9438989999999999,-0.223531,0.505027,-1.086171,0.48912,-0.024896,-0.44776000000000005,0.091924
535,0.8068890000000001,-1.226665,0.505058,0.243628,0.941369,-0.233375,0.07442,-1.117305,0.124025,-0.086615,-0.527672,0.10095900000000001
536,0.784546,-1.2313370000000001,0.506938,0.23524299999999998,0.9429350000000001,-0.235644,-0.302821,-1.187861,-0.285512,-0.250776,-0.715533,0.14786
537,0.7650170000000001,-1.242725,0.506365,0.22314499999999998,0.946666,-0.232431,-0.44435399999999997,-0.798937,-0.453642,-0.23867800000000003,-0.719264,0.144647
538,0.755899,-1.255079,0.509594,0.21297800000000003,0.950574,-0.225929,-0.495763,-0.505146,-0.352896,-0.190883,-0.49104,-0.10862000000000001
539,0.753099,-1.265002,0.5151,0.20588299999999998,0.953608,-0.219631,-0.341039,-0.36667,-0.21846500000000002,-0.101207,-0.38711,-0.162174
540,0.752016,-1.269155,0.520116,0.20293699999999998,0.95485,-0.21696,-0.144928,-0.19988699999999998,-0.005801,-0.047664,-0.326341,-0.135732
541,0.759459,-1.2701040000000001,0.530452,0.203922,0.955132,-0.214786,-0.132385,-0.149234,0.10318,0.10726500000000001,0.196235,-0.330563
542,0.744046,-1.271667,0.522936,0.199577,0.955593,-0.21680500000000003,0.13744,-0.613917,-0.340856,0.145821,0.871235,-0.186576
543,0.682311,-1.27224,0.47865,0.185476,0.9557620000000001,-0.22828,0.505887,-1.161065,-0.49461000000000005,0.077876,1.121615,-0.203406
544,0.653389,-1.2704440000000001,0.46617600000000003,0.179839,0.955232,-0.234911,-0.10055800000000001,-0.457088,0.07281900000000001,-0.196548,0.360365,-0.514357
545,0.680393,-1.27168,0.49352399999999996,0.185374,0.9555969999999999,-0.22905100000000003,-0.164995,0.05087,0.43918599999999997,-0.287852,0.403564,0.031738999999999996
546,0.679783,-1.255153,0.492884,0.19513599999999998,0.9505969999999999,-0.24141500000000002,0.9890629999999999,-0.005409000000000001,0.45907,-0.086814,0.5256149999999999,-0.111872
547,0.668371,-1.245781,0.48673900000000003,0.197881,0.9476459999999999,-0.250608,0.021452000000000002,-0.37546999999999997,0.069293,-0.336401,-0.004607,0.3215
548,0.669574,-1.2536049999999999,0.492076,0.193575,0.9501149999999999,-0.24454800000000002,-0.47357299999999997,-0.219052,-0.2559,-0.432436,-0.161358,0.255809
549,0.655461,-1.260926,0.487641,0.185859,0.9523729999999999,-0.241734,-0.010175,-0.634968,-0.276699,-0.378776,0.073384,0.469487
550,0.6271760000000001,-1.257599,0.46325600000000006,0.180807,0.9513530000000001,-0.24945900000000001,0.44015699999999996,0.253418,-0.120868,0.08118600000000001,0.33461199999999997,0.295769
551,0.643991,-1.2537120000000002,0.457521,0.187195,0.950148,-0.24933899999999998,0.045254,1.421319,0.13125,0.148528,0.204072,0.450862
552,0.692163,-1.254677,0.480234,0.198399,0.950449,-0.23933000000000001,-0.43877,1.174189,0.280942,0.201763,-0.05961,0.42708900000000005
553,0.746768,-1.261652,0.519211,0.206657,0.952594,-0.223273,-0.753779,0.751804,0.155369,0.047387,-0.115848,0.17438399999999998
554,0.7951560000000001,-1.274446,0.556229,0.20849499999999999,0.9564090000000001,-0.204465,-0.8969379999999999,0.622575,-0.170205,-0.1752,-0.102527,0.16222899999999998
555,0.848284,-1.2903280000000001,0.595703,0.20763600000000001,0.9609260000000001,-0.18303599999999998,-0.9640860000000001,0.8773989999999999,-0.167796,-0.24222800000000003,-0.083729,0.201026
556,0.91656,-1.301461,0.645999,0.211137,0.9639479999999999,-0.161923,-0.7808109999999999,1.107856,0.11626800000000001,-0.233323,-0.19312,0.054042999999999994
557,0.988775,-1.3030469999999998,0.691136,0.220992,0.964369,-0.145426,-0.409368,1.609521,0.346819,-0.123839,-0.23895100000000002,0.029399
558,1.0579180000000001,-1.301713,0.725326,0.231633,0.964015,-0.130442,-0.383191,1.8793259999999998,0.251585,0.030742000000000002,-0.2718,0.172129
559,1.134168,-1.304745,0.769519,0.23824499999999998,0.964817,-0.11118199999999999,-0.709485,1.480725,0.04899,-0.033014999999999996,-0.25757199999999997,0.005392
560,1.210234,-1.31192,0.8244049999999999,0.23952199999999998,0.966678,-0.09031,-0.8165180000000001,1.021484,-0.097515,-0.031835,-0.273242,-0.058263999999999996
561,1.2908879999999998,-1.319199,0.887318,0.239249,0.9685159999999999,-0.068773,-0.9063030000000001,0.9898170000000001,-0.092761,-0.018897,-0.33198,-0.052441999999999996
562,1.3830040000000001,-1.3266120000000001,0.964231,0.2375,0.9703350000000001,-0.045133,-1.066946,0.732007,-0.216398,0.018924,-0.366514,-0.081287
563,1.47701,-1.337933,1.0533,0.229735,0.97301,-0.021609,-1.135155,0.205098,-0.5238470000000001,0.076128,-0.244662,0.010608
564,1.577827,-1.351587,1.1546040000000002,0.217435,0.9760700000000001,0.001529,-1.1853120000000001,0.062025,-0.6650189999999999,0.12388900000000001,-0.163829,0.019147
565,1.691762,-1.3622670000000001,1.2693020000000002,0.20549,0.9783360000000001,0.024978999999999998,-1.123506,0.139198,-0.5706829999999999,0.041382,-0.023975,-0.146378
566,1.787353,-1.371343,1.362711,0.193485,0.980175,0.042568,-0.718421,0.215844,-0.652404,-0.040836000000000004,0.328907,-0.195446
567,1.869541,-1.383391,1.437901,0.178035,0.982491,0.054827999999999995,-0.451542,0.568152,-0.809088,0.032872000000000005,0.35749000000000003,-0.248096
568,1.9589869999999998,-1.3943510000000001,1.511485,0.162448,0.984474,0.066432,-0.45680299999999996,0.971309,-0.659022,0.23663,0.257729,-0.17899600000000002
569,2.038513,-1.399649,1.575628,0.151998,0.98539,0.076774,-0.31759899999999996,0.697867,-0.33082399999999995,0.511912,0.188972,-0.095389
570,2.078734,-1.398993,1.607699,0.14935199999999998,0.9852780000000001,0.083138,-0.260206,0.262788,-0.002989,0.431763,0.21084299999999997,-0.136864
571,2.106838,-1.392739,1.637822,0.152252,0.98419,0.090447,-0.41196099999999997,-0.294675,0.20924099999999998,0.330154,0.65967,0.009391
572,2.101366,-1.388212,1.6385919999999998,0.15658699999999998,0.9833780000000001,0.09186699999999999,0.020243,-0.247268,0.233564,0.03575,0.265279,0.06976900000000001
573,2.059411,-1.383859,1.602288,0.164081,0.9825780000000001,0.087227,0.311106,-0.419346,0.38964,-0.034794,0.111096,0.097419
574,1.977586,-1.380419,1.532453,0.173766,0.981933,0.074862,0.67793,-0.853457,0.473943,-0.125914,0.024277,0.134779
575,1.820957,-1.376894,1.390852,0.186669,0.98126,0.047695999999999995,1.5789870000000001,-0.733923,0.702274,-0.171715,0.328112,0.150729
576,1.629637,-1.371444,1.2052770000000002,0.19767,0.980195,0.011644,1.773999,-0.37545100000000003,0.39873400000000003,-0.043388,0.461272,0.286985
577,1.45504,-1.365313,1.029743,0.202654,0.9789629999999999,-0.023563999999999998,1.6884169999999998,0.136778,0.24899699999999997,-0.02611,0.443508,0.330372
578,1.328163,-1.354268,0.894784,0.208529,0.976649,-0.051613,1.430711,0.294069,0.29827,-0.067522,0.335027,0.010536
579,1.218896,-1.341509,0.775269,0.213339,0.9738290000000001,-0.078334,1.468933,0.356261,0.16386099999999998,-0.07233200000000001,0.33784699999999995,0.037258
580,1.120846,-1.3286,0.66779,0.21594899999999997,0.970814,-0.10430199999999999,1.357104,0.309078,0.07234199999999999,-0.174537,0.32421500000000003,0.073128
581,1.032838,-1.315396,0.570868,0.216937,0.967562,-0.129437,1.343417,0.31140999999999996,0.033787,-0.139514,-0.000109,-0.024447999999999998
582,0.962126,-1.3012299999999999,0.49642,0.218475,0.963886,-0.152264,1.103966,-0.24286300000000002,0.05739400000000001,-0.10912999999999999,-0.108372,-0.035526
583,0.898967,-1.28691,0.444504,0.21921100000000002,0.959974,-0.174325,0.9402459999999999,-0.828075,0.293077,-0.024982,-0.18015799999999998,0.029168
584,0.859449,-1.26558,0.424699,0.227615,0.953782,-0.196175,0.8809290000000001,-1.144291,0.8335879999999999,0.068131,-0.285889,0.07705
585,0.8358479999999999,-1.241675,0.42672899999999997,0.23977199999999999,0.946327,-0.21672199999999997,0.667449,-1.344061,0.893242,0.022725,-0.46276000000000006,0.12854100000000002
586,0.816294,-1.226192,0.435863,0.24613600000000002,0.941209,-0.23137800000000003,0.21602,-1.5039959999999999,0.521757,-0.108074,-0.758211,0.12250599999999999
587,0.799393,-1.225227,0.452847,0.24284099999999997,0.940883,-0.23613699999999999,-0.385425,-1.65455,0.06589099999999999,-0.18681099999999998,-0.7290300000000001,0.14614100000000002
588,0.78585,-1.235382,0.471021,0.23284899999999997,0.944274,-0.23263899999999998,-0.624971,-1.372321,-0.24165599999999998,-0.23645,-0.688369,0.170978
589,0.780215,-1.246318,0.487117,0.224257,0.947817,-0.22659400000000002,-0.557167,-0.893626,-0.1307,-0.26508899999999996,-0.31540100000000004,-0.153411
590,0.7854220000000001,-1.255262,0.506095,0.21943000000000001,0.950631,-0.21941999999999998,-0.476709,-0.543489,-0.115632,-0.22474,-0.30753400000000003,-0.27318000000000003
591,0.7810199999999999,-1.262161,0.512027,0.21384,0.952749,-0.21572,-0.214565,-0.48643100000000006,-0.226037,-0.142932,-0.293234,-0.291802
592,0.7601,-1.266821,0.500081,0.206219,0.9541540000000001,-0.21692600000000004,0.061001,-0.512576,-0.32021900000000003,0.008487,-0.071769,-0.25344099999999997
593,0.730596,-1.270165,0.48171,0.1976,0.95515,-0.220538,0.029224,-0.685096,-0.30633299999999997,0.18013099999999999,0.198445,-0.06358
594,0.6902159999999999,-1.272845,0.45957700000000007,0.186906,0.95594,-0.226361,0.202574,-1.076532,-0.336667,0.284789,0.48508500000000004,-0.017658
595,0.659747,-1.2715299999999998,0.44616999999999996,0.180693,0.9555530000000001,-0.232942,0.086247,-0.615684,0.13408399999999998,0.010667,0.48715,-0.598616
596,0.688277,-1.268462,0.47718900000000003,0.189126,0.954644,-0.22995700000000002,-0.297428,0.200751,0.623876,-0.126611,0.30644899999999997,-0.335977
597,0.721695,-1.254227,0.5178649999999999,0.205661,0.950309,-0.23368699999999998,0.628497,-0.579755,1.067179,-0.15301900000000002,0.358254,0.11849900000000001
598,0.710915,-1.228193,0.524894,0.219204,0.941883,-0.25455700000000003,0.619459,-1.01094,0.746133,-0.079373,0.495846,0.211848
599,0.720337,-1.232949,0.553056,0.218635,0.94347,-0.249111,-1.0517,-0.566901,-0.15593800000000002,-0.5794600000000001,0.063243,0.430492
600,0.738542,-1.254973,0.575961,0.209092,0.950541,-0.229665,-0.809098,-0.128443,-0.523342,-0.628815,-0.149348,0.401647
601,0.722114,-1.258025,0.562844,0.203372,0.951485,-0.23089099999999999,0.49526899999999996,-0.038824000000000004,-0.09026100000000001,-0.216754,0.110024,0.279887
602,0.708824,-1.247386,0.534964,0.206864,0.9481569999999999,-0.24124400000000001,0.597495,1.066837,0.11093,0.052261,0.119805,0.060901
603,0.7375149999999999,-1.2415,0.53603,0.217448,0.9462700000000001,-0.239337,0.018937,1.365546,0.23789699999999997,0.087072,0.10869200000000001,0.24397600000000003
604,0.772266,-1.241683,0.553951,0.22551100000000002,0.9463290000000001,-0.23151300000000002,-0.323374,0.627686,0.174495,0.23039099999999998,0.25362199999999996,0.116889
605,0.810635,-1.247352,0.5831850000000001,0.23033499999999998,0.9481459999999999,-0.21899200000000002,-0.690715,0.47800299999999996,0.096277,0.150098,0.266911,0.048292
606,0.862519,-1.260253,0.631938,0.232071,0.952168,-0.198777,-1.146004,0.23378400000000002,0.026112,0.033431999999999996,0.203518,0.123216
607,0.9408350000000001,-1.271548,0.7036720000000001,0.238204,0.955558,-0.173664,-1.153892,0.693804,0.34379699999999996,-0.230452,-0.089271,0.23070100000000002
608,1.0222959999999999,-1.274858,0.7676109999999999,0.248844,0.9565290000000001,-0.152055,-0.63865,1.184043,0.376678,-0.265094,-0.297792,0.145341
609,1.071742,-1.2737020000000001,0.791746,0.25702600000000003,0.956191,-0.140098,-0.133107,1.348503,0.10332899999999999,-0.25447800000000004,-0.36679,0.133232
610,1.113393,-1.27719,0.8086840000000001,0.25964299999999996,0.957206,-0.127801,-0.47179399999999994,1.2748680000000001,-0.102973,-0.102158,-0.346046,0.235132
611,1.175465,-1.287325,0.846308,0.258103,0.96009,-0.107707,-0.768221,1.306708,-0.348638,-0.09961,-0.101616,0.16526300000000002
612,1.243976,-1.2998319999999999,0.892077,0.253477,0.963513,-0.085923,-0.8321149999999999,1.160727,-0.283736,-0.11211900000000001,-0.206281,0.093842
613,1.3248870000000001,-1.307643,0.952634,0.252284,0.9655739999999999,-0.063321,-0.893813,1.114528,-0.13242,-0.061763,-0.48884399999999995,0.087506
614,1.406487,-1.3154620000000001,1.017717,0.249148,0.9675790000000001,-0.04131,-0.878639,0.783762,-0.279305,-0.05678,-0.482472,-0.046093
615,1.474603,-1.325369,1.0753780000000002,0.24182800000000002,0.970033,-0.023334,-0.712262,0.58897,-0.461628,0.078912,-0.122499,-0.12736199999999998
616,1.541517,-1.335017,1.1320860000000001,0.23348000000000002,0.972333,-0.0068379999999999995,-0.719797,0.636682,-0.39871599999999996,0.20856799999999998,0.159839,-0.25694
617,1.6221510000000001,-1.3420590000000001,1.201185,0.22642600000000002,0.9739540000000001,0.011637999999999999,-0.84072,0.556082,-0.39524000000000004,0.17697100000000002,-0.13783299999999998,-0.215786
618,1.7121979999999999,-1.354264,1.2891270000000001,0.21267600000000003,0.976648,0.030275,-0.944788,0.132476,-0.9306040000000001,-0.093154,-0.007593000000000001,-0.033281
619,1.814452,-1.373317,1.38361,0.190378,0.980564,0.047327,-0.5987210000000001,0.740317,-1.122313,-0.135126,0.294064,-0.0019320000000000001
620,1.889286,-1.386423,1.436331,0.174084,0.983051,0.057398000000000005,-0.152748,1.4072120000000001,-0.45241400000000004,0.5177350000000001,0.116283,-0.29934099999999997
621,1.9355849999999999,-1.389519,1.45634,0.168396,0.983614,0.064307,-0.132995,1.124672,-0.143198,0.564392,0.149259,-0.290168
622,1.9788569999999999,-1.391975,1.485741,0.16323800000000002,0.9840540000000001,0.070572,-0.271802,0.513074,-0.256615,0.45836000000000005,0.15924100000000002,-0.29216
623,2.037026,-1.390296,1.540867,0.16033499999999998,0.9837540000000001,0.080685,-0.46840299999999996,-0.044266,-0.036152,0.252812,0.644237,0.09679
624,2.045811,-1.3869120000000001,1.551863,0.162581,0.9831409999999999,0.083614,-0.053515999999999994,-0.070119,0.208197,0.250566,0.64485,0.093861
625,2.017046,-1.382483,1.525674,0.168845,0.9823209999999999,0.080782,0.244844,-0.23689200000000002,0.36325,-0.21425500000000003,0.129175,0.193159
626,1.9336520000000001,-1.377972,1.450868,0.17912899999999998,0.981467,0.06801,0.786991,-0.705141,0.573804,-0.24152300000000002,0.074151,0.183532
627,1.7708119999999998,-1.3714469999999999,1.3038809999999998,0.19405999999999998,0.980196,0.039341,1.5103959999999998,-1.029931,0.716006,-0.061201,0.12023800000000001,0.20840100000000003
628,1.597114,-1.363705,1.14946,0.20552199999999998,0.978633,0.00541,1.473784,-1.117216,0.46483,-0.07623400000000001,0.35483200000000004,0.177527
629,1.450552,-1.353954,1.015158,0.213573,0.976582,-0.025806,1.4074870000000002,-0.48721099999999995,0.41548900000000005,-0.07244500000000001,0.41396700000000003,0.098254
630,1.3218969999999999,-1.341756,0.889107,0.220029,0.973885,-0.055925,1.546246,-0.14621099999999998,0.26753899999999997,-0.096219,0.398735,0.105928
631,1.203716,-1.328295,0.764083,0.224119,0.9707399999999999,-0.086175,1.571123,0.301531,0.164589,-0.16622699999999999,0.288064,0.050973000000000004
632,1.110016,-1.313788,0.663161,0.227665,0.9671549999999999,-0.113017,1.338651,0.09671,0.171774,-0.22355999999999998,0.135216,0.026698000000000003
633,1.03125,-1.299126,0.584091,0.23020900000000002,0.963324,-0.137852,1.241262,-0.258549,0.120274,-0.178558,0.057076999999999996,0.035710000000000006
634,0.957309,-1.283267,0.518332,0.23185999999999998,0.9589479999999999,-0.163258,1.1522860000000001,-0.7082649999999999,0.23986999999999997,-0.085086,-0.14068,0.037235000000000004
635,0.900517,-1.263754,0.47724799999999995,0.236841,0.953232,-0.187746,0.997026,-1.016761,0.531874,-0.06813999999999999,-0.294952,0.022050999999999998
636,0.861093,-1.242572,0.459071,0.244522,0.946616,-0.210048,0.838205,-1.100851,0.6526489999999999,-0.036926,-0.339896,-0.000157
637,0.829889,-1.224625,0.448788,0.250346,0.940679,-0.229006,0.6233989999999999,-1.1143299999999998,0.48025,-0.043039999999999995,-0.448262,0.041384
638,0.8034359999999999,-1.214544,0.44687899999999997,0.251015,0.937211,-0.24211799999999997,0.21833200000000003,-1.250541,0.262883,-0.130394,-0.546204,0.10819200000000001
639,0.779628,-1.212257,0.45101800000000003,0.24668600000000002,0.9364100000000001,-0.24954899999999997,-0.067535,-1.445781,0.051765,-0.135419,-0.596689,0.154166
640,0.756536,-1.215701,0.452822,0.238643,0.9376129999999999,-0.252832,-0.187774,-1.1630690000000001,-0.213288,-0.176967,-0.638389,0.119913
641,0.7357090000000001,-1.2235610000000001,0.45152700000000007,0.228372,0.940317,-0.252275,-0.332228,-0.821521,-0.253191,-0.20948200000000003,-0.461329,-0.063414
642,0.727925,-1.231748,0.456761,0.22127199999999997,0.9430719999999999,-0.24828899999999998,-0.34323000000000004,-0.585285,-0.17986300000000002,-0.16333399999999998,-0.390185,-0.147097
643,0.721587,-1.236952,0.461826,0.21644899999999997,0.94479,-0.245998,-0.197214,-0.514836,-0.075316,0.11100499999999999,-0.131603,-0.151585
644,0.716891,-1.240327,0.46608,0.213195,0.94589,-0.24460700000000002,-0.17742,-0.38705900000000004,-0.078546,0.160248,0.032442,-0.193778
645,0.701504,-1.246099,0.461308,0.205879,0.9477469999999999,-0.24368299999999998,-0.160432,-0.712919,-0.387794,0.137001,0.26586,-0.27615300000000004
646,0.663125,-1.256006,0.44178999999999996,0.190588,0.9508610000000001,-0.24399200000000001,-0.17507799999999998,-1.076424,-0.5797100000000001,-0.149954,0.752706,-0.290051
647,0.636322,-1.260989,0.43366499999999997,0.181162,0.952392,-0.24519699999999997,-0.133722,-0.782786,0.010929000000000001,-0.11919600000000001,0.206909,-0.43506999999999996
648,0.642169,-1.262537,0.447696,0.18170999999999998,0.9528629999999999,-0.24295300000000003,-0.16649,-0.259434,0.23008299999999998,-0.119744,0.20643899999999998,-0.43731499999999995
649,0.638624,-1.2511219999999998,0.44902600000000004,0.187319,0.9493379999999999,-0.252313,0.872648,-0.130428,0.36749899999999996,0.023786,0.799014,-0.078604
650,0.6329130000000001,-1.238736,0.44386899999999996,0.19281700000000002,0.9453729999999999,-0.262842,0.10872899999999999,-0.028174,0.233846,-0.339713,0.000916,0.249719
651,0.648835,-1.244225,0.458111,0.193838,0.947148,-0.25559899999999997,-0.51741,0.193522,-0.051754999999999995,-0.34073400000000004,-0.000859,0.24247600000000002
652,0.660673,-1.251425,0.47442799999999996,0.19266,0.949433,-0.247896,-0.332858,-0.466754,0.005928,-0.317065,-0.24606399999999998,0.368348
653,0.643385,-1.2519,0.473844,0.188076,0.9495819999999999,-0.25082899999999997,0.24675,-0.914974,-0.028973000000000002,-0.21297800000000003,0.2112,0.388799
654,0.624063,-1.2447629999999998,0.459524,0.18715,0.94732,-0.259909,0.290128,0.295671,0.076601,-0.019853,0.384741,0.259482
655,0.6552640000000001,-1.2474,0.47678999999999994,0.193644,0.9481620000000001,-0.251963,-0.541552,0.759365,0.189838,0.209325,-0.028865,0.357691
656,0.704569,-1.2542959999999999,0.516999,0.201587,0.9503299999999999,-0.23712600000000003,-0.663987,0.44830299999999995,0.296204,0.019909,-0.19059500000000001,0.210758
657,0.74449,-1.260767,0.553796,0.206719,0.952325,-0.22436399999999998,-0.6328010000000001,0.09627100000000001,0.12595699999999999,0.013784999999999999,-0.147149,0.14659
658,0.7774270000000001,-1.272427,0.589657,0.20619200000000001,0.955817,-0.20950500000000002,-0.9057209999999999,-0.034165,-0.052039,-0.10195900000000001,0.012887000000000001,0.254519
659,0.8316899999999999,-1.286773,0.63769,0.20709299999999997,0.959936,-0.188756,-0.99215,0.7053189999999999,-0.022612,-0.201295,0.018915,0.2347
660,0.900503,-1.2966719999999998,0.687932,0.21212399999999998,0.9626629999999999,-0.168158,-0.741152,1.176733,0.15159,-0.241223,-0.044297,0.145315
661,0.974794,-1.299771,0.73682,0.22155,0.9634969999999999,-0.150274,-0.579447,1.4695479999999999,0.31150900000000004,-0.143288,-0.230373,0.157659
662,1.0558459999999998,-1.300378,0.789518,0.232479,0.963659,-0.131555,-0.6618350000000001,1.461134,0.35580900000000004,-0.088299,-0.358252,0.157082
663,1.1334,-1.3033629999999998,0.84388,0.239367,0.9644520000000001,-0.111929,-0.733492,1.118522,0.050237000000000004,-0.067232,-0.372411,0.12923199999999999
664,1.206146,-1.3130709999999999,0.899617,0.23810900000000002,0.9669719999999999,-0.090891,-0.952988,0.874446,-0.2597,-0.050548,-0.29702,0.023219
665,1.297807,-1.325498,0.975987,0.23383600000000002,0.970065,-0.065469,-1.178947,0.884977,-0.299748,-0.051387,-0.261248,-0.009984999999999999
666,1.410017,-1.337669,1.0764200000000002,0.228023,0.972949,-0.036981,-1.340963,0.6109829999999999,-0.371031,0.032444,-0.165042,-0.080787
667,1.520705,-1.349077,1.180779,0.219612,0.9755209999999999,-0.011009999999999999,-1.116531,0.351719,-0.474941,0.109444,-0.11910599999999999,-0.05170399999999999
668,1.613847,-1.359452,1.27027,0.20956,0.97775,0.009027,-0.902207,0.263865,-0.535288,0.069538,-0.013913,-0.130838
669,1.702145,-1.369069,1.355041,0.198615,0.979722,0.026239,-0.745091,0.297525,-0.564144,0.037744,0.029082,-0.155969
670,1.776705,-1.379522,1.422903,0.18607100000000001,0.9817629999999999,0.038863999999999996,-0.48757700000000004,0.49422,-0.6918529999999999,-0.000585,0.31795,-0.151367
671,1.8586880000000001,-1.392751,1.49147,0.169792,0.984192,0.050277999999999996,-0.414896,0.864157,-0.826415,0.18612,0.25053400000000003,-0.191544
672,1.938418,-1.404684,1.552417,0.154275,0.9862350000000001,0.059416,-0.23698899999999998,1.01715,-0.612792,0.551795,0.19523800000000002,-0.13229200000000002
673,1.993355,-1.407831,1.591394,0.147949,0.98675,0.066524,-0.250627,0.641184,-0.087909,0.48648100000000005,0.160192,-0.205288
674,2.0297259999999997,-1.4046969999999999,1.621839,0.148203,0.986237,0.07322999999999999,-0.344427,0.140059,0.10435799999999999,0.28121,0.566894,-0.056567
675,2.041461,-1.398922,1.6361709999999998,0.152408,0.985266,0.077546,-0.086241,-0.171494,0.269999,0.247799,0.614176,0.088714
676,2.011833,-1.392011,1.609228,0.160795,0.98406,0.075903,0.124982,-0.207152,0.47875500000000004,-0.037931,0.159571,0.160639
677,1.956132,-1.383393,1.559302,0.172625,0.982491,0.07001900000000001,0.33325,-0.467401,0.64505,-0.25339,-0.086266,0.26057800000000003
678,1.835466,-1.3714620000000002,1.455303,0.191101,0.9801989999999999,0.05179400000000001,1.084819,-1.123678,1.075224,-0.376617,-0.12628599999999998,0.221262
679,1.65695,-1.354328,1.297619,0.213966,0.976662,0.01848,1.563366,-1.276437,1.032829,-0.168007,0.584434,0.20722800000000002
680,1.49098,-1.337926,1.150324,0.23001999999999997,0.973008,-0.018397999999999998,1.6315600000000001,-0.8760180000000001,0.739031,-0.238581,0.6320180000000001,0.231167
681,1.37802,-1.3206069999999999,1.0365959999999999,0.24298699999999998,0.968866,-0.047431,1.382395,0.272742,0.590541,-0.20508400000000002,0.560813,0.221732
682,1.292426,-1.305984,0.936982,0.251641,0.965142,-0.071916,1.4489040000000002,0.575002,0.336381,-0.212243,0.30170399999999997,-0.00366
683,1.207759,-1.292058,0.840757,0.257198,0.9614030000000001,-0.097703,1.376614,0.256231,0.196348,-0.206066,0.244743,0.06578099999999999
684,1.126592,-1.2813379999999999,0.759652,0.257723,0.958399,-0.12265699999999999,1.219103,-0.37819899999999995,-0.051766999999999994,-0.21731799999999998,0.13408499999999998,0.099372
685,1.0386790000000001,-1.272569,0.678227,0.253191,0.955859,-0.14907,1.268068,-0.529131,-0.17835,-0.10905699999999999,-0.186282,0.07659099999999999
686,0.960872,-1.258141,0.607324,0.252118,0.95152,-0.176182,1.277169,-0.5093409999999999,0.19236099999999998,-0.112134,-0.21848800000000002,0.11238499999999998
687,0.906341,-1.239175,0.563891,0.256305,0.945516,-0.200755,0.9986799999999999,-0.760703,0.42254200000000003,-0.08934299999999999,-0.228032,0.112453
688,0.8738790000000001,-1.22101,0.545045,0.262782,0.9394459999999999,-0.219957,0.7191569999999999,-0.661057,0.520875,-0.06245,-0.446496,0.046801
689,0.856032,-1.206667,0.538048,0.268965,0.934434,-0.23342100000000002,0.443713,-0.564886,0.419483,-0.11772,-0.492433,0.074577
690,0.84655,-1.2009940000000001,0.540547,0.270706,0.932399,-0.23946900000000002,-0.042707,-0.6215890000000001,0.10316900000000001,-0.174804,-0.564693,0.092252
691,0.83821,-1.2076790000000002,0.5460119999999999,0.264059,0.934794,-0.237544,-0.398361,-0.690937,-0.360698,-0.210653,-0.735789,0.091197
692,0.820973,-1.22125,0.540751,0.250618,0.939528,-0.23339200000000002,-0.357133,-0.5314260000000001,-0.5924189999999999,-0.24868,-0.534468,0.012781
693,0.804875,-1.231571,0.53328,0.23982699999999998,0.9430129999999999,-0.23066199999999998,-0.184757,-0.421029,-0.377712,-0.196217,-0.439122,-0.040882999999999996
694,0.7901060000000001,-1.235592,0.5257109999999999,0.233698,0.944343,-0.231508,0.022625,-0.333216,-0.140299,0.014028,-0.272819,-0.18163900000000002
695,0.7822600000000001,-1.234334,0.52088,0.232712,0.9439280000000001,-0.234177,0.11260099999999999,-0.057349000000000004,0.057597,0.200699,0.115138,-0.303985
696,0.782791,-1.2330370000000002,0.521986,0.233699,0.943499,-0.234921,-0.019642,-0.090796,0.011851,0.199711,0.115567,-0.303241
697,0.769946,-1.236029,0.52061,0.228696,0.9444870000000001,-0.235875,-0.109016,-0.9620850000000001,-0.203438,0.045886,0.7969229999999999,-0.261317
698,0.733876,-1.23882,0.509594,0.21827399999999997,0.9454,-0.24201,0.052345,-1.353705,-0.17724,-0.29525500000000005,0.47176,-0.447062
699,0.721761,-1.242409,0.5160319999999999,0.213083,0.946564,-0.242089,-0.372625,-0.5061859999999999,0.034487000000000004,-0.290064,0.470596,-0.446983
700,0.7313109999999999,-1.242979,0.530353,0.21502600000000002,0.9467469999999999,-0.239642,0.176701,-0.12635,0.207684,-0.242477,0.6732779999999999,-0.121504
701,0.72247,-1.2317879999999999,0.517899,0.21989099999999998,0.9430850000000001,-0.249466,0.436507,0.20522600000000002,0.180232,-0.25593299999999997,0.12867699999999999,0.277634
702,0.728012,-1.231492,0.521274,0.22145700000000001,0.9429860000000001,-0.248452,-0.207015,0.178537,-0.046419,-0.388662,-0.173791,0.382302
703,0.732487,-1.239974,0.523706,0.217209,0.9457760000000001,-0.24150300000000002,-0.343233,-0.023334999999999998,-0.326986,-0.41435299999999997,-0.15160099999999999,0.464708
704,0.717572,-1.24574,0.511598,0.20999299999999999,0.947633,-0.240602,0.13629000000000002,-0.162385,-0.335208,-0.289858,0.26924000000000003,0.404802
705,0.709226,-1.243444,0.489555,0.20939499999999997,0.946897,-0.243998,0.272566,1.228379,-0.065778,-0.204741,0.415835,0.194193
706,0.744236,-1.241287,0.491331,0.21919,0.9462010000000001,-0.238021,-0.065565,1.705899,0.157711,0.232577,0.12823099999999998,0.306838
707,0.788442,-1.243331,0.512369,0.228122,0.9468610000000001,-0.226737,-0.45349399999999995,0.8603139999999999,0.166767,0.20908800000000002,-0.144264,0.178397
708,0.8269569999999999,-1.249935,0.544028,0.232077,0.9489639999999999,-0.213547,-0.657518,0.222294,0.057201,0.092905,-0.163152,0.11675999999999999
709,0.8643120000000001,-1.261458,0.579805,0.23155599999999998,0.952535,-0.19761800000000002,-0.8946040000000001,0.249323,-0.10258699999999998,-0.031086000000000003,-0.1639,0.153383
710,0.927708,-1.27491,0.633305,0.233334,0.9565440000000001,-0.17485,-1.110279,0.8131010000000001,0.022303,-0.325848,-0.065919,0.136413
711,1.0067409999999999,-1.284683,0.694764,0.23849800000000002,0.959348,-0.150877,-0.8544879999999999,1.115316,0.147616,-0.31139,-0.120343,0.063154
712,1.069445,-1.28652,0.73246,0.245937,0.959865,-0.13478800000000002,-0.325069,1.463717,0.207483,-0.170452,-0.194438,0.11779
713,1.127708,-1.285533,0.7598020000000001,0.254224,0.9595879999999999,-0.120644,-0.3895,1.617304,0.21645,-0.047711,-0.21233400000000002,0.11493699999999998
714,1.198717,-1.286481,0.802125,0.261295,0.9598540000000001,-0.10197200000000001,-0.630043,1.449,0.15623399999999998,-0.069904,-0.225708,0.06945599999999999
715,1.26642,-1.28972,0.843741,0.264627,0.960757,-0.08313,-0.585899,1.362203,-0.020672,-0.029062,-0.290546,0.038314999999999995
716,1.341632,-1.294157,0.894085,0.265971,0.9619790000000001,-0.062041,-0.860231,1.33226,-0.020413,0.002218,-0.442097,0.01158
717,1.443707,-1.2997299999999998,0.974867,0.265586,0.9634860000000001,-0.033936,-1.266214,1.058366,-0.171381,0.050026999999999995,-0.316788,-0.021484
718,1.553282,-1.310734,1.0764989999999999,0.257087,0.966374,-0.004503,-1.372104,0.302059,-0.630541,0.057,-0.073796,-0.037382
719,1.6511490000000002,-1.325166,1.175267,0.242366,0.9699840000000001,0.019517,-1.083176,0.109898,-0.777828,0.054295,0.012865000000000001,-0.071122
720,1.7357209999999998,-1.337004,1.256409,0.228506,0.9727950000000001,0.038031999999999996,-0.785913,0.39911599999999997,-0.635117,0.025324,0.090987,-0.161994
721,1.809178,-1.346123,1.32138,0.216468,0.974867,0.052601999999999996,-0.53785,0.531366,-0.622871,0.052575,0.30314800000000003,-0.16106199999999998
722,1.8775240000000002,-1.358291,1.3793870000000001,0.201046,0.977506,0.063676,-0.407484,0.6286,-0.809024,0.12671300000000002,0.351932,-0.17788800000000002
723,1.942767,-1.369682,1.4315790000000002,0.18608,0.9798450000000001,0.07259600000000001,-0.243552,0.741229,-0.6125390000000001,0.16295,0.293288,-0.17688900000000002
724,1.984164,-1.375904,1.458689,0.177329,0.981068,0.077784,-0.072383,0.716865,-0.263072,0.250589,0.252208,-0.183435
725,2.010109,-1.379419,1.471727,0.172129,0.981743,0.08089099999999999,-0.011056999999999999,0.6238520000000001,-0.232614,0.25624600000000003,0.26696,-0.169468
726,2.033454,-1.384003,1.484309,0.166166,0.982605,0.08287699999999999,-0.034439,0.42465299999999995,-0.214362,0.264498,0.336258,-0.054252
727,2.020322,-1.388927,1.468012,0.16288,0.983507,0.078585,0.42239499999999996,0.10728900000000001,-0.09966900000000001,0.041206,0.006025,0.14372100000000002
728,1.9645700000000001,-1.390939,1.409641,0.165178,0.9838690000000001,0.068627,0.588912,-0.017135,0.234938,-0.037094999999999996,-0.122984,0.164222
729,1.855436,-1.3890770000000001,1.307175,0.17343,0.983534,0.050743,1.0348620000000002,-0.676079,0.531591,-0.154097,-0.222701,0.166634
730,1.666554,-1.3801350000000001,1.137664,0.188621,0.9818790000000001,0.018116999999999998,1.662504,-1.3077809999999999,0.784612,0.088433,0.293664,0.215968
731,1.469969,-1.366135,0.963976,0.20218699999999998,0.97913,-0.020455,1.6612810000000002,-1.261341,0.6275149999999999,0.027961,0.5451010000000001,0.221002
732,1.335202,-1.349493,0.84583,0.213423,0.975612,-0.051233,1.174676,-0.8228280000000001,0.611804,0.027665,0.570515,0.18578499999999998
733,1.24294,-1.333002,0.764826,0.223,0.9718600000000001,-0.075849,1.145635,-0.539866,0.471301,-0.056924,0.41473699999999997,-0.079836
734,1.150197,-1.316308,0.677014,0.229798,0.967792,-0.10278699999999999,1.404556,-0.28557899999999997,0.325369,-0.180833,0.434216,0.094181
735,1.058619,-1.299191,0.58705,0.233843,0.963341,-0.131472,1.382766,-0.283894,0.189551,-0.21736399999999997,0.34691500000000003,0.097704
736,0.9748379999999999,-1.284594,0.511391,0.23363499999999998,0.9593229999999999,-0.15845599999999999,1.2041950000000001,-0.786438,0.011623,-0.203118,-0.077502,0.056024000000000004
737,0.8923209999999999,-1.270843,0.45137,0.23003,0.95535,-0.185437,1.033169,-1.489251,0.092513,-0.064075,-0.276731,0.135937
738,0.8280209999999999,-1.255239,0.41792399999999996,0.228594,0.950623,-0.209893,0.80401,-1.6259700000000001,0.381644,-0.062639,-0.272004,0.160394
739,0.7937350000000001,-1.238268,0.411231,0.23273400000000002,0.9452200000000001,-0.228886,0.576593,-1.206344,0.601708,-0.057960000000000005,-0.47816400000000003,0.141468
740,0.77803,-1.225471,0.41761099999999995,0.237583,0.940966,-0.24111,0.257776,-1.067252,0.460434,-0.152851,-0.621279,0.10079
741,0.7639050000000001,-1.220744,0.426176,0.23722800000000002,0.9393549999999999,-0.247651,-0.047359,-1.150125,0.137942,-0.152496,-0.619668,0.107331
742,0.744694,-1.22451,0.42876499999999995,0.230028,0.9406399999999999,-0.24956,-0.206288,-1.018194,-0.21585,-0.308992,-0.615658,0.182162
743,0.724163,-1.231799,0.426123,0.220308,0.943089,-0.249087,-0.270279,-0.819652,-0.260349,-0.292451,-0.5112949999999999,0.13430999999999998
744,0.715374,-1.239067,0.430895,0.21360900000000002,0.9454799999999999,-0.245833,-0.31975,-0.5610569999999999,-0.150999,-0.24348499999999998,-0.430496,0.072005
745,0.7068939999999999,-1.243456,0.43281400000000003,0.208819,0.946901,-0.24447800000000003,-0.092513,-0.5098659999999999,-0.096066,-0.037768,-0.164491,-0.195601
746,0.694713,-1.244167,0.42908999999999997,0.205395,0.9471290000000001,-0.246486,0.032780000000000004,-0.366649,-0.05585,0.05405,-0.11651700000000001,-0.177601
747,0.6862659999999999,-1.245962,0.426762,0.202228,0.9477040000000001,-0.24689699999999998,-0.08620599999999999,-0.315917,-0.118703,0.105268,-0.046336,-0.15138800000000002
748,0.667406,-1.249564,0.41826899999999995,0.195421,0.9488469999999999,-0.247984,-0.034013,-0.725612,-0.272706,0.11469800000000001,0.472524,-0.310732
749,0.6357649999999999,-1.252229,0.406978,0.185976,0.949685,-0.252006,0.024047,-1.201478,-0.134958,0.09565499999999999,0.558707,-0.36901100000000003
750,0.620109,-1.252328,0.411839,0.181954,0.949716,-0.254811,-0.127863,-0.772781,0.148647,-0.001656,0.392706,-0.46557200000000004
751,0.641221,-1.2530059999999998,0.44255200000000006,0.186907,0.9499280000000001,-0.250397,-0.35785500000000003,-0.313222,0.5075109999999999,-0.10013,0.153099,-0.219085
752,0.647806,-1.242098,0.460862,0.194794,0.9464629999999999,-0.257409,0.751508,-0.595129,0.513484,-0.12764,0.6473479999999999,0.038034
753,0.636796,-1.229154,0.46003299999999997,0.199217,0.942206,-0.269366,0.067514,-0.42968199999999995,0.22541599999999998,-0.037901,0.629175,0.145678
754,0.649233,-1.2387569999999999,0.47543199999999997,0.197072,0.9453790000000001,-0.259648,-0.7478,0.075441,-0.178305,-0.502202,-0.054144000000000005,0.301442
755,0.65874,-1.248532,0.48854,0.193865,0.948521,-0.25044299999999997,-0.251752,-0.336721,-0.100605,-0.238985,-0.005573,0.408829
756,0.638987,-1.246958,0.475767,0.189771,0.9480209999999999,-0.255421,0.366657,-0.190782,-0.102881,-0.133527,0.128532,0.293858
757,0.639614,-1.242341,0.46611800000000003,0.19254100000000002,0.946542,-0.258812,0.13680599999999998,0.848944,0.091802,0.236704,0.034629,0.35384299999999996
758,0.674424,-1.24304,0.482055,0.201019,0.946767,-0.25143699999999997,-0.373274,0.9408049999999999,0.20562600000000003,0.22445700000000002,0.057566,0.33110300000000004
759,0.718544,-1.2501,0.515496,0.207508,0.949016,-0.237289,-0.70712,0.42979799999999996,0.147333,0.21746500000000002,0.07065199999999999,0.208419
760,0.75598,-1.260985,0.551766,0.209144,0.952391,-0.22182600000000002,-0.844949,-0.010109,-0.012231,-0.065651,0.027437,0.13256199999999999
761,0.800936,-1.275755,0.598673,0.20877800000000002,0.9567899999999999,-0.202389,-1.112228,0.140875,0.024163999999999998,-0.191169,-0.06636399999999999,0.251553
762,0.872842,-1.2890190000000001,0.664796,0.213036,0.960563,-0.178695,-1.1024180000000001,0.582295,0.182832,-0.231606,-0.149238,0.218428
763,0.9457,-1.296624,0.7248760000000001,0.21954899999999997,0.96265,-0.158433,-0.74185,0.838722,0.212796,-0.192968,-0.27687399999999995,0.114915
764,1.0086899999999999,-1.300252,0.768861,0.22613000000000003,0.963626,-0.14243599999999998,-0.552443,1.1366040000000002,0.147507,-0.114542,-0.260669,0.155711
765,1.073925,-1.30405,0.8123279999999999,0.231715,0.964634,-0.125647,-0.648355,1.1571930000000001,0.14360599999999998,-0.087825,-0.250843,0.12435
766,1.1483780000000001,-1.307548,0.866137,0.23734,0.96555,-0.106679,-0.721218,1.0871389999999999,0.14318699999999998,-0.064488,-0.28726599999999997,0.031041000000000003
767,1.225058,-1.311397,0.924802,0.24131599999999997,0.9665440000000001,-0.086924,-0.843018,0.982367,0.076241,-0.038832,-0.359748,-0.001943
768,1.321589,-1.317636,1.004141,0.242722,0.968126,-0.061772,-1.195598,0.963932,-0.06934,0.0009609999999999999,-0.41987700000000006,-0.01115
769,1.439278,-1.32829,1.111489,0.23805700000000002,0.9707389999999999,-0.031491000000000005,-1.466359,0.421904,-0.425237,0.06904199999999999,-0.281912,0.025814
770,1.550504,-1.344144,1.2243879999999998,0.22466399999999997,0.974424,-0.0045590000000000006,-1.2521879999999999,-0.042743,-0.8301379999999999,0.058723000000000004,0.049059,0.0033229999999999996
771,1.648943,-1.360714,1.324332,0.207896,0.9780139999999999,0.016280000000000003,-0.9601430000000001,0.151106,-0.8091189999999999,0.061176999999999995,0.187926,-0.051939
772,1.7388869999999998,-1.371733,1.409162,0.194956,0.980252,0.033083,-0.686619,0.44759499999999997,-0.5992850000000001,-0.058176,0.15349100000000002,-0.16125599999999998
773,1.821918,-1.382968,1.4814040000000002,0.180861,0.9824120000000001,0.046398,-0.489504,0.689431,-0.774474,-0.016692,0.28303,-0.198741
774,1.903629,-1.396284,1.546798,0.16409100000000001,0.9848110000000001,0.056725,-0.310087,0.9838180000000001,-0.7565069999999999,0.127458,0.351263,-0.195107
775,1.965773,-1.403248,1.590155,0.153917,0.9859969999999999,0.064166,-0.176022,0.928075,-0.25343499999999997,0.536116,0.232708,-0.16778800000000002
776,2.000921,-1.4033440000000001,1.611222,0.151481,0.9860129999999999,0.069495,-0.150886,0.577655,-0.023142,0.426583,0.179484,-0.208213
777,2.027312,-1.401399,1.630898,0.151316,0.9856860000000001,0.074314,-0.242823,0.14513900000000002,0.060091,0.386373,0.322785,-0.170856
778,2.019427,-1.398347,1.6255030000000001,0.154607,0.985167,0.074423,0.141325,-0.131778,0.24579499999999999,0.189158,0.296846,0.080103
779,1.973223,-1.393169,1.582849,0.162571,0.984266,0.069199,0.28582199999999996,-0.317321,0.432913,-0.046726,-0.011442,0.17365999999999998
780,1.891375,-1.387846,1.512891,0.172653,0.983311,0.057326,0.6893,-0.874187,0.5475399999999999,-0.236862,-0.149357,0.23469600000000002
781,1.724823,-1.379191,1.367426,0.188171,0.9817,0.029214999999999998,1.5003540000000002,-1.280725,0.810099,-0.013000999999999999,0.420049,0.30002399999999996
782,1.523986,-1.366362,1.1891040000000002,0.202783,0.979176,-0.009498999999999999,1.777304,-1.275823,0.676363,-0.032663,0.612835,0.315301
783,1.373649,-1.348159,1.050563,0.21651900000000002,0.975318,-0.043248,1.409573,-0.409846,0.751733,-0.141263,0.5863119999999999,0.288533
784,1.268699,-1.3282889999999998,0.9439209999999999,0.229256,0.9707389999999999,-0.07144400000000001,1.515285,0.13914,0.568034,-0.28124299999999997,0.397242,0.048266
785,1.169834,-1.309916,0.834391,0.23746799999999998,0.9661629999999999,-0.10066900000000001,1.607582,0.44783900000000004,0.27986300000000003,-0.280986,0.40493,0.07367699999999999
786,1.083595,-1.295605,0.738822,0.24011100000000002,0.9623729999999999,-0.12721,1.318088,0.11854500000000001,0.029367,-0.27455,0.315779,0.11523199999999999
787,1.005298,-1.2840690000000001,0.6627109999999999,0.238783,0.959175,-0.15154,1.193333,-0.44307299999999994,-0.074402,-0.14039400000000002,-0.110649,0.052891999999999995
788,0.922985,-1.270504,0.588281,0.235869,0.95525,-0.17849600000000002,1.311714,-0.6216619999999999,-0.00498,-0.068359,-0.259983,0.06919700000000001
789,0.855844,-1.252213,0.532662,0.236519,0.94968,-0.20534000000000002,1.1347399999999999,-0.793658,0.269606,-0.01487,-0.251224,0.11171199999999999
790,0.813304,-1.23373,0.507047,0.240286,0.943729,-0.22723600000000002,0.800292,-0.939262,0.474691,0.048639,-0.315006,0.11026300000000001
791,0.789829,-1.220378,0.502158,0.24381399999999998,0.9392290000000001,-0.24166300000000002,0.33021799999999996,-0.951045,0.365669,-0.002054,-0.467671,0.05604
792,0.779762,-1.216618,0.511328,0.243851,0.937932,-0.246615,-0.144739,-0.957103,0.16153299999999998,-0.12941,-0.626195,0.092349
793,0.774673,-1.2214909999999999,0.525197,0.239393,0.9396110000000001,-0.24458400000000002,-0.418293,-0.8411049999999999,-0.104377,-0.21368099999999998,-0.746572,0.125199
