,attitude.roll,attitude.pitch,attitude.yaw,gravity.x,gravity.y,gravity.z,rotationRate.x,rotationRate.y,rotationRate.z,userAcceleration.x,userAcceleration.y,userAcceleration.z
0,-1.71114,-1.429168,-2.5914330000000003,-0.139767,0.9899870000000001,0.019745,-0.350593,-0.511691,-0.865217,0.09170199999999999,0.41588100000000006,0.093689
1,-1.7879169999999998,-1.4141709999999998,-2.6309560000000003,-0.152324,0.987759,0.033602,-0.550553,-2.243217,-0.5824090000000001,0.367412,0.004566,-0.106082
2,-1.8973229999999999,-1.3993309999999999,-2.706668,-0.16161,0.9853360000000001,0.05472899999999999,-0.9310139999999999,-1.358033,-0.503947,0.172093,-0.21748299999999998,-0.16338699999999998
3,-2.018375,-1.3832790000000001,-2.813421,-0.16805799999999999,0.9824700000000001,0.08068,-1.304668,-0.5413680000000001,-0.346302,0.004957,-0.23756599999999997,-0.01908
4,-2.1243950000000003,-1.364054,-2.913092,-0.17461300000000002,0.9787049999999999,0.107922,-1.278349,-0.43472200000000005,-0.398598,-0.040292,-0.241461,0.015201
5,-2.199191,-1.342885,-2.978623,-0.182782,0.97414,0.13282,-1.114163,-0.609398,-0.547847,-0.090778,-0.28584699999999996,-0.03463
6,-2.246076,-1.320116,-3.012552,-0.19362100000000002,0.968744,0.155068,-0.944177,-0.699861,-0.716391,-0.032102,-0.21114499999999997,-0.274667
7,-2.271929,-1.29461,-3.0268509999999997,-0.208364,0.962102,0.17590699999999998,-0.9732940000000001,-0.517763,-0.941154,-0.024607,-0.168127,-0.236179
8,-2.282814,-1.26726,-3.032241,-0.226278,0.9542860000000001,0.19528800000000002,-0.914819,-0.16611199999999998,-1.019176,-0.018565,-0.127839,-0.17507
9,-2.280797,-1.239853,-3.0279439999999997,-0.24641799999999997,0.945736,0.211804,-0.8030930000000001,-0.100031,-1.124235,0.004017,0.006275,-0.134549
10,-2.27556,-1.211808,-3.0186450000000002,-0.267629,0.9362530000000001,0.227609,-0.8375879999999999,-0.22966999999999999,-1.175584,0.069387,0.143078,-0.077142
11,-2.281971,-1.182337,-3.019677,-0.28694899999999995,0.925494,0.24722800000000003,-1.047397,-0.24654099999999998,-1.037091,0.12574000000000002,0.180143,-0.0062759999999999995
12,-2.296363,-1.155541,-3.028268,-0.30180999999999997,0.915013,0.26769499999999996,-0.913651,-0.432119,-0.831888,0.35366,0.323375,-0.157039
13,-2.308195,-1.135872,-3.0321860000000003,-0.311886,0.9069020000000001,0.28329499999999996,-0.62613,-0.264899,-0.541674,0.387127,0.38562399999999997,-0.5286109999999999
14,-2.304875,-1.1263100000000001,-3.0382290000000003,-0.319248,0.902832,0.288055,-0.276265,0.8337540000000001,-0.134714,0.393543,0.39111399999999996,-0.436431
15,-2.284636,-1.125141,-3.039612,-0.32581,0.902328,0.28222600000000003,0.06554299999999999,1.073775,0.017985,0.294927,0.24829099999999998,0.079713
16,-2.265144,-1.129011,-3.0320560000000003,-0.328563,0.90399,0.27358499999999997,0.33315700000000004,0.332435,0.02935,0.412166,0.222994,-0.154887
17,-2.24953,-1.13545,-3.015135,-0.328257,0.906724,0.264762,0.648135,-0.041694,0.076895,0.478221,0.257262,-0.33356399999999997
18,-2.221109,-1.1564,-2.984644,-0.320457,0.915359,0.24377100000000002,1.452124,0.023239,0.7233609999999999,0.371314,0.553802,-0.165661
19,-2.1824830000000004,-1.196687,-2.9426509999999997,-0.299182,0.930833,0.209856,2.031677,-0.01113,1.355568,0.22474899999999998,0.644972,-0.210054
20,-2.10509,-1.250333,-2.868044,-0.271104,0.949089,0.160412,2.824842,0.6240859999999999,1.655123,0.196671,0.6267159999999999,-0.16061
21,-1.976991,-1.306239,-2.747627,-0.24020500000000003,0.965208,0.103316,2.688016,0.6020439999999999,1.6915830000000003,-0.5812970000000001,0.504488,0.16609300000000002
22,-1.801368,-1.353976,-2.584286,-0.209432,0.9765860000000001,0.049163,2.5472040000000002,1.0426469999999999,1.6526470000000002,-0.877634,0.47811000000000003,0.051864999999999994
23,-1.567479,-1.39331,-2.3718529999999998,-0.176555,0.984291,-0.000586,2.0665400000000003,1.424496,1.682984,-0.8917579999999999,0.442406,-0.023706
24,-1.308484,-1.419075,-2.1418009999999996,-0.14597000000000002,0.9885120000000001,-0.039193,1.502996,1.573513,1.403255,-0.8388629999999999,0.30966,-0.117423
25,-1.061476,-1.430312,-1.916216,-0.122251,0.9901479999999999,-0.068273,1.2709979999999999,1.010494,0.944089,-0.613757,0.079447,-0.11850999999999999
26,-0.852605,-1.42667,-1.714059,-0.108151,0.989632,-0.09451,1.2686620000000002,-0.088551,0.600445,-0.372562,-0.093987,0.06068099999999999
27,-0.66789,-1.42306,-1.516745,-0.091165,0.989107,-0.11557100000000001,1.0949149999999999,-0.5413720000000001,1.302702,0.017130000000000003,-0.063036,0.237535
28,-0.363867,-1.418341,-1.207227,-0.054048,0.988401,-0.141923,1.5202,0.167663,2.1080669999999997,0.30948000000000003,-0.026746,0.220383
29,-0.062709,-1.399145,-0.90174,-0.010704,0.9853040000000001,-0.17047400000000001,1.291202,-0.346521,2.220358,0.139092,-0.17666500000000002,0.10626500000000001
30,0.143852,-1.374737,-0.673171,0.027926999999999997,0.980842,-0.192794,1.078626,-1.29529,2.040627,-0.063403,-0.388282,0.166915
31,0.259421,-1.344639,-0.517524,0.057521,0.974535,-0.216731,1.208127,-2.128998,1.8278880000000002,-0.262187,-0.517519,0.379497
32,0.31396599999999997,-1.308635,-0.41019399999999995,0.08004,0.965832,-0.2465,1.4293280000000002,-2.625781,1.7275200000000002,-0.28884099999999996,-0.530209,0.421854
33,0.33676100000000003,-1.269796,-0.331505,0.097965,0.955041,-0.27982199999999996,1.5079420000000001,-2.576595,1.613707,-0.272968,-0.518899,0.340339
34,0.346848,-1.233191,-0.269972,0.112596,0.943551,-0.31150300000000003,1.295377,-2.320599,1.449524,-0.308244,-0.580056,0.113337
35,0.34625300000000003,-1.206026,-0.224784,0.12106700000000001,0.934206,-0.335563,0.804747,-2.031567,0.990664,-0.356373,-0.615785,0.112846
36,0.330527,-1.195265,-0.203931,0.119031,0.930313,-0.34691500000000003,0.124214,-1.54262,0.253552,-0.439496,-0.721771,0.06990700000000001
37,0.30285500000000004,-1.202048,-0.20778600000000003,0.107503,0.9327790000000001,-0.344044,-0.5501520000000001,-1.026319,-0.403436,-0.310093,-0.578882,-0.125637
38,0.263834,-1.222452,-0.231267,0.089017,0.939939,-0.329531,-1.039032,-0.782197,-0.821633,-0.207639,-0.474042,-0.179502
39,0.21007699999999999,-1.253765,-0.27125900000000003,0.06501,0.9501649999999999,-0.30489299999999997,-1.572648,-0.8400219999999999,-1.0827280000000001,-0.02256,-0.236893,-0.326592
40,0.138678,-1.293782,-0.326235,0.037805,0.9618760000000001,-0.27086,-1.912375,-1.0121930000000001,-1.155383,0.044562,-0.155144,-0.446532
41,0.036926,-1.329418,-0.409053,0.008825,0.971009,-0.238878,-1.432038,-1.093225,-1.287588,0.22614499999999998,0.21211100000000002,-0.8189529999999999
42,-0.103025,-1.345613,-0.5315840000000001,-0.022963,0.9747530000000001,-0.22210100000000002,-0.484753,-0.975769,-1.3783299999999998,0.544142,1.0761040000000002,-0.716222
43,-0.18545999999999999,-1.338343,-0.599038,-0.042479,0.9731040000000001,-0.226415,0.622121,-0.756971,-0.312271,0.589766,1.293726,-0.461085
44,-0.15525799999999998,-1.327102,-0.544669,-0.037312,0.970453,-0.238387,0.644307,-1.4396579999999999,0.959943,0.456272,0.9611719999999999,-0.16372799999999998
45,-0.076083,-1.314811,-0.42691,-0.019246,0.967414,-0.252467,0.823888,-1.9381009999999999,1.576064,0.274846,-0.045614999999999996,-0.43623900000000004
46,0.006051,-1.303695,-0.298263,0.0015970000000000001,0.96454,-0.263932,0.41387799999999997,-2.036702,1.5476889999999999,0.296194,-0.251298,-0.403839
47,0.042687,-1.305713,-0.235965,0.011179999999999999,0.9650709999999999,-0.261751,-0.478224,-0.6271220000000001,0.137076,-0.531093,0.48707799999999996,-0.075178
48,-0.08301,-1.32617,-0.367969,-0.020082,0.9702280000000001,-0.24136,-1.3871209999999998,0.806619,-2.504277,-1.8928369999999999,1.201754,0.636456
49,-0.149228,-1.348005,-0.477404,-0.03285,0.975284,-0.21849699999999997,-0.95125,2.213167,0.214522,-1.6956650000000002,0.50256,0.514899
50,-0.023294,-1.355121,-0.37895700000000004,-0.004985,0.9768319999999999,-0.213948,-0.066583,0.8373780000000001,1.17425,-0.8925069999999999,-0.153849,0.165975
51,0.044024,-1.35932,-0.306535,0.009238,0.977722,-0.2097,-0.43787200000000004,-0.33253,0.4884,-0.193701,-0.745041,-0.11746400000000001
52,0.071921,-1.385892,-0.296356,0.013211,0.9829540000000001,-0.18337699999999998,-2.042278,1.735559,-0.347988,-0.258008,-1.0087409999999999,0.23663
53,0.033012,-1.457774,-0.39509,0.0037229999999999997,0.9936200000000001,-0.11272,-4.4860050000000005,3.6138559999999997,-1.212428,-0.276,-0.912458,0.410496
54,-1.277363,-1.5455969999999999,-1.7928389999999998,-0.02412,0.999682,-0.007287999999999999,-5.431508999999999,4.586981,-1.8558720000000002,-0.678806,-0.46719700000000003,0.53985
55,-2.477344,-1.4712,-3.0748450000000003,-0.061296,0.995044,0.07829,-3.629581,3.5383690000000003,-1.45845,-0.5727979999999999,-0.198047,0.380801
56,-2.5089240000000004,-1.4181290000000002,3.133851,-0.089922,0.988369,0.12264100000000001,-1.812704,1.124749,-1.242908,-0.18223399999999998,0.037586,0.297799
57,-2.472252,-1.386887,-3.1107080000000003,-0.11346800000000001,0.983136,0.14341600000000002,-0.676733,-0.698182,-1.101246,0.171452,-0.013333000000000001,0.319215
58,-2.462981,-1.37163,-3.0759060000000003,-0.124194,0.980232,0.15401700000000002,-0.406427,-1.442949,-0.502336,0.335925,0.018135,-0.059413
59,-2.514261,-1.349127,-3.09459,-0.129054,0.975532,0.17799700000000002,-1.318671,-1.562906,-0.615376,0.424846,-0.014121000000000002,-0.322711
60,-2.5694049999999997,-1.323426,-3.130338,-0.132582,0.9695600000000001,0.205854,-1.207675,-0.681779,-0.21514699999999998,-0.05652000000000001,-0.08664,-0.223829
61,-2.614382,-1.301591,3.112313,-0.13381400000000002,0.963983,0.22985100000000003,-1.213077,-0.117585,-0.110154,-0.141165,-0.07528,-0.293724
62,-2.641433,-1.279181,3.0753790000000003,-0.137875,0.957781,0.252283,-1.23465,0.7476229999999999,-0.14239100000000002,-0.129428,-0.11635,-0.33550399999999997
63,-2.640105,-1.256574,3.05398,-0.148583,0.9510370000000001,0.27102,-1.059736,1.2431889999999999,-0.346903,-0.124931,-0.164874,-0.342538
64,-2.615639,-1.23366,3.052342,-0.16606700000000002,0.9437059999999999,0.28607899999999997,-1.019714,1.291175,-0.659674,-0.130304,-0.183192,-0.149269
65,-2.584764,-1.20676,3.061775,-0.188171,0.934467,0.302263,-1.089477,0.908025,-0.952363,-0.029389,-0.092899,0.004485
66,-2.559266,-1.175832,3.079427,-0.211614,0.92301,0.321359,-1.150522,0.159178,-1.176157,0.11614000000000001,0.103723,-0.020883000000000002
67,-2.54892,-1.143261,3.09789,-0.231604,0.90999,0.343915,-1.114121,-0.555624,-1.207033,0.296682,0.266752,-0.19283699999999998
68,-2.543432,-1.115427,3.1164650000000003,-0.247658,0.898099,0.36343400000000003,-0.842095,-0.399567,-1.041895,0.534615,0.355792,-0.414505
69,-2.53211,-1.091389,3.127535,-0.26404099999999997,0.8872690000000001,0.378202,-0.8455790000000001,0.289626,-0.7629279999999999,0.509204,0.49511700000000003,-0.42547399999999996
70,-2.522409,-1.0750389999999999,3.127063,-0.276081,0.879609,0.387386,-0.528277,0.611568,-0.296448,0.376942,0.459197,-0.242412
71,-2.511521,-1.068897,3.125263,-0.28346,0.8766709999999999,0.38871500000000003,-0.12942599999999999,0.554972,-0.075672,0.31442,0.334572,-0.14097300000000001
72,-2.504591,-1.070219,3.128586,-0.285457,0.8773059999999999,0.385809,0.214548,-0.003594,-0.017006,0.40121100000000004,0.264891,-0.400915
73,-2.496522,-1.076717,3.137111,-0.285128,0.8804059999999999,0.37893000000000004,0.51347,0.165301,0.11091500000000001,0.48410299999999995,0.31707399999999997,-0.696908
74,-2.473247,-1.0972,-3.131234,-0.282634,0.889934,0.35796100000000003,1.3780219999999999,0.620984,0.49024799999999996,0.316752,0.444325,-0.194997
75,-2.4448689999999997,-1.136341,-3.1071720000000003,-0.270106,0.907099,0.322821,2.0507720000000003,0.11788299999999999,1.044658,-0.012899,0.530889,0.054727
76,-2.410151,-1.192239,-3.077136,-0.24685900000000002,0.929199,0.275047,2.868137,0.67643,1.581626,-0.067884,0.4572,-0.43711000000000005
77,-2.334187,-1.262813,-3.017782,-0.21901500000000002,0.952947,0.209581,3.0468740000000003,0.9511139999999999,1.7320740000000001,-0.236093,0.618373,-0.395708
78,-2.265834,-1.317033,-2.965607,-0.192813,0.967974,0.160775,2.121477,1.080009,1.47014,-0.5398069999999999,0.766599,0.342231
79,-2.1881880000000002,-1.367982,-2.916487,-0.164242,0.979504,0.11660799999999999,1.8774119999999999,1.7080259999999998,1.805188,-0.875492,0.659107,0.07394400000000001
80,-2.096317,-1.413875,-2.859699,-0.13519,0.987713,0.078399,1.571191,1.6389330000000002,1.500831,-0.9606959999999999,0.604816,-0.033218
81,-1.9475330000000002,-1.4508159999999999,-2.7312279999999998,-0.11129800000000001,0.9928110000000001,0.044032999999999996,1.647603,0.7345510000000001,1.159624,-0.865417,0.335253,-0.224346
82,-1.661568,-1.479217,-2.442198,-0.091075,0.9958100000000001,0.00829,1.942073,-0.435255,0.9377850000000001,-0.398152,-0.136511,0.11646600000000001
83,-1.1374389999999999,-1.492117,-1.9073689999999999,-0.071332,0.996906,-0.033005,2.224252,-0.183251,1.076166,-0.15491,-0.17189400000000002,0.166275
84,-0.55235,-1.483095,-1.32311,-0.045957,0.996157,-0.074564,1.972879,0.24875799999999998,1.416756,-0.057299,-0.285967,0.10598199999999999
85,-0.146032,-1.453906,-0.915961,-0.01697,0.9931760000000001,-0.115382,2.155198,-0.194201,1.476281,-0.170499,-0.46838100000000005,0.264812
86,0.06512000000000001,-1.4111479999999998,-0.686805,0.010345,0.987283,-0.158634,2.083427,-1.200667,1.483479,-0.225478,-0.49508100000000005,0.278248
87,0.164245,-1.371617,-0.549768,0.032353,0.9802290000000001,-0.195202,1.755836,-1.9875770000000001,1.419174,-0.253697,-0.539983,0.389218
88,0.217696,-1.3291879999999998,-0.453535,0.051676,0.9709540000000001,-0.23361700000000002,1.9634909999999999,-2.054427,1.439938,-0.237925,-0.539299,0.421072
89,0.237107,-1.280627,-0.39003000000000004,0.06720599999999999,0.9581959999999999,-0.278109,2.313935,-2.106122,1.276878,-0.11875,-0.571751,0.321002
90,0.22396300000000002,-1.230011,-0.358615,0.07422999999999999,0.942492,-0.32588,2.274808,-2.160957,0.904933,-0.22619299999999998,-0.601306,0.16493
91,0.19403299999999998,-1.1912120000000002,-0.346095,0.07144600000000001,0.9288190000000001,-0.363581,1.5201930000000001,-1.9743380000000001,0.445429,-0.308247,-0.640443,0.182123
92,0.15925599999999998,-1.1745889999999999,-0.346715,0.061201,0.922531,-0.38103899999999996,0.38371500000000003,-1.562556,-0.046942000000000005,-0.391462,-0.864609,0.146343
93,0.112516,-1.181944,-0.364619,0.042568,0.9253450000000001,-0.37673,-0.735112,-1.558586,-0.601692,-0.190181,-0.843176,-0.07962999999999999
94,0.035633,-1.212321,-0.410553,0.012499,0.936433,-0.350624,-1.8786619999999998,-1.793311,-1.116784,0.045988,-0.505021,-0.36603600000000003
95,-0.071048,-1.259585,-0.483339,-0.021737,0.9519629999999999,-0.30544,-2.529947,-1.891214,-1.110525,0.207452,-0.016416,-0.830791
96,-0.163274,-1.286966,-0.557008,-0.04552,0.95999,-0.27631100000000003,-0.5973310000000001,-0.28213299999999997,-0.783963,0.5256529999999999,0.9128430000000001,-1.6643330000000003
97,-0.220818,-1.2845209999999998,-0.6246729999999999,-0.061849,0.9593020000000001,-0.275525,0.067813,0.47309799999999996,-1.081523,0.38941,1.261142,-1.33646
98,-0.242774,-1.277096,-0.645858,-0.069594,0.9571790000000001,-0.281007,0.484767,-0.583136,0.290067,-0.280565,1.38828,-0.261718
99,-0.184918,-1.265643,-0.557309,-0.055241,0.953801,-0.295317,0.991783,-1.65202,1.550139,0.048222,0.24076399999999998,-0.595186
100,-0.101819,-1.252693,-0.433055,-0.031791,0.94983,-0.311146,0.79099,-1.7129459999999999,1.775278,0.31195700000000004,-0.365388,-0.65855
101,-0.040688999999999996,-1.240385,-0.346315,-0.013197,0.945909,-0.324164,0.6266229999999999,-0.43177299999999996,0.940318,0.194441,-0.383546,-0.532678
102,-0.055467999999999996,-1.239824,-0.373971,-0.018016,0.9457270000000001,-0.324462,-0.373828,1.244373,-1.502227,-1.105855,1.5087709999999999,0.177688
103,-0.11408099999999999,-1.248792,-0.49248800000000004,-0.036025,0.9486030000000001,-0.31441199999999997,-0.631991,3.4226589999999995,-1.228016,-1.930131,0.636297,0.7966810000000001
104,-0.05205,-1.261754,-0.483504,-0.015824,0.952625,-0.303734,-0.746991,2.08675,0.480979,-1.3922729999999999,0.21142199999999997,0.774193
105,-0.0029100000000000003,-1.286007,-0.464258,-0.0008179999999999999,0.9597209999999999,-0.280954,-1.498491,1.438707,0.156094,-0.38815900000000003,-0.703617,0.07334299999999999
106,0.032772,-1.332339,-0.469896,0.00774,0.9717040000000001,-0.236077,-2.9781419999999996,2.681384,-0.300214,-0.28670100000000004,-0.818948,0.241952
107,0.020804,-1.425975,-0.5546270000000001,0.003002,0.989532,-0.144285,-5.630839,3.8604870000000004,-1.4226590000000001,-0.245205,-0.825317,0.417493
108,-0.8161609999999999,-1.532426,-1.4755260000000001,-0.027947000000000003,0.9992639999999999,-0.026277999999999996,-5.7316650000000005,4.319227,-2.034974,-0.47672200000000003,-0.5725060000000001,0.715655
109,-2.305554,-1.47336,-3.0585169999999997,-0.072183,0.995257,0.065219,-4.151155,4.616415,-2.0670439999999997,-0.376487,-0.031268000000000004,0.119626
110,-2.375235,-1.406156,3.0669020000000002,-0.113666,0.986477,0.11807899999999999,-2.582353,3.9170879999999997,-1.4366889999999999,-0.335004,-0.022488,0.06676599999999999
111,-2.386995,-1.357797,3.015561,-0.144803,0.9774010000000001,0.15400999999999998,-1.6024969999999998,0.625551,-1.262189,-0.089816,0.22854699999999997,0.6138279999999999
112,-2.365011,-1.33639,3.056664,-0.16278199999999998,0.9726520000000001,0.165678,-0.009571,-1.7299099999999998,-1.010899,0.477235,0.095799,-0.028548
113,-2.391827,-1.316196,3.08128,-0.17163299999999998,0.967764,0.184322,-0.9765159999999999,-2.583714,-0.8424389999999999,0.48608599999999996,0.100687,-0.047192000000000005
114,-2.450296,-1.2880040000000001,3.054424,-0.177897,0.9602799999999999,0.214977,-1.363292,-0.942154,-0.5000720000000001,0.23708600000000002,-0.091795,-0.225933
115,-2.4970470000000002,-1.261385,3.0112919999999996,-0.182953,0.9525129999999999,0.243407,-1.4574770000000001,-0.08300700000000001,-0.28605,0.023773,-0.20138399999999998,-0.16813499999999998
116,-2.532478,-1.234911,2.977191,-0.188581,0.944119,0.270327,-1.307073,-0.201325,-0.398079,-0.078555,-0.275524,-0.317416
117,-2.543843,-1.211049,2.967716,-0.198121,0.9359860000000001,0.290996,-0.9487899999999999,-0.0024289999999999997,-0.63084,-0.111831,-0.245083,-0.35525100000000004
118,-2.53373,-1.186683,2.973545,-0.21401799999999999,0.9271309999999999,0.307611,-0.984469,0.366177,-0.8708440000000001,-0.102877,-0.116828,-0.28785
119,-2.513758,-1.157713,2.986053,-0.2358,0.9158879999999999,0.324882,-1.05665,0.446222,-1.1118,-0.050317,-0.001398,-0.24584099999999998
120,-2.4935400000000003,-1.125424,3.000086,-0.260042,0.90245,0.343455,-1.161437,0.272374,-1.235155,0.011492,0.117905,-0.28274
121,-2.481563,-1.094219,3.012475,-0.28127199999999997,0.8885700000000001,0.36239299999999997,-0.9748700000000001,-0.091042,-1.091312,0.201194,0.198191,-0.24722
122,-2.4764369999999998,-1.070296,3.021909,-0.296164,0.877342,0.377567,-0.72228,-0.10053200000000001,-0.802184,0.465063,0.26009299999999996,-0.19559100000000001
123,-2.468677,-1.0530899999999999,3.0270029999999997,-0.308448,0.868957,0.387007,-0.5273479999999999,0.34402699999999997,-0.523655,0.5457380000000001,0.455201,-0.277479
124,-2.4583369999999998,-1.042351,3.026125,-0.318307,0.863592,0.391011,-0.367813,0.5923649999999999,-0.161799,0.426095,0.5367069999999999,-0.169255
125,-2.4552099999999997,-1.040068,3.017268,-0.320777,0.8624379999999999,0.391538,-0.14064300000000002,0.48986899999999994,0.230888,0.444525,0.427005,-0.241956
126,-2.453965,-1.045723,3.009199,-0.31816300000000003,0.865287,0.387364,0.24735300000000002,0.335532,0.395097,0.4238,0.25649299999999997,-0.405125
127,-2.447205,-1.063229,3.011155,-0.311033,0.8739290000000001,0.37350500000000003,1.052583,0.258333,0.620875,0.183668,0.47101099999999996,-0.075532
128,-2.431162,-1.099183,3.0278259999999997,-0.296292,0.8908360000000001,0.344415,1.920652,-0.151056,1.014159,0.072202,0.598147,0.059958000000000004
129,-2.418877,-1.148024,3.048006,-0.271376,0.911955,0.307723,2.261269,-0.119941,1.4619469999999999,-0.061890999999999995,0.7876,-0.14060899999999998
130,-2.368259,-1.2142700000000002,3.086279,-0.2438,0.9371149999999999,0.249755,3.331806,1.219535,1.7593330000000003,-0.382756,0.713993,-0.4821
131,-2.2653689999999997,-1.276928,-3.1187270000000002,-0.22255100000000003,0.957131,0.185397,2.765075,1.604961,1.236793,-0.5541520000000001,0.7311479999999999,-0.109973
132,-2.152227,-1.327849,-3.035098,-0.201034,0.970633,0.132123,2.237622,1.619267,1.579194,-0.880158,0.5018699999999999,-0.059735
133,-2.012954,-1.375614,-2.935658,-0.175293,0.9810120000000001,0.082987,2.008866,2.344958,1.451684,-0.9263610000000001,0.36699499999999996,-0.167139
134,-1.840043,-1.411477,-2.8029919999999997,-0.15293099999999998,0.9873350000000001,0.042201,1.557965,1.915155,1.168143,-0.604119,0.097397,-0.2223
135,-1.6226209999999999,-1.436973,-2.6165119999999997,-0.133246,0.991059,0.006912000000000001,1.750491,1.533069,0.9146719999999999,-0.414179,-0.119401,0.043670999999999995
136,-1.319358,-1.4498659999999999,-2.3245139999999997,-0.116843,0.9926969999999999,-0.030014,1.7621200000000001,0.372741,0.9653790000000001,-0.167352,-0.11917699999999999,0.318527
137,-0.91259,-1.458755,-1.9216919999999997,-0.08845,0.9937299999999999,-0.068392,1.994172,0.255078,1.682859,0.22996,-0.029237,0.216189
138,-0.43576000000000004,-1.445968,-1.4470399999999999,-0.052552999999999996,0.9922190000000001,-0.11286900000000001,2.283611,0.167459,1.76511,0.030611000000000003,-0.220048,0.10308800000000001
139,-0.112201,-1.415349,-1.112865,-0.017335,0.987942,-0.153849,1.9652169999999998,-0.753423,1.895457,-0.23001,-0.410046,0.32850100000000004
140,0.075801,-1.3757,-0.887868,0.014681,0.981029,-0.193305,2.117953,-2.117598,1.918568,-0.29139899999999996,-0.537944,0.343573
141,0.165401,-1.325381,-0.745468,0.040003,0.970037,-0.239644,2.351253,-2.565292,1.7861759999999998,-0.312006,-0.598897,0.380208
142,0.20218,-1.274636,-0.656192,0.058605,0.956464,-0.285905,2.202988,-2.351705,1.515674,-0.274654,-0.6530130000000001,0.311998
143,0.21071399999999998,-1.2300389999999999,-0.60027,0.069901,0.9425020000000001,-0.326809,1.874312,-2.18427,1.221539,-0.33876100000000003,-0.6396149999999999,0.20934699999999998
144,0.205202,-1.192788,-0.558814,0.07520299999999999,0.9294020000000001,-0.361327,1.553819,-2.257916,1.002546,-0.380135,-0.595173,0.183699
145,0.183851,-1.164787,-0.535442,0.072203,0.9187040000000001,-0.38829,1.0803969999999998,-1.980491,0.501092,-0.40186900000000003,-0.636676,0.209152
146,0.151018,-1.1528120000000002,-0.53565,0.061069000000000005,0.913909,-0.40129899999999996,0.261895,-1.4796989999999999,-0.148336,-0.341861,-0.739776,0.13311099999999998
147,0.102746,-1.162052,-0.557873,0.040764999999999996,0.9176209999999999,-0.395361,-0.848015,-1.372501,-0.684996,-0.08895299999999999,-0.725375,-0.035791
148,0.035874,-1.1965729999999999,-0.601849,0.013111000000000001,0.930792,-0.365315,-2.143157,-1.271616,-1.080868,0.086437,-0.518774,-0.25243699999999997
149,-0.055947000000000004,-1.249858,-0.673231,-0.01764,0.94894,-0.314963,-2.857034,-1.1770530000000001,-1.199208,0.134934,-0.170681,-0.620614
150,-0.152969,-1.295352,-0.758793,-0.041442,0.962304,-0.26879899999999995,-1.829484,-0.379659,-0.900359,0.120986,0.764319,-1.281448
151,-0.24641100000000002,-1.3109,-0.851558,-0.062684,0.966417,-0.249218,-0.713809,-0.27158699999999997,-1.188627,0.081559,1.024977,-1.026691
152,-0.328654,-1.310925,-0.9288540000000001,-0.082938,0.9664229999999999,-0.24320300000000003,0.063937,-0.40554,-0.599774,0.058752,1.240852,-0.674231
153,-0.309166,-1.302673,-0.8932379999999999,-0.080606,0.9642700000000001,-0.252362,0.6990270000000001,-1.039924,0.848643,0.23183600000000001,0.641993,-0.464725
154,-0.21771,-1.29356,-0.773405,-0.059116999999999996,0.961815,-0.26723800000000003,0.968036,-1.2270219999999998,1.582494,0.30804899999999996,0.208625,-0.664021
155,-0.14417,-1.275221,-0.678606,-0.04185,0.956635,-0.28826799999999997,1.090716,-0.448384,0.697865,-0.142552,0.763794,-0.644684
156,-0.17389300000000002,-1.2552219999999998,-0.711485,-0.053698,0.9506180000000001,-0.305682,1.0027709999999999,0.8421790000000001,-1.482507,-0.8902100000000001,2.117695,0.249239
157,-0.170502,-1.251422,-0.737082,-0.053274,0.9494319999999999,-0.30942,-0.48256099999999996,1.3890129999999998,0.7806609999999999,-0.74975,-0.468872,1.057909
158,-0.074895,-1.278622,-0.650435,-0.021552,0.95762,-0.287227,-1.434257,0.06690700000000001,1.36323,-0.781472,-0.47706000000000004,1.035717
159,0.006509,-1.300141,-0.568865,0.0017399999999999998,0.9635959999999999,-0.267358,-0.846606,0.45480600000000004,1.085895,-0.690964,-1.098468,-0.189353
160,0.080487,-1.322165,-0.532101,0.019785,0.96925,-0.245281,-1.607448,2.825962,-0.08041,-0.567606,-0.9028129999999999,0.34183800000000003
161,0.085377,-1.389235,-0.601078,0.015397,0.983563,-0.17990699999999998,-4.30996,3.9046269999999996,-1.616477,-0.46679799999999994,-0.639462,0.556021
162,-0.26971300000000004,-1.490615,-1.038007,-0.021342,0.9967870000000001,-0.0772,-5.317259,3.985955,-2.698248,-0.5519609999999999,-0.504401,0.536612
163,-1.748909,-1.493524,-2.602807,-0.075975,0.997016,0.013677000000000002,-4.281712000000001,3.9999290000000003,-2.8277650000000003,-0.5198510000000001,-0.30182600000000004,0.199488
164,-2.105057,-1.419908,-3.031472,-0.129369,0.9886379999999999,0.076542,-3.128349,3.3185379999999998,-2.3263849999999997,-0.154613,0.207285,0.091046
165,-2.2109360000000002,-1.355802,3.100632,-0.171103,0.976978,0.127431,-2.6926919999999996,1.234849,-1.63701,-0.069147,0.28524499999999997,0.340175
166,-2.2629759999999997,-1.317999,3.048579,-0.192552,0.968216,0.159627,-0.9620270000000001,-0.750594,-0.798778,0.23369,0.266189,0.671748
167,-2.294425,-1.303075,3.0436490000000003,-0.198244,0.964376,0.17515,-0.443442,-1.559205,-0.433061,0.47587799999999997,0.10416600000000001,0.321691
168,-2.329445,-1.2853299999999999,3.033521,-0.204379,0.9595309999999999,0.19372799999999998,-0.876064,-0.8774489999999999,-0.585439,0.26982399999999995,-0.20583800000000002,-0.28117600000000004
169,-2.371692,-1.262859,3.0017169999999997,-0.210972,0.9529610000000001,0.217615,-1.256335,-0.5594060000000001,-0.4037,-0.05695700000000001,-0.159504,-0.10762999999999999
170,-2.418597,-1.238336,2.965951,-0.215937,0.945242,0.244721,-1.2372940000000001,-0.652986,-0.461131,-0.063055,-0.155859,-0.200425
171,-2.447181,-1.2128780000000001,2.947717,-0.224185,0.936628,0.269201,-1.1331879999999999,-0.49587600000000004,-0.679591,-0.007337000000000001,-0.161604,-0.406423
172,-2.453479,-1.186097,2.94446,-0.238333,0.926911,0.289883,-1.024309,0.029726999999999996,-0.8792610000000001,0.062048,-0.08291699999999999,-0.421979
173,-2.442281,-1.158908,2.951264,-0.257695,0.916367,0.306374,-0.935789,0.359146,-1.0179340000000001,0.066594,-0.045425,-0.34176
174,-2.428583,-1.1303889999999999,2.958149,-0.278854,0.9045780000000001,0.32245799999999997,-1.0383850000000001,0.320089,-1.018601,0.069854,0.06589600000000001,-0.10836199999999999
175,-2.4261909999999998,-1.101844,2.9595740000000004,-0.29644499999999996,0.892042,0.341147,-1.053699,-0.14787899999999998,-0.927309,0.261472,0.223329,-0.066397
176,-2.435501,-1.075584,2.961226,-0.30835300000000004,0.879868,0.361595,-0.878591,-0.74326,-0.839865,0.344882,0.28215,-0.200691
177,-2.445725,-1.056945,2.964225,-0.31509899999999996,0.870858,0.377252,-0.544745,-0.45484600000000003,-0.528119,0.509786,0.5969770000000001,-0.382776
178,-2.443333,-1.046843,2.964107,-0.32164,0.865848,0.383216,-0.313589,0.494364,-0.20832199999999998,0.435196,0.587689,-0.22479899999999997
179,-2.435262,-1.0451030000000001,2.958816,-0.3257,0.864976,0.381753,-0.025869,0.571685,0.18562599999999999,0.406526,0.538954,-0.120706
180,-2.43161,-1.0509870000000001,2.955898,-0.32376900000000003,0.867914,0.376695,0.277149,0.198458,0.28436100000000003,0.401314,0.362402,-0.5480970000000001
181,-2.425071,-1.0644639999999999,2.957775,-0.31851399999999996,0.8745290000000001,0.365716,0.775278,0.370636,0.48417299999999996,0.386385,0.326048,-0.614236
182,-2.3960220000000003,-1.093736,2.9783209999999998,-0.311496,0.8883489999999999,0.337352,1.781984,0.514229,0.731371,0.203968,0.40639000000000003,-0.26646
183,-2.363562,-1.139392,3.009234,-0.293488,0.90838,0.297844,2.279449,0.211877,1.318482,-0.15734800000000002,0.504645,-0.354073
184,-2.309161,-1.199834,3.049356,-0.268104,0.9319790000000001,0.244,2.968328,1.307,1.7812259999999998,-0.235391,0.467603,-0.486965
185,-2.212839,-1.2638040000000001,3.1227009999999997,-0.242019,0.953247,0.180963,2.782518,1.2490290000000002,1.521493,-0.385789,0.514008,-0.318399
186,-2.092987,-1.313441,-3.063973,-0.22060300000000002,0.967067,0.126951,2.315686,1.421777,1.3503,-0.642312,0.724797,0.376436
187,-1.9515060000000002,-1.3607989999999999,-2.953044,-0.19353199999999998,0.978031,0.077459,2.1239689999999998,1.9297830000000002,1.549135,-0.637049,0.626735,0.194438
188,-1.765208,-1.397432,-2.803117,-0.169247,0.98501,0.033325,1.7160509999999998,1.76843,1.228162,-0.7625149999999999,0.38501599999999997,-0.082977
189,-1.567634,-1.423667,-2.625153,-0.146598,0.989196,-0.00046399999999999995,1.6650150000000001,0.805808,1.1756280000000001,-0.564447,0.091294,-0.109446
190,-1.273539,-1.4387,-2.331831,-0.125936,0.991288,-0.038577999999999994,1.9363009999999998,-0.128117,1.126377,-0.585108,0.089202,-0.07133099999999999
191,-0.9228940000000001,-1.4450450000000001,-1.97803,-0.100004,0.9921040000000001,-0.075693,1.694996,-0.128398,1.405634,-0.12372000000000001,-0.035164,0.065439
192,-0.547003,-1.441586,-1.598517,-0.06701900000000001,0.991664,-0.11005,1.8112270000000001,0.20111600000000002,1.7510599999999998,0.018678999999999998,-0.368693,0.080616
193,-0.226611,-1.421094,-1.277945,-0.033509,0.988816,-0.145331,1.742257,-0.081485,1.620617,-0.155578,-0.526154,0.193365
194,-0.025056000000000002,-1.3913389999999999,-1.055521,-0.004472,0.983941,-0.17844000000000002,1.680033,-1.334077,1.631402,-0.21058600000000002,-0.602654,0.408695
195,0.090798,-1.354429,-0.899551,0.019466,0.976684,-0.213799,1.8982450000000002,-2.22938,1.560366,-0.249935,-0.610015,0.469491
196,0.14244500000000002,-1.308691,-0.793161,0.036785000000000005,0.9658469999999999,-0.25649,2.199273,-2.703268,1.525688,-0.267254,-0.599178,0.512182
197,0.173181,-1.259931,-0.708731,0.052709000000000006,0.952069,-0.301307,2.2029400000000003,-2.366634,1.521009,-0.23142,-0.5091829999999999,0.322807
198,0.181978,-1.215673,-0.652281,0.062926,0.9376040000000001,-0.341964,1.878954,-2.185046,1.146772,-0.302123,-0.5812189999999999,0.222167
199,0.166655,-1.1814069999999999,-0.62257,0.062974,0.925141,-0.374364,1.372793,-2.086409,0.629296,-0.413743,-0.6513979999999999,0.154531
200,0.138959,-1.164375,-0.615183,0.05475700000000001,0.9185409999999999,-0.391514,0.451795,-1.5397049999999999,0.042117,-0.389352,-0.764885,0.089879
201,0.09411699999999999,-1.169977,-0.632158,0.036668,0.9207420000000001,-0.388446,-0.679137,-1.454472,-0.5780069999999999,-0.191605,-0.769634,-0.08096
202,0.027141000000000002,-1.198682,-0.671401,0.009867,0.9315610000000001,-0.363452,-1.781362,-1.594103,-0.933768,0.104803,-0.303265,-0.49697600000000003
203,-0.064848,-1.243367,-0.7308359999999999,-0.020841,0.9468719999999999,-0.320934,-2.429386,-1.9369470000000002,-0.9485370000000001,0.135511,-0.318576,-0.5394939999999999
204,-0.15695,-1.276106,-0.795405,-0.045398,0.956892,-0.28687399999999996,-1.0694350000000001,-0.869727,-0.7491939999999999,0.672672,1.0591139999999999,-1.344306
205,-0.24239000000000002,-1.2839180000000001,-0.878323,-0.06791699999999999,0.959132,-0.274687,-0.49893999999999994,-0.29744899999999996,-1.299281,0.407486,1.265187,-0.9447190000000001
206,-0.31285300000000005,-1.27977,-0.9318350000000001,-0.088311,0.95795,-0.273007,0.42159399999999997,-1.3969120000000002,-0.20933400000000002,0.078973,1.3677489999999999,-0.557453
207,-0.281258,-1.263906,-0.859031,-0.083851,0.9532780000000001,-0.29022600000000004,1.333766,-2.125902,1.214435,-0.054012,0.5543819999999999,-0.489788
208,-0.22623400000000002,-1.242566,-0.7569520000000001,-0.07231,0.946614,-0.314154,1.45212,-1.8252689999999998,1.055711,-0.171876,0.486278,-0.718622
209,-0.23607399999999998,-1.220944,-0.7464390000000001,-0.080167,0.939423,-0.333252,0.845209,-0.5862539999999999,-0.837664,-0.7640100000000001,1.4513850000000001,-0.592178
210,-0.251619,-1.2095200000000002,-0.777089,-0.088004,0.9354459999999999,-0.34233800000000003,0.068553,1.4923170000000001,0.046212,-1.0767149999999999,0.920327,0.866309
211,-0.166674,-1.230791,-0.7243539999999999,-0.055327,0.9427530000000001,-0.32887,-1.381513,1.832919,1.373061,-0.42700299999999997,-0.844776,0.849622
212,-0.103881,-1.280057,-0.68297,-0.029725,0.958032,-0.285116,-2.6307970000000003,0.935552,0.693573,-0.378158,-1.08909,0.26459299999999997
213,-0.051495000000000006,-1.3267950000000002,-0.6669649999999999,-0.012435,0.9703790000000001,-0.241267,-2.177438,2.97621,0.13758099999999998,-0.295319,-0.9011040000000001,0.22436
214,-0.065263,-1.387205,-0.759447,-0.011906,0.983194,-0.182173,-3.8756699999999995,3.798218,-1.488349,-0.467754,-0.681589,0.679366
215,-0.518517,-1.473217,-1.287876,-0.048282,0.995243,-0.084618,-5.060229,3.5333040000000002,-2.409625,-0.546353,-0.548908,0.647591
216,-1.556276,-1.4762819999999999,-2.405138,-0.094364,0.9955370000000001,-0.00137,-3.964214,3.7832550000000005,-2.4631790000000002,-0.372449,-0.279533,0.186139
217,-1.898211,-1.41793,-2.817062,-0.144182,0.988339,0.04897,-2.326889,3.1282509999999997,-2.319511,-0.102094,0.18162899999999998,0.0037189999999999996
218,-1.9749740000000002,-1.367238,-2.937208,-0.185867,0.979353,0.0795,-1.8777540000000001,1.014349,-1.8116009999999998,-0.023957,0.32126,-0.001009
219,-2.050596,-1.328306,-3.008668,-0.213008,0.970743,0.11084000000000001,-1.06994,-0.644494,-1.128716,0.319194,0.13361199999999998,0.460067
220,-2.084635,-1.310984,-3.021254,-0.22372399999999998,0.9664379999999999,0.126272,-0.572617,-1.448611,-0.53669,0.494354,0.06464400000000001,0.075937
221,-2.151366,-1.289368,-3.062354,-0.232223,0.9606600000000001,0.152334,-1.216113,-1.1114620000000002,-0.64203,0.320907,-0.08909299999999999,-0.14766500000000002
222,-2.2134259999999997,-1.268535,-3.1119939999999997,-0.23829899999999998,0.954666,0.1784,-1.162883,-0.608942,-0.349609,-0.076627,-0.159591,-0.018961000000000002
223,-2.266683,-1.2479559999999998,3.127399,-0.243493,0.9483379999999999,0.20338599999999998,-1.150779,-0.606532,-0.42964399999999997,-0.120246,-0.160695,-0.13816900000000001
224,-2.313567,-1.225855,3.093752,-0.249074,0.9410950000000001,0.228696,-1.165218,-0.810704,-0.507464,-0.10081,-0.132776,-0.308591
225,-2.349221,-1.201062,3.072334,-0.257301,0.932424,0.253737,-1.068709,-0.648378,-0.6918,0.112953,-0.046926,-0.431883
226,-2.363227,-1.176779,3.0634639999999997,-0.269543,0.923374,0.273361,-0.9280450000000001,-0.048812,-0.767429,0.112729,-0.038471,-0.351333
227,-2.360239,-1.1527120000000002,3.062338,-0.285929,0.913868,0.288252,-0.854859,0.229377,-0.868756,-0.010015000000000001,0.004954999999999999,-0.06979199999999999
228,-2.3589900000000004,-1.127789,3.064382,-0.30225799999999997,0.903467,0.30395300000000003,-0.862914,-0.189045,-0.91955,0.003232,0.102942,-0.08737
229,-2.36423,-1.100424,3.0663080000000003,-0.317888,0.8914,0.323038,-0.9659409999999999,-0.464028,-1.060923,0.125933,0.23985599999999999,-0.297464
230,-2.368836,-1.073983,3.075924,-0.332739,0.8791059999999999,0.34125900000000003,-0.658611,-0.661212,-1.033954,0.270529,0.39773400000000003,-0.45486099999999996
231,-2.373999,-1.05369,3.080098,-0.343291,0.8692540000000001,0.355738,-0.691779,-0.253756,-0.603147,0.3963,0.501215,-0.38238
232,-2.378945,-1.041901,3.069727,-0.348583,0.8633649999999999,0.364816,-0.469416,0.448258,0.003189,0.524135,0.513283,-0.226343
233,-2.37298,-1.0408819999999999,3.0635,-0.351365,0.86285,0.363363,0.016188,0.541153,0.060940999999999995,0.5744630000000001,0.47816800000000004,-0.30306
234,-2.364668,-1.046492,3.064332,-0.350973,0.8656719999999999,0.35697199999999996,0.35568099999999997,0.353653,0.301766,0.491659,0.440724,-0.6067739999999999
235,-2.351112,-1.0637450000000002,3.0692369999999998,-0.345113,0.87418,0.341623,0.940737,0.5345810000000001,0.635702,0.380925,0.333507,-0.6444489999999999
236,-2.315283,-1.097027,3.0952509999999998,-0.335538,0.889855,0.309148,2.032786,0.678933,0.885631,0.063229,0.381446,-0.199727
237,-2.255733,-1.146622,-3.139133,-0.318743,0.911379,0.260368,2.5525759999999997,0.9649610000000001,1.36639,-0.212248,0.332167,-0.10019700000000001
238,-2.1598900000000003,-1.209116,-3.067514,-0.294203,0.9353040000000001,0.196599,3.252579,1.710539,1.853161,-0.20439300000000002,0.269393,-0.21811399999999997
239,-2.011216,-1.274248,-2.945075,-0.264335,0.9563510000000001,0.124579,3.088491,1.398412,1.729569,-0.351982,0.715616,0.06141
240,-1.869825,-1.318716,-2.816282,-0.23835,0.9683959999999999,0.073477,2.160103,0.740566,1.345777,-0.42053900000000005,0.792148,0.41739799999999994
241,-1.6881709999999999,-1.352024,-2.655535,-0.215538,0.976165,0.025415,2.209494,1.591164,1.176253,-0.591225,0.803682,0.299612
242,-1.482803,-1.375406,-2.471376,-0.19339800000000001,0.980972,-0.017062,1.689662,0.795192,1.146936,-0.6815260000000001,0.609436,0.023119999999999998
243,-1.244815,-1.39584,-2.233443,-0.164899,0.984734,-0.055742999999999994,2.205759,-0.02752,1.5778159999999999,-0.33623000000000003,0.372398,-0.061475999999999996
244,-0.896481,-1.4049530000000001,-1.875463,-0.12895299999999998,0.9862790000000001,-0.103073,2.478375,-0.416919,2.017122,-0.070785,0.255023,0.083694
245,-0.5379729999999999,-1.397649,-1.500941,-0.088278,0.9850469999999999,-0.147949,2.34935,-0.5128520000000001,2.143462,-0.075815,0.074447,0.15277000000000002
246,-0.24224600000000002,-1.367348,-1.188253,-0.048468000000000004,0.979376,-0.196148,2.5461110000000002,-0.673233,2.120473,-0.332071,-0.41252700000000003,0.167141
247,-0.050395,-1.326745,-0.9723959999999999,-0.012172,0.970367,-0.241329,2.166931,-1.095535,2.029703,-0.393025,-0.597259,0.42957700000000004
248,0.062296000000000004,-1.289703,-0.821976,0.017269999999999997,0.9607530000000001,-0.27686900000000003,1.702061,-1.8286080000000002,1.940869,-0.372068,-0.641203,0.425306
249,0.131907,-1.251971,-0.7084520000000001,0.041227,0.9496040000000001,-0.310728,1.780057,-1.992172,1.75148,-0.21621500000000002,-0.620289,0.43737600000000004
250,0.16051600000000002,-1.210085,-0.6314,0.05641,0.9356459999999999,-0.348402,1.9301490000000001,-2.337822,1.480575,-0.251157,-0.563423,0.403486
251,0.16274,-1.166236,-0.574878,0.063775,0.919276,-0.388413,2.007531,-2.592117,1.337231,-0.29447199999999996,-0.54896,0.408463
252,0.147271,-1.125958,-0.536615,0.063144,0.9026799999999999,-0.425654,1.714821,-2.398703,0.908695,-0.38856799999999997,-0.6335149999999999,0.379359
253,0.117086,-1.0980860000000001,-0.522282,0.053188,0.890337,-0.45218400000000003,1.0834620000000001,-2.047662,0.250083,-0.341502,-0.8198270000000001,0.214391
254,0.07172,-1.0872899999999999,-0.527875,0.033313,0.8853700000000001,-0.463692,0.175596,-2.043616,-0.240168,-0.23050199999999998,-0.8483069999999999,0.12513
255,0.013205000000000001,-1.0994389999999998,-0.5463899999999999,0.0059960000000000005,0.8909530000000001,-0.454057,-1.054658,-2.148853,-0.561615,0.036149,-0.695762,-0.16339
256,-0.066322,-1.132189,-0.5836020000000001,-0.028145,0.905344,-0.423745,-1.927111,-2.4108400000000003,-0.88784,0.342415,-0.320612,-0.6710119999999999
257,-0.153696,-1.160717,-0.637682,-0.061035,0.9170889999999999,-0.393982,-1.0372700000000001,-1.247321,-0.919435,0.643463,0.33484899999999995,-1.328826
258,-0.204175,-1.1624379999999999,-0.681318,-0.08051599999999999,0.917774,-0.388855,0.10018400000000001,-0.43236899999999995,-0.844168,0.277492,0.968777,-1.020676
259,-0.255963,-1.153877,-0.709044,-0.102523,0.914341,-0.391752,0.402839,-1.944782,-0.377576,-0.47099399999999997,1.1095700000000002,-0.179125
260,-0.284669,-1.1419709999999998,-0.687874,-0.116774,0.9094549999999999,-0.399069,0.8771389999999999,-2.496852,0.606004,-0.38011300000000003,0.780273,-0.304377
261,-0.279998,-1.128161,-0.626502,-0.118368,0.903626,-0.411642,1.03301,-2.510766,1.285431,0.031027,0.085662,-0.515559
262,-0.256348,-1.116027,-0.555765,-0.111373,0.8983620000000001,-0.42490100000000003,1.066652,-1.545298,1.174402,0.019408,0.17153800000000002,-0.9990950000000001
263,-0.23521,-1.103509,-0.528452,-0.10497999999999999,0.8927940000000001,-0.438062,0.350138,0.684161,-0.026663,-0.313523,0.9093459999999999,-1.0221280000000001
264,-0.21910300000000002,-1.109905,-0.549087,-0.09666799999999999,0.8956559999999999,-0.43411400000000006,-1.059404,1.683461,-0.420213,-0.9707459999999999,1.634724,0.327547
265,-0.193076,-1.1391069999999999,-0.549876,-0.08028300000000001,0.9082600000000001,-0.410632,-1.4888139999999999,1.681741,0.647148,-0.30696999999999997,-0.735607,1.158358
266,-0.171913,-1.179351,-0.545074,-0.06526699999999999,0.924359,-0.37590100000000004,-1.9257950000000001,0.614599,0.427546,-0.451808,-0.8563040000000001,0.559388
267,-0.138527,-1.20171,-0.5369520000000001,-0.049816,0.932658,-0.35730700000000004,-0.757158,2.075375,0.143281,-0.40532399999999996,-0.617106,-0.055260000000000004
268,-0.122446,-1.233939,-0.580458,-0.040369999999999996,0.9437979999999999,-0.328048,-2.676386,3.119875,-0.9877549999999999,-0.279225,-0.593655,0.284256
269,-0.23767800000000003,-1.323948,-0.761629,-0.05753099999999999,0.9696870000000001,-0.23748000000000002,-5.622775,2.7079400000000002,-1.976696,-0.382898,-0.488913,0.889076
270,-0.606401,-1.413044,-1.1947860000000001,-0.089533,0.987583,-0.129089,-5.529968,2.918529,-2.2391,-0.294912,-0.421009,0.665817
271,-1.209473,-1.432757,-1.866453,-0.128717,0.9904879999999999,-0.048644,-3.4663760000000003,3.2955410000000005,-2.139711,-0.13730499999999998,-0.30356700000000003,0.319335
272,-1.478638,-1.402326,-2.212238,-0.166963,0.985842,-0.015431,-1.7826080000000002,3.427818,-2.046934,-0.12454100000000001,0.41784399999999994,-0.061046
273,-1.6519720000000002,-1.3655469999999998,-2.411978,-0.20314000000000002,0.97901,0.016526,-1.6910720000000001,-0.282229,-1.670868,-0.025498,0.41175200000000006,0.5484760000000001
274,-1.7225529999999998,-1.34071,-2.4548509999999997,-0.22544099999999997,0.9736469999999999,0.034477,-0.017555,-1.955234,-0.861209,0.294105,0.24487399999999998,0.17571199999999998
275,-1.7692189999999999,-1.3276,-2.4526830000000004,-0.23608099999999999,0.9705729999999999,0.047468,-0.344012,-2.414239,-0.610801,0.399686,-0.106682,-0.16755499999999998
276,-1.862396,-1.312402,-2.50814,-0.24474200000000002,0.966801,0.073461,-1.0761370000000001,-1.606935,-0.465262,0.134467,-0.23109899999999997,-0.038976
277,-1.9634470000000002,-1.297367,-2.595691,-0.24948499999999998,0.96285,0.103326,-1.470709,-0.421763,-0.269779,-0.11231600000000001,-0.316488,-0.016336
278,-2.054706,-1.2784719999999998,-2.684097,-0.255091,0.957577,0.134073,-1.484859,-0.375389,-0.399192,-0.24443600000000001,-0.324184,0.052176
279,-2.1250880000000003,-1.255631,-2.743488,-0.26356199999999996,0.9507450000000001,0.163152,-1.269393,-0.8651909999999999,-0.641682,-0.189563,-0.285798,0.010234
280,-2.179385,-1.2293889999999998,-2.776742,-0.2747,0.942284,0.191416,-1.085468,-1.260039,-0.8930600000000001,-0.108021,-0.1269,-0.21286999999999998
281,-2.212113,-1.202808,-2.784325,-0.28826199999999996,0.933053,0.215214,-0.760332,-1.241354,-1.052114,-0.04673,0.026374,-0.41313599999999995
282,-2.2308,-1.17685,-2.7833259999999997,-0.303226,0.923401,0.235337,-0.8841129999999999,-0.7106600000000001,-0.9917020000000001,0.040638,0.215484,-0.23581
283,-2.249274,-1.147885,-2.799439,-0.319522,0.911898,0.257581,-1.248132,0.025366,-0.922549,0.10920999999999999,0.250257,-0.158719
284,-2.2666180000000002,-1.11913,-2.816677,-0.334999,0.8997209999999999,0.279781,-1.1430850000000001,-0.258691,-0.840266,0.176353,0.273466,-0.16383
285,-2.281831,-1.094842,-2.826762,-0.34716199999999997,0.888856,0.299021,-0.828691,-0.235682,-0.739823,0.401285,0.41252,-0.422159
286,-2.283697,-1.077243,-2.829787,-0.358383,0.880655,0.309852,-0.49690500000000004,0.20654299999999998,-0.528701,0.50888,0.517584,-0.33768400000000004
287,-2.27483,-1.068657,-2.828081,-0.366867,0.876555,0.311546,-0.11332300000000001,0.37877,-0.24209499999999998,0.526275,0.534929,-0.25753000000000004
288,-2.267753,-1.0687360000000001,-2.823501,-0.36900900000000003,0.8765930000000001,0.308897,0.212452,0.028169,0.039435000000000005,0.540197,0.495172,-0.402846
289,-2.256828,-1.08023,-2.813895,-0.364541,0.882066,0.29844499999999996,0.820873,0.28319,0.47171499999999994,0.23249099999999998,0.662261,-0.10822799999999999
290,-2.223315,-1.11279,-2.786419,-0.35132199999999997,0.8969360000000001,0.26847600000000005,1.901288,0.451233,1.200097,0.013203,0.707679,0.20993299999999998
291,-2.186456,-1.164574,-2.750699,-0.32259099999999996,0.9186200000000001,0.228194,2.13897,0.094137,1.849557,-0.08585599999999999,0.418416,0.08937200000000001
292,-2.138675,-1.223818,-2.7037459999999998,-0.28668299999999997,0.9404049999999999,0.182898,2.672861,0.349445,2.0089189999999997,-0.200408,0.324061,-0.346472
293,-2.017382,-1.28756,-2.588587,-0.25205700000000003,0.9601559999999999,0.120698,3.142266,0.586299,1.777954,-0.23503400000000002,0.304309,-0.28427199999999997
294,-1.8522740000000002,-1.335783,-2.4251009999999997,-0.223692,0.972511,0.064682,2.585603,0.27970700000000004,1.410195,-0.641176,0.665321,0.169007
295,-1.654002,-1.3705370000000001,-2.237523,-0.198236,0.980015,0.016533000000000003,2.16511,1.066811,1.2759260000000001,-0.753943,0.394314,0.062584
296,-1.428061,-1.3942139999999998,-2.033762,-0.17388,0.98445,-0.024988999999999997,1.708552,1.267819,1.2212049999999999,-0.764642,0.281099,0.049326
297,-1.184985,-1.408282,-1.80549,-0.14990599999999998,0.9868239999999999,-0.060887000000000004,1.739514,0.490342,1.150847,-0.626965,0.118279,0.14037
298,-0.8788729999999999,-1.409265,-1.500372,-0.12384200000000001,0.986982,-0.10261300000000001,2.311446,0.062232,1.4213770000000001,-0.205213,-0.018324,0.212522
299,-0.557134,-1.393214,-1.161526,-0.093405,0.984274,-0.14993599999999999,2.605434,-0.8564350000000001,1.798486,-0.081552,-0.097875,0.23424099999999998
300,-0.264719,-1.35735,-0.846484,-0.055423,0.9773069999999999,-0.204451,2.8875889999999997,-0.845082,2.177524,0.009143,-0.21354299999999998,0.042311
301,-0.066087,-1.312907,-0.626336,-0.016843,0.96693,-0.254484,2.330373,-0.692896,2.164869,-0.192798,-0.407925,0.275816
302,0.071335,-1.275369,-0.46618999999999994,0.020751,0.956678,-0.290408,1.6982709999999999,-0.988123,2.21638,-0.301925,-0.487104,0.45337200000000005
303,0.17058399999999999,-1.234902,-0.336873,0.055955,0.944116,-0.324829,1.828037,-1.31136,2.218769,-0.381485,-0.6029909999999999,0.4729
304,0.22742199999999999,-1.188146,-0.243006,0.084185,0.9276780000000001,-0.363766,2.0354330000000003,-1.6829479999999999,1.9910259999999997,-0.41285900000000003,-0.534551,0.320691
305,0.25543299999999997,-1.13988,-0.174978,0.10553900000000001,0.908583,-0.40415100000000004,1.957137,-1.73196,1.795057,-0.469247,-0.494094,0.330542
306,0.262435,-1.0994,-0.130269,0.117816,0.890935,-0.43858199999999997,1.517443,-1.612049,1.227811,-0.5418430000000001,-0.5251060000000001,0.318815
307,0.253217,-1.074358,-0.10812999999999999,0.119322,0.8792840000000001,-0.461109,0.766146,-1.338444,0.590893,-0.365003,-0.652554,0.153659
308,0.23571799999999998,-1.070414,-0.09955399999999999,0.112044,0.8773989999999999,-0.46649399999999996,-0.24764499999999998,-1.203906,0.060211,-0.247664,-0.6142920000000001,0.10254100000000001
309,0.21324099999999999,-1.089073,-0.099396,0.098049,0.8861979999999999,-0.452813,-1.293272,-1.1538760000000001,-0.355218,-0.069454,-0.44323500000000005,-0.078819
310,0.17385499999999998,-1.125386,-0.111081,0.074525,0.9024340000000001,-0.424333,-1.8824580000000002,-1.5976860000000002,-0.7454609999999999,0.392409,0.028627,-0.8013140000000001
311,0.11965,-1.155625,-0.141629,0.048145,0.9150469999999999,-0.400463,-0.961284,-0.917525,-0.873426,0.663937,0.32508000000000004,-1.044575
312,0.067112,-1.168252,-0.184205,0.026272000000000004,0.920067,-0.390878,-0.378164,-0.822464,-0.908999,0.211704,0.817024,-0.30956100000000003
313,0.014683000000000002,-1.16751,-0.21046399999999998,0.005762,0.919776,-0.392401,0.400818,-1.7303669999999998,-0.181344,0.036962,0.698601,-0.294535
314,-0.01066,-1.155202,-0.19264900000000001,-0.004304,0.914876,-0.403711,0.583545,-2.252103,0.662359,-0.000976,0.144007,-0.47002200000000005
315,-0.009831,-1.1476879999999998,-0.14371199999999998,-0.004037,0.911817,-0.410577,0.293625,-2.027932,1.063835,0.30951799999999996,-0.31095700000000004,-0.773734
316,0.0012900000000000001,-1.142362,-0.111738,0.000536,0.909618,-0.415446,0.181594,0.199141,0.201348,0.187925,-0.08803899999999999,-0.666676
317,-0.025208,-1.15151,-0.16681600000000002,-0.010261,0.91338,-0.40698,-0.9095770000000001,1.220306,-1.937617,-1.7535479999999999,1.0325739999999999,0.066113
318,-0.063033,-1.174428,-0.23519099999999998,-0.024319,0.9224690000000001,-0.385304,-1.212224,1.514098,-0.289704,-1.164173,0.225602,0.65685
319,-0.01677,-1.199702,-0.22160300000000002,-0.0060810000000000005,0.931931,-0.362585,-1.519916,1.5118200000000002,0.279648,-0.453025,-0.480729,0.233221
320,0.006984999999999999,-1.238301,-0.22634400000000002,0.00228,0.9452309999999999,-0.326395,-2.0645729999999998,1.7345400000000002,-0.33226,-0.372992,-0.595194,0.074946
321,0.013826,-1.295585,-0.272959,0.003757,0.962368,-0.27172399999999997,-3.674322,3.058252,-0.9604959999999999,-0.225269,-0.5875199999999999,0.687847
322,-0.069926,-1.403391,-0.428806,-0.011642,0.9860200000000001,-0.166218,-6.249267,3.4671160000000003,-1.8731080000000002,-0.463501,-0.42719799999999997,0.879292
323,-0.7650140000000001,-1.506983,-1.2008459999999999,-0.044164,0.997965,-0.046002,-5.755157,3.824988,-2.019666,-0.513468,-0.439356,0.788922
324,-1.9864970000000002,-1.484567,-2.489786,-0.078788,0.9962850000000001,0.034779000000000004,-3.022287,3.009234,-1.520968,-0.258264,-0.29236599999999996,0.150295
325,-2.0334779999999997,-1.4469459999999998,-2.594364,-0.110545,0.99234,0.055139,-0.689083,2.500484,-1.525383,-0.032567,-0.049424,0.018088
326,-2.04898,-1.407199,-2.628675,-0.1446,0.986648,0.074947,-1.582152,-0.29952199999999995,-1.701085,-0.05260499999999999,-0.027572000000000003,0.212025
327,-2.138394,-1.3680729999999999,-2.698292,-0.169766,0.9795219999999999,0.10824,-1.218877,-1.237473,-1.090596,0.103498,-0.026336000000000002,0.494497
328,-2.188552,-1.3468,-2.715518,-0.181074,0.975018,0.128658,-0.632279,-1.8981270000000001,-0.7545029999999999,0.268446,-0.001553,0.101155
329,-2.252311,-1.3244209999999998,-2.740502,-0.18941,0.9698030000000001,0.153644,-1.08338,-1.740421,-0.64142,0.046786,-0.025192,-0.044986
330,-2.314979,-1.301531,-2.783,-0.195698,0.963967,0.180196,-1.156599,-0.731125,-0.431717,-0.100673,-0.074837,-0.167211
331,-2.3601,-1.279676,-2.821442,-0.202163,0.957923,0.203749,-1.148064,-0.264532,-0.439733,-0.07219,-0.073676,-0.335096
332,-2.38835,-1.256297,-2.848996,-0.21159099999999997,0.950951,0.225656,-1.056727,-0.007613,-0.565474,-0.009615,-0.06386599999999999,-0.391946
333,-2.391943,-1.2343899999999999,-2.858231,-0.22492199999999998,0.943947,0.24160700000000002,-0.872959,0.414045,-0.676894,-0.023628,-0.055930999999999995,-0.048369999999999996
334,-2.386511,-1.2116040000000001,-2.866362,-0.240912,0.9361809999999999,0.255981,-0.984541,0.752117,-0.674902,-0.031961,-0.067819,0.057236
335,-2.387676,-1.1861979999999999,-2.875628,-0.256815,0.926949,0.273516,-1.034124,0.034817,-0.80572,-0.020116,-0.046487,0.102674
336,-2.399768,-1.159483,-2.874282,-0.27012800000000003,0.9165969999999999,0.294757,-0.920839,-1.062044,-0.996872,0.032121,0.240294,-0.253299
337,-2.416662,-1.134731,-2.863943,-0.280071,0.9064209999999999,0.316168,-0.64031,-1.233786,-0.915644,0.200389,0.38503699999999996,-0.541586
338,-2.423012,-1.119113,-2.855378,-0.287342,0.8997139999999999,0.32855700000000004,-0.40719,-0.437411,-0.472792,0.25595500000000004,0.394827,-0.43153800000000003
339,-2.421995,-1.108295,-2.859025,-0.294074,0.8949389999999999,0.335565,-0.48936,0.551385,-0.190486,0.303352,0.445927,-0.174752
340,-2.4163080000000003,-1.102501,-2.8710009999999997,-0.299413,0.892339,0.337762,-0.310214,0.8339700000000001,0.114846,0.335866,0.41442399999999996,-0.25617399999999996
341,-2.412441,-1.102466,-2.8817630000000003,-0.300737,0.892323,0.336625,-0.084655,0.559002,0.217187,0.339159,0.375789,-0.358994
342,-2.409594,-1.107669,-2.888746,-0.298587,0.89466,0.332309,0.21930300000000003,0.428519,0.34980100000000003,0.344959,0.2846,-0.570468
343,-2.397466,-1.123542,-2.885759,-0.292939,0.9016379999999999,0.318175,0.9464239999999999,0.526346,0.563058,0.142274,0.367344,-0.229979
344,-2.367427,-1.154507,-2.863225,-0.282702,0.914596,0.289126,1.7117189999999998,0.42235,0.864434,-0.022947,0.412217,-0.06288400000000001
345,-2.32502,-1.201168,-2.827529,-0.26329400000000003,0.9324620000000001,0.247369,2.346977,0.554459,1.375039,-0.165325,0.305575,-0.086755
346,-2.254795,-1.259465,-2.766595,-0.23741900000000002,0.951926,0.19356700000000002,2.871409,0.6498229999999999,1.580474,-0.23328400000000002,0.240044,-0.161234
347,-2.12952,-1.320776,-2.653721,-0.209798,0.968907,0.13116,3.1046869999999998,0.962522,1.501586,-0.306696,0.44278999999999996,-0.201732
348,-1.932345,-1.3681649999999999,-2.4719990000000003,-0.188237,0.97954,0.071186,2.665537,1.086209,1.055048,-0.48298199999999997,0.5972270000000001,0.083111
349,-1.6837919999999997,-1.39737,-2.249978,-0.171458,0.984999,0.019457,2.191216,1.7171009999999998,0.8714649999999999,-0.666586,0.605287,0.15934600000000002
350,-1.4321110000000001,-1.4152049999999998,-2.026636,-0.153477,0.98792,-0.021422,1.592716,1.333215,0.954303,-0.652386,0.41453100000000004,0.197707
351,-1.159515,-1.425508,-1.7637619999999998,-0.132705,0.9894639999999999,-0.057879999999999994,2.026887,0.265865,1.096481,-0.376176,0.273109,0.23295900000000003
352,-0.745147,-1.4182219999999999,-1.3508209999999998,-0.103057,0.988383,-0.111706,2.875219,0.173199,1.68898,0.024611,0.255635,0.018947
353,-0.39392,-1.391371,-0.9903379999999999,-0.068496,0.9839469999999999,-0.164796,2.532323,-0.543962,1.777234,0.008621,0.09657400000000001,0.10728499999999999
354,-0.171425,-1.354637,-0.7481359999999999,-0.036587,0.976728,-0.21133600000000002,2.384873,-0.820458,1.786172,-0.13808,-0.236204,0.19883900000000002
355,-0.020006,-1.311936,-0.576809,-0.005121,0.9666819999999999,-0.25592800000000004,2.225853,-0.818892,1.798946,-0.32758200000000004,-0.5106430000000001,0.349159
356,0.079561,-1.269952,-0.450115,0.023551,0.9550870000000001,-0.295389,1.9309830000000001,-1.326236,1.8562889999999999,-0.372413,-0.595757,0.382151
357,0.14942,-1.229817,-0.34281100000000003,0.049782,0.942428,-0.33068400000000003,1.7166400000000002,-1.7135099999999999,1.92045,-0.226372,-0.587234,0.413631
358,0.19406099999999998,-1.190448,-0.257969,0.07159299999999999,0.928535,-0.364275,1.693811,-1.773334,1.716336,-0.269301,-0.546257,0.426806
359,0.212187,-1.149526,-0.195744,0.086118,0.9125700000000001,-0.39974899999999997,1.801907,-2.099025,1.551935,-0.344068,-0.51456,0.44338900000000003
360,0.20911,-1.1096700000000002,-0.15104700000000001,0.092369,0.895552,-0.43526400000000004,1.630701,-2.120318,1.165138,-0.49468199999999996,-0.53105,0.429237
361,0.194851,-1.0845559999999999,-0.127799,0.09047999999999999,0.8840959999999999,-0.458462,0.7550279999999999,-1.504345,0.532254,-0.5051220000000001,-0.60602,0.397229
362,0.172929,-1.08077,-0.12200799999999999,0.080984,0.8823200000000001,-0.46363000000000004,-0.189,-1.326177,-0.047135,-0.45082700000000003,-0.761257,0.21250100000000002
363,0.137236,-1.098367,-0.133712,0.062254,0.890465,-0.450773,-1.218731,-1.196832,-0.597151,-0.020216,-0.3601,-0.209902
364,0.08980700000000001,-1.135118,-0.161813,0.03785,0.9065840000000001,-0.420325,-2.032973,-1.09255,-0.9277110000000001,0.15170999999999998,-0.20738,-0.397821
365,0.023393,-1.181284,-0.209891,0.008882,0.9250940000000001,-0.379634,-2.2269959999999998,-1.0642639999999999,-1.172657,0.320937,-0.030882999999999997,-0.6377
366,-0.040929,-1.2087649999999999,-0.269953,-0.014491999999999998,0.9351790000000001,-0.353878,-0.779571,-0.035554,-1.008973,0.403393,0.837404,-0.9220459999999999
367,-0.09365,-1.2110530000000002,-0.32308600000000004,-0.03292,0.9359870000000001,-0.350491,0.125797,-0.404901,-0.804555,0.091056,1.067248,-0.521701
368,-0.116514,-1.1970399999999999,-0.324817,-0.042445,0.9309620000000001,-0.362639,0.986458,-1.445916,0.372494,0.032847,1.083594,-0.43556300000000003
369,-0.106677,-1.179362,-0.27199,-0.040622000000000005,0.9243629999999999,-0.379346,0.826363,-2.157755,1.101884,0.398242,0.295959,-0.450626
370,-0.087338,-1.171383,-0.205862,-0.033921,0.9212889999999999,-0.387396,0.420382,-1.929902,1.2162600000000001,0.37657199999999996,-0.1439,-0.483713
371,-0.07513099999999999,-1.167286,-0.169896,-0.029472,0.919688,-0.391541,-0.03279,-0.329306,0.140685,0.16281900000000002,0.078328,-0.41248999999999997
372,-0.12236199999999998,-1.177912,-0.22223400000000001,-0.04673,0.923809,-0.379992,-0.76705,0.193002,-1.432194,-1.446541,1.600483,0.0054340000000000005
373,-0.13507,-1.186102,-0.252076,-0.050535000000000004,0.9269129999999999,-0.371857,-0.421321,0.858707,0.41952799999999996,-1.112826,0.074048,0.7487189999999999
374,-0.073862,-1.204417,-0.210677,-0.026436,0.93363,-0.357261,-1.426231,0.988654,0.761651,-0.46375200000000005,-0.764212,0.387336
375,-0.043331,-1.2405629999999999,-0.195329,-0.014046000000000001,0.945967,-0.32395999999999997,-1.697807,1.018456,0.205308,-0.637046,-0.954573,0.033417
376,-0.01571,-1.274132,-0.21346500000000002,-0.004592000000000001,0.956317,-0.292296,-2.026535,2.842151,-0.5598989999999999,-0.43136599999999997,-0.706637,0.308287
377,-0.062116,-1.346622,-0.327506,-0.0138,0.974978,-0.22187300000000001,-4.644595,3.2654080000000003,-1.8370939999999998,-0.376093,-0.449267,0.773478
378,-1.945253,-1.358279,-2.2743349999999998,-0.196306,0.977503,0.07714800000000001,-5.429078,3.7739589999999996,-2.3267990000000003,-0.321684,-0.331827,0.543763
379,-2.121314,-1.270138,-2.526366,-0.252394,0.955142,0.154924,-4.194729,2.892512,-2.481554,-0.258089,-0.28078000000000003,0.001265
380,-2.129232,-1.209226,-2.591932,-0.300004,0.935343,0.187434,-1.542559,2.893075,-1.725956,0.174745,0.074072,-0.27325
381,-2.096791,-1.169902,-2.604287,-0.337491,0.9207120000000001,0.19593,-1.4045940000000001,1.481464,-1.5490629999999999,0.412793,0.121249,-0.156852
382,-2.1212400000000002,-1.126201,-2.649367,-0.36656500000000003,0.9027850000000001,0.224966,-2.0814340000000002,0.779358,-1.206787,0.506594,-0.02748,0.084909
383,-2.157048,-1.08849,-2.702824,-0.386374,0.885928,0.25660700000000003,-1.8327229999999999,0.441535,-0.8574450000000001,0.317176,0.018324,0.188355
384,-2.1880580000000003,-1.064432,-2.727457,-0.395502,0.8745129999999999,0.280721,-0.761208,-1.1121809999999999,-0.585187,0.11831099999999999,0.063154,0.16988599999999998
385,-2.229104,-1.049612,-2.729396,-0.393859,0.86723,0.304609,-0.40481,-2.274621,-0.5715939999999999,0.163665,0.113666,-0.347868
386,-2.269325,-1.0350709999999999,-2.731202,-0.390909,0.8598979999999999,0.328276,-0.642632,-1.502689,-0.533652,0.241708,0.138423,-0.49105699999999997
387,-2.30127,-1.013739,-2.7494549999999998,-0.39379899999999995,0.848815,0.352754,-1.2740479999999998,-0.450376,-0.474249,0.353364,0.137773,-0.577196
388,-2.322803,-0.988123,-2.770887,-0.401864,0.834995,0.375884,-1.15309,-0.005036,-0.592548,0.221154,-0.014422999999999998,-0.287582
389,-2.329484,-0.967426,-2.77737,-0.4118,0.823428,0.390369,-0.706554,-0.150259,-0.62663,0.128047,-0.0049770000000000005,-0.16179200000000002
390,-2.3382509999999996,-0.9485899999999999,-2.778422,-0.41945,0.812595,0.40466199999999997,-0.67514,-0.594288,-0.7016859999999999,0.026735000000000002,0.001797,-0.142287
391,-2.352419,-0.929049,-2.774999,-0.42486599999999997,0.8010510000000001,0.42167,-0.5620930000000001,-0.947924,-0.808333,0.021928,0.31606,-0.387033
392,-2.365354,-0.907625,-2.7707040000000003,-0.431303,0.788044,0.43927700000000003,-0.784782,-0.694481,-0.858283,0.032011000000000005,0.41086999999999996,-0.48923500000000003
393,-2.3779,-0.885599,-2.771829,-0.437658,0.7742939999999999,0.457082,-0.742472,-0.551719,-0.632776,0.132955,0.468778,-0.52332
394,-2.3883,-0.870117,-2.772671,-0.441029,0.764404,0.47029799999999994,-0.527827,-0.380402,-0.504378,0.48874300000000004,0.46275299999999997,-0.5465909999999999
395,-2.383524,-0.858051,-2.771428,-0.449578,0.75657,0.47484899999999997,-0.31191199999999997,0.580151,-0.34386700000000003,0.510339,0.480216,-0.44983999999999996
396,-2.364671,-0.853341,-2.768826,-0.46094399999999996,0.7534810000000001,0.468825,0.004148,0.793609,-0.185973,0.575507,0.455503,-0.222503
397,-2.3562220000000003,-0.8539120000000001,-2.7637959999999997,-0.464584,0.7538560000000001,0.46461,0.190371,-0.109947,-0.030757999999999997,0.621841,0.508732,-0.541407
398,-2.356679,-0.861023,-2.759519,-0.460571,0.758509,0.46101800000000004,0.536032,-0.024045,0.29842199999999997,0.63089,0.509084,-0.7204020000000001
399,-2.338841,-0.8851969999999999,-2.749367,-0.45539700000000005,0.77404,0.43986000000000003,1.408679,0.7525930000000001,0.860066,0.415434,0.6223380000000001,-0.447611
400,-2.310343,-0.9292739999999999,-2.732615,-0.442094,0.801185,0.403304,2.1204330000000002,0.654021,1.449481,0.001375,0.608284,-0.102096
401,-2.2791189999999997,-0.986136,-2.707661,-0.419155,0.8339,0.359055,2.608429,0.572228,1.7670830000000002,-0.046665,0.4255,-0.320343
402,-2.228548,-1.052383,-2.666306,-0.392125,0.868607,0.30291999999999997,3.044423,0.8705450000000001,1.91182,-0.416621,0.807922,-0.088885
403,-2.176527,-1.108143,-2.6230290000000003,-0.366917,0.8948709999999999,0.25411999999999996,2.168244,0.632396,1.48833,-0.48348599999999997,0.685268,0.161148
404,-2.112405,-1.156626,-2.576464,-0.344835,0.91545,0.207459,2.1363790000000003,1.3898620000000002,1.502092,-0.54193,0.653458,0.188323
405,-2.031097,-1.200872,-2.5227,-0.323915,0.9323549999999999,0.160605,1.8064419999999999,1.486151,1.418479,-0.58119,0.32236,-0.100393
406,-1.958309,-1.239172,-2.467705,-0.301438,0.945515,0.12303199999999999,1.609656,0.786363,1.29836,-0.402633,0.128918,-0.128891
407,-1.8758569999999999,-1.274783,-2.380451,-0.27824099999999996,0.956507,0.087615,2.145354,-0.491233,1.18303,-0.24492199999999997,0.066595,-0.014251
408,-1.757854,-1.310946,-2.238465,-0.252454,0.9664290000000001,0.047782,2.436982,-0.6391789999999999,1.4309479999999999,0.21098000000000003,-0.07761900000000001,-0.086127
409,-1.592539,-1.350415,-2.063672,-0.21855,0.975814,0.004753,2.136807,-0.017896000000000002,1.900209,0.197752,-0.14691099999999999,-0.052177
410,-1.384735,-1.3860270000000001,-1.849634,-0.180549,0.982979,-0.033986,1.961571,-0.24871500000000002,1.965511,0.101997,-0.245369,0.024266
411,-1.1125690000000001,-1.413192,-1.560917,-0.140761,0.987606,-0.06942899999999999,1.851798,-0.813418,2.0872450000000002,-0.13582,-0.5279050000000001,0.155886
412,-0.7862359999999999,-1.4275209999999998,-1.203223,-0.101049,0.9897540000000001,-0.10088,1.7298790000000002,-1.761357,2.153838,-0.218561,-0.605278,0.204335
413,-0.44681000000000004,-1.4210639999999999,-0.8158340000000001,-0.064456,0.9888110000000001,-0.134529,1.99351,-2.31474,2.051703,-0.191815,-0.603191,0.20018699999999998
414,-0.194328,-1.393303,-0.5131100000000001,-0.034096,0.984289,-0.173239,2.075761,-2.299129,1.806566,-0.178169,-0.53298,0.114035
415,-0.053068,-1.3597270000000001,-0.32368800000000003,-0.011113,0.977807,-0.209211,1.714066,-2.179277,1.452441,-0.2606,-0.538934,0.08173899999999999
416,0.0064,-1.332566,-0.221973,0.00151,0.971757,-0.235979,1.16476,-1.806327,0.8381719999999999,-0.308197,-0.598039,0.120226
417,0.0049039999999999995,-1.3166950000000002,-0.192115,0.001233,0.9678899999999999,-0.251372,0.558721,-1.360248,0.10056699999999999,-0.328366,-0.743189,-0.039201
418,-0.037909,-1.3139969999999999,-0.212404,-0.009626000000000001,0.967208,-0.253804,-0.12366700000000001,-1.0851520000000001,-0.43652700000000005,-0.189806,-0.6419060000000001,-0.215129
419,-0.113048,-1.32582,-0.270814,-0.027360000000000002,0.970143,-0.240985,-0.993661,-0.8250620000000001,-0.7879729999999999,-0.090286,-0.5398149999999999,-0.28724299999999997
420,-0.227368,-1.353086,-0.370587,-0.048688,0.9763950000000001,-0.210436,-1.8342,-0.940824,-0.946451,0.129331,-0.241745,-0.57852
421,-0.403588,-1.387268,-0.528418,-0.071671,0.9832059999999999,-0.167837,-2.15072,-1.110128,-0.956991,0.32762199999999997,0.080042,-0.9669280000000001
422,-0.6174609999999999,-1.406617,-0.726383,-0.094628,0.986553,-0.13326300000000002,-1.2908540000000002,-0.769608,-1.077472,0.507378,0.545216,-1.075172
423,-0.768572,-1.4032719999999999,-0.8687940000000001,-0.115904,0.986001,-0.119872,-0.1841,-0.456924,-0.8447469999999999,0.44381499999999996,0.957145,-0.8067340000000001
424,-0.748324,-1.394641,-0.834226,-0.11923900000000001,0.984525,-0.128425,0.797197,-0.904344,0.434933,0.467689,1.020968,-0.531594
425,-0.631596,-1.39832,-0.689978,-0.101332,0.9851629999999999,-0.138515,0.491913,-1.416293,1.385243,0.628783,0.325094,-0.58225
426,-0.49729399999999996,-1.411019,-0.52246,-0.07589800000000001,0.9872629999999999,-0.139828,0.017253,-1.561921,1.451548,0.7199409999999999,-0.31653200000000004,-0.579151
427,-0.417947,-1.426782,-0.42248800000000003,-0.058251,0.989648,-0.131163,-0.654633,-0.376153,0.674079,0.171975,-0.21018299999999998,-0.19676300000000002
428,-0.575498,-1.441489,-0.585881,-0.07017999999999999,0.9916510000000001,-0.108177,-1.4631889999999999,0.261019,-1.586333,-0.891749,1.015947,-0.231805
429,-0.967792,-1.4438090000000001,-0.993152,-0.10430999999999999,0.9919479999999999,-0.071824,-1.8407810000000002,0.9202299999999999,-0.944609,-2.078475,1.069545,0.639771
430,-0.983038,-1.4687709999999998,-1.0314530000000002,-0.084757,0.9948,-0.056474,-0.459146,1.086185,1.374325,-0.7127439999999999,-0.310321,0.047716
431,-0.933055,-1.4930139999999998,-0.9892059999999999,-0.06243099999999999,0.996976,-0.046264,-0.618334,-0.019867,0.788176,-0.385049,-0.703046,-0.571
432,-1.038938,-1.502845,-1.103385,-0.05852,0.997692,-0.034434,-0.779523,0.9378270000000001,-0.139257,-0.416318,-0.8568379999999999,-0.367314
433,-1.588698,-1.499516,-1.6925849999999998,-0.07120800000000001,0.997461,0.001275,-2.934962,2.322178,-1.0726209999999998,-0.350331,-0.796075,0.29999499999999996
434,-2.231488,-1.43577,-2.403369,-0.10628900000000001,0.990898,0.082609,-5.084119,3.7499010000000004,-1.935495,-0.372776,-0.670921,0.277331
435,-2.38999,-1.328549,-2.6477470000000003,-0.163796,0.970801,0.175259,-5.16453,4.251138,-2.537039,-0.550041,-0.47910200000000003,0.12166199999999999
436,-2.3855880000000003,-1.230615,-2.732555,-0.22889600000000002,0.942694,0.24276399999999998,-3.776436,4.009995,-2.311253,-0.197542,0.019967,-0.069927
437,-2.3576040000000003,-1.162246,-2.760014,-0.280523,0.9176979999999999,0.281314,-2.428003,1.705093,-1.970937,-0.025019,0.10641099999999999,0.014752000000000001
438,-2.36057,-1.1043450000000001,-2.775096,-0.316605,0.89317,0.319388,-2.092589,0.239921,-1.6248850000000001,0.16153,-0.056927,0.54664
439,-2.372647,-1.070011,-2.778989,-0.333861,0.8772059999999999,0.345032,-0.643731,-0.9281379999999999,-0.8879459999999999,0.528655,0.262229,0.305359
440,-2.39568,-1.059338,-2.759631,-0.33216100000000004,0.8720319999999999,0.359486,0.021013,-2.546479,-0.618446,0.57975,0.288247,-0.14033900000000002
441,-2.443474,-1.0483120000000001,-2.750695,-0.320768,0.866582,0.382286,-0.465584,-2.603121,-0.417742,0.422941,0.277415,-0.631462
442,-2.487269,-1.03094,-2.763395,-0.31284,0.857783,0.407848,-1.1128930000000001,-0.9439780000000001,-0.250269,0.269703,0.14385,-0.636532
443,-2.505873,-1.008019,-2.785446,-0.316792,0.845777,0.42930799999999997,-1.267915,0.42749499999999996,-0.23174499999999998,0.18684800000000001,0.082522,-0.522692
444,-2.50544,-0.9885959999999999,-2.798618,-0.326677,0.835255,0.442303,-0.795289,0.543512,-0.35036999999999996,0.003038,-0.050999,-0.32950999999999997
445,-2.498795,-0.971951,-2.798521,-0.33789600000000003,0.825987,0.451189,-0.673376,0.144517,-0.576538,-0.129588,-0.041991,-0.153841
446,-2.497846,-0.9515610000000001,-2.7953259999999998,-0.348362,0.8143229999999999,0.46424399999999993,-0.8106869999999999,-0.19201300000000002,-0.7479819999999999,-0.13280899999999998,0.016793000000000002,-0.16605699999999998
447,-2.501344,-0.9267139999999999,-2.791403,-0.358714,0.799651,0.481541,-0.9819030000000001,-0.451822,-0.895191,0.016978999999999998,0.34324699999999997,-0.401615
448,-2.5089069999999998,-0.899566,-2.783636,-0.367767,0.783057,0.501567,-0.900258,-0.7125020000000001,-1.0438379999999998,0.161071,0.40720500000000004,-0.550868
449,-2.5124720000000003,-0.877167,-2.775305,-0.376205,0.768931,0.516929,-0.691994,-0.321519,-0.698916,0.429,0.531576,-0.5366890000000001
450,-2.510132,-0.860497,-2.7771169999999996,-0.384927,0.758167,0.526321,-0.685469,0.498507,-0.37945500000000004,0.626046,0.546795,-0.387298
451,-2.497286,-0.8498610000000001,-2.779761,-0.396478,0.751189,0.527751,-0.325575,0.796719,-0.142289,0.57705,0.544862,-0.320445
452,-2.487899,-0.8476879999999999,-2.781619,-0.402406,0.749753,0.525301,-0.037121,0.347592,0.03549,0.56598,0.5330229999999999,-0.516145
453,-2.485243,-0.8499639999999999,-2.783607,-0.402758,0.751256,0.522877,0.133379,0.21324099999999999,0.185335,0.47365,0.47164399999999995,-0.732899
454,-2.475407,-0.862577,-2.781832,-0.401993,0.759521,0.5113989999999999,0.843211,0.5336350000000001,0.43237,0.370377,0.514969,-0.532334
455,-2.45722,-0.892251,-2.7689529999999998,-0.39679899999999996,0.778487,0.48632200000000003,1.7433029999999998,0.308654,0.769026,0.195994,0.610567,-0.26758699999999996
456,-2.441611,-0.9404440000000001,-2.755137,-0.379712,0.80782,0.45082700000000003,2.258443,0.24550500000000003,1.461708,-0.159182,0.6372479999999999,-0.250235
457,-2.426805,-0.996692,-2.7458259999999997,-0.355968,0.8396790000000001,0.410154,2.387394,0.45394799999999996,1.70376,-0.23590500000000003,0.47179899999999997,-0.604368
458,-2.38631,-1.063013,-2.721821,-0.333316,0.873825,0.35402100000000003,3.143779,1.394083,1.7067700000000001,-0.325208,0.623887,-0.584643
459,-2.317268,-1.1227559999999999,-2.67848,-0.318008,0.9012979999999999,0.294166,2.507063,1.5193459999999999,1.303715,-0.48706099999999997,0.664758,0.026711000000000002
460,-2.2412669999999997,-1.172803,-2.637818,-0.303672,0.92184,0.24081799999999998,2.102518,2.258709,1.372581,-0.6471640000000001,0.604191,-0.010777
461,-2.167095,-1.213508,-2.607034,-0.289378,0.9368489999999999,0.196405,1.3991870000000002,2.086923,1.252521,-0.689214,0.253337,-0.033533
462,-2.106405,-1.248106,-2.572918,-0.27270900000000003,0.9483860000000001,0.161846,1.7016790000000002,0.913449,1.141838,-0.5256,-0.09268799999999999,-0.066876
463,-1.989439,-1.291117,-2.45208,-0.252208,0.961144,0.112219,2.982974,-0.303216,1.126709,-0.187154,-0.152779,-0.157461
464,-1.7974569999999999,-1.333426,-2.24841,-0.229133,0.97196,0.052844,3.0389619999999997,-0.341043,1.213675,-2.4e-05,-0.058309,-0.008563
465,-1.5703209999999999,-1.37001,-2.009633,-0.19944,0.9799100000000001,-9.499999999999999e-05,2.622994,-0.082621,1.68366,0.157753,-0.146536,-0.090802
466,-1.295197,-1.398161,-1.733999,-0.165297,0.985135,-0.046745,2.105937,0.305614,1.746849,0.06314,-0.324888,-0.074928
467,-1.0208,-1.419622,-1.4548780000000001,-0.12839,0.9885950000000001,-0.078716,1.399002,-0.319242,1.9777209999999998,-0.026853,-0.38756599999999997,0.22822199999999998
468,-0.698917,-1.433094,-1.117356,-0.08831699999999999,0.990534,-0.105084,1.493555,-0.7589640000000001,2.102859,-0.034669,-0.460688,0.20631100000000002
469,-0.35881799999999997,-1.4225940000000001,-0.749745,-0.051854,0.989038,-0.138256,1.945575,-1.512872,1.9008150000000001,-0.106395,-0.472421,0.277355
470,-0.13031500000000001,-1.386644,-0.477313,-0.023795,0.983092,-0.181561,2.413597,-2.289116,1.67648,-0.20827600000000002,-0.474654,0.27260999999999996
471,-0.023073,-1.342249,-0.31658800000000004,-0.005227000000000001,0.9739969999999999,-0.226502,2.1865799999999997,-2.5926299999999998,1.318497,-0.36106,-0.512617,0.252717
472,0.005129,-1.309412,-0.23826399999999998,0.001325,0.966033,-0.258415,1.255606,-2.17885,0.681213,-0.422926,-0.6528010000000001,0.185585
473,-0.009855,-1.295935,-0.21573699999999998,-0.002675,0.962463,-0.2714,0.35675300000000004,-1.6886869999999998,0.09533,-0.343181,-0.761779,0.008186
474,-0.05766,-1.299721,-0.233132,-0.015431,0.963484,-0.267322,-0.5438109999999999,-1.503492,-0.41433100000000006,-0.046505,-0.667829,-0.19855899999999999
475,-0.144053,-1.3226790000000002,-0.29387199999999997,-0.035254,0.969377,-0.243036,-1.6412630000000001,-1.2969110000000001,-0.773706,0.177283,-0.43220600000000003,-0.514441
476,-0.27616999999999997,-1.359642,-0.406961,-0.057149,0.9777899999999999,-0.201647,-2.1694080000000002,-0.9451950000000001,-0.8921459999999999,0.53304,-0.09084199999999999,-1.045835
477,-0.411189,-1.3849690000000001,-0.539048,-0.073848,0.982784,-0.16935899999999998,-1.2125629999999998,0.12570499999999998,-0.730874,0.666805,0.320652,-1.2679120000000002
478,-0.510362,-1.391249,-0.641046,-0.087237,0.983925,-0.155827,-0.401685,-0.185606,-0.572055,-0.022642,0.702477,-0.67979
479,-0.530158,-1.387981,-0.643746,-0.09193,0.9833360000000001,-0.156842,0.46083100000000005,-1.210118,0.206539,-0.081196,0.7729050000000001,-0.582431
480,-0.473075,-1.3818190000000001,-0.5524180000000001,-0.085591,0.982197,-0.167223,0.656046,-1.868095,0.744993,0.21434499999999998,0.42574700000000004,-0.659849
481,-0.41747799999999996,-1.3827209999999999,-0.457813,-0.075808,0.982366,-0.17091099999999998,0.180341,-1.7506810000000002,0.832318,0.641863,-0.46228500000000006,-0.7569
482,-0.354232,-1.386736,-0.3676,-0.063485,0.983109,-0.17165999999999998,0.041398000000000004,-0.8702209999999999,0.817401,0.626336,-0.454086,-0.592882
483,-0.33163899999999996,-1.39894,-0.346048,-0.05567999999999999,0.9852690000000001,-0.161694,-0.8469700000000001,0.593089,-0.180921,-0.156127,0.110953,-0.33777199999999996
484,-0.574641,-1.4044299999999998,-0.6134069999999999,-0.090009,0.986193,-0.139003,-1.2703280000000001,1.2957020000000001,-2.623529,-2.013735,1.174848,0.382289
485,-0.751992,-1.404382,-0.8180390000000001,-0.113153,0.9861850000000001,-0.120977,-0.7266279999999999,0.7239329999999999,-0.23900100000000002,-1.990592,1.174856,0.364263
486,-0.7130449999999999,-1.41068,-0.785903,-0.10429200000000001,0.987209,-0.120592,-0.012783,0.23402399999999998,0.443866,-0.468141,-0.248225,-0.006758
487,-0.764324,-1.422065,-0.839534,-0.10255,0.9889600000000001,-0.106966,-1.191408,0.175556,-0.162496,-0.222492,-0.724952,-0.152158
488,-1.0596709999999998,-1.4422979999999999,-1.161352,-0.111768,0.9917549999999999,-0.062684,-3.207154,1.8447689999999999,-0.7929430000000001,-0.16531600000000002,-0.79188,0.127671
489,-1.709123,-1.43331,-1.870482,-0.135745,0.9905639999999999,0.018897999999999998,-4.994298000000001,3.2631580000000002,-1.5005190000000002,-0.301374,-0.5797359999999999,0.41407
490,-2.130312,-1.362198,-2.378377,-0.17551,0.9783219999999999,0.109918,-5.032794,4.309883,-1.622849,-0.5445979999999999,-0.332631,0.210288
491,-2.269409,-1.2818559999999999,-2.6026830000000003,-0.21818600000000002,0.9585459999999999,0.183259,-4.182661,3.386257,-1.552702,-0.37037600000000004,-0.331532,-0.190629
492,-2.293138,-1.218968,-2.6885310000000002,-0.25855100000000003,0.938744,0.22784000000000001,-2.491127,2.570672,-1.524886,0.051092,-0.13506400000000002,-0.274471
493,-2.288795,-1.1677540000000002,-2.716941,-0.295389,0.9198719999999999,0.25803200000000004,-1.8922919999999999,0.937809,-1.562408,0.20774299999999998,-0.017757,0.22150599999999998
494,-2.30436,-1.130099,-2.736329,-0.31685399999999997,0.9044540000000001,0.285598,-1.362711,-0.409102,-0.8562299999999999,0.298009,0.076426,0.29484699999999997
495,-2.338299,-1.1032879999999998,-2.7564509999999998,-0.324319,0.8926940000000001,0.31291399999999997,-1.267292,-0.803384,-0.6403449999999999,0.611779,0.185782,0.11273
496,-2.377375,-1.076619,-2.78343,-0.328207,0.880359,0.342414,-1.4046610000000002,-0.746332,-0.40316399999999997,0.23624299999999998,0.023175,-0.22168600000000002
497,-2.414325,-1.052302,-2.810093,-0.329472,0.868566,0.37019,-1.281828,-0.639472,-0.3266,0.130299,-0.023794,-0.30088400000000004
498,-2.4448630000000002,-1.029488,-2.830964,-0.330648,0.857035,0.39517399999999997,-1.160654,-0.577805,-0.40167600000000003,-0.00352,-0.028636,-0.543017
499,-2.4586959999999998,-1.006116,-2.841672,-0.3377,0.8447600000000001,0.415138,-1.029217,0.00515,-0.577761,0.048683,0.0033079999999999997,-0.618263
500,-2.454825,-0.982965,-2.84575,-0.351612,0.832145,0.428839,-0.955933,0.541141,-0.6804859999999999,0.08469,0.036446,-0.52265
501,-2.444322,-0.959037,-2.8488990000000003,-0.368779,0.818639,0.44026400000000004,-1.01288,0.670262,-0.686369,0.103933,0.023372,-0.120806
502,-2.442085,-0.9332379999999999,-2.8536330000000003,-0.383237,0.803552,0.45545,-1.0775379999999999,-0.019523,-0.758576,0.133939,0.099845,-0.11144000000000001
503,-2.453638,-0.908429,-2.8556049999999997,-0.39049,0.788539,0.47510399999999997,-0.940924,-0.690177,-0.72792,0.34067,0.310521,-0.457007
504,-2.466255,-0.8872389999999999,-2.856271,-0.39482399999999995,0.775331,0.49292600000000003,-0.757997,-0.442101,-0.587023,0.48453,0.385787,-0.533927
505,-2.46981,-0.8711180000000001,-2.858566,-0.400796,0.765049,0.504045,-0.6382329999999999,0.08175299999999999,-0.35932600000000003,0.580789,0.5262100000000001,-0.39853099999999997
506,-2.465782,-0.859667,-2.86013,-0.408277,0.757625,0.509229,-0.363248,0.32553699999999997,-0.29041999999999996,0.507779,0.641544,-0.22457600000000003
507,-2.4619619999999998,-0.855192,-2.8606759999999998,-0.412346,0.7546970000000001,0.510297,-0.105297,0.055153999999999995,-0.03083,0.463081,0.600039,-0.316175
508,-2.467706,-0.8549370000000001,-2.8641669999999997,-0.409528,0.754529,0.512808,-0.047466,-0.19184600000000002,0.149351,0.46301000000000003,0.5047020000000001,-0.614218
509,-2.471304,-0.8604280000000001,-2.867276,-0.4051,0.7581220000000001,0.511023,0.304906,0.021519,0.298954,0.43511400000000006,0.495479,-0.734794
510,-2.464425,-0.8759450000000001,-2.862874,-0.401186,0.768149,0.49899499999999997,0.992655,0.280738,0.41238400000000003,0.382342,0.530343,-0.575076
511,-2.444057,-0.908382,-2.8454650000000004,-0.395048,0.788509,0.47136999999999996,1.923516,0.306847,0.801277,0.048567,0.782276,-0.258648
512,-2.421856,-0.9568129999999999,-2.828543,-0.379776,0.8173600000000001,0.43323599999999995,2.308723,0.671718,1.3952950000000002,-0.08753999999999999,0.503884,-0.43082600000000004
513,-2.3752419999999996,-1.018666,-2.803157,-0.363748,0.851409,0.37787600000000005,2.9715599999999998,1.439754,1.626472,-0.22605,0.295716,-0.45964799999999995
514,-2.330606,-1.077761,-2.774265,-0.34312800000000004,0.8809,0.32600300000000004,2.3182720000000003,0.784105,1.520199,-0.43068999999999996,0.41522700000000007,-0.07524
515,-2.279332,-1.126336,-2.739461,-0.326484,0.9028430000000001,0.279792,2.141673,1.218792,1.1274389999999999,-0.542978,0.673207,0.036935
516,-2.2040830000000002,-1.166036,-2.696841,-0.317436,0.9191969999999999,0.23304899999999998,1.770113,2.156152,0.9377719999999999,-0.564064,0.5681229999999999,-0.034638999999999996
517,-2.1304540000000003,-1.197743,-2.661118,-0.308857,0.931219,0.193491,1.341499,1.772959,0.966248,-0.44193599999999994,0.370203,0.029927999999999996
518,-2.06907,-1.2303549999999999,-2.6173610000000003,-0.293304,0.942607,0.159576,1.634142,0.5060399999999999,1.055373,-0.279618,0.22676500000000002,-0.00772
519,-1.9838669999999998,-1.270626,-2.531045,-0.270814,0.9552860000000001,0.11869400000000001,2.368607,0.128619,1.295996,0.11351099999999999,0.207083,-0.32706799999999997
520,-1.8620279999999998,-1.312274,-2.413677,-0.244887,0.9667690000000001,0.073406,2.076936,0.635146,1.418292,0.12016099999999999,0.030851,-0.23035799999999998
521,-1.725316,-1.3501889999999999,-2.286249,-0.21621500000000002,0.975765,0.033678,1.8152119999999998,0.491568,1.586495,0.007948,-0.102108,-0.09424
522,-1.549226,-1.386961,-2.110434,-0.182759,0.98315,-0.003943,1.914798,0.046254,1.7736319999999999,-0.06155,-0.395473,0.03092
523,-1.314458,-1.4189209999999999,-1.8599119999999998,-0.146349,0.988489,-0.038359,1.8005849999999999,-1.010675,1.916262,-0.103361,-0.5815520000000001,0.239744
524,-1.001775,-1.439757,-1.513388,-0.110076,0.9914270000000001,-0.070403,1.8764450000000001,-1.7489700000000001,1.8653950000000001,-0.09748899999999999,-0.62665,0.293731
525,-0.62788,-1.4355149999999999,-1.099025,-0.07922699999999999,0.9908629999999999,-0.10914700000000001,2.302622,-1.8815790000000001,1.6249870000000002,-0.11138599999999999,-0.622013,0.241639
526,-0.338604,-1.404799,-0.767478,-0.054886000000000004,0.9862540000000001,-0.155854,2.507164,-1.9388990000000002,1.3968209999999999,-0.180862,-0.587222,0.058502
527,-0.193131,-1.367258,-0.577926,-0.038796,0.9793569999999999,-0.198378,2.021361,-2.097862,1.078506,-0.245536,-0.586001,0.029723000000000003
528,-0.137329,-1.340514,-0.480573,-0.031247000000000004,0.9736020000000001,-0.226104,1.148808,-1.817031,0.604171,-0.313357,-0.7670130000000001,0.030181
529,-0.151887,-1.330233,-0.46381999999999995,-0.036048000000000004,0.9712040000000001,-0.23550700000000002,0.18756099999999998,-1.398306,-0.177541,-0.157052,-0.818982,-0.066419
530,-0.23158299999999998,-1.334669,-0.519943,-0.053693,0.972251,-0.227694,-0.6643899999999999,-1.212742,-0.821459,-0.0143,-0.777305,-0.15050999999999998
531,-0.376408,-1.351585,-0.641814,-0.079934,0.9760690000000001,-0.202235,-1.546149,-1.412894,-1.152101,0.2053,-0.54864,-0.379765
532,-0.59829,-1.376198,-0.836443,-0.10891300000000001,0.981125,-0.15978399999999998,-2.218976,-1.590481,-1.180074,0.6064109999999999,0.041687,-1.126028
533,-0.8178989999999999,-1.385815,-1.038384,-0.134214,0.9829399999999999,-0.12576199999999998,-0.9427469999999999,-0.540505,-1.124435,0.715757,0.386262,-1.528749
534,-0.9189790000000001,-1.3684,-1.135276,-0.159805,0.9795879999999999,-0.12194300000000001,0.268063,-0.48656099999999997,-1.278416,0.255752,1.031795,-1.250081
535,-0.9071319999999999,-1.351543,-1.1001049999999999,-0.171334,0.97606,-0.133982,1.032047,-1.555303,0.255847,0.001016,1.270415,-0.8304040000000001
536,-0.807419,-1.351378,-0.9509219999999999,-0.15726199999999999,0.976024,-0.15048399999999998,1.30712,-2.596286,1.399964,0.339681,0.542088,-0.65637
537,-0.660575,-1.3530739999999999,-0.753055,-0.132535,0.976392,-0.170567,1.392687,-2.0469,1.665845,0.63226,-0.248716,-0.6343949999999999
538,-0.5303140000000001,-1.352792,-0.595526,-0.10939600000000001,0.976331,-0.186575,0.362709,-0.553977,1.109808,-0.546686,0.370211,-0.615
539,-0.5822970000000001,-1.361831,-0.648738,-0.11408499999999999,0.978246,-0.173261,-1.048168,0.682833,-1.133148,-0.9587,0.9021100000000001,-0.236346
540,-0.6700050000000001,-1.365509,-0.775594,-0.126588,0.979002,-0.159781,-0.714989,2.22008,-0.371148,-1.378417,0.340776,0.291647
541,-0.621151,-1.374556,-0.75784,-0.113475,0.980807,-0.15856199999999998,-0.065776,1.108422,0.540663,-0.671651,-0.29585500000000003,-0.208411
542,-0.606658,-1.3837059999999999,-0.760737,-0.106044,0.98255,-0.15281,-0.8462860000000001,0.901349,-0.011453,-0.505071,-0.435141,-0.240485
543,-0.794298,-1.411698,-0.9797629999999999,-0.11301800000000001,0.9873709999999999,-0.111024,-3.166371,1.8437430000000001,-0.835374,-0.261631,-0.66985,0.182649
544,-1.373415,-1.4361270000000002,-1.617206,-0.131656,0.9909459999999999,-0.026329,-5.271668,2.894028,-1.387673,-0.084668,-0.671335,0.601952
545,-1.9589720000000002,-1.388227,-2.278555,-0.168049,0.9833799999999999,0.068719,-5.0810319999999995,3.7507629999999996,-1.8820259999999998,-0.19431700000000002,-0.44976499999999997,0.5625979999999999
546,-2.160174,-1.312565,-2.563966,-0.21228699999999998,0.966843,0.14194600000000002,-4.1129370000000005,3.4583470000000003,-1.7894310000000002,0.045218,0.050476,-0.300989
547,-2.203024,-1.252565,-2.6767540000000003,-0.25240999999999997,0.9497899999999999,0.184899,-2.392476,3.216663,-1.450228,0.13359000000000001,0.133736,-0.33371799999999996
548,-2.21083,-1.202533,-2.72896,-0.288744,0.9329540000000001,0.214998,-2.158277,1.118657,-1.533498,0.132921,0.111739,-0.19802999999999998
549,-2.235076,-1.162582,-2.760852,-0.31255900000000003,0.917831,0.244729,-1.345072,-0.16053199999999998,-0.958953,0.25207399999999996,0.029022000000000003,0.338172
550,-2.259522,-1.1413799999999998,-2.771261,-0.321438,0.909209,0.264606,-0.665985,-1.16652,-0.657022,0.410534,0.042664999999999995,0.23431
551,-2.297615,-1.1209200000000001,-2.7813849999999998,-0.324963,0.900501,0.288959,-0.965925,-1.395784,-0.605396,0.129925,-0.162967,-0.248691
552,-2.338736,-1.097313,-2.80399,-0.328013,0.889985,0.316755,-1.234972,-0.9092979999999999,-0.552351,-0.010381,-0.202104,-0.311689
553,-2.368936,-1.070714,-2.8226259999999996,-0.33470900000000003,0.8775430000000001,0.34334899999999996,-1.223443,-0.615843,-0.688311,-0.028511,-0.140681,-0.318263
554,-2.3893299999999997,-1.042225,-2.83376,-0.344585,0.8635280000000001,0.368212,-1.234057,-0.505521,-0.828463,0.01678,-0.054599,-0.4052
555,-2.4019169999999996,-1.012994,-2.838726,-0.35678899999999997,0.8484200000000001,0.391004,-1.062247,-0.352344,-0.9214629999999999,0.11603599999999999,0.057311,-0.39465100000000003
556,-2.40334,-0.9867799999999999,-2.836693,-0.371076,0.834255,0.407825,-0.89976,-0.045042,-0.92179,0.153501,0.102329,-0.384723
557,-2.400544,-0.959433,-2.8368849999999997,-0.387475,0.818867,0.42346300000000003,-1.122526,0.239102,-0.92371,0.18340399999999998,0.129849,-0.320222
558,-2.401192,-0.928917,-2.8431889999999997,-0.403875,0.800972,0.441961,-1.2787,0.205328,-0.867074,0.26213600000000004,0.208473,-0.226034
559,-2.406926,-0.901525,-2.8483330000000002,-0.415889,0.784274,0.46038100000000004,-0.9912700000000001,-0.310601,-0.7661279999999999,0.384166,0.332853,-0.302087
560,-2.417109,-0.8801620000000001,-2.849,-0.42218900000000004,0.770842,0.47703199999999996,-0.7244659999999999,-0.44821400000000006,-0.682904,0.60444,0.46762200000000004,-0.497296
561,-2.41696,-0.863074,-2.847188,-0.430929,0.759845,0.48676099999999994,-0.519763,0.182029,-0.494274,0.554006,0.680204,-0.400778
562,-2.409597,-0.854029,-2.8489259999999996,-0.43907700000000005,0.753933,0.48866800000000005,-0.281987,0.49831899999999996,-0.14371,0.500722,0.64603,-0.20764699999999997
563,-2.408258,-0.8514940000000001,-2.8532990000000003,-0.44100900000000004,0.752265,0.48949799999999993,-0.154979,0.047320999999999995,0.108787,0.503142,0.492425,-0.462917
564,-2.4132,-0.85388,-2.8588560000000003,-0.437388,0.753836,0.49033000000000004,0.082006,-0.005261,0.26540199999999997,0.463862,0.46616499999999994,-0.761509
565,-2.408727,-0.864074,-2.857081,-0.434413,0.760494,0.48263199999999995,0.670878,0.265218,0.31296599999999997,0.41169300000000003,0.515446,-0.614132
566,-2.392625,-0.886984,-2.8416959999999998,-0.43015,0.77517,0.46269099999999996,1.490665,0.09638300000000001,0.531485,0.229802,0.739631,-0.23963800000000002
567,-2.377977,-0.9286190000000001,-2.8203270000000003,-0.41418999999999995,0.800794,0.43263900000000005,2.210956,-0.155953,1.2044780000000002,0.024862000000000002,0.722018,-0.21336999999999998
568,-2.350994,-0.9843350000000001,-2.796018,-0.393355,0.8329040000000001,0.389285,2.704493,0.800768,1.549599,-0.043092,0.46278100000000005,-0.52936
569,-2.2810669999999997,-1.053309,-2.747194,-0.375073,0.869065,0.322562,3.5043919999999997,1.561347,1.662102,-0.092197,0.44396899999999995,-0.804465
570,-2.199618,-1.110464,-2.686705,-0.359271,0.895905,0.261302,2.4911,1.406893,1.206569,-0.405179,0.681289,0.102468
571,-2.106433,-1.155532,-2.627191,-0.346928,0.91501,0.205907,2.255999,2.47419,1.171512,-0.5843,0.630156,0.119441
572,-1.9920099999999998,-1.1933850000000001,-2.563686,-0.336305,0.929622,0.150674,1.6509939999999999,2.646933,1.1211309999999999,-0.629012,0.45470200000000005,0.123419
573,-1.930534,-1.220615,-2.526049,-0.321108,0.9393100000000001,0.12077,1.018282,0.293581,0.9103559999999999,-0.414808,0.041509,0.31564699999999996
574,-1.854281,-1.254389,-2.440289,-0.298735,0.95036,0.087031,2.51745,-0.163008,1.371134,0.33441,0.198246,-0.364329
575,-1.6979830000000002,-1.296513,-2.277411,-0.268669,0.96262,0.034356,2.615443,0.029611000000000002,1.6012389999999999,0.335854,0.218167,-0.295221
576,-1.534208,-1.331186,-2.101049,-0.23716500000000001,0.9714309999999999,-0.008681,2.222995,-0.590298,1.65484,0.16792100000000001,-0.065928,-0.018418
577,-1.337721,-1.35948,-1.885989,-0.204075,0.977756,-0.048445,2.136955,-0.626688,1.7717900000000002,0.015034,-0.334598,-0.00081
578,-1.110616,-1.381931,-1.634435,-0.168214,0.982218,-0.083379,1.8738150000000002,-1.277514,1.9854990000000001,-0.08453300000000001,-0.38495799999999997,0.191564
579,-0.855557,-1.396249,-1.340611,-0.131104,0.9848049999999999,-0.11388699999999999,1.795909,-1.911418,2.0690880000000003,-0.104156,-0.470462,0.240657
580,-0.582649,-1.3938190000000001,-1.0218969999999998,-0.096872,0.9843799999999999,-0.147007,2.017557,-2.093855,1.945888,-0.12730999999999998,-0.563177,0.25966300000000003
581,-0.357756,-1.371661,-0.750729,-0.069272,0.9802379999999999,-0.185297,2.123558,-2.0897509999999997,1.627225,-0.19572699999999998,-0.576246,0.19150699999999998
582,-0.21912199999999998,-1.343208,-0.565118,-0.049045,0.9742129999999999,-0.22023299999999998,1.7539069999999999,-2.171786,1.417513,-0.31193200000000004,-0.565263,0.134036
583,-0.146571,-1.319616,-0.449456,-0.036299,0.96862,-0.24588200000000002,1.153822,-1.8289360000000001,0.915091,-0.312257,-0.633369,0.12246900000000001
584,-0.136183,-1.306812,-0.406235,-0.035424000000000004,0.9653579999999999,-0.258513,0.454759,-1.4272770000000001,0.17796099999999998,-0.303489,-0.667674,0.09738
585,-0.17819200000000002,-1.305552,-0.424241,-0.046465,0.9650290000000001,-0.257994,-0.231373,-1.135786,-0.459592,-0.17663299999999998,-0.699083,-0.031389
586,-0.267936,-1.316352,-0.493514,-0.066637,0.9678030000000001,-0.242727,-1.051069,-1.169522,-0.902178,0.10837000000000001,-0.481124,-0.316264
587,-0.41753900000000005,-1.339956,-0.6216010000000001,-0.092779,0.973474,-0.20914000000000002,-1.951443,-1.349877,-1.1058569999999999,0.209814,-0.37616900000000003,-0.481442
588,-0.6341180000000001,-1.366668,-0.812921,-0.120101,0.9792379999999999,-0.163305,-2.133586,-1.530304,-1.115444,0.323547,-0.084524,-0.8823489999999999
589,-0.835316,-1.369692,-0.9885379999999999,-0.148117,0.9798469999999999,-0.134022,-0.735539,-1.4107530000000001,-1.321612,0.428345,0.716809,-1.2103540000000002
590,-0.930316,-1.35093,-1.059928,-0.174874,0.975927,-0.130332,0.460819,-1.15664,-0.9055200000000001,0.363427,0.989009,-0.9990629999999999
591,-0.8726809999999999,-1.3398430000000001,-0.975685,-0.175354,0.973449,-0.147135,1.321304,-1.464766,0.808972,0.467972,0.9995430000000001,-0.597769
592,-0.750693,-1.346616,-0.8108569999999999,-0.151646,0.9749770000000001,-0.162555,0.9654940000000001,-1.9981,1.8230490000000001,0.617787,0.506942,-0.5078699999999999
593,-0.606958,-1.3562450000000001,-0.626482,-0.12143699999999999,0.9770719999999999,-0.17488099999999998,0.8391290000000001,-1.669389,1.781153,0.705101,-0.37302199999999996,-0.48231499999999994
594,-0.506104,-1.368265,-0.506117,-0.097512,0.979561,-0.175933,-0.517364,-0.22853400000000001,0.9430270000000001,-0.37251999999999996,0.0021899999999999997,-0.326691
595,-0.5999899999999999,-1.383443,-0.6038600000000001,-0.105169,0.9825010000000001,-0.153728,-1.26803,0.456429,-1.330929,-1.08935,0.869764,0.026102999999999998
596,-0.765444,-1.382815,-0.796902,-0.12947899999999998,0.982383,-0.134752,-1.021696,1.362409,-0.869966,-1.4415360000000002,0.776482,0.288667
597,-0.732621,-1.388371,-0.7841279999999999,-0.121334,0.9834069999999999,-0.13486800000000002,0.331394,0.9821719999999999,0.6023689999999999,-0.77895,-0.009101999999999999,-0.17635
598,-0.706155,-1.3948530000000001,-0.768397,-0.11358399999999999,0.984562,-0.133179,-0.734751,0.438108,0.122397,-0.354648,-0.508396,-0.055053
599,-0.923989,-1.422387,-1.008271,-0.117998,0.989008,-0.08910900000000001,-3.266784,1.262838,-0.66333,-0.25771900000000003,-0.691599,0.166716
600,-1.500709,-1.431898,-1.6315600000000001,-0.138113,0.990369,-0.009696,-4.700011,2.6203220000000003,-1.3651520000000001,-0.157129,-0.66409,0.581428
601,-1.981723,-1.376745,-2.180792,-0.176782,0.981231,0.07703,-4.79122,3.234855,-2.051293,-0.316473,-0.39066999999999996,0.34273899999999996
602,-2.154546,-1.299485,-2.418187,-0.223615,0.96342,0.147707,-3.7819550000000004,2.571723,-1.9942549999999999,-0.24898,-0.320384,-0.051637999999999996
603,-2.191313,-1.2396340000000001,-2.503545,-0.264529,0.945665,0.189056,-2.205318,1.9765650000000001,-1.57976,0.169512,0.027479000000000003,-0.309585
604,-2.208114,-1.191339,-2.549296,-0.297702,0.928866,0.220413,-2.088518,0.623537,-1.382794,0.08942,0.014616,0.07756
605,-2.251574,-1.153622,-2.583211,-0.31485799999999997,0.9142379999999999,0.25501799999999997,-1.285297,-1.270063,-0.863079,0.192177,-0.036873,0.444017
606,-2.299213,-1.134319,-2.593864,-0.31546799999999997,0.9062459999999999,0.28142,-0.654989,-2.196039,-0.547705,0.410592,-0.096401,-0.10667599999999999
607,-2.354952,-1.114167,-2.606332,-0.312168,0.897544,0.311393,-1.048846,-1.945601,-0.497366,0.122044,0.001489,-0.430046
608,-2.3986389999999997,-1.09172,-2.626691,-0.311824,0.8874209999999999,0.339485,-1.129092,-0.993182,-0.44359899999999997,-0.02242,-0.003815,-0.477516
609,-2.428114,-1.069324,-2.640885,-0.314614,0.876876,0.363465,-1.015988,-0.8483129999999999,-0.539135,-0.043769,0.014024000000000002,-0.545838
610,-2.448635,-1.046715,-2.648637,-0.319675,0.865784,0.385002,-0.9917530000000001,-0.509365,-0.607766,0.099506,0.021957,-0.595054
611,-2.455329,-1.022355,-2.655508,-0.330359,0.8533379999999999,0.403333,-1.098044,0.27087,-0.628736,0.204001,0.079966,-0.415921
612,-2.451746,-0.9969879999999999,-2.664974,-0.34547,0.8398399999999999,0.418712,-1.1508530000000001,0.638529,-0.617826,0.201809,0.063328,-0.221111
613,-2.451004,-0.971007,-2.672669,-0.359562,0.8254540000000001,0.435133,-1.129271,0.137036,-0.699286,0.146732,0.057404,-0.265775
614,-2.457146,-0.945183,-2.677402,-0.370238,0.810604,0.4537,-1.041131,-0.19880599999999998,-0.705717,0.126876,0.141758,-0.397334
615,-2.4635849999999997,-0.923133,-2.680054,-0.378431,0.797496,0.469884,-0.822033,-0.222455,-0.57597,0.190992,0.277318,-0.42282600000000004
616,-2.471237,-0.9057700000000001,-2.6836919999999997,-0.38337,0.7869,0.483544,-0.722683,-0.233185,-0.376573,0.289117,0.401118,-0.389977
617,-2.478856,-0.892228,-2.689657,-0.386196,0.778472,0.494807,-0.590176,-0.052024,-0.24128400000000003,0.417171,0.480759,-0.32693
618,-2.476362,-0.882439,-2.691761,-0.39211399999999996,0.772291,0.49981400000000004,-0.31355,0.290941,-0.201335,0.46856000000000003,0.5587949999999999,-0.293057
619,-2.476832,-0.8793049999999999,-2.694851,-0.39337,0.770296,0.5019,-0.12209400000000001,-0.021962,0.093096,0.504973,0.604124,-0.5260090000000001
620,-2.4801189999999997,-0.8843260000000001,-2.699624,-0.389337,0.7734880000000001,0.5001329999999999,0.29541100000000003,0.116002,0.39387,0.49943000000000004,0.6431680000000001,-0.652507
621,-2.4786799999999998,-0.9043709999999999,-2.701395,-0.38043699999999997,0.786037,0.48725100000000005,1.0644280000000002,0.041214,0.846922,0.290456,0.77065,-0.34536
622,-2.481304,-0.9448719999999999,-2.699233,-0.35932600000000003,0.810422,0.46271,1.9619240000000002,-0.328357,1.380298,-0.009464,0.752337,-0.166293
623,-2.481709,-0.997533,-2.695639,-0.33249,0.8401360000000001,0.428512,2.171695,0.039672000000000006,1.603482,-0.142149,0.710203,-0.406493
624,-2.457345,-1.062502,-2.6838290000000002,-0.307631,0.873576,0.377132,3.275748,1.1938600000000001,1.854338,-0.191683,0.48137399999999997,-0.793773
625,-2.37865,-1.139362,-2.633282,-0.28898,0.908367,0.30225799999999997,3.4669019999999997,1.8369520000000001,1.506609,-0.7238680000000001,0.734394,-0.23309000000000002
626,-2.288376,-1.194107,-2.5809740000000003,-0.277133,0.9298879999999999,0.24188,2.2466909999999998,2.294187,1.174896,-0.806714,0.668623,0.062807
627,-2.184145,-1.236472,-2.533331,-0.268321,0.9446319999999999,0.188875,1.798255,3.3452879999999996,1.112733,-0.756933,0.48893100000000006,0.131895
628,-2.091997,-1.2694450000000002,-2.4915849999999997,-0.2574,0.954936,0.147788,1.3013290000000002,1.8009419999999998,0.9349850000000001,-0.49713100000000005,-0.065761,0.20549800000000001
629,-1.9925400000000002,-1.302063,-2.393354,-0.242245,0.964108,0.10868699999999999,2.601175,-0.298799,0.8944120000000001,-0.43495500000000004,-0.144772,0.094712
630,-1.771586,-1.343857,-2.1571290000000003,-0.22047600000000003,0.97436,0.044874000000000004,3.5597830000000004,-0.37994,1.173608,0.032716,-0.057963,-0.17787
631,-1.5013530000000002,-1.374212,-1.875211,-0.19485,0.9807389999999999,-0.013553,2.6985349999999997,0.014212,1.387141,0.253932,-0.099926,-0.162427
632,-1.228565,-1.39414,-1.6071469999999999,-0.165547,0.9844370000000001,-0.058976,1.988347,0.48055,1.5332700000000001,0.18342999999999998,-0.201264,-0.063125
633,-0.9498260000000001,-1.406424,-1.3261020000000001,-0.13308499999999998,0.9865209999999999,-0.095206,1.803395,-0.164972,1.684493,0.042524,-0.42934700000000003,0.129355
634,-0.645837,-1.403283,-1.001768,-0.10035,0.986002,-0.13315,2.163037,-1.214919,1.801582,-0.058861000000000004,-0.582194,0.261751
635,-0.381075,-1.380115,-0.700996,-0.070489,0.981875,-0.175932,2.347214,-1.649752,1.692331,-0.061774,-0.592593,0.309096
636,-0.21592199999999998,-1.3466360000000002,-0.49821000000000004,-0.047625,0.974981,-0.217126,2.06877,-1.6870779999999999,1.411628,-0.112043,-0.617132,0.24064000000000002
637,-0.11863299999999999,-1.314857,-0.362102,-0.029962,0.967426,-0.251375,1.7125139999999999,-1.813084,1.264023,-0.268424,-0.599186,0.179903
638,-0.072586,-1.287323,-0.276876,-0.020284,0.96009,-0.278956,1.259634,-1.675432,0.800279,-0.315776,-0.60752,0.159296
639,-0.070982,-1.2750629999999998,-0.248939,-0.020669999999999997,0.9565889999999999,-0.29070799999999997,0.274458,-1.0704049999999998,0.069436,-0.350302,-0.742035,0.120801
640,-0.11615199999999999,-1.2792,-0.274998,-0.033317,0.957786,-0.285545,-0.558783,-1.005241,-0.584878,-0.111489,-0.833,-0.092507
641,-0.20951399999999998,-1.301093,-0.351987,-0.055416,0.96385,-0.260619,-1.7110290000000001,-0.952656,-1.013874,0.029827,-0.740553,-0.19087300000000001
642,-0.369692,-1.340143,-0.494783,-0.082605,0.973517,-0.213168,-2.707857,-1.19248,-1.180762,0.261255,-0.474112,-0.451092
643,-0.591796,-1.37576,-0.699317,-0.10811300000000001,0.9810409999999999,-0.16084400000000001,-2.044808,-0.88133,-0.978909,0.575993,0.35125,-1.449813
644,-0.728709,-1.375381,-0.828047,-0.129302,0.980967,-0.144861,-0.262135,-0.6151479999999999,-1.158009,0.521438,0.77477,-1.609488
645,-0.802545,-1.359466,-0.8812760000000001,-0.150844,0.9777530000000001,-0.145758,0.549653,-1.381337,-0.46662700000000007,-0.153309,1.133133,-0.49958199999999997
646,-0.721356,-1.350917,-0.761495,-0.144042,0.975924,-0.16378199999999998,1.4940930000000001,-2.1069150000000003,1.1410959999999999,-0.09102,0.962599,-0.47006800000000004
647,-0.592439,-1.346247,-0.577839,-0.12433399999999999,0.9748950000000001,-0.184721,1.272594,-2.5689990000000003,1.53752,0.24863200000000002,0.232823,-0.706866
648,-0.47457,-1.339101,-0.417137,-0.10493,0.9732780000000001,-0.204252,1.259543,-1.295672,1.202512,0.200389,-0.261853,-0.806597
649,-0.423521,-1.337593,-0.365398,-0.094974,0.972931,-0.210677,-0.335566,0.46006899999999995,-0.11838399999999999,-0.759793,0.99382,-0.896012
650,-0.502671,-1.3367870000000002,-0.46456499999999995,-0.11171199999999999,0.9727450000000001,-0.20319600000000002,-0.618243,0.953807,-1.066367,-1.094999,1.61185,-0.27824899999999997
651,-0.495096,-1.350998,-0.480754,-0.103591,0.975941,-0.191852,-0.6911149999999999,1.3903459999999999,0.649207,-0.7106180000000001,-0.356252,0.656528
652,-0.46977700000000006,-1.3738299999999999,-0.47884399999999994,-0.088589,0.980665,-0.174496,-1.171251,1.188269,0.451696,-0.575855,-0.77078,-0.163242
653,-0.509885,-1.40196,-0.558496,-0.082014,0.9857809999999999,-0.14666099999999999,-1.972791,2.457698,-0.355628,-0.5114609999999999,-0.703692,-0.296133
654,-0.8345540000000001,-1.4432989999999999,-0.949952,-0.09421900000000001,0.991883,-0.085384,-4.367496,3.460774,-1.371359,-0.22682600000000003,-0.680619,0.60847
655,-1.679668,-1.440338,-1.875614,-0.12931800000000002,0.991502,0.014135,-5.668686,3.823846,-2.060302,-0.39112800000000003,-0.44851800000000003,0.677164
656,-2.093946,-1.366031,-2.374075,-0.17614100000000002,0.979109,0.101589,-4.531989,3.861689,-2.119709,-0.40557,-0.380369,0.374836
657,-2.183954,-1.297643,-2.5294779999999997,-0.220627,0.962925,0.15524000000000002,-2.54805,2.7027810000000003,-1.736898,0.084992,-0.17483900000000002,-0.150098
658,-2.164947,-1.249503,-2.556917,-0.26167399999999996,0.9488280000000001,0.176783,-1.5272270000000001,1.8463470000000002,-1.834424,0.353898,0.14490699999999998,-0.333017
659,-2.171412,-1.199953,-2.580753,-0.298977,0.9320219999999999,0.20481100000000002,-1.7231759999999998,0.381804,-1.71748,0.30601100000000003,0.07130399999999999,0.009071
660,-2.190907,-1.163238,-2.6048310000000003,-0.322571,0.918091,0.23034000000000002,-1.2705540000000002,0.02239,-0.941533,0.362793,0.130355,-0.014062
661,-2.225685,-1.137451,-2.634481,-0.333036,0.907566,0.255755,-1.261052,-0.595861,-0.586025,0.318922,-0.019916999999999997,-0.143206
662,-2.269382,-1.1134709999999999,-2.664666,-0.338118,0.8972370000000001,0.283976,-1.248105,-0.953117,-0.500019,0.14543,-0.10748800000000001,-0.12642899999999999
663,-2.313965,-1.088524,-2.6941509999999997,-0.341504,0.885943,0.313814,-1.347093,-0.9483219999999999,-0.547718,0.040570999999999996,-0.130359,-0.039522
664,-2.352046,-1.061675,-2.712853,-0.346078,0.873173,0.34321799999999997,-1.1691,-1.161298,-0.72139,0.0016719999999999999,-0.09688200000000001,-0.233843
665,-2.3829540000000002,-1.035536,-2.719391,-0.350891,0.860136,0.370191,-0.993158,-1.313718,-0.852425,0.156097,0.0064719999999999995,-0.5226270000000001
666,-2.4066389999999998,-1.010158,-2.718626,-0.356551,0.846916,0.394468,-0.857425,-1.0371629999999998,-0.865719,0.323714,0.148827,-0.741376
667,-2.413195,-0.9866030000000001,-2.716351,-0.367137,0.8341569999999999,0.41157200000000005,-0.8724729999999999,-0.057277999999999996,-0.8104640000000001,0.301921,0.134196,-0.59306
668,-2.407193,-0.9611790000000001,-2.7212549999999998,-0.38369200000000003,0.819867,0.424969,-1.162773,0.734817,-0.707752,0.255137,0.09623999999999999,-0.343273
669,-2.405336,-0.9332860000000001,-2.730371,-0.399685,0.8035800000000001,0.441033,-1.149061,0.154477,-0.7784840000000001,0.140561,0.087167,-0.068368
670,-2.414113,-0.9086489999999999,-2.7320029999999997,-0.40884299999999996,0.788674,0.45917399999999997,-0.8241780000000001,-0.668003,-0.7719560000000001,0.140014,0.230064,-0.349738
671,-2.427818,-0.889235,-2.7290799999999997,-0.41246000000000005,0.77659,0.47621899999999995,-0.603047,-0.72358,-0.651767,0.19429000000000002,0.327704,-0.535515
672,-2.433146,-0.87561,-2.727953,-0.416763,0.767934,0.4864,-0.42519300000000004,-0.018068999999999998,-0.348054,0.451248,0.532679,-0.558986
673,-2.425163,-0.8680680000000001,-2.7270939999999997,-0.424425,0.763081,0.487412,-0.155388,0.49950200000000006,-0.277398,0.657991,0.5098520000000001,-0.230836
674,-2.417807,-0.8664129999999999,-2.722925,-0.428834,0.762011,0.48522200000000004,0.08763,-0.023236,-0.033613,0.646256,0.497892,-0.182152
675,-2.420475,-0.871499,-2.724063,-0.42497399999999996,0.765295,0.48344799999999993,0.30376,0.012856999999999999,0.34279699999999996,0.637757,0.601359,-0.742008
676,-2.4133139999999997,-0.893116,-2.721454,-0.41731499999999994,0.779029,0.467934,1.226618,0.297293,0.8723069999999999,0.271212,0.757775,-0.216286
677,-2.4082380000000003,-0.9337030000000001,-2.7160349999999998,-0.39818000000000003,0.803828,0.441942,1.7750240000000002,-0.121127,1.4033069999999999,0.112642,0.740544,-0.066881
678,-2.398498,-0.9861469999999999,-2.707001,-0.373404,0.8339059999999999,0.406412,2.401543,0.42641599999999996,1.6612189999999998,-0.139246,0.525713,-0.5284369999999999
679,-2.355356,-1.05494,-2.67726,-0.349094,0.869871,0.348509,3.239578,0.97559,1.860785,-0.374585,0.5418569999999999,-0.6929
680,-2.299477,-1.119982,-2.63742,-0.32505500000000004,0.900093,0.290126,2.665481,1.1884059999999999,1.619357,-0.562076,0.604653,-0.313014
681,-2.23031,-1.171611,-2.600839,-0.307161,0.921378,0.23815,2.006363,2.2513490000000003,1.442475,-0.747542,0.8245629999999999,0.189325
682,-2.1404520000000002,-1.2130940000000001,-2.566842,-0.29483400000000004,0.9367040000000001,0.188836,1.471041,3.080584,1.261417,-0.8116869999999999,0.553866,0.0035159999999999996
683,-2.067266,-1.2473370000000001,-2.541861,-0.279474,0.948142,0.151399,1.242602,1.8457419999999998,1.240039,-0.827047,0.542428,0.040952999999999996
684,-1.9899930000000001,-1.284141,-2.4754389999999997,-0.258265,0.959195,0.11508499999999999,2.003112,0.131241,1.231525,-0.408148,-0.055813999999999996,-0.229175
685,-1.867805,-1.321952,-2.3515200000000003,-0.23550100000000002,0.969198,0.072078,2.119704,0.35168499999999997,1.1476680000000001,0.18092,-0.073232,-0.301021
686,-1.7418900000000002,-1.354698,-2.231839,-0.21129,0.976741,0.036507,1.542894,0.4666,1.41482,0.16351500000000002,-0.034694,-0.073937
687,-1.6030229999999999,-1.3901780000000001,-2.101536,-0.179545,0.983733,0.005788000000000001,1.375202,0.54988,1.778874,0.195658,-0.132109,-0.004796
688,-1.439574,-1.429249,-1.9374310000000001,-0.13986300000000002,0.989999,-0.018459,1.204484,-0.324324,2.096063,0.033525,-0.285638,0.14670899999999998
689,-1.134514,-1.46333,-1.606193,-0.097212,0.994231,-0.045325,1.7130189999999998,-1.701888,2.2284990000000002,-0.091478,-0.49955600000000006,0.275702
690,-0.593251,-1.467385,-1.017628,-0.057710000000000004,0.994658,-0.085588,2.450059,-2.41208,2.0358680000000002,-0.11415,-0.643858,0.399385
691,-0.194734,-1.430884,-0.5658350000000001,-0.026985000000000002,0.9902280000000001,-0.13682,2.715786,-2.5021720000000003,1.6917360000000001,-0.14933,-0.733087,0.180018
692,-0.030166000000000002,-1.386584,-0.351218,-0.005525,0.983081,-0.183088,2.130361,-2.298501,1.349827,-0.213714,-0.7450289999999999,0.128202
693,0.033922,-1.3524479999999999,-0.24055300000000002,0.007347,0.9762559999999999,-0.216493,1.43204,-2.104874,0.953732,-0.292076,-0.7621760000000001,0.027162000000000002
694,0.037982999999999996,-1.334529,-0.201017,0.008889,0.972218,-0.233907,0.536615,-1.536115,0.157333,-0.281289,-0.807454,-0.014186
695,-0.017066,-1.333797,-0.22941399999999998,-0.004007,0.9720469999999999,-0.23475300000000002,-0.256983,-1.303408,-0.6048100000000001,-0.24964,-0.8407450000000001,-0.059588999999999996
696,-0.127669,-1.349753,-0.316419,-0.027915,0.975669,-0.21746300000000002,-1.327926,-1.263643,-1.095178,-0.067788,-0.79264,-0.174474
697,-0.326881,-1.386906,-0.492925,-0.058713,0.98314,-0.173174,-2.697015,-1.399291,-1.416488,0.23215999999999998,-0.49786400000000003,-0.530058
698,-0.696577,-1.427159,-0.8347030000000001,-0.09184099999999999,0.9897020000000001,-0.109797,-3.0472740000000003,-1.7186740000000003,-1.429207,0.32560500000000003,-0.296281,-0.819844
699,-1.0380340000000001,-1.4278819999999999,-1.159456,-0.122688,0.9898049999999999,-0.072341,-0.9432649999999999,-0.381188,-1.529456,0.58149,0.9200149999999999,-1.464372
700,-1.105323,-1.4037469999999999,-1.220241,-0.148584,0.98608,-0.07463099999999999,0.7457520000000001,-0.600823,-0.816623,0.30947199999999997,1.319767,-1.020889
701,-0.987979,-1.403186,-1.074742,-0.139286,0.985986,-0.091818,1.138225,-1.857054,1.3060200000000002,0.051777,1.6509459999999998,-0.497812
702,-0.768944,-1.4162489999999999,-0.803918,-0.10704100000000001,0.988081,-0.110623,1.299107,-2.556355,2.084637,0.45068500000000006,0.06833,-0.659503
703,-0.5201560000000001,-1.4162620000000001,-0.50508,-0.0765,0.988083,-0.13356300000000002,1.466224,-1.8417540000000001,1.457843,0.129326,-0.060791,-0.7959109999999999
704,-0.46742100000000003,-1.403438,-0.432672,-0.075058,0.986028,-0.14870999999999998,0.314393,-0.545552,-0.677625,-0.403992,0.52151,-0.884142
705,-0.541111,-1.3918190000000001,-0.512618,-0.091698,0.9840260000000001,-0.152591,0.122551,0.587055,-0.30013,-1.480018,1.2489299999999999,0.803393
706,-0.43555200000000005,-1.401127,-0.42035600000000006,-0.071242,0.985641,-0.153091,-0.579101,0.9532219999999999,1.177192,-0.594514,-0.623901,0.605514
707,-0.404362,-1.436002,-0.39505,-0.052872,0.9909290000000001,-0.123549,-1.645143,0.26506199999999996,0.767908,-0.47029099999999996,-1.018792,0.270049
708,-0.440938,-1.467207,-0.46475,-0.044131000000000004,0.9946389999999999,-0.093513,-1.8491810000000002,2.649147,-0.118924,-0.48368500000000003,-0.847087,-0.265236
709,-1.085658,-1.5043819999999999,-1.180793,-0.058708,0.9977950000000001,-0.030948000000000003,-4.3326519999999995,3.6935010000000004,-1.523093,-0.411141,-0.715447,0.46741099999999997
710,-2.29127,-1.3290030000000002,-2.464747,-0.17994100000000002,0.97091,0.157971,-5.498487,3.9097129999999995,-2.36499,-0.377981,-0.500527,0.522616
711,-2.334936,-1.2251610000000002,-2.590614,-0.24460199999999999,0.94086,0.23441700000000001,-4.407854,3.468083,-2.625998,-0.42625,-0.201511,0.147724
712,-2.315543,-1.146116,-2.632172,-0.30294899999999997,0.91117,0.27926799999999996,-2.571025,3.168879,-2.12247,-0.159591,-0.080009,-0.21110700000000002
713,-2.279145,-1.083623,-2.649575,-0.355515,0.88366,0.304556,-2.532197,1.599597,-2.123393,0.366517,0.224113,-0.363775
714,-2.287744,-1.026737,-2.676704,-0.390185,0.855615,0.340117,-2.065396,0.599892,-1.34439,0.323077,0.130683,0.067003
715,-2.2979830000000003,-0.992959,-2.699497,-0.408048,0.8376459999999999,0.363107,-1.32693,0.343283,-0.684083,0.49015600000000004,0.07005399999999999,0.137046
716,-2.312812,-0.9687520000000001,-2.713898,-0.41744499999999995,0.8241790000000001,0.382711,-1.0406549999999999,-0.46332700000000004,-0.616957,0.32155900000000004,-0.009436,0.008539
717,-2.339253,-0.947416,-2.725588,-0.419731,0.81191,0.40574499999999997,-0.944313,-0.9924879999999999,-0.5045109999999999,0.07621,-0.058751,-0.207075
718,-2.370618,-0.92785,-2.737654,-0.41779099999999997,0.800333,0.430021,-0.9604659999999999,-1.207841,-0.4488,-0.049814,-0.06664400000000001,-0.468229
719,-2.401098,-0.907071,-2.745073,-0.415624,0.7877029999999999,0.45473199999999997,-0.893544,-1.152209,-0.565908,0.12080899999999999,0.118822,-0.6072890000000001
720,-2.4216830000000003,-0.885603,-2.750315,-0.41723000000000005,0.774297,0.47579799999999994,-0.9067719999999999,-0.5725,-0.6041310000000001,0.335337,0.214641,-0.7119880000000001
721,-2.424802,-0.86354,-2.756061,-0.42686599999999997,0.760147,0.489859,-0.997303,0.453507,-0.562281,0.336793,0.170456,-0.416739
722,-2.415114,-0.839851,-2.765126,-0.44343,0.744544,0.49902299999999994,-1.135044,0.8886790000000001,-0.577688,0.288721,0.14164100000000002,-0.33111599999999997
723,-2.408226,-0.813821,-2.772894,-0.45967700000000006,0.726916,0.5101859999999999,-1.130023,0.42271000000000003,-0.7372890000000001,0.244772,0.128369,-0.27916799999999997
724,-2.40903,-0.7867069999999999,-2.775919,-0.472278,0.708032,0.525019,-1.036975,-0.13527899999999998,-0.8715879999999999,0.289126,0.31114899999999995,-0.401011
725,-2.417585,-0.7619640000000001,-2.774327,-0.479229,0.690344,0.5420020000000001,-0.765371,-0.672214,-0.831615,0.353466,0.383967,-0.4564
726,-2.4308560000000003,-0.7442,-2.77007,-0.479919,0.677384,0.55752,-0.464012,-0.809469,-0.601803,0.513641,0.514953,-0.57435
727,-2.438543,-0.733829,-2.767003,-0.48013599999999995,0.669718,0.566522,-0.24277100000000001,-0.225381,-0.34036,0.726733,0.6265470000000001,-0.312448
728,-2.435142,-0.727753,-2.7648029999999997,-0.484692,0.665194,0.567971,-0.148072,0.131512,-0.162831,0.696286,0.626859,-0.26043
729,-2.4393,-0.727386,-2.768065,-0.482484,0.66492,0.570168,-0.029556,-0.189975,0.21015,0.586427,0.601072,-0.540596
730,-2.442777,-0.7354569999999999,-2.77185,-0.47703100000000004,0.670926,0.567715,0.402647,0.069633,0.447845,0.474483,0.6142,-0.8800319999999999
731,-2.433116,-0.757338,-2.766423,-0.472826,0.6869890000000001,0.551798,1.362629,0.43310299999999996,0.628205,0.42724799999999996,0.6229779999999999,-0.722376
732,-2.41509,-0.7962,-2.751236,-0.46460100000000004,0.714703,0.522824,1.998039,0.286411,1.063325,0.120928,0.8599120000000001,-0.269619
733,-2.3886540000000003,-0.850942,-2.734585,-0.45080299999999995,0.7519020000000001,0.481062,2.732497,1.15841,1.60679,-0.08504,0.49307799999999996,-0.615095
734,-2.337931,-0.917457,-2.707927,-0.437587,0.794058,0.421888,2.832339,1.441906,1.753471,-0.18553699999999998,0.40328400000000003,-0.642545
735,-2.2933689999999998,-0.976685,-2.680757,-0.41989,0.8286459999999999,0.370187,2.516752,1.009349,1.5082659999999999,-0.367311,0.45741000000000004,-0.14110699999999998
736,-2.240365,-1.024469,-2.648368,-0.407376,0.8544379999999999,0.322459,1.953068,1.542107,1.168224,-0.485721,0.804528,-0.009242
737,-2.1771700000000003,-1.059955,-2.623152,-0.401748,0.872334,0.27862600000000004,1.333379,2.330181,0.9641959999999999,-0.546784,0.744442,-0.084489
738,-2.1174459999999997,-1.089051,-2.6105169999999998,-0.395806,0.8861879999999999,0.24085,1.026575,2.339194,1.10732,-0.535529,0.54942,-0.191854
739,-2.067009,-1.122698,-2.5866689999999997,-0.380998,0.901273,0.206271,1.499945,0.813358,1.319817,0.062486,0.30342399999999997,-0.013262000000000001
740,-2.011447,-1.170186,-2.536855,-0.352727,0.920823,0.166338,2.1883220000000003,0.409491,1.8197290000000002,0.306783,0.32759,-0.153307
741,-1.9394790000000002,-1.2211020000000001,-2.469839,-0.319589,0.939477,0.123473,2.066153,0.32667199999999996,1.8574380000000001,0.22296999999999997,0.032369999999999996,-0.196318
742,-1.862226,-1.2705030000000002,-2.3871290000000003,-0.283327,0.95525,0.08499,2.0473169999999996,-0.227512,1.933861,0.048281,-0.342869,-0.062956
743,-1.7688540000000001,-1.3174059999999999,-2.276291,-0.24578699999999998,0.968068,0.049326999999999996,1.991484,-1.060195,1.891809,-0.048357,-0.449193,0.046697
744,-1.6583430000000001,-1.359682,-2.127486,-0.208747,0.977798,0.018322,2.040858,-2.0124459999999997,1.822871,-0.031762,-0.66661,0.21945599999999998
745,-1.4761090000000001,-1.395117,-1.8946669999999999,-0.173995,0.984608,-0.016525,2.343293,-2.469059,1.729429,-0.036607,-0.688053,0.24494899999999997
746,-1.198425,-1.415721,-1.564935,-0.14387,0.988,-0.056195,2.3548080000000002,-2.268984,1.50279,0.012003,-0.6590050000000001,0.1862
747,-0.917832,-1.41741,-1.23904,-0.12135499999999999,0.988259,-0.092824,1.9669869999999998,-1.995768,1.180333,-0.164503,-0.719567,-0.021892
748,-0.7169770000000001,-1.409357,-0.997555,-0.10562300000000001,0.9869969999999999,-0.12116400000000001,1.4296280000000001,-1.759323,0.8590139999999999,-0.21230900000000003,-0.720746,-0.021521000000000002
749,-0.638462,-1.399689,-0.887893,-0.101476,0.985397,-0.136732,0.615642,-1.320924,0.091124,-0.23733,-0.7397,-0.032671
750,-0.689351,-1.393381,-0.9159200000000001,-0.112251,0.984303,-0.136187,-0.184568,-1.1000530000000002,-0.635798,-0.110832,-0.8345229999999999,-0.16992000000000002
751,-0.8372620000000001,-1.391809,-1.044042,-0.132246,0.984024,-0.11919300000000001,-1.137741,-1.0793629999999999,-0.9864290000000001,0.016508000000000002,-0.787995,-0.25295300000000004
752,-1.121063,-1.394015,-1.3085120000000001,-0.158375,0.9844149999999999,-0.07645199999999999,-2.4984490000000004,-1.286265,-1.344977,0.25642800000000004,-0.6240180000000001,-0.419886
753,-1.504003,-1.380754,-1.66589,-0.188479,0.9819959999999999,-0.012608,-3.023702,-1.7419310000000001,-1.4901360000000001,0.625826,0.208998,-1.3251760000000001
754,-1.709326,-1.348718,-1.849825,-0.21814699999999998,0.975442,0.030414999999999998,-1.028134,-0.75152,-1.5479690000000002,0.561562,1.1844860000000001,-1.389027
755,-1.680459,-1.325828,-1.8152130000000002,-0.241069,0.970145,0.026543,0.8186939999999999,-0.174234,-0.729301,0.323253,1.720102,-1.194359
756,-1.61331,-1.339479,-1.729962,-0.229053,0.9733649999999999,0.009744,1.109043,-1.414952,1.331713,0.381442,0.650429,-0.732705
757,-1.547474,-1.3780379999999999,-1.622492,-0.19151400000000002,0.9814799999999999,-0.0044670000000000005,1.140959,-2.05958,2.1360650000000003,0.679658,-0.472782,-0.7935369999999999
758,-1.462224,-1.4147040000000002,-1.506683,-0.154543,0.987842,-0.016845,0.65494,-0.843375,1.577772,0.564761,-0.735859,-0.83136
759,-1.5190489999999999,-1.417417,-1.564643,-0.152574,0.9882610000000001,-0.007902,-1.07825,0.091007,-0.945853,-0.998733,1.495092,-0.35753
760,-1.596565,-1.385453,-1.658427,-0.184223,0.982873,0.004748,-0.247825,1.236881,-1.307921,-1.265087,1.09693,0.669492
761,-1.555304,-1.387618,-1.6403720000000002,-0.182134,0.9832700000000001,-0.002822,0.15124400000000002,0.873877,0.9428709999999999,-1.255412,0.6240760000000001,0.5594779999999999
762,-1.5713840000000001,-1.407123,-1.6642259999999998,-0.162944,0.986635,9.6e-05,-0.276491,0.26558200000000004,0.7868390000000001,-0.47122700000000006,-0.816851,-0.49326000000000003
763,-1.6708439999999998,-1.41374,-1.784028,-0.15563,0.987692,0.015623,-1.629912,1.331995,0.07846900000000001,-0.321589,-0.8029229999999999,0.12288099999999999
764,-1.9860779999999998,-1.387541,-2.1438189999999997,-0.166742,0.9832559999999999,0.073521,-4.246016,2.559109,-0.828001,-0.224921,-0.805125,0.398144
765,-2.24724,-1.311527,-2.481204,-0.19992100000000002,0.966578,0.160496,-5.264183999999999,3.7137059999999997,-1.5020950000000002,-0.415191,-0.44401,0.35384699999999997
766,-2.320449,-1.221741,-2.6367529999999997,-0.25032600000000005,0.9396959999999999,0.233041,-4.128997,3.389247,-2.065248,-0.403498,-0.311843,-0.236352
767,-2.286003,-1.1496870000000001,-2.678835,-0.308607,0.912636,0.268063,-2.553993,3.87293,-2.110414,0.20149,0.12973800000000002,-0.400723
768,-2.260606,-1.07813,-2.715337,-0.36483899999999997,0.881075,0.300998,-3.286033,1.970534,-2.321393,0.162339,-0.009996,0.029751999999999997
769,-2.2763970000000002,-1.007693,-2.757914,-0.40635,0.8456030000000001,0.346173,-2.644298,0.62229,-1.645407,0.27979299999999996,-0.0032259999999999997,0.536899
770,-2.286512,-0.976635,-2.768158,-0.42244899999999996,0.8286180000000001,0.36732600000000004,-0.380368,-0.562312,-0.675222,0.65127,0.027079000000000002,0.34358099999999997
771,-2.302173,-0.962253,-2.753804,-0.425471,0.8204819999999999,0.381817,-0.405947,-1.745844,-0.91637,0.36190300000000003,-0.076951,-0.310742
772,-2.342768,-0.938192,-2.758036,-0.42365,0.8064899999999999,0.41242399999999996,-1.128642,-1.9048650000000003,-0.7492310000000001,0.189626,-0.02112,-0.509318
773,-2.385023,-0.91255,-2.766302,-0.419911,0.7910659999999999,0.44484700000000005,-1.003851,-1.612601,-0.685709,0.13187000000000001,0.082637,-0.669609
774,-2.409795,-0.889684,-2.771834,-0.420742,0.7768729999999999,0.468449,-0.939749,-0.6020439999999999,-0.643827,0.164211,0.11816199999999999,-0.6472060000000001
775,-2.4122779999999997,-0.8663639999999999,-2.77535,-0.43153500000000006,0.761979,0.482872,-0.960996,0.282552,-0.729498,0.243653,0.096801,-0.426109
776,-2.404239,-0.841362,-2.7784720000000003,-0.448074,0.7455510000000001,0.493339,-1.027636,0.595122,-0.7827069999999999,0.278594,0.123421,-0.38159899999999997
777,-2.398228,-0.814208,-2.7815630000000002,-0.46456400000000003,0.727182,0.505357,-1.1046340000000001,0.242022,-0.8586360000000001,0.319712,0.213644,-0.363679
778,-2.403944,-0.787075,-2.785699,-0.47476599999999997,0.708292,0.522418,-1.0458100000000001,-0.345522,-0.765605,0.422367,0.350211,-0.42735500000000004
779,-2.4147819999999998,-0.76658,-2.787689,-0.47862299999999997,0.6936760000000001,0.538269,-0.66866,-0.48088100000000006,-0.542744,0.6454479999999999,0.420811,-0.526093
780,-2.419632,-0.751116,-2.786007,-0.48303900000000005,0.682455,0.548569,-0.486875,-0.15870599999999999,-0.549365,0.680366,0.646204,-0.35633899999999996
781,-2.418869,-0.7405930000000001,-2.785654,-0.48818100000000003,0.674726,0.553556,-0.30451300000000003,0.134491,-0.236546,0.622366,0.73424,-0.265364
782,-2.41719,-0.737082,-2.7870049999999997,-0.490676,0.67213,0.554507,-0.099052,0.056033000000000006,0.024568,0.579162,0.706227,-0.424075
783,-2.4198720000000002,-0.739687,-2.792198,-0.488029,0.674057,0.554504,0.051077,0.086119,0.362068,0.481437,0.5690609999999999,-0.745697
784,-2.4188330000000002,-0.751855,-2.795209,-0.48314300000000004,0.682995,0.547805,0.629134,0.202769,0.5261899999999999,0.327442,0.511402,-0.596496
785,-2.404959,-0.7778579999999999,-2.783856,-0.478601,0.701755,0.527713,1.620282,0.278911,0.605654,0.202005,0.6567350000000001,-0.402133
786,-2.388944,-0.8196319999999999,-2.7645060000000004,-0.466533,0.730895,0.49813599999999997,2.228565,0.15631,1.1666040000000002,-0.038777,0.801668,-0.5292640000000001
787,-2.347773,-0.881627,-2.735424,-0.453417,0.771774,0.44584399999999996,3.239288,1.331587,1.552445,-0.067014,0.625442,-0.48110699999999995
788,-2.295146,-0.9450790000000001,-2.6951009999999997,-0.438633,0.810543,0.3881,2.904615,0.803821,1.423665,-0.233471,0.573994,-0.196922
