,attitude.roll,attitude.pitch,attitude.yaw,gravity.x,gravity.y,gravity.z,rotationRate.x,rotationRate.y,rotationRate.z,userAcceleration.x,userAcceleration.y,userAcceleration.z
0,0.105678,-1.495112,-2.9340349999999997,0.007975,0.997137,-0.075181,0.115093,0.050811,0.232307,-0.141703,-0.024115,0.011613
1,0.018899000000000003,-1.493199,-3.019562,0.001465,0.996991,-0.07749199999999999,0.132679,-0.08873400000000001,0.21551700000000001,-0.140274,-0.039639,-0.015739
2,-0.07295800000000001,-1.488626,-3.107312,-0.005982,0.996626,-0.08185,0.118278,-0.224967,0.197432,-0.097778,-0.039442000000000005,-0.039473
3,-0.149224,-1.4845030000000001,3.105664,-0.012812,0.9962790000000001,-0.085221,0.11471700000000001,-0.277265,0.22524699999999998,-0.024572,-0.024019,-0.006698000000000001
4,-0.278904,-1.4805700000000002,2.980987,-0.024804,0.9959319999999999,-0.086617,0.140658,-0.13700299999999999,0.291479,-0.02349,0.016702,-0.025855
5,-0.264466,-1.476891,2.9995060000000002,-0.024509,0.9955940000000001,-0.090501,0.16500399999999998,-0.160602,0.310907,-0.028714,0.008633,-0.015531999999999999
6,-0.26074,-1.470653,3.006308,-0.025772000000000003,0.9949899999999999,-0.09659,0.163172,-0.104093,0.30014,-0.01149,-0.051477999999999996,0.019913999999999998
7,-0.214903,-1.468342,3.054737,-0.021809000000000002,0.994756,-0.099915,0.169415,-0.127598,0.31196399999999996,0.001759,-0.066991,-0.0019219999999999999
8,-0.14703,-1.467536,3.1242360000000002,-0.0151,0.9946729999999999,-0.10195599999999999,0.193164,0.013681,0.392065,-0.01583,-0.06066799999999999,0.040143
9,-0.089421,-1.463144,-3.099397,-0.009594,0.9942110000000001,-0.10700799999999999,0.274007,-0.064294,0.37782899999999997,-0.083316,0.015631,0.034696
10,-0.032356,-1.458625,-3.040924,-0.003621,0.993715,-0.111873,0.303539,-0.036054,0.48268500000000003,-0.08556699999999999,0.022917,-0.006718000000000001
11,0.052944000000000005,-1.4496870000000002,-2.952636,0.006393,0.992675,-0.120637,0.394162,-0.153025,0.6180640000000001,-0.054687,-0.024551,-0.005782
12,0.13883,-1.441459,-2.861936,0.017847,0.991648,-0.127729,0.478821,-0.222902,0.703134,-0.063715,-0.090128,-7.900000000000001e-05
13,0.190302,-1.434002,-2.8035259999999997,0.025794,0.990658,-0.133901,0.460454,-0.302618,0.674266,-0.045142,-0.041394,0.034109
14,0.24640900000000002,-1.424975,-2.741977,0.035442,0.9893870000000001,-0.14090999999999998,0.336561,-0.170852,0.597388,-0.066997,-0.019111000000000003,0.075038
15,0.287561,-1.417571,-2.697667,0.043285000000000004,0.988284,-0.146353,0.297538,-0.079067,0.5884520000000001,-0.081768,-0.056001999999999996,0.09222999999999999
16,0.31651599999999996,-1.409322,-2.6669549999999997,0.05004,0.986991,-0.152783,0.372602,-0.019571,0.563263,-0.073737,-0.005561,-0.044132
17,0.360626,-1.399205,-2.6198930000000002,0.060249000000000004,0.9853139999999999,-0.159762,0.386728,-0.169945,0.593464,-0.058845,0.033881,-0.089627
18,0.397129,-1.391435,-2.578522,0.068999,0.983958,-0.16451300000000002,0.397459,-0.179476,0.570051,0.031419,0.09741699999999999,0.006645
19,0.42367299999999997,-1.3874600000000001,-2.552299,0.074948,0.983241,-0.166188,0.24028200000000002,0.232105,0.344099,-0.034069999999999996,0.11880999999999999,0.120671
20,0.430055,-1.387701,-2.553703,0.075908,0.9832850000000001,-0.16549,0.042907,0.442651,0.07753099999999999,-0.267818,0.13509300000000002,0.13128
21,0.423861,-1.388069,-2.565794,0.07473300000000001,0.983352,-0.165627,-0.045012,0.157159,-0.11286099999999999,-0.49518900000000005,0.3546,0.06829099999999999
22,0.394296,-1.392209,-2.591672,0.06824,0.9840959999999999,-0.16400399999999998,-0.135769,-0.399508,-0.418293,-0.5341670000000001,0.438115,-0.041242
23,0.32767199999999996,-1.4012129999999998,-2.6471,0.054315999999999996,0.985655,-0.15978599999999998,-0.358792,-0.692669,-0.7046899999999999,-0.47493900000000006,0.340028,0.033535
24,0.243878,-1.421422,-2.71766,0.035934,0.988864,-0.14440999999999998,-1.134571,-0.675365,-0.8960020000000001,-0.446899,0.360043,0.288423
25,0.11166300000000001,-1.4572260000000001,-2.837848,0.012627,0.9935579999999999,-0.11261199999999999,-1.884036,-0.639483,-1.22709,-0.346352,0.511462,0.23826799999999998
26,-0.24584299999999998,-1.501045,3.096932,-0.016958,0.997568,-0.06758600000000001,-2.471796,-0.427496,-1.515615,-0.034891000000000005,0.488012,-0.10299200000000001
27,-1.2697319999999999,-1.523102,2.075685,-0.045516,0.998863,-0.014133000000000001,-2.68877,-0.079195,-1.316751,0.19386199999999998,0.298867,-0.26321100000000003
28,-2.026064,-1.4949940000000002,1.322308,-0.068004,0.997128,0.033293,-2.118573,-0.42206400000000005,-1.0495459999999999,0.289378,0.04314,-0.317869
29,-2.224878,-1.455174,1.131307,-0.091547,0.993323,0.070186,-1.772831,-0.03308,-1.388392,0.12426199999999998,0.046212,0.031804
30,-2.266428,-1.410128,1.075556,-0.122799,0.9871209999999999,0.102519,-1.528106,0.6631859999999999,-1.494397,0.100232,0.101838,-0.231105
31,-2.253991,-1.373437,1.100372,-0.152066,0.9805879999999999,0.123775,-0.642258,-1.363119,-1.6917799999999998,0.042157,0.192279,-0.5231439999999999
32,-2.20075,-1.333783,1.180043,-0.189725,0.972044,0.138318,-0.704943,-0.798758,-2.376603,-0.23500300000000002,0.260439,-0.068006
33,-2.1629490000000002,-1.274341,1.23261,-0.24238800000000002,0.9563780000000001,0.163049,-1.2534450000000001,-0.9584520000000001,-2.990184,-0.346617,0.335156,-0.23679499999999998
34,-2.172428,-1.214067,1.269283,-0.287889,0.9370440000000001,0.19764600000000002,-1.155725,-2.896651,-2.693257,-0.032438,0.29025100000000004,-0.36251700000000003
35,-2.203048,-1.1602379999999999,1.30155,-0.321967,0.916898,0.23586300000000002,-1.04375,-2.920316,-2.46705,0.5791229999999999,-0.168973,-0.34873200000000004
36,-2.235839,-1.111342,1.326172,-0.34895,0.8962950000000001,0.273652,-1.046469,-2.736214,-2.151111,0.641095,-0.235131,-0.324998
37,-2.270624,-1.068251,1.347643,-0.36844299999999996,0.876359,0.310227,-0.932981,-2.659752,-1.9239529999999998,0.683949,-0.265428,-0.265427
38,-2.301691,-1.028638,1.370942,-0.38418800000000003,0.8565969999999999,0.344436,-0.834513,-2.512334,-1.845474,0.566149,-0.302734,-0.275955
39,-2.3337209999999997,-0.9920100000000001,1.389575,-0.395384,0.8371270000000001,0.37800100000000003,-0.9213030000000001,-2.286371,-1.535517,0.352446,-0.326889,-0.316325
40,-2.373671,-0.960996,1.395322,-0.397821,0.8197620000000001,0.411975,-0.992648,-2.2284889999999997,-1.030821,0.298059,-0.337417,-0.356754
41,-2.4143380000000003,-0.936158,1.396954,-0.39416100000000004,0.805286,0.442884,-0.756622,-1.9691459999999998,-0.8233379999999999,0.196178,-0.143787,-0.167875
42,-2.437077,-0.918799,1.407067,-0.392984,0.794874,0.46231400000000006,-0.28823899999999997,-1.230502,-0.7985800000000001,0.086832,-0.09445,-0.045856
43,-2.44063,-0.905733,1.424562,-0.39800399999999997,0.786878,0.471606,-0.113106,-0.7685850000000001,-0.847087,-0.077795,0.045199,0.077451
44,-2.43992,-0.89336,1.446046,-0.404593,0.7791819999999999,0.47872200000000004,0.02139,-0.860237,-0.9539200000000001,-0.168726,0.080559,0.080314
45,-2.4399990000000003,-0.8839799999999999,1.472982,-0.40925500000000004,0.7732680000000001,0.48431599999999997,0.305818,-1.182985,-0.9419059999999999,-0.171036,-0.132353,-0.048067
46,-2.442072,-0.879229,1.505556,-0.41061000000000003,0.770247,0.487969,0.577905,-1.424642,-0.9514459999999999,-0.13434200000000002,-0.184478,-0.16137
47,-2.4424770000000002,-0.877273,1.542089,-0.41138199999999997,0.768998,0.489288,0.7177640000000001,-1.397455,-0.945163,-0.061029999999999994,-0.156602,-0.081451
48,-2.438182,-0.877375,1.579609,-0.413429,0.7690640000000001,0.48745600000000006,0.820262,-1.09971,-0.9010309999999999,-0.188683,-0.093435,-0.021331
49,-2.420394,-0.8800540000000001,1.620358,-0.42067299999999996,0.7707729999999999,0.47847700000000004,1.0762479999999999,-0.384808,-0.882,0.012546,-0.139792,-0.046394
50,-2.390277,-0.8924719999999999,1.661991,-0.42832299999999995,0.778625,0.45856199999999997,1.497685,0.017033,-0.240774,0.341607,-0.21105900000000002,-0.020589
51,-2.3635099999999998,-0.9261860000000001,1.690348,-0.42177,0.799334,0.427986,2.021645,0.358458,1.0336319999999999,0.6083689999999999,-0.33159099999999997,-0.011879
52,-2.351169,-0.973699,1.696843,-0.399557,0.8269709999999999,0.39556199999999997,1.391305,0.278386,1.623263,0.154074,0.480234,0.687385
53,-2.338483,-0.997195,1.693428,-0.390453,0.839952,0.376861,0.97206,1.1607020000000001,0.589438,-0.5597880000000001,1.402876,0.7557229999999999
54,-2.298966,-1.022991,1.714647,-0.388732,0.853669,0.346603,1.2400639999999998,0.43997700000000006,0.772763,-0.336854,1.136367,-0.538223
55,-2.297572,-1.0492540000000001,1.708215,-0.372327,0.867052,0.331046,0.843992,0.655556,1.283535,0.304548,-0.110231,-0.11348699999999999
56,-2.279577,-1.0899299999999998,1.699916,-0.351143,0.886595,0.30107399999999995,1.306806,1.446217,1.890369,0.406396,-0.16660899999999998,-0.314349
57,-2.270673,-1.1401379999999999,1.67652,-0.319328,0.908691,0.268899,1.137166,1.4830940000000001,2.405088,0.38159899999999997,-0.012268000000000001,-0.572182
58,-2.282606,-1.189804,1.6446740000000002,-0.281548,0.9282959999999999,0.24288600000000002,1.250489,0.267409,2.095568,0.15615199999999999,0.178149,-0.695096
59,-2.278508,-1.236842,1.662924,-0.249061,0.9447540000000001,0.21308600000000003,2.042595,-0.8784620000000001,1.318494,0.005775,0.281916,-0.364789
60,-2.238607,-1.279301,1.7143669999999998,-0.22564499999999998,0.957815,0.177965,1.761009,-0.156373,1.072047,-0.1104,0.21837800000000002,-0.107394
61,-2.213694,-1.313825,1.737206,-0.20340999999999998,0.9671639999999999,0.152366,0.9980559999999999,0.33411599999999997,1.351305,0.048777999999999995,-0.040527999999999995,-0.014396
62,-2.23385,-1.346791,1.7063490000000001,-0.175066,0.975015,0.136729,0.6318779999999999,0.510243,1.579257,0.187274,-0.134775,-0.137202
63,-2.27042,-1.379644,1.6654529999999999,-0.14535399999999998,0.981786,0.12233699999999999,0.764949,-0.10776500000000001,1.5008620000000001,0.10450699999999999,-0.033681,-0.266975
64,-2.309309,-1.4123370000000002,1.632312,-0.11668099999999999,0.9874719999999999,0.106223,0.932034,-0.320917,1.380525,0.043836,-0.046187,-0.254157
65,-2.313872,-1.447043,1.627796,-0.090892,0.992352,0.08350700000000001,1.2776889999999999,0.22926300000000002,1.223069,-0.064198,-0.11910699999999999,-0.193965
66,-2.2297029999999998,-1.479816,1.7019630000000001,-0.071826,0.995864,0.055617999999999994,1.3548120000000001,0.620452,0.8321379999999999,-0.074933,-0.225097,-0.144974
67,-2.042154,-1.50234,1.8786599999999998,-0.060927999999999996,0.997658,0.031052999999999997,1.0849739999999999,0.514195,0.466125,0.008712000000000001,-0.314384,0.024992
68,-1.7979330000000002,-1.518341,2.113644,-0.051061,0.998625,0.011801,0.86429,0.418663,0.5715279999999999,0.106252,-0.148847,-0.055929999999999994
69,-1.438261,-1.5334459999999999,2.471619,-0.036979000000000005,0.999303,-0.0049299999999999995,0.8281870000000001,-0.059244000000000005,0.768441,0.001166,0.063091,-0.13555799999999998
70,-0.7737649999999999,-1.54041,3.136566,-0.02121,0.9995379999999999,-0.021709,0.8403450000000001,0.064166,0.7982779999999999,-0.06427000000000001,0.01305,-0.003407
71,-0.13802899999999999,-1.532753,-2.512664,-0.005229,0.999276,-0.037645,0.7700520000000001,0.081495,0.788151,-0.10701400000000001,-0.085366,-0.025907999999999997
72,0.177325,-1.514766,-2.195214,0.009876000000000001,0.998431,-0.055108000000000004,0.966592,-0.161841,0.7310840000000001,-0.20264000000000001,-0.051684,-0.075477
73,0.307822,-1.493128,-2.056109,0.023505,0.996985,-0.073933,0.8370920000000001,-0.5085930000000001,0.711395,-0.151557,0.010247,0.06841
74,0.395565,-1.4759440000000001,-1.961755,0.036492000000000004,0.995505,-0.087391,0.582824,-0.16022999999999998,0.661103,-0.199487,0.082864,-0.023861
75,0.46314700000000003,-1.463066,-1.894809,0.048035,0.9942030000000001,-0.09619,0.3895,0.130745,0.523716,-0.21858200000000003,0.15087799999999998,-0.10959
76,0.49281400000000003,-1.452854,-1.8660700000000001,0.055666,0.9930530000000001,-0.10365999999999999,0.307844,0.021234,0.541445,-0.16101300000000002,0.257359,-0.125603
77,0.540443,-1.4411450000000001,-1.816185,0.06651699999999999,0.991607,-0.110855,0.34949,-0.017072999999999998,0.494784,-0.22745100000000001,0.273301,0.084793
78,0.5597479999999999,-1.434783,-1.799192,0.071992,0.990764,-0.11489400000000001,0.132247,0.16631500000000002,0.110608,-0.377382,0.21516799999999997,0.078334
79,0.548744,-1.435718,-1.8136919999999999,0.07024,0.990891,-0.114888,-0.093422,0.172751,-0.237081,-0.467747,0.067962,0.142156
80,0.5160600000000001,-1.448043,-1.849225,0.060416,0.992475,-0.10649000000000002,-0.6009260000000001,0.02192,-0.705109,-0.482825,0.137087,-0.12028599999999999
81,0.404717,-1.471897,-1.957589,0.038873000000000005,0.9951129999999999,-0.090748,-0.876876,-0.22411199999999998,-1.276083,-0.36756300000000003,0.14358900000000002,-0.15632200000000002
82,0.079287,-1.497142,-2.279741,0.005827000000000001,0.997289,-0.073338,-0.846463,-0.221831,-1.8719419999999998,-0.10839700000000001,0.06769800000000001,-0.12484300000000001
83,-0.5977020000000001,-1.501533,-2.953032,-0.038935000000000004,0.997602,-0.057192999999999994,-0.7995979999999999,-0.300796,-2.410965,0.099512,0.106829,0.014758000000000002
84,-1.193724,-1.4733319999999999,2.735455,-0.090461,0.9952540000000001,-0.035824,-1.310075,0.067308,-2.646807,0.233619,0.16688599999999998,0.26141
85,-1.558833,-1.427637,2.347563,-0.14265,0.98977,-0.001707,-2.029343,1.511951,-2.588521,0.31046599999999996,0.40834699999999996,0.497068
86,-1.735391,-1.377678,2.132707,-0.18931800000000001,0.981411,0.031445,-1.9502439999999999,1.730486,-2.163096,0.348498,0.597126,-0.024838
87,-1.846043,-1.3318020000000002,1.9954669999999999,-0.227807,0.971577,0.064336,-1.8804020000000001,0.752031,-1.824864,0.392358,0.5583,-0.169958
88,-1.9301380000000001,-1.287592,1.9079220000000001,-0.261579,0.9601649999999999,0.098263,-1.7298220000000002,-0.254707,-1.6761759999999999,0.336607,0.366877,-0.18658
89,-1.999859,-1.246639,1.844387,-0.289633,0.9479190000000001,0.13250399999999998,-1.565324,-0.525439,-1.5144469999999999,0.15546300000000002,0.182314,-0.013424
90,-2.02822,-1.2011459999999998,1.812673,-0.32414,0.9324540000000001,0.159556,-1.445875,0.39016100000000004,-2.015782,-0.007143000000000001,0.232555,0.031469
91,-2.036416,-1.14866,1.798603,-0.366089,0.912216,0.183948,-1.383151,0.054467999999999996,-2.303334,0.157898,-0.00975,-0.05321
92,-2.046856,-1.09847,1.791491,-0.404366,0.8905120000000001,0.20849600000000001,-1.202392,-0.335877,-2.080449,0.23619899999999996,-0.079874,-0.074036
93,-2.058873,-1.051819,1.789441,-0.43807399999999996,0.8683270000000001,0.232582,-1.074798,-0.622007,-2.032189,0.32293099999999997,-0.122294,-0.087059
94,-2.078291,-1.006879,1.7884959999999999,-0.467131,0.845168,0.259759,-1.13329,-1.1496899999999999,-1.88878,0.300703,-0.254607,-0.190027
95,-2.114147,-0.965342,1.7811009999999998,-0.48716499999999996,0.8222440000000001,0.294245,-1.250159,-1.65345,-1.550324,0.400419,-0.35173899999999997,-0.27053299999999997
96,-2.159469,-0.9320299999999999,1.7693740000000002,-0.49584799999999996,0.802832,0.331045,-1.096566,-1.843611,-1.015965,0.46057,-0.383627,-0.312598
97,-2.202921,-0.9106870000000001,1.758937,-0.494713,0.789925,0.362315,-0.71725,-1.6861110000000001,-0.506112,0.560646,-0.47904300000000005,-0.27514099999999997
98,-2.238299,-0.9020090000000001,1.75193,-0.48695299999999997,0.784574,0.383815,-0.257036,-1.382749,-0.046087,0.525299,-0.462614,-0.268642
99,-2.265828,-0.905532,1.748864,-0.474078,0.786754,0.395301,0.204047,-1.2111299999999998,0.32545,0.46962299999999996,-0.445888,-0.28389699999999995
100,-2.289239,-0.919759,1.7484810000000002,-0.456221,0.795456,0.398882,0.601961,-1.089359,0.6966100000000001,0.21206599999999998,-0.43841499999999994,-0.240008
101,-2.30457,-0.9455809999999999,1.750441,-0.434651,0.810837,0.391941,1.0952540000000002,-0.65359,1.049875,-0.038402,-0.517502,-0.009235
102,-2.305176,-0.9803120000000001,1.756678,-0.413253,0.8306709999999999,0.3731,1.333991,-0.091464,1.193964,-0.293412,-0.347242,0.226113
103,-2.297917,-1.011188,1.763938,-0.396594,0.847463,0.352867,1.030146,0.09206,0.850843,-0.721051,0.148005,0.362175
104,-2.291372,-1.027487,1.773829,-0.388463,0.8560030000000001,0.341104,0.5888359999999999,-0.288136,0.142153,-0.854778,0.44811999999999996,0.44428100000000004
105,-2.287235,-1.027487,1.7947220000000002,-0.389871,0.856002,0.339495,0.289232,-0.765546,-0.62097,-0.423926,0.8353280000000001,0.357863
106,-2.266893,-1.018055,1.825023,-0.40287399999999995,0.851088,0.33665700000000004,0.40941900000000003,0.000266,-0.960807,-0.171131,0.355043,0.105848
107,-2.2276759999999998,-1.01175,1.8652630000000001,-0.420005,0.8477610000000001,0.323873,0.72153,0.500384,-0.8246709999999999,0.047645,0.197008,0.20466099999999998
108,-2.165859,-1.0175450000000001,1.9082139999999999,-0.43513500000000005,0.8508209999999999,0.294549,1.286506,1.5842479999999999,-0.103201,0.380188,0.9246620000000001,0.170906
109,-2.103148,-1.034376,1.933771,-0.440337,0.8595430000000001,0.259394,0.73101,2.2856799999999997,0.528724,0.775771,0.591003,-0.215678
110,-2.054532,-1.050641,1.9442869999999999,-0.43998699999999996,0.867742,0.23115500000000003,0.605783,1.506246,0.5502130000000001,0.8333729999999999,0.231104,-0.09079
111,-2.034452,-1.0629979999999999,1.9456849999999999,-0.43491599999999997,0.873817,0.217462,0.153376,1.051762,0.5786140000000001,0.47645,0.013465999999999999,0.19428099999999998
112,-2.008588,-1.0786200000000001,1.936088,-0.42797700000000005,0.881307,0.20033,0.194396,1.982329,0.930221,0.382308,-0.038472000000000006,-0.288923
113,-1.967268,-1.102632,1.9354490000000002,-0.41624399999999995,0.8923979999999999,0.174256,0.653662,2.164846,1.241911,0.366317,-0.245471,-0.455567
114,-1.910043,-1.1377030000000001,1.947714,-0.39576,0.9076719999999999,0.13965999999999998,0.9882040000000001,2.301312,1.722636,0.490486,-0.271304,-0.577175
115,-1.8464639999999999,-1.180831,1.9758939999999998,-0.365802,0.9249219999999999,0.103474,1.310978,1.6571099999999999,1.903041,0.474887,0.339009,-0.386219
116,-1.758535,-1.2236799999999999,2.036824,-0.334208,0.940358,0.06349099999999999,1.738425,1.472798,1.803714,0.344066,0.311291,-0.26298499999999997
117,-1.627448,-1.263442,2.145858,-0.302051,0.9531370000000001,0.017130000000000003,2.0237279999999997,1.473264,1.706362,0.180866,0.197696,-0.141199
118,-1.459559,-1.291944,2.276948,-0.273549,0.9613719999999999,-0.030555000000000002,1.755064,2.5188029999999997,1.281197,0.056112,-0.18654600000000002,-0.067925
119,-1.262837,-1.302614,2.4251009999999997,-0.252512,0.9642540000000001,-0.080319,1.952421,2.641913,0.693828,0.109537,-0.316106,0.036739999999999995
120,-1.0973709999999999,-1.2958379999999998,2.54563,-0.241643,0.9624370000000001,-0.12378900000000001,1.230932,2.348046,0.217011,0.211431,-0.174137,0.153361
121,-1.0067,-1.294167,2.5980119999999998,-0.2308,0.961981,-0.146021,0.472105,1.850927,0.250803,0.09185399999999999,0.060663,-0.076575
122,-0.934293,-1.290025,2.633463,-0.222834,0.960842,-0.164702,0.58467,1.998389,0.039893,-0.058232000000000006,0.047077,-0.096696
123,-0.856347,-1.28254,2.673666,-0.21475999999999998,0.958741,-0.18625999999999998,0.715093,1.873082,0.094375,-0.13871,0.023742,-0.06850099999999999
124,-0.7826310000000001,-1.272948,2.716418,-0.206934,0.9559700000000001,-0.208083,0.824858,1.543787,0.030402999999999996,-0.269842,-0.10068400000000001,0.05715800000000001
125,-0.71412,-1.2588540000000001,2.753727,-0.201009,0.9517389999999999,-0.23192,0.891533,1.744447,-0.12428099999999999,-0.241069,-0.266421,0.172426
126,-0.657468,-1.2447110000000001,2.776393,-0.195762,0.947304,-0.25355900000000003,0.684447,1.671859,-0.173704,-0.18612,-0.242531,0.18105
127,-0.614574,-1.23496,2.792504,-0.190027,0.9441350000000001,-0.269255,0.492937,1.2552889999999999,0.003885,-0.07584199999999999,-0.10706800000000001,0.177596
128,-0.565992,-1.230033,2.818368,-0.17921900000000002,0.9425,-0.282089,0.41939099999999996,1.1645780000000001,0.37416,-0.067455,-0.048487,0.157882
129,-0.50865,-1.229501,2.860218,-0.163001,0.9423219999999999,-0.292333,0.378753,0.712973,0.6575340000000001,-0.11483099999999999,0.008484,0.071859
130,-0.455179,-1.224926,2.902301,-0.149038,0.940781,-0.30449699999999996,0.63432,0.774033,0.351593,-0.130701,0.10221799999999999,0.24964099999999997
131,-0.42531199999999997,-1.215809,2.913821,-0.14341199999999998,0.937651,-0.316612,0.313259,0.9775360000000001,-0.177544,-0.066976,0.18876800000000002,0.30248200000000003
132,-0.42220699999999994,-1.211886,2.901082,-0.14393499999999998,0.9362799999999999,-0.320409,0.037058999999999995,0.596754,-0.35096900000000003,-0.180116,0.148757,0.208394
133,-0.437367,-1.206102,2.87569,-0.151067,0.934233,-0.32309099999999996,0.062855,0.35811,-0.633562,-0.27289800000000003,0.263475,0.208116
134,-0.474268,-1.207993,2.8248599999999997,-0.162077,0.9349059999999999,-0.315725,-1.052949,0.662175,-0.846844,-0.081774,0.245209,0.23978200000000002
135,-0.558122,-1.21935,2.7117419999999997,-0.182316,0.938876,-0.292015,-1.477509,1.521183,-1.90845,0.005863,0.276609,0.30632800000000004
136,-0.686787,-1.223808,2.5343869999999997,-0.215621,0.940401,-0.262969,-2.336172,1.924952,-2.502487,-0.157334,0.341825,0.146438
137,-0.8581629999999999,-1.223563,2.312453,-0.257483,0.940318,-0.222496,-2.63656,1.9581400000000002,-2.815481,-0.389169,0.468267,0.187919
138,-1.0159280000000002,-1.209447,2.095723,-0.300494,0.935421,-0.186254,-2.642604,2.417785,-2.671902,-0.25002800000000003,0.874516,0.354848
139,-1.15229,-1.199466,1.90688,-0.331538,0.931846,-0.14746199999999998,-2.8099119999999997,1.60456,-1.624103,0.221568,1.017739,0.040208
140,-1.2895020000000001,-1.195769,1.740098,-0.3519,0.9304979999999999,-0.101684,-2.68263,0.539921,-1.095216,0.49791199999999997,0.8573440000000001,-0.188935
141,-1.4099,-1.1809379999999998,1.597334,-0.375148,0.9249629999999999,-0.060886,-2.466415,0.8207459999999999,-1.446579,0.58903,0.780604,0.17728
142,-1.5439049999999999,-1.153648,1.440178,-0.405007,0.914248,-0.010894,-3.1168169999999997,0.072389,-1.814427,0.14835399999999999,0.447034,0.167693
143,-1.673338,-1.112747,1.304176,-0.43987600000000004,0.896917,0.045264,-2.716118,-0.14266700000000002,-1.927788,0.172984,0.12340799999999999,-0.049277
144,-1.726004,-1.069849,1.227276,-0.47448199999999996,0.877128,0.074241,-1.6417650000000001,1.3288,-1.8741,0.396082,-0.034506999999999996,-0.11266199999999998
145,-1.7329259999999997,-1.026886,1.187924,-0.5106970000000001,0.855692,0.08353200000000001,-1.216265,1.0990389999999999,-2.060977,0.39473,-0.21135900000000002,-0.257773
146,-1.7646259999999998,-0.980899,1.151665,-0.5458569999999999,0.8309979999999999,0.10714800000000001,-1.44915,-0.813601,-2.007809,0.42163500000000004,-0.21637399999999998,-0.252946
147,-1.8267959999999999,-0.9424530000000001,1.112624,-0.568647,0.809003,0.148839,-1.526653,-1.7395470000000002,-1.353412,0.509428,-0.515439,-0.348546
148,-1.8924029999999998,-0.918272,1.076152,-0.5760609999999999,0.794554,0.191928,-1.238426,-1.840759,-0.536216,0.6021380000000001,-0.9855790000000001,-0.20795
149,-1.948216,-0.9114969999999999,1.051397,-0.569448,0.7904220000000001,0.22574299999999997,-0.55,-1.759812,0.20128900000000002,0.606466,-0.977632,-0.186162
150,-1.98879,-0.9215969999999999,1.039757,-0.5524979999999999,0.796568,0.245402,0.11750899999999999,-1.45041,0.8358059999999999,0.5747760000000001,-0.705336,-0.131617
151,-2.016791,-0.9483459999999999,1.0390190000000001,-0.525995,0.8124520000000001,0.25149099999999996,0.825786,-1.337125,1.4612450000000001,0.44233100000000003,-0.66815,-0.032421
152,-2.029042,-0.9929479999999999,1.0539100000000001,-0.489867,0.8376399999999999,0.241635,1.654496,-1.113073,1.988039,0.329177,-0.710809,0.022754
153,-2.0200560000000003,-1.0428389999999998,1.079494,-0.45377799999999996,0.8638379999999999,0.218786,1.437761,-0.181444,1.765278,-0.33825900000000003,-0.322914,0.5624640000000001
154,-2.0209479999999997,-1.067476,1.068434,-0.43428500000000003,0.875986,0.209865,-0.315354,0.346871,0.9041870000000001,-0.902065,0.9268549999999999,0.615804
155,-2.08058,-1.051138,1.037048,-0.43344099999999997,0.8679889999999999,0.242326,-1.084455,-2.750162,-1.287072,-0.9182889999999999,2.106682,0.694823
156,-2.111253,-1.016306,1.052776,-0.451466,0.8501690000000001,0.270903,-0.364819,-1.3778700000000002,-1.698274,-0.413249,1.9726,0.808321
157,-2.099459,-0.989492,1.070799,-0.474149,0.8357469999999999,0.276961,-0.155495,0.177651,-1.135852,0.184659,-0.888008,0.173463
158,-2.0658540000000003,-0.9809190000000001,1.0812110000000001,-0.48947299999999994,0.831009,0.264268,0.400721,2.064306,-0.034116,0.5274369999999999,-0.246567,0.013609999999999999
159,-1.997196,-1.008016,1.101733,-0.48576499999999995,0.845775,0.220669,1.167678,3.030544,1.687704,0.44247600000000004,0.554906,-0.016781
160,-1.950665,-1.059094,1.090167,-0.45475299999999996,0.8719120000000001,0.181565,0.21582300000000001,1.8176599999999998,2.663288,1.402507,1.0582479999999999,-0.029725
161,-1.972545,-1.095465,1.050398,-0.42119399999999996,0.889141,0.178947,-0.197947,0.928017,1.725775,0.32606999999999997,-0.012646,0.19735
162,-1.9578779999999998,-1.118875,1.029735,-0.404384,0.89961,0.164846,0.259949,1.9465279999999998,1.036529,0.076686,-0.23155,-0.322347
163,-1.8957830000000002,-1.145411,1.043333,-0.391069,0.9108799999999999,0.13176400000000002,1.018856,2.763082,1.3057020000000001,0.281038,-0.043601,-0.693211
164,-1.79994,-1.1898030000000002,1.0899809999999999,-0.362122,0.9282959999999999,0.08446100000000001,1.736647,2.415046,2.203128,0.315064,-0.042981,-0.68021
165,-1.681327,-1.243829,1.180282,-0.319211,0.9470209999999999,0.035427,2.1001369999999997,1.196121,2.48283,0.298428,-0.004913,-0.565258
166,-1.5365879999999998,-1.297259,1.3223770000000001,-0.26997899999999997,0.9628209999999999,-0.009239,2.25242,0.054245,2.5921790000000002,0.10004199999999999,0.132943,-0.14719400000000002
167,-1.345142,-1.335954,1.521997,-0.22678800000000002,0.972551,-0.052062,2.183955,0.077334,1.9400560000000002,-0.24882800000000002,-0.12626800000000002,0.279281
168,-1.132139,-1.3508959999999999,1.719999,-0.197478,0.9759190000000001,-0.092645,1.599813,1.510133,1.1148129999999998,-0.16478099999999998,-0.38413800000000003,0.308694
169,-0.989042,-1.350166,1.835163,-0.182842,0.9757600000000001,-0.120251,0.8995549999999999,1.3463829999999999,0.315374,0.20277,-0.562109,0.039258
170,-0.90145,-1.3424690000000001,1.9023919999999999,-0.177506,0.974046,-0.140441,0.873768,1.050291,0.058132,0.353639,-0.344423,-0.07576000000000001
171,-0.800801,-1.328355,1.981359,-0.17235,0.9707549999999999,-0.167121,1.352317,1.2666549999999999,0.147724,0.293459,-0.222921,-0.030572000000000002
172,-0.675162,-1.310337,2.088483,-0.160958,0.9662719999999999,-0.201023,1.609712,0.980923,0.516288,0.142968,-0.029992,0.068226
173,-0.561109,-1.2951469999999998,2.185579,-0.14482799999999998,0.962249,-0.230436,1.1039139999999998,1.089758,0.644007,-0.031472,-0.075072,0.370985
174,-0.471066,-1.291359,2.250613,-0.125174,0.961211,-0.245772,0.355693,1.5512569999999999,0.701214,-0.278742,-0.138701,0.35317800000000005
175,-0.38654499999999997,-1.295088,2.306726,-0.102626,0.962233,-0.25214000000000003,0.077201,1.428165,0.8222719999999999,-0.246067,-0.026594,0.089664
176,-0.30078299999999997,-1.300103,2.3698,-0.079221,0.963586,-0.255392,0.074577,1.16896,0.9101799999999999,-0.206866,0.053443,0.009863
177,-0.216067,-1.3003120000000001,2.436684,-0.057284,0.963642,-0.26098299999999997,0.31072,0.898016,0.796809,-0.203245,-0.028170999999999998,0.118252
178,-0.16123900000000002,-1.295679,2.4757740000000004,-0.043612,0.962393,-0.26813400000000004,0.216061,0.8941450000000001,0.249223,-0.469587,0.127099,0.235923
179,-0.14821900000000002,-1.295082,2.47733,-0.040202,0.962231,-0.26924699999999996,0.063301,0.270741,-0.096081,-0.746937,0.094547,-0.050532
180,-0.166857,-1.287533,2.4617430000000002,-0.046418,0.960149,-0.275606,0.39498099999999997,-0.487859,-0.35236999999999996,-0.8726790000000001,0.250789,-0.037688
181,-0.230254,-1.289499,2.422478,-0.063355,0.9606959999999999,-0.27027199999999996,-0.489076,-1.5079790000000002,-0.754617,-0.637146,0.258115,0.068948
182,-0.37825,-1.294322,2.291904,-0.100803,0.962024,-0.25366700000000003,-0.9591569999999999,-0.95088,-2.1996450000000003,-0.5326810000000001,0.43473500000000004,-0.036067
183,-0.617239,-1.292633,2.0493799999999998,-0.15892699999999998,0.961562,-0.223919,-1.9634029999999998,0.32869499999999996,-3.236997,-0.163797,0.725053,0.174344
184,-0.871066,-1.2849469999999998,1.756182,-0.215711,0.9594219999999999,-0.181592,-2.5873150000000003,1.684351,-3.119179,-0.050950999999999996,1.013066,0.658551
185,-1.078671,-1.270038,1.520225,-0.261088,0.9551120000000001,-0.139975,-2.2682290000000003,0.308288,-2.133491,0.260294,1.183209,0.150259
186,-1.253327,-1.2589110000000001,1.3445209999999999,-0.291518,0.951757,-0.095788,-2.187023,-0.511278,-1.313615,0.641433,0.9889629999999999,-0.153693
187,-1.394267,-1.2437719999999999,1.1934420000000001,-0.316232,0.947003,-0.056412000000000004,-2.121661,0.6903189999999999,-1.3617,0.864251,0.653583,0.051605
188,-1.502435,-1.218999,1.048975,-0.343779,0.9387549999999999,-0.023538,-2.299183,1.3797780000000002,-1.5304659999999999,0.6586890000000001,0.374859,0.34147
189,-1.623318,-1.190213,0.916351,-0.37094699999999997,0.9284479999999999,0.019500999999999998,-2.386721,-0.533144,-1.532899,0.26560100000000003,0.154636,-0.007935
190,-1.7366720000000002,-1.146256,0.810761,-0.406246,0.911228,0.068011,-2.144304,-0.699512,-2.228542,-0.023686000000000002,-0.060108,-0.134051
191,-1.785522,-1.091257,0.764968,-0.450773,0.887207,0.098308,-1.123047,-0.292558,-2.585125,0.128202,-0.248627,-0.305751
192,-1.818198,-1.0371290000000002,0.750973,-0.493204,0.8609469999999999,0.124572,-0.94399,-1.6412229999999999,-2.467847,0.22390100000000002,-0.394974,-0.361678
193,-1.8778259999999998,-0.992466,0.734956,-0.521063,0.837376,0.165206,-1.062899,-2.4798419999999997,-1.771122,0.633444,-0.764653,-0.41361899999999996
194,-1.941691,-0.9589110000000001,0.718174,-0.535352,0.818567,0.208195,-0.915017,-2.5059720000000003,-1.226331,0.716367,-0.8736659999999999,-0.370823
195,-2.002632,-0.936743,0.708688,-0.538029,0.805633,0.247948,-0.522456,-2.739417,-0.730839,0.694752,-0.820846,-0.373085
196,-2.057985,-0.928314,0.708635,-0.529469,0.800611,0.280503,0.026628,-2.7096,-0.13952,0.673177,-0.722745,-0.37848000000000004
197,-2.099286,-0.937628,0.717716,-0.510973,0.806157,0.298352,0.7726649999999999,-2.2301349999999998,0.522033,0.586047,-0.7165729999999999,-0.31490799999999997
198,-2.111575,-0.969233,0.74433,-0.485176,0.8244520000000001,0.29134299999999996,1.9343990000000002,-1.344193,1.204129,0.427467,-0.741765,-0.054541
199,-2.079134,-1.019816,0.7951699999999999,-0.45732399999999995,0.8520120000000001,0.254811,2.533301,0.078556,1.598527,-0.016019,-0.490379,0.467159
200,-2.047431,-1.058937,0.8159029999999999,-0.43520600000000004,0.871835,0.224715,0.510207,0.6599659999999999,1.279207,-0.333547,-0.06829199999999999,0.57068
201,-2.0901099999999997,-1.0601040000000002,0.785129,-0.424339,0.8724059999999999,0.242573,-1.342725,-1.92603,-0.43209899999999996,-0.8910600000000001,2.579468,0.8576159999999999
202,-2.15465,-1.024716,0.776818,-0.43330799999999997,0.854567,0.28628200000000004,-0.8316129999999999,-2.737503,-1.739266,-0.239406,1.516313,0.97298
203,-2.1673009999999997,-0.992123,0.798118,-0.452463,0.837189,0.30723,-0.182821,-0.910177,-1.5971389999999999,0.111017,-0.537507,0.15357
204,-2.152606,-0.973928,0.822566,-0.46957899999999997,0.8271,0.308869,0.20493899999999998,0.509369,-0.752354,0.25382,-1.143506,0.076263
205,-2.090134,-0.983469,0.847076,-0.481073,0.832425,0.275021,1.0224010000000001,2.6294720000000003,0.616895,0.309,0.865375,-0.130017
206,-2.027327,-1.020151,0.8424209999999999,-0.46965,0.852187,0.23066199999999998,0.601965,2.854215,2.052566,1.347824,1.880098,-0.6056010000000001
207,-2.0422860000000003,-1.042597,0.816239,-0.44898999999999994,0.863716,0.22891399999999998,-0.12626600000000002,0.144926,0.894066,1.48169,1.645989,0.31997600000000004
208,-2.025985,-1.0594940000000002,0.8123319999999999,-0.43948999999999994,0.872108,0.21511799999999998,0.487133,1.311421,0.890447,0.15292999999999998,-0.48679300000000003,-0.31446799999999997
209,-1.981904,-1.089112,0.822258,-0.42467200000000005,0.886216,0.185135,1.033283,2.11463,1.483959,0.19331800000000002,-0.507676,-0.649537
210,-1.905212,-1.140491,0.8543120000000001,-0.394038,0.9088379999999999,0.136915,1.899434,2.387666,2.515152,0.420741,0.028845,-1.0334450000000002
211,-1.802144,-1.204581,0.922542,-0.348542,0.933689,0.082105,2.315216,1.5831879999999998,2.739183,0.479829,0.48431,-0.647885
212,-1.6741409999999999,-1.269477,1.046742,-0.295195,0.954946,0.030616,2.64362,-0.113801,2.988275,0.219344,0.152873,-0.261131
213,-1.504543,-1.325469,1.237026,-0.242339,0.970058,-0.016079,2.421727,-0.7050529999999999,2.38821,-0.20189000000000001,0.22469,0.26368400000000003
214,-1.3527040000000001,-1.354485,1.392936,-0.20954099999999998,0.9766959999999999,-0.046438,1.108678,0.464829,1.344568,-0.31056999999999996,-0.234752,0.527838
215,-1.244485,-1.365173,1.486564,-0.193399,0.978934,-0.065448,0.6952020000000001,0.833252,0.41292299999999993,0.166071,-0.53205,0.079669
216,-1.164847,-1.3608930000000001,1.5479450000000001,-0.191426,0.978051,-0.08227999999999999,0.723891,1.2655020000000001,-0.08094900000000001,0.49081899999999995,-0.5634239999999999,-0.055889
217,-1.045734,-1.352376,1.6388049999999998,-0.187495,0.976241,-0.108616,1.280764,1.52772,0.195002,0.45733199999999996,-0.43737700000000007,-0.126354
218,-0.875714,-1.340372,1.787643,-0.175402,0.97357,-0.14627,1.915548,0.9498139999999999,0.575122,0.157946,-0.09477000000000001,-0.015381
219,-0.718488,-1.323358,1.938466,-0.161217,0.969543,-0.184375,1.661377,0.48066499999999995,0.635905,-0.08748600000000001,-0.010848,0.302753
220,-0.619819,-1.31281,2.02211,-0.148203,0.9669059999999999,-0.207673,0.7820560000000001,1.19185,0.43764,-0.338492,-0.139559,0.494828
221,-0.545717,-1.3099120000000002,2.071749,-0.133875,0.9661620000000001,-0.220469,0.286921,1.1818110000000002,0.44701199999999996,-0.404028,-0.208548,0.18425999999999998
222,-0.499942,-1.310376,2.10463,-0.123431,0.966282,-0.22596999999999998,0.19431800000000002,0.434645,0.36293400000000003,-0.318525,-0.07849500000000001,0.067508
223,-0.453403,-1.308374,2.144198,-0.113632,0.965764,-0.233206,0.41422200000000003,0.5167510000000001,0.41884399999999994,-0.187729,-0.052572,0.13886099999999998
224,-0.403981,-1.302236,2.183332,-0.1043,0.9641540000000001,-0.243981,0.512996,0.529694,0.29346700000000003,-0.079553,0.078738,0.151802
225,-0.366356,-1.29829,2.211983,-0.096411,0.9630989999999999,-0.251282,0.167299,0.48631,0.25372,-0.179361,0.178243,0.132416
226,-0.358367,-1.296994,2.2205340000000002,-0.094838,0.96275,-0.253213,0.176093,-0.261279,-0.078546,-0.6115520000000001,0.170673,-0.099249
227,-0.380262,-1.285876,2.201331,-0.104326,0.959684,-0.261,0.442787,-0.150092,-0.67503,-0.6473369999999999,0.265795,0.142149
228,-0.45029600000000003,-1.286165,2.131883,-0.122214,0.959765,-0.25281,-1.08679,-0.22415900000000002,-1.072315,-0.392237,0.12751500000000002,0.216571
229,-0.621324,-1.295635,1.9432909999999999,-0.15816,0.9623809999999999,-0.220921,-2.2059290000000003,1.011439,-2.4672,-0.265836,0.42006499999999997,0.6036729999999999
230,-0.8833340000000001,-1.299439,1.636392,-0.207155,0.963408,-0.17009000000000002,-3.12531,2.103767,-3.1063400000000003,-0.382033,0.5088060000000001,0.267853
231,-1.1368120000000002,-1.2765549999999999,1.335356,-0.263127,0.9570219999999999,-0.121947,-2.7766889999999997,1.124522,-3.078081,-0.22050100000000003,0.954141,0.15066400000000002
232,-1.3259020000000001,-1.248772,1.136103,-0.307041,0.9485969999999999,-0.07673300000000001,-2.139544,-0.362659,-1.753539,0.1955,1.436886,-0.288578
233,-1.4418229999999999,-1.234546,1.017109,-0.327207,0.943999,-0.042436,-1.544889,0.163168,-0.833525,0.48582200000000003,1.095461,-0.220717
234,-1.525094,-1.214882,0.9070090000000001,-0.348082,0.937328,-0.015919,-2.028295,1.436024,-1.442078,0.54138,0.7317239999999999,0.46480200000000005
235,-1.607035,-1.1795200000000001,0.803033,-0.381117,0.924423,0.013817,-1.6983549999999998,0.024422,-1.965666,0.18093599999999999,0.43336499999999994,0.318931
236,-1.694504,-1.132264,0.7287060000000001,-0.421365,0.9053760000000001,0.052392999999999995,-1.6932880000000001,-1.313324,-2.296134,-0.027594999999999998,0.09746200000000001,-0.10683699999999999
237,-1.76745,-1.0854840000000001,0.673122,-0.457492,0.8845290000000001,0.091146,-1.506242,-0.915794,-1.9716650000000002,0.227298,-0.278343,-0.282918
238,-1.808589,-1.046705,0.644986,-0.486343,0.8657790000000001,0.117879,-0.857345,-1.009932,-1.636932,0.383835,-0.4593,-0.257146
239,-1.853478,-1.0131299999999999,0.6351220000000001,-0.508202,0.848493,0.147612,-0.630881,-2.2946869999999997,-1.558928,0.565865,-0.444608,-0.335768
240,-1.9100259999999998,-0.9803709999999999,0.629253,-0.524986,0.8307040000000001,0.185252,-0.660623,-2.6104279999999997,-1.428408,0.649162,-0.53241,-0.352244
241,-1.9646549999999998,-0.9536610000000001,0.624726,-0.534392,0.815539,0.222079,-0.53584,-2.496203,-1.0644870000000002,0.690413,-0.727923,-0.330309
242,-2.015678,-0.9361389999999999,0.624293,-0.535188,0.805275,0.255155,-0.24264899999999998,-2.5947970000000002,-0.639297,0.548906,-0.751091,-0.34347300000000003
243,-2.061963,-0.9299129999999999,0.630081,-0.527219,0.8015680000000001,0.282003,0.198598,-2.454442,-0.157831,0.5682649999999999,-0.7340479999999999,-0.39110300000000003
244,-2.091854,-0.941225,0.645731,-0.510659,0.80828,0.293101,1.044006,-1.900918,0.544913,0.49900100000000003,-0.689933,-0.044551
245,-2.096894,-0.976575,0.679024,-0.484152,0.828585,0.281141,2.094609,-1.426196,1.329309,0.42281199999999997,-0.682879,0.085497
246,-2.0780689999999997,-1.027887,0.7231029999999999,-0.45156899999999994,0.856209,0.250975,2.1202330000000003,-0.5203899999999999,1.758821,0.252533,-0.6459739999999999,0.252306
247,-2.080861,-1.0622,0.722216,-0.424966,0.8734290000000001,0.237744,0.027927999999999998,-0.122172,1.22454,-0.614157,0.816863,0.666354
248,-2.140101,-1.05669,0.686059,-0.414192,0.870732,0.26507800000000004,-1.359887,-2.43418,-0.676149,-0.696098,1.812587,0.526045
249,-2.18477,-1.024203,0.6930350000000001,-0.42484700000000003,0.8543,0.299454,-0.377886,-1.924305,-1.694368,-0.501224,2.362893,1.07132
250,-2.181556,-0.9994540000000001,0.718712,-0.442996,0.841176,0.310119,-0.10313499999999999,-0.516074,-1.118482,0.110659,-0.9634440000000001,0.198777
251,-2.158543,-0.989475,0.729035,-0.456977,0.8357379999999999,0.304483,0.087712,1.7042380000000001,-0.28891700000000003,0.352058,0.214677,0.291175
252,-2.100832,-0.9996440000000001,0.721169,-0.46642100000000003,0.8412780000000001,0.273306,0.054643,4.063592,1.1274959999999998,0.14617,1.28247,0.383615
253,-2.06491,-1.0174729999999998,0.702807,-0.46265600000000007,0.850783,0.249225,-0.014535,0.9808459999999999,0.615012,1.093912,0.570375,-0.388858
254,-2.044927,-1.0347819999999999,0.702577,-0.454372,0.859751,0.23317100000000002,0.5627310000000001,1.54644,0.93024,0.350734,-0.897502,-0.35565399999999997
255,-2.011231,-1.058284,0.70002,-0.443567,0.8715149999999999,0.20905900000000002,0.429613,1.899372,1.2300959999999999,0.411203,-0.750696,-0.209684
256,-1.960161,-1.096476,0.709504,-0.422543,0.8896040000000001,0.173375,1.522051,2.140839,1.9680810000000002,0.325054,0.090499,-0.914906
257,-1.8634689999999998,-1.1591790000000002,0.774226,-0.38307399999999997,0.916475,0.11542999999999999,2.608715,1.763586,2.659817,0.26426900000000003,0.24131599999999997,-1.032117
258,-1.7342849999999999,-1.223374,0.8885,-0.33593,0.9402530000000001,0.055416,2.769324,0.730668,2.686832,0.0009689999999999999,0.428933,-0.245693
259,-1.631716,-1.279328,0.9926149999999999,-0.28681799999999996,0.957823,0.017495,1.310362,-0.12605,2.41282,-0.335908,0.083788,0.211052
260,-1.574394,-1.317926,1.060051,-0.250175,0.968198,0.0009,1.020497,-0.394463,1.5907440000000002,-0.232568,-0.079023,0.129974
261,-1.463264,-1.338927,1.170099,-0.228463,0.973239,-0.024662,1.355063,0.673666,0.85464,-0.089347,-0.20189100000000001,0.12337100000000001
262,-1.329073,-1.346271,1.290928,-0.21616300000000002,0.9749,-0.05329400000000001,1.2002950000000001,0.759849,0.48602,0.36785100000000004,-0.575959,-0.07031799999999999
263,-1.205732,-1.348841,1.398413,-0.20562399999999997,0.975469,-0.07858899999999999,1.1118430000000001,1.057217,0.5234770000000001,0.488659,-0.364583,-0.073099
264,-1.056134,-1.3477700000000001,1.531658,-0.192524,0.975233,-0.108872,1.518627,0.9564459999999999,0.595882,0.367786,-0.241346,-0.06777999999999999
265,-0.877134,-1.340425,1.6967919999999999,-0.175568,0.973582,-0.14598599999999998,1.7879610000000001,0.838384,0.8489469999999999,0.141556,-0.031931,0.088568
266,-0.723152,-1.3339159999999999,1.8427919999999998,-0.15529,0.972075,-0.17593399999999998,1.139516,0.5407890000000001,0.9740530000000001,-0.007613,-0.074812,0.339631
267,-0.599337,-1.3341319999999999,1.9481490000000001,-0.13225499999999998,0.972125,-0.19359200000000001,0.58208,1.389567,0.9861639999999999,-0.259682,-0.264011,0.384983
268,-0.488738,-1.336435,2.034427,-0.109028,0.9726629999999999,-0.205029,0.331979,1.151309,0.8458530000000001,-0.360927,-0.173987,0.095914
269,-0.404107,-1.337153,2.104519,-0.091032,0.972829,-0.212869,0.36903400000000003,0.720267,0.7152729999999999,-0.28634899999999996,-0.025776999999999998,0.048455
270,-0.325254,-1.33226,2.168789,-0.075501,0.971685,-0.223886,0.553992,0.8630950000000001,0.534784,-0.19628800000000002,-0.023702,0.187494
271,-0.266326,-1.3276780000000001,2.2137689999999997,-0.063356,0.970592,-0.232238,0.15377000000000002,0.712638,0.412541,-0.21796999999999997,0.10896700000000001,0.21389699999999998
272,-0.233552,-1.3315,2.242522,-0.054853,0.971505,-0.23057800000000003,-0.071848,-0.192799,0.329872,-0.675814,0.012931,-0.11514100000000001
273,-0.23459899999999997,-1.322573,2.25055,-0.057108000000000006,0.96935,-0.238946,0.690326,-0.474228,-0.280808,-1.128836,0.24738600000000002,-0.118476
274,-0.290636,-1.319776,2.204759,-0.07117799999999999,0.968659,-0.23797,-0.745554,-0.583803,-0.670984,-0.690617,0.17549,0.343622
275,-0.428167,-1.3328520000000001,2.067126,-0.09786399999999999,0.971825,-0.214423,-1.182303,0.191977,-1.953691,-0.45949399999999996,0.213509,0.289923
276,-0.6934100000000001,-1.336818,1.781996,-0.14818499999999998,0.9727520000000001,-0.178303,-2.436583,0.8749530000000001,-3.0294119999999998,-0.384743,0.480541,0.190098
277,-0.9948629999999999,-1.3208719999999998,1.442294,-0.20742600000000003,0.968931,-0.134697,-2.447996,1.3757469999999998,-3.314281,-0.285966,0.783037,0.296898
278,-1.2347139999999999,-1.289298,1.1929809999999998,-0.262248,0.9606399999999999,-0.091612,-2.091313,-0.771241,-2.444847,-0.010259,1.291801,-0.144746
279,-1.407843,-1.264946,1.031051,-0.29711,0.953591,-0.048848,-1.9050779999999998,-0.583122,-1.433249,0.21723,1.389518,-0.347667
280,-1.5229709999999999,-1.2423030000000002,0.901315,-0.32224200000000003,0.94653,-0.015423,-1.990386,0.894537,-1.389805,0.5904159999999999,0.799747,0.175427
281,-1.6209360000000002,-1.208387,0.775461,-0.354077,0.9350450000000001,0.017768,-2.129577,0.800992,-1.851061,0.579526,0.5615979999999999,0.338524
282,-1.7118509999999998,-1.1666239999999999,0.68365,-0.389347,0.919428,0.055286,-1.7706369999999998,-0.866974,-1.959648,0.334308,0.264623,0.00021
283,-1.7900009999999997,-1.1176190000000001,0.62269,-0.42734300000000003,0.8990600000000001,0.095205,-1.607717,-1.094983,-2.356664,0.16477,-0.011563,-0.21101999999999999
284,-1.827186,-1.063609,0.5979399999999999,-0.46984,0.874114,0.123173,-0.972102,-0.8122229999999999,-2.4903869999999997,0.21214899999999998,-0.37296999999999997,-0.21709099999999998
285,-1.8632,-1.01573,0.59424,-0.504627,0.849865,0.151909,-0.602973,-2.139009,-2.148551,0.289097,-0.384472,-0.222023
286,-1.9099720000000002,-0.9747899999999999,0.596549,-0.529359,0.827584,0.186763,-0.607113,-2.496112,-1.8201779999999999,0.46214399999999994,-0.499871,-0.291148
287,-1.961445,-0.942534,0.595619,-0.543457,0.80905,0.22380300000000003,-0.542369,-2.556896,-1.328266,0.648163,-0.777007,-0.322375
288,-2.012609,-0.9210799999999999,0.5985159999999999,-0.546868,0.796255,0.258667,-0.212614,-2.752862,-0.826852,0.594536,-0.769308,-0.337021
289,-2.060556,-0.912258,0.6079180000000001,-0.54002,0.790888,0.287873,0.239688,-2.751085,-0.332312,0.6483270000000001,-0.727548,-0.34982399999999997
290,-2.099459,-0.920016,0.623448,-0.523101,0.795612,0.305554,0.8484370000000001,-2.372586,0.3893,0.553405,-0.8021119999999999,-0.231839
291,-2.115096,-0.949398,0.6510060000000001,-0.498039,0.8130649999999999,0.301458,1.8675830000000002,-1.593927,1.1175389999999998,0.45943500000000004,-0.8216100000000001,-0.095876
292,-2.095323,-1.000666,0.6980689999999999,-0.46717600000000004,0.841831,0.270303,2.6552290000000003,-0.462416,1.7187270000000001,0.119413,-0.6626920000000001,0.368598
293,-2.061228,-1.0452110000000001,0.72914,-0.44257799999999997,0.86503,0.23631100000000002,0.90302,0.678904,1.271327,-0.22070599999999999,-0.354227,0.562349
294,-2.094621,-1.056868,0.705392,-0.42568100000000003,0.87082,0.24589499999999997,-1.080314,-1.8302439999999998,0.167897,-0.8247610000000001,2.1562189999999997,0.530396
295,-2.166983,-1.024424,0.697821,-0.42995,0.8544149999999999,0.291744,-0.47812,-3.158389,-1.7468569999999999,-0.455502,2.284791,1.1176190000000001
296,-2.1685380000000003,-0.9927159999999999,0.734861,-0.451671,0.837513,0.30751,-0.030325,-1.07738,-1.7335779999999998,-0.09795,0.800625,0.604813
297,-2.1479790000000003,-0.9716389999999999,0.7567729999999999,-0.472587,0.8258110000000001,0.307724,0.053121,1.095985,-0.7925399999999999,0.514625,-0.195654,0.401382
298,-2.098097,-0.9784299999999999,0.756257,-0.48248500000000005,0.829622,0.28095,-0.006684000000000001,3.579622,1.0016770000000002,0.37967199999999995,1.694289,-0.105901
299,-2.054951,-0.9952799999999999,0.737102,-0.481712,0.8389120000000001,0.253334,-0.025612,1.299649,0.556882,1.225517,1.038454,-0.697395
300,-2.0413919999999997,-1.010681,0.738626,-0.47353,0.847194,0.240892,0.669561,1.13791,0.97321,1.024571,-0.379695,0.0035689999999999997
301,-2.00521,-1.040102,0.7381220000000001,-0.45911899999999994,0.862456,0.21301900000000001,0.560244,2.251576,1.4869709999999998,0.611325,-0.640608,-0.026251
302,-1.9490029999999998,-1.0837,0.7377239999999999,-0.43498100000000006,0.8836959999999999,0.172833,1.217443,2.960271,2.442439,0.39919899999999997,-0.095427,-0.9050870000000001
303,-1.8620720000000002,-1.1546049999999999,0.7792319999999999,-0.387248,0.9146350000000001,0.116098,2.3730130000000003,2.167749,3.293285,0.349452,0.234306,-1.068216
304,-1.735373,-1.228807,0.8801889999999999,-0.330827,0.942089,0.05494299999999999,2.804578,1.157095,3.112792,-0.017866,0.320133,-0.112515
305,-1.593422,-1.294546,1.0239200000000002,-0.27267600000000003,0.9620850000000001,0.006171,2.088904,-0.129869,2.962028,-0.249282,0.153806,0.083414
306,-1.476258,-1.340301,1.145514,-0.227436,0.9735530000000001,-0.021566,1.217671,0.10109800000000001,1.903448,-0.427868,0.056735,0.300771
307,-1.327213,-1.361342,1.289112,-0.201783,0.978145,-0.050147000000000004,1.465819,0.716588,0.95047,-0.108795,-0.48208100000000004,0.16756300000000002
308,-1.174299,-1.361953,1.426253,-0.19124000000000002,0.9782709999999999,-0.080067,1.24569,0.9468409999999999,0.3045,0.403307,-0.6668390000000001,-0.14645
309,-1.044047,-1.356157,1.5399180000000001,-0.18412,0.9770530000000001,-0.107076,1.280805,0.913746,0.291969,0.455726,-0.566516,-0.129725
310,-0.882814,-1.3433110000000001,1.6888400000000001,-0.174225,0.9742370000000001,-0.143204,1.940908,0.818987,0.5060720000000001,0.36390700000000004,-0.239373,-0.050644
311,-0.704174,-1.325965,1.859679,-0.156925,0.9701780000000001,-0.184738,1.8601919999999998,0.390324,0.947234,0.239506,0.059134000000000006,0.20169
312,-0.575363,-1.321941,1.9814630000000002,-0.134018,0.969195,-0.206639,0.656406,0.92555,1.077008,-0.150223,-0.0040149999999999995,0.636479
313,-0.45278500000000005,-1.322547,2.079364,-0.10748900000000002,0.9693440000000001,-0.220946,0.574679,1.453292,1.042686,-0.49006000000000005,-0.233397,0.17144700000000002
314,-0.356674,-1.320524,2.158959,-0.086475,0.9688450000000001,-0.232078,0.445133,0.60051,0.763,-0.330349,-0.136188,-0.052345
315,-0.283058,-1.313183,2.224834,-0.071156,0.967001,-0.24463200000000002,0.683533,0.5608569999999999,0.616233,-0.222759,0.07313,0.145847
316,-0.228046,-1.307721,2.270953,-0.058789999999999995,0.9655950000000001,-0.253316,0.167406,0.466319,0.46319799999999994,-0.16630699999999998,0.14765599999999998,0.304143
317,-0.191987,-1.3119100000000001,2.296094,-0.048848,0.966676,-0.251298,-0.218705,0.527058,0.260666,-0.443263,0.1286,0.120301
318,-0.189711,-1.308915,2.296933,-0.048820999999999996,0.9659049999999999,-0.254251,0.482533,-0.114792,-0.207904,-0.871024,0.057227999999999994,-0.220099
319,-0.223469,-1.297807,2.271826,-0.059749000000000003,0.9629690000000001,-0.26290399999999997,0.14086700000000002,-0.6951609999999999,-0.49583,-0.68311,0.16100799999999998,0.16923
320,-0.29346700000000003,-1.310427,2.211013,-0.07446900000000001,0.9662950000000001,-0.246428,-1.232826,-0.45996000000000004,-0.84649,-0.41312600000000005,0.11002999999999999,0.227965
321,-0.45948,-1.3205069999999999,2.03825,-0.10984200000000001,0.968841,-0.221993,-1.532818,0.334509,-2.392116,-0.40392100000000003,0.23272800000000002,0.153542
322,-0.73243,-1.3232709999999999,1.738009,-0.163827,0.9695219999999999,-0.182171,-2.4169709999999998,1.426624,-3.274565,-0.369818,0.41788400000000003,0.20797399999999996
323,-1.008151,-1.302474,1.422237,-0.224244,0.964217,-0.14141700000000001,-2.272839,0.9935430000000001,-3.254843,-0.185088,1.1701059999999999,0.308242
324,-1.212086,-1.2732139999999998,1.209319,-0.274544,0.956048,-0.10293499999999998,-1.9184459999999999,-0.283881,-2.192123,0.294427,1.406531,-0.126359
325,-1.352168,-1.253581,1.061787,-0.30449499999999996,0.950108,-0.067652,-1.817923,0.395131,-1.322758,0.635625,1.28709,-0.069463
326,-1.4540600000000001,-1.233585,0.933312,-0.328602,0.943681,-0.038535,-1.9258259999999998,1.2416200000000002,-1.394031,0.7250409999999999,0.898741,0.281104
327,-1.546241,-1.210216,0.812754,-0.35270799999999997,0.935692,-0.008662000000000001,-2.0176060000000002,0.7350810000000001,-1.181447,0.45211899999999994,0.409736,0.341548
328,-1.6583,-1.181676,0.7032430000000001,-0.37792,0.925243,0.033154,-2.086721,-1.131183,-1.678398,0.06644299999999999,-0.197216,-0.210812
329,-1.756562,-1.131212,0.622306,-0.41823999999999995,0.9049290000000001,0.078601,-1.7218939999999998,-1.003487,-2.4921349999999998,0.077374,-0.33810999999999997,-0.12262200000000001
330,-1.788425,-1.079895,0.600498,-0.46029899999999996,0.881908,0.101786,-0.648479,-0.561591,-2.3089470000000003,0.203493,-0.386303,-0.18879200000000002
331,-1.816586,-1.035074,0.599275,-0.495119,0.8599,0.124207,-0.567168,-1.967798,-2.102546,0.34172199999999997,-0.5322479999999999,-0.319809
332,-1.8726900000000002,-0.993894,0.593477,-0.5207609999999999,0.8381559999999999,0.162171,-0.779621,-2.663831,-1.8168549999999999,0.46466999999999997,-0.571448,-0.396638
333,-1.934168,-0.959899,0.5849409999999999,-0.536147,0.819134,0.203874,-0.748401,-2.836306,-1.336784,0.6781,-0.732891,-0.399003
334,-1.9963650000000002,-0.9367690000000001,0.580303,-0.539554,0.8056479999999999,0.244563,-0.424626,-2.923652,-0.8205959999999999,0.704669,-0.7618550000000001,-0.316264
335,-2.048161,-0.928583,0.584665,-0.5320090000000001,0.800772,0.27519,0.198142,-2.6013029999999997,-0.18854400000000002,0.686398,-0.758108,-0.3327
336,-2.0790189999999997,-0.9406479999999999,0.602581,-0.514787,0.80794,0.28675100000000003,1.138232,-2.040921,0.582151,0.470567,-0.777163,-0.170647
337,-2.082744,-0.977234,0.640216,-0.487608,0.8289540000000001,0.273996,2.253427,-1.4884549999999999,1.315624,0.255842,-0.721303,0.089972
338,-2.0544860000000003,-1.025842,0.693866,-0.458912,0.855151,0.241071,2.215235,-0.376634,1.430368,0.039219,-0.6125970000000001,0.275225
339,-2.0437990000000004,-1.056801,0.703427,-0.43767700000000004,0.8707870000000001,0.22398099999999999,0.20308099999999998,0.10641600000000001,1.1903,-0.430777,0.218324,0.692569
340,-2.120543,-1.0523049999999998,0.654061,-0.42255,0.868568,0.258921,-1.555149,-2.9075,-0.41724799999999995,-0.632366,2.728386,1.067282
341,-2.1762919999999997,-1.024045,0.653658,-0.427483,0.854218,0.295919,-0.418087,-2.132698,-1.488134,-0.30441999999999997,2.0801689999999997,1.24383
342,-2.175561,-1.000041,0.67881,-0.44444300000000003,0.841493,0.307179,-0.027979,-0.629366,-1.084616,-0.016662,-0.183794,0.30006
343,-2.14204,-0.988851,0.6955899999999999,-0.46238100000000004,0.8353950000000001,0.297183,0.282339,2.065516,-0.488766,0.15545,0.516137,0.248898
344,-2.061754,-0.9980110000000001,0.701607,-0.477958,0.8403950000000001,0.255525,0.396216,4.470681,0.7993600000000001,0.48140600000000006,2.434691,-0.6467149999999999
345,-2.008195,-1.009617,0.71506,-0.482083,0.846628,0.225425,0.600144,0.572447,0.18834700000000001,1.112897,1.853934,-1.09629
346,-1.979442,-1.024032,0.7264,-0.47711499999999996,0.8542120000000001,0.20660100000000003,0.362198,1.3094729999999999,0.696351,0.735995,-0.781854,-0.22208899999999998
347,-1.9566189999999999,-1.042297,0.7136600000000001,-0.467171,0.8635649999999999,0.189756,0.090049,2.033832,1.2052,0.700645,-0.28565300000000005,-0.23324299999999998
348,-1.9005849999999997,-1.085793,0.72832,-0.44108800000000004,0.8846729999999999,0.15098,1.8176,2.127281,2.443466,0.571856,-0.185683,-0.776621
349,-1.79502,-1.153858,0.798719,-0.394826,0.914333,0.090044,2.579641,1.945903,2.917971,0.29691,0.433567,-0.815996
350,-1.654885,-1.218304,0.9213389999999999,-0.344018,0.938515,0.028995999999999997,2.708082,1.0093969999999999,2.838883,0.143624,0.609169,-0.537297
351,-1.540186,-1.274558,1.029896,-0.29178699999999996,0.956441,-0.008934000000000001,1.23787,0.306996,2.611596,-0.382102,0.188197,0.203347
352,-1.450987,-1.316327,1.122054,-0.249927,0.9677969999999999,-0.030088,1.1862469999999998,-0.023382,1.8938139999999999,-0.322919,-0.04519,0.122571
353,-1.319409,-1.340386,1.252219,-0.22119899999999998,0.9735729999999999,-0.056808000000000004,1.2959049999999999,0.444449,1.2231370000000001,0.152718,-0.535829,-0.006455
354,-1.200982,-1.34982,1.3644969999999998,-0.20436400000000002,0.975684,-0.079222,0.937775,0.416074,0.638491,0.311969,-0.591635,-0.058779
355,-1.08555,-1.351599,1.472582,-0.19234400000000001,0.9760719999999999,-0.101422,1.176505,0.5443520000000001,0.586583,0.455222,-0.543135,-0.08256799999999999
356,-0.921824,-1.345995,1.625425,-0.177596,0.9748379999999999,-0.134721,1.7918900000000002,0.8644639999999999,0.719726,0.41537299999999994,-0.26527399999999995,-0.00926
357,-0.7387819999999999,-1.333974,1.7987009999999999,-0.157986,0.972088,-0.173448,1.721022,0.530308,0.962146,0.23777399999999999,-0.030011000000000003,0.14199900000000001
358,-0.604478,-1.329864,1.928241,-0.13560899999999998,0.971116,-0.196326,0.7925449999999999,0.625586,1.11684,-0.034083999999999996,-0.092057,0.519126
359,-0.478333,-1.331126,2.033718,-0.109267,0.971416,-0.21073899999999998,0.502767,1.367218,1.051908,-0.42578299999999997,-0.2225,0.222167
360,-0.382536,-1.332014,2.109886,-0.088287,0.971627,-0.21942399999999998,0.267449,0.8794350000000001,0.695172,-0.388459,-0.16346,0.045047000000000004
361,-0.31362199999999996,-1.330039,2.1650419999999997,-0.073559,0.971158,-0.226807,0.389316,0.790103,0.551928,-0.278873,-0.078915,0.143036
362,-0.24997800000000003,-1.323849,2.216295,-0.060472000000000005,0.9696629999999999,-0.23684699999999997,0.48562799999999995,0.546108,0.480274,-0.342437,0.148714,0.168793
363,-0.20649,-1.3191959999999998,2.256011,-0.051042000000000004,0.968515,-0.24366500000000002,0.193428,0.03499,0.41372600000000004,-0.5000140000000001,0.185583,0.126554
364,-0.190211,-1.31513,2.284146,-0.047813,0.9674950000000001,-0.24833000000000002,0.44599700000000003,-0.7691020000000001,0.147329,-0.736367,0.130695,-0.0038979999999999996
365,-0.22409,-1.304195,2.265101,-0.058544000000000006,0.964672,-0.256867,0.243223,-0.8091109999999999,-0.588939,-0.9612,0.250492,0.087403
366,-0.321499,-1.3151959999999998,2.186242,-0.07989,0.967512,-0.23987199999999997,-1.184045,-1.033236,-1.1113680000000001,-0.277715,0.113192,0.011173
367,-0.511605,-1.3227950000000002,1.999436,-0.120175,0.969405,-0.21403699999999998,-1.502147,-0.16960699999999998,-2.354902,-0.207752,0.43846199999999996,0.097856
368,-0.772003,-1.325918,1.711487,-0.16911800000000002,0.970167,-0.17371099999999998,-2.511589,1.631063,-2.8994400000000002,-0.161616,0.596774,0.385427
369,-1.038278,-1.3090389999999998,1.405702,-0.222946,0.965937,-0.131383,-2.352417,0.9169649999999999,-2.946551,-0.162888,0.8985799999999999,0.353124
370,-1.2476209999999999,-1.281565,1.1907459999999999,-0.270451,0.958463,-0.09057799999999999,-1.9922819999999999,-0.501228,-2.116483,0.245731,1.128344,-0.11701700000000001
371,-1.398994,-1.261716,1.038324,-0.299705,0.952614,-0.052003,-1.907362,0.059472000000000004,-1.217165,0.546653,1.028694,-0.085632
372,-1.513854,-1.2404700000000002,0.902971,-0.323826,0.945937,-0.018459,-2.0600709999999998,0.988768,-1.444818,0.692601,0.816484,0.145046
373,-1.6153469999999999,-1.2110040000000002,0.7812060000000001,-0.35173000000000004,0.9359700000000001,0.01568,-1.965071,0.05205,-1.441885,0.475235,0.479649,0.221487
374,-1.726107,-1.172207,0.686632,-0.383448,0.921609,0.060037,-1.9917200000000002,-1.674605,-1.9899930000000001,0.089167,0.176901,-0.117547
375,-1.816691,-1.123605,0.620659,-0.41942700000000005,0.9016649999999999,0.10526500000000001,-1.5503200000000001,-1.1239430000000001,-2.0848240000000002,0.100488,-0.107491,-0.13433299999999998
376,-1.85493,-1.0794920000000001,0.596498,-0.45286000000000004,0.881718,0.132251,-0.864944,-0.9116129999999999,-1.964941,0.24444000000000002,-0.32903000000000004,-0.1599
377,-1.8893369999999998,-1.037384,0.594268,-0.48289499999999996,0.8610770000000001,0.159245,-0.6481899999999999,-2.075585,-1.9800950000000002,0.32702600000000004,-0.393502,-0.319675
378,-1.9409759999999998,-0.9991129999999999,0.589769,-0.5043989999999999,0.840992,0.195742,-0.778641,-2.4612700000000003,-1.5874059999999999,0.563237,-0.594684,-0.44174399999999997
379,-1.9939099999999998,-0.96999,0.585203,-0.515456,0.82488,0.232116,-0.5854090000000001,-2.4064389999999998,-1.081926,0.694793,-0.922292,-0.32113600000000003
380,-2.038806,-0.9544239999999999,0.585384,-0.515917,0.8159810000000001,0.260778,-0.154887,-2.1631810000000002,-0.484231,0.675829,-0.9360370000000001,-0.29125
381,-2.073763,-0.9545969999999999,0.591789,-0.506364,0.8160810000000001,0.278582,0.373699,-1.867293,0.186721,0.648042,-0.906184,-0.281695
382,-2.094239,-0.9735860000000001,0.608733,-0.487043,0.826908,0.281093,1.2541870000000002,-1.63644,0.83244,0.368284,-0.8314090000000001,-0.021037
383,-2.0910130000000002,-1.013112,0.645211,-0.45921300000000004,0.848483,0.26306,2.177864,-1.15393,1.377726,0.340454,-0.852984,-0.0030039999999999997
384,-2.065271,-1.058973,0.691609,-0.43110200000000004,0.8718530000000001,0.232429,1.8165740000000001,-0.311283,1.421124,0.012386,-0.581326,0.293221
385,-2.061815,-1.085437,0.684412,-0.411408,0.884508,0.219979,-0.468311,0.387278,1.069916,-0.583557,1.3844290000000001,0.647545
386,-2.147001,-1.064237,0.634296,-0.40683400000000003,0.8744190000000001,0.264344,-1.379976,-3.3218360000000002,-1.1108719999999999,-0.7319140000000001,2.86728,0.960616
387,-2.177466,-1.02985,0.651838,-0.423055,0.8572219999999999,0.293589,-0.408017,-1.13988,-2.020209,-0.23115,1.391069,0.967184
388,-2.14267,-0.994714,0.6771,-0.458067,0.8386030000000001,0.294819,-0.21134099999999997,1.730922,-1.363421,0.380919,-0.34019,0.109508
389,-2.080782,-0.990189,0.678084,-0.478732,0.8361299999999999,0.26777399999999996,-0.264207,4.007276,0.579593,0.182055,0.85816,0.132098
390,-2.043877,-0.991276,0.6651100000000001,-0.487476,0.836725,0.24951399999999999,-0.24716999999999997,0.415828,-0.39845,0.8898959999999999,2.595556,-1.119524
391,-2.035658,-0.991086,0.675399,-0.48965200000000003,0.836621,0.24556999999999998,0.389579,0.614201,0.322521,0.793134,-1.2305270000000001,-0.171931
392,-2.025303,-1.00973,0.655158,-0.47807,0.8466879999999999,0.23359699999999997,-0.107626,1.719339,1.439265,0.663098,-0.7033010000000001,0.033111
393,-1.982115,-1.053455,0.661334,-0.45332,0.869137,0.197738,1.8588240000000003,1.7957509999999999,2.202794,0.33961199999999997,-0.425839,-0.90628
394,-1.8975970000000002,-1.124975,0.7169220000000001,-0.408377,0.902257,0.13842100000000002,2.656,1.673821,3.230807,0.23905,0.41775,-0.772149
395,-1.813148,-1.200872,0.791818,-0.350979,0.9323549999999999,0.086766,2.18743,0.27953,3.0658830000000004,-0.087849,1.012607,0.01231
396,-1.7820650000000002,-1.261205,0.83444,-0.297896,0.952458,0.06389,1.007398,-0.8916850000000001,2.610488,-0.42708,0.310161,0.097854
397,-1.756478,-1.304051,0.884101,-0.259062,0.964634,0.048664,1.322447,-0.983118,1.494377,-0.28351,0.0045130000000000005,-0.009845
398,-1.636907,-1.325403,1.007802,-0.242407,0.970042,0.016049,1.846357,0.682884,0.5312979999999999,0.019201,-0.40831999999999996,0.143344
399,-1.469119,-1.329569,1.159533,-0.23765999999999998,0.971045,-0.024248,1.738016,0.923258,0.187334,0.244481,-0.569922,0.097323
400,-1.32762,-1.333707,1.289169,-0.227963,0.9720260000000001,-0.05655399999999999,1.346591,0.759538,0.709306,0.652783,-0.616252,0.092763
401,-1.174899,-1.3424040000000002,1.429449,-0.208898,0.974032,-0.087312,1.502653,0.8463709999999999,0.9698629999999999,0.350484,-0.337954,-0.005354
402,-0.980728,-1.344789,1.60944,-0.186194,0.974569,-0.12468599999999999,1.817564,1.031113,1.117104,0.037879,0.005549,-0.0044340000000000004
403,-0.776756,-1.341543,1.8027060000000001,-0.159295,0.973836,-0.162073,1.726218,0.426396,1.3725459999999998,0.149805,-0.037114999999999995,0.17428
404,-0.596075,-1.338592,1.990343,-0.129191,0.9731620000000001,-0.190437,1.265267,-0.24959800000000001,1.657544,0.05205800000000001,-0.26761,0.259438
405,-0.436961,-1.338826,2.15125,-0.097289,0.9732149999999999,-0.20829499999999998,0.691155,0.524258,1.5061959999999999,-0.056718,-0.30594899999999997,0.320447
406,-0.311104,-1.339913,2.257073,-0.070049,0.9734649999999999,-0.217852,0.266863,1.407066,0.8857370000000001,-0.288929,-0.173706,0.233263
407,-0.24345,-1.336671,2.2937380000000003,-0.055922,0.9727180000000001,-0.22515100000000002,0.313337,1.668009,0.059992,-0.37516900000000003,-0.057633000000000004,0.191002
408,-0.21692399999999998,-1.33257,2.293457,-0.050789,0.971758,-0.230449,0.09449400000000001,0.901874,0.033808,-0.400505,0.050489,0.07612100000000001
409,-0.197473,-1.327655,2.317735,-0.047234,0.9705870000000001,-0.236073,0.559701,-0.7529359999999999,0.27205,-0.545295,0.063319,-0.06263300000000001
410,-0.20558600000000002,-1.314718,2.325231,-0.051705999999999995,0.967391,-0.247954,0.36404000000000003,-0.692481,-0.290211,-1.121847,0.474443,0.09892100000000001
411,-0.293215,-1.322088,2.2527209999999998,-0.071146,0.969231,-0.235646,-0.763239,-0.831752,-1.2464870000000001,-0.655356,0.267646,0.06804299999999999
412,-0.482641,-1.320315,2.063831,-0.115041,0.968793,-0.219556,-1.1074760000000001,0.014411000000000002,-2.627982,-0.502039,0.613085,-0.027346
413,-0.7669050000000001,-1.321413,1.756015,-0.171261,0.969065,-0.177715,-2.770627,1.145263,-3.198661,-0.287068,0.896841,0.315761
414,-1.0647440000000001,-1.306353,1.420748,-0.22861199999999998,0.9652379999999999,-0.126694,-2.882473,1.050429,-3.095703,-0.049037,0.8678459999999999,0.484558
415,-1.309324,-1.278337,1.1710690000000001,-0.278508,0.9575379999999999,-0.074528,-2.54003,-0.872033,-2.149709,0.41112200000000004,1.315503,-0.293529
416,-1.482536,-1.2560559999999998,1.000416,-0.30836399999999997,0.9508770000000001,-0.027287,-2.118423,0.038071,-1.274124,0.790008,1.2500360000000001,-0.374446
417,-1.579858,-1.234319,0.875969,-0.33014899999999997,0.943924,0.0029920000000000003,-1.986474,1.457335,-1.201314,0.826151,0.6883239999999999,0.05815
418,-1.674041,-1.20357,0.755784,-0.357115,0.933327,0.037002,-2.1734400000000003,0.382221,-1.50889,0.47926199999999997,0.314278,0.27632199999999996
419,-1.7644830000000002,-1.161417,0.6630229999999999,-0.39059499999999997,0.9173680000000001,0.076614,-1.953511,-0.38964899999999997,-2.078932,0.12223900000000001,0.226248,0.01706
420,-1.813857,-1.1088280000000001,0.613096,-0.432608,0.895177,0.107271,-1.336328,-0.089159,-2.367699,0.040060000000000005,-0.103795,-0.176332
421,-1.8457400000000002,-1.058373,0.593386,-0.47187399999999996,0.871559,0.13310999999999998,-0.9900969999999999,-1.325278,-2.301739,0.18195699999999998,-0.414513,-0.34684
422,-1.900236,-1.011798,0.5826399999999999,-0.501816,0.8477870000000001,0.17157,-0.9623209999999999,-2.65826,-1.979371,0.296738,-0.553124,-0.45977799999999996
423,-1.96623,-0.9740129999999999,0.569006,-0.518614,0.827148,0.21648,-1.014865,-2.653853,-1.4381549999999999,0.5783520000000001,-0.929092,-0.489368
424,-2.024182,-0.947124,0.5573560000000001,-0.525015,0.811739,0.255807,-0.698822,-2.283273,-0.879878,0.7497159999999999,-1.113207,-0.341973
425,-2.071391,-0.9329350000000001,0.555254,-0.522411,0.8033710000000001,0.285798,-0.187722,-2.3197900000000002,-0.45004099999999997,0.692103,-0.9424389999999999,-0.37149099999999996
426,-2.1120669999999997,-0.930899,0.563617,-0.511757,0.802157,0.307647,0.39615900000000004,-2.364839,-0.080573,0.656227,-0.809329,-0.435958
427,-2.136669,-0.943707,0.5850380000000001,-0.49532,0.809739,0.314608,1.208281,-1.849694,0.39232100000000003,0.5221600000000001,-0.7576609999999999,-0.156771
428,-2.124632,-0.976331,0.627815,-0.476342,0.828448,0.294567,2.342175,-0.683858,0.9008120000000001,0.449471,-0.745395,0.046299
429,-2.068021,-1.0168709999999999,0.688595,-0.46233100000000005,0.8504659999999999,0.250909,2.172132,0.856183,0.868808,-0.048365,-0.537142,0.510947
430,-2.039818,-1.040838,0.703657,-0.45090699999999995,0.862828,0.22849099999999997,0.14881,0.33778400000000003,0.926911,-0.8624930000000001,1.157191,0.508249
431,-2.092675,-1.033742,0.673499,-0.44350200000000006,0.8592190000000001,0.25504,-0.897438,-2.375998,-0.696344,-0.862635,2.240314,0.73347
432,-2.12684,-1.0067629999999999,0.6895399999999999,-0.45406,0.8451059999999999,0.282177,-0.142285,-2.2032220000000002,-1.666578,-0.262493,1.9268669999999999,0.9488260000000001
433,-2.141681,-0.978628,0.71872,-0.46964799999999995,0.829732,0.301616,-0.041013,-1.8026959999999999,-1.483718,0.076277,-0.75353,0.221532
434,-2.121882,-0.9673649999999999,0.741904,-0.483459,0.823393,0.297134,0.676662,1.65441,-0.3145,0.176956,-1.015318,0.308106
435,-2.022688,-0.9924059999999999,0.772696,-0.4918,0.8373440000000001,0.238715,1.504704,4.765048,1.354792,-0.107931,0.902692,0.283273
436,-1.952479,-1.016636,0.7894770000000001,-0.488359,0.8503430000000001,0.19601,0.25769200000000003,0.151565,0.24958899999999998,1.68445,0.976195,-0.46096400000000004
437,-1.968605,-1.0213079999999999,0.785918,-0.48146700000000003,0.852792,0.202318,-0.103308,0.131359,0.553673,0.6034149999999999,-0.74035,0.172011
438,-1.9756259999999999,-1.0390030000000001,0.757571,-0.46608900000000003,0.861899,0.199718,-0.26133,1.1672280000000002,1.383386,0.429575,-0.329917,0.178974
439,-1.9529040000000002,-1.080928,0.748987,-0.43657399999999996,0.882395,0.175441,1.2169530000000002,1.622409,2.420758,0.344198,-0.055826,-0.969219
440,-1.88263,-1.146079,0.789008,-0.39218800000000004,0.9111549999999999,0.126422,2.214849,1.652369,2.853911,0.287788,0.43273199999999995,-0.739139
441,-1.776285,-1.213784,0.880921,-0.342121,0.936945,0.071309,2.737358,0.6417390000000001,2.8545830000000003,0.195774,0.41653999999999997,-0.551259
442,-1.63564,-1.27825,1.026615,-0.28778200000000004,0.957513,0.018687,2.631087,0.005145,2.836497,-0.06504700000000001,0.145835,-0.098079
443,-1.476484,-1.32579,1.185708,-0.241481,0.9701360000000001,-0.022841999999999998,1.636902,0.438958,2.03958,-0.40244,-0.08431699999999999,0.443817
444,-1.358477,-1.352671,1.3055809999999999,-0.211536,0.976305,-0.0456,0.9447620000000001,-0.27775700000000003,1.254794,-0.365506,-0.281206,0.33405300000000004
445,-1.2768700000000002,-1.3639270000000001,1.399284,-0.19658399999999998,0.9786790000000001,-0.059504999999999995,0.8197469999999999,-0.483544,0.612183,0.23627199999999998,-0.559596,-0.094899
446,-1.16949,-1.365823,1.507984,-0.187367,0.979066,-0.079506,1.169876,0.519634,0.38688,0.431004,-0.45137200000000005,-0.127891
447,-0.995381,-1.360077,1.6599959999999998,-0.175479,0.977881,-0.113822,1.713184,1.506509,0.607328,0.488055,-0.29621,0.045661
448,-0.79787,-1.351502,1.838689,-0.155729,0.976051,-0.151893,1.648411,0.736204,0.9571709999999999,0.341566,-0.047126999999999995,0.1706
449,-0.640841,-1.344044,1.991484,-0.134409,0.974402,-0.18020799999999998,1.274211,0.446193,1.078843,0.045008,-0.070776,0.40259
450,-0.489937,-1.3360049999999999,2.1288270000000002,-0.109472,0.972563,-0.205271,1.122239,1.0560479999999999,1.081272,-0.39335,-0.112898,0.331964
451,-0.387063,-1.326436,2.215518,-0.091323,0.970292,-0.224036,0.690459,0.7372920000000001,0.45055,-0.491364,-0.074037,0.165976
452,-0.354462,-1.317639,2.2375950000000002,-0.086931,0.968126,-0.23489000000000002,0.470109,0.5983390000000001,-0.040056,-0.431608,-0.16198900000000002,0.210842
453,-0.336117,-1.308058,2.243492,-0.085663,0.9656819999999999,-0.245191,0.434697,0.501728,-0.091455,-0.340316,-0.099303,0.22695700000000002
454,-0.322614,-1.3056219999999998,2.25763,-0.08309,0.965047,-0.248556,0.013595,-0.401969,0.35862,-0.288873,-0.019933000000000003,0.16078699999999999
455,-0.313691,-1.30218,2.288728,-0.08189400000000001,0.964139,-0.252445,0.6241329999999999,-1.083726,0.091362,-0.820008,0.326434,-0.164166
456,-0.344916,-1.287261,2.267254,-0.09458899999999999,0.9600719999999999,-0.26327399999999995,0.166219,-0.3075,-0.752454,-0.8494120000000001,0.490871,0.124083
457,-0.448374,-1.298244,2.165413,-0.116694,0.963087,-0.242581,-1.321755,-0.241883,-1.48505,-0.181738,0.152621,0.183545
458,-0.636077,-1.2985659999999999,1.9606439999999998,-0.159726,0.963174,-0.216295,-1.8776599999999999,0.8899379999999999,-2.72418,-0.24464699999999998,0.550987,0.221712
459,-0.9085489999999999,-1.295864,1.644697,-0.214092,0.9624440000000001,-0.16693,-3.168333,2.030226,-3.313632,-0.202931,0.6312300000000001,0.34710599999999997
460,-1.1592719999999999,-1.2717610000000001,1.344653,-0.27000100000000005,0.9556209999999999,-0.11784000000000001,-2.8254639999999998,1.2617690000000001,-2.980172,-0.02367,0.8620209999999999,0.320996
461,-1.354041,-1.243493,1.144847,-0.31396599999999997,0.9469129999999999,-0.06914,-2.346175,-0.83999,-1.8065639999999998,0.415117,1.296557,-0.283704
462,-1.500717,-1.2262819999999999,0.9961700000000001,-0.336909,0.9412389999999999,-0.023649,-2.275902,0.37214899999999995,-1.033166,0.701441,1.066817,-0.259279
463,-1.596074,-1.202735,0.861259,-0.35969,0.933027,0.009094,-2.355985,1.9385970000000001,-1.3529950000000002,0.718348,0.648135,0.309235
464,-1.674885,-1.1667299999999998,0.752891,-0.39103000000000004,0.9194700000000001,0.040849,-2.004648,0.262893,-1.9166869999999998,0.23925100000000002,0.36994299999999997,0.243498
465,-1.7557580000000002,-1.117053,0.677602,-0.430854,0.898813,0.080613,-1.848797,-0.812042,-2.299849,-0.027427999999999998,0.163855,-0.125169
466,-1.807706,-1.067999,0.63108,-0.468416,0.876238,0.113096,-1.3368280000000001,-0.42998000000000003,-2.115133,0.153231,-0.33461199999999997,-0.21627600000000002
467,-1.8402779999999999,-1.022577,0.6158020000000001,-0.502356,0.853454,0.13875099999999999,-0.713129,-1.464452,-2.100904,0.197425,-0.387283,-0.220813
468,-1.879584,-0.981499,0.618367,-0.529489,0.8313309999999999,0.168902,-0.48193500000000006,-2.2629799999999998,-1.8760759999999999,0.350244,-0.459963,-0.344073
469,-1.9258650000000002,-0.9480219999999999,0.619302,-0.546906,0.812263,0.202783,-0.533547,-2.355248,-1.402028,0.6306149999999999,-0.8431930000000001,-0.380884
470,-1.971414,-0.925725,0.617978,-0.553647,0.799057,0.234481,-0.34639000000000003,-2.137771,-0.806,0.6703,-0.923859,-0.348571
471,-2.010559,-0.9161540000000001,0.6225,-0.550942,0.793266,0.259213,0.11725,-2.249916,-0.336873,0.732216,-0.915061,-0.30906300000000003
472,-2.045768,-0.919256,0.6373340000000001,-0.539284,0.795151,0.27731999999999996,0.723008,-2.299756,0.14598599999999998,0.607155,-0.9279629999999999,-0.305579
473,-2.0594360000000003,-0.9425870000000001,0.6692600000000001,-0.5189199999999999,0.809081,0.27588,1.857689,-1.6982990000000002,0.8656450000000001,0.556884,-0.955031,-0.180649
474,-2.033801,-0.988632,0.727545,-0.491943,0.835275,0.24557600000000002,2.740902,-0.7107600000000001,1.4238879999999998,0.41000299999999995,-0.8707969999999999,0.060057000000000006
475,-1.9933880000000002,-1.030817,0.771778,-0.46889,0.857719,0.210853,1.247231,0.6391020000000001,1.347631,-0.559171,0.290398,0.567346
476,-2.017759,-1.045181,0.74415,-0.452455,0.865016,0.21686799999999998,-1.473433,-1.100805,0.322455,-0.689909,1.2456260000000001,0.547506
477,-2.091929,-1.0145950000000001,0.7170949999999999,-0.457879,0.849267,0.262853,-0.8281350000000001,-2.510306,-1.531005,-0.712043,3.240928,1.1038459999999999
478,-2.102635,-0.9803780000000001,0.739146,-0.479812,0.830708,0.282316,-0.24951199999999998,-0.9605,-1.723366,-0.187134,-0.46934899999999996,0.25869899999999996
479,-2.0890470000000003,-0.9580350000000001,0.754434,-0.499605,0.818063,0.284896,0.099018,1.1085180000000001,-0.7579100000000001,0.138796,-1.026681,0.020569999999999998
480,-2.015145,-0.969701,0.7782319999999999,-0.510625,0.824717,0.24311100000000002,1.113241,3.869079,0.916336,0.020574000000000002,1.625051,0.007423999999999999
481,-1.9304849999999998,-0.9913379999999999,0.7944319999999999,-0.512528,0.836759,0.192735,0.692769,2.175386,0.192383,1.184007,1.309847,-0.9668129999999999
482,-1.903475,-0.996347,0.8177979999999999,-0.513579,0.839491,0.177452,0.6927369999999999,0.32584,0.249232,0.697539,-0.8135359999999999,0.092583
483,-1.8981919999999999,-1.01179,0.808114,-0.502173,0.8477819999999999,0.170547,-0.24998,0.80609,1.112633,0.6785640000000001,-0.555104,0.135697
484,-1.881154,-1.046283,0.7992239999999999,-0.476865,0.865568,0.15294100000000002,0.8688540000000001,1.475755,2.10449,0.313352,-0.126249,-0.9089379999999999
485,-1.8103630000000002,-1.1066690000000001,0.837141,-0.43485799999999997,0.8942129999999999,0.106217,1.993775,2.100446,2.882803,0.31954699999999997,0.47762899999999997,-0.699311
486,-1.699412,-1.171015,0.9232389999999999,-0.386002,0.9211459999999999,0.049922,2.6122419999999997,1.186931,2.756903,0.211121,0.650097,-0.514353
487,-1.5587469999999999,-1.228107,1.060763,-0.335996,0.9418540000000001,-0.0040490000000000005,2.45323,0.38565,2.676702,-0.071276,0.31428,-0.089137
488,-1.4335950000000002,-1.273356,1.18421,-0.290319,0.95609,-0.040083999999999995,1.4155469999999999,0.433954,2.153441,-0.310054,-0.027104000000000003,0.329253
489,-1.321258,-1.301316,1.2938,-0.257984,0.963909,-0.065747,1.201965,0.32702600000000004,1.374421,-0.152249,-0.30047199999999996,0.168622
490,-1.2206860000000002,-1.314426,1.394067,-0.23818699999999998,0.967317,-0.086975,0.966147,0.04866,0.8625200000000001,0.2021,-0.47343500000000005,-0.011627
491,-1.1279620000000001,-1.320341,1.486877,-0.223938,0.9688,-0.106202,0.9888049999999999,0.367952,0.6496930000000001,0.414444,-0.45553999999999994,-0.004546
492,-1.002184,-1.3200610000000002,1.601112,-0.209075,0.96873,-0.133602,1.446925,0.991453,0.706573,0.44132899999999997,-0.380977,0.002239
493,-0.845893,-1.314109,1.739496,-0.19004300000000002,0.9672360000000001,-0.168337,1.527134,1.003126,0.9143540000000001,0.32152800000000004,-0.10120900000000001,0.090639
494,-0.709073,-1.30956,1.8689080000000002,-0.16817000000000001,0.9660709999999999,-0.196021,1.221847,0.43037,1.088143,0.056415,-0.107017,0.274864
495,-0.57582,-1.306462,1.995875,-0.142266,0.965267,-0.21913600000000003,1.084279,0.633554,1.278134,-0.22544099999999997,-0.23109000000000002,0.32050100000000004
496,-0.455849,-1.300194,2.109273,-0.117677,0.9636100000000001,-0.24001599999999998,0.9062520000000001,0.387086,0.997332,-0.393706,-0.171572,0.184535
497,-0.39007600000000003,-1.292923,2.173258,-0.10430899999999999,0.961641,-0.253705,0.622111,0.24536999999999998,0.453941,-0.32724000000000003,-0.039888,0.274075
498,-0.346219,-1.282269,2.206004,-0.096557,0.958664,-0.267656,0.6534310000000001,0.721663,0.13201400000000002,-0.311784,0.029602,0.330904
499,-0.31816500000000003,-1.275616,2.225954,-0.091004,0.95675,-0.276312,0.18574300000000002,0.283901,0.25429,-0.29283000000000003,0.1119,0.292593
500,-0.297163,-1.276182,2.257648,-0.085023,0.9569139999999999,-0.277644,0.284078,-0.914559,0.44131499999999996,-0.7333970000000001,0.162654,-0.08641599999999999
501,-0.304292,-1.264883,2.2669099999999998,-0.09023400000000001,0.953572,-0.287329,0.508544,-0.681978,-0.37246799999999997,-0.9311889999999999,0.47516899999999995,0.133917
502,-0.366779,-1.271924,2.212591,-0.10559,0.9556690000000001,-0.274859,-1.314808,-0.40226999999999996,-0.8075100000000001,-0.67743,0.396122,0.27402
503,-0.504035,-1.28074,2.06685,-0.13813,0.9582280000000001,-0.250438,-1.224149,0.696454,-2.321956,-0.106484,0.29641100000000004,0.108974
504,-0.7162069999999999,-1.286757,1.8149939999999998,-0.183982,0.959931,-0.21138099999999999,-2.889955,1.86812,-2.9738900000000004,-0.14321199999999998,0.4989,0.23504699999999998
505,-0.9663459999999999,-1.277065,1.50989,-0.23822600000000002,0.9571700000000001,-0.16454000000000002,-2.770716,1.964875,-3.296852,-0.294169,0.7213430000000001,0.351277
506,-1.18448,-1.250074,1.2710270000000001,-0.292018,0.949008,-0.11878,-2.427123,-0.403012,-2.585323,0.003169,1.134351,-0.043573
507,-1.3611950000000002,-1.228234,1.101107,-0.328549,0.941897,-0.069891,-2.2529779999999997,-0.590545,-1.394935,0.438641,1.249784,-0.309427
508,-1.479385,-1.214133,0.9626239999999999,-0.347691,0.937067,-0.031872000000000004,-2.29162,1.342827,-1.0697379999999999,0.674138,0.880301,-0.12068599999999999
509,-1.574776,-1.186994,0.829915,-0.374445,0.927248,0.00149,-2.240797,0.84883,-1.718229,0.541452,0.408995,0.30487600000000004
510,-1.681966,-1.141324,0.7316520000000001,-0.41381999999999997,0.909186,0.046195,-2.006332,-1.557801,-2.4099880000000002,0.081636,0.151117,-0.037939999999999995
511,-1.7608720000000002,-1.0866069999999999,0.668672,-0.457106,0.8850530000000001,0.08794600000000001,-1.573172,-0.660008,-2.460456,0.23918000000000003,-0.22514099999999998,-0.099589
512,-1.8013139999999999,-1.033284,0.643097,-0.498457,0.858985,0.11698199999999999,-0.9221719999999999,-1.38537,-2.5148,0.25854299999999997,-0.309898,-0.197122
513,-1.850784,-0.98388,0.638138,-0.53223,0.8326520000000001,0.153038,-0.7189180000000001,-2.596492,-2.182816,0.45108400000000004,-0.611736,-0.42575799999999997
514,-1.909387,-0.944208,0.631269,-0.553091,0.810033,0.194772,-0.8263459999999999,-2.65916,-1.603441,0.700018,-0.894093,-0.42177700000000007
515,-1.966937,-0.9177129999999999,0.623043,-0.56058,0.7942140000000001,0.234463,-0.567357,-2.475463,-0.880818,0.7322420000000001,-0.931894,-0.338696
516,-2.016649,-0.9062889999999999,0.621725,-0.556387,0.78722,0.265925,-0.066085,-2.406047,-0.294156,0.7341979999999999,-0.79601,-0.282603
517,-2.0567189999999997,-0.909695,0.629734,-0.542913,0.789316,0.286746,0.510582,-2.23336,0.24379699999999999,0.598288,-0.800135,-0.26106599999999996
518,-2.074024,-0.929328,0.651041,-0.524192,0.801218,0.288568,1.426728,-1.328817,0.750033,0.510795,-0.802484,-0.131768
519,-2.043119,-0.9699469999999999,0.6989989999999999,-0.503445,0.8248559999999999,0.257206,2.558798,0.206421,1.322131,0.156063,-0.6046560000000001,0.344097
520,-1.975686,-1.013558,0.7498060000000001,-0.486084,0.848719,0.20831999999999998,1.6423470000000002,1.6614689999999999,1.3469799999999998,-0.480179,0.046041000000000006,0.41106400000000004
521,-1.983595,-1.0327110000000002,0.732368,-0.46944300000000005,0.858692,0.205598,-1.068502,-1.161974,0.6170220000000001,-0.85351,1.865506,0.274275
522,-2.068898,-1.006341,0.703538,-0.46995200000000004,0.84488,0.255579,-0.917902,-3.122019,-1.390876,-0.988087,2.898909,0.7436119999999999
523,-2.0909419999999996,-0.9727,0.7176279999999999,-0.4886,0.8264090000000001,0.279848,-0.339316,-0.9338489999999999,-1.649217,-0.175843,-0.130166,0.402937
524,-2.072542,-0.950991,0.733766,-0.509279,0.813992,0.279376,0.162878,1.297949,-0.765149,0.316331,-0.695263,0.327177
525,-1.999746,-0.957715,0.750738,-0.5232600000000001,0.817879,0.239313,0.6363880000000001,3.8133529999999998,0.615078,0.25705500000000003,0.9033120000000001,0.110037
526,-1.9459650000000002,-0.9685290000000001,0.758644,-0.527108,0.824053,0.20758600000000002,0.22460100000000002,1.0031809999999999,0.167149,1.0746229999999999,0.5413180000000001,-0.37044299999999997
527,-1.926298,-0.979676,0.76289,-0.5224439999999999,0.830317,0.193971,0.352172,1.249654,0.756315,0.623442,-0.740503,0.279067
528,-1.906505,-1.001242,0.750627,-0.509152,0.8421420000000001,0.177651,-0.086502,1.589583,1.3755879999999998,0.487683,-0.16588699999999998,0.317893
529,-1.8761990000000002,-1.044042,0.745689,-0.479466,0.8644430000000001,0.151159,1.1203379999999998,1.629607,2.572898,0.382237,-0.035845,-0.79833
530,-1.8068380000000002,-1.1140290000000002,0.787979,-0.42881800000000003,0.897483,0.10314200000000001,2.192927,1.619108,3.202109,0.363586,0.10196799999999999,-0.835518
531,-1.6986299999999999,-1.1794120000000001,0.885129,-0.378354,0.9243819999999999,0.048632,2.769615,0.537838,2.7065259999999998,-0.0871,0.317836,-0.18268
532,-1.5632979999999999,-1.236535,1.020146,-0.328061,0.9446530000000001,-0.00246,2.178741,0.5167109999999999,2.641537,-0.298648,-0.040371,0.211765
533,-1.4638799999999998,-1.2806879999999998,1.1217059999999999,-0.284421,0.9582129999999999,-0.030525999999999998,1.174105,-0.23373200000000002,2.037277,-0.213428,-0.160392,0.112694
534,-1.374025,-1.30816,1.22827,-0.254617,0.965709,-0.050758,1.2617909999999999,-0.675343,1.309928,0.045831000000000004,-0.367381,0.060783000000000004
535,-1.281819,-1.320682,1.3329950000000002,-0.23725,0.968884,-0.070534,1.092689,-0.400868,0.7497159999999999,0.291419,-0.456296,-0.050743
536,-1.189602,-1.3247719999999998,1.432307,-0.22606700000000002,0.969888,-0.09060700000000001,1.099029,0.08678999999999999,0.5376270000000001,0.398796,-0.440821,-0.004562
537,-1.051873,-1.324209,1.558643,-0.21195999999999998,0.969751,-0.121058,1.5943040000000002,1.053652,0.7428100000000001,0.472184,-0.192179,0.06138099999999999
538,-0.8846930000000001,-1.3213110000000001,1.712034,-0.19103399999999998,0.96904,-0.15642,1.574387,0.728636,1.052871,0.197642,-0.020125999999999998,0.197161
539,-0.73418,-1.317727,1.8598310000000002,-0.167746,0.968148,-0.185874,1.388991,0.192955,1.175108,0.123419,-0.11504500000000001,0.19505899999999998
540,-0.592753,-1.312026,1.998953,-0.142953,0.966706,-0.21223699999999998,1.285843,0.542578,1.211328,-0.234092,-0.27887,0.230136
541,-0.46428400000000003,-1.3024149999999999,2.1183669999999997,-0.11873900000000001,0.964201,-0.2371,1.0930309999999999,0.616611,0.980218,-0.303762,-0.084883,0.14245
542,-0.384778,-1.292958,2.188658,-0.102951,0.961651,-0.254222,0.6677310000000001,0.698853,0.496442,-0.217087,0.047383,0.236736
543,-0.329938,-1.285858,2.223496,-0.091071,0.9596790000000001,-0.265935,0.403223,1.187578,0.25255,-0.159021,0.11837,0.234884
544,-0.28707699999999997,-1.281571,2.246228,-0.08075700000000001,0.958465,-0.273537,0.23776599999999998,0.9441510000000001,0.26559299999999997,-0.693077,0.24490399999999998,-0.055946
545,-0.26039,-1.282152,2.269039,-0.073286,0.9586309999999999,-0.27505599999999997,0.031261000000000004,-0.329383,0.310648,-0.700549,0.244738,-0.054426999999999996
546,-0.270546,-1.276885,2.271891,-0.077424,0.957118,-0.279159,0.282331,-0.620766,-0.298248,-1.0836940000000002,0.36903800000000003,0.096542
547,-0.331176,-1.283788,2.220848,-0.092046,0.959095,-0.267701,-1.1919680000000001,-0.5542,-0.74767,-0.382075,0.155834,-0.009581999999999999
548,-0.471492,-1.29473,2.0771,-0.123807,0.9621350000000001,-0.24283200000000002,-1.2473370000000001,0.339426,-2.260736,-0.22633699999999998,0.232521,0.131397
549,-0.713421,-1.301672,1.8040080000000003,-0.174002,0.9640040000000001,-0.201044,-3.051097,1.4676719999999999,-3.12295,-0.205499,0.490555,0.395685
550,-0.9976649999999999,-1.289782,1.463846,-0.233014,0.960775,-0.150386,-2.935182,2.189993,-3.505489,-0.230014,0.935176,0.21049099999999998
551,-1.2283620000000002,-1.259441,1.214119,-0.288561,0.9519190000000001,-0.10286600000000001,-2.3633439999999997,-0.6558729999999999,-2.541789,0.16555999999999998,1.298432,-0.389322
552,-1.401066,-1.234228,1.0533780000000001,-0.32550300000000004,0.943894,-0.055785,-2.0494380000000003,-0.753817,-1.499023,0.366519,1.311783,-0.450578
553,-1.510191,-1.211937,0.9259809999999999,-0.350561,0.936298,-0.021272,-2.134636,1.222394,-1.456217,0.539511,0.884243,0.25895799999999997
554,-1.602441,-1.1741620000000002,0.800447,-0.38612199999999997,0.922366,0.012223000000000001,-2.231704,0.808848,-2.1154580000000003,0.357863,0.445248,0.317764
555,-1.6925569999999999,-1.12473,0.715543,-0.428226,0.902151,0.0524,-1.798187,-1.360155,-2.4653680000000002,0.150516,0.164942,-0.122331
556,-1.76765,-1.069958,0.659172,-0.470887,0.87718,0.093912,-1.618199,-0.9368799999999999,-2.445425,0.255708,-0.204085,-0.120966
557,-1.813268,-1.01921,0.627287,-0.508709,0.8516940000000001,0.125823,-1.1441709999999998,-1.150215,-2.253834,0.317669,-0.45484399999999997,-0.195098
558,-1.856124,-0.9704520000000001,0.6210359999999999,-0.542086,0.825141,0.15901099999999999,-0.634737,-2.2862419999999997,-2.318254,0.410174,-0.5808479999999999,-0.360976
559,-1.9093830000000003,-0.928622,0.618153,-0.564933,0.800795,0.19894,-0.798726,-2.592649,-1.7421669999999998,0.634025,-0.7665850000000001,-0.44520200000000004
560,-1.9647139999999998,-0.8965639999999999,0.610374,-0.576484,0.7811859999999999,0.23961100000000002,-0.743544,-2.335172,-1.1780899999999999,0.768333,-0.9203309999999999,-0.369158
561,-2.015304,-0.877825,0.604571,-0.576746,0.769351,0.274704,-0.395887,-2.481543,-0.5740649999999999,0.808146,-0.783405,-0.424408
562,-2.067216,-0.871495,0.6073729999999999,-0.565987,0.765292,0.306573,0.126046,-2.734285,-0.159899,0.656547,-0.6910890000000001,-0.39531900000000003
563,-2.107055,-0.8806280000000001,0.617987,-0.547296,0.771139,0.325288,0.824124,-2.0457,0.461527,0.516152,-0.724539,-0.208879
564,-2.109906,-0.9128440000000001,0.645246,-0.524767,0.791246,0.31392600000000004,2.034813,-0.619142,1.237276,0.383791,-0.720827,0.127999
565,-2.06425,-0.9618909999999999,0.691018,-0.503735,0.820274,0.270925,2.320802,1.074751,1.4956129999999999,-0.179752,-0.332787,0.48002100000000003
566,-2.029389,-0.999959,0.702028,-0.48450699999999997,0.841449,0.2392,0.395152,0.9330809999999999,1.563528,-0.672948,0.704022,0.400769
567,-2.077026,-1.0060870000000002,0.662542,-0.468049,0.844744,0.259495,-1.256275,-1.9443419999999998,-0.170566,-0.677596,2.673322,0.8807940000000001
568,-2.122851,-0.9777440000000001,0.66154,-0.47586999999999996,0.829239,0.293105,-0.4665,-1.8965619999999999,-1.608256,-0.25058600000000003,1.171921,0.6806949999999999
569,-2.125914,-0.9468780000000001,0.68835,-0.496492,0.811595,0.307909,0.069966,-1.1891,-1.570164,0.029039,-0.6522479999999999,0.100965
570,-2.103572,-0.932371,0.715915,-0.513336,0.803035,0.302689,0.5984689999999999,1.312729,-0.571959,-0.038666000000000006,-1.060741,0.191299
571,-2.002845,-0.955307,0.754279,-0.524305,0.816491,0.241758,1.9375259999999999,4.3070900000000005,1.227101,0.086881,0.861274,-0.30357199999999995
572,-1.916514,-1.003323,0.769138,-0.5057010000000001,0.8432620000000001,0.182145,0.51545,1.9974610000000002,2.219984,1.407419,1.770951,-0.792573
573,-1.9638470000000001,-1.022038,0.73087,-0.48185200000000006,0.853173,0.19978800000000002,-0.411566,-0.777334,0.8326479999999999,0.093027,-0.33353499999999997,-0.047307
574,-1.965416,-1.0372860000000002,0.712961,-0.469472,0.8610270000000001,0.195519,-0.006141,1.304203,1.0165469999999999,0.172551,-0.174489,-0.10691099999999999
575,-1.932966,-1.065286,0.7087439999999999,-0.45283999999999996,0.874928,0.171573,0.710486,2.034471,1.5878430000000001,0.296178,-0.23006100000000002,-0.385562
576,-1.875631,-1.115006,0.7286699999999999,-0.419878,0.897914,0.13211099999999998,1.552632,1.8467470000000001,2.513705,0.407244,-0.312037,-0.786072
577,-1.793498,-1.175907,0.788096,-0.375205,0.9230389999999999,0.084968,2.168328,1.018613,2.616275,0.287421,0.183696,-0.60569
578,-1.693831,-1.237002,0.890756,-0.325154,0.9448059999999999,0.040208,2.426477,-0.251685,2.7810080000000004,-0.012691,0.16579000000000002,-0.10282999999999999
579,-1.5541530000000001,-1.294551,1.047415,-0.272708,0.9620860000000001,-0.004539,2.4261939999999997,-0.501272,2.593318,-0.25756599999999996,0.16585899999999998,0.15476199999999998
580,-1.4208040000000002,-1.3299159999999999,1.191168,-0.235879,0.9711280000000001,-0.035648,1.19154,-0.21670799999999998,1.500084,-0.28183600000000003,-0.35992199999999996,0.279636
581,-1.348824,-1.345704,1.276314,-0.217719,0.974773,-0.049137,0.742556,-0.8039569999999999,0.629236,-0.042917000000000004,-0.431774,0.071812
582,-1.280184,-1.347297,1.354796,-0.21234699999999998,0.9751280000000001,-0.06350800000000001,0.899125,0.09328,0.159162,0.29839099999999996,-0.438385,-0.063201
583,-1.159223,-1.342631,1.4618309999999999,-0.20729899999999998,0.974083,-0.090487,1.469224,1.051521,0.324286,0.514215,-0.44094099999999997,-0.11901600000000001
584,-0.978269,-1.338384,1.632133,-0.19106099999999998,0.9731139999999999,-0.128627,1.885786,0.391208,0.988203,0.541189,-0.14416500000000002,-0.029836
585,-0.810836,-1.334484,1.811649,-0.169703,0.972208,-0.16128199999999998,1.606027,-0.639841,1.1958739999999999,0.20019,-0.045023,0.23208299999999998
586,-0.664459,-1.330457,1.96842,-0.146778,0.9712569999999999,-0.18739,1.3133299999999999,0.045926999999999996,1.250635,-0.367123,-0.15768900000000002,0.43978599999999995
587,-0.5272479999999999,-1.3234059999999999,2.100625,-0.12320999999999999,0.969555,-0.21161799999999997,1.026609,0.518985,0.9478549999999999,-0.45848599999999995,-0.098522,0.20508800000000002
588,-0.46361199999999997,-1.3171700000000002,2.159537,-0.112205,0.968009,-0.224429,0.416095,0.269203,0.273067,-0.364739,-0.14704,0.14718900000000001
589,-0.42934399999999995,-1.3117940000000001,2.183606,-0.10661400000000001,0.9666459999999999,-0.23287,0.41885100000000003,0.7363729999999999,0.126142,-0.095489,0.023543,0.133871
590,-0.393737,-1.306905,2.205753,-0.10006799999999999,0.965382,-0.240879,0.201051,0.597047,0.258327,-0.061155999999999995,0.24946100000000002,-0.005581
591,-0.35873499999999997,-1.308501,2.244977,-0.091036,0.9657969999999999,-0.24279,0.242142,-0.661253,0.541168,-0.65051,0.24553699999999998,-0.202217
592,-0.345749,-1.295282,2.270616,-0.092195,0.9622850000000001,-0.255942,0.8286110000000001,-0.350063,-0.264846,-0.813552,0.464579,0.24339899999999998
593,-0.402264,-1.298827,2.2162759999999997,-0.10516800000000001,0.9632440000000001,-0.24718400000000001,-1.141367,-0.292007,-0.820269,-0.5073350000000001,0.24050700000000003,0.477836
594,-0.544017,-1.300916,2.069228,-0.137993,0.9638030000000001,-0.228125,-1.071682,0.296037,-2.213498,-0.48882200000000003,0.39973800000000004,0.024968999999999998
595,-0.788644,-1.300819,1.8003959999999999,-0.189202,0.963777,-0.187978,-2.838204,1.111173,-3.128461,-0.462501,0.530974,0.401418
596,-1.060424,-1.284023,1.476175,-0.246811,0.9591620000000001,-0.138176,-3.041461,2.21418,-3.3299830000000004,-0.153595,0.806067,0.494072
597,-1.279193,-1.253867,1.231552,-0.298492,0.950197,-0.08959500000000001,-2.573311,-0.24021199999999998,-2.405965,0.37296999999999997,1.22,-0.27261799999999997
598,-1.4513559999999999,-1.231055,1.063124,-0.330867,0.942841,-0.039708,-2.336982,-0.396919,-1.2525700000000002,0.681804,1.142471,-0.20425
599,-1.566699,-1.2138209999999998,0.925847,-0.349437,0.936958,-0.0014320000000000001,-2.302379,1.317301,-1.064382,0.77885,0.6735770000000001,0.23124499999999998
600,-1.654275,-1.182072,0.800712,-0.377687,0.925393,0.031602,-2.292748,1.184449,-1.681577,0.324235,0.326071,0.229079
601,-1.7325720000000002,-1.139642,0.711882,-0.412462,0.9084840000000001,0.067315,-1.8531400000000002,-0.35176,-2.0418689999999997,0.01053,0.21514299999999997,-0.0063560000000000005
602,-1.7819200000000002,-1.0875860000000002,0.662676,-0.45430699999999996,0.885508,0.097366,-1.3548280000000001,-0.080011,-2.499141,-0.021279,-0.075373,-0.123901
603,-1.808259,-1.035425,0.642045,-0.49584300000000003,0.860079,0.12000799999999999,-0.9268129999999999,-0.8479959999999999,-2.357366,0.124536,-0.292117,-0.231413
604,-1.847653,-0.9883200000000001,0.6380560000000001,-0.529145,0.835103,0.150359,-0.577609,-2.2752,-2.1939330000000004,0.350907,-0.45659399999999994,-0.330336
605,-1.897287,-0.9477780000000001,0.6391979999999999,-0.552665,0.812121,0.187137,-0.594767,-2.60168,-1.7866419999999998,0.625861,-0.709368,-0.417621
606,-1.9497259999999998,-0.915676,0.638188,-0.566034,0.792975,0.225379,-0.530424,-2.5260599999999998,-1.306658,0.7512909999999999,-0.903692,-0.373237
607,-1.995413,-0.895291,0.641788,-0.569763,0.780391,0.257602,-0.127871,-2.413414,-0.789107,0.780609,-0.899913,-0.334308
608,-2.037674,-0.8869,0.652772,-0.564199,0.7751170000000001,0.284381,0.291209,-2.514569,-0.365171,0.6891229999999999,-0.741563,-0.303516
609,-2.06922,-0.892431,0.6714220000000001,-0.5511739999999999,0.7785989999999999,0.299981,0.9350139999999999,-2.105668,0.182527,0.5725210000000001,-0.711186,-0.167275
610,-2.069876,-0.9187690000000001,0.7087760000000001,-0.532783,0.794855,0.29042399999999996,2.119809,-1.038849,0.899804,0.472526,-0.693278,-0.024143
611,-2.026466,-0.967242,0.763793,-0.50966,0.8233229999999999,0.249768,2.499525,0.58795,1.6043290000000001,0.002916,-0.515096,0.426105
612,-1.989179,-1.006161,0.783792,-0.48895200000000005,0.844784,0.21740500000000001,0.45848199999999995,0.891826,1.4412,-0.7900699999999999,0.482181,0.37967199999999995
613,-2.044692,-1.010549,0.7496659999999999,-0.47283400000000003,0.847124,0.24250500000000003,-1.204941,-2.816227,-0.353871,-1.014303,2.5769490000000004,0.577593
614,-2.103748,-0.9806309999999999,0.751854,-0.479317,0.830849,0.282744,-0.403439,-2.4184740000000002,-1.680854,-0.49378199999999994,1.424217,0.979402
615,-2.108474,-0.9491569999999999,0.770667,-0.500196,0.812925,0.298255,-0.336843,-0.375575,-1.397792,0.129575,-0.44164799999999993,0.38186
616,-2.075638,-0.9406899999999999,0.784159,-0.515724,0.8079649999999999,0.284992,0.501499,1.87232,-0.036038,0.42487299999999995,0.35225300000000004,0.194149
617,-2.009226,-0.961674,0.789043,-0.518033,0.8201510000000001,0.242887,0.491403,3.40909,1.142307,0.67262,1.965128,-0.737531
618,-1.9906169999999999,-0.9698260000000001,0.779134,-0.5163409999999999,0.824787,0.230473,-0.366814,0.266784,0.224873,0.740416,-0.078526,-0.01952
619,-1.9804950000000001,-0.980159,0.7752439999999999,-0.5108020000000001,0.830586,0.221827,0.138382,1.196956,0.8051520000000001,0.602568,-0.31552600000000003,0.264913
620,-1.9695340000000001,-1.004182,0.7533479999999999,-0.49466899999999997,0.843723,0.208407,-0.053749,1.602003,1.7091439999999998,0.5720310000000001,-0.16284500000000002,0.047254000000000004
621,-1.9434740000000001,-1.0547870000000001,0.745471,-0.459542,0.8697950000000001,0.17965599999999998,1.332718,1.700105,2.878791,0.403481,-0.037505000000000004,-0.772155
622,-1.8859099999999998,-1.12801,0.775118,-0.407362,0.9035610000000001,0.13279000000000002,2.049543,1.2935889999999999,3.217604,0.23699699999999999,0.42878999999999995,-0.803017
623,-1.8146509999999998,-1.2002680000000001,0.840874,-0.35139499999999996,0.9321360000000001,0.08742899999999999,2.3400540000000003,0.12312200000000001,3.164518,0.06471299999999999,0.37635100000000005,-0.46084200000000003
624,-1.736275,-1.270794,0.927398,-0.291486,0.9553360000000001,0.04868,1.787077,-0.283629,3.065037,-0.23212,0.074541,0.123455
625,-1.683686,-1.3229549999999999,0.991475,-0.24375100000000002,0.9694440000000001,0.027634,1.026564,-0.564443,2.022841,-0.333581,-0.19705999999999999,0.144927
626,-1.6096270000000001,-1.3502610000000002,1.0769030000000002,-0.218586,0.9757809999999999,0.008492,1.1716790000000001,-0.27593,0.877283,-0.18804500000000002,-0.36236199999999996,0.070869
627,-1.497523,-1.359625,1.194008,-0.209044,0.977786,-0.015345,1.246409,-0.060029,0.36798600000000004,0.2395,-0.497424,-0.152456
628,-1.3634620000000002,-1.365314,1.324108,-0.19967000000000001,0.9789629999999999,-0.042002,1.367055,0.634369,0.569833,0.5662020000000001,-0.400944,-0.023916
629,-1.178453,-1.3707639999999999,1.492212,-0.183603,0.98006,-0.075974,1.602427,1.115832,0.9084180000000001,0.5334409999999999,-0.287586,0.040635000000000004
630,-0.966289,-1.374487,1.694345,-0.160485,0.980793,-0.11085899999999999,1.6607310000000002,0.358175,1.185398,0.281853,-0.066441,0.135349
631,-0.764706,-1.373542,1.898151,-0.135679,0.980608,-0.141414,1.450948,0.073002,1.2868469999999999,-0.127184,-0.250262,0.37028
632,-0.576997,-1.367256,2.080875,-0.110268,0.9793569999999999,-0.16941199999999998,1.3412549999999999,0.673759,1.130419,-0.43393699999999996,-0.119997,0.249094
633,-0.44631899999999997,-1.356808,2.199945,-0.091664,0.9771920000000001,-0.191556,0.813133,0.620193,0.599097,-0.441722,-0.100879,0.15199000000000001
634,-0.389023,-1.3488719999999998,2.245879,-0.083483,0.975476,-0.20366099999999998,0.49545200000000006,0.7136100000000001,0.157719,-0.325376,-0.031764999999999995,0.21801900000000002
635,-0.35506,-1.340808,2.265641,-0.079252,0.973669,-0.213748,0.41138100000000005,0.6366390000000001,0.032248,-0.11967699999999999,0.023829,0.19884000000000002
636,-0.328681,-1.3390790000000001,2.286389,-0.07413,0.973274,-0.217356,0.018801,0.017782,0.355039,-0.34829499999999997,0.142129,-0.142202
637,-0.306958,-1.337724,2.324846,-0.069789,0.9729610000000001,-0.22017199999999998,0.496699,-1.022225,0.281729,-0.837498,0.607147,-0.190152
638,-0.304673,-1.320759,2.3370849999999996,-0.074227,0.9689030000000001,-0.236044,0.600025,-0.225508,-0.31250100000000003,-0.653464,0.589126,0.628836
639,-0.36043600000000003,-1.331107,2.277718,-0.083727,0.971412,-0.222146,-1.141106,0.34034200000000003,-0.714221,-0.57414,0.31247800000000003,0.13930599999999999
640,-0.497226,-1.3458649999999999,2.12533,-0.106387,0.974809,-0.19603099999999998,-1.4195010000000001,0.764051,-1.7357919999999998,-0.21009499999999998,0.053358,0.105074
641,-0.738025,-1.347964,1.852211,-0.14868900000000002,0.975276,-0.16348900000000002,-2.346304,1.309077,-2.696887,-0.367607,0.17738900000000002,0.23091799999999998
642,-1.048374,-1.333006,1.508409,-0.20413499999999998,0.9718610000000001,-0.11753800000000002,-2.488743,1.165634,-3.1976259999999996,-0.503842,0.7617510000000001,0.182296
643,-1.3025120000000001,-1.294125,1.2471809999999999,-0.263384,0.9619700000000001,-0.072407,-2.238423,-1.0869030000000002,-2.746474,-0.14991600000000002,1.362935,-0.42098599999999997
644,-1.50196,-1.263033,1.078157,-0.30221,0.9530139999999999,-0.020836,-2.058304,-1.8411950000000001,-1.553182,0.434885,1.030904,-0.407051
645,-1.626162,-1.238677,0.960357,-0.325547,0.9453540000000001,0.018043,-1.805351,0.26016100000000003,-1.13216,0.60315,0.7566729999999999,0.084512
646,-1.704706,-1.20287,0.854722,-0.35646100000000003,0.933075,0.048021,-2.030296,1.133537,-1.963791,0.697785,0.6124569999999999,0.25462199999999996
647,-1.7663959999999999,-1.1480110000000001,0.789277,-0.402478,0.91195,0.07974400000000001,-1.47075,-0.993561,-2.778619,0.5084350000000001,0.24485,-0.16410999999999998
648,-1.831866,-1.086486,0.756708,-0.44982,0.8849959999999999,0.12017699999999999,-1.34836,-1.793925,-2.799171,0.341055,-0.19034,-0.160583
649,-1.8666740000000002,-1.027232,0.748104,-0.494716,0.8558709999999999,0.150802,-0.7933180000000001,-1.316266,-2.851454,0.137706,-0.23749299999999998,-0.168044
650,-1.8942430000000001,-0.9712209999999999,0.7613479999999999,-0.535031,0.825575,0.179352,-0.412958,-2.389118,-2.618823,0.247052,-0.559706,-0.38655100000000003
651,-1.944661,-0.928092,0.76922,-0.55796,0.800478,0.21889699999999998,-0.6083930000000001,-3.052148,-1.8106939999999998,0.3675,-0.5815140000000001,-0.451792
652,-2.008984,-0.897567,0.768546,-0.564605,0.781813,0.264556,-0.562851,-3.190207,-1.158584,0.506652,-0.654447,-0.47685200000000005
653,-2.071112,-0.880505,0.770201,-0.558715,0.7710600000000001,0.305456,-0.148095,-3.164079,-0.5938359999999999,0.775329,-0.900424,-0.405371
654,-2.1239779999999997,-0.8770129999999999,0.7837970000000001,-0.544081,0.768832,0.335966,0.559983,-3.137021,-0.24923,0.7238600000000001,-0.895984,-0.384183
655,-2.160658,-0.887238,0.808736,-0.524834,0.77533,0.3513,1.172374,-2.510084,0.146282,0.5769890000000001,-0.887315,-0.178555
656,-2.1710830000000003,-0.910341,0.845391,-0.506225,0.789713,0.34654,1.843207,-1.601553,0.400836,0.38156,-0.752787,0.12576500000000002
657,-2.152996,-0.9386,0.889617,-0.49356700000000003,0.8067310000000001,0.324924,1.691073,-0.323737,0.394931,0.10217899999999999,-0.29685900000000004,0.398068
658,-2.140327,-0.950414,0.900975,-0.489583,0.813656,0.313483,-0.143739,-0.002254,0.17874,-0.391048,0.774799,0.600945
659,-2.18566,-0.931702,0.884301,-0.48722600000000005,0.8026369999999999,0.344071,-1.182818,-2.432932,-0.854101,-0.822542,1.907477,0.7300260000000001
660,-2.226743,-0.9051870000000001,0.8856440000000001,-0.48938100000000007,0.7865409999999999,0.376643,-0.364507,-1.424224,-1.269488,-0.597762,0.662419,0.48395299999999997
661,-2.224751,-0.884425,0.911198,-0.502984,0.773551,0.385519,0.08677699999999999,-0.749206,-1.302452,-0.20101,-0.47951400000000005,0.125605
662,-2.185031,-0.872124,0.9470350000000001,-0.525633,0.7656970000000001,0.370698,1.0684049999999998,1.745149,-0.9580290000000001,0.156919,-0.45515,0.395355
663,-2.091175,-0.896165,0.9894799999999999,-0.54193,0.780938,0.31056100000000003,1.602606,4.043272,1.424892,0.242918,2.188911,-0.6184069999999999
664,-2.078046,-0.918794,0.9709540000000001,-0.530375,0.794871,0.294757,-0.9861530000000001,-1.395525,0.348762,1.396799,0.055883,0.8540459999999999
665,-2.114968,-0.9182629999999999,0.9521129999999999,-0.519494,0.7945479999999999,0.314354,-0.463732,-0.380589,0.496388,1.185571,-0.745629,0.20594
666,-2.094832,-0.937308,0.9331360000000001,-0.512522,0.805968,0.296203,0.695194,3.38726,1.3627790000000002,0.45829200000000003,-0.28707699999999997,-0.285553
667,-1.9756770000000001,-0.988238,0.9643809999999999,-0.50568,0.835058,0.21671300000000002,2.610482,5.084453,2.312949,0.49773,-0.036825,-0.800683
668,-1.823936,-1.065325,1.027357,-0.46878800000000004,0.8749459999999999,0.12127,2.686559,4.184671,3.483268,0.539054,0.067009,-0.542764
669,-1.714911,-1.1378489999999999,1.104424,-0.41519799999999996,0.907733,0.060253999999999995,2.253304,0.916212,2.842429,-0.120447,0.469113,-0.218808
670,-1.6434849999999999,-1.196283,1.175099,-0.364852,0.930686,0.026567,1.271774,0.282292,2.914366,-0.146837,0.030099,0.002531
671,-1.587124,-1.257818,1.221856,-0.30785100000000004,0.951421,0.005027,0.924636,0.6850430000000001,2.929585,-0.092632,0.033259,0.049004
672,-1.4932590000000001,-1.304944,1.3161209999999999,-0.26194,0.9648690000000001,-0.020350999999999998,1.488438,-0.120723,2.018041,-0.291283,-0.283167,0.015377000000000002
673,-1.353008,-1.327229,1.458561,-0.23546599999999998,0.970484,-0.052108,1.5646579999999999,0.357292,0.96149,0.07520299999999999,-0.693964,0.036726999999999996
674,-1.231187,-1.33033,1.5723989999999999,-0.22455,0.9712270000000001,-0.079333,1.103041,0.749217,0.321103,0.145387,-0.61849,0.049182
675,-1.117582,-1.324481,1.666743,-0.219214,0.969817,-0.10676300000000001,1.3176350000000001,1.288329,0.114676,0.059958000000000004,-0.093261,0.028332
676,-0.965133,-1.311754,1.7947529999999998,-0.210589,0.966636,-0.145829,1.874459,1.335228,0.42401700000000003,0.24275500000000003,0.077035,0.014405000000000001
677,-0.805121,-1.299788,1.952191,-0.19298900000000002,0.963501,-0.185523,1.9986869999999999,-0.228675,1.134051,0.330608,0.019241,0.106528
678,-0.652191,-1.294827,2.1285369999999997,-0.165374,0.9621620000000001,-0.21655300000000002,1.556102,-1.115341,1.8723740000000002,0.30603,-0.26547600000000005,0.407684
679,-0.504989,-1.297028,2.293011,-0.1308,0.962759,-0.23661300000000002,0.8263469999999999,0.226584,1.7865090000000001,-0.041274,-0.079962,0.686916
680,-0.400475,-1.304086,2.372678,-0.10275,0.964643,-0.24270500000000003,-0.18016,1.631142,0.6645909999999999,-0.340213,-0.000608,0.369429
681,-0.347076,-1.305848,2.391426,-0.089071,0.9651059999999999,-0.24624400000000002,0.29506,1.8873950000000002,0.10676600000000001,-0.300761,0.10918900000000001,-0.184756
682,-0.29989099999999996,-1.2952569999999999,2.4056349999999997,-0.080372,0.9622790000000001,-0.259921,0.5747270000000001,1.340352,0.0036659999999999996,-0.5205649999999999,0.463197,-0.009778
683,-0.27781999999999996,-1.288373,2.416639,-0.076432,0.960383,-0.267997,0.204091,0.321009,0.026952999999999998,-0.8817290000000001,0.441396,0.380195
684,-0.28195,-1.2893629999999998,2.4074150000000003,-0.07727300000000001,0.960658,-0.26676500000000003,-0.215831,0.199777,-0.193743,-0.7627229999999999,0.43765699999999996,0.297557
685,-0.329308,-1.296001,2.356153,-0.087751,0.9624809999999999,-0.256768,-0.722975,-0.11731199999999999,-0.9093829999999999,-0.540499,0.41663900000000004,-0.15138900000000002
686,-0.461741,-1.2963360000000002,2.222874,-0.120744,0.962572,-0.24264299999999997,-0.82445,-0.09427100000000001,-2.0531189999999997,-0.353362,0.43510299999999996,0.26159499999999997
687,-0.6686310000000001,-1.297557,2.004428,-0.167283,0.962902,-0.211743,-2.084581,0.44312399999999996,-2.682178,-0.325545,0.367771,0.301694
688,-0.915766,-1.286508,1.7267299999999999,-0.222423,0.9598610000000001,-0.17085899999999998,-2.429227,1.325325,-3.219827,-0.19875,0.795983,0.47702700000000003
689,-1.129997,-1.2597459999999998,1.478006,-0.276801,0.9520129999999999,-0.130583,-2.3543540000000003,0.8397319999999999,-2.795666,0.156531,1.169966,0.061216
690,-1.299383,-1.2350860000000001,1.30021,-0.317378,0.944176,-0.08832000000000001,-2.129292,-0.493687,-1.736982,0.41958199999999995,1.282157,-0.21723699999999999
691,-1.420669,-1.2163950000000001,1.173602,-0.343124,0.9378540000000001,-0.051903,-1.848134,0.404402,-1.197785,0.699401,0.372128,0.15898900000000002
692,-1.512421,-1.192662,1.051614,-0.368557,0.9293549999999999,-0.021539,-2.248875,1.26821,-1.616161,0.513424,0.199017,0.219491
693,-1.61198,-1.155775,0.9311959999999999,-0.402866,0.915108,0.016600999999999998,-2.162648,0.052157,-2.079745,0.238773,0.1045,0.03595
694,-1.684884,-1.106391,0.8599870000000001,-0.44497700000000007,0.8940879999999999,0.050988,-1.44979,-0.503896,-2.436181,0.261262,-0.101013,-0.056298
695,-1.7313450000000001,-1.054167,0.8215309999999999,-0.487598,0.869489,0.078963,-1.156342,-0.786985,-2.4925200000000003,0.338932,-0.35368099999999997,-0.234908
696,-1.775886,-0.999524,0.8033939999999999,-0.529369,0.8412139999999999,0.110116,-0.8859809999999999,-1.958336,-2.5735200000000003,0.372189,-0.6144069999999999,-0.39800399999999997
697,-1.839329,-0.951367,0.788137,-0.559762,0.81421,0.15403499999999998,-1.067934,-2.716296,-2.013003,0.578912,-0.879395,-0.463178
698,-1.9076950000000001,-0.912745,0.76848,-0.577195,0.791185,0.202163,-1.117697,-2.567025,-1.470885,0.774949,-0.951525,-0.315551
699,-1.970462,-0.886417,0.754306,-0.582368,0.774812,0.24599200000000002,-0.710659,-2.580349,-0.890117,0.762224,-0.8719030000000001,-0.29038
700,-2.0258220000000002,-0.8730020000000001,0.750501,-0.57715,0.766261,0.282381,-0.187389,-2.65673,-0.358663,0.767519,-0.770762,-0.29764
701,-2.071711,-0.8744139999999999,0.756092,-0.562639,0.7671680000000001,0.30804000000000004,0.465447,-2.364019,0.19993,0.61075,-0.626192,-0.172511
702,-2.09247,-0.895508,0.777296,-0.541971,0.780526,0.311517,1.51263,-1.4240270000000002,0.7850159999999999,0.311242,-0.508798,0.198599
703,-2.065138,-0.927782,0.817597,-0.5278229999999999,0.800292,0.284485,1.8695400000000002,0.5276770000000001,0.7123689999999999,-0.039789,-0.383117,0.464218
704,-2.027943,-0.948679,0.841023,-0.522914,0.812646,0.257221,0.536609,0.6326470000000001,0.659127,-0.799565,1.375357,0.356991
705,-2.05665,-0.951211,0.826334,-0.513494,0.8141189999999999,0.271163,-0.77082,-1.7985520000000002,-0.011323999999999999,-0.503901,1.993269,0.6718310000000001
706,-2.10462,-0.933265,0.815175,-0.512397,0.8035680000000001,0.30286,-0.543795,-1.786182,-0.9027879999999999,-0.084512,1.229101,0.610943
707,-2.1257759999999997,-0.9121520000000001,0.8290139999999999,-0.520181,0.7908229999999999,0.32250100000000004,-0.061377,-1.54388,-1.17533,0.14512,-0.281225,0.10753800000000001
708,-2.09746,-0.899711,0.85855,-0.537568,0.783147,0.312566,1.033568,2.104219,-0.675633,-0.010269,-0.529363,0.303386
709,-1.979095,-0.921047,0.9034059999999999,-0.5552520000000001,0.7962359999999999,0.240208,1.685323,4.732708000000001,1.041115,0.301056,1.073332,-0.49075699999999994
710,-1.9193790000000002,-0.951492,0.9099719999999999,-0.545554,0.814283,0.198267,-0.251736,0.42676899999999995,1.145266,1.514716,1.15285,-0.319422
711,-1.953898,-0.964548,0.8811459999999999,-0.5284800000000001,0.821792,0.21298499999999998,-0.436037,0.088239,0.982043,0.745292,-0.238112,0.4624
712,-1.9596049999999998,-0.9878610000000001,0.846467,-0.509387,0.83485,0.208677,-0.401975,1.7470240000000001,1.712955,0.369601,-0.14941,0.22928099999999998
713,-1.921136,-1.029725,0.8270709999999999,-0.483764,0.857158,0.17677400000000001,0.744707,3.178054,2.4914560000000003,0.363952,-0.196894,-0.569871
714,-1.8401029999999998,-1.100262,0.844418,-0.437017,0.8913260000000001,0.12062200000000001,1.739999,3.266177,3.5654489999999996,0.43613199999999996,-0.285842,-0.854341
715,-1.7400330000000002,-1.175368,0.902015,-0.379695,0.922832,0.06487899999999999,2.1739669999999998,1.743507,3.287352,0.393154,0.349202,-0.718184
716,-1.622377,-1.249416,1.0171379999999999,-0.31545,0.9488,0.016285,2.4875119999999997,-0.349959,3.5977360000000003,0.143453,0.21189000000000002,-0.399037
717,-1.46224,-1.315549,1.205332,-0.25099099999999996,0.967601,-0.027354000000000003,2.5864759999999998,-0.9457540000000001,3.056534,-0.314286,0.164098,0.077128
718,-1.270973,-1.351726,1.400051,-0.20761999999999997,0.9761,-0.064184,1.328894,0.47092,1.786501,-0.45154399999999995,-0.44271400000000005,0.34589200000000003
719,-1.156288,-1.363891,1.517766,-0.188028,0.978671,-0.082733,0.863569,-0.36814,0.499255,-0.094427,-0.5597409999999999,0.141052
720,-1.079817,-1.357977,1.5940379999999998,-0.18625999999999998,0.977439,-0.099583,0.910917,0.617075,-0.032583,0.24773699999999999,-0.6203529999999999,0.004719
721,-0.940106,-1.3441370000000001,1.7089830000000001,-0.18148699999999998,0.9744229999999999,-0.132517,1.749895,1.648665,0.206988,0.525511,-0.249218,-0.088568
722,-0.761318,-1.327528,1.8738380000000001,-0.166171,0.970556,-0.174373,1.973442,0.15347,0.9646299999999999,0.60213,-0.06101,0.045420999999999996
723,-0.60192,-1.318494,2.04929,-0.141347,0.96834,-0.20575700000000002,1.516148,-0.602547,1.544586,0.379994,0.10919000000000001,0.36303
724,-0.448155,-1.31225,2.206378,-0.11078299999999999,0.9667629999999999,-0.230422,1.106352,0.719072,1.464186,-0.3278,0.11214,0.606124
725,-0.339291,-1.308783,2.293315,-0.086207,0.9658700000000001,-0.244254,0.203948,1.302085,0.5726479999999999,-0.703237,-0.06650199999999999,0.30275599999999997
726,-0.31776,-1.311606,2.292498,-0.080076,0.966598,-0.243461,-0.129904,1.0357290000000001,-0.19312200000000002,-0.540728,-0.06323200000000001,0.040748
727,-0.310313,-1.305137,2.2832060000000003,-0.08016799999999999,0.9649200000000001,-0.25,0.44888999999999996,0.539039,-0.094439,-0.305284,0.381196,-0.080795
728,-0.288517,-1.295199,2.316933,-0.077425,0.9622629999999999,-0.260869,0.756482,-1.08303,0.350964,-0.414304,0.513628,-0.137202
729,-0.29692199999999996,-1.2856379999999998,2.325496,-0.082303,0.959617,-0.268994,0.016119,-0.51862,-0.291591,-0.801089,0.505333,0.6414310000000001
730,-0.35334,-1.294952,2.2713520000000003,-0.094243,0.9621959999999999,-0.255529,-0.995862,-0.133029,-0.736057,-0.64268,0.284463,0.149556
731,-0.48683999999999994,-1.314554,2.138459,-0.11856900000000001,0.967349,-0.22399499999999997,-1.897805,-0.35022800000000004,-1.580632,-0.27983800000000003,-0.080966,0.036433999999999994
732,-0.727517,-1.321358,1.8795439999999999,-0.164161,0.969051,-0.184357,-2.420791,1.142925,-2.899044,-0.158058,0.067997,0.47318999999999994
733,-1.0231459999999999,-1.305191,1.532602,-0.224098,0.9649340000000001,-0.13667200000000002,-2.934527,2.358075,-3.702151,-0.24945799999999999,0.885606,0.45860200000000007
734,-1.260156,-1.2623209999999998,1.254937,-0.28907,0.9527969999999999,-0.092801,-2.4646689999999998,0.557392,-3.219066,0.12259600000000001,1.400245,-0.174991
735,-1.430401,-1.232192,1.090064,-0.328897,0.943219,-0.046482,-2.096327,-1.086571,-1.3492709999999999,0.363077,1.424426,-0.393521
736,-1.552885,-1.2172370000000001,0.9714360000000001,-0.346177,0.9381459999999999,-0.006201,-1.874137,-0.002968,-0.797906,0.738984,0.740214,-0.118692
737,-1.6326129999999999,-1.1931049999999999,0.866368,-0.36806500000000003,0.9295190000000001,0.022782,-1.999756,1.2668620000000002,-1.492618,0.46210500000000004,0.346131,0.370163
738,-1.713743,-1.1542219999999999,0.774867,-0.400498,0.91448,0.05764299999999999,-1.8170259999999998,-0.7783640000000001,-1.9427150000000002,0.118546,0.189066,-0.10569300000000001
739,-1.797247,-1.100343,0.717643,-0.441713,0.8913629999999999,0.101772,-1.592234,-1.540171,-2.635581,0.01201,-0.009161,-0.172985
740,-1.833897,-1.045893,0.696796,-0.48388000000000003,0.8653719999999999,0.13033,-0.875159,-0.8223459999999999,-2.415711,0.306923,-0.299637,-0.169011
741,-1.8595119999999998,-0.99635,0.702674,-0.520876,0.839493,0.15470799999999998,-0.33505,-2.003277,-2.465973,0.398607,-0.43396,-0.289076
742,-1.896409,-0.9516120000000001,0.7162810000000001,-0.549871,0.8143520000000001,0.18565299999999998,-0.362663,-2.508731,-2.047843,0.57099,-0.6690729999999999,-0.383606
743,-1.9409830000000001,-0.917747,0.720398,-0.566448,0.794235,0.21982600000000002,-0.47790699999999997,-2.329883,-1.38658,0.6948350000000001,-0.8754879999999999,-0.35947399999999996
744,-1.9883650000000002,-0.897322,0.721356,-0.570112,0.78166,0.25293499999999997,-0.23723000000000002,-2.467653,-0.7096060000000001,0.726819,-0.885725,-0.362493
745,-2.038217,-0.891861,0.727549,-0.560602,0.778242,0.28295,0.259479,-2.909671,-0.09347899999999999,0.7489560000000001,-0.909818,-0.420645
746,-2.086011,-0.903373,0.7409140000000001,-0.538612,0.785419,0.304975,0.937903,-2.780349,0.543482,0.597831,-0.78046,-0.108778
747,-2.1072450000000003,-0.9347790000000001,0.7725270000000001,-0.510554,0.8044680000000001,0.303582,2.04362,-1.9478520000000001,1.0532709999999998,0.458521,-0.756463,0.070899
748,-2.08466,-0.9793270000000001,0.823649,-0.485567,0.8301219999999999,0.274075,2.327243,-0.21819299999999997,1.1609260000000001,0.254427,-0.658354,0.302647
749,-2.045632,-1.0059420000000001,0.848801,-0.47606800000000005,0.844666,0.24473000000000003,0.43965,1.1326040000000002,0.6599689999999999,-0.736929,1.607909,0.359365
750,-2.095138,-0.993405,0.812595,-0.472505,0.837889,0.273269,-1.862845,-2.5041599999999997,-0.8266680000000001,-0.768324,2.727983,0.739869
751,-2.158385,-0.956132,0.800901,-0.47996000000000005,0.816967,0.319686,-0.775093,-2.00716,-1.6475790000000001,-0.172323,1.299397,0.8425600000000001
752,-2.158903,-0.92356,0.8204,-0.501675,0.7977529999999999,0.33452600000000005,-0.388629,-0.19154300000000002,-1.546793,0.111615,-0.940575,-0.055534
753,-2.09956,-0.9152969999999999,0.8490540000000001,-0.526306,0.792744,0.307498,1.109452,2.755416,-0.284945,0.112594,0.22826799999999997,-0.099475
754,-2.01341,-0.941933,0.8717459999999999,-0.5315380000000001,0.808696,0.25193699999999997,0.871027,3.5348940000000004,1.3275430000000001,0.555006,1.7070349999999999,-0.6012109999999999
755,-2.000506,-0.952342,0.8622120000000001,-0.5270630000000001,0.8147760000000001,0.241537,-0.16503900000000002,-0.699966,0.193417,0.8552649999999999,0.46314799999999995,0.259791
756,-2.00812,-0.960398,0.8532540000000001,-0.519246,0.81942,0.24275500000000003,-0.042463,0.520392,0.731093,0.632939,-0.116584,0.060742
757,-1.9922819999999999,-0.986766,0.840691,-0.503129,0.834247,0.225581,0.515887,1.7642900000000001,1.663821,0.473847,-0.070087,-0.406763
758,-1.9344,-1.038271,0.855457,-0.47451099999999996,0.8615280000000001,0.180562,1.873861,2.47146,2.659437,0.350931,-0.19331500000000001,-0.949117
759,-1.8391849999999998,-1.1132469999999999,0.9036540000000001,-0.42593000000000003,0.8971379999999999,0.11714100000000001,2.313383,2.450069,3.364357,0.448971,0.110278,-0.798431
760,-1.7336790000000002,-1.186914,0.9878100000000001,-0.369558,0.927218,0.060733,2.518007,0.776614,3.1639,0.27033,0.22894099999999998,-0.140795
761,-1.643073,-1.252142,1.089243,-0.312463,0.949658,0.022622999999999997,1.7444540000000002,-0.700307,2.881583,0.036584,0.009266,0.06729700000000001
762,-1.570359,-1.300961,1.175381,-0.266563,0.963815,-0.000117,1.227765,-0.136054,2.0846299999999998,-0.23655,-0.084909,0.236445
763,-1.4640950000000001,-1.332676,1.279038,-0.234525,0.971783,-0.02512,1.232119,0.392905,1.403526,-0.07976,-0.315213,0.026462
764,-1.338775,-1.346627,1.399082,-0.21633000000000002,0.974979,-0.051114,1.2123110000000001,0.462024,0.653407,0.097967,-0.41249399999999997,-0.018313999999999997
765,-1.20597,-1.350019,1.517032,-0.204566,0.975727,-0.078128,1.2098879999999999,1.242238,0.547704,0.294486,-0.34483800000000003,0.058002
766,-1.043,-1.349302,1.6543430000000001,-0.18978399999999998,0.97557,-0.11063599999999998,1.53443,1.452436,0.714208,0.184763,-0.18995599999999999,0.086787
767,-0.844988,-1.3423260000000001,1.834369,-0.169398,0.9740139999999999,-0.150323,1.9517330000000002,0.789489,0.971141,0.184825,-0.189895,0.089181
768,-0.669913,-1.330484,2.012892,-0.147777,0.9712639999999999,-0.18656099999999998,1.651387,-0.298003,1.192627,0.077709,-0.28001,0.32743
769,-0.533197,-1.324524,2.157368,-0.12391300000000001,0.969828,-0.209943,1.053642,0.18423299999999998,1.261541,-0.454502,-0.23151599999999997,0.550199
770,-0.418916,-1.3201379999999998,2.256472,-0.100893,0.968749,-0.22658699999999998,0.487256,1.084334,0.702024,-0.552504,-0.08167999999999999,0.163888
771,-0.38845,-1.320573,2.268318,-0.09378500000000001,0.968857,-0.229165,-0.111357,0.9427709999999999,-0.139462,-0.22280500000000003,0.000778,0.08172
772,-0.38642,-1.3154379999999999,2.2460880000000003,-0.095193,0.9675729999999999,-0.233961,0.284508,1.184177,-0.378397,-0.10976300000000001,0.345675,0.010084000000000001
773,-0.364784,-1.309445,2.26352,-0.092176,0.966042,-0.241378,0.48144899999999996,-0.519776,0.393214,-0.536303,0.554542,-0.229325
774,-0.34225300000000003,-1.293324,2.306045,-0.09193,0.961751,-0.25803200000000004,1.09822,-0.8528530000000001,0.03689,-0.831059,0.596797,0.255499
775,-0.366157,-1.2906540000000002,2.293731,-0.09899,0.961016,-0.258158,-0.7359,-0.210441,-0.25021,-0.520333,0.451597,0.577631
776,-0.45400100000000004,-1.309081,2.2027919999999996,-0.11347,0.9659479999999999,-0.232521,-1.317209,-0.017856999999999998,-1.2853510000000001,-0.426813,0.46822600000000003,-0.17241700000000001
777,-0.6299170000000001,-1.313492,2.013826,-0.149901,0.9670790000000001,-0.20563,-1.8708740000000001,0.5192640000000001,-2.1914860000000003,-0.198152,0.34444400000000003,0.136355
778,-0.8866879999999999,-1.317151,1.7267240000000001,-0.194464,0.9680040000000001,-0.158582,-2.7851619999999997,1.4841469999999999,-2.665922,-0.357095,0.420073,0.488202
779,-1.130579,-1.296876,1.438692,-0.24470999999999998,0.9627180000000001,-0.11527000000000001,-2.532812,1.410565,-2.864891,-0.353419,0.8283590000000001,0.17723599999999998
780,-1.333674,-1.268737,1.2279229999999999,-0.28915599999999997,0.9547260000000001,-0.06988,-2.24309,-0.805882,-1.883672,0.180651,0.926485,-0.364065
781,-1.495806,-1.248968,1.080606,-0.315406,0.948659,-0.023697,-1.9292349999999998,-0.962334,-1.127114,0.49686400000000003,0.807567,-0.308823
782,-1.599244,-1.222974,0.973196,-0.340708,0.940117,0.009695,-1.7361060000000001,0.540646,-1.5293430000000001,0.46851499999999996,0.467659,0.1421
783,-1.676638,-1.186887,0.8773350000000001,-0.372446,0.927208,0.039568,-1.7783939999999998,0.114724,-1.8057619999999999,0.242044,0.18151099999999998,0.09678400000000001
784,-1.767886,-1.1397700000000002,0.80812,-0.40971,0.908537,0.081812,-1.686043,-2.1621639999999998,-2.319219,0.074779,0.080873,-0.198679
785,-1.8395279999999998,-1.084695,0.768995,-0.450409,0.8841610000000001,0.12404000000000001,-1.317564,-1.296681,-2.491874,0.23741199999999998,-0.13468,-0.040849
786,-1.8747029999999998,-1.032294,0.757201,-0.489345,0.8584780000000001,0.153469,-0.8194229999999999,-1.518016,-2.451791,0.42455600000000004,-0.399264,-0.26618600000000003
787,-1.909482,-0.981972,0.766893,-0.523829,0.831594,0.184523,-0.439863,-2.500552,-2.426517,0.558558,-0.583395,-0.392256
