,attitude.roll,attitude.pitch,attitude.yaw,gravity.x,gravity.y,gravity.z,rotationRate.x,rotationRate.y,rotationRate.z,userAcceleration.x,userAcceleration.y,userAcceleration.z
0,-2.339597,-1.32216,-2.566389,-0.176869,0.969249,0.171093,2.292339,0.26311999999999997,-0.292798,-0.16706500000000002,0.400624,-0.2933
1,-2.1320330000000003,-1.352349,-2.347691,-0.18346600000000002,0.9762350000000001,0.11534000000000001,3.3226459999999998,-0.5309619999999999,-0.539888,-0.251806,0.32347800000000004,-0.40379299999999996
2,-1.754546,-1.361932,-1.946346,-0.203855,0.978267,0.037886,4.711749,-0.9455399999999999,-1.430165,-0.28073400000000004,0.325047,-0.520796
3,-1.265691,-1.321572,-1.4285450000000002,-0.23525900000000002,0.9691040000000001,-0.07409199999999999,6.50697,-0.300007,-1.648121,-0.481691,0.546582,-0.064274
4,-0.934066,-1.2327290000000002,-1.114953,-0.26667199999999996,0.9433969999999999,-0.197197,5.296121,2.6937029999999997,-2.001177,-0.350134,0.49706300000000003,-0.141182
5,-0.8060390000000001,-1.16279,-1.0363,-0.286296,0.9179139999999999,-0.274714,2.226886,2.092879,-1.471716,0.07369500000000001,0.6403439999999999,0.592936
6,-0.769617,-1.125837,-1.01131,-0.299512,0.9026280000000001,-0.309118,1.904838,0.38075,-0.6033069999999999,0.5442170000000001,0.5968220000000001,1.1842709999999999
7,-0.687774,-1.078999,-0.9302790000000001,-0.299768,0.8814850000000001,-0.364858,3.622643,0.30094299999999996,0.015544,0.31203600000000004,0.166778,0.7461300000000001
8,-0.580437,-0.9962209999999999,-0.809109,-0.298037,0.8394229999999999,-0.45446800000000004,6.046906,-0.023285,-0.125204,-0.13531300000000002,0.080193,0.135742
9,-0.5365,-0.8772690000000001,-0.717954,-0.32674200000000003,0.768996,-0.5494399999999999,6.325074,-2.399552,-1.254667,-0.079539,-0.32266100000000003,0.589708
10,-0.543673,-0.764922,-0.6681189999999999,-0.373187,0.69248,-0.617416,5.343922,-1.759526,-1.418301,0.03937,-0.47283000000000003,0.407928
11,-0.5481739999999999,-0.672285,-0.632671,-0.40773200000000004,0.622775,-0.6677609999999999,4.248702,-1.186709,-1.1927450000000002,0.288012,-0.573749,0.5286770000000001
12,-0.554413,-0.5919300000000001,-0.609688,-0.436878,0.557963,-0.705559,3.71369,-1.039097,-1.412452,0.276706,-0.38059499999999996,0.550606
13,-0.570114,-0.521111,-0.596244,-0.468088,0.49784399999999995,-0.7300989999999999,3.054641,-1.187106,-1.39016,0.339014,-0.26658200000000004,0.588604
14,-0.5927979999999999,-0.459873,-0.589173,-0.500641,0.443834,-0.743215,2.531001,-1.3993200000000001,-1.412774,0.325898,-0.374438,0.582693
15,-0.620355,-0.41227700000000006,-0.5888899999999999,-0.532615,0.40069699999999997,-0.745495,1.550391,-1.3100969999999998,-1.296892,0.232856,-0.407731,0.516781
16,-0.647452,-0.383214,-0.597409,-0.559408,0.37390300000000004,-0.739769,0.592205,-1.1583370000000002,-1.122182,0.17316199999999998,-0.294375,0.576073
17,-0.6718770000000001,-0.370317,-0.614003,-0.580262,0.36191100000000004,-0.7296,-0.283744,-0.701324,-0.89815,0.17588800000000002,-0.285846,0.556032
18,-0.6840229999999999,-0.373718,-0.6358550000000001,-0.588299,0.365079,-0.721541,-1.062674,0.089398,-0.561705,0.124203,-0.297193,0.37893499999999997
19,-0.68342,-0.39211599999999996,-0.6634899999999999,-0.5835229999999999,0.38214499999999996,-0.716565,-1.777511,0.769625,-0.353926,0.081524,-0.267612,0.103833
20,-0.678454,-0.420166,-0.6972,-0.5730029999999999,0.407912,-0.7108270000000001,-2.205766,0.983878,-0.282416,0.09959900000000001,-0.253447,0.050976
21,-0.671335,-0.45301400000000003,-0.732325,-0.559289,0.43767700000000004,-0.704013,-2.285565,1.177452,-0.136875,0.163903,-0.179819,-0.097012
22,-0.659454,-0.489554,-0.762666,-0.540721,0.470233,-0.697497,-2.270257,1.341234,0.183489,0.141093,-0.096301,-0.430295
23,-0.6456069999999999,-0.5297569999999999,-0.7903020000000001,-0.519211,0.505323,-0.6892520000000001,-2.384045,1.2900790000000002,0.287445,-0.016113,-0.201414,-0.708392
24,-0.641091,-0.571853,-0.818492,-0.5029170000000001,0.541191,-0.673934,-2.337471,0.762486,0.317288,-0.26142600000000005,0.034462,-0.702897
25,-0.6429819999999999,-0.607831,-0.839037,-0.492192,0.571088,-0.656967,-1.670439,0.255661,0.476421,-0.199352,0.8417540000000001,-0.7374729999999999
26,-0.6439,-0.633517,-0.8372129999999999,-0.48382700000000006,0.591983,-0.644567,-0.645632,-0.46607299999999996,1.054935,0.08159,1.017606,-0.7136939999999999
27,-0.649452,-0.661829,-0.8277959999999999,-0.47706800000000005,0.6145609999999999,-0.628267,-1.2275969999999998,-0.201488,1.1936719999999998,0.173601,0.44934300000000005,0.051561
28,-0.648999,-0.706307,-0.834518,-0.459797,0.649029,-0.606092,-2.215486,0.371419,1.037555,-0.364361,-1.014248,0.407148
29,-0.637313,-0.74964,-0.846901,-0.43552799999999997,0.681375,-0.588253,-1.915668,1.447832,0.922902,-0.14769300000000002,0.007849,0.364651
30,-0.609093,-0.799566,-0.8631190000000001,-0.39878,0.7170529999999999,-0.571671,-2.644659,2.1839779999999998,1.011938,-0.37735799999999997,0.278598,0.554505
31,-0.579213,-0.853684,-0.8863989999999999,-0.359734,0.753707,-0.5500149999999999,-2.70414,2.4208060000000002,0.7131850000000001,-0.495079,0.354722,0.25904499999999997
32,-0.556844,-0.9092180000000001,-0.922761,-0.324696,0.7890229999999999,-0.5215489999999999,-3.084857,2.6385,0.41648599999999997,-0.236202,0.214074,0.39627399999999996
33,-0.538812,-0.9667459999999999,-0.9688700000000001,-0.29144000000000003,0.823042,-0.487508,-3.222782,2.73834,0.34382399999999996,-0.088779,0.11206300000000001,0.379247
34,-0.523736,-1.027384,-1.017276,-0.25859099999999996,0.855949,-0.447751,-3.297343,2.828893,0.40728000000000003,-0.034134,0.024269,0.22761199999999998
35,-0.509617,-1.090144,-1.070603,-0.225557,0.8866930000000001,-0.403605,-3.424923,3.187183,0.428363,-0.049711,0.02595,0.162684
36,-0.5003920000000001,-1.1586040000000002,-1.134476,-0.19220399999999999,0.9162450000000001,-0.3515,-3.802439,3.68391,0.412271,0.06563200000000001,-0.032211000000000004,0.196913
37,-0.5014460000000001,-1.235675,-1.220568,-0.158091,0.94437,-0.288392,-4.371288,3.819396,0.589721,0.08785499999999999,-0.093021,0.243181
38,-0.5481590000000001,-1.323439,-1.344484,-0.12759,0.969563,-0.208967,-4.814287,3.566188,0.6254069999999999,0.108471,-0.13861500000000002,0.233579
39,-0.714489,-1.40909,-1.585297,-0.10549000000000001,0.9869540000000001,-0.121621,-4.8829400000000005,3.3729910000000003,0.51408,0.11153199999999999,-0.013352000000000001,0.227532
40,-1.178521,-1.473004,-2.119959,-0.090209,0.9952219999999999,-0.037321,-4.246023999999999,3.3240809999999996,0.47158999999999995,0.082884,0.073793,0.198957
41,-1.8592549999999999,-1.480564,-2.866215,-0.086373,0.9959319999999999,0.02563,-2.931848,2.96801,-0.066772,0.161355,0.12125599999999999,0.227269
42,-2.164237,-1.454232,3.063789,-0.096407,0.9932139999999999,0.06503099999999999,-1.7986220000000002,1.8388470000000001,-0.523154,0.17013699999999998,0.029735,0.135302
43,-2.2513549999999998,-1.434108,2.953236,-0.10589900000000001,0.9906729999999999,0.085734,-0.804079,0.721113,-0.255197,0.175738,0.013249,0.052404
44,-2.3079400000000003,-1.428086,2.896932,-0.105297,0.989834,0.095595,-0.351543,-0.433911,0.217325,0.20756100000000002,-0.097241,-0.11918499999999999
45,-2.4104669999999997,-1.431518,2.805403,-0.092692,0.990316,0.103341,-0.437409,-0.496454,0.746644,0.243189,-0.133261,-0.5563600000000001
46,-2.5871419999999996,-1.421967,2.62814,-0.078062,0.9889450000000001,0.12605999999999998,-1.576088,0.29935900000000004,0.655417,0.166243,-0.024208,-0.36699699999999996
47,-2.7326650000000003,-1.396026,2.455546,-0.069137,0.984766,0.15953900000000001,-1.745687,1.7454740000000002,0.668403,0.119369,0.028524,-0.145242
48,-2.8186299999999997,-1.373485,2.328908,-0.062215,0.9805969999999999,0.185893,-1.322884,1.839778,0.694736,0.031713,0.021066,-0.30004400000000003
49,-2.880557,-1.354743,2.231984,-0.055325,0.976751,0.20710900000000002,-1.113925,1.548311,0.675205,0.013821,0.011774,-0.268663
50,-2.928473,-1.336862,2.149944,-0.049027999999999995,0.9727620000000001,0.226557,-1.091964,1.688843,0.677315,-0.019301,-0.047499,-0.24059499999999998
51,-2.965007,-1.316889,2.0737,-0.044125,0.967938,0.247277,-1.222985,2.0182849999999997,0.722979,-0.14464100000000002,-0.014447,-0.25505900000000004
52,-2.9845189999999997,-1.295261,2.011513,-0.042558,0.9622799999999999,0.26870900000000003,-1.148916,1.9377959999999999,0.540934,-0.189849,-0.02507,-0.20843699999999998
53,-2.983841,-1.274206,1.9748080000000001,-0.045913,0.9563379999999999,0.288628,-1.093329,1.656534,0.23403400000000002,-0.15809700000000002,-0.045114,-0.268563
54,-2.976573,-1.254718,1.959253,-0.051062,0.950462,0.306615,-0.9173030000000001,0.673751,-0.034805,-0.110422,0.126748,-0.351033
55,-2.969752,-1.239729,1.969484,-0.055582000000000006,0.9456959999999999,0.320261,-0.5765560000000001,-0.571188,-0.421799,0.075846,0.249342,-0.40574099999999996
56,-2.962575,-1.232632,1.9905689999999998,-0.059073,0.943365,0.32645100000000005,-0.095073,-0.414488,-0.33211999999999997,0.153693,0.299784,-0.41855299999999995
57,-2.938622,-1.2318149999999999,1.9996080000000003,-0.06702999999999999,0.9430940000000001,0.325698,-0.090537,1.578598,-0.059040999999999996,0.136061,0.323843,-0.342711
58,-2.90841,-1.2273,1.983834,-0.077821,0.941583,0.327664,-0.315091,2.407351,0.409414,0.31698699999999996,0.394309,-0.277996
59,-2.9019,-1.225034,1.944263,-0.080459,0.940817,0.32922199999999996,-0.239432,1.923517,0.659458,0.212707,0.324121,-0.364195
60,-2.903582,-1.2238209999999998,1.914073,-0.080174,0.940406,0.330465,-0.106591,1.057031,0.382691,-0.11146099999999999,0.272149,-0.362661
61,-2.896716,-1.227262,1.9020279999999998,-0.08165599999999999,0.94157,0.326766,0.245934,0.916157,0.141779,-0.0037630000000000003,0.41093900000000005,-0.192733
62,-2.8724,-1.238041,1.905143,-0.086873,0.9451459999999999,0.314882,0.769019,1.178698,0.100231,0.12796400000000002,0.465819,0.007581999999999999
63,-2.8381540000000003,-1.2639120000000001,1.919375,-0.090264,0.9532790000000001,0.288286,1.607579,0.800395,0.20484899999999998,-0.023153999999999997,0.255644,-0.07361000000000001
64,-2.808625,-1.3041770000000001,1.9515040000000001,-0.086114,0.964667,0.24899699999999997,2.3805709999999998,-0.813747,0.130064,-0.470938,-0.013571000000000001,-0.437672
65,-2.721145,-1.358635,2.075814,-0.08594700000000001,0.9775780000000001,0.19222899999999998,3.32515,-1.77042,-0.6739609999999999,-0.392248,-0.000573,-0.048079000000000004
66,-2.487742,-1.405317,2.331311,-0.100189,0.98634,0.130745,3.058981,-0.192052,-0.882941,-0.261627,0.16254100000000002,0.124672
67,-2.145397,-1.433085,2.661232,-0.115225,0.990533,0.07460499999999999,2.638461,1.266534,-0.574758,-0.341776,0.477546,0.302531
68,-1.685868,-1.442013,3.094379,-0.127572,0.991719,0.014745,2.979257,1.541512,-0.637892,-0.376289,0.533458,0.335246
69,-1.260233,-1.414043,-2.79067,-0.14863900000000002,0.9877389999999999,-0.047705000000000004,2.895274,1.5650870000000001,-1.398015,-0.552701,0.52491,0.419516
70,-1.040723,-1.356929,-2.586235,-0.183111,0.977217,-0.107306,2.897593,0.381492,-1.913501,-0.389353,0.002931,0.310645
71,-0.929483,-1.295993,-2.454173,-0.21744000000000002,0.9624790000000001,-0.162338,3.12225,-1.514728,-1.5687389999999999,-0.136549,-0.038986,0.176117
72,-0.871474,-1.2255340000000001,-2.3479349999999997,-0.259002,0.9409870000000001,-0.21785500000000002,3.614156,-2.280078,-1.874107,0.172546,0.08857000000000001,0.242681
73,-0.81513,-1.1492120000000001,-2.257365,-0.297825,0.912442,-0.280622,3.828018,-0.6777569999999999,-1.563814,0.359273,0.00513,0.12464700000000001
74,-0.750578,-1.084857,-2.186198,-0.31854899999999997,0.884237,-0.341542,2.955598,0.060811000000000004,-0.891465,0.42417,-0.057027,0.19782
75,-0.715516,-1.045817,-2.1428990000000003,-0.328787,0.865334,-0.378278,1.7921220000000002,-0.248324,-0.365085,0.46039399999999997,-0.25715,0.405943
76,-0.706138,-1.012165,-2.110227,-0.343934,0.847981,-0.40328200000000003,1.994072,-1.379345,-0.6153930000000001,0.327179,-0.575429,0.623161
77,-0.715911,-0.9685159999999999,-2.081152,-0.371811,0.824046,-0.427438,2.1386950000000002,-1.734645,-0.866028,0.25698899999999997,-0.60406,0.552469
78,-0.73206,-0.934529,-2.065636,-0.397163,0.804319,-0.441963,1.189669,-1.2291530000000002,-0.71414,0.23101,-0.5685399999999999,0.494041
79,-0.7454810000000001,-0.917781,-2.064007,-0.41213900000000003,0.7942560000000001,-0.446428,0.35643,-0.43178500000000003,-0.394106,0.13656500000000002,-0.477041,0.34865
80,-0.7491359999999999,-0.916579,-2.070067,-0.414417,0.793525,-0.445618,-0.338419,0.325573,-0.04528,0.12031900000000001,-0.457084,0.160828
81,-0.747599,-0.9322940000000001,-2.0832740000000003,-0.40520300000000004,0.8029890000000001,-0.437055,-1.166635,0.734537,0.43124700000000005,0.069799,-0.481883,-0.08214099999999999
82,-0.746155,-0.9671540000000001,-2.104118,-0.385328,0.8232729999999999,-0.41682299999999994,-1.9889580000000002,1.035865,0.913294,-0.021715,-0.491196,-0.198655
83,-0.745527,-1.0173590000000001,-2.1326959999999997,-0.356554,0.850723,-0.386184,-2.563021,1.332749,1.226166,-0.243391,-0.26831,-0.413758
84,-0.7466520000000001,-1.069185,-2.166216,-0.326577,0.8768090000000001,-0.352918,-2.2226220000000003,1.346366,0.989244,-0.392417,0.279456,-0.745104
85,-0.7518199999999999,-1.0981940000000001,-2.19118,-0.31088899999999997,0.890387,-0.33250100000000005,-0.990394,0.426525,0.315368,-0.46805699999999995,1.114359,-0.9417760000000001
86,-0.762211,-1.1015030000000001,-2.197258,-0.312291,0.8918879999999999,-0.32711999999999997,0.20700300000000002,-0.667708,-0.14060999999999998,-0.37661300000000003,1.217655,-0.8718239999999999
87,-0.7642329999999999,-1.091293,-2.182762,-0.319237,0.887224,-0.333045,0.700004,-0.523975,-0.015574000000000001,0.009422,-0.000826,-0.418145
88,-0.756166,-1.086912,-2.16439,-0.319204,0.885194,-0.338434,0.256592,-0.636436,0.25387,-0.24441,-0.429704,-0.427436
89,-0.776079,-1.091019,-2.156725,-0.32333,0.8870979999999999,-0.329413,-0.184337,-1.666036,0.23929099999999998,-0.41057200000000005,-0.30589,-0.38245500000000004
90,-0.806923,-1.105659,-2.16499,-0.32392,0.89376,-0.310268,-1.0001790000000002,-0.555549,0.562249,-0.272698,0.558922,1.0147959999999998
91,-0.816796,-1.133756,-2.200939,-0.30853600000000003,0.9060090000000001,-0.289745,-1.7076770000000001,2.164709,0.224809,-0.662656,1.0957459999999999,0.9312239999999999
92,-0.80276,-1.134685,-2.229794,-0.303834,0.906401,-0.293462,0.784353,0.964458,-0.681326,-0.507781,0.653047,-0.366236
93,-0.806063,-1.114231,-2.235429,-0.318114,0.8975719999999999,-0.305231,-0.22675599999999999,0.26511999999999997,-0.740903,0.159774,-0.8814129999999999,0.832498
94,-0.845741,-1.120681,-2.289168,-0.32563200000000003,0.9003969999999999,-0.288526,-1.535564,0.355952,-0.47669700000000004,0.379129,-0.489371,0.304716
95,-0.9128850000000001,-1.151959,-2.386618,-0.321807,0.9135629999999999,-0.24868099999999999,-3.0226889999999997,2.037171,0.22540100000000002,0.518874,-0.233555,0.47503
96,-0.957181,-1.2035799999999999,-2.505554,-0.293522,0.9333299999999999,-0.20673200000000003,-3.573369,3.637432,0.913848,0.431278,0.392994,0.7805840000000001
97,-1.01861,-1.264577,-2.660719,-0.256651,0.9534799999999999,-0.158127,-3.792556,4.714252,1.147015,0.578367,0.846324,0.5575869999999999
98,-1.08093,-1.310423,-2.822418,-0.227162,0.9662940000000001,-0.121127,-2.500566,4.276865,0.716492,0.645543,0.9846030000000001,0.34112800000000004
99,-1.10799,-1.334443,-2.9030400000000003,-0.209524,0.972198,-0.10454200000000001,-0.9220290000000001,1.196433,0.593665,0.312368,0.210327,-0.40375900000000003
100,-1.153017,-1.355069,-2.931954,-0.195645,0.9768209999999999,-0.086849,-0.832413,-1.764677,0.959145,0.28162800000000004,-0.063933,-0.16048099999999998
101,-1.274491,-1.384663,-3.010636,-0.176992,0.982727,-0.054034000000000006,-1.461049,-2.1550599999999998,1.094123,0.19515,-0.23524499999999998,0.21065100000000003
102,-1.4514790000000002,-1.4115,3.1205119999999997,-0.15749200000000002,0.987339,-0.018881000000000002,-1.577803,-0.8963110000000001,1.030805,0.008536,-0.295246,0.045752
103,-1.6868419999999997,-1.433151,2.8931080000000002,-0.136282,0.990542,0.015886,-1.7292740000000002,-0.301816,1.144354,-0.016855000000000002,-0.27017399999999997,-0.09074600000000001
104,-1.984575,-1.446709,2.590839,-0.11331600000000001,0.992311,0.049761,-1.6710169999999998,0.281891,1.1098290000000002,-0.056423,-0.123796,-0.26915100000000003
105,-2.263648,-1.446058,2.305143,-0.095723,0.99223,0.079463,-1.427058,0.07478,0.7443310000000001,-0.121044,-0.032666,-0.293865
106,-2.44901,-1.4362,2.1202330000000003,-0.08567899999999999,0.990956,0.10326700000000001,-1.012294,-0.11585699999999999,0.37358600000000003,-0.0029289999999999997,-0.10027,-0.23948200000000003
107,-2.5449479999999998,-1.4252850000000001,2.028194,-0.081465,0.989432,0.119939,-0.7738079999999999,-0.28806,0.07423400000000001,0.024565,-0.0978,-0.244664
108,-2.605396,-1.410056,1.97288,-0.081759,0.987109,0.137579,-0.9488629999999999,-0.255806,-0.113969,0.044742000000000004,-0.008029000000000001,-0.270804
109,-2.653163,-1.390323,1.9302009999999998,-0.084223,0.983759,0.1585,-1.070686,-0.359539,-0.174507,0.094828,-0.069849,-0.269417
110,-2.697584,-1.368834,1.893376,-0.086164,0.979675,0.181136,-1.152787,-0.358148,-0.184697,0.097501,-0.043089999999999996,-0.204527
111,-2.721679,-1.344036,1.869802,-0.091654,0.9744,0.20528600000000002,-1.257582,0.118065,-0.368705,0.12172899999999999,0.012615000000000001,-0.212579
112,-2.7247209999999997,-1.320362,1.86188,-0.100343,0.9688049999999999,0.226597,-0.990358,0.244905,-0.352046,0.179872,0.019263,-0.343525
113,-2.726588,-1.305009,1.8575869999999999,-0.105905,0.964886,0.240369,-0.5690310000000001,0.100231,-0.235686,0.219873,0.170307,-0.24117800000000003
114,-2.714903,-1.295754,1.8625330000000002,-0.112398,0.962414,0.24723499999999998,-0.316358,0.506401,-0.263283,0.225908,0.406559,-0.16784300000000002
115,-2.690416,-1.2896239999999999,1.8740729999999999,-0.12098800000000001,0.960731,0.24971300000000002,-0.154423,0.696504,-0.258123,0.200822,0.503121,-0.20068699999999998
116,-2.674068,-1.2874370000000002,1.886206,-0.126,0.9601219999999999,0.249577,0.085622,-0.164372,-0.166681,0.082986,0.361732,-0.342015
117,-2.665339,-1.2928030000000001,1.910748,-0.12580999999999998,0.961608,0.243885,0.619553,-1.038562,-0.197082,0.21362399999999998,0.38104299999999997,-0.323872
118,-2.646788,-1.3098370000000001,1.957107,-0.12251600000000001,0.966143,0.227061,1.282319,-1.335401,-0.066022,0.585056,0.639372,-0.083262
119,-2.6261189999999996,-1.340195,2.0025459999999997,-0.112669,0.9735290000000001,0.198863,1.763098,-1.1558760000000001,0.442375,0.650786,0.7212189999999999,-0.008357
120,-2.596257,-1.379642,2.068136,-0.09855,0.981785,0.162435,2.269017,-2.323049,0.178213,0.531945,0.517421,-0.133779
121,-2.403901,-1.418037,2.3230560000000002,-0.10234299999999999,0.9883549999999999,0.112605,3.041555,-2.965637,-0.966043,0.004091,-0.149198,0.11516300000000002
122,-2.052954,-1.4333690000000001,2.7256299999999998,-0.121376,0.9905719999999999,0.063523,2.485768,-2.115393,-1.321391,-0.042503,-0.214311,0.08819500000000001
123,-1.7191130000000001,-1.4167399999999999,3.100093,-0.151763,0.988157,0.022675999999999998,2.327953,-1.540141,-1.7174049999999998,-0.01677,0.37864899999999996,0.45985299999999996
124,-1.432893,-1.384363,-2.880751,-0.183595,0.982672,-0.025480000000000003,2.673639,0.044217,-1.557855,-0.033294,0.5905859999999999,0.590132
125,-1.181499,-1.340402,-2.640016,-0.211274,0.973576,-0.086672,3.159691,1.042218,-1.406188,-0.077087,0.460689,0.469591
126,-0.999036,-1.283398,-2.465881,-0.238373,0.9589850000000001,-0.153382,3.238323,0.337373,-1.5660370000000001,-0.021377,0.285019,0.18918
127,-0.9358350000000001,-1.225198,-2.3665279999999997,-0.272733,0.940873,-0.200933,2.813811,-2.777818,-1.383413,0.225415,0.047317000000000005,0.26868200000000003
128,-0.915141,-1.170739,-2.264956,-0.308713,0.9210389999999999,-0.237452,3.423296,-3.8590129999999996,-0.861819,0.369413,0.09274,0.34524
129,-0.855708,-1.112949,-2.134417,-0.333739,0.897006,-0.28982399999999997,4.141902,-2.221107,-0.298081,0.597488,0.13280999999999998,0.325683
130,-0.7733399999999999,-1.062964,-2.0046,-0.339683,0.873801,-0.347975,3.580582,-1.588935,0.604108,0.569297,0.024103,0.175627
131,-0.724572,-1.035272,-1.897372,-0.338229,0.860001,-0.382098,2.412525,-2.659807,1.15066,0.469913,-0.017563,0.282275
132,-0.720014,-1.0223719999999998,-1.813611,-0.343771,0.853347,-0.391944,1.745742,-3.5928410000000004,1.158949,0.48152799999999996,-0.349578,0.6525340000000001
133,-0.732625,-1.0084520000000001,-1.743754,-0.356597,0.846008,-0.39637100000000003,1.739513,-3.4878440000000004,0.748574,0.246779,-0.465423,0.690484
134,-0.749868,-0.991625,-1.686003,-0.373028,0.836917,-0.400525,1.600501,-3.111314,0.481133,0.07063,-0.465747,0.602459
135,-0.769048,-0.981292,-1.6440700000000001,-0.386635,0.831216,-0.39949,0.8553149999999999,-2.447431,0.540238,-0.168891,-0.38273,0.427184
136,-0.783525,-0.985974,-1.617242,-0.38962800000000003,0.83381,-0.39109,0.103327,-1.4582629999999999,0.777273,-0.096716,-0.34139400000000003,0.374
137,-0.788375,-1.0003790000000001,-1.6002239999999999,-0.382961,0.841675,-0.380688,-0.327856,-0.715594,0.841676,-0.061161,-0.312089,0.297039
138,-0.792137,-1.019382,-1.593115,-0.372935,0.851785,-0.36794299999999996,-0.6601060000000001,-0.39251199999999997,0.787666,-0.023458,-0.39902600000000005,0.12438199999999999
139,-0.8066760000000001,-1.042793,-1.599564,-0.363746,0.863815,-0.348587,-1.1127770000000001,-0.5620390000000001,0.6843090000000001,0.031531,-0.37388499999999997,-0.025833
140,-0.846324,-1.072648,-1.624798,-0.357799,0.878469,-0.316657,-1.686123,-1.1002610000000002,0.71304,0.076321,-0.320882,-0.11676900000000001
141,-0.911309,-1.108044,-1.666194,-0.352802,0.894827,-0.273522,-1.849261,-1.531219,0.734885,0.000126,0.244821,-0.516075
142,-0.9714389999999999,-1.133168,-1.702206,-0.34992399999999996,0.905759,-0.23906599999999997,-0.9716819999999999,-1.252787,0.408442,-0.251089,0.894885,-0.840448
143,-0.992036,-1.138889,-1.7032889999999998,-0.35043,0.908169,-0.22896999999999998,0.228223,-0.8374309999999999,0.19303199999999998,-0.267979,0.96529,-0.894458
144,-0.976449,-1.143478,-1.675654,-0.343361,0.9100809999999999,-0.232068,0.237333,-0.21626199999999998,0.6890229999999999,-0.09789199999999999,0.127349,-0.424579
145,-0.962249,-1.158312,-1.6508,-0.328918,0.916128,-0.22917600000000002,-0.012139,-0.799413,1.0159719999999999,0.10192799999999999,-0.618795,-0.197322
146,-0.9579700000000001,-1.172452,-1.610282,-0.317305,0.9217040000000001,-0.223108,0.317273,-1.877268,0.945947,0.183409,-0.45969899999999997,0.350213
147,-0.955405,-1.189129,-1.6006989999999999,-0.304137,0.9280450000000001,-0.215017,-1.0286549999999999,0.8936290000000001,0.7524649999999999,0.08279299999999999,-0.096304,1.1602219999999999
148,-0.9870620000000001,-1.217842,-1.685905,-0.28843,0.938356,-0.19051400000000002,-2.3043310000000004,3.136708,-0.173718,-0.380103,1.144622,-0.148537
149,-1.01461,-1.1877309999999999,-1.753166,-0.31742800000000004,0.927523,-0.197329,1.3007440000000001,-0.465868,-3.0751209999999998,-0.406617,1.112333,-0.287046
150,-1.059291,-1.138207,-1.7782040000000001,-0.36556500000000003,0.907883,-0.20520500000000003,-0.201802,0.127364,-1.210579,0.10138899999999999,-0.672135,1.218343
151,-1.099644,-1.15469,-1.8379580000000002,-0.360161,0.9146700000000001,-0.183472,-1.8534490000000001,0.5908439999999999,0.464013,0.61216,-0.387784,0.651749
152,-1.161087,-1.180782,-1.914177,-0.348733,0.924903,-0.15145,-1.9507759999999998,0.447842,0.612,0.7166680000000001,-0.038489999999999996,0.691016
153,-1.2321819999999999,-1.206291,-1.999912,-0.336241,0.9343,-0.11841700000000001,-1.848568,0.34544,0.557297,0.8968799999999999,0.9354969999999999,0.696649
154,-1.281093,-1.224508,-2.054186,-0.325262,0.9406389999999999,-0.096957,-0.7034239999999999,-0.165037,0.6823859999999999,0.678686,0.358784,0.159396
155,-1.301588,-1.2516049999999999,-2.051991,-0.30249299999999996,0.94949,-0.083459,-0.24973299999999998,-1.699391,1.7087419999999998,0.602557,0.068378,0.079858
156,-1.33256,-1.291334,-2.041829,-0.268044,0.9612040000000001,-0.065094,-0.535247,-2.058445,1.9699900000000001,0.360207,-0.09436699999999999,-0.120697
157,-1.420612,-1.333753,-2.100198,-0.23218200000000003,0.972036,-0.035135,-1.502765,-1.070778,1.970504,0.130696,-0.10996099999999999,0.014108
158,-1.579053,-1.376169,-2.260364,-0.193389,0.9811200000000001,0.0015970000000000001,-1.96075,0.530845,1.9727299999999999,0.040282,-0.199916,0.09479299999999999
159,-1.800627,-1.40792,-2.508184,-0.157886,0.986765,0.03694,-2.027285,1.102175,1.678841,-0.15307300000000001,-0.144526,-0.21259899999999998
160,-2.077408,-1.414383,-2.793987,-0.136202,0.987792,0.075581,-1.8766459999999998,-0.335604,0.664788,-0.318601,-0.15270899999999998,-0.170094
161,-2.2598700000000003,-1.398259,-2.958551,-0.13250399999999998,0.985152,0.109154,-1.3962629999999998,-1.2652889999999999,-0.092307,-0.310444,-0.25404299999999996,-0.117729
162,-2.388218,-1.382932,-3.06054,-0.12775699999999998,0.982405,0.136213,-1.093067,-1.427218,0.17920999999999998,0.034068,-0.060759,-0.14044
163,-2.491534,-1.369216,-3.1356349999999997,-0.121173,0.979751,0.159376,-0.941362,-1.503953,0.056454,0.175921,0.030716000000000004,-0.180738
164,-2.5761939999999997,-1.352352,3.087793,-0.11609900000000001,0.9762360000000001,0.182979,-1.189215,-1.123769,0.035008,0.116557,0.044623,-0.239207
165,-2.659376,-1.328176,3.022307,-0.111409,0.9707120000000001,0.212844,-1.472233,-0.961884,0.023209,0.111608,0.059653,-0.362746
166,-2.721961,-1.306714,2.9818919999999998,-0.10634400000000001,0.965333,0.23836999999999997,-0.9613809999999999,-1.308543,-0.042213,0.14597100000000002,-0.006775,-0.238736
167,-2.752361,-1.291015,2.970565,-0.10478900000000001,0.961116,0.255485,-0.768127,-0.534985,-0.251225,0.16139900000000001,-2.6000000000000002e-05,-0.125831
168,-2.7486990000000002,-1.273217,2.966037,-0.112256,0.9560489999999999,0.270861,-0.894042,0.9013770000000001,-0.23471799999999998,0.183942,0.14794000000000002,-0.113878
169,-2.743445,-1.2550860000000001,2.948868,-0.120379,0.950576,0.28620100000000004,-0.963198,0.865822,-0.074922,0.124194,0.28447,-0.403754
170,-2.750485,-1.238765,2.944664,-0.12426,0.945382,0.301346,-0.590903,-0.6681189999999999,-0.41111800000000004,0.11219000000000001,0.311591,-0.247421
171,-2.752891,-1.22841,2.963896,-0.12723800000000002,0.9419559999999999,0.310687,-0.283646,-1.219635,-0.485177,0.25304699999999997,0.353652,-0.330142
172,-2.764533,-1.2210969999999999,2.979193,-0.126145,0.939476,0.31854299999999997,-0.225764,-1.2163030000000001,-0.30318,0.375367,0.388329,-0.31143200000000004
173,-2.7715490000000003,-1.216184,2.989016,-0.125575,0.937781,0.323718,-0.10693599999999999,-0.587399,-0.237994,0.38505,0.385491,-0.355777
174,-2.768353,-1.216051,3.005557,-0.126654,0.937735,0.32343099999999997,0.253112,-0.782251,-0.3068,0.38703000000000004,0.297205,-0.48325200000000007
175,-2.764207,-1.225061,3.038875,-0.124875,0.9408270000000001,0.31503600000000004,0.904283,-1.728041,-0.382225,0.42887600000000003,0.29746999999999996,-0.486087
176,-2.75981,-1.249859,3.087375,-0.117529,0.94894,0.292738,1.755141,-2.12063,-0.179225,0.523672,0.426777,-0.255156
177,-2.736642,-1.288356,-3.130751,-0.109798,0.9603780000000001,0.256153,2.3069889999999997,-1.8677759999999999,-0.22055999999999998,0.157771,0.10966,0.09427999999999999
178,-2.674035,-1.3266870000000002,-3.028811,-0.10893,0.970353,0.215746,2.261315,-1.57694,-0.45092,-0.017412999999999998,0.039748,0.10893
179,-2.54984,-1.358009,-2.8757740000000003,-0.117799,0.9774459999999999,0.175271,2.213993,-1.210442,-0.952716,-0.110945,0.009264,0.091575
180,-2.327,-1.376254,-2.6188990000000003,-0.140623,0.981136,0.132643,2.528702,-1.368802,-1.582702,-0.168383,0.247059,0.344896
181,-1.998849,-1.3804049999999999,-2.273838,-0.172163,0.98193,0.078552,3.0058380000000002,0.023256,-1.665543,-0.200929,0.549182,0.401138
182,-1.639034,-1.3622969999999999,-1.921012,-0.206506,0.9783430000000001,0.014112999999999999,3.1926189999999997,0.878469,-1.776429,-0.232519,0.47247799999999995,0.310838
183,-1.357686,-1.3184690000000001,-1.652323,-0.24400700000000003,0.968334,-0.052801999999999995,3.1602,0.991524,-2.048129,-0.234844,0.17258099999999998,0.241218
184,-1.211092,-1.268038,-1.495963,-0.27907,0.954518,-0.104949,2.5333099999999997,-1.248621,-1.537959,-0.094725,-0.059192999999999996,0.350844
185,-1.140149,-1.22821,-1.36706,-0.305251,0.941889,-0.140234,2.8662009999999998,-3.152,-0.8292360000000001,0.284194,0.017202000000000002,0.294103
186,-1.057719,-1.184361,-1.213766,-0.328358,0.926258,-0.184999,3.763324,-2.764891,-0.645073,0.498188,0.123089,0.325151
187,-0.954707,-1.135664,-1.054576,-0.344028,0.9068139999999999,-0.243579,4.020442,-1.8047349999999998,-0.15526099999999998,0.610416,0.09433,0.287586
188,-0.8616950000000001,-1.09077,-0.917652,-0.350483,0.886983,-0.300703,3.503917,-1.4603709999999999,0.222045,0.575062,-0.189656,0.200987
189,-0.818756,-1.057557,-0.821789,-0.358575,0.871159,-0.335417,2.365171,-2.2585439999999997,0.21404499999999999,0.364679,-0.460926,0.402006
190,-0.81806,-1.034219,-0.768633,-0.373081,0.8594639999999999,-0.349473,1.52772,-2.248267,-0.031099,0.137744,-0.609799,0.5044109999999999
191,-0.8292370000000001,-1.014314,-0.7322029999999999,-0.389504,0.849118,-0.356767,1.281224,-2.035359,-0.046981,0.008431000000000001,-0.57472,0.425188
192,-0.840111,-1.0012809999999999,-0.702793,-0.401568,0.8421629999999999,-0.35986599999999996,0.829399,-1.5230780000000002,0.107303,0.03255,-0.46928400000000003,0.349063
193,-0.841699,-0.9997219999999999,-0.684254,-0.403118,0.8413209999999999,-0.360103,0.177677,-0.49395900000000004,0.389852,0.053463,-0.43990799999999997,0.292491
194,-0.835015,-1.0117200000000002,-0.674862,-0.39319,0.8477459999999999,-0.355988,-0.44842,0.139551,0.747863,0.110384,-0.45597600000000005,0.20962600000000003
195,-0.825219,-1.036499,-0.672511,-0.374133,0.860627,-0.345463,-0.982793,0.49272200000000005,1.069485,0.061952999999999994,-0.48080500000000004,0.09261
196,-0.818869,-1.07108,-0.6779229999999999,-0.349977,0.877718,-0.32729899999999995,-1.438612,0.578956,1.2114690000000001,0.001939,-0.162554,-0.24707199999999999
197,-0.8226389999999999,-1.1094,-0.692132,-0.326305,0.895432,-0.302863,-1.532378,0.26544,1.1075979999999999,-0.05312000000000001,0.10195900000000001,-0.502496
198,-0.839842,-1.137975,-0.706307,-0.312283,0.9077860000000001,-0.280005,-0.9044399999999999,-0.513695,0.668602,-0.283603,0.780157,-0.8669979999999999
199,-0.853618,-1.146164,-0.705138,-0.31049699999999997,0.9111899999999999,-0.270781,0.19446,-0.831674,0.114801,-0.335331,0.836994,-0.8994620000000001
200,-0.841799,-1.138564,-0.676161,-0.312431,0.908033,-0.279036,0.8154140000000001,-0.510311,0.196707,-0.21210500000000002,0.45884899999999995,-0.765962
201,-0.81966,-1.138624,-0.648997,-0.306137,0.908058,-0.28584699999999996,0.12698299999999998,-0.036139,0.495734,-0.23495500000000002,-0.157875,-0.38711100000000004
202,-0.8138890000000001,-1.148782,-0.630354,-0.29776199999999997,0.912266,-0.28126,-0.061762,-1.0131,0.684743,-0.177214,-0.017216,-0.088415
203,-0.83016,-1.156518,-0.611101,-0.29708,0.915407,-0.271608,0.01157,-1.757153,0.477905,0.063956,0.21818400000000002,0.128663
204,-0.823786,-1.171948,-0.5984510000000001,-0.28494400000000003,0.921509,-0.263866,-0.650425,0.8854879999999999,0.8619319999999999,0.308641,1.22406,0.7526970000000001
205,-0.8002100000000001,-1.179978,-0.608487,-0.273327,0.9245979999999999,-0.265347,0.421421,1.229845,-0.13408299999999998,-0.41513500000000003,-0.6417,1.3024719999999999
206,-0.7709090000000001,-1.165503,-0.587817,-0.274733,0.9189870000000001,-0.28281100000000003,0.278972,0.608317,-0.15885,-0.47158999999999995,-1.1906700000000001,1.216314
207,-0.779983,-1.177138,-0.6111479999999999,-0.26975,0.9235120000000001,-0.272687,-1.441173,0.224939,0.235544,-0.34467600000000004,-0.9833569999999999,-0.33050799999999997
208,-0.847989,-1.213117,-0.68998,-0.26255700000000004,0.9367120000000001,-0.23158800000000002,-2.509197,1.442891,0.276729,0.29237199999999997,0.018611000000000003,1.171605
209,-0.8997440000000001,-1.250724,-0.8188439999999999,-0.24640900000000002,0.949213,-0.195641,-2.919314,4.157621,-0.0020109999999999998,0.29889899999999997,-0.201196,1.079094
210,-0.978656,-1.287303,-0.993559,-0.23208600000000001,0.960084,-0.156115,-3.359754,4.350188,-0.090792,0.497985,0.22256399999999998,0.7911090000000001
211,-1.0777729999999999,-1.319468,-1.190691,-0.21906799999999998,0.968583,-0.1177,-2.6105,4.560052,0.057315,0.77754,1.016341,0.046778
212,-1.1298110000000001,-1.334884,-1.305818,-0.21136300000000002,0.972302,-0.09976,-1.1225399999999999,1.7474040000000002,0.179203,0.5570970000000001,0.448475,-0.26584
213,-1.190116,-1.353472,-1.364278,-0.200175,0.9764780000000001,-0.08011,-1.0281129999999998,-1.072015,0.8041119999999999,0.27112800000000004,0.017815,0.010546
214,-1.313675,-1.382197,-1.460607,-0.181311,0.982268,-0.047674,-1.571579,-1.4924540000000002,1.188619,0.20436700000000002,-0.141921,0.054770000000000006
215,-1.50931,-1.412822,-1.634406,-0.15700999999999998,0.987548,-0.009666,-1.738427,-1.013949,1.284049,0.134961,-0.23898200000000003,0.061301999999999995
216,-1.7567599999999999,-1.437865,-1.871982,-0.130243,0.9911780000000001,0.024503999999999998,-1.560051,-0.40876999999999997,1.369977,-0.013968000000000001,-0.24604499999999999,-0.022383
217,-2.047066,-1.451714,-2.162186,-0.10556900000000001,0.9929180000000001,0.054461,-1.416965,0.061600999999999996,1.100114,-0.18653,-0.288008,-0.248552
218,-2.3169310000000003,-1.450191,-2.431654,-0.088338,0.9927360000000001,0.08166,-1.385376,-0.41315,0.716383,-0.271372,-0.215545,-0.35135900000000003
219,-2.530843,-1.436863,-2.630796,-0.076573,0.991044,0.109384,-1.1559139999999999,-0.708834,0.402171,-0.062526,-0.098222,-0.109155
220,-2.634682,-1.424714,-2.733716,-0.070663,0.9893489999999999,0.12725,-0.828492,0.26656799999999997,0.21626900000000002,0.056792999999999996,-0.083602,-0.050894999999999996
221,-2.699448,-1.409366,-2.816225,-0.06876900000000001,0.9869979999999999,0.145266,-1.109394,1.17505,0.24305300000000002,0.066862,-0.092086,-0.038699000000000004
222,-2.7668,-1.3858700000000002,-2.913806,-0.06731000000000001,0.98295,0.171105,-1.596231,1.4161190000000001,0.31945999999999997,0.046436,-0.079172,-0.247536
223,-2.828852,-1.353177,-2.993725,-0.066426,0.9764139999999999,0.20542800000000003,-1.869762,0.368761,0.072132,0.009892,-0.08527,-0.19506700000000002
224,-2.8634939999999998,-1.31965,-3.027134,-0.068223,0.968628,0.23896399999999998,-1.568254,-0.239448,-0.20485599999999998,-0.007292,-0.062439,-0.141902
225,-2.871877,-1.2922639999999999,-3.032408,-0.07326,0.96146,0.265,-1.231033,-0.134552,-0.355391,-0.0037359999999999997,0.092815,-0.347077
226,-2.874305,-1.2685549999999999,-3.026321,-0.07861599999999999,0.954672,0.287088,-1.054899,-0.642019,-0.409058,0.021869,0.139704,-0.45154799999999995
227,-2.877609,-1.2488569999999999,-3.014344,-0.08255900000000001,0.948623,0.305444,-0.799737,-0.663968,-0.469204,0.210092,0.332352,-0.42199
228,-2.868703,-1.2335530000000001,-3.001804,-0.089179,0.9436700000000001,0.318641,-0.637261,0.294564,-0.289837,0.42185100000000003,0.43152799999999997,-0.263206
229,-2.851802,-1.224326,-3.0065470000000003,-0.097035,0.940577,0.32542,-0.33619299999999996,1.453051,0.11457,0.421513,0.42592399999999997,-0.201321
230,-2.8427580000000003,-1.223241,-3.031996,-0.100275,0.940208,0.325504,-0.127253,1.591274,0.5313899999999999,0.554971,0.437767,-0.322757
231,-2.847734,-1.222318,-3.060749,-0.09890499999999999,0.939894,0.326829,-0.235408,0.83926,0.341455,0.238904,0.187624,-0.354508
232,-2.854103,-1.2196209999999998,-3.079552,-0.09754,0.938969,0.329883,-0.126564,0.36803400000000003,0.340683,0.06217,0.21505300000000002,-0.513904
233,-2.871687,-1.228238,-3.085069,-0.089564,0.9418979999999999,0.323736,0.781047,-1.1998309999999999,0.03177,0.122675,0.283398,-0.352484
234,-2.8794459999999997,-1.251924,-3.054824,-0.08124400000000001,0.9495899999999999,0.30278499999999997,1.528897,-2.201602,-0.24693800000000002,0.303381,0.339,-0.17210899999999998
235,-2.878217,-1.288466,-3.001419,-0.07253,0.9604090000000001,0.268988,2.171194,-2.526241,-0.33817600000000003,0.030202,0.227885,-0.024908
236,-2.851867,-1.332785,-2.918073,-0.067357,0.971809,0.225944,2.649664,-2.7734970000000003,-0.45843,-0.20870500000000003,0.20092100000000002,0.108254
237,-2.7660549999999997,-1.38049,-2.787678,-0.069378,0.9819459999999999,0.175976,2.602907,-1.484703,-0.6366649999999999,-0.2197,0.149264,0.173023
238,-2.552895,-1.416236,-2.55912,-0.085481,0.988079,0.128028,2.473005,-0.194604,-1.068651,-0.249617,0.321872,0.27774899999999997
239,-2.15476,-1.434919,-2.167984,-0.113008,0.990783,0.074682,2.746424,1.0591139999999999,-1.543706,-0.34686100000000003,0.563783,0.402156
240,-1.641213,-1.416757,-1.683055,-0.153048,0.988159,0.010795,3.162842,1.706753,-2.157991,-0.357633,0.457107,0.268944
241,-1.283877,-1.3652790000000001,-1.3503610000000001,-0.195729,0.9789559999999999,-0.057752,3.2672939999999997,1.293786,-2.072343,-0.5463210000000001,0.084674,0.315107
242,-1.067793,-1.3095860000000001,-1.1467889999999998,-0.22626100000000002,0.9660780000000001,-0.124491,3.1368720000000003,0.68023,-1.437944,-0.333278,-0.07243200000000001,0.353541
243,-0.9507190000000001,-1.2548059999999999,-1.022033,-0.252904,0.9504889999999999,-0.18058,2.9071849999999997,-0.9831979999999999,-1.372255,0.133352,-0.009052,0.10172300000000001
244,-0.925208,-1.1969,-0.9247989999999999,-0.29173699999999997,0.930911,-0.219756,3.3016160000000006,-4.30851,-1.301146,0.512043,0.143567,0.363051
245,-0.882481,-1.1327129999999999,-0.800809,-0.327619,0.905567,-0.269469,4.154807,-2.4641439999999997,-0.802963,0.730726,0.159711,0.605941
246,-0.797005,-1.075345,-0.679534,-0.340057,0.879754,-0.332254,3.661633,-0.79203,-0.018066,0.60614,-0.146615,0.204324
247,-0.750737,-1.036831,-0.595909,-0.347195,0.8607959999999999,-0.372137,2.324309,-1.7338220000000002,0.097713,0.233013,-0.534914,0.48998100000000006
248,-0.756316,-1.007042,-0.5470430000000001,-0.366705,0.845255,-0.388679,1.85663,-2.569452,-0.182221,0.09963,-0.6342260000000001,0.584892
249,-0.7756460000000001,-0.980068,-0.509337,-0.389974,0.830535,-0.397656,1.492979,-2.469375,-0.11865899999999999,-0.011301,-0.5896600000000001,0.453061
250,-0.794312,-0.967583,-0.483207,-0.40469499999999997,0.823517,-0.397543,0.640541,-1.67724,0.194838,0.150194,-0.455506,0.417944
251,-0.805267,-0.9699409999999999,-0.46917299999999995,-0.407624,0.824852,-0.39174000000000003,-0.02885,-0.797135,0.46143100000000004,0.147309,-0.44358100000000006,0.39419699999999996
252,-0.806424,-0.983722,-0.463185,-0.399834,0.832565,-0.383364,-0.544135,-0.056025,0.721801,0.098579,-0.454849,0.305162
253,-0.798917,-1.009314,-0.462384,-0.38154699999999997,0.846467,-0.371368,-1.0698370000000001,0.584661,1.063412,0.07405199999999999,-0.45395,0.044128
254,-0.782223,-1.046924,-0.466528,-0.352595,0.8658879999999999,-0.354842,-1.5802770000000002,1.255291,1.362362,0.005152,-0.405149,-0.093019
255,-0.76067,-1.091325,-0.475037,-0.318029,0.8872389999999999,-0.33416,-1.733105,1.4241780000000002,1.351464,-0.233118,-0.174913,-0.523247
256,-0.749567,-1.12368,-0.48071499999999995,-0.29458,0.901698,-0.316485,-0.8981450000000001,0.30601300000000003,0.801118,-0.426886,0.7508600000000001,-1.148802
257,-0.759686,-1.137523,-0.48020100000000004,-0.289143,0.907596,-0.304408,-0.312415,-1.120507,0.323125,-0.394069,1.034405,-1.100103
258,-0.77688,-1.139834,-0.47242,-0.292863,0.9085639999999999,-0.29789499999999997,0.225492,-0.975891,0.188897,-0.218994,0.8465469999999999,-0.8360770000000001
259,-0.76737,-1.140658,-0.45560900000000004,-0.289497,0.9089079999999999,-0.300128,0.151321,-0.000442,0.338816,-0.32531,-0.2746,-0.380811
260,-0.755278,-1.1445610000000002,-0.438331,-0.283412,0.910529,-0.301021,0.170516,-0.460775,0.355563,-0.521794,-0.284674,-0.334767
261,-0.767843,-1.144423,-0.43348000000000003,-0.28726,0.9104709999999999,-0.297527,-0.189935,-0.7967810000000001,-0.019333000000000003,-0.654863,0.248968,0.438075
262,-0.799854,-1.1545159999999999,-0.466625,-0.290028,0.9145989999999999,-0.281762,-0.940224,0.818501,-0.24883400000000003,-0.182323,1.578595,0.8733299999999999
263,-0.779125,-1.13762,-0.48365,-0.294943,0.907637,-0.298667,1.606866,1.274211,-1.066976,0.13841900000000001,0.30023299999999997,0.527442
264,-0.755514,-1.1106260000000001,-0.47851099999999996,-0.304502,0.895977,-0.323268,0.283993,1.020309,-0.628306,-0.076922,-1.30331,1.41009
265,-0.767626,-1.119998,-0.512474,-0.302551,0.9001,-0.3135,-1.809602,0.610721,-0.015359000000000001,0.130248,-0.957717,-0.19739500000000001
266,-0.801054,-1.164447,-0.599657,-0.28383,0.9185700000000001,-0.275079,-3.332825,4.044127,0.49943999999999994,0.37896799999999997,0.08822,0.9812860000000001
267,-0.805834,-1.2253479999999999,-0.71426,-0.24428000000000002,0.940924,-0.23449499999999998,-3.675328,5.2703120000000006,0.782828,0.270861,0.426721,0.992185
268,-0.837417,-1.287826,-0.855157,-0.20742600000000003,0.9602299999999999,-0.186896,-3.602543,5.154729,0.8529190000000001,0.33828600000000003,0.664602,0.746588
269,-0.845506,-1.328439,-0.959986,-0.179584,0.970775,-0.159196,-1.5733219999999999,3.7136410000000004,0.369012,0.74361,0.829335,-0.085997
270,-0.865093,-1.3450870000000001,-1.006068,-0.17034100000000002,0.9746360000000001,-0.145145,-0.7987380000000001,-0.13236099999999998,0.31953000000000004,0.448661,0.33432399999999995,-0.11600899999999999
271,-0.934743,-1.36632,-1.047549,-0.16334100000000001,0.979167,-0.12061600000000001,-1.208293,-1.839119,0.720508,0.268016,0.03603,0.108149
272,-1.025518,-1.3988690000000001,-1.1093549999999999,-0.146265,0.9852569999999999,-0.088728,-1.451967,-1.201096,1.216848,0.23326999999999998,-0.101529,0.060057000000000006
273,-1.129337,-1.4414790000000002,-1.196385,-0.116584,0.99165,-0.055092999999999996,-1.6222809999999999,-0.610241,1.723375,-0.075616,-0.060115999999999996,-0.100928
274,-1.296869,-1.485755,-1.365781,-0.08175299999999999,0.9963860000000001,-0.022972,-1.684834,0.442407,1.7386810000000001,-0.057377,-0.148593,-0.290489
275,-1.8426650000000002,-1.518533,-1.9175360000000001,-0.050292,0.998635,0.01402,-1.851921,-0.061572,1.3771,-0.072999,-0.156533,-0.336377
276,-2.532777,-1.521967,-2.612849,-0.027898000000000003,0.998808,0.040017000000000004,-1.0155889999999999,0.50369,1.0190219999999999,0.033451999999999996,-0.355147,-0.058388
277,-2.99303,-1.508184,-3.105571,-0.009257,0.9980399999999999,0.06185499999999999,-1.411608,2.345914,1.00535,-0.090886,-0.186441,-0.250225
278,3.1323990000000004,-1.4712399999999999,2.966482,0.0009140000000000001,0.9950479999999999,0.099369,-1.9998349999999998,2.470374,0.49474399999999996,-0.21232399999999998,-0.06559,-0.347035
279,3.126839,-1.439143,2.926389,0.001936,0.991346,0.131244,-1.311625,1.414795,0.137709,-0.140959,-0.042936,0.003399
280,-3.1349009999999997,-1.419686,2.928665,-0.001007,0.988604,0.15051900000000001,-0.8626450000000001,0.490329,-0.033158999999999994,-0.002884,-0.01842,-0.10868
281,3.129673,-1.399197,2.9251549999999997,0.0020350000000000004,0.9853129999999999,0.170733,-1.1843920000000001,-1.46472,0.046147,0.271067,-0.051551,-0.358645
282,3.101721,-1.375769,2.927898,0.007723999999999999,0.981042,0.193629,-1.055489,-1.0984479999999999,-0.019651,0.023312,0.082587,-0.23667399999999997
283,3.126994,-1.357715,2.947943,0.003087,0.977384,0.211439,-0.888214,0.972879,-0.27216999999999997,-0.169972,0.125201,-0.28837399999999996
284,-3.1113560000000002,-1.3404040000000002,2.969468,-0.006903,0.973577,0.22824499999999998,-0.823517,1.197136,-0.19936600000000002,-0.092767,0.18351199999999998,-0.195744
285,-3.069833,-1.3259530000000002,2.9914169999999998,-0.017379,0.970175,0.241769,-0.6052850000000001,0.905235,-0.38440599999999997,0.097976,0.354761,-0.082544
286,-3.0278150000000004,-1.3140049999999999,3.02064,-0.028832999999999998,0.96721,0.252324,-0.554437,0.570628,-0.400714,0.127985,0.473189,-0.22322600000000004
287,-2.998168,-1.303036,3.041314,-0.037814,0.964366,0.261844,-0.46582299999999993,0.445287,-0.301658,0.253436,0.46661899999999995,-0.24483000000000002
288,-2.973226,-1.2966950000000002,3.061329,-0.045357,0.962669,0.266842,-0.125112,0.268419,-0.322552,0.650245,0.685372,-0.111233
289,-2.942006,-1.299513,3.078129,-0.053126,0.9634280000000001,0.26263400000000003,0.37404,0.9093,-0.11906099999999999,0.373408,0.739606,0.0018920000000000002
290,-2.933808,-1.313033,3.0899799999999997,-0.052585,0.9669629999999999,0.24941999999999998,0.871876,-1.1533360000000001,0.047293,-0.252942,0.245562,-0.25235
291,-2.9483759999999997,-1.338963,3.128776,-0.044114999999999994,0.973247,0.225471,1.805684,-2.9254279999999997,-0.36052,-0.106108,0.146306,-0.34273400000000004
292,-2.886524,-1.385889,-3.051456,-0.046383999999999995,0.9829530000000001,0.17788800000000002,2.8624169999999998,-1.176734,-0.621367,0.019727,0.230059,-0.361756
293,-2.677524,-1.441219,-2.832609,-0.057824,0.991617,0.115527,3.311863,-0.14081400000000002,-0.596054,0.018594,0.42102700000000004,-0.152316
294,-2.182209,-1.4867290000000002,-2.334894,-0.068729,0.996468,0.04818,3.41625,0.13973,-0.5145,0.06854600000000001,0.492774,0.165778
295,-1.340956,-1.486475,-1.499278,-0.081975,0.996447,-0.019180000000000003,3.231221,0.6042489999999999,-0.9009469999999999,-0.050212,0.739927,0.413421
296,-0.960699,-1.428819,-1.140159,-0.11595699999999999,0.9899379999999999,-0.081062,2.901647,1.3652360000000001,-2.3068,-0.276514,0.751059,0.45453599999999994
297,-0.8772770000000001,-1.34877,-1.078446,-0.16933099999999998,0.975453,-0.14076,2.927448,0.8051119999999999,-2.91372,-0.597057,0.46389300000000006,0.638807
298,-0.801084,-1.273396,-0.994583,-0.21042600000000003,0.956102,-0.203926,3.6104809999999996,-0.8168569999999999,-1.488272,-0.573204,0.287688,0.5700609999999999
299,-0.714901,-1.198001,-0.8806450000000001,-0.238758,0.931313,-0.275039,4.214657,-1.375264,-1.16287,-0.090695,0.357811,0.381119
300,-0.642333,-1.114869,-0.762744,-0.263763,0.897853,-0.352541,5.152732,-1.526376,-0.41798199999999996,0.34205599999999997,0.6321,0.288393
301,-0.545547,-1.025131,-0.633926,-0.269293,0.8547819999999999,-0.44365,5.251993,-0.440436,0.18806900000000001,0.442999,0.492935,0.134705
302,-0.48735100000000003,-0.950509,-0.552936,-0.27219899999999997,0.813712,-0.5135930000000001,3.8472489999999997,-0.802244,-0.022105,0.34777600000000003,-0.121558,0.266599
303,-0.482034,-0.879287,-0.50695,-0.295626,0.770284,-0.5650350000000001,3.992204,-1.9432349999999998,-0.6594949999999999,0.154772,-0.400289,0.7403890000000001
304,-0.50029,-0.796849,-0.469333,-0.335278,0.7151569999999999,-0.6133,4.2237160000000005,-2.352419,-0.830406,0.183789,-0.627556,0.607212
305,-0.5240640000000001,-0.723042,-0.44227700000000003,-0.3752,0.661668,-0.649167,3.331866,-2.0014689999999997,-0.974886,0.34210300000000005,-0.727006,0.663175
306,-0.5511659999999999,-0.66274,-0.424336,-0.412822,0.615279,-0.671571,2.817749,-1.970927,-0.9742430000000001,0.423289,-0.304763,0.707887
307,-0.582432,-0.606869,-0.407427,-0.451837,0.570298,-0.686004,2.596978,-2.129134,-0.912557,0.14241900000000002,-0.344819,0.640243
308,-0.617847,-0.5573600000000001,-0.39319499999999996,-0.491609,0.528948,-0.69176,2.222198,-2.148262,-0.8660120000000001,0.144335,-0.322374,0.5265989999999999
309,-0.649228,-0.517508,-0.378812,-0.525405,0.494716,-0.692245,1.733732,-1.597984,-0.591332,0.100478,-0.266491,0.36409
310,-0.666296,-0.49172299999999997,-0.368287,-0.544848,0.472146,-0.6929770000000001,1.027607,-0.789248,-0.293925,0.10071000000000001,-0.24099,0.285339
311,-0.67114,-0.48325100000000004,-0.363055,-0.550666,0.46466,-0.693437,0.127503,-0.157804,0.019445,0.07385900000000001,-0.255813,0.26584
312,-0.669931,-0.49239099999999997,-0.366915,-0.547167,0.472734,-0.6907449999999999,-0.8079649999999999,0.347362,0.24086300000000002,-0.027402,-0.368746,0.16012
313,-0.6615989999999999,-0.515467,-0.377203,-0.534547,0.49294099999999996,-0.686488,-1.364692,0.7822439999999999,0.394514,-0.10775599999999999,-0.338599,0.122004
314,-0.653215,-0.545856,-0.391665,-0.5194270000000001,0.51915,-0.678732,-1.680781,0.8127909999999999,0.488407,-0.023069,-0.173874,0.112631
315,-0.643281,-0.582196,-0.40455,-0.5010060000000001,0.54986,-0.668315,-1.8410279999999999,0.823876,0.785307,0.172988,0.009909000000000001,-0.384907
316,-0.6348729999999999,-0.626829,-0.413738,-0.48032600000000003,0.586579,-0.652081,-2.1555,0.563459,1.1797540000000002,0.19761099999999998,-0.040284,-0.33555999999999997
317,-0.6294029999999999,-0.683208,-0.422749,-0.45653699999999997,0.6312840000000001,-0.626938,-2.723073,0.62921,1.4790809999999999,0.192911,-0.116819,-0.125351
318,-0.616568,-0.756146,-0.439662,-0.420659,0.6861229999999999,-0.59353,-3.714539,1.7046,1.6737389999999999,0.05248,-0.184765,0.429224
319,-0.570484,-0.841563,-0.460503,-0.35982600000000003,0.745685,-0.5607810000000001,-3.731786,3.959215,1.8320310000000002,-0.23354299999999997,0.12499600000000001,-0.075907
320,-0.528216,-0.876625,-0.455929,-0.322428,0.768584,-0.552554,-0.472855,-1.683486,0.324854,-1.074072,2.899125,-2.929029
321,-0.568182,-0.913257,-0.483418,-0.32887,0.791499,-0.515142,-2.2635680000000002,0.65872,0.628743,-0.119235,-0.5780890000000001,1.539037
322,-0.563466,-0.955109,-0.5002479999999999,-0.308463,0.816377,-0.488238,-1.991427,0.863684,0.8173199999999999,0.144858,-1.141358,-0.8284889999999999
323,-0.54181,-1.008812,-0.502256,-0.274791,0.8462,-0.45654399999999995,-3.0045439999999997,2.2084740000000003,1.5915270000000001,0.22042399999999998,-0.678551,0.39720300000000003
324,-0.528636,-1.090349,-0.5386029999999999,-0.23309899999999997,0.8867879999999999,-0.39908299999999997,-4.269412,2.170621,0.966376,-0.024576,0.041404,0.670415
325,-0.538948,-1.159929,-0.616189,-0.204985,0.916775,-0.34278400000000003,-3.373854,3.457102,0.018129,-0.171388,0.24873699999999999,0.28272600000000003
326,-0.573064,-1.203,-0.714043,-0.194953,0.9331219999999999,-0.302112,-2.61576,2.2054720000000003,-0.655429,-0.0561,0.13989100000000002,0.28529699999999997
327,-0.6715909999999999,-1.237358,-0.8477110000000001,-0.203648,0.9449219999999999,-0.256211,-2.858104,0.949317,-0.928977,0.15363,0.253213,0.357666
328,-0.806541,-1.271297,-1.001044,-0.212983,0.955484,-0.204163,-2.746466,0.476875,-0.362502,0.347612,0.508413,0.284882
329,-0.9040290000000001,-1.302039,-1.120719,-0.208654,0.964102,-0.164212,-2.03496,1.139556,0.33169,0.546529,0.450586,-0.046359
330,-0.9732120000000001,-1.338098,-1.213858,-0.190629,0.9730479999999999,-0.129741,-2.048342,0.726792,1.000832,0.408006,0.079519,-0.220677
331,-1.079852,-1.381114,-1.32169,-0.16626300000000002,0.9820639999999999,-0.088884,-2.035511,-0.560523,1.371108,0.43104799999999993,-0.11533399999999999,-0.154448
332,-1.224987,-1.4203629999999998,-1.449307,-0.140974,0.988706,-0.050791,-1.643148,-0.948207,1.278206,0.394377,-0.281202,-0.090322
333,-1.410801,-1.451374,-1.626378,-0.11758699999999998,0.992878,-0.018976,-1.470844,-0.186855,1.208999,0.149921,-0.388981,-0.10307899999999999
334,-1.7108029999999999,-1.4810459999999999,-1.946,-0.08870800000000001,0.995975,0.012501,-1.953655,1.703191,1.565332,-0.31204899999999997,-0.435321,-0.2477
335,-2.263424,-1.485172,-2.5394490000000003,-0.065777,0.9963360000000001,0.054578999999999996,-2.2366650000000003,1.6569099999999999,0.8647969999999999,-0.561298,-0.313094,-0.326735
336,-2.543574,-1.461737,-2.839839,-0.061257000000000006,0.994059,0.089921,-1.534858,0.541405,0.031506,-0.205161,-0.125986,-0.205202
337,-2.61163,-1.44144,-2.906444,-0.06519,0.9916450000000001,0.111272,-0.8559899999999999,-0.45873800000000003,-0.327802,0.245259,0.126885,-0.187886
338,-2.637689,-1.425886,-2.916008,-0.069711,0.989519,0.12643,-0.668505,-0.9496110000000001,-0.278861,0.298441,0.157423,-0.18748099999999998
339,-2.668979,-1.411918,-2.931841,-0.072008,0.987405,0.140845,-0.686587,-0.620697,-0.199293,0.302446,0.235083,-0.20638099999999998
340,-2.696437,-1.398549,-2.9502639999999998,-0.073793,0.985202,0.154671,-0.614747,-0.460416,-0.11781099999999999,0.200532,0.212155,-0.23249099999999998
341,-2.723505,-1.389459,-2.965437,-0.073214,0.9836030000000001,0.16479100000000002,-0.389843,-0.6745359999999999,-0.046532,0.192842,0.238092,-0.255703
342,-2.744686,-1.383125,-2.979084,-0.072114,0.982441,0.172049,-0.33614499999999997,-0.075159,7.7e-05,0.079027,0.270382,-0.12334300000000001
343,-2.745838,-1.376263,-2.98798,-0.074513,0.981138,0.178347,-0.355496,0.505881,-0.099079,-0.115718,0.308123,0.046842
344,-2.731357,-1.368981,-2.982114,-0.079935,0.9797040000000001,0.18379700000000002,-0.271104,0.387913,-0.24148000000000003,-0.132482,0.31111300000000003,0.09615599999999999
345,-2.710141,-1.36191,-2.965011,-0.086711,0.9782620000000001,0.18834800000000002,-0.235621,0.096368,-0.357295,-0.200245,0.284219,0.063773
346,-2.678591,-1.356107,-2.927236,-0.095144,0.977043,0.19059500000000001,0.041811,-0.573833,-0.561733,-0.19839,0.334832,-0.115553
347,-2.629422,-1.355071,-2.852161,-0.104893,0.9768209999999999,0.18657200000000002,0.5610430000000001,-1.4404430000000001,-0.876394,0.097248,0.545762,-0.11111700000000001
348,-2.527427,-1.365864,-2.720574,-0.11726199999999999,0.979075,0.166296,1.556924,-1.2111180000000001,-0.7468859999999999,0.318922,0.755468,-0.029486000000000002
349,-2.377259,-1.389151,-2.54355,-0.125004,0.983548,0.130385,2.160742,-1.225875,-0.510845,-0.07596900000000001,0.447223,-0.21540700000000002
350,-2.153665,-1.412244,-2.28954,-0.131799,0.9874569999999999,0.086892,2.550452,-1.44224,-0.55378,-0.18769,0.330079,-0.316811
351,-1.7730810000000001,-1.417316,-1.8720830000000002,-0.149738,0.988245,0.03071,3.408846,-1.634809,-1.358317,-0.227123,0.338217,-0.352716
352,-1.3428229999999999,-1.375035,-1.40465,-0.18946400000000002,0.9809,-0.043956999999999996,4.498324,-1.391758,-2.343397,-0.518696,0.38644,0.018231
353,-1.0393809999999999,-1.295795,-1.093384,-0.234091,0.962425,-0.137603,4.7289129999999995,1.151824,-2.202972,-0.661722,0.292473,0.22232
354,-0.853577,-1.219,-0.947124,-0.259687,0.9387549999999999,-0.22648800000000002,3.578841,2.499813,-1.577141,-0.300219,0.143291,0.11043
355,-0.800183,-1.1665450000000002,-0.903933,-0.282204,0.9193969999999999,-0.27398,1.6395680000000001,-0.873893,-1.23385,0.407418,0.197073,0.6562279999999999
356,-0.7878539999999999,-1.130673,-0.8740549999999999,-0.30199899999999996,0.904699,-0.30052,2.197083,0.380716,-0.581017,0.590726,0.23612399999999997,0.8771030000000001
357,-0.699179,-1.080582,-0.789802,-0.30300900000000003,0.882232,-0.36034499999999997,3.499052,0.113718,-0.208385,0.22750900000000002,0.040025,0.66778
358,-0.6487930000000001,-1.013488,-0.698643,-0.319575,0.8486819999999999,-0.42143500000000006,4.48384,-2.004427,-0.43486899999999995,0.163416,-0.017292,0.7224149999999999
359,-0.616023,-0.918034,-0.612152,-0.350941,0.794409,-0.495734,5.698785,-1.994343,-1.080149,0.072132,-0.200354,0.424964
360,-0.617595,-0.811495,-0.546254,-0.398644,0.725317,-0.561245,5.2016849999999994,-2.762624,-1.393489,0.25646199999999997,-0.577963,0.29823
361,-0.62652,-0.7266640000000001,-0.504525,-0.43821899999999997,0.66438,-0.6054430000000001,3.8148519999999997,-1.2993649999999999,-1.1497469999999999,0.25035300000000005,-0.639249,0.24287899999999998
362,-0.631737,-0.664887,-0.47890600000000005,-0.46475200000000005,0.61697,-0.6351,2.807825,-1.101601,-0.9818459999999999,0.196686,-0.554775,0.43166899999999997
363,-0.647569,-0.6100760000000001,-0.460567,-0.494425,0.57293,-0.6536770000000001,2.478062,-1.4399520000000001,-1.0638319999999999,0.185603,-0.20862600000000003,0.35020999999999997
364,-0.666133,-0.565458,-0.44981400000000005,-0.521762,0.535803,-0.663836,1.7601950000000002,-1.067145,-0.9646379999999999,0.150576,-0.246008,0.324771
365,-0.6805829999999999,-0.536961,-0.448017,-0.54069,0.5115270000000001,-0.6678270000000001,0.798858,-0.607746,-0.730524,-0.038106,-0.28070700000000004,0.24556999999999998
366,-0.691715,-0.526778,-0.453946,-0.551384,0.5027510000000001,-0.665744,-0.10165,-0.28,-0.39326700000000003,-0.06618500000000001,-0.26718600000000003,0.259189
367,-0.698149,-0.5334369999999999,-0.466271,-0.553492,0.508495,-0.6596029999999999,-0.8616659999999999,0.185839,-0.079774,-0.042516000000000005,-0.30630100000000005,0.272396
368,-0.694348,-0.5540470000000001,-0.48306800000000005,-0.5441590000000001,0.526133,-0.653509,-1.482959,0.893021,0.232242,-0.001495,-0.382822,0.158422
369,-0.682153,-0.586282,-0.501548,-0.525179,0.553267,-0.646591,-1.851329,1.132765,0.53701,0.013430000000000001,-0.34266599999999997,-0.045044
370,-0.675293,-0.6268239999999999,-0.517724,-0.506286,0.586575,-0.632141,-2.0831150000000003,0.488674,0.903684,0.053786,-0.31326,-0.431122
371,-0.6837949999999999,-0.677836,-0.530483,-0.49208100000000005,0.627109,-0.603812,-2.4436150000000003,-0.17998699999999998,1.3987459999999998,0.263962,-0.193363,-0.17719400000000002
372,-0.680697,-0.734614,-0.542191,-0.46702200000000005,0.670301,-0.576702,-2.449768,1.2710540000000001,1.3701379999999999,-0.033131,0.020221,-0.070866
373,-0.661451,-0.7896,-0.56704,-0.432519,0.710072,-0.555628,-2.910052,1.6134540000000002,0.859079,-0.6955479999999999,0.57455,-0.364294
374,-0.650483,-0.83224,-0.580448,-0.407682,0.739441,-0.535742,-1.368126,1.0219340000000001,0.9272229999999999,-0.372866,1.35881,0.030676
375,-0.642122,-0.87171,-0.599074,-0.385399,0.7654310000000001,-0.5153449999999999,-2.0996099999999998,0.8953899999999999,0.706495,0.070336,0.19842100000000001,0.41050200000000003
376,-0.632654,-0.913543,-0.61807,-0.361242,0.791673,-0.49270200000000003,-2.212703,1.51625,0.853392,0.163,-0.33024699999999996,0.27263899999999996
377,-0.60731,-0.97221,-0.6393399999999999,-0.321552,0.826133,-0.46271599999999996,-3.052295,2.4717729999999998,1.3216620000000001,0.107303,-0.192695,0.223687
378,-0.5751229999999999,-1.040743,-0.6699729999999999,-0.275002,0.8627799999999999,-0.424242,-3.353276,3.167234,1.091137,0.031274,0.2077,0.332216
379,-0.565312,-1.103409,-0.727648,-0.241351,0.892748,-0.380456,-3.4129389999999997,2.761993,0.187524,0.096118,0.24986,0.311715
380,-0.602456,-1.161238,-0.818371,-0.225647,0.9172969999999999,-0.32809499999999997,-3.4931449999999997,2.027045,-0.032148,0.147308,0.19722,0.270203
381,-0.659802,-1.218939,-0.922831,-0.211248,0.9387340000000001,-0.272301,-3.4193949999999997,2.094923,0.24495,0.168706,0.261156,0.337517
382,-0.718904,-1.2745540000000002,-1.035384,-0.192247,0.95644,-0.219678,-3.227439,2.519535,0.452981,0.304796,0.283794,0.309568
383,-0.800701,-1.326296,-1.171722,-0.173763,0.970258,-0.168524,-3.028525,2.364468,0.431069,0.373546,0.329638,0.2237
384,-0.917148,-1.366606,-1.32961,-0.160967,0.979226,-0.123297,-2.3141990000000003,1.467452,0.358159,0.450716,0.291771,0.122458
385,-1.0227389999999998,-1.392476,-1.4457209999999998,-0.151386,0.984143,-0.09241100000000001,-1.290608,-0.378749,0.555682,0.37990100000000004,-0.064465,-0.144024
386,-1.117791,-1.416459,-1.507863,-0.138205,0.9881139999999999,-0.067274,-0.961988,-2.390447,0.917341,0.374579,-0.21749899999999997,-0.217227
387,-1.265594,-1.4430120000000002,-1.5968209999999998,-0.121527,0.9918469999999999,-0.038287,-1.1610200000000002,-3.129476,1.021584,0.41072700000000006,-0.41158500000000003,-0.092161
388,-1.4919120000000001,-1.468481,-1.774039,-0.101796,0.99477,-0.008047,-1.23136,-1.7992110000000001,1.148643,0.11784800000000001,-0.502629,0.013937
389,-1.839361,-1.493578,-2.124706,-0.074347,0.99702,0.020461,-1.687052,0.877016,1.479588,-0.07052,-0.32419899999999996,-0.25517199999999995
390,-2.4799599999999997,-1.4922090000000001,-2.7965619999999998,-0.048218000000000004,0.996914,0.06191900000000001,-2.366237,1.69735,1.251603,-0.391846,-0.176265,-0.344878
391,-2.81466,-1.462919,3.125493,-0.03457,0.994187,0.101947,-1.745868,1.0070569999999999,0.44710900000000003,-0.318137,-0.090272,-0.098758
392,-2.8689270000000002,-1.438782,3.053258,-0.035443999999999996,0.9912989999999999,0.126752,-1.048171,0.679815,-0.106279,-0.181018,-0.07859400000000001,-0.16500499999999999
393,-2.885553,-1.419861,3.040387,-0.038076,0.9886309999999999,0.145447,-0.928868,-0.830983,-0.15051099999999998,0.160451,-0.015364,-0.259049
394,-2.924777,-1.400842,3.032353,-0.036382,0.985593,0.165164,-0.931732,-1.75331,-0.198487,0.269231,0.205371,-0.18043800000000002
395,-2.950588,-1.384295,3.0363330000000004,-0.035199,0.9826590000000001,0.182038,-0.68558,-1.3302479999999999,-0.182355,0.23956,0.23631999999999997,-0.286652
396,-2.966153,-1.375737,3.044552,-0.033828,0.981036,0.190838,-0.25795300000000004,-1.100717,-0.14441099999999998,0.145675,0.259809,-0.365917
397,-2.973437,-1.372436,3.050949,-0.032979,0.980391,0.194272,-0.119479,-0.342045,-0.047208,0.11786400000000001,0.220171,-0.24038400000000001
398,-2.976737,-1.36927,3.047694,-0.032847,0.9797620000000001,0.197439,-0.177359,0.11287,-0.007601999999999999,0.095347,0.199346,-0.176336
399,-2.960808,-1.367119,3.056798,-0.036367000000000003,0.9793290000000001,0.198963,-0.04469,0.500853,-0.17808800000000002,-0.072032,0.26707,-0.013035
400,-2.922759,-1.364675,3.086723,-0.044427999999999995,0.9788319999999999,0.199772,-0.097832,0.338885,-0.38655500000000004,-0.123876,0.309925,0.038676999999999996
401,-2.880504,-1.359787,3.12531,-0.054062,0.97782,0.202337,-0.133345,0.174279,-0.48380100000000004,-0.162613,0.38067,0.068141
402,-2.833223,-1.35676,-3.105902,-0.064463,0.977182,0.202375,0.135198,-0.513184,-0.626322,0.004297,0.5351319999999999,-0.010267
403,-2.777666,-1.360377,-3.028377,-0.07434199999999999,0.977943,0.195177,0.631872,-1.1994799999999999,-0.725591,0.227967,0.6781229999999999,0.084562
404,-2.723799,-1.37215,-2.9492990000000003,-0.080065,0.9803350000000001,0.180356,0.962348,-1.13709,-0.36444,0.265337,0.757352,0.085025
405,-2.660682,-1.3916600000000001,-2.86159,-0.082416,0.9839979999999999,0.15795599999999999,1.440135,-1.165435,-0.35038400000000003,-0.042416,0.29525300000000004,-0.07922
406,-2.503389,-1.418077,-2.676723,-0.09062,0.988361,0.122169,2.2385479999999998,-1.3281889999999998,-0.833844,-0.142336,0.218396,-0.128853
407,-2.11575,-1.43524,-2.25293,-0.11555,0.990826,0.07004500000000001,3.131598,-1.7951099999999998,-1.790544,-0.155583,0.27721,-0.23975300000000002
408,-1.595091,-1.406829,-1.6846419999999998,-0.163169,0.9865870000000001,0.003965,3.95601,-2.235693,-2.880217,-0.285989,0.5524600000000001,-0.21276599999999998
409,-1.230317,-1.328309,-1.2790489999999999,-0.22632399999999997,0.970744,-0.08018099999999999,4.927004,-0.81585,-3.146582,-0.5965060000000001,0.361623,-0.005695
410,-0.9880639999999999,-1.2388290000000002,-1.04504,-0.272111,0.9454030000000001,-0.179343,4.742628,1.679793,-2.113832,-0.49400200000000005,0.26966999999999997,-0.08103300000000001
411,-0.855319,-1.162671,-0.938847,-0.29956,0.917866,-0.260347,3.127636,1.388895,-1.760476,0.228989,0.097347,0.04912
412,-0.8336469999999999,-1.120182,-0.919063,-0.322449,0.90018,-0.292744,1.132866,-0.087155,-0.937169,0.618683,0.339047,0.558308
413,-0.785665,-1.088717,-0.875635,-0.327916,0.886033,-0.327741,2.439548,0.66871,-0.35217,0.678379,0.345794,0.731412
414,-0.717911,-1.034412,-0.792397,-0.336161,0.859562,-0.384897,3.85071,-1.083197,-0.361433,0.12151500000000001,-0.17038399999999998,0.7439819999999999
415,-0.668452,-0.958299,-0.6958489999999999,-0.356313,0.8182149999999999,-0.451179,4.996913,-1.588488,-0.46814700000000004,0.060109,-0.251656,0.54351
416,-0.638219,-0.866125,-0.607017,-0.38592600000000005,0.761825,-0.520271,5.341108,-2.4333299999999998,-0.746671,0.032365,-0.431396,0.168938
417,-0.642454,-0.780087,-0.54547,-0.425915,0.703341,-0.569127,4.171596,-2.156989,-0.9068809999999999,0.167767,-0.46653999999999995,0.287664
418,-0.644798,-0.716691,-0.509316,-0.453171,0.6568930000000001,-0.602599,2.970524,-1.062324,-0.821602,0.356125,-0.421404,0.44258000000000003
419,-0.644291,-0.664187,-0.48227200000000003,-0.472948,0.6164189999999999,-0.62956,2.626512,-0.763519,-0.655609,0.14969000000000002,-0.285548,0.444852
420,-0.651953,-0.6169600000000001,-0.45964099999999997,-0.494881,0.578558,-0.648353,2.299537,-1.2242629999999999,-0.768397,0.180794,-0.26157199999999997,0.391364
421,-0.66602,-0.577096,-0.444841,-0.517799,0.545593,-0.6589470000000001,1.6928470000000002,-1.060554,-0.689524,0.08759199999999999,-0.289352,0.294033
422,-0.679607,-0.5520430000000001,-0.43853100000000006,-0.5351279999999999,0.524428,-0.6622779999999999,0.8208059999999999,-0.71422,-0.49630100000000005,-0.013638999999999998,-0.332732,0.29039
423,-0.690938,-0.543063,-0.440693,-0.5455770000000001,0.5167609999999999,-0.659775,-0.030032999999999997,-0.376569,-0.281555,0.004592000000000001,-0.223715,0.293243
424,-0.697732,-0.547662,-0.44988199999999995,-0.5485140000000001,0.520692,-0.654225,-0.620976,0.081706,-0.08758099999999999,0.023124000000000002,-0.26204099999999997,0.31308400000000003
425,-0.696004,-0.561426,-0.462959,-0.542736,0.5323939999999999,-0.64961,-1.059898,0.63435,0.08490199999999999,0.038525,-0.305679,0.268308
426,-0.685897,-0.586821,-0.480051,-0.527408,0.553716,-0.64439,-1.6628939999999999,1.104056,0.36103,-0.011609,-0.343405,0.068126
427,-0.675647,-0.624683,-0.500293,-0.5072939999999999,0.5848399999999999,-0.63294,-2.160806,1.012924,0.671726,0.118362,-0.22612100000000002,-0.337931
428,-0.672075,-0.672495,-0.518547,-0.48704899999999995,0.6229399999999999,-0.61215,-2.406886,0.548766,1.075459,0.149754,-0.184631,-0.419421
429,-0.67245,-0.728666,-0.533171,-0.46472600000000003,0.665875,-0.583643,-2.583227,0.577862,1.410679,0.183399,-0.06350399999999999,-0.156836
430,-0.647556,-0.782168,-0.546505,-0.427929,0.704819,-0.565779,-2.2911799999999998,2.289138,1.047331,-0.36995300000000003,0.500671,-0.48811499999999997
431,-0.635796,-0.820363,-0.563475,-0.404957,0.7313930000000001,-0.5487,-1.445106,0.251986,0.6670189999999999,-0.638423,1.137076,-0.8212799999999999
432,-0.630708,-0.8493360000000001,-0.559368,-0.389497,0.750842,-0.533411,-1.3289959999999998,0.500757,0.958067,-0.145995,0.9785889999999999,0.44199499999999997
433,-0.6304930000000001,-0.894278,-0.573005,-0.369101,0.7797569999999999,-0.505709,-2.413077,0.528816,1.008143,0.112113,-0.411166,0.053697
434,-0.621528,-0.949692,-0.587549,-0.338846,0.813236,-0.473105,-2.552177,1.396621,1.493168,0.15499300000000002,-0.20264100000000002,0.16756300000000002
435,-0.59573,-1.0179989999999999,-0.605791,-0.294622,0.851059,-0.434619,-3.3875019999999996,2.319019,1.4509,0.049886,0.051681,0.502444
436,-0.5770810000000001,-1.084079,-0.645305,-0.255181,0.8838729999999999,-0.39198,-3.108767,2.772924,0.6532359999999999,0.047585,0.13472699999999999,0.295957
437,-0.593109,-1.137025,-0.712657,-0.23491900000000002,0.907387,-0.34851,-3.0998669999999997,1.773972,0.044623,0.029307,0.083839,0.3329
438,-0.6563359999999999,-1.1923059999999999,-0.808638,-0.22548400000000002,0.9292239999999999,-0.292741,-3.484011,1.143217,0.138888,0.179723,-0.053522,0.288972
439,-0.750729,-1.248442,-0.943413,-0.21611,0.948492,-0.23163899999999998,-3.694657,2.009826,-0.079475,0.241454,-0.129355,0.27868200000000004
440,-0.889597,-1.2967309999999999,-1.135537,-0.21023899999999998,0.9626790000000001,-0.170429,-3.703918,2.01865,-0.146849,0.196506,0.045027,0.09975099999999999
441,-1.081721,-1.336904,-1.349924,-0.20458900000000002,0.972772,-0.10888199999999999,-2.9806209999999997,0.19755899999999998,0.424559,0.192504,0.24343,0.205486
442,-1.1979799999999998,-1.3705450000000001,-1.492076,-0.185244,0.980017,-0.07245,-1.66333,1.71905,1.077016,0.34172199999999997,0.20313499999999998,0.00905
443,-1.27245,-1.398374,-1.597213,-0.16398,0.9851719999999999,-0.050428,-1.230874,0.968073,0.9581540000000001,0.37488699999999997,0.13859200000000002,-0.24109099999999997
444,-1.399451,-1.426144,-1.715136,-0.14202599999999999,0.989556,-0.024577,-1.282222,-1.399893,1.233226,0.40524,-0.22525900000000001,-0.16661600000000001
445,-1.61951,-1.451649,-1.898367,-0.11871,0.9929100000000001,0.005787,-1.216908,-1.915341,1.140339,0.329922,-0.23259499999999997,-0.034000999999999997
446,-1.8487220000000002,-1.470056,-2.112719,-0.096694,0.99493,0.027587999999999998,-0.950686,0.07911599999999999,1.110801,-0.121492,-0.24929400000000002,-0.256775
447,-2.206412,-1.478656,-2.491574,-0.074025,0.995758,0.054612,-1.8225939999999998,1.263324,1.161945,-0.38547800000000004,-0.063431,-0.409562
448,-2.580131,-1.4592319999999999,-2.887499,-0.05926699999999999,0.993783,0.094225,-1.8997099999999998,0.549269,0.510706,-0.383009,-0.03959,-0.22465700000000002
449,-2.70437,-1.437357,-3.016852,-0.056326999999999995,0.99111,0.12051300000000001,-1.056366,0.163766,0.015027,-0.032845,0.006906,-0.169982
450,-2.739452,-1.4194120000000001,-3.055887,-0.059017999999999994,0.988563,0.138763,-0.9081469999999999,0.218244,-0.15065,0.294065,0.063011,-0.011535
451,-2.772912,-1.401368,-3.096327,-0.060762000000000004,0.9856809999999999,0.157275,-1.001132,0.353167,0.021578999999999997,0.25816500000000003,0.066153,0.001524
452,-2.8081490000000002,-1.383165,-3.132771,-0.061048000000000005,0.982449,0.176246,-0.87574,-0.29683200000000004,-0.041873,0.201489,0.068973,-0.013113999999999999
453,-2.833041,-1.371592,-3.13782,-0.060091,0.980224,0.188531,-0.360531,-1.408082,-0.179992,0.050722,0.21473699999999998,-0.247156
454,-2.855808,-1.368004,-3.124156,-0.056774,0.979508,0.193223,-0.017154,-1.9089330000000002,-0.168406,0.08659,0.147155,-0.450532
455,-2.876582,-1.3693819999999999,-3.111787,-0.052395000000000004,0.979785,0.19305799999999998,0.120178,-1.39955,-0.06661900000000001,0.126858,0.084577,-0.513844
456,-2.887683,-1.369204,-3.104086,-0.050293,0.979749,0.193799,-0.06644,-0.686156,-0.08592799999999999,0.221588,0.10512,-0.618588
457,-2.8931400000000003,-1.364883,-3.103171,-0.050275,0.978875,0.19817200000000001,-0.286643,-0.032519,-0.050916,0.263044,0.13106500000000001,-0.31085799999999997
458,-2.877111,-1.358701,-3.114548,-0.055026,0.977592,0.203178,-0.334439,2.583183,0.14408800000000002,0.252475,0.12542,0.16932
459,-2.834794,-1.354006,3.133791,-0.064957,0.976593,0.20504099999999997,-0.23654299999999998,3.616656,0.286589,-0.31755,0.260895,0.341452
460,-2.7987849999999996,-1.356708,-3.130973,-0.07141,0.9771700000000001,0.20008299999999998,0.466104,-0.737833,-0.411154,-0.377824,0.48431599999999997,0.234823
461,-2.766897,-1.366072,-3.053873,-0.0744,0.979117,0.18918,0.7902100000000001,-2.666241,-0.62648,-0.181917,0.6009,0.16123800000000002
462,-2.738221,-1.373783,-2.969467,-0.07682699999999999,0.9806549999999999,0.180019,0.636133,-2.509183,-0.60853,0.058654,0.966778,0.040242
463,-2.691035,-1.386836,-2.883061,-0.079651,0.9831270000000001,0.164655,1.1739389999999998,-1.616868,-0.445683,-0.240936,0.47973299999999997,-0.155363
464,-2.556546,-1.4089459999999998,-2.7166330000000003,-0.08897999999999999,0.986931,0.134328,1.9910759999999998,-1.386702,-0.9038790000000001,-0.335047,0.263588,-0.148641
465,-2.218386,-1.4306299999999998,-2.349758,-0.11140599999999999,0.990193,0.084268,3.081881,-1.1697309999999999,-1.49581,-0.337355,0.26942,-0.287958
466,-1.6528080000000003,-1.421196,-1.7558349999999998,-0.148523,0.9888309999999999,0.012208,4.199304,-1.101441,-2.225165,-0.2723,0.5119779999999999,-0.37104899999999996
467,-1.203415,-1.353942,-1.27546,-0.20079,0.9765790000000001,-0.077275,5.011497,-1.1445379999999998,-2.806959,-0.151322,0.73149,-0.45783599999999997
468,-0.980598,-1.258646,-1.034913,-0.255146,0.951675,-0.170908,4.720919,0.127726,-2.636499,-0.08012000000000001,0.28979499999999997,0.009042
469,-0.857319,-1.175645,-0.935575,-0.291052,0.9229379999999999,-0.251932,3.26003,2.3174200000000003,-2.041691,0.029974,0.277089,0.136881
470,-0.79857,-1.131419,-0.9103889999999999,-0.304719,0.905017,-0.296795,1.183041,1.026319,-0.779087,0.260819,0.299237,0.715023
471,-0.736697,-1.105008,-0.867612,-0.301741,0.893468,-0.332662,2.2289220000000003,1.344683,-0.050072000000000005,0.225264,0.042658999999999996,1.010152
472,-0.6580229999999999,-1.051758,-0.7798350000000001,-0.303356,0.868297,-0.392469,4.001272,-0.910658,-0.21639899999999998,-0.039813999999999995,-0.183482,0.8545969999999999
473,-0.620124,-0.9646899999999999,-0.68818,-0.33105500000000004,0.8218719999999999,-0.4636,5.452796,-2.367281,-0.843191,-0.050491,-0.36771,0.458305
474,-0.6042,-0.857568,-0.607206,-0.371697,0.756253,-0.538441,5.735785,-2.389358,-1.1616520000000001,0.138711,-0.26867399999999997,0.050541
475,-0.612757,-0.7693260000000001,-0.558513,-0.413157,0.695651,-0.58768,3.763257,-1.818139,-1.107796,0.376201,-0.340167,0.28337399999999996
476,-0.618464,-0.7051390000000001,-0.535403,-0.441517,0.6481399999999999,-0.620464,2.953795,-0.881807,-1.193699,0.391392,-0.452599,0.609187
477,-0.631546,-0.642832,-0.517471,-0.472551,0.5994649999999999,-0.646015,2.9072419999999997,-1.424313,-1.349289,0.17595,-0.385231,0.509892
478,-0.656388,-0.582912,-0.50563,-0.509483,0.550457,-0.661379,2.49703,-1.605851,-1.416015,0.094657,-0.41402799999999995,0.33781700000000003
479,-0.681757,-0.535111,-0.49984799999999996,-0.5420689999999999,0.509936,-0.667925,1.7237650000000002,-1.321795,-1.1857030000000002,0.08606,-0.29730500000000004,0.30757399999999996
480,-0.703434,-0.503542,-0.49978900000000004,-0.566553,0.48253100000000004,-0.667967,0.9261739999999999,-0.9472799999999999,-0.9118799999999999,0.061838,-0.219302,0.334059
481,-0.720858,-0.486976,-0.506283,-0.5833020000000001,0.467955,-0.663909,0.142452,-0.602521,-0.667832,0.048389999999999996,-0.259764,0.296477
482,-0.7338180000000001,-0.484368,-0.518972,-0.592672,0.465649,-0.657198,-0.51503,-0.158158,-0.400598,0.024984,-0.33913899999999997,0.268907
483,-0.7357670000000001,-0.49535799999999997,-0.537821,-0.590482,0.475347,-0.652208,-1.228201,0.689176,-0.158838,-0.011874,-0.43399499999999996,0.182329
484,-0.726635,-0.5170359999999999,-0.561829,-0.577518,0.494306,-0.649718,-1.6302,1.122486,-0.01265,-0.013531,-0.33916999999999997,0.16401500000000002
485,-0.717863,-0.545636,-0.587859,-0.562265,0.518962,-0.643844,-1.931086,1.096033,0.2032,0.018121,-0.317287,0.073409
486,-0.707548,-0.583873,-0.6112350000000001,-0.542293,0.551259,-0.634058,-2.182042,1.059775,0.69608,0.105404,-0.233877,-0.59249
487,-0.705253,-0.6324850000000001,-0.629149,-0.522833,0.591151,-0.614153,-2.360305,0.33619099999999996,1.1818030000000002,0.120993,-0.22112600000000002,-0.469542
488,-0.702928,-0.685158,-0.642876,-0.5005609999999999,0.632796,-0.590767,-2.351804,0.926892,1.306087,-0.09766,0.073122,-0.081123
489,-0.683591,-0.736475,-0.658566,-0.4679,0.6716810000000001,-0.57438,-2.2420169999999997,1.445984,1.135274,-0.698375,1.1574360000000001,-0.8752200000000001
490,-0.678683,-0.76675,-0.658043,-0.452099,0.6937979999999999,-0.560579,-0.642822,-0.497433,0.637256,-0.6010939999999999,1.9668009999999998,-0.878035
491,-0.688258,-0.787878,-0.6744680000000001,-0.448033,0.708858,-0.544779,-1.44793,0.254346,0.346522,-0.12681199999999998,-0.561229,0.596644
492,-0.689592,-0.830285,-0.698571,-0.42923599999999995,0.738124,-0.5205069999999999,-2.550625,1.407442,0.9184549999999999,0.03028,-0.611598,0.106475
493,-0.665882,-0.8864110000000001,-0.726171,-0.39054,0.7748079999999999,-0.49713999999999997,-2.8895720000000003,2.5373799999999997,1.025734,0.16675399999999999,-0.148419,0.231332
494,-0.645807,-0.948685,-0.772099,-0.350724,0.81265,-0.46539200000000003,-3.535125,3.064306,0.616762,0.151169,0.399096,0.35330100000000003
495,-0.6318,-1.011732,-0.835578,-0.313247,0.8477520000000001,-0.42800600000000005,-3.5442440000000004,3.405133,0.373775,0.032882,0.5507770000000001,0.29578899999999997
496,-0.6390140000000001,-1.069185,-0.9077120000000001,-0.28677199999999997,0.8768090000000001,-0.38595799999999997,-3.2487169999999996,2.301098,0.22022600000000003,0.046278,0.385169,0.320117
497,-0.660362,-1.122184,-0.9745530000000001,-0.26603899999999997,0.90105,-0.342532,-2.96102,1.788698,0.503834,0.42752299999999993,0.026501,0.183871
498,-0.690449,-1.173773,-1.044932,-0.246263,0.922216,-0.298106,-2.9762779999999998,1.617643,0.403534,0.445115,-0.10355199999999999,0.033473
499,-0.75971,-1.223959,-1.153546,-0.23410599999999998,0.9404530000000001,-0.24645300000000003,-3.2091849999999997,1.724044,0.104805,0.325216,-0.14568299999999998,0.107049
500,-0.848907,-1.267307,-1.286153,-0.2243,0.954299,-0.19747699999999999,-2.864531,1.7398669999999998,0.11146500000000001,0.167033,0.082703,0.13758599999999999
501,-0.9468850000000001,-1.3025360000000001,-1.4150209999999999,-0.21511,0.964233,-0.154843,-2.3076470000000002,0.982906,0.31501399999999996,0.278754,0.248581,-0.041828
502,-1.05179,-1.331286,-1.535611,-0.205977,0.971454,-0.11766300000000002,-1.928105,0.312181,0.41893800000000003,0.368529,0.235958,-0.154585
503,-1.180499,-1.357253,-1.6530630000000002,-0.195974,0.9772860000000001,-0.080624,-1.623704,-1.454165,0.7170880000000001,0.406179,0.114297,-0.222369
504,-1.323014,-1.383126,-1.750574,-0.180857,0.982442,-0.045752999999999995,-1.140898,-2.7107959999999998,0.998741,0.41559799999999997,-0.174153,-0.001152
505,-1.443716,-1.410118,-1.819494,-0.158679,0.9871190000000001,-0.020274,-0.690317,-2.2568759999999997,1.3783889999999999,0.22098099999999998,-0.310605,0.131694
506,-1.572891,-1.44461,-1.9446900000000003,-0.125825,0.992049,0.000264,-1.384759,0.809668,1.8097159999999999,-0.024153,-0.34277199999999997,-0.093739
507,-1.9730779999999999,-1.47022,-2.3700509999999997,-0.09235800000000001,0.9949459999999999,0.039297000000000006,-2.339093,1.115624,1.5163739999999999,-0.445255,-0.21647399999999997,-0.452825
508,-2.388736,-1.463282,-2.803655,-0.07334600000000001,0.994226,0.078282,-1.706015,0.638356,0.708491,-0.288867,-0.117914,-0.222646
509,-2.569881,-1.447418,-2.9975560000000003,-0.066571,0.992399,0.10347,-1.131581,0.508271,0.24158400000000002,-0.130603,-0.0075959999999999995,-0.196838
510,-2.674603,-1.43014,-3.1063509999999996,-0.063104,0.990124,0.12516,-1.127749,-0.12108900000000002,0.18366500000000002,0.12482599999999999,0.015064,-0.20182
511,-2.758452,-1.412801,3.103789,-0.05881,0.9875450000000001,0.14590899999999998,-0.899875,-0.765022,0.113436,0.268374,-0.068508,-0.12373800000000001
512,-2.8036369999999997,-1.39946,3.068298,-0.056524,0.985358,0.16083499999999998,-0.646277,-0.254051,-0.01577,0.257329,0.051431,-0.075111
513,-2.818345,-1.388636,3.053223,-0.057537,0.983455,0.171754,-0.482705,-0.002968,-0.07690599999999999,0.108227,0.22252399999999997,-0.101029
514,-2.8291310000000003,-1.381887,3.047401,-0.05772000000000001,0.98221,0.178676,-0.277588,-0.380936,-0.039738,0.043041,0.24201799999999998,-0.170451
515,-2.840185,-1.3763370000000001,3.049811,-0.057359,0.981152,0.184505,-0.262259,-0.884397,-0.15649000000000002,0.057786000000000004,0.262546,-0.204204
516,-2.8496200000000003,-1.369697,3.0614529999999998,-0.05749,0.9798479999999999,0.191273,-0.29549899999999996,-0.9894700000000001,-0.224954,0.066584,0.31257199999999996,-0.149098
517,-2.840434,-1.3621020000000001,3.078019,-0.06145,0.978302,0.19783900000000001,-0.324332,0.10713900000000001,-0.309882,-0.04144,0.394577,-0.08394800000000001
518,-2.8038939999999997,-1.354372,3.1039209999999997,-0.07114,0.976672,0.20259100000000002,-0.22112800000000002,0.6335189999999999,-0.43268100000000004,-0.18096600000000002,0.404386,-0.10398900000000001
519,-2.75147,-1.3523399999999999,-3.123226,-0.082413,0.976233,0.20042000000000001,0.409053,-0.71602,-0.753426,-0.05506900000000001,0.618203,-0.147671
520,-2.666501,-1.3623379999999998,-3.009166,-0.094654,0.978351,0.184014,1.266708,-1.534693,-0.8286389999999999,0.258656,0.803815,-0.015053
521,-2.565285,-1.3842940000000001,-2.873278,-0.101031,0.9826590000000001,0.15545499999999998,1.7826650000000002,-1.546298,-0.505622,0.159442,0.620674,-0.056014
522,-2.392088,-1.409148,-2.673763,-0.10963099999999999,0.9869629999999999,0.117798,2.21524,-0.969447,-0.747962,-0.11116300000000001,0.22777399999999998,-0.185364
523,-2.039873,-1.4221139999999999,-2.300826,-0.132114,0.988967,0.06695599999999999,3.036579,-0.84344,-1.535007,-0.22849699999999998,0.20385799999999998,-0.289765
524,-1.527173,-1.3967370000000001,-1.761409,-0.172999,0.9848899999999999,-0.007552,4.44048,-1.052466,-2.426512,-0.228429,0.396198,-0.214342
525,-1.148924,-1.317393,-1.363661,-0.22870900000000002,0.968065,-0.102649,5.119264,0.130832,-2.9584669999999997,-0.453405,0.524474,0.136478
526,-0.9348489999999999,-1.227394,-1.166557,-0.270866,0.941615,-0.19997,4.3479220000000005,1.627202,-1.939211,-0.514702,0.49907399999999996,-0.07983
527,-0.842458,-1.163948,-1.0903100000000001,-0.29531199999999996,0.918373,-0.263398,2.360359,0.71067,-1.449855,0.08959299999999999,0.433281,0.309906
528,-0.8018810000000001,-1.1235629999999999,-1.05139,-0.3108,0.901647,-0.300719,2.112386,0.290451,-0.578311,0.520623,0.47845,0.744506
529,-0.7098180000000001,-1.073759,-0.966832,-0.310741,0.878999,-0.361658,3.6771730000000002,0.811925,-0.209127,0.198375,0.11742999999999999,0.5101720000000001
530,-0.63364,-1.001649,-0.8673930000000001,-0.319079,0.842361,-0.434296,4.782761,-1.180165,-0.36229,0.024783000000000003,0.020005000000000002,0.469742
531,-0.598605,-0.910359,-0.780239,-0.345679,0.789724,-0.506793,5.286052,-2.036052,-0.68028,-0.070474,-0.19583699999999998,0.32545799999999997
532,-0.588013,-0.820664,-0.715044,-0.378164,0.731599,-0.567233,4.5172300000000005,-1.803954,-0.7799520000000001,0.148778,-0.299165,0.32969899999999996
533,-0.589974,-0.746164,-0.6745,-0.408518,0.6788270000000001,-0.610168,3.623534,-1.4124219999999998,-0.947997,0.256251,-0.211862,0.47369300000000003
534,-0.594268,-0.6778609999999999,-0.64612,-0.436116,0.627128,-0.6453770000000001,3.3075980000000005,-1.071083,-1.053191,0.271932,-0.44615900000000003,0.41834099999999996
535,-0.606548,-0.613992,-0.628884,-0.46592,0.5761350000000001,-0.671555,2.873224,-1.175918,-1.365875,0.23709899999999998,-0.349191,0.469971
536,-0.62905,-0.5535,-0.620903,-0.500526,0.525668,-0.687856,2.520096,-1.535313,-1.4928629999999998,0.207862,-0.273303,0.471883
537,-0.659044,-0.500992,-0.616216,-0.537105,0.480296,-0.69342,2.0063020000000003,-1.5362040000000001,-1.357582,0.12623199999999998,-0.24026,0.48309300000000005
538,-0.6848850000000001,-0.45966,-0.6168399999999999,-0.566923,0.443644,-0.694102,1.363394,-1.128398,-1.284615,0.139234,-0.203547,0.47390200000000005
539,-0.706542,-0.42900699999999997,-0.623748,-0.590375,0.415968,-0.691683,0.724216,-0.769889,-1.1410559999999998,0.174604,-0.22508000000000003,0.407382
540,-0.721256,-0.411394,-0.635241,-0.605233,0.399887,-0.688318,0.078273,-0.37136399999999997,-0.875819,0.13276,-0.250488,0.37031
541,-0.731529,-0.405922,-0.651938,-0.613725,0.394866,-0.683682,-0.524001,-0.067485,-0.689203,0.140534,-0.232147,0.340008
542,-0.7372270000000001,-0.41095200000000004,-0.673393,-0.616267,0.399482,-0.6786949999999999,-1.022799,0.250877,-0.484792,0.147533,-0.232643,0.25408800000000004
543,-0.736445,-0.426425,-0.6979989999999999,-0.6115109999999999,0.41361899999999996,-0.674517,-1.52749,0.7734270000000001,-0.188817,0.084319,-0.25253200000000003,0.08584800000000001
544,-0.7256199999999999,-0.452488,-0.7263270000000001,-0.596815,0.437204,-0.672801,-1.9970580000000002,1.384794,-0.023033,0.077803,-0.257776,-0.088246
545,-0.706858,-0.486592,-0.757023,-0.574066,0.467616,-0.672146,-2.269566,1.699286,0.154122,0.045853,-0.194667,-0.153644
546,-0.688561,-0.524184,-0.785748,-0.550109,0.5005069999999999,-0.668485,-2.197329,1.534411,0.29691100000000004,0.032378,-0.098468,-0.271136
547,-0.6736979999999999,-0.561104,-0.809684,-0.528219,0.532122,-0.661687,-2.018822,1.2276790000000002,0.391487,0.035344,-0.05374299999999999,-0.533442
548,-0.668898,-0.598642,-0.8308700000000001,-0.512283,0.563521,-0.64808,-2.084468,0.539138,0.541462,0.036026,-0.191313,-0.253836
549,-0.676667,-0.648506,-0.854992,-0.499071,0.603997,-0.6213810000000001,-2.903532,0.35690700000000003,1.001719,0.20366099999999998,-0.316338,0.10343699999999999
550,-0.66825,-0.712194,-0.873244,-0.46900299999999995,0.653496,-0.594118,-2.723199,1.463776,1.6318110000000001,-0.08392999999999999,0.311164,-0.48942299999999994
551,-0.625081,-0.748434,-0.86121,-0.428781,0.680492,-0.594202,0.20138599999999998,1.319933,0.96983,-0.777091,2.5409740000000003,-1.548178
552,-0.652668,-0.760547,-0.8630180000000001,-0.43996899999999994,0.689318,-0.575557,-0.941675,-0.744888,0.176143,-0.060030999999999994,0.385328,1.411067
553,-0.6382439999999999,-0.800921,-0.875223,-0.41469399999999995,0.717997,-0.5590229999999999,-2.5351939999999997,1.335901,1.2134770000000001,-0.258631,-0.5216930000000001,-0.12975899999999999
554,-0.6274890000000001,-0.838517,-0.8817969999999999,-0.392523,0.7436520000000001,-0.5412060000000001,-1.21155,1.144025,0.631173,-0.280801,-0.547348,-0.147576
555,-0.5961890000000001,-0.875762,-0.9059379999999999,-0.359586,0.7680319999999999,-0.529927,-2.3095060000000003,2.7945900000000004,0.40454,-0.16943699999999998,0.31403000000000003,0.281804
556,-0.565743,-0.918484,-0.9379569999999999,-0.325391,0.794682,-0.512443,-2.353533,2.775282,0.20984099999999997,-0.197116,0.24495999999999998,0.203682
557,-0.545675,-0.9613219999999999,-0.9801190000000001,-0.29709,0.8199489999999999,-0.489304,-2.504526,2.571592,0.129999,-0.098662,0.203626,0.148422
558,-0.522522,-1.0073450000000002,-1.0125110000000002,-0.266554,0.845416,-0.46283500000000005,-2.410172,2.580388,0.5120020000000001,-0.028702999999999996,0.199872,0.095663
559,-0.487972,-1.056351,-1.0407549999999999,-0.23069,0.870566,-0.43462,-2.577402,3.162424,0.558158,0.004555,0.112009,0.046329
560,-0.441796,-1.11332,-1.0705120000000001,-0.18884700000000001,0.89717,-0.39927399999999996,-3.0463419999999997,3.871961,0.682159,-0.07073600000000001,-0.054824,0.075665
561,-0.394952,-1.1786,-1.104084,-0.147062,0.9240719999999999,-0.35278899999999996,-3.377386,3.794321,0.671401,-0.13344,-0.104629,0.216238
562,-0.35952399999999995,-1.2482010000000001,-1.143718,-0.11153699999999998,0.948416,-0.29675300000000004,-3.5594639999999997,3.452789,0.723978,0.069011,-0.24251399999999998,0.221771
563,-0.325259,-1.3225209999999998,-1.181612,-0.07852200000000001,0.9693379999999999,-0.232839,-3.686408,3.6770059999999996,0.706775,0.11566099999999999,-0.205925,0.256413
564,-0.309892,-1.392944,-1.244977,-0.053947,0.984226,-0.168474,-3.4400519999999997,3.926135,0.26379600000000003,0.086814,-0.148121,0.21293800000000002
565,-0.404843,-1.454493,-1.421902,-0.045695,0.993244,-0.106637,-3.3225300000000004,3.9330830000000003,-0.24279699999999999,0.091701,0.06412899999999999,0.09804600000000001
566,-0.799575,-1.507984,-1.887201,-0.044971,0.998028,-0.043713999999999996,-3.215354,3.180269,-0.15349000000000002,0.023868,0.205631,0.070859
567,-1.737636,-1.529766,-2.8898599999999997,-0.040359,0.999158,0.006797,-2.294814,3.206833,0.396631,0.13325499999999998,0.366854,0.086602
568,-2.496625,-1.5200850000000001,2.5767029999999997,-0.030425999999999998,0.998714,0.040444,-1.5053590000000001,2.451177,0.605008,0.25451599999999996,0.11090499999999999,-0.24739899999999998
569,-2.8363650000000002,-1.5035530000000001,2.209679,-0.020174,0.99774,0.06402999999999999,-1.152134,0.521993,0.557604,0.24161,-0.026244,-0.44961999999999996
570,-3.04124,-1.481918,2.014709,-0.008888,0.9960530000000001,0.088267,-1.203771,-0.839992,0.476736,0.095664,-0.10349000000000001,-0.34670500000000004
571,3.1398919999999997,-1.463332,1.9246330000000003,0.000182,0.994231,0.107215,-0.7874220000000001,-0.41702,0.36800700000000003,0.026368,-0.156737,-0.183402
572,3.0850779999999998,-1.448459,1.871582,0.0068909999999999996,0.992526,0.121799,-0.747052,0.18288800000000002,0.293813,0.017905,-0.199512,-0.119236
573,3.069801,-1.432195,1.8391099999999998,0.009908,0.99041,0.137768,-0.8329469999999999,1.201781,0.24597399999999997,-0.060933,-0.158394,-0.130413
574,3.06602,-1.414787,1.809952,0.011729,0.9878549999999999,0.15490299999999999,-0.86303,1.201697,0.292765,-0.14791300000000002,-0.101625,-0.13232
575,3.0661669999999996,-1.397689,1.7902919999999998,0.012977,0.9850540000000001,0.171727,-0.811933,0.817444,0.170769,-0.138267,-0.102013,-0.15596500000000002
576,3.075389,-1.382709,1.7888950000000001,0.012368,0.9823639999999999,0.18654600000000002,-0.7150380000000001,0.377791,0.010708,-0.068261,-0.036608999999999996,-0.21669699999999997
577,3.0913009999999996,-1.36808,1.8021610000000001,0.01012,0.9795229999999999,0.201053,-0.746911,0.017388,-0.142877,-0.036014,-0.014878,-0.283938
578,3.108586,-1.3537190000000001,1.8206689999999999,0.007107,0.9765309999999999,0.21523699999999998,-0.6902189999999999,0.039603,-0.153192,0.056034,0.11213800000000002,-0.352887
579,3.131323,-1.342072,1.833693,0.002328,0.9739559999999999,0.22670300000000002,-0.52669,0.853822,-0.115705,0.13375,0.272992,-0.30652199999999996
580,-3.1197220000000003,-1.333789,1.833294,-0.0051340000000000005,0.972045,0.23471799999999998,-0.345152,2.078364,0.12434400000000001,0.213035,0.327989,-0.30785300000000004
581,-3.102315,-1.329709,1.7943630000000002,-0.009375,0.9710790000000001,0.23855500000000002,-0.138879,3.16316,0.6574369999999999,0.505209,0.268438,-0.239837
582,-3.107784,-1.329636,1.715903,-0.008072,0.9710610000000001,0.238673,-0.019295,3.58829,1.06472,0.460099,0.176995,-0.472682
583,-3.13108,-1.3279370000000001,1.63304,-0.0025280000000000003,0.9706540000000001,0.240446,-0.142726,2.226167,0.8145720000000001,0.34324099999999996,0.190814,-0.52458
584,3.138293,-1.330395,1.581452,0.000786,0.9712430000000001,0.238071,0.365055,1.7873279999999998,0.6274689999999999,-0.28717800000000004,0.28089400000000003,-0.297672
585,3.133575,-1.3450950000000002,1.538649,0.001794,0.9746370000000001,0.22376300000000002,0.939873,1.9482979999999999,0.367427,-0.15809,0.453875,0.01992
586,-3.130145,-1.373517,1.512306,-0.0022429999999999998,0.9806040000000001,0.195967,1.7765900000000001,2.41014,0.296836,-0.067291,0.5121939999999999,0.155137
587,-3.127679,-1.422087,1.478253,-0.002061,0.9889629999999999,0.14812,2.731965,1.111385,0.313719,-0.573852,0.229421,-0.201129
588,-3.106532,-1.480043,1.50621,-0.003175,0.995885,0.090531,2.928457,-1.012608,-0.429942,-0.5552050000000001,0.155849,0.039184
589,-2.501045,-1.530733,2.1322919999999996,-0.023882,0.9991979999999999,0.03204,2.959058,-0.666721,-1.4385729999999999,-0.5452859999999999,0.188943,0.229252
590,-1.14483,-1.508622,-2.798701,-0.056531,0.9980680000000001,-0.025651,2.791811,0.7571899999999999,-1.735327,-0.746783,0.342035,0.273499
591,-0.809049,-1.4553719999999999,-2.484044,-0.08331799999999999,0.993346,-0.079468,2.5227150000000003,1.216373,-0.982562,-1.2241309999999999,0.28782800000000003,0.402649
592,-0.647604,-1.410877,-2.3494200000000003,-0.096053,0.98724,-0.12698199999999998,2.140015,1.541479,-0.966424,-0.7528699999999999,0.103931,0.47045699999999996
593,-0.609588,-1.357385,-2.340436,-0.121251,0.9773139999999999,-0.17363499999999998,2.319821,1.101997,-1.773248,-0.26865700000000003,-0.092045,0.40022800000000003
594,-0.652291,-1.2974629999999998,-2.376058,-0.163851,0.9628760000000001,-0.214513,2.062954,-1.1941469999999998,-2.230368,0.21048200000000003,-0.030717,0.43712399999999996
595,-0.6719390000000001,-1.2391780000000001,-2.380778,-0.202666,0.945517,-0.254792,2.437134,0.015736,-1.4227969999999999,0.584318,0.21973600000000001,0.37085
596,-0.596017,-1.192243,-2.331061,-0.207458,0.9292,-0.305848,2.20338,1.960837,-0.399292,0.595871,0.28074499999999997,0.13588
597,-0.528918,-1.160571,-2.293229,-0.20124,0.9170309999999999,-0.344314,1.516135,1.172,-0.203325,0.167441,-0.29431999999999997,0.437454
598,-0.5019710000000001,-1.13067,-2.2760290000000003,-0.20499499999999998,0.904698,-0.37348899999999996,1.502276,0.328778,-0.576218,0.035622,-0.40865,0.531112
599,-0.49694499999999997,-1.0955620000000001,-2.270278,-0.21813000000000002,0.889185,-0.402199,1.670694,-0.19278499999999998,-0.827542,-0.072016,-0.484354,0.559121
600,-0.506786,-1.0601969999999998,-2.273412,-0.237198,0.872452,-0.427271,1.312643,-0.417048,-0.910941,-0.22296100000000002,-0.53125,0.234477
601,-0.524362,-1.038692,-2.285289,-0.25400700000000004,0.861741,-0.439179,0.48019300000000004,-0.27223,-0.70757,-0.130163,-0.438539,0.150757
602,-0.539687,-1.030637,-2.3023700000000002,-0.264266,0.857627,-0.441175,-0.024708,0.106897,-0.50862,-0.05720599999999999,-0.348456,0.148298
603,-0.547817,-1.030649,-2.320349,-0.267838,0.857633,-0.439003,-0.390381,0.5772619999999999,-0.33658899999999997,0.10430999999999999,-0.216047,-0.065361
604,-0.548991,-1.039029,-2.34458,-0.264594,0.8619120000000001,-0.432543,-0.847361,1.2593729999999999,-0.290448,0.079123,-0.287602,-0.08024400000000001
605,-0.542575,-1.0537940000000001,-2.374197,-0.255214,0.8693049999999999,-0.42328599999999994,-1.088842,1.731816,-0.21262399999999998,0.029537,-0.300304,-0.029244
606,-0.53087,-1.074116,-2.402266,-0.241247,0.8791690000000001,-0.410923,-1.3180180000000001,1.794441,0.042068,-0.034845999999999995,-0.344348,0.01099
607,-0.519359,-1.101933,-2.425863,-0.22427199999999997,0.892083,-0.392283,-1.5615780000000001,1.524673,0.316314,-0.005082,-0.32473,-0.07039400000000001
608,-0.507883,-1.133757,-2.443734,-0.20584000000000002,0.9060090000000001,-0.369829,-1.536728,1.311821,0.510109,-0.019547,-0.28586100000000003,-0.167708
609,-0.485083,-1.164454,-2.4473130000000003,-0.18429600000000002,0.918573,-0.349648,-1.2999209999999999,1.307887,0.755322,-0.043670999999999995,0.048346,-0.44017700000000004
610,-0.449166,-1.195222,-2.43647,-0.15927,0.9302969999999999,-0.330417,-1.266404,1.318885,0.9061620000000001,-0.186357,0.6559149999999999,-0.9642459999999999
611,-0.410652,-1.214402,-2.4243040000000002,-0.139279,0.937161,-0.319883,-0.334468,1.333952,0.327266,-0.38718,0.566959,-1.111193
612,-0.391415,-1.209961,-2.425923,-0.134687,0.935602,-0.326347,0.309392,0.814415,-0.30957199999999996,-0.622729,-0.016703,-0.791909
613,-0.402619,-1.2046379999999999,-2.440864,-0.140284,0.93371,-0.329395,0.033201,-0.341523,-0.308954,-0.516759,-0.432138,-0.101345
614,-0.43797200000000003,-1.203214,-2.455215,-0.152403,0.933199,-0.325435,-0.07539,-1.399276,-0.23144499999999998,-0.317766,-0.33215500000000003,0.310222
615,-0.47219300000000003,-1.21161,-2.474987,-0.159878,0.936183,-0.31304,-0.9489290000000001,0.060188,-0.016158000000000002,-0.24895,-0.168346,0.896658
616,-0.45684600000000003,-1.241235,-2.511628,-0.142755,0.946184,-0.290431,-1.7977150000000002,4.02677,0.046537,-0.632911,0.898496,1.133342
617,-0.37761100000000003,-1.246612,-2.549276,-0.117441,0.9479110000000001,-0.296086,0.394522,4.74806,-1.077799,-0.8586790000000001,2.115642,-1.181347
618,-0.42690600000000006,-1.219533,-2.62016,-0.142467,0.938939,-0.31319600000000003,0.083499,0.808539,-1.573783,-0.101323,-0.684697,1.8366790000000002
619,-0.44105200000000006,-1.219485,-2.691137,-0.146902,0.9389219999999999,-0.311189,-0.47603,3.071351,-0.8648819999999999,0.023474000000000002,-0.916675,0.925417
620,-0.43492299999999995,-1.235054,-2.7389360000000003,-0.13881500000000002,0.944166,-0.29878899999999997,-1.6748490000000003,2.277666,-0.079618,0.069251,-0.46661199999999997,0.600989
621,-0.47706400000000004,-1.297426,-2.827976,-0.12396099999999999,0.962866,-0.23982399999999998,-4.341524,2.303547,0.288418,0.16297799999999998,0.02363,0.636735
622,-0.458516,-1.384431,-2.919108,-0.08200299999999999,0.982684,-0.166132,-4.042222,7.428044,1.495306,0.256533,0.663754,0.722895
623,-0.330285,-1.4595049999999998,-2.946384,-0.036008,0.993814,-0.105027,-3.164886,7.217248,0.96973,0.369397,0.7991699999999999,0.50348
624,-0.204442,-1.502783,-2.931425,-0.013786000000000001,0.9976879999999999,-0.06648899999999999,-1.341253,4.308433,0.608045,0.343986,0.501152,0.070608
625,0.132801,-1.518536,-2.6425970000000003,0.006906,0.998635,-0.0517,-0.680562,1.742304,1.069942,0.06455,-0.037072,-0.006405
626,0.8181189999999999,-1.5287979999999999,-1.9904959999999998,0.030569,0.9991180000000001,-0.028631999999999998,-1.437948,1.7365400000000002,1.036886,0.058602999999999995,-0.098148,-0.006418000000000001
627,1.701716,-1.522278,-1.141542,0.047991000000000006,0.9988229999999999,0.006319,-1.691471,1.81618,0.788254,0.06616,-0.120649,0.037275
628,2.109813,-1.499028,-0.770699,0.061484000000000004,0.997426,0.036773,-1.20708,1.882314,0.613159,0.076547,-0.012379000000000001,-0.135879
629,2.2504560000000002,-1.482512,-0.659871,0.068535,0.9961049999999999,0.055383,-0.633637,1.217881,0.308232,0.113273,0.06708099999999999,-0.172464
630,2.313884,-1.474524,-0.608347,0.070747,0.9953690000000001,0.065,-0.376019,0.18338800000000002,0.112668,0.16253,0.07295900000000001,-0.179578
631,2.32953,-1.464541,-0.597358,0.076933,0.99436,0.072936,-0.430271,0.5656800000000001,0.461107,0.17926199999999998,0.036127,-0.17108099999999998
632,2.32628,-1.4469530000000002,-0.627009,0.089891,0.992341,0.084668,-0.49490200000000006,1.958015,1.044257,0.10381900000000001,-0.062654,0.040836000000000004
633,2.359955,-1.4150120000000002,-0.668006,0.109275,0.9878899999999999,0.1101,-1.198964,4.453974,1.383313,-0.298728,0.001551,-0.44855500000000004
634,2.427338,-1.3866129999999999,-0.6809970000000001,0.119951,0.983086,0.13835899999999998,-0.591353,3.4679620000000004,0.7489560000000001,-0.49440200000000006,-0.078591,-0.428856
635,2.468738,-1.3763370000000001,-0.6927479999999999,0.12041099999999999,0.981152,0.151097,-0.289883,2.12148,0.21547199999999997,-0.163547,-0.053723,-0.11348399999999999
636,2.501455,-1.371073,-0.685704,0.11848800000000001,0.9801209999999999,0.15909500000000001,-0.22572399999999998,0.877375,0.125647,0.23145700000000002,0.005367,-0.048744
637,2.515173,-1.365218,-0.684476,0.119657,0.978943,0.165353,-0.283514,0.60697,0.131999,0.269351,-0.022141,-0.081704
638,2.548151,-1.359141,-0.6649390000000001,0.11746500000000001,0.977684,0.174137,-0.396412,0.718829,-0.037712,0.049497,-0.039619999999999995,-0.197499
639,2.59401,-1.353724,-0.631195,0.112114,0.976532,0.183859,-0.42703,0.595086,-0.23431999999999997,-0.024100999999999997,0.044784,-0.21921300000000002
640,2.647104,-1.350373,-0.5875199999999999,0.103751,0.9758049999999999,0.192429,-0.349039,0.493055,-0.360763,-0.042365,0.13473,-0.2108
641,2.709492,-1.346797,-0.5380729999999999,0.093013,0.975017,0.201691,-0.479245,0.894308,-0.425212,-0.07651799999999999,0.30432600000000004,-0.157471
642,2.781295,-1.339367,-0.484795,0.080856,0.973339,0.21461799999999998,-0.597642,0.921268,-0.40470900000000004,-0.10633800000000002,0.40997700000000004,-0.232577
643,2.839313,-1.33354,-0.438012,0.069962,0.971986,0.22435700000000003,-0.334801,0.517738,-0.418379,-0.09134,0.48406800000000005,-0.275566
644,2.890934,-1.330773,-0.40061399999999997,0.058960000000000005,0.971332,0.23027199999999998,-0.24441,0.9784790000000001,-0.36599499999999996,0.009506,0.544842,-0.335512
645,2.944236,-1.329433,-0.369988,0.046863,0.9710129999999999,0.234362,-0.028979,1.230069,-0.332766,0.21212399999999998,0.630092,-0.20230399999999998
646,2.991631,-1.337942,-0.34726999999999997,0.034470999999999995,0.9730120000000001,0.228142,0.668946,1.271307,-0.327944,0.29627800000000004,0.753215,0.033576999999999996
647,3.006095,-1.3595780000000002,-0.349121,0.028317000000000002,0.977776,0.207702,1.2628709999999999,0.354908,0.021346,-0.1759,0.562934,-0.024567
648,2.963996,-1.3935549999999999,-0.377315,0.031143,0.984334,0.173511,2.053813,-1.311453,-0.063929,-0.459701,0.258144,-0.332584
649,2.914327,-1.44634,-0.393892,0.027960000000000002,0.992265,0.120903,2.9191740000000004,-1.641254,-0.655666,-0.276816,0.19328199999999998,-0.337471
650,2.946732,-1.5169920000000001,-0.344075,0.010395999999999999,0.998553,0.052674,3.660738,-0.196364,-1.1255600000000001,-0.07812999999999999,0.18585,-0.087906
651,-0.622512,-1.541126,2.343849,-0.017209000000000002,0.99956,-0.023977000000000002,3.850286,2.192853,-1.506516,-0.18600799999999998,0.59239,0.314077
652,-0.435478,-1.461463,2.46533,-0.046014,0.994029,-0.098898,3.437425,3.689561,-1.6800970000000002,-0.34882199999999997,0.46657299999999996,0.31496199999999996
653,-0.391371,-1.392699,2.449249,-0.067569,0.984183,-0.163741,2.992316,2.126805,-1.295576,-0.36182800000000004,0.30727600000000005,0.355773
654,-0.408217,-1.338123,2.446742,-0.091527,0.9730540000000001,-0.211617,2.088176,-2.401977,-0.971348,-0.19150799999999998,0.174804,0.406579
655,-0.434366,-1.286672,2.478931,-0.117961,0.959908,-0.254273,3.3504680000000002,-2.062341,-0.421378,0.192455,0.397346,0.23252899999999999
656,-0.343861,-1.203531,2.5737349999999997,-0.121046,0.933313,-0.338036,4.688515,0.856089,-0.143375,0.16439700000000002,0.373923,0.079399
657,-0.28991500000000003,-1.120376,2.6381419999999998,-0.12445,0.900264,-0.41717,4.0931809999999995,-1.1366180000000001,0.000299,0.092972,0.189869,0.181482
658,-0.280991,-1.044944,2.685589,-0.139194,0.8648959999999999,-0.48226,3.8989480000000003,-1.415993,-0.029542000000000002,0.053653,-0.232618,0.603033
659,-0.28727800000000003,-0.9639639999999999,2.716414,-0.161581,0.821458,-0.546894,4.335021,-2.021472,-0.57265,-0.080226,-0.3882,0.689701
660,-0.31504699999999997,-0.875865,2.737532,-0.198413,0.768098,-0.6088140000000001,4.25004,-2.25522,-0.651992,-0.150601,-0.45239300000000005,0.733875
661,-0.3396,-0.80367,2.755104,-0.2312,0.719908,-0.6544270000000001,3.204372,-1.582526,-0.670841,0.149749,-0.45588599999999996,0.47951499999999997
662,-0.365068,-0.744811,2.760525,-0.262481,0.677833,-0.686763,2.705346,-1.5307870000000001,-0.92222,0.08834700000000001,-0.31204899999999997,0.485591
663,-0.398468,-0.68848,2.761047,-0.29962300000000003,0.635364,-0.711713,2.554525,-1.7587259999999998,-1.0650549999999999,0.129305,-0.148243,0.489011
664,-0.434424,-0.636008,2.761751,-0.338593,0.593989,-0.729746,2.2971169999999996,-1.759157,-1.001693,0.091736,-0.27573600000000004,0.504084
665,-0.46508999999999995,-0.594643,2.759743,-0.371516,0.560213,-0.7403609999999999,1.531568,-1.317988,-0.907193,0.043666,-0.395464,0.424489
666,-0.48989499999999997,-0.569168,2.755906,-0.396353,0.538931,-0.743273,0.763288,-1.060786,-0.625537,0.042059,-0.31667199999999995,0.399737
667,-0.512494,-0.558605,2.749108,-0.41581599999999996,0.530004,-0.739047,0.08357200000000001,-0.884517,-0.42754899999999996,-0.018251,-0.29738400000000004,0.388522
668,-0.530828,-0.559665,2.738813,-0.42901000000000006,0.5309020000000001,-0.730815,-0.452842,-0.482559,-0.316443,0.048975,-0.278659,0.430766
669,-0.541824,-0.569095,2.724262,-0.43441899999999994,0.53887,-0.721731,-0.8670100000000001,-0.01469,-0.277206,-0.049667,-0.370886,0.273947
670,-0.5465899999999999,-0.585906,2.706154,-0.433083,0.552955,-0.711813,-1.24661,0.397318,-0.151131,-0.046272,-0.206794,0.043722000000000004
671,-0.546489,-0.6104890000000001,2.688945,-0.425817,0.573268,-0.700029,-1.504678,0.490737,0.153527,-0.067484,-0.139949,-0.063567
672,-0.546287,-0.641365,2.677697,-0.416278,0.59829,-0.68466,-1.568499,0.246365,0.580683,-0.048764,0.017815,-0.343966
673,-0.546663,-0.6783060000000001,2.673927,-0.404765,0.627475,-0.6651590000000001,-1.7589560000000002,0.047284,0.980191,-0.028263999999999997,-0.054903999999999994,-0.210344
674,-0.541758,-0.726182,2.670807,-0.38555300000000003,0.6640199999999999,-0.6406430000000001,-2.357884,0.644009,1.1899549999999999,-0.083884,-0.12984,-0.010662999999999999
675,-0.521806,-0.779771,2.663042,-0.354431,0.703117,-0.6164430000000001,-2.354531,1.511598,1.073499,-0.509659,1.1789020000000001,-1.00044
676,-0.504408,-0.8219790000000001,2.66598,-0.329009,0.732495,-0.595987,-1.327524,0.053686000000000005,1.135952,-0.19362000000000001,1.560871,-0.758688
677,-0.498383,-0.852044,2.675536,-0.314739,0.752628,-0.578348,-1.311388,0.38456399999999996,0.96152,0.014491999999999998,1.3025930000000001,0.24440900000000002
678,-0.48403999999999997,-0.894956,2.6817349999999998,-0.291105,0.7801819999999999,-0.553688,-2.212567,0.526038,1.261624,-0.22713000000000003,-0.711426,0.414451
679,-0.45866599999999996,-0.955385,2.684515,-0.25559699999999996,0.8165359999999999,-0.517624,-2.823142,1.525955,1.618205,-0.09976499999999999,-0.737984,0.275879
680,-0.40570100000000003,-1.031829,2.688085,-0.202559,0.858239,-0.471583,-3.8117410000000005,2.984794,1.557087,0.058942999999999995,-0.133126,0.44210299999999997
681,-0.355533,-1.114274,2.666446,-0.153446,0.897591,-0.41325500000000004,-3.9399800000000003,3.738661,0.691034,-0.237316,0.36595900000000003,0.48869399999999996
682,-0.332877,-1.1811969999999998,2.6112610000000003,-0.124108,0.925061,-0.35896100000000003,-3.26447,3.271529,-0.290686,-0.221915,0.23192100000000002,0.341962
683,-0.378825,-1.233423,2.517275,-0.12241400000000001,0.943627,-0.307532,-2.925961,1.426195,-0.7805439999999999,-0.11103099999999999,0.090781,0.24234699999999998
684,-0.47447700000000004,-1.2780559999999999,2.396963,-0.131838,0.957457,-0.256688,-2.704739,0.847842,-0.729119,0.191484,0.041933,0.326298
685,-0.577106,-1.315831,2.2743189999999998,-0.137599,0.967672,-0.211353,-2.36262,0.696955,-0.322748,0.240718,0.35102300000000003,0.155048
686,-0.675041,-1.353408,2.161861,-0.134774,0.9764639999999999,-0.168364,-2.243258,0.534419,0.259407,0.312768,0.383033,0.07147
687,-0.7515539999999999,-1.3920299999999999,2.06957,-0.121393,0.9840639999999999,-0.129901,-1.948339,0.675135,0.777238,0.313394,0.100928,-0.06551900000000001
688,-0.8194540000000001,-1.434175,1.9992990000000002,-0.099505,0.990682,-0.092949,-1.8610790000000001,-0.34434000000000003,1.235284,0.22446,-0.07198099999999999,-0.203987
689,-0.944958,-1.475805,1.8936369999999998,-0.076835,0.995492,-0.055533000000000006,-1.729725,-1.3511389999999999,1.1498979999999999,0.24596300000000001,-0.16433,-0.16083599999999998
690,-1.183251,-1.5076459999999998,1.683846,-0.058361,0.998007,-0.023822,-1.365985,-1.367427,0.9121090000000001,0.199978,-0.306783,-0.078427
691,-1.629735,-1.5315940000000001,1.253097,-0.039001,0.999232,0.002301,-1.2255530000000001,-0.372423,1.047479,0.103683,-0.38517199999999996,-0.036512
692,-2.721581,-1.536555,0.14466400000000001,-0.013899000000000002,0.9994139999999999,0.031122000000000004,-1.759497,1.478613,1.346889,-0.250811,-0.265237,-0.22496999999999998
693,3.066938,-1.497768,-0.384549,0.005437,0.9973350000000001,0.072689,-2.01233,1.368947,0.7534689999999999,-0.460103,-0.16112200000000002,-0.303646
694,3.0403290000000003,-1.465878,-0.429791,0.010582,0.994501,0.10414000000000001,-1.3070950000000001,0.769171,0.14920899999999998,-0.178428,-0.040216,-0.09233
695,3.069127,-1.444861,-0.41358500000000004,0.009091,0.992081,0.12523,-0.989242,0.5611010000000001,-0.040583999999999995,0.08546799999999999,0.023621,-0.042421
696,3.084991,-1.426275,-0.404132,0.008145,0.989575,0.143751,-0.8869040000000001,0.11208399999999999,0.004503,0.11610699999999999,0.099399,-0.054701
697,3.099479,-1.411492,-0.38,0.006677,0.9873379999999999,0.15845499999999998,-0.662042,-0.900792,-0.240456,0.027364999999999997,0.159497,-0.20688600000000001
698,3.104234,-1.4012149999999999,-0.344062,0.006302,0.985656,0.16861900000000002,-0.428192,-1.802841,-0.236598,0.10778800000000001,0.20381300000000002,-0.336573
699,3.095064,-1.396226,-0.321963,0.008076999999999999,0.984801,0.173467,-0.162117,-1.164884,-0.165055,0.151026,0.160173,-0.348134
700,3.105545,-1.393816,-0.307213,0.006344,0.9843799999999999,0.175913,-0.150479,0.318678,-0.083553,0.127643,0.09552999999999999,-0.263056
701,3.117348,-1.388533,-0.304865,0.004393,0.9834360000000001,0.181174,-0.32905300000000004,0.324243,0.011332,0.15501500000000001,0.060479,-0.19658499999999998
702,3.118504,-1.381589,-0.299262,0.004340999999999999,0.9821540000000001,0.188001,-0.324758,-0.47753900000000005,-0.08481799999999999,0.138649,0.115594,-0.057004
703,3.120757,-1.377176,-0.284193,0.004007999999999999,0.9813139999999999,0.192342,-0.163075,-0.675879,-0.17530199999999999,-0.01356,0.145654,-0.077321
704,3.134558,-1.376007,-0.25647600000000004,0.001361,0.981089,0.193526,-0.001125,-0.635365,-0.32377399999999995,-0.15275899999999998,0.235922,-0.08293099999999999
705,-3.120004,-1.377768,-0.217229,-0.004141,0.9814280000000001,0.19175999999999999,0.130485,-0.378827,-0.389413,-0.112803,0.502016,-0.057391
706,-3.080977,-1.380802,-0.173123,-0.011439,0.9820049999999999,0.188479,0.188299,-0.166756,-0.459783,0.134486,0.720418,0.020918
707,-3.0235380000000003,-1.385759,-0.110479,-0.021666,0.982929,0.182675,0.401599,-0.29170300000000005,-0.567092,0.22341799999999998,0.806484,0.077289
708,-2.980937,-1.397155,-0.05196,-0.027632,0.9849620000000001,0.170516,0.811012,-1.120515,-0.382641,0.130187,0.8534780000000001,-0.01654
709,-2.940774,-1.4200629999999999,0.026811,-0.029947,0.988661,0.14711300000000002,1.548284,-2.362796,-0.446402,-0.14798599999999998,0.44328500000000004,-0.31138899999999997
710,-2.811172,-1.4589379999999998,0.213327,-0.036202,0.99375,0.105546,2.5969,-2.8323400000000003,-0.882856,-0.188102,0.25338099999999997,-0.406389
711,-2.1962029999999997,-1.4967629999999998,0.8757389999999999,-0.059914,0.9972610000000001,0.043264,3.5487830000000002,-1.6893770000000001,-1.687384,-0.22345700000000002,0.26140599999999997,-0.30908800000000003
712,-1.2413399999999999,-1.462021,1.8493389999999998,-0.10268599999999999,0.9940899999999999,-0.03511,4.317598,-0.308786,-2.3514209999999998,-0.186255,0.373449,-0.268067
713,-0.854016,-1.37316,2.229161,-0.14802,0.980533,-0.128983,4.662543,1.256768,-2.28372,-0.25960300000000003,0.54797,0.058121000000000006
714,-0.684411,-1.2879,2.359366,-0.176467,0.9602510000000001,-0.216263,3.6721199999999996,2.4023779999999997,-1.5358049999999999,-0.295731,0.533874,0.103974
715,-0.60859,-1.232344,2.399339,-0.18981800000000001,0.94327,-0.272405,1.9541130000000002,1.2586959999999998,-0.952413,-0.098436,0.36999299999999996,0.364888
716,-0.612262,-1.206161,2.412709,-0.204945,0.9342540000000001,-0.291823,1.226329,-1.3952120000000001,-0.245865,0.209721,0.310985,0.781996
717,-0.525563,-1.166641,2.501318,-0.197285,0.919435,-0.340163,3.2861510000000003,0.698525,0.513595,0.37747600000000003,0.267897,0.702407
718,-0.4484,-1.0979459999999999,2.6019799999999997,-0.197435,0.890274,-0.410397,4.436011,-1.6857080000000002,0.086711,0.07884400000000001,0.019119,0.605069
719,-0.427929,-1.0058989999999999,2.6789680000000002,-0.22215300000000002,0.8446440000000001,-0.48705299999999996,5.259778,-2.56993,-0.34971399999999997,-0.037842,-0.445229,0.5951609999999999
720,-0.429537,-0.908277,2.738382,-0.256159,0.788445,-0.559225,4.8174779999999995,-2.390905,-0.513266,-0.043996,-0.546074,0.401129
721,-0.44254799999999994,-0.8325040000000001,2.7750220000000003,-0.288218,0.7396189999999999,-0.608186,3.4582050000000004,-1.7414720000000001,-0.5705939999999999,0.100107,-0.402903,0.37581
722,-0.453132,-0.772191,2.7952369999999997,-0.31361999999999995,0.697706,-0.644085,2.872777,-1.130487,-0.741041,0.274466,-0.383833,0.576839
723,-0.46930200000000005,-0.715461,2.809832,-0.341364,0.6559649999999999,-0.673185,2.704125,-1.433315,-0.788833,0.22075799999999998,-0.383321,0.611753
724,-0.49213599999999996,-0.665077,2.821557,-0.371802,0.61712,-0.6934859999999999,2.26494,-1.5968639999999998,-0.800237,0.165595,-0.275979,0.47356099999999995
725,-0.520091,-0.622203,2.826673,-0.403826,0.5828270000000001,-0.705149,1.766732,-1.395749,-0.845635,0.07193200000000001,-0.33250599999999997,0.464945
726,-0.5420470000000001,-0.592076,2.825991,-0.42807700000000004,0.558085,-0.7108359999999999,0.97475,-0.889552,-0.7396520000000001,-0.05172,-0.34374499999999997,0.340536
727,-0.557179,-0.578605,2.819836,-0.44272,0.5468569999999999,-0.710594,0.12100799999999999,-0.419,-0.45779899999999996,-0.050918,-0.287991,0.305168
728,-0.564796,-0.581376,2.8093060000000003,-0.44730600000000004,0.5491739999999999,-0.705919,-0.609536,0.126907,-0.212569,-0.055044,-0.23786500000000002,0.256075
729,-0.563602,-0.597089,2.795992,-0.44179799999999997,0.562237,-0.699071,-1.1570120000000002,0.592213,0.050066,-0.034337,-0.26997,0.110052
730,-0.556142,-0.623396,2.7810189999999997,-0.428612,0.583796,-0.6895439999999999,-1.6110200000000001,0.9050969999999999,0.253729,-0.075111,-0.34315,0.052291
731,-0.5453819999999999,-0.660397,2.766212,-0.40967700000000007,0.6134310000000001,-0.675177,-2.031577,0.988183,0.619221,-0.037756,-0.23318200000000003,-0.32718800000000003
732,-0.542,-0.706529,2.756004,-0.392365,0.649197,-0.651605,-2.288779,0.148173,0.984901,0.12487899999999999,-0.11639100000000001,-0.40856
733,-0.543832,-0.7599520000000001,2.749684,-0.37506,0.688887,-0.620292,-2.426279,0.43948000000000004,1.2484870000000001,0.16693,-0.11401199999999999,-0.23179
734,-0.517414,-0.814125,2.7385639999999998,-0.339567,0.727125,-0.59664,-2.742804,2.0453099999999997,0.8756809999999999,-0.486467,0.25374,0.029608
735,-0.512602,-0.870885,2.7244,-0.31592,0.764899,-0.561355,-2.317819,0.245677,1.1351930000000001,-0.308729,1.011758,-0.823975
736,-0.49144499999999997,-0.91774,2.723574,-0.286733,0.794231,-0.5357029999999999,-2.351257,1.43526,0.9806790000000001,-0.025767,1.308293,0.48255600000000004
737,-0.47352700000000003,-0.9647479999999999,2.7151650000000003,-0.259762,0.8219049999999999,-0.506942,-2.057887,1.1223940000000001,0.911558,-0.064197,0.244669,0.49873199999999995
738,-0.454059,-1.017433,2.712447,-0.230514,0.8507620000000001,-0.47229499999999996,-2.6355,1.391392,1.2746469999999999,-0.0075840000000000005,-0.40007800000000004,0.316762
739,-0.41339,-1.081457,2.7106689999999998,-0.18882100000000002,0.8826440000000001,-0.430442,-3.076248,2.4872240000000003,1.208208,-0.046607,-0.140533,0.31446
740,-0.3782,-1.1498549999999998,2.6877020000000003,-0.15087899999999999,0.9127049999999999,-0.379735,-3.484063,2.767012,0.591841,-0.127396,0.146865,0.4735
741,-0.39221,-1.214146,2.6248139999999998,-0.133447,0.9370719999999999,-0.32261599999999996,-3.267802,1.925664,-0.182167,-0.084815,0.156541,0.307159
742,-0.45956499999999995,-1.26483,2.517338,-0.133601,0.953556,-0.269951,-2.971867,1.699958,-0.7374229999999999,0.005946,0.081463,0.22899699999999998
743,-0.575032,-1.3077940000000001,2.35717,-0.14138499999999998,0.965614,-0.218156,-2.936282,2.096768,-0.9000530000000001,0.088193,0.08117,0.315064
744,-0.6967180000000001,-1.344458,2.1917590000000002,-0.143993,0.9744950000000001,-0.172097,-2.470992,1.596077,-0.236,0.174541,0.326302,0.164285
745,-0.806955,-1.378293,2.059765,-0.138149,0.9815280000000001,-0.13231700000000002,-1.97501,0.70578,0.33049,0.438884,0.359628,-0.0026620000000000003
746,-0.8950819999999999,-1.4115010000000001,1.96485,-0.123743,0.987339,-0.099192,-1.6148209999999998,-0.17157999999999998,0.976132,0.44021000000000005,0.042263,-0.193517
747,-0.98782,-1.451293,1.890405,-0.099494,0.9928680000000001,-0.065609,-1.602731,-1.319611,1.413522,0.345221,-0.27755100000000005,-0.089573
748,-1.154819,-1.491751,1.7503369999999998,-0.07216900000000001,0.996878,-0.031881,-1.5255379999999998,-1.252699,1.396884,0.279918,-0.31571,-0.060373
749,-1.512699,-1.524528,1.405176,-0.046057,0.9989299999999999,-0.002679,-1.36457,-0.17382,1.318645,0.16234400000000002,-0.370664,-0.057426
750,-2.541918,-1.537872,0.358656,-0.01848,0.999458,0.027031,-1.7159919999999997,1.2449379999999999,1.404103,-0.162031,-0.386726,-0.30547399999999997
751,3.093476,-1.502501,-0.322294,0.003278,0.997669,0.068075,-2.101624,1.596601,0.9095770000000001,-0.480497,-0.188816,-0.244054
752,3.032832,-1.4696930000000001,-0.405118,0.010948999999999999,0.994893,0.100275,-1.330714,0.870978,0.284573,-0.393487,-0.093862,-0.218729
753,3.063182,-1.450883,-0.38256799999999996,0.009366,0.992819,0.11920599999999999,-0.750731,0.105851,-0.15264,-0.116193,0.006540000000000001,-0.18694000000000002
754,3.083561,-1.437009,-0.357705,0.007734,0.991064,0.133117,-0.720921,-0.32804099999999997,-0.09739600000000001,0.184451,0.033137,-0.176375
755,3.0999380000000003,-1.4218709999999999,-0.336039,0.006177,0.988931,0.148204,-0.795733,-0.147636,-0.125924,0.24068,0.095297,-0.15208
756,3.118293,-1.40562,-0.31566700000000003,0.0038299999999999996,0.986389,0.16434100000000001,-0.784242,-0.214738,-0.138576,0.17138699999999998,0.199325,-0.168399
757,3.120041,-1.3943450000000002,-0.297881,0.003782,0.9844729999999999,0.175458,-0.42233000000000004,-1.118261,-0.14343599999999998,0.099383,0.20676599999999998,-0.24999699999999997
758,3.110621,-1.3890770000000001,-0.28274299999999997,0.005595,0.983534,0.180598,-0.216646,-1.1287260000000001,-0.10246199999999998,0.112844,0.174836,-0.335841
759,3.103109,-1.383673,-0.277685,0.007156,0.982543,0.185859,-0.333511,-0.21786599999999998,-0.013646,0.16684000000000002,0.094422,-0.279975
760,3.1157790000000003,-1.375282,-0.271893,0.005013,0.9809479999999999,0.194171,-0.41735,0.5400520000000001,-0.06754600000000001,0.034797,0.169443,-0.179065
761,-3.1383360000000002,-1.370673,-0.255852,-0.000647,0.980042,0.198755,-0.109445,0.768623,-0.218444,-0.106652,0.230712,0.08129
762,-3.0918919999999996,-1.370303,-0.221827,-0.009892,0.9799680000000001,0.198873,0.014726,0.447184,-0.39449,-0.246669,0.27625700000000003,0.063166
763,-3.048388,-1.370359,-0.171402,-0.018527000000000002,0.97998,0.19819900000000001,0.080274,-0.8157369999999999,-0.575079,-0.197187,0.5655979999999999,-0.052417
764,-3.006008,-1.374592,-0.099731,-0.026345999999999998,0.980814,0.193123,0.452981,-1.5505950000000002,-0.677288,0.189951,0.696082,0.022972
765,-2.981118,-1.38764,-0.050352,-0.029097,0.983274,0.179757,0.856807,-0.914911,-0.157199,0.408613,0.928241,0.200676
766,-2.974949,-1.4079110000000001,-0.026731,-0.026892000000000003,0.986764,0.159879,1.140868,-0.968599,-0.031232,-0.215723,0.231132,-0.252011
767,-2.926381,-1.4371040000000002,0.053153,-0.028456,0.9910770000000001,0.130173,1.8733689999999998,-1.828727,-0.552715,-0.317126,0.148465,-0.266129
768,-2.623957,-1.47809,0.397825,-0.045776,0.995706,0.080389,2.9837919999999998,-2.014528,-1.403571,-0.287247,0.23274899999999998,-0.292486
769,-1.723532,-1.488202,1.335725,-0.08147,0.996591,0.012541,3.826485,-1.566144,-2.1086270000000003,-0.272122,0.40523400000000004,-0.310469
770,-1.0510030000000001,-1.423218,2.034866,-0.12759,0.98913,-0.073018,4.745189,-0.595778,-2.347008,-0.26273,0.46239300000000005,-0.147349
771,-0.783568,-1.329058,2.28556,-0.16895,0.970923,-0.16957,4.520576,2.123712,-2.11278,-0.349208,0.39156399999999997,0.050719
772,-0.653632,-1.2528860000000002,2.3685810000000003,-0.190065,0.949891,-0.248142,2.949977,2.080561,-1.416533,0.015336,0.294448,0.11752699999999999
773,-0.652363,-1.220701,2.372372,-0.208209,0.93934,-0.272546,0.719445,-0.784972,-0.56425,0.21477,0.437033,0.45466000000000006
774,-0.579196,-1.194135,2.435756,-0.20132,0.929898,-0.307819,2.467835,1.156308,0.49553800000000003,0.469463,0.396121,0.512424
775,-0.485709,-1.135985,2.54248,-0.19664600000000002,0.906949,-0.37251300000000004,4.137455,-1.405581,0.089603,0.328726,0.282748,0.571488
776,-0.45716999999999997,-1.0474700000000001,2.6282419999999997,-0.220598,0.8661620000000001,-0.44843500000000003,5.162139,-2.5150189999999997,-0.41029099999999996,-0.030043,-0.372448,0.5890449999999999
777,-0.45150500000000005,-0.94965,2.695135,-0.253922,0.8132119999999999,-0.523645,5.016785,-2.466047,-0.54276,-0.12825,-0.537684,0.440866
778,-0.461959,-0.863809,2.743033,-0.289503,0.760322,-0.581458,4.183212999999999,-2.330932,-0.575462,-0.078127,-0.470466,0.395667
779,-0.47474799999999995,-0.793189,2.7721310000000003,-0.32069899999999996,0.712594,-0.623985,3.218934,-1.318946,-0.798207,0.163915,-0.504297,0.407096
780,-0.48539799999999994,-0.735494,2.788377,-0.345953,0.670953,-0.655846,2.6884799999999998,-1.140213,-0.812823,0.141119,-0.45710100000000004,0.5907060000000001
781,-0.503219,-0.6831659999999999,2.800602,-0.37401999999999996,0.631252,-0.679431,2.370167,-1.249791,-0.839475,0.141842,-0.317333,0.480182
782,-0.521908,-0.639311,2.806264,-0.400077,0.596642,-0.695667,1.801541,-1.069654,-0.9056350000000001,0.12676099999999998,-0.280267,0.387455
783,-0.5429470000000001,-0.606845,2.804027,-0.424411,0.570279,-0.7033159999999999,1.05623,-0.9213110000000001,-0.859756,0.031665,-0.30436399999999997,0.312096
784,-0.562475,-0.5904229999999999,2.796152,-0.442999,0.556712,-0.702723,0.21552800000000003,-0.6584399999999999,-0.601046,-0.053628999999999996,-0.270915,0.301722
785,-0.578705,-0.5893,2.784241,-0.454687,0.555779,-0.695964,-0.444576,-0.352434,-0.363563,-0.104151,-0.23224699999999998,0.335231
786,-0.587391,-0.598909,2.771143,-0.457733,0.563742,-0.687511,-0.8427680000000001,0.123954,-0.07105700000000001,-0.034149,-0.229559,0.17916500000000002
787,-0.5865,-0.6187819999999999,2.7576810000000003,-0.45083,0.580044,-0.678453,-1.312411,0.57303,0.186801,-0.008001000000000001,-0.280971,0.106874
788,-0.57986,-0.649353,2.743871,-0.43639300000000003,0.604671,-0.666281,-1.731999,0.81931,0.49974799999999997,-0.010689,-0.31493699999999997,-0.010004
789,-0.571551,-0.69083,2.7322040000000003,-0.41690900000000003,0.637177,-0.64822,-2.162193,0.7083430000000001,0.916697,0.06346900000000001,-0.256562,-0.457829
790,-0.572023,-0.742491,2.723193,-0.398846,0.676125,-0.619494,-2.476509,0.13411700000000001,1.199384,0.12084600000000001,-0.196511,-0.279432
791,-0.561282,-0.7947930000000001,2.7151509999999996,-0.372819,0.713719,-0.592965,-2.188367,1.417411,1.0405870000000002,0.058762,-0.056996000000000005,-0.060859
792,-0.551459,-0.837916,2.7060310000000003,-0.350515,0.74325,-0.569837,-1.7867669999999998,0.18832100000000002,0.899689,-0.372477,1.024419,-0.43809799999999993
