,attitude.roll,attitude.pitch,attitude.yaw,gravity.x,gravity.y,gravity.z,rotationRate.x,rotationRate.y,rotationRate.z,userAcceleration.x,userAcceleration.y,userAcceleration.z
0,-0.736002,-0.8963969999999999,-1.917891,-0.419196,0.7810819999999999,-0.46279799999999993,-0.42321499999999995,-1.520627,-0.004786,0.27912,-0.70224,0.226454
1,-0.78313,-0.906767,-1.940364,-0.434795,0.787516,-0.436771,-1.028157,-1.50804,-0.23015,0.383372,-0.5264989999999999,-0.184368
2,-0.835255,-0.9216639999999999,-1.9711869999999998,-0.448212,0.796609,-0.40560799999999997,-1.303925,-1.317619,0.07426,0.09407,1.044807,-1.229875
3,-0.8602420000000001,-0.9376200000000001,-1.974393,-0.448513,0.8061520000000001,-0.385942,0.073591,-1.166072,0.6744140000000001,-0.784305,1.503876,-1.132933
4,-0.867391,-0.9420209999999999,-1.9476950000000002,-0.44855,0.8087489999999999,-0.380427,0.45699799999999996,-1.516965,0.712793,0.21301599999999998,-0.30798600000000004,-0.415471
5,-0.882792,-0.9486319999999999,-1.9379380000000002,-0.450216,0.812619,-0.370071,-0.31866300000000003,-0.900524,0.142564,0.30040500000000003,-0.539014,-0.403549
6,-0.91354,-0.954306,-1.9697419999999999,-0.457722,0.815913,-0.353232,-1.332726,0.178581,-0.570928,-0.502513,-0.24811799999999998,0.605506
7,-0.9965780000000001,-0.9640569999999999,-2.0577330000000003,-0.47873999999999994,0.8215110000000001,-0.309714,-2.6863900000000003,-1.597515,-1.4572530000000001,-1.3808639999999999,0.213477,1.039649
8,-1.095186,-0.96747,-2.151293,-0.504409,0.8234530000000001,-0.259793,-1.9495060000000002,0.088308,-0.638145,-0.521302,1.009235,-0.283221
9,-1.073703,-0.97549,-2.174642,-0.492892,0.8279770000000001,-0.267411,-0.48617,1.45428,-0.114791,0.32156599999999996,-0.049885000000000006,0.298127
10,-1.115479,-0.976025,-2.215271,-0.503232,0.828277,-0.24639699999999998,-1.324625,-0.763572,-0.466046,0.09435700000000001,-0.42237700000000006,0.886732
11,-1.18079,-0.986359,-2.283211,-0.5102949999999999,0.834023,-0.209763,-2.372009,-0.22078499999999998,-0.231571,0.042812,-0.48024799999999995,0.8523870000000001
12,-1.280332,-1.005255,-2.400482,-0.513422,0.844298,-0.153471,-3.9144660000000004,-0.087873,-0.164535,0.045267,-0.538833,0.520552
13,-1.4425569999999999,-1.0208409999999999,-2.574842,-0.518353,0.852548,-0.06684,-4.97269,-1.2633729999999999,-0.18751199999999998,-0.057422,-0.33381,0.600028
14,-1.6308770000000001,-1.024884,-2.745259,-0.518256,0.8546540000000001,0.031175,-3.865908,-2.472441,0.179622,-0.029794,-0.217935,0.686553
15,-1.7440689999999999,-1.019115,-2.840176,-0.516267,0.8516440000000001,0.090361,-1.607452,-0.786974,-0.229778,0.084351,0.236521,0.8482219999999999
16,-1.7458650000000002,-1.002356,-2.8526689999999997,-0.530086,0.842741,0.093761,-0.025089,1.0144309999999999,-1.073475,0.096095,0.497255,0.42239799999999994
17,-1.708091,-0.977289,-2.841644,-0.554005,0.828984,0.076543,0.069758,1.480521,-1.296668,0.24908899999999998,0.252406,-0.008123
18,-1.69278,-0.9573149999999999,-2.842825,-0.5714359999999999,0.817649,0.07005399999999999,-0.46090200000000003,0.047327,-0.737721,0.33408499999999997,0.15831900000000002,-0.433777
19,-1.7602349999999998,-0.9473159999999999,-2.887481,-0.573415,0.811852,0.109945,-1.710732,-2.220143,-0.047064999999999996,0.278966,0.10894000000000001,-0.18781099999999998
20,-1.847041,-0.945792,-2.943192,-0.562914,0.81096,0.159582,-1.450149,-1.643629,0.47530900000000004,0.213167,0.141051,0.284021
21,-1.899477,-0.948315,-3.0067209999999998,-0.551837,0.812434,0.18820499999999998,-2.132977,1.0727440000000001,0.8206399999999999,0.222568,0.028584,0.38595300000000005
22,-1.942123,-0.947918,-3.1105810000000003,-0.543612,0.812203,0.211677,-3.190027,2.361064,1.10323,0.22008000000000003,-0.115593,0.078331
23,-1.992366,-0.9388920000000001,3.0470189999999997,-0.538963,0.806904,0.241702,-3.740678,2.6448650000000002,0.938786,0.115272,-0.078373,0.07324
24,-2.039844,-0.919111,2.925776,-0.541017,0.795063,0.27416999999999997,-3.440307,2.4139880000000002,0.34084000000000003,-0.4205,-0.08533099999999999,-0.588959
25,-2.044787,-0.8891309999999999,2.872227,-0.560619,0.776525,0.287595,-1.42668,1.038774,-0.8846069999999999,-0.172002,-0.238073,-0.602186
26,-2.0598509999999997,-0.866366,2.859166,-0.571684,0.76198,0.304235,-0.771478,-0.48834399999999994,-0.775524,0.139708,0.121671,0.224512
27,-2.065615,-0.843399,2.842822,-0.58517,0.746907,0.315754,-1.162867,0.741255,-0.770219,0.155727,0.32509899999999997,0.12246300000000002
28,-2.071567,-0.817669,2.825114,-0.5999439999999999,0.729554,0.328351,-1.0881450000000001,-0.08304199999999999,-0.891487,0.20164400000000002,0.401413,-0.19584400000000002
29,-2.102709,-0.79276,2.8108560000000002,-0.604907,0.7122930000000001,0.355981,-0.996252,-1.600769,-0.777805,0.393725,0.40605399999999997,-0.557275
30,-2.131936,-0.77689,2.808843,-0.603741,0.7010649999999999,0.379475,-0.099968,-0.894201,-0.56201,0.260281,0.46417200000000003,-0.650135
31,-2.135981,-0.7680859999999999,2.81251,-0.60739,0.69476,0.385204,-0.316799,-0.052624000000000004,-0.376596,0.102324,0.405704,-0.310619
32,-2.131597,-0.756287,2.803817,-0.6159720000000001,0.686225,0.386871,-0.604548,0.79925,-0.307058,0.050893,0.45639799999999997,-0.268127
33,-2.116922,-0.7478819999999999,2.802559,-0.6264890000000001,0.680088,0.380772,-0.005427,0.630173,-0.36888699999999996,0.078012,0.53381,-0.342244
34,-2.0983709999999998,-0.7451369999999999,2.817137,-0.635055,0.6780729999999999,0.37002399999999996,0.606109,0.437363,-0.367573,0.19500699999999999,0.724271,-0.43307299999999993
35,-2.067402,-0.751808,2.842197,-0.642217,0.6829609999999999,0.34802,1.202772,0.857814,-0.002885,0.313726,0.8635639999999999,-0.393338
36,-2.021707,-0.772776,2.880998,-0.644412,0.698125,0.31201,2.0609040000000003,0.9784430000000001,0.521042,0.248462,0.818125,-0.341292
37,-1.963036,-0.809375,2.938554,-0.63755,0.723856,0.263739,2.909092,0.703156,0.9620860000000001,0.194466,0.6019800000000001,-0.340567
38,-1.8900849999999998,-0.8542370000000001,3.025468,-0.6235970000000001,0.75407,0.206161,3.890399,0.354935,1.145644,-0.025711,0.42114700000000005,-0.45504799999999995
39,-1.804152,-0.9008870000000001,3.138261,-0.604083,0.783878,0.143582,4.0784650000000005,-0.36225799999999997,1.314519,-0.411466,0.392635,0.242008
40,-1.7136099999999999,-0.940508,-3.0281990000000003,-0.583375,0.807858,0.083885,3.6685480000000004,0.22112199999999999,1.235064,-0.35427800000000004,0.357013,0.9866719999999999
41,-1.609083,-0.964567,-2.915858,-0.569353,0.821802,0.02181,3.133036,0.7763399999999999,0.582201,-0.538878,0.299383,0.722957
42,-1.527836,-0.961455,-2.8238689999999997,-0.571797,0.820025,-0.02458,2.300018,-0.277328,-0.531081,-0.5135149999999999,0.044034,0.12449400000000001
43,-1.474006,-0.942526,-2.744957,-0.584993,0.809046,-0.056799,2.71366,0.042115,-0.854409,-0.49577200000000005,0.056478999999999994,-0.200693
44,-1.372895,-0.9161020000000001,-2.64574,-0.5970300000000001,0.793234,-0.11972000000000001,3.203735,1.498019,-0.664845,-0.7081609999999999,-0.288351,0.145584
45,-1.2704739999999999,-0.905358,-2.545259,-0.589769,0.786646,-0.182645,2.961516,0.8514280000000001,0.6012029999999999,-0.426726,-0.46662299999999995,0.579495
46,-1.182924,-0.8968209999999999,-2.453647,-0.577735,0.781347,-0.23604499999999998,2.729575,1.093544,0.46147200000000005,0.10488,-0.302008,0.658576
47,-1.0895709999999998,-0.885606,-2.371195,-0.560949,0.7742979999999999,-0.29291,2.464569,1.537482,0.761359,0.274679,-0.12856199999999998,0.547457
48,-1.005347,-0.8824360000000001,-2.291909,-0.536389,0.772289,-0.340375,2.126535,0.901689,1.275764,0.334149,0.057164,0.514951
49,-0.9269649999999999,-0.881618,-2.211967,-0.508596,0.7717689999999999,-0.38171,2.190516,0.831521,1.451489,0.269811,0.092916,0.53271
50,-0.848972,-0.871028,-2.124771,-0.483417,0.764992,-0.42555200000000004,2.727561,0.266838,1.2743659999999999,0.041385000000000005,-0.186852,0.625808
51,-0.7863479999999999,-0.846942,-2.035809,-0.46874499999999997,0.749258,-0.46785600000000005,2.950535,-0.45520600000000006,1.0279530000000001,-0.050817,-0.37709699999999996,0.737494
52,-0.745853,-0.820926,-1.960076,-0.46249399999999996,0.731777,-0.5006,2.519816,-1.021919,0.8654379999999999,-0.075073,-0.657803,0.7878310000000001
53,-0.731431,-0.79998,-1.9053930000000001,-0.46536400000000006,0.717342,-0.518512,1.704618,-1.350206,0.552516,0.06713999999999999,-0.697033,0.803531
54,-0.740169,-0.7892399999999999,-1.8778860000000002,-0.475046,0.7098180000000001,-0.520085,0.6129319999999999,-1.4581600000000001,0.257677,0.213495,-0.804773,0.745793
55,-0.772357,-0.791959,-1.881166,-0.490188,0.711731,-0.503143,-0.656224,-1.492725,-0.12074800000000001,0.39961199999999997,-0.712616,0.548676
56,-0.8233889999999999,-0.8077,-1.91403,-0.506935,0.722699,-0.46981000000000006,-1.754462,-1.270928,-0.288937,0.47943900000000006,-0.43499499999999997,-0.202767
57,-0.881984,-0.8292860000000001,-1.9677220000000002,-0.521411,0.737449,-0.429299,-2.2191549999999998,-0.8457709999999999,-0.44655200000000006,0.309223,0.141381,-1.0550760000000001
58,-0.936357,-0.8488709999999999,-2.0158669999999996,-0.532235,0.7505350000000001,-0.391691,-1.416933,-0.9025139999999999,-0.005044,-0.874763,1.136032,-1.123019
59,-0.973303,-0.858591,-2.029207,-0.540283,0.7569229999999999,-0.367642,-0.41771800000000003,-1.699589,0.256125,-0.807908,0.90891,-0.96329
60,-1.0154459999999998,-0.8722620000000001,-2.035108,-0.546447,0.765786,-0.339066,-0.683609,-1.7592439999999998,0.486149,-0.027619,-0.020028,-0.492965
61,-1.057563,-0.884706,-2.060909,-0.551895,0.773729,-0.311054,-1.214043,-0.566936,-0.184586,-0.755097,0.044677,-0.07391
62,-1.097428,-0.885438,-2.117633,-0.563348,0.774192,-0.288553,-1.7722939999999998,0.11728599999999999,-1.11017,-1.1574010000000001,0.40331300000000003,0.080316
63,-1.144295,-0.8863549999999999,-2.169588,-0.575601,0.7747729999999999,-0.261549,-1.2771299999999999,0.007894,-0.291518,-0.916235,0.39614099999999997,0.641386
64,-1.146196,-0.896333,-2.1994580000000004,-0.569025,0.781042,-0.257257,-1.069128,1.138898,0.140048,0.212625,-0.41582299999999994,0.085962
65,-1.183303,-0.907884,-2.2517080000000003,-0.569786,0.788203,-0.23254499999999997,-2.218301,-0.24352600000000002,-0.27106399999999997,0.332374,-0.512217,0.713517
66,-1.2703,-0.9223979999999999,-2.35405,-0.576847,0.7970520000000001,-0.178754,-3.7272019999999997,-0.20685,-0.408769,0.32883,-0.46410500000000005,0.8419459999999999
67,-1.402811,-0.934267,-2.5065209999999998,-0.5860380000000001,0.804164,-0.099382,-5.080218,-0.8853989999999999,-0.575447,0.11528900000000002,-0.366587,0.553621
68,-1.581656,-0.9347409999999999,-2.683839,-0.593988,0.804445,0.00645,-4.934562000000001,-2.215033,-0.127278,-0.049643,-0.026552,0.9713940000000001
69,-1.699066,-0.936586,-2.7932490000000003,-0.58767,0.8055399999999999,0.075797,-2.019204,-0.631415,0.386712,0.016381,0.228823,1.094247
70,-1.701034,-0.9312440000000001,-2.80947,-0.591778,0.802363,0.07751,0.074291,1.019757,-0.626274,0.21674699999999997,0.453481,0.560566
71,-1.671036,-0.910441,-2.794782,-0.6103149999999999,0.789775,0.06138300000000001,0.319292,0.589811,-1.210465,0.270303,0.42976899999999996,0.18648
72,-1.671607,-0.891703,-2.785091,-0.624896,0.778142,0.063211,0.172315,-0.9946729999999999,-0.712738,0.336642,0.33715300000000004,0.086097
73,-1.722694,-0.888077,-2.798348,-0.623637,0.77586,0.095465,-1.0332780000000001,-2.627484,0.266902,0.16001400000000002,0.042453,-0.5152180000000001
74,-1.813477,-0.89515,-2.8557,-0.6070720000000001,0.780303,0.15028699999999998,-1.915417,-1.7405549999999999,0.875967,0.097505,0.039353,-0.041171
75,-1.874006,-0.9040450000000001,-2.933912,-0.590221,0.7858350000000001,0.18465499999999999,-2.622712,1.457444,1.211964,0.108349,-0.097786,0.362831
76,-1.906252,-0.905156,-3.0474419999999998,-0.583137,0.786522,0.2033,-3.5334230000000004,3.078241,1.074271,0.124579,-0.179313,-0.086601
77,-1.944636,-0.8951629999999999,3.1140790000000003,-0.5821930000000001,0.780311,0.22838699999999998,-3.7897480000000003,2.632206,0.685288,0.016503999999999998,-0.154686,-0.146615
78,-1.9851509999999999,-0.870358,3.00463,-0.590005,0.76456,0.259495,-3.4573669999999996,2.115812,-0.200489,-0.101249,-0.130649,-0.204243
79,-1.996573,-0.8356540000000001,2.94424,-0.610808,0.741735,0.277013,-1.970034,1.165482,-0.930228,-0.188111,-0.228399,-0.36115
80,-2.011335,-0.81184,2.914911,-0.6224569999999999,0.725554,0.29345,-1.215372,0.15801500000000002,-0.590381,0.060171,0.094361,0.185569
81,-2.012515,-0.787456,2.8916459999999997,-0.637917,0.7085600000000001,0.301659,-1.232192,1.141303,-0.8513360000000001,0.142373,0.180386,0.167472
82,-2.0012939999999997,-0.762177,2.878739,-0.657333,0.690497,0.30186199999999996,-0.7693479999999999,0.694017,-1.018446,0.108352,0.420022,-0.093855
83,-2.012184,-0.738383,2.8750259999999996,-0.668675,0.673093,0.315933,-0.605366,-1.2486620000000002,-0.990242,0.36444499999999996,0.44353000000000004,-0.4664
84,-2.0777400000000004,-0.714861,2.867875,-0.660203,0.655512,0.366646,-0.8552,-4.025418,-0.878402,0.51915,0.560171,-0.672081
85,-2.122957,-0.7024239999999999,2.873904,-0.649846,0.64607,0.400358,0.4772,-0.608793,-0.507073,0.173894,0.636584,-0.6587810000000001
86,-2.107691,-0.698745,2.880225,-0.65792,0.643258,0.39160500000000004,-0.381184,0.801054,-0.15168,0.020666999999999998,0.475074,-0.388583
87,-2.096545,-0.690399,2.865996,-0.6668649999999999,0.636845,0.386928,-0.503953,1.0697370000000002,-0.103744,-0.054464,0.509151,-0.46218400000000004
88,-2.072057,-0.689828,2.876103,-0.676458,0.636404,0.370659,0.751092,0.745408,-0.270818,0.06281,0.542078,-0.677299
89,-2.0384830000000003,-0.6969029999999999,2.9039610000000002,-0.684483,0.641846,0.34570500000000004,1.32007,1.018523,-0.066368,0.263416,0.7778010000000001,-0.625474
90,-1.978788,-0.717017,2.9451110000000003,-0.691896,0.657139,0.29906900000000003,2.177237,1.8720729999999999,0.455545,0.298815,0.798412,-0.49818100000000004
91,-1.907561,-0.751108,3.006434,-0.689872,0.682449,0.241525,3.14692,1.352327,0.919115,0.161247,0.568314,-0.445352
92,-1.812747,-0.7948890000000001,3.102576,-0.6799609999999999,0.7137859999999999,0.167804,4.263833999999999,1.179861,1.255082,-0.077577,0.470037,-0.24876700000000002
93,-1.709482,-0.842111,-3.059885,-0.659492,0.746051,0.092053,4.5746150000000005,0.947032,1.667748,-0.267021,0.5651520000000001,0.388752
94,-1.574411,-0.879001,-2.923145,-0.637914,0.7701020000000001,0.002306,4.558233,1.457718,1.3112620000000001,-0.671245,0.713831,0.80667
95,-1.465567,-0.883519,-2.796625,-0.630923,0.772976,-0.066637,3.48496,0.008947,-0.154638,-1.102339,0.504352,0.611819
96,-1.421362,-0.873431,-2.719879,-0.635041,0.766537,-0.09561,1.9543669999999997,-1.18462,0.22075999999999998,-1.130188,0.11958699999999998,0.539183
97,-1.392575,-0.885719,-2.654652,-0.622708,0.77437,-0.11217,2.730289,0.34576999999999997,0.9815879999999999,-1.101764,-0.407488,-0.173551
98,-1.2615299999999998,-0.880159,-2.555288,-0.606804,0.77084,-0.193885,2.936681,3.255243,0.219796,-0.249306,-0.439312,0.339851
99,-1.162895,-0.862124,-2.4903060000000004,-0.597428,0.7592270000000001,-0.25817199999999996,1.945169,1.827496,-0.182679,0.023422,-0.380732,0.645089
100,-1.096638,-0.848341,-2.443598,-0.588279,0.750184,-0.30190900000000004,1.622366,1.489946,0.327177,0.467017,-0.008287000000000001,0.8560629999999999
101,-1.0223440000000001,-0.850454,-2.387294,-0.562893,0.75158,-0.343915,1.577655,1.519272,1.289295,0.67509,0.257469,0.701749
102,-0.954074,-0.851196,-2.315928,-0.537666,0.752069,-0.38119000000000003,2.185866,0.381446,1.322775,0.504401,0.10397999999999999,0.610102
103,-0.8897290000000001,-0.840901,-2.233004,-0.51803,0.7452439999999999,-0.41982600000000003,2.651455,-0.10232999999999999,1.220893,0.295831,-0.150838,0.73959
104,-0.84046,-0.820659,-2.149929,-0.507861,0.731595,-0.454801,2.798769,-0.873899,0.904581,0.194399,-0.275983,0.834043
105,-0.812854,-0.7984760000000001,-2.081676,-0.506777,0.716294,-0.47968599999999995,2.211313,-1.189694,0.733171,0.10277,-0.681168,0.977809
106,-0.8075359999999999,-0.784045,-2.033208,-0.5116350000000001,0.706149,-0.48946999999999996,1.4864709999999999,-1.673387,0.577041,0.109582,-0.786136,0.9936200000000001
107,-0.823102,-0.777041,-2.003834,-0.522806,0.701172,-0.48479799999999995,0.6564180000000001,-1.83391,0.41441999999999996,0.24216700000000002,-0.928773,0.954189
108,-0.8550639999999999,-0.781296,-1.999441,-0.535775,0.7042,-0.46588100000000005,-0.475084,-1.7097799999999999,0.190576,0.39769899999999997,-0.798453,0.57634
109,-0.9145979999999999,-0.798428,-2.0247,-0.552905,0.71626,-0.425754,-1.6853810000000002,-2.409199,0.058035,0.535845,-0.168576,-0.41532600000000003
110,-1.009372,-0.822672,-2.079296,-0.575842,0.732966,-0.362167,-2.456154,-2.740106,-0.171251,0.258871,0.141683,-1.129868
111,-1.05856,-0.838414,-2.1214,-0.5828220000000001,0.743584,-0.32771999999999996,-0.601729,0.045079,0.213079,-1.385837,1.931923,-2.0116970000000003
112,-1.061939,-0.8426450000000001,-2.08521,-0.5811729999999999,0.746406,-0.32421300000000003,1.287592,-2.5510509999999997,0.984836,-0.285679,0.364586,-0.392065
113,-1.069142,-0.8547600000000001,-2.04297,-0.575522,0.754413,-0.315646,0.611885,-1.244541,1.18354,0.086386,-0.7862279999999999,-0.41874399999999995
114,-1.0699670000000001,-0.8659620000000001,-2.032091,-0.568333,0.7617189999999999,-0.311094,-0.34036,-0.158387,0.252553,-0.019771,-1.0204469999999999,0.008253
115,-1.09722,-0.8747360000000001,-2.083338,-0.5706289999999999,0.767374,-0.292432,-2.801141,0.633951,-0.752688,-0.376255,-0.709116,1.234327
116,-1.218648,-0.888682,-2.211409,-0.591746,0.776242,-0.217446,-4.430275,-1.8622049999999999,-0.884782,-0.805593,-0.43003500000000006,1.6431810000000002
117,-1.2809110000000001,-0.902509,-2.31975,-0.593787,0.784884,-0.177119,-1.581674,5.481857,-0.171406,-1.017617,0.988081,0.590007
118,-1.260699,-0.8873549999999999,-2.352543,-0.601345,0.775404,-0.192692,-1.19985,-0.184326,-1.304475,0.021953,-0.319731,1.0182229999999999
119,-1.342386,-0.882725,-2.424499,-0.618553,0.772472,-0.143793,-2.696797,-1.531018,-0.49494799999999994,0.07709500000000001,-0.498439,1.007624
120,-1.447805,-0.898333,-2.52789,-0.618207,0.7822899999999999,-0.07642,-3.601716,-1.001576,0.554524,0.314054,-0.345507,0.8670690000000001
121,-1.550571,-0.9203459999999999,-2.642676,-0.605418,0.7958109999999999,-0.012246,-3.3853660000000003,-0.392563,0.9804069999999999,0.41361499999999995,-0.18903,0.8975770000000001
122,-1.607723,-0.9366479999999999,-2.7238029999999998,-0.5920850000000001,0.8055770000000001,0.021874,-1.7418799999999999,0.978575,0.589547,0.447279,0.146175,0.938408
123,-1.594959,-0.931383,-2.743629,-0.596548,0.802446,0.014417,0.005154,1.454982,-0.713842,0.403036,0.307799,0.8536100000000001
124,-1.56625,-0.90725,-2.728268,-0.6159060000000001,0.787813,-0.0028,0.5632149999999999,0.301081,-1.411355,0.23962399999999998,0.536391,0.370613
125,-1.571265,-0.88154,-2.715103,-0.635961,0.7717189999999999,0.000298,0.302709,-1.490294,-1.024183,0.238012,0.334909,0.097572
126,-1.6436240000000002,-0.879742,-2.7214419999999997,-0.635658,0.770575,0.046376,-0.802955,-4.996416,0.539669,0.230354,-0.030691000000000003,-0.66074
127,-1.8205759999999998,-0.8930969999999999,-2.798654,-0.607542,0.779017,0.15498800000000001,-3.0483119999999997,-4.680313,1.224333,0.032744,-0.239314,-0.085149
128,-1.900952,-0.892301,-2.9071,-0.593724,0.778518,0.203468,-3.151379,2.613454,0.825434,-0.020488,-0.335036,-0.035179
129,-1.909455,-0.890858,-3.003841,-0.593032,0.7776109999999999,0.208882,-2.8320060000000002,3.084715,0.978749,-0.101213,-0.094048,-0.232961
130,-1.939166,-0.883172,-3.1065009999999997,-0.592123,0.772756,0.228552,-3.357471,2.2861580000000004,0.535994,-0.19561199999999998,-0.061895000000000006,-0.153754
131,-1.959153,-0.8598889999999999,3.089753,-0.603928,0.7577699999999999,0.247088,-2.620461,2.294645,-0.35938000000000003,-0.22654699999999997,-0.26334,-0.30281399999999997
132,-1.9676770000000001,-0.837835,3.041759,-0.617065,0.743196,0.258625,-1.555172,0.7409979999999999,-0.36490300000000003,-0.020829,-0.083696,-0.141361
133,-1.9795169999999997,-0.819138,3.010096,-0.626602,0.730558,0.271388,-1.3026790000000001,0.759851,-0.503101,0.135956,0.055484000000000006,0.275548
134,-1.975422,-0.796712,2.981589,-0.642609,0.715062,0.275202,-1.335448,1.319058,-0.725168,-0.005966,0.17594500000000002,0.07993099999999999
135,-1.9752830000000001,-0.771125,2.96191,-0.6592560000000001,0.696943,0.282222,-1.005398,0.17917,-1.000208,-0.011245999999999999,0.295337,-0.023982
136,-2.002929,-0.746325,2.951511,-0.666696,0.678945,0.30748400000000004,-0.815425,-1.878795,-0.9353549999999999,0.084024,0.361643,-0.195911
137,-2.0761439999999998,-0.723645,2.942087,-0.655725,0.662121,0.362791,-0.662341,-3.745249,-0.779138,0.543451,0.499943,-0.688398
138,-2.0972,-0.7168859999999999,2.954992,-0.651796,0.657041,0.378756,0.44483599999999995,-0.348099,-0.404017,0.13159400000000002,0.587832,-0.642031
139,-2.0924840000000002,-0.708723,2.95004,-0.658203,0.6508649999999999,0.378339,-0.8348629999999999,0.906277,-0.230829,0.034531,0.504469,-0.390317
140,-2.072441,-0.697235,2.938114,-0.6721659999999999,0.6421,0.368643,-0.36290300000000003,1.4098110000000001,-0.287998,0.11570799999999999,0.528539,-0.282553
141,-2.0514069999999998,-0.69435,2.947371,-0.681411,0.639886,0.355279,0.536931,0.320101,-0.285657,0.20800700000000003,0.533942,-0.497613
142,-2.0290150000000002,-0.700469,2.971262,-0.68567,0.644576,0.338194,1.229641,0.676581,0.009281000000000001,0.22924899999999998,0.636567,-0.58763
143,-1.9780380000000002,-0.7209180000000001,3.008737,-0.689763,0.6600739999999999,0.297533,2.012123,1.537816,0.539208,0.225896,0.754919,-0.526095
144,-1.912568,-0.756397,3.0662,-0.685246,0.686305,0.243763,3.078897,1.294549,1.041558,0.05779,0.592122,-0.5173840000000001
145,-1.8153689999999998,-0.800875,-3.1221509999999997,-0.675363,0.717965,0.16855,4.227224,1.547641,1.222307,-0.313025,0.366187,-0.208833
146,-1.7094779999999998,-0.8458120000000001,-3.008407,-0.656756,0.74851,0.091669,4.136945,1.119046,1.654856,-0.431989,0.497386,0.625296
147,-1.5779,-0.8857219999999999,-2.891089,-0.632713,0.7743720000000001,0.004494,3.8391589999999995,2.457242,1.5944450000000001,-0.477929,0.615322,1.163139
148,-1.448782,-0.903589,-2.774205,-0.614193,0.785553,-0.075315,3.3859559999999997,1.4087319999999999,0.726295,-1.0178719999999999,0.320221,0.45183999999999996
149,-1.378403,-0.899653,-2.686681,-0.610406,0.783111,-0.11890899999999999,2.244202,-0.885898,0.125192,-1.13378,0.162247,0.24001799999999998
150,-1.368048,-0.9027280000000001,-2.622663,-0.606781,0.7850199999999999,-0.12473800000000002,2.383212,-1.56555,0.804287,-1.047241,-0.257981,-0.028186000000000003
151,-1.249458,-0.8986219999999999,-2.513345,-0.5908140000000001,0.78247,-0.196668,3.2879400000000003,2.891715,0.515407,-0.395102,-0.251525,0.336133
152,-1.136307,-0.881857,-2.425493,-0.57665,0.771921,-0.267604,2.701838,1.331098,0.22168800000000002,-0.020549,-0.22492399999999999,0.536357
153,-1.056054,-0.8690540000000001,-2.356675,-0.561898,0.763718,-0.31781,1.9104330000000003,1.8040720000000001,0.642843,0.526543,0.030059,0.613846
154,-0.9715239999999999,-0.868891,-2.30113,-0.533162,0.763613,-0.364187,1.489919,1.9126599999999998,1.024326,0.466085,-0.089068,0.645543
155,-0.900658,-0.8606790000000001,-2.234016,-0.510934,0.758286,-0.404905,2.355486,0.405031,0.8731389999999999,0.46489899999999995,-0.195908,0.688703
156,-0.8419209999999999,-0.838256,-2.153907,-0.49884399999999995,0.743478,-0.44541499999999995,2.866938,-0.19764,0.8935069999999999,0.347065,-0.203729,0.783748
157,-0.789493,-0.81307,-2.073243,-0.48796000000000006,0.7264,-0.48398,2.8267290000000003,-0.502555,0.989757,0.25195300000000004,-0.381781,0.776094
158,-0.755443,-0.7895409999999999,-2.003423,-0.48278699999999997,0.71003,-0.512614,2.23965,-0.9261280000000001,0.8644219999999999,0.143844,-0.6628350000000001,0.863001
159,-0.747115,-0.7757310000000001,-1.955921,-0.48511899999999997,0.700238,-0.5237609999999999,1.350974,-1.527558,0.723321,0.055584,-0.805096,0.920581
160,-0.764081,-0.7718,-1.9267189999999998,-0.495835,0.697426,-0.517439,0.577117,-2.03967,0.524154,0.097505,-0.7763140000000001,0.839766
161,-0.800624,-0.775533,-1.9173099999999998,-0.512536,0.7000970000000001,-0.497162,-0.19707,-2.158663,0.31700500000000004,0.24634699999999998,-0.738137,0.508362
162,-0.847979,-0.790218,-1.9314330000000002,-0.527729,0.710507,-0.465491,-1.3262690000000001,-1.682245,0.170706,0.500019,-0.46184899999999995,-0.02279
163,-0.9125459999999999,-0.818294,-1.9717200000000001,-0.540665,0.729981,-0.4181,-2.2592939999999997,-1.998762,0.21266500000000002,0.212189,0.297012,-1.324286
164,-0.980298,-0.84306,-2.021348,-0.552541,0.746682,-0.370356,-1.731218,-0.8458469999999999,-0.050043000000000004,-1.450145,1.958655,-1.7192900000000002
165,-0.985985,-0.852245,-2.017989,-0.548896,0.75276,-0.363406,0.64102,-0.770514,0.631933,-1.178674,0.6302810000000001,-0.48992700000000006
166,-0.978498,-0.8524520000000001,-1.9832610000000002,-0.546031,0.752897,-0.36741799999999997,0.8987569999999999,-0.628685,0.637824,0.039042,-0.298261,-0.505125
167,-0.9701639999999999,-0.852216,-1.9703080000000002,-0.543097,0.752741,-0.372057,0.00103,-0.012322,-0.07319500000000001,0.24783899999999998,-0.731668,-0.339949
168,-1.006759,-0.8539680000000001,-2.006597,-0.55523,0.753893,-0.351232,-1.7842689999999999,-0.619843,-0.843324,-0.806632,-0.478167,0.314321
169,-1.072067,-0.8636149999999999,-2.082134,-0.570554,0.760196,-0.310754,-2.458884,-0.240196,-0.627401,-1.3532440000000001,0.49196999999999996,0.38164699999999996
170,-1.119743,-0.882869,-2.142563,-0.571435,0.772564,-0.276777,-1.7733439999999998,0.217588,0.180104,0.503808,0.548435,0.412184
171,-1.119948,-0.8893709999999999,-2.167217,-0.566959,0.776676,-0.274466,-0.700669,0.840883,-0.243695,0.5877720000000001,-0.158466,0.800161
172,-1.146838,-0.8982680000000001,-2.207211,-0.567812,0.782249,-0.25627,-1.7897779999999999,-0.036319,0.02115,0.267962,-0.583565,1.018446
173,-1.217865,-0.923183,-2.294516,-0.5661,0.7975260000000001,-0.208525,-3.713993,-0.065198,0.11990899999999999,0.068725,-0.513087,0.5843189999999999
174,-1.352158,-0.9475600000000001,-2.4511,-0.569771,0.811994,-0.12659700000000002,-5.344949,-0.712721,-0.37135300000000004,0.118461,-0.503446,0.45813999999999994
175,-1.535073,-0.950311,-2.645109,-0.581058,0.813596,-0.020766,-5.507864,-1.4807709999999998,-0.49969399999999997,0.103717,-0.48324399999999995,0.385878
176,-1.6822009999999998,-0.949699,-2.793021,-0.57832,0.81324,0.064695,-3.3714449999999996,-0.9315530000000001,0.42678699999999997,-0.11752699999999999,0.11324300000000001,0.90169
177,-1.7267849999999998,-0.949398,-2.855121,-0.5751029999999999,0.8130649999999999,0.09044400000000001,-0.989655,1.073312,-0.04305,-0.070008,0.298614,0.870524
178,-1.693087,-0.9341959999999999,-2.8588139999999997,-0.590024,0.804121,0.072517,0.100511,2.065715,-1.1444530000000002,0.211927,0.498018,0.395837
179,-1.6496819999999999,-0.906876,-2.84245,-0.614291,0.787583,0.048559,0.529405,0.892257,-1.3685530000000001,0.368243,0.337845,0.0879
180,-1.6643880000000002,-0.8912120000000001,-2.833038,-0.625718,0.777834,0.058734,-0.410915,-2.727144,-0.389855,0.43090900000000004,0.13097999999999999,-0.97475
181,-1.7642520000000002,-0.892726,-2.88259,-0.615589,0.778784,0.120597,-1.908422,-2.357332,0.6001350000000001,0.352024,0.100641,-0.641487
182,-1.8220630000000002,-0.9002899999999999,-2.950427,-0.601869,0.783507,0.154495,-2.0663240000000003,1.09112,0.964218,0.13356099999999999,0.090532,0.27566599999999997
183,-1.837389,-0.906315,-3.04352,-0.594866,0.787237,0.162454,-3.10089,3.602117,1.026413,0.137484,-0.061939999999999995,0.128729
184,-1.859421,-0.9052459999999999,3.123766,-0.591949,0.7865770000000001,0.175759,-3.597204,3.150713,0.8558129999999999,0.101974,-0.101137,-0.095971
185,-1.904971,-0.8958200000000001,3.000041,-0.59031,0.780722,0.20495300000000002,-3.882,2.209914,0.6104069999999999,-0.000174,-0.054098,-0.096066
186,-1.965413,-0.875242,2.887612,-0.5915590000000001,0.767699,0.246362,-3.4209129999999996,0.786114,0.093092,-0.095559,-0.117201,-0.24657600000000002
187,-1.997512,-0.850331,2.831706,-0.600575,0.751499,0.27305300000000005,-1.323731,0.452599,-0.637451,-0.135006,-0.257129,-0.19605699999999998
188,-1.9980740000000001,-0.832882,2.823855,-0.612264,0.739873,0.27878200000000003,-0.436571,0.209292,-0.767675,0.073766,-0.007909000000000001,0.087338
189,-1.994041,-0.8113,2.819084,-0.627798,0.725183,0.282804,-0.740767,0.468898,-0.956003,0.091299,0.052298000000000004,0.130908
190,-2.002964,-0.785763,2.807264,-0.64186,0.7073649999999999,0.296056,-0.956099,-0.502699,-1.019287,0.07257000000000001,0.322741,-0.140691
191,-2.041344,-0.759686,2.793668,-0.646253,0.6886939999999999,0.32871999999999996,-1.034918,-2.01878,-0.9025270000000001,0.26225,0.324734,-0.385315
192,-2.098216,-0.738243,2.7837520000000002,-0.639139,0.6729890000000001,0.372271,-0.47876599999999997,-2.2005939999999997,-0.673014,0.294138,0.519683,-0.607088
193,-2.1026849999999997,-0.7299100000000001,2.792617,-0.6422800000000001,0.6668029999999999,0.377954,0.030189999999999998,0.155313,-0.46097,0.074821,0.363761,-0.314523
194,-2.092151,-0.718376,2.784081,-0.6528520000000001,0.658163,0.374974,-0.8579829999999999,1.1771209999999999,-0.276204,0.085332,0.39335,-0.181279
195,-2.074815,-0.707094,2.772475,-0.665714,0.6496270000000001,0.367163,-0.37805300000000003,1.124374,-0.28880700000000004,0.079197,0.533188,-0.248358
196,-2.0591369999999998,-0.70294,2.778059,-0.673766,0.646463,0.357944,0.30086599999999997,0.27823000000000003,-0.265889,0.098067,0.545828,-0.553211
197,-2.0426599999999997,-0.705816,2.794483,-0.677914,0.648655,0.345948,0.8526299999999999,0.519447,-0.061517999999999996,0.129314,0.634472,-0.580766
198,-2.003673,-0.7199760000000001,2.823118,-0.682476,0.659366,0.315377,1.5466010000000001,1.2165700000000002,0.293881,0.111919,0.784222,-0.513009
199,-1.9452490000000002,-0.746987,2.8700330000000003,-0.682897,0.679431,0.268375,2.531279,1.378722,0.713953,0.117727,0.59747,-0.5377689999999999
200,-1.863863,-0.784421,2.947074,-0.677619,0.7064159999999999,0.204475,3.66474,1.438935,0.923687,0.149756,0.383306,-0.497017
201,-1.7650439999999998,-0.8245379999999999,3.0540950000000002,-0.6661279999999999,0.734234,0.131046,4.2137199999999995,0.6296229999999999,1.172113,-0.27561399999999997,0.394977,0.21603000000000003
202,-1.6628020000000001,-0.8630459999999999,-3.107436,-0.6473760000000001,0.759826,0.05973099999999999,4.3266029999999995,0.9992280000000001,1.351889,-0.20765,0.485566,1.1879950000000001
203,-1.528657,-0.888797,-2.971875,-0.629787,0.7763140000000001,-0.026555000000000002,4.304666,1.478967,1.013563,-0.373463,0.445442,0.965794
204,-1.4205020000000002,-0.889117,-2.8538490000000003,-0.622995,0.776515,-0.09434400000000001,3.194295,0.271499,-0.025616000000000003,-1.005469,0.23161700000000002,0.44270200000000004
205,-1.385408,-0.8827149999999999,-2.784077,-0.624174,0.772466,-0.117059,1.665239,-1.746678,0.370078,-1.0080129999999998,-0.19901,-0.046546
206,-1.3540969999999999,-0.892352,-2.720898,-0.612905,0.77855,-0.134935,2.662089,1.191267,0.8582489999999999,-0.767878,-0.23419299999999998,-0.10288800000000001
207,-1.224882,-0.885143,-2.632409,-0.595672,0.7740060000000001,-0.214684,2.6063959999999997,3.096694,0.196325,-0.785111,-0.229648,-0.02314
208,-1.138103,-0.869489,-2.564286,-0.585753,0.764,-0.27055,2.22835,1.0338379999999998,0.11193800000000001,0.272963,-0.30156700000000003,0.8140069999999999
209,-1.064814,-0.85764,-2.507463,-0.572249,0.7563,-0.317081,1.745797,1.819092,0.49318900000000004,0.49824399999999996,0.001695,0.676913
210,-0.990972,-0.854676,-2.4509220000000003,-0.5491699999999999,0.754358,-0.359661,1.74272,1.137533,0.973673,0.49689300000000003,0.029699,0.567821
211,-0.926793,-0.8482649999999999,-2.380744,-0.528829,0.750134,-0.397037,2.254218,0.41830100000000003,1.1052870000000001,0.448507,0.0564,0.541446
212,-0.865051,-0.8357110000000001,-2.300151,-0.510451,0.7417729999999999,-0.434985,2.5988759999999997,-0.156526,1.2334129999999999,0.282042,-0.036482,0.7022579999999999
213,-0.8149069999999999,-0.815932,-2.2179290000000003,-0.498586,0.7283649999999999,-0.469997,2.772182,-0.724126,1.0355940000000001,0.114095,-0.402681,0.8247479999999999
214,-0.785502,-0.79484,-2.148935,-0.49530799999999997,0.713751,-0.49520600000000004,2.15849,-1.191056,0.853512,0.060646000000000005,-0.653998,0.937924
215,-0.780942,-0.7815979999999999,-2.099564,-0.499655,0.704414,-0.504128,1.47268,-1.7569759999999999,0.713783,0.073477,-0.765892,0.933724
216,-0.797925,-0.775201,-2.068987,-0.511359,0.69986,-0.49870600000000004,0.6782229999999999,-1.966084,0.415808,0.25211300000000003,-0.793991,0.8716459999999999
217,-0.8312139999999999,-0.778219,-2.062694,-0.526112,0.702012,-0.479984,-0.360137,-1.797427,0.164785,0.37691199999999997,-0.701707,0.53513
218,-0.883763,-0.794726,-2.086404,-0.541563,0.713672,-0.44427700000000003,-1.659431,-1.887187,0.028706,0.352598,-0.079318,-0.6757489999999999
219,-0.961363,-0.819064,-2.1376939999999998,-0.559963,0.730507,-0.390897,-2.298075,-2.001302,-0.183912,0.081951,0.355675,-1.482501
220,-1.016364,-0.838391,-2.187116,-0.5684939999999999,0.743568,-0.352023,-1.332868,-0.408789,0.063275,-1.442034,1.733025,-1.487592
221,-1.027056,-0.842088,-2.166067,-0.569869,0.746035,-0.3445,1.140558,-2.050959,0.726795,-0.6542520000000001,0.8410770000000001,-0.766111
222,-1.039116,-0.8482200000000001,-2.127368,-0.570029,0.750104,-0.335277,0.68057,-1.618845,0.9559,-0.027689,-0.194074,-0.452
223,-1.048306,-0.854728,-2.1229310000000003,-0.568843,0.754393,-0.327581,-0.495041,-0.118795,-0.189754,-0.42380200000000007,-0.46913,-0.16955
224,-1.085412,-0.849634,-2.173465,-0.5839949999999999,0.751039,-0.308042,-1.743123,0.238358,-1.308812,-1.515187,0.092879,0.130857
225,-1.099313,-0.850555,-2.215582,-0.587604,0.7516470000000001,-0.29958,-1.044126,0.44342700000000007,-0.185764,-0.7447020000000001,0.6868449999999999,0.440724
226,-1.112925,-0.855657,-2.24438,-0.58818,0.7550020000000001,-0.28985500000000003,-1.0521120000000002,0.7780520000000001,-0.210817,0.016738999999999997,-0.077359,1.071914
227,-1.146795,-0.868334,-2.3015779999999997,-0.5888869999999999,0.763254,-0.265812,-2.537764,0.170746,-0.23003,0.405553,-0.681879,0.909443
228,-1.230056,-0.889798,-2.407786,-0.5933729999999999,0.776945,-0.210392,-4.104479,-0.0577,-0.350708,0.42200200000000004,-0.312849,0.946629
229,-1.358537,-0.904692,-2.562926,-0.60406,0.786235,-0.130178,-5.284239,-0.653827,-0.766246,0.289576,-0.333827,0.795233
230,-1.5165629999999999,-0.9068930000000001,-2.7348779999999997,-0.61529,0.787593,-0.033402,-4.876857,-1.36572,-0.248673,-0.06403099999999999,-0.005427,0.905473
231,-1.6146120000000002,-0.9126190000000001,-2.8401419999999997,-0.611089,0.791108,0.026792000000000003,-2.115681,-0.065236,0.341514,0.085256,0.37956100000000004,1.131548
232,-1.618693,-0.9081319999999999,-2.864935,-0.614514,0.7883560000000001,0.029456,-0.213729,1.0929440000000001,-0.5632189999999999,0.243054,0.424962,0.902444
233,-1.5891620000000002,-0.885192,-2.858977,-0.633034,0.774037,0.011628,0.21926199999999998,1.14709,-1.424456,0.303215,0.5247,0.286254
234,-1.5825049999999998,-0.8569,-2.8600220000000003,-0.654738,0.7558159999999999,0.007666,-0.43061499999999997,-0.323752,-1.2038520000000001,0.215056,0.272519,-0.562613
235,-1.65315,-0.849865,-2.900827,-0.6578470000000001,0.7511909999999999,0.054299,-1.593767,-2.548524,0.188109,0.270152,0.10476600000000001,-0.242943
236,-1.7293020000000001,-0.855359,-2.9417020000000003,-0.647724,0.7548060000000001,0.10353599999999999,-0.995591,-2.06402,0.517474,0.240971,0.07986499999999999,-0.15032
237,-1.784102,-0.8658469999999999,-2.966341,-0.633309,0.761644,0.137175,-0.669004,-1.525107,0.795734,0.130151,-0.102007,0.01584
238,-1.8215869999999998,-0.8788459999999999,-3.01512,-0.618079,0.770003,0.158343,-2.019592,1.168221,1.089429,0.163779,-0.213729,0.359892
239,-1.8533490000000001,-0.882757,-3.11833,-0.609842,0.772493,0.17705,-3.589397,2.647337,0.990042,0.11033,-0.187059,0.119154
240,-1.900093,-0.8746440000000001,3.0384279999999997,-0.606813,0.767315,0.20737199999999997,-4.119297,2.4415270000000002,0.703525,-0.0069099999999999995,-0.087902,0.085994
241,-1.953026,-0.853165,2.916798,-0.6101449999999999,0.753365,0.245279,-3.935678,1.6400419999999998,0.11190399999999999,-0.24755100000000002,-0.150948,-0.416192
242,-1.974909,-0.824543,2.848424,-0.624208,0.7342380000000001,0.266942,-1.710861,1.200695,-0.63684,-0.19001700000000002,-0.257767,-0.6434989999999999
243,-1.9817790000000002,-0.804483,2.833857,-0.635736,0.720472,0.277053,-0.589892,-0.216205,-0.788496,0.057701999999999996,-0.013349000000000001,-0.11855999999999998
244,-1.9813419999999997,-0.784141,2.82785,-0.649162,0.706217,0.282568,-0.685906,0.6378060000000001,-0.886401,0.04203,0.351736,0.141123
245,-1.9777310000000001,-0.759556,2.8175630000000003,-0.665924,0.688599,0.287008,-0.860334,0.152113,-1.019456,0.062668,0.431625,-0.065969
246,-2.010638,-0.7352529999999999,2.805016,-0.671068,0.670775,0.315796,-0.955799,-2.164155,-0.847308,0.34749,0.399858,-0.49025
247,-2.066119,-0.717438,2.79852,-0.662933,0.657456,0.358146,-0.116526,-1.7441669999999998,-0.577064,0.276443,0.580871,-0.616935
248,-2.059279,-0.712151,2.809856,-0.668428,0.653463,0.35523000000000005,0.058787,0.441387,-0.364996,0.095582,0.452539,-0.382299
249,-2.04886,-0.701673,2.799492,-0.678135,0.645496,0.351377,-0.797679,1.104307,-0.235096,0.121922,0.479016,-0.24613800000000002
250,-2.028909,-0.694433,2.795464,-0.689184,0.63995,0.339837,0.123841,0.994764,-0.27979299999999996,0.20778400000000002,0.642811,-0.42846000000000006
251,-2.004083,-0.6971890000000001,2.8153259999999998,-0.695804,0.642066,0.321882,1.071151,0.43893999999999994,-0.098344,0.274066,0.8493440000000001,-0.574858
252,-1.96748,-0.714126,2.8520220000000003,-0.696987,0.654957,0.29196,1.975543,0.8630899999999999,0.40629,0.164852,0.8857229999999999,-0.48483100000000007
253,-1.9112630000000002,-0.7469210000000001,2.910012,-0.6916640000000001,0.6793819999999999,0.245031,2.995869,0.75093,0.9295120000000001,-0.021166,0.6602319999999999,-0.483754
254,-1.8313439999999999,-0.788643,3.0006169999999996,-0.68102,0.709397,0.181565,4.170501,1.08413,1.034498,-0.137782,0.25215,-0.57248
255,-1.722805,-0.828699,3.119895,-0.668041,0.737053,0.102337,4.433401,0.916193,1.244853,-0.318729,0.38451399999999997,0.425861
256,-1.60123,-0.8660709999999999,-3.0378380000000003,-0.647524,0.761789,0.019712999999999998,4.266607,1.828588,1.5255969999999999,-0.294767,0.599539,1.096819
257,-1.465622,-0.8885799999999999,-2.904904,-0.627031,0.776177,-0.066192,4.086384,1.344408,1.01969,-0.760436,0.5492779999999999,0.679275
258,-1.371238,-0.883541,-2.798435,-0.621827,0.77299,-0.12576400000000001,2.8169880000000003,0.070596,-0.073926,-0.953765,0.403188,0.5902270000000001
259,-1.35054,-0.882648,-2.739016,-0.619764,0.772423,-0.138758,1.308072,-2.182984,0.830683,-1.0898459999999999,-0.385171,-0.105733
260,-1.300942,-0.894192,-2.661728,-0.603488,0.7797029999999999,-0.166926,3.08269,1.603707,0.981368,-0.764432,-0.376734,0.150858
261,-1.171797,-0.8816350000000001,-2.560746,-0.58594,0.77178,-0.24704099999999998,3.1860150000000003,2.1648810000000003,0.150294,-0.152051,-0.323141,0.498277
262,-1.0887209999999998,-0.8553360000000001,-2.475676,-0.5812069999999999,0.754791,-0.304118,2.768477,0.745853,0.000711,0.445709,-0.210434,0.6696880000000001
263,-1.018257,-0.8425450000000001,-2.413072,-0.566525,0.7463390000000001,-0.34932199999999997,1.774725,1.400333,0.760983,0.492917,0.031401,0.54761
264,-0.951833,-0.8382,-2.352606,-0.544726,0.74344,-0.388033,1.975387,0.714742,1.0078850000000001,0.502901,-0.006059,0.606737
265,-0.891858,-0.8268979999999999,-2.278659,-0.526994,0.735835,-0.425234,2.496139,0.071451,1.0550760000000001,0.475404,0.019018,0.6463800000000001
266,-0.837643,-0.807816,-2.200625,-0.513517,0.72278,-0.46248,2.707203,-0.27415900000000004,0.987559,0.177076,-0.404985,0.837313
267,-0.7952859999999999,-0.786641,-2.1274040000000003,-0.5042909999999999,0.7079850000000001,-0.49441599999999997,2.3985950000000003,-0.6233569999999999,0.935644,0.145008,-0.48149899999999995,0.909485
268,-0.777738,-0.772335,-2.075354,-0.502594,0.69781,-0.510354,1.4772530000000001,-1.195663,0.732321,0.0728,-0.725535,0.942147
269,-0.786668,-0.767008,-2.044698,-0.5097550000000001,0.693984,-0.508463,0.646026,-1.664922,0.522018,0.10831199999999999,-0.872482,0.8941290000000001
270,-0.816051,-0.771269,-2.035255,-0.522315,0.697046,-0.491237,-0.242335,-1.8227900000000001,0.278869,0.184943,-0.8487180000000001,0.748149
271,-0.862657,-0.784303,-2.0525580000000003,-0.537687,0.706332,-0.46042,-1.361589,-1.645195,-0.0058460000000000005,0.276091,-0.79465,0.5627
272,-0.932743,-0.809829,-2.1008419999999997,-0.553944,0.724169,-0.410762,-2.498308,-2.0426279999999997,-0.064551,0.171192,0.167707,-1.357259
273,-1.037983,-0.835455,-2.170388,-0.57785,0.7416020000000001,-0.34075900000000003,-2.489204,-2.529044,-0.442015,-0.35135,0.899741,-1.7551580000000002
274,-1.071423,-0.845504,-2.19149,-0.5823470000000001,0.748305,-0.317664,0.382536,-0.713646,0.753967,-1.717625,2.398835,-1.412652
275,-1.061914,-0.8500969999999999,-2.136927,-0.576292,0.7513449999999999,-0.321509,1.7778740000000002,-1.810807,1.124042,-0.358156,0.422911,-0.355752
276,-1.0401850000000001,-0.854618,-2.0891029999999997,-0.566235,0.75432,-0.332232,0.705246,-0.118246,0.762936,0.004543999999999999,-0.602755,-0.37753000000000003
277,-1.038914,-0.860819,-2.097196,-0.561771,0.7583770000000001,-0.330573,-1.081038,0.594496,-0.368883,-0.372174,-0.8256979999999999,0.072531
278,-1.0919159999999999,-0.868066,-2.17501,-0.5736020000000001,0.76308,-0.297808,-3.0326310000000003,-0.544619,-0.989942,-1.085975,-0.644825,0.626024
279,-1.177361,-0.8782139999999999,-2.2649310000000002,-0.589742,0.769599,-0.244788,-2.382555,-0.301371,-0.579789,-0.9649760000000001,0.41092700000000004,0.653281
280,-1.187862,-0.878218,-2.301663,-0.592276,0.7696029999999999,-0.23858000000000001,-0.696937,0.684318,-0.520139,0.61022,0.213689,0.786065
281,-1.234132,-0.877918,-2.3523549999999998,-0.602896,0.76941,-0.211006,-2.044061,-0.575809,-0.44140799999999997,0.609137,-0.177125,1.215492
282,-1.309916,-0.8948530000000001,-2.44328,-0.604463,0.7801170000000001,-0.16137,-3.5801489999999996,-0.197746,0.117808,0.247362,-0.44956599999999997,0.893349
283,-1.43201,-0.9137569999999999,-2.58621,-0.604902,0.791804,-0.084495,-4.99517,-0.688503,-0.070908,0.10687100000000001,-0.324625,0.696617
284,-1.575512,-0.921783,-2.74686,-0.604394,0.79668,0.00285,-4.511756,-0.747157,0.324581,0.028985000000000004,-0.234882,0.773471
285,-1.6600099999999998,-0.9313459999999999,-2.854458,-0.594381,0.802424,0.05316799999999999,-2.358784,0.728096,0.627217,0.109883,0.1592,0.945291
286,-1.661068,-0.927479,-2.8939529999999998,-0.59741,0.80011,0.054076,-0.59345,1.8430900000000001,-0.547607,0.15708699999999998,0.348693,0.542771
287,-1.6261459999999999,-0.906468,-2.892784,-0.615586,0.787331,0.034108,0.20009100000000002,1.3413540000000002,-1.236834,0.20568899999999998,0.35244000000000003,0.376934
288,-1.6127559999999999,-0.888023,-2.873223,-0.630391,0.775826,0.026466000000000003,0.68819,-1.031916,-0.636452,0.274144,0.26610500000000004,0.130592
289,-1.6731470000000002,-0.887971,-2.8708549999999997,-0.627684,0.7757930000000001,0.064469,-0.705141,-4.716106,0.42035,0.314223,-0.0203,-0.578263
290,-1.823784,-0.895727,-2.943359,-0.605057,0.780664,0.156424,-2.688789,-3.329557,0.9174629999999999,0.225083,-0.021234,-0.22698000000000002
291,-1.8904509999999999,-0.9002180000000001,-3.0366470000000003,-0.589958,0.783462,0.19528,-2.696827,2.2239310000000003,1.13889,0.097054,-0.09353600000000001,0.258425
292,-1.894866,-0.9016350000000001,-3.138281,-0.588037,0.784342,0.197529,-3.140389,3.995649,0.949788,-0.043905,-0.09727000000000001,-0.242497
293,-1.9269459999999998,-0.8916219999999999,3.034318,-0.588731,0.778092,0.219016,-3.6267160000000005,1.9239950000000001,0.496119,-0.13655,-0.091553,-0.268301
294,-1.980633,-0.868973,2.930943,-0.592145,0.763666,0.25725,-3.133559,1.232966,-0.014434,-0.20616500000000001,-0.07335900000000001,-0.297808
295,-2.002732,-0.846126,2.866041,-0.602007,0.748718,0.277504,-2.105757,1.3134540000000001,-0.254117,0.050142,0.041687,-0.174523
296,-2.014378,-0.822382,2.82085,-0.6146199999999999,0.732769,0.292045,-1.745339,1.043598,-0.480921,0.182903,0.020817,0.07447100000000001
297,-2.012739,-0.80042,2.786316,-0.629496,0.717649,0.29785,-1.459143,1.534933,-0.523349,0.105128,0.106906,0.077166
298,-2.005202,-0.775746,2.759635,-0.6475920000000001,0.700249,0.30045900000000003,-1.3044930000000001,0.9519700000000001,-0.85908,0.026864999999999997,0.288536,-0.12983599999999998
299,-2.020559,-0.7489520000000001,2.7442599999999997,-0.659565,0.680871,0.318414,-0.9286719999999999,-0.9972799999999999,-0.969325,0.229969,0.337363,-0.35454600000000003
300,-2.07249,-0.7247180000000001,2.7348689999999998,-0.656425,0.662924,0.360052,-0.856943,-3.011173,-0.9010809999999999,0.5485300000000001,0.436594,-0.625997
301,-2.110195,-0.710307,2.738085,-0.650516,0.652067,0.389407,0.22415,-0.700391,-0.556796,0.34141900000000003,0.724291,-0.5297569999999999
302,-2.100149,-0.7056399999999999,2.746105,-0.657015,0.648521,0.384385,-0.127582,0.43608199999999997,-0.208196,-0.00037999999999999997,0.46051800000000004,-0.224931
303,-2.09092,-0.700421,2.73794,-0.663462,0.64454,0.37998200000000004,-0.36425100000000005,0.873028,-0.049108,-0.070745,0.479178,-0.299599
304,-2.072522,-0.700924,2.7438599999999997,-0.670056,0.6449239999999999,0.367556,0.596971,0.5588850000000001,-0.111426,-0.10606700000000001,0.493381,-0.573778
305,-2.042697,-0.710224,2.771019,-0.675347,0.652004,0.34467,1.4212930000000001,0.835677,0.017891,0.08240499999999999,0.683247,-0.656208
306,-1.9813490000000002,-0.732116,2.8139060000000002,-0.681955,0.668445,0.29684699999999997,2.217735,2.159323,0.5152770000000001,0.196893,0.746396,-0.559496
307,-1.898522,-0.768374,2.872809,-0.680772,0.694967,0.23145300000000002,2.986414,1.951718,1.149027,0.13383599999999998,0.699183,-0.497978
308,-1.798456,-0.815094,2.96611,-0.668104,0.7277899999999999,0.154784,4.234927,1.3400889999999999,1.4384059999999999,-0.198168,0.419976,-0.013502000000000002
309,-1.696453,-0.860792,3.08997,-0.646698,0.758359,0.081692,4.480913,0.345095,1.498014,-0.219574,0.389407,0.059588999999999996
310,-1.566106,-0.8937,-3.055593,-0.626526,0.779395,-0.002938,4.549608,1.634752,1.2703790000000001,-0.34494,0.49326400000000004,0.9932190000000001
311,-1.4231850000000001,-0.904485,-2.913042,-0.6113689999999999,0.786107,-0.090906,4.087608,1.309317,0.471743,-0.894826,0.5552020000000001,0.641977
312,-1.3398450000000002,-0.889501,-2.816494,-0.613078,0.7767569999999999,-0.144163,2.471696,-0.26621300000000003,-0.260711,-1.129964,0.10338499999999999,0.383726
313,-1.3330799999999998,-0.891523,-2.7653529999999997,-0.610561,0.778029,-0.14793800000000001,1.134218,-2.271348,0.968449,-0.829457,-0.143111,-0.23942199999999997
314,-1.24678,-0.8957649999999999,-2.687617,-0.592403,0.780687,-0.19896,2.67348,3.201498,0.5694670000000001,-0.625233,-0.183474,0.022401
315,-1.129246,-0.8812760000000001,-2.615652,-0.575152,0.771551,-0.271861,2.270207,2.212148,0.047693,-0.22563000000000002,-0.37892800000000004,0.47908999999999996
316,-1.055995,-0.8623219999999999,-2.5535229999999998,-0.566342,0.759356,-0.320368,2.046927,1.2974459999999999,0.148787,0.309689,-0.19861099999999998,0.945688
317,-0.982615,-0.849411,-2.494025,-0.549441,0.750892,-0.36643600000000004,2.087811,1.218361,0.708922,0.571124,0.08338200000000001,0.754009
318,-0.9217059999999999,-0.8349260000000001,-2.424442,-0.534726,0.741247,-0.40573400000000004,2.463116,0.008905,0.741935,0.544248,0.010034999999999999,0.619708
319,-0.8742129999999999,-0.815264,-2.3502240000000003,-0.52594,0.727907,-0.43993000000000004,2.592765,-0.456503,0.866283,0.387375,-0.009538,0.6801189999999999
320,-0.833132,-0.7947270000000001,-2.2787330000000003,-0.5183840000000001,0.713672,-0.471116,2.497503,-0.581646,0.8091619999999999,0.24114699999999997,-0.199481,0.790207
321,-0.8067350000000001,-0.774673,-2.21917,-0.516,0.6994819999999999,-0.494437,1.937877,-0.8401620000000001,0.675261,0.137017,-0.48674399999999995,0.952308
322,-0.8008390000000001,-0.7639319999999999,-2.17746,-0.51844,0.691766,-0.502672,1.215483,-1.397745,0.613246,0.093681,-0.772225,0.9675
323,-0.814787,-0.759667,-2.1525630000000002,-0.527542,0.6886800000000001,-0.497411,0.5571520000000001,-1.6437869999999999,0.37609000000000004,0.19548,-0.868459,0.991445
324,-0.844881,-0.761885,-2.1479630000000003,-0.541126,0.690286,-0.48029799999999995,-0.33763200000000004,-1.618208,0.083524,0.329472,-0.842783,0.7489899999999999
325,-0.9002180000000001,-0.777407,-2.174389,-0.5584,0.701434,-0.442921,-1.7701689999999999,-2.151742,-0.048644,0.42867,-0.276919,-0.0294
326,-0.9993190000000001,-0.79874,-2.231137,-0.586761,0.716478,-0.377319,-2.410192,-3.3066489999999997,-0.521652,0.188049,0.0287,-0.6452180000000001
327,-1.086689,-0.806361,-2.284582,-0.612596,0.721773,-0.32213,-1.004808,-0.928176,-0.336491,-1.228682,1.3545049999999998,-1.8462509999999999
328,-1.070689,-0.815601,-2.251072,-0.601486,0.7281380000000001,-0.328677,1.560408,-1.29329,1.3643450000000001,-0.345398,0.72749,-0.546231
329,-1.058649,-0.824101,-2.187364,-0.592069,0.733937,-0.33285,1.517307,-1.328533,1.42391,0.182919,-0.5311939999999999,-0.2898
330,-1.044565,-0.838432,-2.157614,-0.578167,0.743596,-0.335837,-0.16583499999999998,0.060353,0.8111,0.27769099999999997,-0.930241,-0.235558
331,-1.060072,-0.849351,-2.190467,-0.576187,0.7508520000000001,-0.322844,-1.867952,0.8913120000000001,-0.6524989999999999,-0.52182,-0.578595,0.40405100000000005
332,-1.131184,-0.858467,-2.284863,-0.5914510000000001,0.756842,-0.278163,-3.3357370000000004,-0.8225969999999999,-1.007728,-1.155131,0.551676,0.427104
333,-1.190693,-0.8654459999999999,-2.360586,-0.602028,0.7613840000000001,-0.24053000000000002,-1.277843,1.040032,-0.52679,-0.30199499999999996,1.081053,0.139715
334,-1.163721,-0.8576,-2.3609430000000002,-0.600789,0.756274,-0.259036,0.278077,0.69791,-0.23560999999999999,0.364446,-0.25606100000000004,0.97188
335,-1.186012,-0.8607100000000001,-2.38159,-0.60423,0.758305,-0.244696,-1.411834,-0.722471,-0.010584999999999999,0.178342,-0.514439,0.799185
336,-1.2624819999999999,-0.88094,-2.455515,-0.606414,0.771338,-0.193125,-3.221452,-1.047159,0.170539,0.266982,-0.507238,0.667948
337,-1.379807,-0.8996200000000001,-2.578366,-0.6105970000000001,0.783091,-0.118057,-4.258268,-1.134735,-0.206196,0.154115,-0.298655,0.6853779999999999
338,-1.5039,-0.908891,-2.7024310000000002,-0.613243,0.7888229999999999,-0.041085,-3.329879,-1.418623,0.18521300000000002,-0.057045000000000005,0.111919,0.9863360000000001
339,-1.568423,-0.915725,-2.762577,-0.609211,0.7930050000000001,-0.001446,-0.919085,-0.33398,0.17823,0.079945,0.423792,0.956692
340,-1.55359,-0.909292,-2.7560700000000002,-0.614211,0.7890689999999999,-0.010569,0.618,0.8997459999999999,-0.654373,0.218352,0.499246,0.580012
341,-1.519121,-0.8875190000000001,-2.738322,-0.630492,0.775508,-0.03261,0.444427,0.89512,-1.211055,0.31490999999999997,0.313069,0.18773099999999998
342,-1.527374,-0.8702979999999999,-2.736653,-0.643988,0.764521,-0.027981,-0.230567,-2.015059,-0.399124,0.268301,-0.022105,-0.7173039999999999
343,-1.649371,-0.878166,-2.7768490000000003,-0.63659,0.769569,0.050123,-1.8137740000000002,-4.913748,0.7237100000000001,0.234185,-0.049186,-0.16300699999999999
344,-1.7512619999999999,-0.8910399999999999,-2.841377,-0.618392,0.777726,0.112826,-1.864841,-0.986181,1.060152,0.088683,-0.082505,0.226117
345,-1.790097,-0.9066799999999999,-2.912925,-0.601599,0.787461,0.13408699999999998,-2.2825599999999997,1.6671349999999998,1.2268860000000001,0.120306,-0.16555899999999998,0.196677
346,-1.8263740000000002,-0.913897,-3.015502,-0.590825,0.79189,0.154378,-3.4273860000000003,2.397414,1.0128549999999998,0.057865999999999994,-0.15215,0.095118
347,-1.887134,-0.905272,3.132605,-0.58683,0.786593,0.19208699999999998,-4.376151,2.117044,0.554729,-0.093956,-0.1225,-0.060280999999999994
348,-1.931539,-0.879659,3.014295,-0.596384,0.770521,0.224987,-3.212613,2.963727,-0.39962800000000004,-0.355383,-0.267531,-0.583645
349,-1.9226619999999999,-0.8532709999999999,2.965089,-0.6172340000000001,0.7534350000000001,0.22661399999999998,-1.439343,1.276622,-0.677773,0.0029,-0.09041,-0.461477
350,-1.9354060000000002,-0.8342620000000001,2.938319,-0.6275649999999999,0.740801,0.239525,-1.1121940000000001,0.370542,-0.54614,0.208375,0.106397,0.26964499999999997
351,-1.9315069999999999,-0.813898,2.90932,-0.642478,0.726969,0.242352,-1.421499,1.713214,-0.6504340000000001,0.171759,0.147374,0.262424
352,-1.92428,-0.789334,2.877845,-0.6607689999999999,0.709885,0.243812,-1.3925969999999999,1.069388,-0.8416870000000001,0.067569,0.253281,0.014672
353,-1.9448029999999998,-0.765282,2.854311,-0.671329,0.6927399999999999,0.263484,-1.112171,-1.0336610000000002,-0.7697350000000001,0.20413599999999998,0.267633,-0.243952
354,-2.0068580000000003,-0.745464,2.836004,-0.6660119999999999,0.678313,0.310347,-0.9289069999999999,-3.284873,-0.59145,0.264798,0.339753,-0.412184
355,-2.069651,-0.73248,2.830875,-0.6529050000000001,0.668715,0.355713,0.08451900000000001,-1.739025,-0.43786899999999995,0.007259000000000001,0.5554060000000001,-0.5119020000000001
356,-2.060161,-0.728712,2.839419,-0.65847,0.665909,0.35068299999999997,-0.148098,0.815558,-0.24941999999999998,0.039894,0.471862,-0.293539
357,-2.0430580000000003,-0.719779,2.8287720000000003,-0.6696409999999999,0.659219,0.342062,-0.5444319999999999,1.222618,-0.203571,0.101236,0.5737220000000001,-0.200232
358,-2.027645,-0.715753,2.829494,-0.6772100000000001,0.6561859999999999,0.332869,0.23280599999999999,0.415538,-0.17787999999999998,0.100229,0.560153,-0.43814
359,-2.008518,-0.719838,2.847075,-0.68102,0.659262,0.31871700000000003,0.9700559999999999,0.574277,-0.021246,0.121175,0.711206,-0.545737
360,-1.964352,-0.735302,2.881704,-0.684929,0.6708109999999999,0.284394,1.817827,1.3049680000000001,0.330911,0.139016,0.8298760000000001,-0.501786
361,-1.900538,-0.764324,2.936111,-0.682959,0.69205,0.233733,2.754116,1.227271,0.833206,0.065466,0.752271,-0.623107
362,-1.8118400000000001,-0.803443,3.028479,-0.67416,0.71975,0.165725,4.262084,1.2352809999999999,0.9858020000000001,0.005932,0.350089,-0.695998
363,-1.6975639999999999,-0.841384,-3.126093,-0.661081,0.745566,0.084256,4.665179,0.669586,1.17735,-0.165365,0.152429,-0.10685399999999999
364,-1.575925,-0.873974,-2.991979,-0.6417729999999999,0.766885,0.0032920000000000002,4.354,1.63087,1.346992,-0.21049099999999998,0.41550299999999996,1.263584
365,-1.43156,-0.8925559999999999,-2.861328,-0.6213489999999999,0.778678,-0.087077,3.9040779999999997,2.13105,1.063334,-0.523015,0.490075,0.907222
366,-1.324008,-0.889274,-2.759407,-0.6108859999999999,0.776614,-0.153897,2.558206,0.808049,0.082478,-1.01332,0.38869899999999996,0.588437
367,-1.301097,-0.8850969999999999,-2.712605,-0.610322,0.773977,-0.168714,0.9301290000000001,-1.6444,0.473764,-1.0897059999999998,-0.032369,0.103055
368,-1.268317,-0.891864,-2.6543400000000004,-0.5994510000000001,0.7782439999999999,-0.18706099999999998,2.745816,1.431122,0.746356,-0.6146149999999999,-0.202896,0.038487
369,-1.140148,-0.876667,-2.5562669999999996,-0.5813050000000001,0.7686109999999999,-0.26705500000000004,3.299156,2.269588,0.243878,-0.28724099999999997,-0.195995,0.326778
370,-1.056725,-0.850641,-2.4654279999999997,-0.574258,0.751704,-0.324293,2.9990099999999997,0.28074699999999997,0.23044299999999998,0.43207700000000004,0.002081,0.726011
371,-0.985188,-0.8328540000000001,-2.392764,-0.560666,0.739854,-0.371842,2.265459,1.306302,0.675863,0.39710700000000004,0.029432999999999997,0.633774
372,-0.909432,-0.821459,-2.3313490000000003,-0.5375340000000001,0.73214,-0.41836,1.9899209999999998,1.363241,0.794574,0.48348800000000003,-0.10694200000000001,0.629129
373,-0.848735,-0.805599,-2.263636,-0.519816,0.721246,-0.457813,2.532421,0.16247999999999999,0.9056559999999999,0.42205299999999996,-0.154122,0.719532
374,-0.798906,-0.7811899999999999,-2.189597,-0.508835,0.704125,-0.495271,2.819532,-0.327316,0.865561,0.299347,-0.30291,0.830918
375,-0.760361,-0.754273,-2.116625,-0.502254,0.684759,-0.5280560000000001,2.7520330000000004,-0.76213,0.9692639999999999,0.196987,-0.45574,0.879878
376,-0.738114,-0.7315229999999999,-2.053788,-0.500738,0.668004,-0.5504819999999999,2.1114189999999997,-1.186748,0.885216,0.159323,-0.658284,0.8702290000000001
377,-0.739378,-0.719075,-2.009684,-0.506998,0.6586890000000001,-0.555949,1.264758,-1.699898,0.742159,0.09794,-0.7582220000000001,0.8687090000000001
378,-0.759571,-0.716383,-1.9818650000000002,-0.519339,0.6566609999999999,-0.546883,0.5541149999999999,-2.080429,0.6159060000000001,0.162497,-0.710112,0.655938
379,-0.7982640000000001,-0.721619,-1.973425,-0.537636,0.660601,-0.523977,-0.355128,-2.205987,0.303136,0.360741,-0.591295,0.165639
380,-0.8576729999999999,-0.742434,-1.995464,-0.557276,0.676084,-0.482029,-1.87258,-2.408975,0.166747,0.268991,-0.157727,-1.0025899999999999
381,-0.9388059999999999,-0.765662,-2.042061,-0.581678,0.693014,-0.425886,-1.9018849999999998,-2.111612,-0.377564,-0.580263,1.080378,-1.207873
382,-0.9715360000000001,-0.780237,-2.0638520000000002,-0.586899,0.703448,-0.400883,-0.34645,-0.407083,0.6480640000000001,-1.67282,1.2177559999999998,-0.67477
383,-0.957794,-0.7834949999999999,-2.032713,-0.579458,0.705759,-0.407589,1.135553,-0.594528,0.684293,-0.391947,0.044149,-0.5026430000000001
384,-0.9440959999999999,-0.782423,-2.004604,-0.574433,0.705,-0.41593199999999997,0.551581,-0.027763999999999997,0.382522,0.207932,-0.420317,-0.516029
385,-0.937831,-0.782334,-1.999591,-0.571866,0.704937,-0.419559,-0.068432,0.252971,-0.020615,0.06138300000000001,-0.699062,-0.05325
386,-0.947202,-0.7881560000000001,-2.023975,-0.5724319999999999,0.709054,-0.411778,-1.614408,0.27823400000000004,-0.46834899999999996,-0.664903,-0.44851,0.584019
387,-1.036327,-0.807864,-2.101901,-0.594668,0.722813,-0.352006,-3.2600439999999997,-2.407168,-0.679365,-0.992917,-0.173405,0.7393810000000001
388,-1.074124,-0.823881,-2.159491,-0.5972890000000001,0.733788,-0.32372399999999996,-1.0265799999999998,1.921239,-0.000604,-0.360078,1.715858,-0.27176500000000003
389,-1.069404,-0.8224090000000001,-2.169005,-0.596701,0.732787,-0.327059,-0.4276,-0.812381,-0.22258499999999998,0.43692600000000004,-0.23200900000000002,1.1874870000000002
390,-1.1165459999999998,-0.8420559999999999,-2.2043060000000003,-0.598396,0.7460140000000001,-0.292202,-2.101518,-0.575976,0.716137,0.289894,-0.502941,1.000652
391,-1.167289,-0.88133,-2.276997,-0.585036,0.7715850000000001,-0.249771,-3.4663410000000003,0.513382,0.672093,0.203978,-0.446741,0.644089
392,-1.257185,-0.914802,-2.403541,-0.580195,0.792442,-0.188165,-4.788704,0.290157,-0.165798,0.164606,-0.47414399999999995,0.558343
393,-1.408842,-0.925483,-2.5804270000000002,-0.593575,0.7989109999999999,-0.096982,-5.437931,-1.106271,-0.970778,0.095513,-0.463325,0.535764
394,-1.566007,-0.924761,-2.733905,-0.602015,0.798477,-0.0028829999999999997,-3.8644199999999995,-1.8368330000000002,0.006822,-0.064596,-0.244583,0.672896
395,-1.6410169999999997,-0.928861,-2.812598,-0.597267,0.8009390000000001,0.042010000000000006,-1.481123,0.271663,0.258981,-0.12750999999999998,0.543956,0.922529
396,-1.627918,-0.9217629999999999,-2.828417,-0.603427,0.796669,0.034506,-0.084239,1.728077,-0.729779,0.12526199999999998,0.499596,0.515237
397,-1.588241,-0.8982030000000001,-2.8206,-0.6229180000000001,0.782209,0.010868000000000001,0.33719299999999996,1.395481,-1.3032489999999999,0.269875,0.400851,0.326764
398,-1.589882,-0.8798239999999999,-2.817987,-0.637167,0.7706270000000001,0.012162000000000001,-0.436179,-1.8476029999999999,-0.537512,0.335181,0.13705799999999999,-0.43211499999999997
399,-1.687466,-0.882545,-2.861811,-0.630866,0.772358,0.073939,-1.813462,-3.086225,0.581429,0.328879,0.135327,-0.49389099999999997
400,-1.768521,-0.894177,-2.934996,-0.6139560000000001,0.779694,0.123001,-2.423727,0.089214,1.146733,0.22175999999999998,0.056396,0.339767
401,-1.808864,-0.9050379999999999,-3.045459,-0.6002310000000001,0.7864479999999999,0.14565799999999998,-3.7546160000000004,3.4276769999999996,1.262413,0.21378699999999998,-0.174556,0.110949
402,-1.838974,-0.90464,3.096812,-0.5958760000000001,0.786203,0.163745,-4.383779,4.1225309999999995,0.935593,0.150792,-0.173654,0.031522
403,-1.8764450000000001,-0.890705,2.9549630000000002,-0.599713,0.777515,0.18923099999999998,-4.396876,3.211021,0.32350999999999996,-0.043811,-0.0844,-0.131248
404,-1.9345419999999998,-0.862192,2.839258,-0.608191,0.759271,0.23152899999999998,-3.392421,0.417471,-0.44676400000000005,-0.289102,-0.220086,-0.785774
405,-1.9621650000000002,-0.837549,2.808257,-0.618675,0.743005,0.2553,-0.5246609999999999,-0.496278,-0.865669,-0.212761,-0.22513699999999998,-0.640371
406,-1.968673,-0.816665,2.809085,-0.63117,0.728867,0.265277,-0.484368,0.015498,-1.0113219999999998,0.127493,0.16981500000000002,0.240629
407,-1.960279,-0.793615,2.801142,-0.6487470000000001,0.712893,0.266278,-0.765884,0.8321879999999999,-0.939559,0.14465799999999998,0.358732,0.007663
408,-1.96983,-0.769785,2.7900080000000003,-0.661643,0.6959810000000001,0.278985,-0.8888799999999999,-0.8804139999999999,-0.923269,0.169913,0.449771,-0.208749
409,-2.029306,-0.74717,2.771932,-0.657838,0.679565,0.324705,-1.1123889999999999,-3.102884,-0.6538579999999999,0.37806799999999996,0.39169299999999996,-0.5522130000000001
410,-2.07804,-0.734325,2.766636,-0.648816,0.670087,0.360576,0.14818699999999999,-0.847678,-0.419343,0.116254,0.550067,-0.5574600000000001
411,-2.063558,-0.729172,2.7751740000000003,-0.657003,0.6662520000000001,0.352772,-0.17461400000000002,0.773358,-0.32753499999999997,0.029164999999999996,0.42632299999999995,-0.427601
412,-2.045474,-0.719126,2.765205,-0.669195,0.6587270000000001,0.343875,-0.5262859999999999,1.41026,-0.25603200000000004,0.073278,0.527003,-0.241245
413,-2.020537,-0.716603,2.770764,-0.679055,0.656827,0.327804,0.539091,0.693496,-0.155805,0.049661000000000004,0.5652189999999999,-0.49229399999999995
414,-1.9970729999999999,-0.724094,2.7959240000000003,-0.68206,0.662457,0.309739,1.274462,0.424041,-0.009318,0.10831400000000001,0.601917,-0.749131
415,-1.9410759999999998,-0.740794,2.839012,-0.687916,0.674874,0.26703899999999997,2.14456,2.006135,0.261788,0.138676,0.746742,-0.628351
416,-1.8547810000000002,-0.767206,2.9032430000000002,-0.691016,0.694127,0.201689,2.979436,2.037914,0.6478659999999999,0.076758,0.6499590000000001,-0.5634600000000001
417,-1.7403400000000002,-0.800593,2.998893,-0.686293,0.717769,0.11748499999999999,3.977928,2.375986,1.0186709999999999,0.013441999999999999,0.46870900000000004,-0.378654
418,-1.624357,-0.8371209999999999,3.116437,-0.668639,0.742718,0.035847000000000004,4.378902,1.04481,1.630996,-0.17421,0.637134,0.5085109999999999
419,-1.4865030000000001,-0.871035,-3.02819,-0.641745,0.764996,-0.054223,4.516129,1.981466,1.708734,-0.204248,0.678959,1.222146
420,-1.351644,-0.88721,-2.888705,-0.616468,0.775312,-0.13730599999999998,4.003221,0.8527809999999999,1.228034,-0.761843,0.575151,0.753074
421,-1.280057,-0.8820309999999999,-2.7902880000000003,-0.608908,0.772031,-0.182196,2.419722,-0.8710389999999999,0.255646,-1.149836,0.40256,0.504462
422,-1.281341,-0.887761,-2.742078,-0.604891,0.77566,-0.180149,0.839532,-2.561012,1.202833,-1.006788,-0.286509,-0.130246
423,-1.2042680000000001,-0.895785,-2.657195,-0.583395,0.7807,-0.223951,3.3745629999999998,2.388071,0.917233,-0.880152,-0.29724,0.094388
424,-1.075866,-0.877217,-2.55658,-0.562578,0.7689630000000001,-0.303644,2.967187,2.053195,0.300588,0.070924,-0.325542,0.571649
425,-0.996699,-0.856683,-2.4908770000000002,-0.5499470000000001,0.755674,-0.355686,1.9045310000000002,1.502167,0.22657399999999997,0.33450799999999997,-0.27992,0.7268100000000001
426,-0.9312799999999999,-0.849701,-2.438428,-0.5297390000000001,0.751083,-0.394016,1.661719,1.028726,1.083267,0.552017,0.175843,0.767154
427,-0.868661,-0.841893,-2.36132,-0.508506,0.7459060000000001,-0.43016800000000005,2.6506830000000003,-0.24729600000000002,1.246702,0.5193399999999999,0.070119,0.714821
428,-0.81575,-0.81929,-2.272469,-0.497198,0.730661,-0.467896,3.064803,-0.789478,1.143467,0.359151,-0.069971,0.776474
429,-0.772409,-0.793165,-2.189098,-0.48961499999999997,0.712577,-0.502502,2.900415,-0.911,1.039925,0.162024,-0.357628,0.9103700000000001
430,-0.7460760000000001,-0.767146,-2.120703,-0.488637,0.694084,-0.528659,2.330667,-1.177482,0.775641,0.053608,-0.7377090000000001,1.021747
431,-0.743053,-0.750883,-2.074174,-0.494608,0.682285,-0.5383760000000001,1.411699,-1.654091,0.614941,0.015711000000000003,-0.8405030000000001,1.0645149999999999
432,-0.76244,-0.744613,-2.048249,-0.507897,0.677687,-0.53177,0.530279,-1.890969,0.41039799999999993,0.21601199999999998,-0.924666,1.057115
433,-0.797014,-0.749748,-2.046727,-0.5234800000000001,0.681454,-0.5114569999999999,-0.606781,-1.640868,0.12439700000000001,0.339733,-0.8581200000000001,0.681242
434,-0.8520790000000001,-0.769537,-2.078461,-0.540578,0.695803,-0.47289799999999993,-2.033008,-1.8818869999999999,-0.170471,0.374364,-0.449297,0.075895
435,-0.940433,-0.793129,-2.139687,-0.5667770000000001,0.7125520000000001,-0.41356000000000004,-2.486573,-2.365313,-0.6280819999999999,-0.172618,0.384936,-1.3269030000000002
436,-1.005008,-0.802786,-2.189594,-0.586446,0.719294,-0.37241799999999997,-0.864875,-0.34410599999999997,-0.26469499999999996,-1.8550360000000001,2.491537,-2.096911
437,-0.998193,-0.803879,-2.156104,-0.583234,0.7200529999999999,-0.37598000000000004,1.6989299999999998,-1.6504150000000002,1.044231,-0.516055,0.986856,-0.701901
438,-0.992182,-0.807556,-2.093705,-0.578742,0.7226,-0.37802800000000003,1.463777,-1.633964,1.396149,0.180518,-0.305058,-0.33069699999999996
439,-0.986632,-0.819051,-2.062778,-0.569669,0.730498,-0.376629,-0.030626,-0.344496,0.706805,0.282941,-0.8990469999999999,-0.075474
440,-1.006717,-0.82973,-2.095974,-0.570492,0.737749,-0.36091999999999996,-2.0831869999999997,0.501023,-0.631074,-0.466922,-0.642702,0.5560649999999999
441,-1.074965,-0.845568,-2.188471,-0.583425,0.7483479999999999,-0.315576,-3.2917690000000004,-0.572142,-0.80692,-0.716715,-0.40571199999999996,0.626504
442,-1.1359190000000001,-0.8593379999999999,-2.264068,-0.592164,0.757411,-0.275082,-1.6235760000000001,0.643529,-0.43683500000000003,-0.781204,1.253499,0.18301099999999998
443,-1.1196270000000001,-0.8533370000000001,-2.272055,-0.591684,0.753478,-0.28667,0.189911,0.538467,-0.24457199999999998,0.20696399999999998,0.099503,0.371081
444,-1.1501860000000002,-0.8589690000000001,-2.294754,-0.596282,0.75717,-0.26671999999999996,-1.487291,-1.054877,0.066221,0.286026,-0.516371,1.018902
445,-1.222467,-0.8837860000000001,-2.36551,-0.5961390000000001,0.773145,-0.216479,-3.1888549999999998,-0.692361,0.39463400000000004,0.233956,-0.6325810000000001,0.7985869999999999
446,-1.331755,-0.911691,-2.490165,-0.5949949999999999,0.7905409999999999,-0.145,-4.617911,-0.715641,-0.003082,0.32171,-0.542814,0.49975200000000003
447,-1.486017,-0.9216540000000001,-2.6503970000000003,-0.6023310000000001,0.796602,-0.051188,-4.757897,-1.78558,-0.313542,0.09363300000000001,-0.308855,0.653788
448,-1.6206129999999999,-0.9235700000000001,-2.767143,-0.602226,0.79776,0.030026,-2.611307,-1.7917470000000002,0.16613699999999998,-0.073647,-0.074127,0.866032
449,-1.6587759999999998,-0.921125,-2.806717,-0.602584,0.7962819999999999,0.053152,-0.5344220000000001,0.559095,-0.24645300000000003,-0.018861000000000003,0.414045,0.8491
450,-1.629921,-0.905486,-2.808518,-0.616223,0.786725,0.036476,0.012941,1.858108,-1.096735,0.189679,0.412387,0.43358599999999997
451,-1.5974549999999998,-0.879365,-2.80577,-0.637412,0.770334,0.016996999999999998,0.055742999999999994,1.036122,-1.23532,0.295371,0.33617199999999997,0.24086100000000002
452,-1.626085,-0.867381,-2.820113,-0.645837,0.762637,0.035744,-1.295873,-2.2885470000000003,-0.079343,0.2398,0.08646799999999999,-0.521233
453,-1.714423,-0.87225,-2.884546,-0.636482,0.765778,0.092049,-2.182287,-1.100394,0.595536,0.230446,0.083328,-0.577538
454,-1.7530540000000001,-0.880017,-2.9499470000000003,-0.626584,0.77075,0.115481,-1.9680950000000001,1.469419,0.8501129999999999,0.142804,0.08859500000000001,0.199323
455,-1.773022,-0.889567,-3.029939,-0.6169140000000001,0.776799,0.12648399999999999,-2.698441,2.169239,0.96696,0.153245,-0.024007,0.017787
456,-1.814066,-0.8925629999999999,-3.1308700000000003,-0.608943,0.778682,0.15113,-3.230683,1.749038,0.7501359999999999,0.11730399999999999,-0.044582,0.05469500000000001
457,-1.86485,-0.884777,3.044412,-0.60627,0.773774,0.183598,-3.424142,1.544513,0.38371500000000003,0.09038600000000001,-0.085221,0.049541
458,-1.920926,-0.86715,2.945248,-0.607745,0.762488,0.22193400000000002,-3.131133,0.599076,-0.00186,-0.027386,-0.155677,-0.118006
459,-1.9545830000000002,-0.8423579999999999,2.8876720000000002,-0.617275,0.746215,0.24926199999999998,-1.527268,0.629549,-0.753406,-0.099369,-0.20817399999999997,-0.219782
460,-1.953475,-0.819456,2.873318,-0.6332409999999999,0.7307739999999999,0.254893,-0.6929529999999999,0.488728,-0.892676,0.035539,0.000793,0.019033
461,-1.9496,-0.796326,2.862755,-0.6497569999999999,0.714792,0.258621,-0.835916,0.627047,-0.993196,0.079704,0.278998,0.105576
462,-1.956869,-0.77088,2.851876,-0.664499,0.696767,0.2701,-0.831802,-0.595897,-0.9948049999999999,0.027658,0.425105,-0.15848199999999998
463,-2.0093240000000003,-0.748015,2.835148,-0.663676,0.680185,0.311253,-1.130456,-2.91507,-0.719387,0.326167,0.346503,-0.582386
464,-2.046811,-0.7353029999999999,2.831399,-0.659177,0.670812,0.33984200000000003,0.239627,-0.18123,-0.39499,0.310773,0.497813,-0.654478
465,-2.030138,-0.730572,2.835561,-0.667589,0.667296,0.33020900000000003,-0.38304499999999997,0.80981,-0.20512399999999997,0.10376099999999999,0.337282,-0.46321899999999994
466,-2.01931,-0.722171,2.819499,-0.676153,0.6610149999999999,0.325381,-0.655913,1.2225540000000001,-0.087923,0.056478,0.46760100000000004,-0.13932999999999998
467,-1.9972009999999998,-0.7198869999999999,2.82006,-0.684553,0.6593,0.31097600000000003,0.343495,0.8751899999999999,-0.133908,0.058225,0.6591359999999999,-0.15037799999999998
468,-1.976784,-0.723875,2.838805,-0.688338,0.662293,0.29589499999999996,0.9247129999999999,0.229258,-0.011516,0.174926,0.797333,-0.397564
469,-1.941179,-0.739913,2.871664,-0.688443,0.6742239999999999,0.267325,1.796023,1.104223,0.470944,0.201963,0.802964,-0.5964109999999999
470,-1.8764290000000001,-0.771416,2.926566,-0.683697,0.6971510000000001,0.215719,2.7833650000000003,1.2457280000000002,0.9904059999999999,0.13303800000000002,0.737801,-0.608618
471,-1.7907490000000001,-0.810891,3.01857,-0.672253,0.724901,0.150295,4.149889,1.0436020000000001,1.068576,-0.059497,0.383283,-0.599209
472,-1.6793200000000001,-0.846349,3.1412419999999996,-0.6588189999999999,0.748866,0.071779,4.288569,0.879821,1.146667,-0.386255,0.328466,0.36035
473,-1.559193,-0.876994,-3.022524,-0.639419,0.76882,-0.00742,3.7781160000000003,2.173984,1.3593600000000001,-0.38616999999999996,0.47973000000000005,1.1127049999999998
474,-1.420994,-0.8955280000000001,-2.907341,-0.618103,0.780539,-0.093292,3.4145529999999997,2.190211,1.080131,-0.460251,0.398782,1.0045620000000002
475,-1.3217649999999999,-0.8961450000000001,-2.8080380000000003,-0.605354,0.780925,-0.153948,2.737811,0.266025,0.410231,-0.9259719999999999,0.1834,0.43275600000000003
476,-1.295678,-0.8930680000000001,-2.741803,-0.6034430000000001,0.778999,-0.17033800000000002,1.5949440000000001,-2.280726,0.520879,-0.931775,-0.055137,-0.087902
477,-1.259588,-0.89313,-2.663925,-0.596858,0.779038,-0.191985,3.304854,0.7981,0.591903,-0.757131,-0.31095900000000004,0.137008
478,-1.130193,-0.87528,-2.56199,-0.5795819999999999,0.7677229999999999,-0.273283,3.096679,2.731825,0.17777300000000001,-0.154778,-0.285546,0.473204
479,-1.046638,-0.8506299999999999,-2.4835130000000003,-0.570966,0.751696,-0.330074,2.650827,0.594406,0.15069200000000002,0.382108,-0.199282,0.8544879999999999
480,-0.97934,-0.835124,-2.419231,-0.557087,0.741379,-0.374177,2.058867,1.16,0.679944,0.46706099999999995,0.081924,0.537522
481,-0.9136489999999999,-0.8229860000000001,-2.352632,-0.538408,0.73318,-0.415405,2.260955,0.516104,0.8883469999999999,0.5153369999999999,0.045857999999999996,0.5596770000000001
482,-0.85841,-0.808971,-2.2810900000000003,-0.522378,0.723577,-0.451171,2.436909,-0.025366,1.079345,0.4665,-0.009252,0.678359
483,-0.809078,-0.7895409999999999,-2.204087,-0.509574,0.71003,-0.485994,2.741225,-0.45887,1.066003,0.28792399999999996,-0.16472699999999998,0.8312860000000001
484,-0.7701,-0.766451,-2.128366,-0.50153,0.693583,-0.517115,2.635831,-0.85808,1.0903479999999999,0.09882,-0.396967,0.907847
485,-0.7490220000000001,-0.7500859999999999,-2.067448,-0.498183,0.681702,-0.535813,1.744975,-1.188036,0.993749,0.034255,-0.626617,0.899857
486,-0.75241,-0.7442340000000001,-2.0273220000000003,-0.502713,0.677408,-0.537025,0.885885,-1.664736,0.803557,0.036344,-0.700968,0.923683
487,-0.776886,-0.748518,-2.008593,-0.513666,0.680554,-0.522486,-0.011729999999999999,-2.002523,0.5402779999999999,0.189661,-0.771985,0.8199719999999999
488,-0.820865,-0.760875,-2.0143169999999997,-0.529946,0.689555,-0.49362799999999996,-0.967008,-1.963718,0.189588,0.310067,-0.725093,0.49085100000000004
489,-0.887999,-0.78466,-2.052628,-0.5489850000000001,0.706585,-0.446488,-2.310709,-2.138905,-0.122948,0.269993,-0.436352,-0.278426
490,-0.9782420000000001,-0.810084,-2.118019,-0.5718989999999999,0.724345,-0.38503699999999996,-2.463054,-1.9166490000000003,-0.426604,-0.221833,0.46120200000000006,-1.544604
491,-1.014873,-0.822691,-2.152698,-0.577813,0.732979,-0.358987,-0.51136,0.041324,0.278864,-1.880195,2.083473,-1.444175
492,-0.999268,-0.829413,-2.117989,-0.567984,0.737535,-0.365286,1.26844,-1.143507,1.193326,-0.5505770000000001,0.673949,-0.75538
493,-0.990259,-0.8357530000000001,-2.06986,-0.5607489999999999,0.7418020000000001,-0.367815,0.929017,-1.1277190000000001,1.0029270000000001,0.24119899999999997,-0.33044,-0.44639399999999996
494,-0.9893430000000001,-0.8410120000000001,-2.053998,-0.557144,0.745318,-0.366182,-0.064991,-0.227125,0.158412,0.19261199999999998,-0.798297,-0.045455
495,-1.012405,-0.8423860000000001,-2.0916810000000003,-0.56457,0.7462340000000001,-0.352694,-2.011243,0.434242,-1.0406879999999998,-0.394322,-0.5344260000000001,0.510393
496,-1.103259,-0.856533,-2.1896560000000003,-0.584758,0.755576,-0.29522800000000005,-3.525588,-1.154699,-0.6401,-0.820591,0.505624,0.824586
497,-1.13201,-0.877,-2.256528,-0.5788800000000001,0.768824,-0.27166799999999997,-1.048052,2.6901029999999997,0.085851,-0.756065,1.4577229999999999,0.15571600000000002
498,-1.110637,-0.879044,-2.2571470000000002,-0.571533,0.770129,-0.283279,-0.237483,-0.18271700000000002,0.125104,-0.140747,0.574475,-0.08140599999999999
499,-1.1531200000000001,-0.8937639999999999,-2.2906419999999996,-0.572624,0.779435,-0.25412399999999996,-1.971238,-0.9985930000000001,0.264658,0.13631400000000002,-0.68007,0.8684729999999999
500,-1.245319,-0.920372,-2.384334,-0.5737300000000001,0.7958270000000001,-0.19362200000000002,-3.8444019999999997,-0.848701,0.10183099999999999,0.28923000000000004,-0.671529,0.595188
501,-1.388046,-0.9380069999999999,-2.538347,-0.581545,0.806381,-0.107477,-5.090675,-1.066471,-0.567824,0.273333,-0.60852,0.516
502,-1.549359,-0.9382020000000001,-2.7134869999999998,-0.5911,0.806496,-0.012674,-4.897081,-0.8756200000000001,-0.245182,0.158727,-0.49504899999999996,0.549524
503,-1.643889,-0.942426,-2.8348880000000003,-0.5862539999999999,0.808987,0.042927999999999994,-2.627605,1.083236,0.496688,-0.179859,0.304844,1.1435959999999998
504,-1.633586,-0.9412440000000001,-2.87889,-0.587619,0.808291,0.036945,-0.6306510000000001,2.745951,-0.388801,-0.036206,0.508832,0.8262450000000001
505,-1.582946,-0.9220389999999999,-2.872624,-0.6041489999999999,0.7968350000000001,0.0073409999999999994,0.567084,1.597798,-1.213244,0.253929,0.389658,0.395461
506,-1.563351,-0.901899,-2.843323,-0.620101,0.784506,-0.0046170000000000004,0.903857,-1.336906,-0.73925,0.40534899999999996,0.23381999999999997,-0.043295
507,-1.656579,-0.898076,-2.871838,-0.620822,0.782129,0.053387000000000004,-1.942294,-3.5851589999999995,0.258561,0.438754,0.045248000000000003,-0.658459
508,-1.743613,-0.905343,-2.951196,-0.608216,0.786637,0.106169,-2.385119,0.083853,0.857516,0.23674099999999998,0.072387,0.18992799999999999
509,-1.783102,-0.9150229999999999,-3.028234,-0.596078,0.7925770000000001,0.128487,-2.212999,1.398668,0.908309,0.13688,0.037715,0.23630500000000002
510,-1.8171509999999997,-0.920082,-3.118395,-0.587462,0.795651,0.147725,-2.9421459999999997,2.1663959999999998,0.82532,0.130217,-0.065183,0.245754
511,-1.863821,-0.9139709999999999,3.048813,-0.584575,0.7919350000000001,0.176372,-3.7292769999999997,2.1745330000000003,0.5388689999999999,0.023615999999999998,-0.118046,-0.013942
512,-1.932323,-0.8946069999999999,2.920627,-0.585367,0.779963,0.22135500000000002,-4.230412,1.1837719999999998,0.188397,-0.209006,-0.216533,-0.455363
513,-1.972476,-0.861241,2.824934,-0.599637,0.758652,0.254711,-2.649003,2.185611,-0.7685810000000001,-0.158038,-0.270065,-0.387828
514,-1.9705009999999998,-0.8317319999999999,2.784134,-0.6204970000000001,0.739099,0.262126,-1.5236299999999998,1.148548,-0.807461,0.152861,0.111578,0.086995
515,-1.967813,-0.806229,2.757923,-0.638379,0.7216819999999999,0.26766,-1.219018,1.2010299999999998,-0.8759030000000001,0.104321,0.408125,0.095346
516,-1.963067,-0.778443,2.7421740000000003,-0.6579229999999999,0.702172,0.27219099999999996,-0.956332,0.27970100000000003,-1.136739,0.11103299999999999,0.391823,-0.302525
517,-2.000438,-0.752827,2.726251,-0.663432,0.683704,0.303976,-1.104855,-2.3139,-0.8300049999999999,0.390925,0.325054,-0.530981
518,-2.063485,-0.733866,2.715778,-0.654267,0.669745,0.35124099999999997,-0.232368,-2.116604,-0.576336,0.17006,0.56965,-0.5316
519,-2.053999,-0.7290479999999999,2.731881,-0.660419,0.6661600000000001,0.346514,0.294962,0.453664,-0.44028199999999995,0.081791,0.45661199999999996,-0.321673
520,-2.0431779999999997,-0.720733,2.724838,-0.66904,0.659935,0.341857,-0.725616,1.082418,-0.149114,0.04227,0.6011270000000001,0.028368
521,-2.026828,-0.715913,2.715566,-0.677387,0.6563060000000001,0.33226999999999995,-0.12101400000000001,0.9135610000000001,-0.004738,0.08394299999999999,0.540181,-0.254831
522,-2.01704,-0.717727,2.723068,-0.679532,0.657674,0.32510900000000004,0.530243,-0.021542,-0.08872100000000001,0.161084,0.532496,-0.555089
523,-1.9900240000000002,-0.727025,2.748816,-0.682451,0.66465,0.304132,1.424376,0.91833,0.12675999999999998,0.135072,0.6874319999999999,-0.559091
524,-1.9354240000000003,-0.748475,2.7925560000000003,-0.684552,0.6805220000000001,0.26129,2.1616020000000002,1.331688,0.544782,0.016644,0.758229,-0.63484
525,-1.860973,-0.781632,2.8600209999999997,-0.680088,0.704439,0.203078,3.34164,1.456134,0.9011049999999999,0.053989999999999996,0.491225,-0.606032
526,-1.754616,-0.8208610000000001,2.966603,-0.6701050000000001,0.731733,0.12458499999999999,4.338901,1.387808,1.138895,-0.080246,0.25790599999999997,-0.453244
527,-1.646902,-0.860043,3.087493,-0.650513,0.757871,0.049604,4.1815739999999995,0.76448,1.576565,-0.24212600000000004,0.46719700000000003,0.864001
528,-1.514918,-0.891951,-3.062722,-0.626911,0.7782979999999999,-0.035067,4.332128,1.869086,1.467243,-0.298153,0.436805,1.063479
529,-1.374917,-0.9051809999999999,-2.924919,-0.60573,0.786537,-0.120191,3.9604760000000003,1.266332,0.943059,-0.795637,0.42356099999999997,0.617704
530,-1.2961719999999999,-0.897018,-2.82309,-0.60056,0.78147,-0.169203,2.566609,-1.0936059999999999,0.109543,-1.188884,0.223123,0.20468
531,-1.30388,-0.895932,-2.7658490000000002,-0.602664,0.780792,-0.164793,1.638571,-2.760236,0.781381,-1.180585,-0.23374899999999998,-0.048188999999999996
532,-1.202723,-0.892474,-2.670889,-0.585457,0.7786270000000001,-0.22578099999999998,2.9770369999999997,3.339944,0.584224,-0.6684640000000001,-0.375337,0.21062899999999998
533,-1.079647,-0.877985,-2.599656,-0.5632,0.769454,-0.301236,2.32367,2.145343,0.192358,-0.150423,-0.27014,0.557446
534,-1.0161440000000002,-0.857409,-2.53226,-0.556292,0.75615,-0.344636,2.297199,0.562299,0.226248,0.25509899999999996,-0.21495100000000003,0.8537459999999999
535,-0.94239,-0.8430540000000001,-2.462559,-0.5381100000000001,0.746678,-0.391032,2.288563,1.261441,0.951683,0.558725,0.231777,0.7134199999999999
536,-0.871534,-0.8321959999999999,-2.3883650000000003,-0.515251,0.7394109999999999,-0.433341,2.310868,0.502031,1.1653879999999999,0.46302,-0.031846,0.615027
537,-0.811495,-0.818719,-2.312025,-0.495504,0.730271,-0.47029399999999993,2.483087,-0.048499,1.228185,0.380239,-0.132676,0.694583
538,-0.764146,-0.795554,-2.232823,-0.484267,0.714252,-0.5053,2.864024,-0.693581,1.0458020000000001,0.277937,-0.213,0.834493
539,-0.731792,-0.769546,-2.162426,-0.479921,0.695809,-0.5343439999999999,2.369655,-0.932009,0.8931030000000001,0.069246,-0.755105,0.983181
540,-0.720895,-0.754183,-2.112643,-0.48107,0.684693,-0.547508,1.450379,-1.414196,0.795433,0.070395,-0.743989,0.996345
541,-0.7354069999999999,-0.750012,-2.084748,-0.49087600000000003,0.6816479999999999,-0.542582,0.479897,-1.8337130000000001,0.521068,0.099625,-0.9141,0.932902
542,-0.772112,-0.754066,-2.080594,-0.508524,0.684608,-0.522219,-0.375638,-2.005818,0.080546,0.3267,-0.769096,0.519717
543,-0.826161,-0.76784,-2.104246,-0.529008,0.694583,-0.487547,-1.565358,-1.8089259999999998,-0.173707,0.347184,-0.779071,0.485045
544,-0.9049780000000001,-0.792018,-2.15508,-0.5523819999999999,0.7117720000000001,-0.433879,-2.410749,-2.5308080000000004,-0.33358000000000004,0.266875,-0.050395,-1.1494950000000002
545,-0.984411,-0.804603,-2.211186,-0.5775600000000001,0.7205550000000001,-0.383693,-1.3156780000000001,-1.037902,-0.597036,-0.954025,1.753856,-2.021443
546,-0.989451,-0.80842,-2.1944169999999996,-0.577184,0.723197,-0.379264,1.234286,-1.1042610000000002,0.9975569999999999,-1.6070659999999999,1.565972,-0.772409
547,-0.9777440000000001,-0.8092739999999999,-2.139243,-0.572192,0.7237859999999999,-0.38565,1.53103,-1.217516,1.090573,-0.21436799999999998,-0.015443,-0.485734
548,-0.9614010000000001,-0.812628,-2.1043830000000003,-0.56382,0.726097,-0.393557,0.420364,-0.073874,0.571808,0.247703,-0.8450850000000001,-0.255812
549,-0.965995,-0.8203590000000001,-2.122137,-0.560987,0.731391,-0.387759,-1.486169,0.800834,-0.467055,-0.187823,-0.8409030000000001,0.47427700000000006
550,-1.033995,-0.834635,-2.208965,-0.577006,0.741051,-0.34337,-3.429192,-1.374444,-1.182866,-0.751134,-0.471184,0.7781239999999999
551,-1.1112360000000001,-0.850066,-2.30085,-0.591461,0.751324,-0.292715,-2.299154,1.101676,-0.403685,-1.056976,1.238834,0.29439299999999996
552,-1.096031,-0.84772,-2.319811,-0.588508,0.7497739999999999,-0.302479,-0.049701999999999996,0.431467,-0.45120699999999997,0.10819200000000001,0.893674,0.013462
553,-1.125959,-0.854508,-2.346692,-0.592688,0.7542479999999999,-0.282536,-1.560933,-0.47237299999999993,0.180329,0.42186599999999996,-0.456351,1.2356770000000001
554,-1.181437,-0.884433,-2.4175310000000003,-0.586292,0.773556,-0.24055900000000002,-3.405714,0.10144600000000001,0.538449,0.222309,-0.613216,0.892491
555,-1.288593,-0.9203809999999999,-2.548361,-0.581561,0.795832,-0.16861900000000002,-4.920876,-0.576631,0.128151,0.21757800000000002,-0.635493,0.82055
556,-1.453003,-0.936118,-2.721129,-0.588805,0.805262,-0.06967999999999999,-5.261415,-1.562144,-0.341914,0.329985,-0.546031,0.511239
557,-1.606015,-0.9413940000000001,-2.873971,-0.588291,0.808379,0.020727000000000002,-3.8009410000000003,-1.15234,0.337537,-0.140774,0.379716,1.133707
558,-1.650739,-0.942125,-2.944139,-0.586187,0.80881,0.046961,-1.015563,1.631966,-0.13047899999999998,-0.133189,0.578184,1.104543
559,-1.607434,-0.923222,-2.944773,-0.602843,0.797549,0.022096,0.253627,2.187594,-1.383896,0.201415,0.365659,0.318846
560,-1.5653110000000001,-0.890898,-2.9267830000000004,-0.628699,0.777637,-0.0034490000000000002,0.7074,0.7068800000000001,-1.5155610000000002,0.270225,0.258191,0.183045
561,-1.592709,-0.875223,-2.914699,-0.640666,0.767686,0.014041,-0.305272,-3.7699010000000004,-0.249987,0.276699,-0.002443,-1.037677
562,-1.697602,-0.878552,-2.958802,-0.6331359999999999,0.769816,0.080718,-1.822096,-2.5009360000000003,0.475933,0.178378,0.094137,0.154313
563,-1.749829,-0.886388,-3.031054,-0.622104,0.7747930000000001,0.11258199999999999,-2.481709,1.688207,0.9274290000000001,0.17294600000000002,0.065234,0.348569
564,-1.771096,-0.894114,-3.130648,-0.613684,0.779655,0.12459100000000001,-3.212068,2.995643,0.942017,0.20410799999999998,-0.025932,0.11282
565,-1.803973,-0.896551,3.039012,-0.607406,0.7811779999999999,0.144257,-3.6027089999999995,2.5990889999999998,0.815883,0.064331,-0.067036,0.017151
566,-1.8610779999999998,-0.8875870000000001,2.916575,-0.6048680000000001,0.775551,0.18068599999999999,-3.8942089999999996,1.397037,0.375279,-0.013753,-0.100136,-0.045249
567,-1.9196779999999998,-0.864972,2.8249009999999997,-0.609577,0.761077,0.221741,-2.225229,0.538521,-0.561612,-0.252148,-0.338805,-0.46871899999999994
568,-1.929518,-0.8433780000000001,2.803387,-0.6226119999999999,0.746893,0.233444,-0.701805,0.07596699999999999,-0.7597510000000001,-0.030281,-0.03562,0.008057
569,-1.932863,-0.822965,2.788793,-0.635955,0.733165,0.240877,-0.9558840000000001,0.692822,-0.821068,0.037459,0.208775,0.209471
570,-1.931813,-0.7977569999999999,2.7699290000000003,-0.653293,0.715792,0.24666,-1.049672,0.536207,-1.000984,0.124668,0.265532,-0.100832
571,-1.9534479999999999,-0.771474,2.751912,-0.665031,0.6971930000000001,0.267669,-1.123924,-1.269168,-1.003462,0.476966,0.28114,-0.560286
572,-2.0177490000000002,-0.745418,2.734261,-0.662618,0.678279,0.317594,-0.93122,-2.852451,-0.8334440000000001,0.5821729999999999,0.520971,-0.49004899999999996
573,-2.031227,-0.733356,2.73619,-0.665558,0.669367,0.33010700000000004,-0.015498,0.222498,-0.43681400000000004,0.156662,0.50527,-0.57855
574,-2.028255,-0.724989,2.7279310000000003,-0.671538,0.663127,0.33059,-0.688444,0.5561010000000001,-0.163136,0.008513,0.6439560000000001,-0.13663499999999998
575,-2.017902,-0.7188260000000001,2.7205529999999998,-0.678597,0.658502,0.325381,-0.058142,0.7520060000000001,-0.15043900000000002,0.0012289999999999998,0.589896,-0.327212
576,-2.002769,-0.7195090000000001,2.73117,-0.683034,0.6590159999999999,0.314886,0.5915060000000001,0.278805,-0.126067,-0.026758999999999998,0.6222949999999999,-0.7212729999999999
577,-1.96632,-0.729829,2.757159,-0.687743,0.6667420000000001,0.28715100000000005,1.452305,1.543117,0.235112,0.108946,0.739416,-0.5793560000000001
578,-1.895231,-0.754235,2.803384,-0.69077,0.6847310000000001,0.232319,2.326705,1.9428619999999999,0.741703,0.144826,0.7858649999999999,-0.5526310000000001
579,-1.810298,-0.7907350000000001,2.876881,-0.683242,0.710871,0.16684000000000002,3.534473,1.65363,1.161776,0.059264,0.503393,-0.409089
580,-1.70744,-0.832354,2.986295,-0.666856,0.739518,0.091693,4.268807,0.624962,1.4929629999999998,-0.22885,0.408522,-0.032779
581,-1.598382,-0.874474,3.11528,-0.64115,0.767206,0.017691,4.454707,1.174041,1.748863,-0.349298,0.637838,1.28245
582,-1.455816,-0.9014209999999999,-3.028261,-0.6163930000000001,0.7842100000000001,-0.071187,4.170019,1.531353,1.352242,-0.468095,0.5428470000000001,1.159749
583,-1.354393,-0.90359,-2.909591,-0.604356,0.785554,-0.132865,3.200444,-0.38293699999999997,0.326703,-1.124953,0.373031,0.485831
584,-1.328273,-0.8980469999999999,-2.8317099999999997,-0.604897,0.782112,-0.149647,1.949209,-2.5396259999999997,0.488437,-1.113746,-0.271171,-0.030452
585,-1.279248,-0.898257,-2.7454389999999997,-0.59668,0.782242,-0.179063,3.528974,1.300078,0.604579,-0.953216,-0.361374,0.037828
586,-1.139529,-0.8818469999999999,-2.6423259999999997,-0.577513,0.771915,-0.265746,2.795118,3.2953089999999996,0.18349400000000002,-0.648515,-0.410037,0.21289
587,-1.0528819999999999,-0.864034,-2.591354,-0.564208,0.760468,-0.321483,1.507307,1.6367129999999999,-0.041293,0.13336099999999998,-0.355454,0.6231800000000001
588,-0.993373,-0.8512780000000001,-2.549566,-0.5521739999999999,0.752123,-0.359737,1.6116489999999999,1.493143,0.339907,0.450504,-0.062487,0.960216
589,-0.921184,-0.837924,-2.485168,-0.53274,0.743256,-0.404665,2.436769,0.835492,0.783415,0.5911810000000001,0.158599,0.9201379999999999
590,-0.8625729999999999,-0.814507,-2.410214,-0.5212,0.727388,-0.446378,2.771115,-0.05717100000000001,0.750575,0.42880799999999997,0.023864,0.647199
591,-0.8123640000000001,-0.791154,-2.335356,-0.510335,0.7111649999999999,-0.48352799999999996,2.6927470000000002,-0.280033,0.873159,0.351567,-0.074645,0.723762
592,-0.77483,-0.765749,-2.266149,-0.504311,0.693077,-0.515084,2.577881,-0.730023,0.817386,0.25713400000000003,-0.180733,0.804009
593,-0.756225,-0.745047,-2.209939,-0.50438,0.678007,-0.534701,1.8582009999999998,-1.1916069999999999,0.722151,0.095078,-0.6836979999999999,0.969043
594,-0.7596189999999999,-0.733793,-2.171081,-0.511414,0.669691,-0.538486,1.117556,-1.599734,0.596792,0.11808800000000001,-0.74983,1.000278
595,-0.77981,-0.7310369999999999,-2.150286,-0.5234770000000001,0.667642,-0.52936,0.347377,-1.7720220000000002,0.394012,0.15351199999999998,-0.8223969999999999,0.984454
596,-0.8127439999999999,-0.7373930000000001,-2.151033,-0.5375310000000001,0.672361,-0.508908,-0.6380399999999999,-1.489428,0.109029,0.382716,-0.679044,0.45875299999999997
597,-0.8666659999999999,-0.756886,-2.181455,-0.554082,0.686661,-0.47062299999999996,-2.003947,-1.9824439999999999,-0.090024,0.466283,-0.48901400000000006,0.046093
598,-0.964116,-0.7820020000000001,-2.242149,-0.582887,0.704701,-0.404517,-2.55397,-3.008942,-0.518771,0.43019300000000005,-0.160603,-0.555322
599,-1.017193,-0.7916979999999999,-2.279595,-0.5976859999999999,0.711547,-0.36941399999999996,-0.301588,-0.508093,0.29599200000000003,-1.8768169999999997,2.26381,-1.533982
600,-1.008612,-0.799185,-2.234271,-0.58997,0.716788,-0.37168,1.576761,-1.926116,1.365264,-1.8845319999999999,2.258569,-1.531717
601,-1.000484,-0.8066979999999999,-2.1797560000000002,-0.582381,0.722007,-0.373544,1.111992,-1.022734,1.228401,0.078734,-0.781852,-0.21898499999999999
602,-0.990316,-0.814018,-2.1580939999999997,-0.574117,0.727052,-0.376538,-0.009321,-0.02238,0.32198000000000004,-0.20676599999999998,-0.830995,0.25437600000000005
603,-1.016292,-0.817465,-2.195689,-0.581569,0.729414,-0.360177,-2.0923990000000003,-0.016255000000000002,-1.000082,-0.43657299999999993,-0.676588,0.52987
604,-1.101636,-0.829011,-2.282747,-0.6026020000000001,0.737264,-0.305465,-2.910978,-1.156767,-0.657166,-0.879286,1.1035409999999999,0.322021
605,-1.111241,-0.8374229999999999,-2.322292,-0.599928,0.742921,-0.296902,-0.095212,1.976229,-0.173631,-0.78084,1.45169,0.064434
606,-1.095643,-0.8331129999999999,-2.314428,-0.598066,0.740029,-0.307685,0.049611,-0.263207,0.023597999999999997,0.074903,-0.176644,0.925956
607,-1.1204290000000001,-0.849683,-2.343079,-0.594386,0.751071,-0.28739000000000003,-2.153673,-0.066729,0.48438400000000004,0.11822,-0.642871,0.902014
608,-1.1942139999999999,-0.8858959999999999,-2.4364169999999996,-0.5882649999999999,0.774482,-0.232632,-4.152132,-0.271086,0.308316,0.33709,-0.63317,0.653424
609,-1.328358,-0.912957,-2.58585,-0.5935239999999999,0.791315,-0.14678,-5.142546,-1.273674,-0.389525,0.359714,-0.657953,0.5494899999999999
610,-1.493101,-0.9220709999999999,-2.7517259999999997,-0.602344,0.796854,-0.046894,-4.648686,-1.7398790000000002,-0.115218,-0.073895,0.045857999999999996,1.186649
611,-1.579852,-0.928192,-2.8445150000000003,-0.599252,0.800538,0.005427,-1.560419,0.41369700000000004,0.24008400000000002,-0.067496,0.593154,1.320043
612,-1.55634,-0.921018,-2.848406,-0.604942,0.796218,-0.008745999999999999,0.348475,1.528835,-0.829052,0.07335599999999999,0.629548,0.970095
613,-1.519747,-0.893495,-2.835892,-0.625871,0.779267,-0.031978,0.41139799999999993,1.0616450000000002,-1.531972,0.366716,0.357559,0.272853
614,-1.520533,-0.8716079999999999,-2.829723,-0.642779,0.765365,-0.032335,0.061771000000000006,-1.513466,-0.6124430000000001,0.305758,0.126099,-0.737791
615,-1.644293,-0.8785,-2.879168,-0.636578,0.769782,0.046870999999999996,-2.465096,-4.520647,0.753903,0.303814,-0.009543000000000001,-0.22161399999999998
616,-1.7441400000000002,-0.8913209999999999,-2.9682049999999998,-0.618961,0.777903,0.10838099999999999,-2.671195,0.390276,1.198028,0.167606,-0.027139999999999997,0.39064299999999996
617,-1.771946,-0.9062120000000001,-3.06934,-0.604291,0.787173,0.12321900000000001,-3.235184,3.399223,1.2682129999999998,0.08834600000000001,-0.029925,0.14191700000000002
618,-1.8060080000000003,-0.910726,3.086852,-0.596283,0.789949,0.142898,-4.068773,2.9880150000000003,0.928564,-0.006821,-0.066469,-0.08374
619,-1.876147,-0.8990450000000001,2.944249,-0.593562,0.782733,0.187096,-4.459632,1.6100649999999999,0.341142,-0.192357,-0.13631,-0.265923
620,-1.9058979999999999,-0.869704,2.851695,-0.609167,0.764138,0.21213400000000002,-2.255722,2.2601709999999997,-0.8407049999999999,-0.31530199999999997,-0.478112,-0.70365
621,-1.9166189999999999,-0.848043,2.816023,-0.622287,0.749987,0.22421100000000002,-1.294452,0.142285,-0.579176,0.012622,0.06204,0.010622
622,-1.9288900000000002,-0.824471,2.783095,-0.6358729999999999,0.7341880000000001,0.237961,-1.527056,1.1589690000000001,-0.74661,0.216286,0.08501,0.331833
623,-1.921229,-0.798847,2.750569,-0.655135,0.7165520000000001,0.23946399999999998,-1.412974,1.472345,-0.891493,0.154173,0.24626199999999998,0.083992
624,-1.9273650000000002,-0.771703,2.729518,-0.671637,0.697357,0.250178,-1.02034,-0.349982,-1.055194,0.133658,0.41082799999999997,-0.223475
625,-1.979181,-0.7470640000000001,2.713045,-0.673345,0.679488,0.291365,-1.061396,-3.09805,-0.839383,0.402487,0.363694,-0.6020800000000001
626,-2.042809,-0.7301880000000001,2.706833,-0.6635770000000001,0.66701,0.338756,0.096827,-1.497801,-0.563083,0.35180900000000004,0.642195,-0.545925
627,-2.029707,-0.72333,2.716685,-0.672044,0.6618850000000001,0.332052,-0.242044,0.673673,-0.380226,0.190217,0.518368,-0.533605
628,-2.020773,-0.711655,2.7008229999999998,-0.681895,0.653088,0.329373,-0.8125829999999999,1.104411,-0.243758,0.071513,0.5419039999999999,-0.11068499999999999
629,-2.004938,-0.705817,2.7008099999999997,-0.690472,0.648656,0.320133,0.321902,0.4465,-0.26917399999999997,0.093823,0.5558420000000001,-0.28929499999999997
630,-1.993221,-0.708254,2.721828,-0.692732,0.650508,0.311372,0.9715520000000001,-0.157094,-0.137812,0.11913900000000001,0.606114,-0.415346
631,-1.960207,-0.720999,2.752222,-0.694906,0.660135,0.285166,1.5410979999999999,1.1740190000000001,0.287476,0.197927,0.75707,-0.45827700000000005
632,-1.9005509999999999,-0.7473569999999999,2.796916,-0.693964,0.679703,0.23751,2.344218,1.475627,0.888768,0.03605,0.7357640000000001,-0.548056
633,-1.825023,-0.785719,2.871298,-0.684154,0.707334,0.177777,3.6026599999999998,1.1124209999999999,1.115941,-0.082844,0.408267,-0.49368
634,-1.721866,-0.8249780000000001,2.981376,-0.6708390000000001,0.734533,0.102121,4.289043,1.062735,1.224416,-0.32115,0.29899000000000003,-0.305872
635,-1.606895,-0.862585,3.104236,-0.650047,0.7595270000000001,0.023476,4.165419,1.6573380000000002,1.552871,-0.311287,0.580561,1.1909399999999999
636,-1.46631,-0.8892209999999999,-3.054225,-0.626577,0.7765810000000001,-0.065708,3.7820050000000003,2.109972,1.379766,-0.448664,0.433044,0.9236489999999999
637,-1.358618,-0.8980520000000001,-2.94295,-0.609156,0.7821140000000001,-0.131225,3.0573930000000002,0.22427399999999997,0.71696,-0.875417,0.341314,0.5083310000000001
638,-1.3266280000000001,-0.8972030000000001,-2.865848,-0.605291,0.7815850000000001,-0.150802,1.90593,-2.385209,0.539208,-1.082941,-0.123703,0.034208999999999996
639,-1.300707,-0.9014260000000001,-2.791384,-0.5979939999999999,0.784212,-0.16555699999999998,3.077541,0.496663,0.779776,-1.03726,-0.23962600000000003,0.0041340000000000005
640,-1.163435,-0.89297,-2.693775,-0.575782,0.778937,-0.24844899999999998,2.504687,3.7586,0.46181099999999997,-0.791818,-0.335959,0.17191099999999998
641,-1.072797,-0.8810549999999999,-2.63063,-0.559045,0.771411,-0.30395700000000003,2.153461,0.570603,0.406827,0.334909,-0.20823899999999998,0.94124
642,-1.007676,-0.8683049999999999,-2.559997,-0.546353,0.763235,-0.344916,2.269952,1.170796,0.727338,0.524167,-0.024984,0.9058440000000001
643,-0.9253610000000001,-0.8554790000000001,-2.485385,-0.523921,0.754885,-0.394527,2.460079,0.9233379999999999,0.9073760000000001,0.5686899999999999,0.093976,0.760493
644,-0.8614459999999999,-0.8374879999999999,-2.405911,-0.507876,0.7429640000000001,-0.435961,2.658325,-0.008651,0.969776,0.459765,-0.098982,0.6023270000000001
645,-0.8069890000000001,-0.8163100000000001,-2.328279,-0.494649,0.7286229999999999,-0.47373699999999996,2.685702,-0.309224,0.9874440000000001,0.369145,-0.136964,0.673704
646,-0.7664270000000001,-0.790841,-2.251817,-0.48774700000000004,0.7109449999999999,-0.506613,2.799214,-0.9306620000000001,0.9847600000000001,0.300262,-0.185951,0.785086
647,-0.7415689999999999,-0.767419,-2.185245,-0.48612,0.69428,-0.5307149999999999,2.16488,-1.169845,0.87595,0.089758,-0.585851,0.9655600000000001
648,-0.739731,-0.7530359999999999,-2.138518,-0.491825,0.6838569999999999,-0.538929,1.455551,-1.7824099999999998,0.699796,0.06592200000000001,-0.702076,1.001392
649,-0.758062,-0.746743,-2.107795,-0.5045689999999999,0.6792520000000001,-0.532938,0.6645220000000001,-2.026231,0.554646,0.16912,-0.803138,0.959925
650,-0.791402,-0.751077,-2.098402,-0.5199550000000001,0.682427,-0.513749,-0.283231,-1.889788,0.289342,0.28533600000000003,-0.6752239999999999,0.574128
651,-0.842766,-0.768624,-2.117783,-0.536623,0.6951470000000001,-0.47833400000000004,-1.656245,-2.061082,0.0941,0.345507,-0.339541,-0.156386
652,-0.927708,-0.79547,-2.168084,-0.560131,0.7141930000000001,-0.41973599999999994,-2.342105,-2.604875,-0.250757,-0.238301,0.440974,-1.614916
653,-0.988002,-0.806591,-2.211219,-0.577737,0.721933,-0.38082699999999997,-0.8409409999999999,-0.64063,-0.189377,-0.872168,1.216422,-1.965471
654,-0.9926879999999999,-0.8091189999999999,-2.181886,-0.5779850000000001,0.723679,-0.377117,1.533051,-1.826413,0.980268,-1.376147,1.669402,-1.038441
655,-0.989582,-0.808732,-2.125697,-0.5770460000000001,0.7234119999999999,-0.379064,1.456541,-1.45251,1.048689,0.06992000000000001,-0.354302,-0.378931
656,-0.983917,-0.813602,-2.098662,-0.5719489999999999,0.726766,-0.380372,0.051820000000000005,-0.330827,0.415734,0.204624,-0.872976,0.001603
657,-1.001715,-0.820599,-2.1308580000000004,-0.574329,0.731554,-0.367383,-1.8673220000000001,0.687225,-0.761201,-0.16053399999999998,-0.7761859999999999,0.34731799999999996
658,-1.075896,-0.8355100000000001,-2.2224150000000003,-0.5903109999999999,0.741639,-0.318591,-3.3491800000000005,-1.021403,-0.827046,-1.31748,0.338226,0.7491939999999999
659,-1.122422,-0.8493129999999999,-2.2907330000000004,-0.595208,0.750827,-0.286326,-1.379924,1.216943,-0.18804500000000002,-0.79383,1.1051,0.03921
660,-1.110104,-0.8486229999999999,-2.304379,-0.5921,0.750371,-0.29386599999999996,-0.485818,0.315542,-0.385743,0.50247,0.033458,0.638745
661,-1.157306,-0.855769,-2.349605,-0.600381,0.755075,-0.263439,-2.0564009999999997,-0.851929,-0.107866,0.507088,-0.484217,1.225048
662,-1.230009,-0.88126,-2.4285069999999997,-0.599591,0.771541,-0.21262899999999998,-3.3082519999999995,-0.46915200000000007,0.35825799999999997,0.346066,-0.548946,0.8568549999999999
663,-1.3382,-0.9070299999999999,-2.55116,-0.599494,0.7876770000000001,-0.142011,-4.42595,-0.797006,-0.066803,0.322898,-0.45210600000000006,0.655927
664,-1.470759,-0.9183209999999999,-2.69632,-0.604115,0.7945840000000001,-0.060636,-4.268764,-0.9265700000000001,-0.036697,0.077351,-0.17290999999999998,0.8197
665,-1.563202,-0.929475,-2.799196,-0.598233,0.8013060000000001,-0.004543,-2.293247,0.020932,0.529226,-0.041415,0.35647,1.146236
666,-1.572784,-0.9303379999999999,-2.834594,-0.597558,0.801822,0.001188,-0.454082,1.205998,-0.38452600000000003,0.044656,0.539319,0.775088
667,-1.5557219999999998,-0.9103450000000001,-2.839027,-0.6134,0.789715,-0.009247,-0.077365,0.819422,-1.2722959999999999,0.20846199999999998,0.371051,0.36859200000000003
668,-1.557662,-0.887236,-2.840627,-0.631499,0.775329,-0.008295,0.017348,-0.751596,-0.888266,0.192367,0.24130300000000002,-0.066092
669,-1.6340729999999999,-0.8850120000000001,-2.873015,-0.632009,0.7739229999999999,0.040045,-1.8012740000000003,-3.1611860000000003,0.404281,0.176946,-0.004117,-0.608053
670,-1.731022,-0.893224,-2.9446529999999997,-0.61887,0.779097,0.100016,-2.148679,-1.303521,0.748783,0.204258,0.083315,-0.278697
671,-1.781263,-0.902314,-3.013225,-0.606115,0.784763,0.129484,-2.095751,1.114983,0.887058,0.146017,-0.034152999999999996,0.34176799999999996
672,-1.8054400000000002,-0.9078950000000001,-3.10438,-0.598538,0.7882100000000001,0.14307899999999998,-3.033134,2.846218,0.860132,0.15995499999999999,-0.08951,0.271457
673,-1.8363509999999998,-0.904486,3.066574,-0.5964189999999999,0.786108,0.16221300000000002,-3.553924,2.784125,0.589519,0.125136,-0.12405899999999999,0.013949000000000001
674,-1.88094,-0.8923399999999999,2.949487,-0.597645,0.778542,0.19153699999999999,-3.68035,1.960968,0.35788600000000004,0.018315,-0.12192599999999999,-0.075097
675,-1.9460540000000002,-0.8713040000000001,2.847426,-0.599023,0.765169,0.23596999999999999,-3.1332709999999997,-0.22074000000000002,-0.109787,-0.033621,-0.101427,-0.20406400000000002
676,-1.9844529999999998,-0.8471360000000001,2.80887,-0.606282,0.749387,0.26614899999999997,-0.6142880000000001,-0.30191,-0.908209,-0.176082,-0.27016999999999997,-0.367879
677,-1.9858080000000002,-0.8309690000000001,2.815227,-0.6169279999999999,0.738585,0.27182,-0.182055,-0.11760799999999999,-0.752671,-0.012253,0.018297,0.125916
678,-1.9811580000000002,-0.8096409999999999,2.801877,-0.632488,0.72404,0.275171,-1.2540879999999999,1.077246,-0.792668,0.060818,0.11485799999999999,0.160635
679,-1.995781,-0.783474,2.771532,-0.6454409999999999,0.705745,0.292104,-1.516697,-0.356864,-0.7691640000000001,0.083078,0.341816,-0.209706
680,-2.045467,-0.7588550000000001,2.746404,-0.6453979999999999,0.688091,0.33164099999999996,-1.206684,-2.272583,-0.683359,0.335279,0.300953,-0.41904399999999997
681,-2.092535,-0.742946,2.7390950000000003,-0.63849,0.676461,0.367051,-0.08793,-1.219451,-0.48140900000000003,0.281969,0.697959,-0.5170899999999999
682,-2.086123,-0.737863,2.745309,-0.643814,0.672709,0.364639,-0.165496,0.524737,-0.23101799999999997,0.101654,0.573294,-0.49586499999999994
683,-2.073862,-0.7306779999999999,2.733604,-0.652455,0.667375,0.359039,-0.562249,1.213542,-0.046665,0.045994,0.516173,-0.308746
684,-2.054777,-0.730721,2.733461,-0.659163,0.667407,0.346509,0.367475,0.667821,0.021418,-0.097398,0.496,-0.5688300000000001
685,-2.0293810000000003,-0.738168,2.754868,-0.663274,0.672934,0.32745,1.175727,0.752568,-0.027525,-0.10909500000000001,0.6008399999999999,-0.7219810000000001
686,-1.969788,-0.7553810000000001,2.79635,-0.670825,0.685566,0.28282399999999996,2.096802,2.087171,0.28591500000000003,0.08526900000000001,0.703457,-0.5290239999999999
687,-1.8794680000000001,-0.7849970000000001,2.8573020000000002,-0.673955,0.706823,0.2149,2.837011,2.364625,0.854751,0.08431,0.667475,-0.485163
688,-1.7708119999999998,-0.8232309999999999,2.950859,-0.6663,0.733346,0.135077,4.119682,1.735917,1.123026,-0.064261,0.515632,-0.439093
689,-1.659197,-0.862145,3.073855,-0.648267,0.7592409999999999,0.05745700000000001,4.250651,0.823314,1.457327,-0.23692600000000003,0.545157,0.9778819999999999
690,-1.520846,-0.894328,-3.082446,-0.62526,0.7797890000000001,-0.031258,4.06568,2.703887,1.527333,-0.342696,0.44623999999999997,0.8993
691,-1.365364,-0.9105700000000001,-2.947174,-0.600398,0.789853,-0.125106,3.919862,2.156272,1.1371149999999999,-0.878408,0.43611400000000006,0.6215510000000001
692,-1.261069,-0.904495,-2.8418900000000002,-0.588671,0.7861130000000001,-0.18839,2.720809,0.15049500000000002,0.278869,-0.997999,-0.01649,0.13329100000000002
693,-1.247303,-0.9028209999999999,-2.7784720000000003,-0.587268,0.7850779999999999,-0.196894,1.415937,-2.854526,0.8461719999999999,-0.7597470000000001,-0.117368,0.000696
694,-1.211977,-0.909388,-2.704124,-0.575109,0.7891279999999999,-0.215698,2.995752,1.175032,0.9033180000000001,-0.701213,-0.082554,0.195373
695,-1.080109,-0.890375,-2.608134,-0.5548890000000001,0.777308,-0.29646100000000003,2.950262,2.8306720000000003,0.09437100000000001,0.10628,-0.366938,0.70825
696,-0.9905200000000001,-0.864505,-2.533427,-0.542779,0.760774,-0.35582600000000003,2.51999,1.171116,0.16506300000000002,0.306237,-0.20408800000000002,0.895224
697,-0.9184040000000001,-0.847808,-2.471231,-0.525751,0.7498319999999999,-0.401667,2.047637,1.141502,0.7867109999999999,0.45261599999999996,0.045654,0.855066
698,-0.854101,-0.834376,-2.401496,-0.5064029999999999,0.7408779999999999,-0.441197,2.3964689999999997,0.335388,0.941868,0.429986,-3.3e-05,0.680226
699,-0.7991699999999999,-0.813292,-2.32667,-0.492504,0.726553,-0.47912200000000005,2.6509650000000002,-0.221681,0.9699969999999999,0.326565,-0.042944,0.781506
700,-0.757423,-0.786601,-2.252981,-0.48523299999999997,0.707957,-0.513171,2.7838700000000003,-0.730661,0.7995939999999999,0.246876,-0.103953,0.8613
701,-0.729939,-0.759314,-2.1909,-0.483653,0.6884239999999999,-0.54051,2.204967,-0.728279,0.705817,0.023143,-0.724114,0.9808790000000001
702,-0.718004,-0.743013,-2.1461080000000003,-0.48448599999999997,0.6765100000000001,-0.5546220000000001,1.458566,-1.1802629999999998,0.63068,0.07017999999999999,-0.760922,1.036663
703,-0.7297640000000001,-0.733171,-2.11903,-0.49538999999999994,0.669229,-0.553823,0.776031,-1.660296,0.32208400000000004,0.189146,-0.8514799999999999,0.9821219999999999
704,-0.758081,-0.730599,-2.1099930000000002,-0.512054,0.667316,-0.540822,0.0016489999999999999,-1.6543729999999999,0.045339,0.23846399999999998,-0.878452,0.79981
705,-0.799415,-0.741308,-2.12752,-0.52881,0.675253,-0.514189,-1.3762889999999999,-1.4816280000000002,-0.134355,0.377077,-0.623313,0.37406799999999996
706,-0.875236,-0.762916,-2.171566,-0.5549069999999999,0.691032,-0.463196,-2.10301,-2.981092,-0.414179,-0.36825,0.685142,-2.115814
707,-0.976231,-0.7696930000000001,-2.222126,-0.5948869999999999,0.695915,-0.40225500000000003,-1.099818,-2.746955,-0.9608110000000001,-0.798728,1.8064040000000001,-1.598111
708,-0.991081,-0.766473,-2.199971,-0.602667,0.693599,-0.39460300000000004,1.6427599999999998,-1.544946,0.82685,-0.9135530000000001,1.384206,-0.721333
709,-0.981308,-0.764436,-2.143968,-0.599955,0.69213,-0.40125900000000003,1.5178719999999999,-1.068286,1.0806719999999999,0.059824,-0.47112200000000004,-0.332964
710,-0.9664799999999999,-0.772579,-2.1164389999999997,-0.589282,0.697984,-0.406894,-0.06626900000000001,0.206641,0.641752,0.097415,-0.6460130000000001,-0.198727
711,-0.96847,-0.785299,-2.145518,-0.582727,0.707037,-0.400658,-1.89625,1.141217,-0.5162939999999999,-1.1053680000000001,-0.564535,0.443063
712,-1.0096,-0.798741,-2.2162580000000003,-0.590608,0.716478,-0.371267,-2.471088,-0.29689299999999996,-0.8197049999999999,-1.150267,0.194731,-0.094721
713,-1.0650309999999998,-0.7982,-2.271572,-0.6106090000000001,0.716101,-0.338163,-0.997835,-0.378618,-1.106275,-0.01964,0.735742,0.370741
714,-1.081705,-0.785424,-2.298121,-0.624189,0.707125,-0.332206,-0.729101,-0.23324099999999998,-0.9315319999999999,0.42060600000000004,-0.009173,1.1221079999999999
715,-1.143478,-0.7932319999999999,-2.352516,-0.638462,0.7126239999999999,-0.290742,-2.4982450000000003,-1.4497790000000002,-0.199916,0.538547,-0.1746,1.129243
716,-1.214803,-0.8202780000000001,-2.430383,-0.639255,0.7313350000000001,-0.237698,-3.242505,-0.092238,0.34968899999999997,0.378848,-0.26936,0.83894
717,-1.2827899999999999,-0.845575,-2.531028,-0.63598,0.7483529999999999,-0.188404,-3.838592,0.247175,-0.096085,0.24672800000000003,-0.22567800000000002,0.693958
718,-1.377651,-0.8569760000000001,-2.649036,-0.642551,0.755866,-0.125672,-3.7689699999999995,-0.684055,-0.377485,0.035769999999999996,0.051248,0.8395239999999999
719,-1.461307,-0.8667389999999999,-2.736944,-0.6434380000000001,0.7622220000000001,-0.070732,-2.288811,-0.691709,0.252433,0.136221,0.380463,0.7746810000000001
720,-1.4940309999999999,-0.870367,-2.7786939999999998,-0.6426470000000001,0.764566,-0.04943,-0.885342,0.39074699999999996,-0.198486,0.196144,0.613959,0.518317
721,-1.487235,-0.855391,-2.794002,-0.653634,0.754827,-0.054746,-0.266664,1.13044,-1.096695,0.235879,0.44101899999999994,0.09463200000000001
722,-1.477841,-0.831299,-2.804713,-0.671006,0.738807,-0.062554,-0.36446,0.221194,-1.136806,0.191621,0.159493,-0.48169700000000004
723,-1.528877,-0.825665,-2.825491,-0.6774720000000001,0.734999,-0.028416000000000004,-0.758103,-2.735643,0.17601,0.325924,0.158968,-0.066143
724,-1.6038540000000001,-0.8365239999999999,-2.846955,-0.66968,0.742319,0.022146000000000002,-0.720396,-2.8624400000000003,0.682773,0.20834499999999997,-0.049722,0.036188
725,-1.671334,-0.8534370000000001,-2.880134,-0.654076,0.753545,0.065981,-1.430074,-1.3201200000000002,1.0806959999999999,0.182747,-0.115651,0.424756
726,-1.71983,-0.871432,-2.96312,-0.636594,0.765251,0.095582,-3.108534,1.638017,1.237165,0.133512,-0.150795,0.28332399999999996
727,-1.763195,-0.8814219999999999,-3.0823150000000004,-0.624316,0.771644,0.12162200000000001,-3.8989629999999997,2.65784,1.034852,0.043597000000000004,-0.06478099999999999,0.052313
728,-1.81267,-0.879724,3.074424,-0.618809,0.770563,0.15266300000000002,-3.934107,2.209214,0.569437,-0.264018,-0.091882,-0.275938
729,-1.840919,-0.85865,2.9890830000000004,-0.629762,0.756961,0.174375,-1.929198,1.546426,-0.8535360000000001,-0.301481,-0.27576,-0.6060770000000001
730,-1.846715,-0.839007,2.976962,-0.642926,0.74398,0.182039,-0.164097,-0.622644,-0.743356,0.128689,0.08391599999999999,-0.022889
731,-1.8612490000000002,-0.8233659999999999,2.977983,-0.651283,0.733438,0.194672,-0.347219,-0.5781649999999999,-0.785284,0.13416199999999998,0.13767100000000002,0.178725
732,-1.8721310000000002,-0.805776,2.965184,-0.661345,0.721368,0.20554499999999998,-0.829009,0.11333800000000001,-0.6688270000000001,0.102903,0.173468,0.09468700000000001
733,-1.886253,-0.786673,2.947086,-0.671355,0.708008,0.2191,-0.886914,-0.285551,-0.7659279999999999,0.05439600000000001,0.19622799999999999,-0.022109
734,-1.916677,-0.766158,2.9328369999999997,-0.6779029999999999,0.693372,0.244294,-0.7740819999999999,-1.569443,-0.8051550000000001,0.17314200000000002,0.18440499999999999,-0.345521
735,-1.975954,-0.747532,2.923437,-0.673994,0.6798310000000001,0.289067,-0.439709,-3.0219650000000002,-0.690932,0.23322800000000002,0.24639299999999997,-0.58878
736,-2.00137,-0.739201,2.93905,-0.671553,0.6736979999999999,0.30845500000000003,0.565345,-1.0061360000000001,-0.578604,0.067717,0.434121,-0.39807
737,-1.998476,-0.7306229999999999,2.943391,-0.6776770000000001,0.667334,0.308896,-0.438651,0.609374,-0.379384,0.14661,0.46212200000000003,-0.204556
738,-1.979105,-0.721512,2.935938,-0.6890850000000001,0.660521,0.298113,-0.21479,1.364599,-0.29333000000000004,0.150892,0.49345600000000006,-0.286898
739,-1.9538630000000001,-0.718843,2.948862,-0.698022,0.658514,0.28128400000000003,0.7536390000000001,0.33647,-0.299135,0.137551,0.502451,-0.459308
740,-1.930257,-0.7247399999999999,2.985525,-0.700819,0.662941,0.263359,1.7922099999999999,0.08418099999999999,-0.179394,0.14131,0.757088,-0.592705
741,-1.87104,-0.738819,3.0459970000000003,-0.706191,0.673416,0.218639,2.6425959999999997,1.519471,0.057579,0.116408,0.774094,-0.5542560000000001
742,-1.7800189999999998,-0.760522,3.1219770000000002,-0.708675,0.6893,0.150473,3.190783,2.1485830000000004,0.49750500000000003,0.131451,0.7017220000000001,-0.449133
743,-1.665473,-0.784343,-3.059726,-0.70468,0.70636,0.06691699999999999,4.075193,1.8921130000000002,0.730474,-0.058228999999999996,0.566665,0.41710699999999995
744,-1.555672,-0.809802,-2.939241,-0.689561,0.724151,-0.01043,4.289649,1.08673,1.351505,-0.122802,0.676041,1.084862
745,-1.4212879999999999,-0.8326520000000001,-2.8101540000000003,-0.665408,0.739719,-0.100232,4.308273000000001,2.3195509999999997,1.52738,-0.495435,0.479947,0.817761
746,-1.2892379999999999,-0.843908,-2.681095,-0.638379,0.747246,-0.184646,3.7982150000000003,1.434574,1.370059,-0.898365,0.475578,0.48060600000000003
747,-1.2081520000000001,-0.8428829999999999,-2.587718,-0.622041,0.7465649999999999,-0.23601799999999998,2.4476169999999997,-0.179317,0.676894,-0.9461510000000001,0.388552,0.274683
748,-1.20771,-0.84195,-2.534107,-0.622588,0.745943,-0.23654,1.261341,-2.950443,0.7255699999999999,-0.588426,-0.037874,0.207777
749,-1.208595,-0.8503350000000001,-2.473348,-0.616926,0.751501,-0.233765,2.833126,-0.361437,1.1306100000000001,-0.29748800000000003,-0.06464199999999999,0.466247
750,-1.095194,-0.830041,-2.360198,-0.5999479999999999,0.737959,-0.30899299999999996,3.9614580000000004,1.786676,0.29077600000000003,-0.091062,-0.12504400000000002,0.48486599999999996
751,-1.003976,-0.801816,-2.265802,-0.586649,0.71862,-0.373397,3.084835,0.7201420000000001,0.565893,0.412867,0.070137,0.636688
752,-0.941732,-0.793896,-2.197402,-0.566871,0.71309,-0.41250200000000004,1.790456,0.703527,1.313174,0.42311800000000005,0.032516,0.6946220000000001
753,-0.882609,-0.793603,-2.1284669999999997,-0.541668,0.712884,-0.44541000000000003,2.225151,0.212581,1.432208,0.41775100000000004,-0.060312,0.724783
754,-0.8319120000000001,-0.775181,-2.04403,-0.5280199999999999,0.699846,-0.481051,3.144646,-0.775042,1.1963409999999999,0.27416,-0.186113,0.813768
755,-0.7925770000000001,-0.74766,-1.9595049999999998,-0.522216,0.679925,-0.514772,3.05801,-0.9690989999999999,1.049639,0.110016,-0.382058,0.893709
756,-0.764051,-0.723731,-1.8878599999999999,-0.518432,0.662185,-0.541053,2.464757,-0.956484,1.073252,0.041458,-0.633315,0.885703
757,-0.751174,-0.708391,-1.833431,-0.518295,0.650612,-0.5550430000000001,1.7096369999999999,-1.329137,0.880448,-0.005768,-0.735726,0.919911
758,-0.757074,-0.700337,-1.798325,-0.525142,0.644476,-0.555766,0.8760700000000001,-1.4306219999999998,0.608768,0.088023,-0.8475090000000001,0.844814
759,-0.777995,-0.701956,-1.784316,-0.535921,0.645712,-0.5439149999999999,-0.014079,-1.562712,0.3143,0.239519,-0.778327,0.726517
760,-0.814721,-0.711064,-1.795973,-0.551229,0.65264,-0.519814,-1.045973,-1.349566,-0.145039,0.151693,-0.571967,0.027016000000000002
761,-0.8646299999999999,-0.7257140000000001,-1.834298,-0.5691390000000001,0.66367,-0.48540900000000003,-1.678698,-1.080376,-0.5802970000000001,-0.097564,0.363323,-1.6520419999999998
762,-0.9036860000000001,-0.731163,-1.8684630000000002,-0.584808,0.667736,-0.46057200000000004,-0.9900680000000001,-1.258242,-0.387252,-0.534119,1.625294,-0.6805869999999999
763,-0.9394889999999999,-0.744302,-1.8706009999999997,-0.5937859999999999,0.677459,-0.43412799999999996,0.446479,-1.176285,0.78063,-0.725978,0.805192,-0.792022
764,-0.926579,-0.744579,-1.8304099999999999,-0.587982,0.677662,-0.44164499999999995,1.120695,-0.720433,1.0165600000000001,0.038863999999999996,0.052623,-0.446966
765,-0.918011,-0.756799,-1.8028119999999999,-0.577554,0.6865979999999999,-0.44160299999999997,-0.03337,-0.390531,1.034781,0.382242,-0.466139,-0.322847
766,-0.9274889999999999,-0.775184,-1.8104189999999998,-0.571516,0.6998479999999999,-0.428464,-1.139202,0.094935,0.204972,-0.062792,-0.5747260000000001,-0.079181
767,-0.949759,-0.787277,-1.854324,-0.57399,0.708434,-0.41067600000000004,-1.877052,0.35728699999999997,-0.826011,-1.2598719999999999,0.115159,0.6750649999999999
768,-1.030412,-0.79338,-1.926193,-0.601491,0.712728,-0.36086599999999996,-2.463032,-2.606275,-1.125409,-1.2323709999999999,0.110865,0.625255
769,-1.086228,-0.805658,-1.978287,-0.612896,0.721287,-0.322648,-1.299311,0.938594,0.353392,0.48136599999999996,1.532833,0.37114
770,-1.063252,-0.817822,-1.9850759999999998,-0.5976100000000001,0.729658,-0.332354,-0.243881,0.421868,0.254604,0.066558,-0.552122,0.767931
771,-1.0804280000000002,-0.836274,-1.995991,-0.591251,0.742151,-0.315646,-1.269252,-0.629588,0.8833129999999999,0.020572,-0.57319,0.646502
772,-1.130196,-0.8752120000000001,-2.051207,-0.57963,0.76768,-0.273304,-3.2107069999999998,-0.120957,0.8445309999999999,0.069178,-0.58877,0.710178
773,-1.219018,-0.917524,-2.170218,-0.570567,0.794099,-0.20942399999999997,-4.811297,0.208598,0.271046,0.169917,-0.6168680000000001,0.649228
774,-1.369789,-0.9452,-2.3478060000000003,-0.573789,0.8106140000000001,-0.116915,-5.702285,-0.871495,-0.311701,0.09385399999999999,-0.5176149999999999,0.6862199999999999
775,-1.544308,-0.9524370000000001,-2.530336,-0.579494,0.8148310000000001,-0.015353,-4.726948999999999,-1.297717,-0.063993,-0.10886099999999999,-0.21465700000000001,0.843356
776,-1.630279,-0.956983,-2.634473,-0.574968,0.817457,0.034241,-1.98481,0.803603,0.339165,-0.051068999999999996,0.514818,0.6847840000000001
777,-1.632212,-0.9543799999999999,-2.671958,-0.577023,0.815956,0.035483,-0.7913939999999999,1.631199,-0.397042,0.116253,0.397255,0.506311
778,-1.6083610000000002,-0.938709,-2.688767,-0.590411,0.806796,0.022188999999999997,-0.388341,2.033399,-0.893602,0.270572,0.329679,0.331723
779,-1.582986,-0.921426,-2.700052,-0.604639,0.796465,0.007370999999999999,-0.584631,0.9343809999999999,-0.810243,0.34734499999999996,0.16592300000000001,-0.385194
780,-1.6450810000000002,-0.911374,-2.7410200000000002,-0.610969,0.790346,0.045469,-1.447281,-2.5265470000000003,-0.101466,0.24288099999999999,0.11569000000000002,-0.018415
781,-1.7259740000000001,-0.9156979999999999,-2.782052,-0.601915,0.792988,0.094161,-1.008122,-2.034001,0.485288,0.17827,0.066051,0.17619400000000002
782,-1.7698509999999998,-0.921583,-2.817586,-0.592621,0.79656,0.119547,-1.188178,0.15896,0.485493,0.111221,-0.101842,0.304342
783,-1.787581,-0.922415,-2.8862349999999997,-0.5897600000000001,0.797063,0.129892,-2.585609,2.7282919999999997,0.393391,0.127952,-0.13597599999999999,0.203817
784,-1.805278,-0.913753,-2.9980439999999997,-0.594062,0.791802,0.141907,-3.836918,3.885539,0.323347,0.130165,-0.14463099999999998,0.136581
785,-1.8455830000000002,-0.896324,-3.1328840000000002,-0.601055,0.781036,0.16944800000000002,-4.413703,2.580228,0.11161900000000001,0.048214,-0.011475,-0.16275
786,-1.922882,-0.870648,3.019342,-0.604803,0.764746,0.222201,-4.1576260000000005,0.562203,-0.012193,0.07448400000000001,0.039895,-0.091387
787,-1.983886,-0.840461,2.930132,-0.611003,0.744951,0.267808,-2.570624,0.409584,-0.516863,0.087519,-0.005418,0.0030510000000000003
788,-1.988938,-0.815733,2.901599,-0.626287,0.728228,0.27828800000000004,-0.8453809999999999,0.8288030000000001,-0.821543,0.048498,0.085797,-0.134947
789,-1.99006,-0.7929350000000001,2.8990400000000003,-0.640976,0.7124159999999999,0.28567600000000004,-0.496576,-0.666878,-1.115224,0.005325,0.44066000000000005,-0.442964
790,-2.044537,-0.767612,2.8927,-0.640321,0.694419,0.32828,-0.912536,-3.5519550000000004,-0.943517,0.38502600000000003,0.517556,-0.670291
791,-2.090313,-0.753937,2.893606,-0.632812,0.6845140000000001,0.36191799999999996,0.20950300000000002,-0.7752829999999999,-0.459606,0.35031100000000004,0.681025,-0.43580100000000005
792,-2.076461,-0.749527,2.897826,-0.6404,0.681292,0.354577,-0.321261,0.892279,-0.101186,0.08659800000000001,0.46580200000000005,-0.269509
793,-2.069299,-0.7437729999999999,2.878978,-0.646356,0.6770689999999999,0.35185,-0.784672,1.020868,0.111193,-0.265189,0.40673200000000004,-0.522672
794,-2.053245,-0.742218,2.8729459999999998,-0.6528520000000001,0.675925,0.341917,0.141676,0.960614,-0.009378000000000001,-0.21930999999999998,0.353098,-0.651319
795,-2.0284020000000003,-0.74584,2.88511,-0.658944,0.678589,0.324511,0.626753,0.8567549999999999,-0.031494,-0.091513,0.435883,-0.720232
796,-1.983095,-0.7556039999999999,2.912216,-0.666863,0.685728,0.291664,1.498884,1.7705380000000002,0.06742999999999999,0.208779,0.692858,-0.612038
797,-1.896251,-0.7766890000000001,2.965861,-0.675797,0.700921,0.22805,2.521168,2.683659,0.467575,0.179093,0.611212,-0.580589
798,-1.7920189999999998,-0.809042,3.0451919999999997,-0.673371,0.723626,0.151444,3.53166,2.28072,0.988964,0.098603,0.563285,-0.545319
799,-1.675757,-0.8461350000000001,-3.127456,-0.659233,0.748724,0.069449,4.165109999999999,1.211552,1.412434,-0.334206,0.716364,0.8446290000000001
800,-1.5479969999999998,-0.881866,-2.9917380000000002,-0.635546,0.771926,-0.014493,4.6832400000000005,1.766225,1.579848,-0.252576,0.6351939999999999,1.287396
801,-1.384603,-0.8990940000000001,-2.833809,-0.611563,0.782763,-0.115203,4.830843,1.729861,1.2220030000000002,-0.962274,0.5556,0.683608
802,-1.264577,-0.889911,-2.702076,-0.600197,0.777016,-0.18976099999999999,3.472658,0.356412,0.08089299999999999,-1.239524,0.178886,0.526507
