,attitude.roll,attitude.pitch,attitude.yaw,gravity.x,gravity.y,gravity.z,rotationRate.x,rotationRate.y,rotationRate.z,userAcceleration.x,userAcceleration.y,userAcceleration.z
0,-0.868976,-1.373824,-1.950924,-0.14943499999999998,0.980664,-0.126333,1.582955,-1.268357,1.6935470000000001,-0.335382,0.370273,0.282583
1,-0.647066,-1.367043,-1.696767,-0.121973,0.9793139999999999,-0.161428,2.1625509999999997,-1.128058,1.537183,0.039331,0.096858,0.41744
2,-0.43499399999999994,-1.346017,-1.4644540000000001,-0.09392,0.974843,-0.202119,2.170224,-0.5710930000000001,1.5739100000000001,0.12542999999999999,0.023021,0.47921800000000003
3,-0.27589400000000003,-1.312408,-1.2901280000000002,-0.069602,0.9668030000000001,-0.245846,2.391331,-0.64813,1.200608,0.18119000000000002,-0.236075,0.47491099999999997
4,-0.196448,-1.268278,-1.1823569999999999,-0.058149,0.9545889999999999,-0.29218299999999997,2.475053,-1.603607,0.8434940000000001,0.15019000000000002,-0.30557199999999995,0.464333
5,-0.171565,-1.224911,-1.1086850000000001,-0.05787899999999999,0.9407760000000001,-0.334042,2.28688,-2.524996,0.721583,0.132616,-0.280238,0.553937
6,-0.171873,-1.182597,-1.050777,-0.064736,0.925592,-0.37293699999999996,2.200554,-2.820525,0.642311,-0.006919,-0.29262699999999997,0.52908
7,-0.18059,-1.14701,-0.9996389999999999,-0.073857,0.911539,-0.40452,1.759011,-2.720182,0.707462,-0.182857,-0.340143,0.56074
8,-0.191355,-1.1210129999999998,-0.953881,-0.082687,0.900541,-0.426828,1.266816,-2.5470200000000003,0.720893,-0.235031,-0.376463,0.608102
9,-0.200961,-1.105928,-0.911634,-0.08948500000000001,0.8938809999999999,-0.43927700000000003,0.717316,-2.2354540000000003,0.80425,-0.267753,-0.494787,0.676597
10,-0.201651,-1.1012520000000001,-0.869727,-0.090625,0.891775,-0.443305,0.22768400000000003,-1.618527,0.9292940000000001,-0.204373,-0.519353,0.563407
11,-0.183245,-1.106692,-0.826471,-0.081565,0.894223,-0.440122,-0.24868400000000002,-0.659701,1.056129,-0.152321,-0.514035,0.47480500000000003
12,-0.147839,-1.121076,-0.781083,-0.064033,0.9005690000000001,-0.429965,-0.752196,-0.108517,1.117068,-0.09914500000000001,-0.46599799999999997,0.22064499999999998
13,-0.110581,-1.146621,-0.7422880000000001,-0.045418,0.911379,-0.409048,-1.392691,0.27714099999999997,0.866408,-0.11582100000000001,-0.426393,0.001196
14,-0.07270800000000001,-1.179727,-0.714864,-0.02769,0.924502,-0.380162,-1.631254,0.813824,0.594862,-0.128667,-0.31499,-0.18606099999999998
15,-0.044263,-1.2064290000000002,-0.6995,-0.015768,0.934349,-0.356001,-1.041768,0.290375,0.184112,-0.37748200000000004,0.5284949999999999,-0.9236780000000001
16,-0.072643,-1.2136770000000001,-0.714681,-0.025371,0.936908,-0.348646,0.188845,-0.95663,-0.457309,-0.015643999999999998,1.510312,-1.0222950000000002
17,-0.099886,-1.1954719999999999,-0.720891,-0.036554,0.9303889999999999,-0.364739,1.066049,-1.1819629999999999,-0.012922,0.026712,0.113266,-0.272377
18,-0.11169200000000001,-1.176401,-0.714187,-0.042828,0.9232290000000001,-0.381848,0.811963,-0.7029350000000001,0.027418,-0.089176,-0.20621799999999998,-0.21223699999999998
19,-0.11393099999999999,-1.168569,-0.713869,-0.044502999999999994,0.920191,-0.388923,0.11190499999999999,0.36404000000000003,-0.05681900000000001,-0.392096,-0.392176,-0.12401600000000002
20,-0.105452,-1.180749,-0.7236020000000001,-0.040021,0.924891,-0.378112,-1.145063,0.8570459999999999,-0.24462399999999998,-0.702166,0.372717,0.015837999999999998
21,-0.136991,-1.205858,-0.771762,-0.048737,0.9341459999999999,-0.353538,-1.101847,0.719229,-0.9812190000000001,-0.744568,1.108472,0.171348
22,-0.173415,-1.1958739999999999,-0.8435219999999999,-0.063185,0.930536,-0.360699,1.052973,1.608439,-1.4426649999999999,-0.22929499999999997,0.742499,0.848126
23,-0.214941,-1.180464,-0.893334,-0.08115399999999999,0.924783,-0.371732,-0.020611,-0.360363,-0.736206,0.11786700000000001,-0.7906880000000001,1.217557
24,-0.234267,-1.199806,-0.9213469999999999,-0.08415399999999999,0.931969,-0.352627,-1.565613,1.054617,-0.00426,0.26816,-1.1708450000000001,1.020977
25,-0.202579,-1.247893,-0.935791,-0.063841,0.948318,-0.310821,-2.917089,2.863666,0.31513,0.156584,-0.47540299999999996,0.672409
26,-0.165773,-1.318427,-0.9680059999999999,-0.041201,0.968324,-0.24625999999999998,-3.7781059999999997,3.586608,0.09134099999999999,0.12405699999999999,0.5620569999999999,1.005126
27,-0.152522,-1.38364,-1.018617,-0.028266000000000003,0.9825370000000001,-0.183884,-2.780893,2.691936,-0.013779,0.321677,0.764502,0.346527
28,-0.161913,-1.4207450000000001,-1.0694569999999999,-0.024094,0.988763,-0.147504,-1.5236969999999999,1.601897,-0.23860900000000002,0.368561,0.642889,0.127729
29,-0.235881,-1.4511049999999999,-1.1721469999999998,-0.027895999999999997,0.9928459999999999,-0.11606099999999998,-1.846944,1.61566,-0.469484,0.12352300000000001,-0.10588299999999999,0.16888699999999998
30,-0.43308599999999997,-1.4874209999999999,-1.420934,-0.034926,0.996526,-0.075538,-2.187863,2.984257,-0.635989,-0.138735,-0.20238299999999998,0.19908800000000001
31,-0.779342,-1.515342,-1.820815,-0.038893000000000004,0.9984629999999999,-0.039367,-1.664204,2.057734,-0.091692,-0.430529,-0.126103,0.095061
32,-1.291483,-1.529655,-2.349193,-0.039417,0.9991540000000001,-0.011304999999999999,-1.380927,0.186503,-0.185592,-0.160381,-0.12832000000000002,-0.004137
33,-1.941744,-1.519585,-3.002123,-0.047614,0.9986889999999999,0.01852,-1.621408,0.26525,-0.48861099999999996,-0.036889,-0.056474,0.039906
34,-2.323636,-1.493263,2.884331,-0.056473,0.9969959999999999,0.052910000000000006,-1.7708700000000002,0.8978229999999999,-0.308868,0.080323,0.021757,0.104225
35,-2.505948,-1.467918,2.679795,-0.060937,0.994713,0.082594,-1.359375,1.256736,-0.11203699999999998,0.386682,0.047370999999999996,0.026247000000000003
36,-2.5719540000000003,-1.448065,2.57913,-0.066,0.9924780000000001,0.103052,-1.111538,1.853288,-0.059796,0.327322,-0.035157,-0.270654
37,-2.629957,-1.4276389999999999,2.488261,-0.06983099999999999,0.98977,0.12436400000000002,-1.215287,1.36345,-0.017164,0.09802999999999999,-0.060358,-0.082082
38,-2.6642349999999997,-1.40457,2.434096,-0.076002,0.986216,0.14693299999999998,-1.1770209999999999,0.792479,-0.320608,0.063414,-0.139445,0.019571
39,-2.662087,-1.378739,2.418161,-0.088045,0.981614,0.169323,-1.249884,0.988519,-0.53074,0.089662,-0.083848,-0.184246
40,-2.646791,-1.3501889999999999,2.4085400000000003,-0.103896,0.975765,0.192552,-1.338272,1.423766,-0.607759,0.059080999999999995,0.024235,-0.23369
41,-2.62143,-1.3202,2.4036049999999998,-0.12323900000000002,0.968765,0.21516100000000002,-1.315388,1.41987,-0.718689,-0.037329,0.052689,-0.23951399999999998
42,-2.601223,-1.29118,2.404101,-0.141969,0.9611620000000001,0.23664200000000002,-1.199804,0.75805,-0.748012,0.016985,0.032781,-0.244775
43,-2.5832450000000002,-1.26488,2.409908,-0.15954200000000002,0.953571,0.25540999999999997,-1.009056,0.697771,-0.757285,0.44099099999999997,0.216396,-0.249231
44,-2.556054,-1.243087,2.41653,-0.177872,0.946782,0.26823800000000003,-0.769521,1.221458,-0.591776,0.43861400000000006,0.31135100000000004,-0.280933
45,-2.529705,-1.228459,2.418717,-0.192813,0.941973,0.274767,-0.48281,1.141805,-0.36855,0.17064200000000002,0.23887399999999998,-0.339097
46,-2.503805,-1.218998,2.425414,-0.20516199999999998,0.9387540000000001,0.27683,-0.21516,0.8459030000000001,-0.39514299999999997,0.133674,0.227475,-0.307408
47,-2.473289,-1.212608,2.446663,-0.21722600000000003,0.936533,0.275145,0.073594,0.377834,-0.542077,0.189058,0.28275100000000003,-0.38190999999999997
48,-2.435516,-1.2083190000000001,2.478075,-0.23006500000000002,0.9350209999999999,0.26979899999999996,0.25876,0.49231,-0.55909,0.157449,0.317679,-0.49202799999999997
49,-2.381182,-1.2085700000000001,2.524162,-0.24421700000000002,0.93511,0.256737,0.812267,0.586645,-0.653621,0.050247,0.308893,-0.44265
50,-2.288281,-1.217751,2.613098,-0.26050100000000004,0.9383239999999999,0.22732,1.803725,0.32895399999999997,-0.7403689999999999,0.121875,0.43199099999999996,-0.48726899999999995
51,-2.15941,-1.236278,2.7421029999999997,-0.273047,0.9445690000000001,0.182272,2.586586,0.5615680000000001,-0.449984,0.46211800000000003,0.23443200000000003,-0.08656900000000001
52,-1.9918630000000002,-1.265622,2.908067,-0.27419699999999997,0.9537950000000001,0.1228,3.157506,0.18571500000000002,0.338561,0.464275,0.278902,-0.028957999999999998
53,-1.8202619999999998,-1.301194,3.104773,-0.258083,0.9638770000000001,0.065752,3.179325,-1.4531530000000001,0.9699959999999999,0.334285,0.376776,0.133329
54,-1.626177,-1.33345,-2.93677,-0.23474099999999998,0.971965,0.013013,3.2771529999999998,-2.07096,1.138113,-0.178681,0.7629739999999999,0.321826
55,-1.383708,-1.34944,-2.656804,-0.21569899999999997,0.9756,-0.040832,2.970821,-1.097621,0.952061,-0.296325,0.699876,0.202316
56,-1.120374,-1.354139,-2.381814,-0.19350599999999998,0.976621,-0.093575,2.5996770000000002,0.23278800000000002,1.303481,-0.348029,0.424853,0.196205
57,-0.883877,-1.355473,-2.13748,-0.165188,0.976907,-0.135482,1.9019279999999998,-0.640636,1.61592,-0.42291599999999996,0.361502,0.268569
58,-0.681277,-1.350379,-1.9101279999999998,-0.137681,0.975806,-0.16981400000000002,2.0174,-1.026901,1.4110479999999999,-0.077651,0.073922,0.440474
59,-0.506954,-1.328436,-1.712304,-0.116513,0.970774,-0.209794,2.2369380000000003,-0.7384430000000001,1.278684,-0.098819,0.078954,0.480455
60,-0.35238400000000003,-1.298036,-1.5371920000000001,-0.092972,0.963031,-0.252825,2.350847,-0.683887,1.389437,0.17244,-0.015872,0.43594499999999997
61,-0.240977,-1.2596450000000001,-1.402703,-0.073062,0.951982,-0.297297,2.4158180000000002,-1.124417,1.209926,0.252139,-0.20690999999999998,0.469355
62,-0.185744,-1.218138,-1.307892,-0.06378500000000001,0.938458,-0.339444,2.300332,-2.100047,1.003134,0.21757800000000002,-0.240521,0.5305300000000001
63,-0.172346,-1.176218,-1.238546,-0.065924,0.9231590000000001,-0.378716,2.274829,-2.746861,0.807232,0.10295699999999999,-0.324846,0.658898
64,-0.177263,-1.136678,-1.181669,-0.074168,0.907241,-0.414013,2.053389,-2.893041,0.791986,-0.10466500000000001,-0.38809099999999996,0.643292
65,-0.189353,-1.104805,-1.1314600000000001,-0.084569,0.8933760000000001,-0.44127200000000005,1.60114,-2.889248,0.768526,-0.253276,-0.43437700000000007,0.712741
66,-0.209382,-1.081464,-1.08883,-0.09769800000000001,0.882647,-0.459765,1.165268,-2.8342509999999996,0.713068,-0.240146,-0.42364700000000005,0.731234
67,-0.22831100000000001,-1.069451,-1.053042,-0.108775,0.8769370000000001,-0.468128,0.5042300000000001,-2.288554,0.68425,-0.219639,-0.533324,0.727604
68,-0.240302,-1.0711190000000002,-1.0240790000000002,-0.114033,0.8777370000000001,-0.465369,-0.154363,-1.605717,0.72364,-0.129925,-0.564856,0.533759
69,-0.239184,-1.084843,-0.996916,-0.110648,0.88423,-0.45375,-0.729726,-0.853132,0.8308200000000001,-0.06582,-0.565871,0.417235
70,-0.224057,-1.110352,-0.9707379999999999,-0.098727,0.895855,-0.433233,-1.328517,-0.160904,0.867411,-0.060987,-0.44564499999999996,0.165975
71,-0.201219,-1.145277,-0.9516030000000001,-0.082501,0.910824,-0.404458,-1.734214,0.5740350000000001,0.7119479999999999,-0.128788,-0.198071,-0.24224
72,-0.168876,-1.178404,-0.9371860000000001,-0.06427000000000001,0.923997,-0.376952,-1.3320239999999999,1.017908,0.450338,-0.288238,0.253387,-0.8797010000000001
73,-0.16101400000000002,-1.197557,-0.9392219999999999,-0.058455999999999994,0.9311510000000001,-0.359908,-0.656379,0.030379000000000003,-0.130131,-0.43106099999999997,1.177446,-1.1100780000000001
74,-0.17088499999999998,-1.1876719999999998,-0.9442879999999999,-0.063568,0.927501,-0.36836599999999997,1.023549,-0.639692,0.014921,0.307678,1.578358,-0.77203
75,-0.177041,-1.163381,-0.9238129999999999,-0.069783,0.918148,-0.39003499999999997,1.271249,-1.393267,0.172509,0.060216,0.100529,-0.172693
76,-0.187776,-1.144328,-0.91105,-0.077218,0.910432,-0.406379,0.756359,-0.703903,0.05372999999999999,-0.111671,-0.560411,0.042426
77,-0.174514,-1.1421709999999998,-0.899459,-0.072163,0.909538,-0.4093,-0.286043,0.45891099999999996,0.27462600000000004,-0.371212,-0.708076,-0.208925
78,-0.17790699999999998,-1.163776,-0.911236,-0.070056,0.9183049999999999,-0.38961799999999996,-1.562965,0.167345,-0.295804,-0.6376,-0.031006,-0.179642
79,-0.236681,-1.198002,-0.980706,-0.085399,0.931313,-0.354055,-1.945527,0.885552,-1.347323,-0.273564,0.9003969999999999,0.9933219999999999
80,-0.264824,-1.199805,-1.06907,-0.094888,0.931969,-0.34989000000000003,0.623981,3.121124,-1.333307,-0.256705,1.3790360000000002,0.606375
81,-0.268993,-1.184401,-1.101679,-0.10015,0.9262739999999999,-0.36329,0.010757,0.537312,-0.407063,0.048255,-0.11574200000000001,1.023508
82,-0.272284,-1.202887,-1.113237,-0.096723,0.9330809999999999,-0.346406,-1.423865,0.399801,0.325506,0.08971900000000001,-1.038611,0.6455390000000001
83,-0.263943,-1.251886,-1.128817,-0.081794,0.949578,-0.302662,-3.068079,1.7766110000000002,0.300507,-0.025216,-0.562966,0.776097
84,-0.272111,-1.319599,-1.187662,-0.066801,0.968615,-0.239402,-3.4739410000000004,2.6025400000000003,0.034899,0.180662,0.16641,0.874
85,-0.289116,-1.376837,-1.261423,-0.054946,0.9812489999999999,-0.184723,-2.681972,2.78884,-0.087994,0.261214,0.63394,0.384598
86,-0.36633899999999997,-1.417408,-1.391133,-0.054716999999999995,0.988259,-0.142619,-2.0512259999999998,2.39427,-0.5296,0.25151,0.38047,0.222408
87,-0.527822,-1.446602,-1.60002,-0.06237,0.9922979999999999,-0.106982,-1.929359,2.237034,-0.741123,0.119941,0.02615,0.14163499999999998
88,-0.762936,-1.4670159999999999,-1.8768630000000002,-0.071555,0.9946200000000001,-0.07484400000000001,-1.592283,1.574179,-0.437749,-0.18909600000000001,-0.105353,0.119308
89,-1.020422,-1.482251,-2.142084,-0.075323,0.996082,-0.04622,-1.433172,-0.362656,-0.268581,-0.145517,-0.11853399999999999,0.05575700000000001
90,-1.4022700000000001,-1.485019,-2.514904,-0.0844,0.996323,-0.01436,-1.652082,-0.369609,-0.47092700000000004,0.000599,-0.183076,0.09047100000000001
91,-1.78745,-1.4767139999999999,-2.90468,-0.09169400000000001,0.9955780000000001,0.020183,-1.7694590000000001,0.51321,-0.295553,0.106175,-0.088992,0.131841
92,-2.060035,-1.460395,3.086205,-0.097209,0.9939120000000001,0.051754999999999995,-1.582965,1.020376,-0.214784,0.16994700000000001,-0.063553,0.047931
93,-2.229802,-1.441175,2.891189,-0.10215700000000001,0.991611,0.079122,-1.458025,1.348846,-0.148102,0.11058,-0.10600599999999999,-0.092397
94,-2.333322,-1.4205780000000001,2.761478,-0.10818599999999999,0.9887379999999999,0.10334700000000001,-1.320383,1.025944,-0.236458,0.054765,-0.095169,0.014756
95,-2.4002220000000003,-1.396507,2.681775,-0.11707999999999999,0.98485,0.127872,-1.305991,0.44196599999999997,-0.46313999999999994,0.050918,-0.097475,0.019055000000000002
96,-2.4398880000000003,-1.3697030000000001,2.63072,-0.128918,0.979849,0.152528,-1.340907,0.654438,-0.553387,0.19772,-0.015263999999999998,-0.166597
97,-2.461153,-1.34121,2.5869720000000003,-0.14315799999999998,0.9737610000000001,0.176872,-1.422179,1.3449389999999999,-0.533475,0.158616,0.020638999999999998,-0.183952
98,-2.468225,-1.312247,2.548547,-0.159432,0.9667620000000001,0.199852,-1.3947690000000001,1.474944,-0.5676329999999999,0.005364,0.077519,-0.193031
99,-2.4668240000000003,-1.283941,2.526909,-0.176742,0.9591379999999999,0.220915,-1.215344,0.8932770000000001,-0.716254,0.0017690000000000002,0.10896199999999999,-0.28221
100,-2.45724,-1.257344,2.520853,-0.194914,0.951275,0.238898,-1.006421,0.786284,-0.780887,0.25407199999999996,0.22937399999999997,-0.21979400000000002
101,-2.4347790000000002,-1.234984,2.524404,-0.213993,0.9441430000000001,0.250576,-0.70676,1.042838,-0.729985,0.343159,0.290919,-0.25874
102,-2.407142,-1.218858,2.53134,-0.23101,0.9387059999999999,0.255835,-0.424857,1.041125,-0.546416,0.35330900000000004,0.23413,-0.273444
103,-2.382113,-1.209365,2.542063,-0.243466,0.935392,0.256425,-0.102364,0.512213,-0.42598100000000005,0.43450600000000006,0.31547800000000004,-0.29179499999999997
104,-2.361475,-1.203509,2.558723,-0.25255500000000003,0.9333049999999999,0.255236,0.027369,0.19531199999999999,-0.409714,0.33071,0.39961199999999997,-0.413546
105,-2.339684,-1.199882,2.575934,-0.26048699999999997,0.9319959999999999,0.252025,0.16423,0.35849699999999995,-0.311758,0.217824,0.371257,-0.458842
106,-2.294911,-1.201025,2.616031,-0.27070900000000003,0.9324100000000001,0.23940799999999998,0.9101600000000001,0.35065,-0.5938899999999999,-0.038541000000000006,0.258203,-0.494047
107,-2.196427,-1.2083139999999999,2.71201,-0.28742,0.935019,0.20764499999999997,1.960478,0.44813400000000003,-0.840915,0.165655,0.423257,-0.42897399999999997
108,-2.054805,-1.223023,2.851377,-0.301644,0.940134,0.158579,2.659841,0.722166,-0.44648000000000004,0.316064,0.490255,-0.290385
109,-1.8869209999999998,-1.248146,3.014558,-0.301352,0.948399,0.09857,3.112041,0.392083,0.453342,0.40813299999999997,0.10519,-0.013425999999999999
110,-1.7315650000000002,-1.2806309999999999,-3.086643,-0.282404,0.958197,0.045797000000000004,2.9683349999999997,-1.6567419999999997,1.184559,0.19423800000000002,0.29967699999999997,0.306193
111,-1.563264,-1.3130620000000002,-2.8690439999999997,-0.254864,0.9669700000000001,-0.0019199999999999998,3.075494,-2.007559,1.443199,0.018047999999999998,0.506907,0.34077199999999996
112,-1.348359,-1.331438,-2.623152,-0.231219,0.97149,-0.052297,2.763139,-0.647875,1.0835569999999999,-0.34981999999999996,0.875373,0.240774
113,-1.114455,-1.3363260000000001,-2.38355,-0.208537,0.9726379999999999,-0.102371,2.4455270000000002,0.39191,1.339584,-0.246419,0.39973800000000004,0.285995
114,-0.897575,-1.339939,-2.1566110000000003,-0.178875,0.9734709999999999,-0.142655,1.8060490000000002,-0.943399,1.7566389999999998,-0.314182,0.407129,0.229356
115,-0.7152609999999999,-1.3404209999999999,-1.9343650000000001,-0.149739,0.9735809999999999,-0.172368,1.947513,-1.851107,1.657309,-0.120281,0.324164,0.410847
116,-0.537679,-1.325783,-1.7224490000000001,-0.124222,0.970134,-0.208329,2.0747259999999996,-1.124863,1.615607,0.122376,0.023106,0.47343500000000005
117,-0.371266,-1.299816,-1.536724,-0.097107,0.9635090000000001,-0.249427,2.263754,-0.5209060000000001,1.4655340000000001,0.160919,-0.11960599999999999,0.494071
118,-0.262425,-1.2631700000000001,-1.402395,-0.07855,0.9530549999999999,-0.292419,2.3425439999999997,-1.361418,1.133876,0.145978,-0.246131,0.505432
119,-0.210808,-1.224027,-1.304134,-0.071114,0.940476,-0.332327,2.212143,-2.4100759999999997,1.087307,0.099114,-0.29689,0.5964109999999999
120,-0.189047,-1.186762,-1.2192379999999998,-0.070406,0.927161,-0.367981,2.096437,-3.184311,1.132356,0.073992,-0.28882399999999997,0.634262
121,-0.190582,-1.15117,-1.145821,-0.077176,0.913241,-0.400036,1.9353330000000002,-3.515739,1.037652,0.001996,-0.288348,0.685634
122,-0.202266,-1.12289,-1.083782,-0.087,0.9013559999999999,-0.424245,1.440359,-3.3093,0.990133,-0.120626,-0.366352,0.718907
123,-0.215333,-1.105591,-1.029831,-0.095854,0.8937299999999999,-0.43823999999999996,0.8947510000000001,-2.924983,0.992239,-0.21495300000000003,-0.495796,0.74839
124,-0.22028000000000003,-1.099175,-0.979507,-0.099271,0.890833,-0.44334799999999996,0.306012,-2.105068,1.05651,-0.29989899999999997,-0.6032810000000001,0.6551239999999999
125,-0.20808800000000002,-1.104314,-0.9351799999999999,-0.092912,0.893156,-0.44004,-0.198622,-0.959034,1.011993,-0.295348,-0.6329020000000001,0.46479
126,-0.18317999999999998,-1.117669,-0.896583,-0.07974400000000001,0.8990819999999999,-0.43044899999999997,-0.7117140000000001,-0.29331799999999997,0.9445309999999999,-0.24652,-0.612187,0.26756199999999997
127,-0.159185,-1.143435,-0.868137,-0.065698,0.910063,-0.409224,-1.390966,0.030625,0.709703,-0.131796,-0.456999,0.095702
128,-0.13813599999999998,-1.1749459999999998,-0.8518120000000001,-0.053094,0.9226690000000001,-0.381913,-1.493599,0.460172,0.47235900000000003,-0.079596,-0.096787,-0.353225
129,-0.128666,-1.19858,-0.8454860000000001,-0.046662999999999996,0.931524,-0.360667,-0.923683,-0.327617,0.11629,-0.09550299999999999,0.168147,-0.6637930000000001
130,-0.15992699999999999,-1.203283,-0.8590639999999999,-0.057214999999999995,0.9332239999999999,-0.354704,0.337649,-0.923688,-0.29822,-0.02773,1.561268,-1.082414
131,-0.17282899999999998,-1.184333,-0.84724,-0.064817,0.926248,-0.371294,1.09176,-1.144706,0.239306,0.211103,0.926062,-0.56584
132,-0.165215,-1.1689690000000001,-0.8260139999999999,-0.064321,0.9203479999999999,-0.38576900000000003,0.6226729999999999,-0.362198,0.230753,-0.077128,-0.21943600000000002,-0.208362
133,-0.153497,-1.164669,-0.814055,-0.060400999999999996,0.918657,-0.390405,-0.010502,0.24717399999999998,0.238368,-0.127602,-0.499987,-0.15045799999999998
134,-0.155251,-1.177099,-0.8201120000000001,-0.059315,0.9234969999999999,-0.378986,-1.021554,-0.020722,-0.354804,-0.531596,0.062038,-0.193997
135,-0.21604600000000002,-1.200496,-0.8869370000000001,-0.077578,0.932219,-0.353476,-1.339625,0.768774,-1.441215,-0.31953200000000004,1.078951,0.7589020000000001
136,-0.23759699999999997,-1.186016,-0.9647950000000001,-0.088345,0.926881,-0.364804,1.431606,2.6538049999999997,-1.319587,-0.045383,1.477019,1.067502
137,-0.235373,-1.165621,-0.979562,-0.091924,0.919033,-0.383306,0.150875,0.222348,-0.08628,-0.164226,-0.383343,1.285726
138,-0.222293,-1.192641,-0.972756,-0.081397,0.9293469999999999,-0.360117,-2.088723,0.475258,0.6786220000000001,-0.21058000000000002,-1.344203,0.523111
139,-0.21236999999999998,-1.255968,-0.991548,-0.06526599999999999,0.95085,-0.302689,-3.639982,2.212171,0.031037000000000002,-0.307231,-1.233335,0.42862
140,-0.228704,-1.330812,-1.072402,-0.053885,0.971342,-0.231487,-4.0118529999999994,3.410043,-0.304244,0.19305999999999998,0.572268,0.846096
141,-0.286227,-1.402368,-1.203341,-0.047324,0.985849,-0.160797,-3.424511,3.534647,-0.538515,0.36986399999999997,1.078466,0.485687
142,-0.41419300000000003,-1.4389120000000002,-1.403254,-0.052913999999999996,0.991316,-0.12036300000000001,-1.657643,3.2750209999999997,-0.813192,0.41911000000000004,0.36895900000000004,0.015382
143,-0.615908,-1.458982,-1.650077,-0.064445,0.9937549999999999,-0.091056,-1.6572049999999998,1.491675,-0.7948810000000001,0.156852,-0.058239,0.058646000000000004
144,-0.895438,-1.4743870000000001,-1.944998,-0.07510499999999999,0.9953559999999999,-0.060160000000000005,-1.549553,0.199669,-0.399367,-0.11456199999999998,-0.21483899999999997,0.091959
145,-1.211522,-1.484788,-2.255834,-0.080387,0.9963040000000001,-0.030191000000000003,-1.5030729999999999,-0.479621,-0.262508,-0.159726,-0.189098,0.075693
146,-1.603574,-1.483724,-2.64736,-0.086882,0.9962120000000001,0.002849,-1.7301259999999998,0.22021500000000002,-0.31947,-0.080843,-0.167354,0.086659
147,-1.9485669999999997,-1.470429,-3.005605,-0.093105,0.994967,0.036947,-1.7513490000000003,0.75598,-0.283985,0.148342,-0.062304,0.016383
148,-2.162991,-1.4506290000000002,3.0419970000000003,-0.09944299999999999,0.9927889999999999,0.066899,-1.493739,1.1331309999999999,-0.251691,0.15545799999999999,-0.138785,-0.113561
149,-2.290331,-1.429331,2.885001,-0.106027,0.9900100000000001,0.092905,-1.513744,1.474972,-0.206335,-0.0035159999999999996,-0.132787,-0.044794
150,-2.385866,-1.402783,2.7660810000000002,-0.114673,0.9859190000000001,0.121688,-1.564608,0.849684,-0.43555699999999997,-0.051327,-0.14088699999999998,0.058289
151,-2.43743,-1.372287,2.7022459999999997,-0.127663,0.9803620000000001,0.150292,-1.5203790000000001,0.511613,-0.645254,0.083275,-0.053191999999999996,-0.066384
152,-2.463445,-1.33865,2.658713,-0.144325,0.973175,0.179152,-1.636939,1.0748440000000001,-0.735453,0.204216,0.048309,-0.136458
153,-2.471163,-1.303841,2.622949,-0.16389600000000001,0.964578,0.20669,-1.616211,1.411409,-0.737876,0.205965,0.09450399999999999,-0.199183
154,-2.475089,-1.2703659999999999,2.593959,-0.182952,0.955209,0.23259200000000002,-1.514475,1.040262,-0.71853,0.003356,0.115622,-0.309023
155,-2.465875,-1.240293,2.582163,-0.202968,0.9458790000000001,0.253203,-1.130983,1.016016,-0.8482790000000001,0.074397,0.162504,-0.289839
156,-2.441991,-1.215168,2.586817,-0.224192,0.937428,0.266386,-0.808905,1.026459,-0.808655,0.293482,0.376278,-0.37953000000000003
157,-2.414634,-1.1982780000000002,2.590944,-0.24188400000000002,0.931414,0.271946,-0.46078900000000006,1.189031,-0.47421499999999994,0.414522,0.316755,-0.251881
158,-2.392848,-1.190118,2.594908,-0.252916,0.9284129999999999,0.272171,-0.125719,0.67685,-0.286416,0.44873199999999996,0.308892,-0.353272
159,-2.370021,-1.186642,2.609422,-0.261312,0.9271159999999999,0.26863899999999996,0.164662,0.440575,-0.325745,0.32013400000000003,0.38279,-0.47574700000000003
160,-2.335823,-1.187406,2.6347259999999997,-0.269833,0.9274020000000001,0.25905700000000004,0.53008,0.580903,-0.304145,0.038876,0.291867,-0.558053
161,-2.271275,-1.195681,2.693535,-0.280105,0.930465,0.23615799999999998,1.460777,0.43795100000000003,-0.526061,0.060638,0.194641,-0.343443
162,-2.161089,-1.2126290000000002,2.804011,-0.291231,0.936541,0.19511900000000001,2.40845,0.369233,-0.4136,0.2652,0.40997100000000003,-0.400212
163,-2.013299,-1.239846,2.9467,-0.293639,0.945734,0.139138,2.959791,0.781004,0.295819,0.394286,0.188101,-0.045999
164,-1.8494169999999999,-1.275984,3.115093,-0.27934899999999996,0.956857,0.079911,3.038784,-0.37167100000000003,1.037057,0.243216,0.21640700000000002,0.142852
165,-1.6777990000000003,-1.314033,-2.967604,-0.252492,0.967217,0.027121,3.092191,-1.363185,1.458512,-0.16334,0.479041,0.275446
166,-1.450288,-1.341304,-2.707919,-0.22582600000000003,0.9737819999999999,-0.027346,3.05444,-0.9595040000000001,1.239814,-0.41029799999999994,0.918049,0.297427
167,-1.189534,-1.348317,-2.429824,-0.204798,0.975353,-0.082099,2.86699,-0.26711799999999997,1.1468180000000001,-0.310248,0.548496,0.290167
168,-0.910457,-1.346306,-2.14949,-0.175808,0.974908,-0.136541,2.607215,0.553257,1.609697,-0.346394,0.395957,0.274694
169,-0.661097,-1.343438,-1.893573,-0.13839100000000001,0.9742649999999999,-0.17791099999999999,1.863937,-0.549719,2.090891,-0.482749,0.532189,0.21595100000000003
170,-0.454872,-1.33285,-1.6605009999999998,-0.103554,0.971824,-0.211734,1.913713,-1.06682,1.8921439999999998,-0.22144299999999997,0.329934,0.462451
171,-0.27431500000000003,-1.307583,-1.462114,-0.07048,0.9655590000000001,-0.250452,2.160136,-0.399596,1.854555,-0.062775,0.11531300000000001,0.566797
172,-0.138099,-1.268709,-1.3099299999999998,-0.040955,0.9547180000000001,-0.294677,2.377771,-0.721845,1.533885,0.146531,-0.158575,0.5213770000000001
173,-0.071911,-1.224919,-1.211387,-0.024358,0.9407780000000001,-0.338142,2.267758,-1.7408700000000001,1.2524110000000002,0.144201,-0.248273,0.535194
174,-0.049114,-1.184308,-1.137646,-0.018505,0.9262379999999999,-0.37648000000000004,2.036998,-2.614288,1.158983,0.09046599999999999,-0.277587,0.597061
175,-0.054664,-1.144318,-1.078486,-0.022601,0.910428,-0.413046,2.035406,-3.1164959999999997,1.010065,-0.000348,-0.299665,0.676108
176,-0.071964,-1.108891,-1.0303790000000002,-0.032043,0.8952049999999999,-0.444499,1.6931180000000001,-2.980505,0.865426,-0.14093,-0.41688800000000004,0.660792
177,-0.095174,-1.0827,-0.9909049999999999,-0.044564,0.8832270000000001,-0.466821,1.169181,-2.866413,0.760139,-0.244666,-0.501071,0.711098
178,-0.120025,-1.068522,-0.955933,-0.05764299999999999,0.87649,-0.477955,0.570371,-2.705547,0.744,-0.29268299999999997,-0.608912,0.751102
179,-0.13816099999999998,-1.067045,-0.924216,-0.06648,0.8757780000000001,-0.478112,-0.05481799999999999,-1.984336,0.748323,-0.26813000000000003,-0.637512,0.69584
180,-0.140529,-1.075978,-0.8950229999999999,-0.066513,0.8800549999999999,-0.470188,-0.501911,-1.020948,0.774944,-0.166794,-0.574299,0.500355
181,-0.12248099999999999,-1.094634,-0.86482,-0.056001,0.888761,-0.45493599999999995,-1.073369,-0.152099,0.84141,-0.046751999999999995,-0.428433,0.20563800000000002
182,-0.097002,-1.125945,-0.839398,-0.041677,0.902675,-0.42829799999999996,-1.683843,0.298308,0.622924,-0.06337999999999999,-0.331248,-0.057191
183,-0.073104,-1.158341,-0.8244879999999999,-0.029278,0.9161389999999999,-0.399787,-1.3764049999999999,0.5284770000000001,0.339561,-0.136493,-0.065248,-0.557458
184,-0.076735,-1.17581,-0.8227969999999999,-0.029498000000000003,0.923002,-0.38366,-0.635491,-0.988224,-0.09876900000000001,-0.312787,0.645891,-0.931113
185,-0.10958299999999999,-1.17195,-0.834778,-0.042472,0.92151,-0.386023,0.7180850000000001,-1.0876270000000001,-0.12337000000000001,0.018805000000000002,1.647307,-0.885308
186,-0.119979,-1.15186,-0.818868,-0.048688999999999996,0.913522,-0.403862,1.0568600000000001,-1.041391,0.27418000000000003,-0.001436,0.041571,-0.29575300000000004
187,-0.11544000000000001,-1.137828,-0.803527,-0.048326999999999995,0.907724,-0.41677200000000003,0.48322299999999996,-0.098414,0.186711,-0.28715300000000005,-0.291117,-0.12010799999999999
188,-0.10412300000000001,-1.138393,-0.801475,-0.043554,0.907961,-0.416782,-0.37427699999999997,0.642836,-0.08942,-0.539515,-0.032855,-0.31240500000000004
189,-0.126934,-1.1521540000000001,-0.831025,-0.051462,0.913642,-0.40324699999999997,-0.713172,-0.189492,-0.773315,-0.618826,1.349115,-0.26722399999999996
190,-0.152764,-1.140325,-0.871692,-0.0635,0.908769,-0.412437,1.348908,1.518986,-0.906378,0.316857,0.893675,1.257591
191,-0.15812,-1.113717,-0.906257,-0.069492,0.8973450000000001,-0.435821,0.556851,0.5424869999999999,-0.8422930000000001,0.24068,-0.36043400000000003,2.2269740000000002
192,-0.146619,-1.129997,-0.907301,-0.062333000000000006,0.9044110000000001,-0.42208199999999996,-1.556158,0.941262,0.630469,-0.484466,-1.560371,0.571557
193,-0.12631900000000001,-1.180871,-0.905501,-0.047888,0.9249370000000001,-0.37708800000000003,-2.947844,0.907159,-0.023346000000000002,-0.301004,-0.736903,0.37032800000000005
194,-0.134823,-1.251307,-0.963268,-0.042217000000000005,0.9493959999999999,-0.311227,-3.97325,3.128919,-0.630491,0.284465,0.401617,1.3516780000000002
195,-0.11747,-1.326876,-1.018801,-0.028304000000000003,0.970399,-0.23983800000000002,-3.5076690000000004,3.473671,-0.136299,0.473754,1.137222,0.759003
196,-0.104074,-1.37249,-1.068263,-0.020465999999999998,0.980402,-0.195934,-1.628013,2.879276,-0.440738,0.61214,0.769614,-0.043079
197,-0.147859,-1.398,-1.155875,-0.025329,0.985108,-0.170052,-1.513522,1.7082650000000001,-0.73754,0.322585,-0.046143,0.006325
198,-0.279471,-1.4357229999999999,-1.324786,-0.037143,0.990891,-0.129425,-2.387676,1.927195,-0.91591,-0.02638,-0.316255,0.24018899999999999
199,-0.505185,-1.469965,-1.595839,-0.048708,0.9949209999999999,-0.08807000000000001,-1.8718080000000001,2.0989560000000003,-0.627312,-0.323225,-0.087923,0.23391399999999998
200,-0.714056,-1.492486,-1.825869,-0.05121799999999999,0.996935,-0.059101999999999995,-1.458201,0.33374299999999996,-0.174576,-0.125646,-0.019305000000000003,0.059453
201,-1.130192,-1.5029489999999999,-2.2392,-0.061296,0.997699,-0.028901999999999997,-1.4913379999999998,-0.363169,-0.622567,0.031526,-0.089817,-0.028318
202,-1.565533,-1.497573,-2.6685220000000003,-0.073129,0.9973200000000001,-0.00038500000000000003,-1.379155,-0.221241,-0.515143,0.148706,0.005823,-0.040112
203,-1.9003430000000001,-1.486026,-3.006636,-0.080088,0.996409,0.027392000000000003,-1.4544540000000001,0.367109,-0.263255,0.126887,-0.012736,-0.034578
204,-2.1764200000000002,-1.469395,2.979996,-0.083204,0.9948629999999999,0.057612000000000003,-1.624275,1.2616319999999999,-0.039124,0.017103,-0.166464,0.007481999999999999
205,-2.344415,-1.448058,2.784399,-0.08756900000000001,0.992477,0.08553,-1.5218690000000001,1.3524,-0.18273499999999998,-0.047013,-0.192367,0.033717000000000004
206,-2.44018,-1.4208370000000001,2.663779,-0.09639500000000001,0.988777,0.11411600000000001,-1.5455889999999999,1.03396,-0.447412,-0.07693,-0.15492999999999998,0.029225
207,-2.481384,-1.389001,2.605635,-0.11087000000000001,0.9835209999999999,0.142792,-1.55645,0.71977,-0.72055,0.002822,-0.121475,-0.06855800000000001
208,-2.499788,-1.353579,2.570618,-0.12900699999999998,0.9765010000000001,0.172619,-1.6479869999999999,0.9122120000000001,-0.814371,0.122721,0.008255,-0.096447
209,-2.50326,-1.317428,2.5428290000000002,-0.149355,0.968074,0.201299,-1.624938,1.288193,-0.8189649999999999,0.165971,0.143514,-0.18820699999999999
210,-2.499995,-1.28234,2.5214119999999998,-0.170244,0.958684,0.227894,-1.520014,1.139727,-0.811632,0.164247,0.15475,-0.32845
211,-2.486465,-1.25241,2.512162,-0.19071400000000002,0.949742,0.24821999999999997,-1.105551,1.0507879999999998,-0.77444,0.181925,0.281368,-0.317144
212,-2.465373,-1.230599,2.514104,-0.20882399999999998,0.9426889999999999,0.260241,-0.685013,0.98488,-0.641095,0.309654,0.282012,-0.30433899999999997
213,-2.4375310000000003,-1.216887,2.520822,-0.22433499999999998,0.938025,0.26415500000000003,-0.328304,1.020152,-0.447437,0.39450100000000005,0.28612600000000005,-0.260386
214,-2.413904,-1.210385,2.53297,-0.234565,0.935752,0.26333,0.021726,0.415633,-0.357691,0.474021,0.30439099999999997,-0.283304
215,-2.384461,-1.208443,2.554937,-0.243463,0.9350649999999999,0.257631,0.307909,0.5092979999999999,-0.31949299999999997,0.24843800000000002,0.343789,-0.441271
216,-2.3413619999999997,-1.215242,2.591743,-0.24977,0.9374540000000001,0.242468,0.978417,0.266787,-0.194858,0.156874,0.381623,-0.32295799999999997
217,-2.273907,-1.232776,2.6686520000000002,-0.25296599999999997,0.943413,0.214419,1.937759,-0.43841499999999994,-0.22998200000000002,0.15882000000000002,0.6264109999999999,-0.37195100000000003
218,-2.155434,-1.262683,2.796591,-0.252887,0.952908,0.167365,2.79922,0.081038,0.188772,0.17647100000000002,0.44878,-0.097251
219,-1.991818,-1.30044,2.966854,-0.243745,0.963676,0.109149,3.1021400000000003,-0.213653,0.6271,0.054887,0.208947,0.009672
220,-1.804587,-1.3362040000000002,-3.104685,-0.226115,0.9726090000000001,0.053848,3.048317,-1.2191809999999998,0.916432,-0.113408,0.358247,0.28720100000000004
221,-1.56575,-1.360808,-2.836393,-0.20843699999999998,0.978033,-0.001052,3.0511,-0.9078459999999999,0.84555,-0.34091,0.696481,0.33410500000000004
222,-1.282885,-1.371037,-2.5369610000000002,-0.19025699999999998,0.9801139999999999,-0.056343,2.823594,-0.280451,1.055733,-0.327947,0.579334,0.099998
223,-0.9919209999999999,-1.3740780000000001,-2.2487779999999997,-0.1636,0.980713,-0.106923,2.328154,0.752939,1.466487,-0.39563400000000004,0.24832100000000001,0.174428
224,-0.732204,-1.373716,-1.9876509999999998,-0.130893,0.980642,-0.14561500000000002,1.7088290000000002,-0.47867600000000005,1.7756599999999998,-0.46441400000000005,0.269922,0.184724
225,-0.52052,-1.364816,-1.746221,-0.101714,0.9788610000000001,-0.177432,1.9370740000000002,-1.421375,1.560545,-0.379777,0.26892699999999997,0.462421
226,-0.342074,-1.336281,-1.544624,-0.077945,0.972627,-0.21890199999999999,2.3465580000000004,-0.501509,1.338968,-0.04411,0.010054,0.584045
227,-0.189919,-1.295464,-1.39563,-0.051322,0.962335,-0.266973,2.667003,-0.892625,1.101357,0.07627,-0.072809,-0.10792
228,-0.141747,-1.247984,-1.315507,-0.044816,0.9483469999999999,-0.31404899999999997,2.374882,-1.485479,0.696289,0.11918699999999999,-0.210829,0.45824499999999996
229,-0.121598,-1.205904,-1.258649,-0.043285000000000004,0.934162,-0.35420999999999997,2.157053,-1.822177,0.636446,0.066631,-0.348088,0.5744560000000001
230,-0.120473,-1.165786,-1.213851,-0.047355,0.919098,-0.39116999999999996,2.045198,-2.047523,0.610317,-0.03045,-0.367585,0.620739
231,-0.120083,-1.130478,-1.170318,-0.051059,0.904616,-0.42315600000000003,1.7517779999999998,-1.966952,0.695758,-0.167889,-0.38748,0.594497
232,-0.12333599999999999,-1.102091,-1.130215,-0.055574,0.8921540000000001,-0.448299,1.357192,-1.9208740000000002,0.703625,-0.261413,-0.44945,0.663966
233,-0.12551800000000002,-1.082254,-1.0933760000000001,-0.058755999999999996,0.8830180000000001,-0.465645,0.928392,-1.624455,0.740842,-0.23729499999999998,-0.47875200000000007,0.673027
234,-0.12336400000000002,-1.070769,-1.057774,-0.058997,0.877569,-0.475804,0.540912,-1.3814870000000001,0.789099,-0.217142,-0.48734099999999997,0.615544
235,-0.117504,-1.067725,-1.023312,-0.056521,0.8761059999999999,-0.478793,0.031997000000000005,-1.126258,0.806582,-0.11283699999999999,-0.5191720000000001,0.460696
236,-0.112126,-1.07674,-0.990392,-0.053059,0.880417,-0.47122200000000003,-0.5905590000000001,-1.209476,0.8450690000000001,0.056187,-0.484207,0.287369
237,-0.104038,-1.098354,-0.960764,-0.047258,0.890459,-0.4526,-1.232751,-0.558171,0.7639050000000001,0.022553999999999998,-0.29996,-0.063375
238,-0.077971,-1.126452,-0.940291,-0.033483,0.9028930000000001,-0.428558,-1.272371,0.983664,0.436913,-0.255732,0.008681999999999999,-0.897416
239,-0.047879000000000005,-1.144309,-0.935823,-0.019799,0.910425,-0.413199,-0.740112,0.975126,-0.019762000000000002,-0.30767,0.573645,-1.036371
240,-0.055002999999999996,-1.150919,-0.947788,-0.02241,0.9131389999999999,-0.40703,-0.039251999999999995,-0.051987,-0.313721,0.052943,1.251061,-0.8253309999999999
241,-0.074522,-1.143445,-0.950498,-0.030858,0.910067,-0.41330900000000004,0.5978319999999999,-1.275578,0.096085,0.20497600000000002,0.732069,-0.345754
242,-0.091191,-1.126606,-0.939069,-0.039133,0.9029590000000001,-0.42794,0.968822,-1.280305,0.157435,0.0011539999999999999,0.119624,0.043113
243,-0.09629,-1.109229,-0.929268,-0.042817,0.8953559999999999,-0.443287,0.715305,-0.266243,0.130863,-0.309204,-0.417572,-0.137966
244,-0.085207,-1.109548,-0.924696,-0.037877,0.8954979999999999,-0.44345,-0.49092600000000003,0.46371999999999997,0.048863,-0.809337,-0.034795,-0.421495
245,-0.112015,-1.129635,-0.957997,-0.047729,0.904256,-0.42431199999999997,-1.2245709999999999,0.12038800000000001,-1.099887,-0.684617,0.942729,0.188564
246,-0.152506,-1.136499,-1.026665,-0.063922,0.907166,-0.415887,0.20142100000000002,1.916709,-1.336851,-0.11678800000000002,1.003219,1.522943
247,-0.151478,-1.123959,-1.060103,-0.065206,0.901818,-0.427166,0.206621,1.110971,-0.445953,-0.010126999999999999,-0.573236,1.1991379999999998
248,-0.138594,-1.144671,-1.066073,-0.057103999999999995,0.910574,-0.409381,-1.7864689999999999,0.861439,0.279654,-0.137278,-1.112906,0.6750970000000001
249,-0.120305,-1.2018440000000001,-1.066638,-0.043282,0.9327059999999999,-0.358029,-3.3831,1.252467,0.313934,0.038567000000000004,-0.562131,0.636579
250,-0.080326,-1.278512,-1.077601,-0.023119999999999998,0.9575879999999999,-0.287208,-3.845367,3.20931,0.199239,0.43406999999999996,0.18970499999999998,1.173591
251,-0.0121,-1.34155,-1.080501,-0.00275,0.9738379999999999,-0.227223,-2.7097849999999997,3.4824379999999997,-0.090145,0.368732,0.9035270000000001,0.496357
252,-0.009559,-1.385916,-1.135779,-0.001757,0.982958,-0.183814,-2.009588,2.4502740000000003,-0.7184550000000001,0.306231,0.7205020000000001,0.214988
253,-0.082936,-1.4263569999999999,-1.252852,-0.011923,0.9895870000000001,-0.14343499999999998,-2.150171,2.038361,-0.9496450000000001,0.119849,0.023429,0.042513
254,-0.24402100000000002,-1.466603,-1.464016,-0.025126,0.994577,-0.100913,-2.169035,2.6517720000000002,-0.8864690000000001,-0.194509,-0.184656,0.23435100000000003
255,-0.450068,-1.500226,-1.72015,-0.030667000000000003,0.997511,-0.063474,-1.803246,2.104492,-0.207029,-0.42984300000000003,-0.117796,0.13714400000000002
256,-0.8666950000000001,-1.5246469999999999,-2.158328,-0.035141000000000006,0.998935,-0.029845999999999998,-1.665931,0.34949,-0.46874,-0.319702,-0.11531400000000001,0.021393000000000002
257,-1.599491,-1.521968,-2.881744,-0.048764,0.998808,0.0014,-1.465168,-0.78906,-0.699819,0.039334,-0.039595,0.092686
258,-2.032844,-1.5042520000000001,2.980121,-0.059504999999999995,0.9977870000000001,0.029633999999999997,-1.3386069999999999,-0.37299,-0.43027600000000005,0.291088,0.047822,0.163909
259,-2.280235,-1.484121,2.721593,-0.06567,0.996246,0.056380999999999994,-1.4431530000000001,1.0591899999999999,-0.186082,0.364529,0.003189,0.115173
260,-2.467686,-1.459135,2.5037700000000003,-0.06952799999999999,0.993772,0.087059,-1.7423549999999999,1.538102,-0.077691,-0.091101,-0.203276,0.030494999999999998
261,-2.57511,-1.428239,2.368336,-0.07624,0.989856,0.119872,-1.715048,1.2193209999999999,-0.30141799999999996,-0.18528,-0.190921,0.016939
262,-2.597137,-1.395302,2.32512,-0.090427,0.98464,0.149342,-1.5170549999999998,0.919982,-0.739759,-0.197812,-0.152136,-0.052799
263,-2.58601,-1.359314,2.315397,-0.11070999999999999,0.977721,0.17833,-1.616385,1.20861,-0.9031959999999999,0.044212,0.047807,-0.13058599999999998
264,-2.5642,-1.3235139999999999,2.307408,-0.133601,0.9695809999999999,0.205083,-1.528564,1.537406,-0.885912,0.08311,0.108849,-0.161931
265,-2.54497,-1.289225,2.301437,-0.156115,0.96062,0.22985500000000003,-1.413511,1.035218,-0.874851,0.09186,0.150632,-0.259594
266,-2.525008,-1.2596610000000001,2.30174,-0.177022,0.9519860000000001,0.249761,-1.067958,1.064682,-0.816928,0.41426599999999997,0.300745,-0.288549
267,-2.4966150000000003,-1.237667,2.306266,-0.19658299999999998,0.945024,0.261306,-0.737302,1.232161,-0.628962,0.400441,0.36357,-0.41220100000000004
268,-2.4700919999999997,-1.223922,2.30838,-0.211506,0.9404399999999999,0.266146,-0.387474,1.2468709999999998,-0.34879899999999997,0.237919,0.306981,-0.256823
269,-2.44486,-1.217174,2.314706,-0.22222199999999998,0.938124,0.26558699999999996,-0.067024,0.676669,-0.290283,0.292473,0.3145,-0.328133
270,-2.417993,-1.2153,2.335053,-0.23044,0.937474,0.260838,0.27015,0.373254,-0.363383,0.309404,0.373012,-0.44212799999999997
271,-2.372847,-1.218798,2.372264,-0.239696,0.938686,0.247815,0.8266620000000001,0.542734,-0.338348,0.160457,0.37914000000000003,-0.401883
272,-2.2963080000000002,-1.233358,2.448687,-0.247691,0.943606,0.219669,1.7948939999999998,-0.080485,-0.370311,0.184092,0.46397200000000005,-0.384434
273,-2.1834759999999998,-1.2599790000000002,2.570104,-0.250205,0.952084,0.175873,2.6537490000000004,0.07261799999999999,0.024325,0.314017,0.49708900000000006,-0.256515
274,-2.025862,-1.2981559999999999,2.733309,-0.24186799999999997,0.9630629999999999,0.11835,3.1386279999999998,-0.113849,0.679566,0.19658,0.194072,-0.116382
275,-1.8319310000000002,-1.338092,2.9508259999999997,-0.22278699999999999,0.973046,0.059537,3.2232220000000003,-1.35554,1.033193,0.072656,0.20958600000000002,0.079105
276,-1.586109,-1.368452,-3.042807,-0.200938,0.979598,0.003077,3.346633,-1.8992939999999998,1.04223,-0.100286,0.5011909999999999,0.39467399999999997
277,-1.279658,-1.379492,-2.7048229999999998,-0.182133,0.981757,-0.054577,3.0517060000000003,-0.85096,1.005711,-0.184093,0.746881,0.161052
278,-0.968858,-1.379263,-2.382336,-0.15690199999999999,0.981713,-0.10778900000000001,2.5318169999999998,0.063872,1.5157909999999999,-0.19047999999999998,0.548255,0.289873
279,-0.6871109999999999,-1.378924,-2.092852,-0.120959,0.981649,-0.147423,1.82002,-0.468129,1.9729720000000002,-0.389783,0.412699,0.266044
280,-0.46285,-1.36562,-1.8451650000000002,-0.09096900000000001,0.979025,-0.182301,1.9444540000000001,-1.049279,1.476795,-0.572605,0.252512,0.500722
281,-0.28968499999999997,-1.33664,-1.65137,-0.066277,0.9727100000000001,-0.22235300000000002,2.264558,-0.74702,1.535259,-0.39612600000000003,0.065055,0.522371
282,-0.141716,-1.294848,-1.481838,-0.038482,0.962167,-0.269726,2.576588,-0.7751359999999999,1.635751,-0.076798,-0.083093,0.522625
283,-0.055987999999999996,-1.245952,-1.3709069999999999,-0.01786,0.9477,-0.31866,2.555409,-1.16537,1.207746,0.214973,-0.389214,0.45488999999999996
284,-0.023168,-1.199682,-1.305683,-0.008401,0.931924,-0.362556,2.230611,-1.7459770000000001,0.9648030000000001,0.202051,-0.41368999999999995,0.477088
285,-0.022563999999999997,-1.158613,-1.258401,-0.009039,0.916249,-0.400508,1.975943,-2.330264,0.782176,0.060476,-0.382511,0.581325
286,-0.034404000000000004,-1.123328,-1.2202899999999999,-0.014883,0.901545,-0.432428,1.693483,-2.305704,0.745988,-0.13859000000000002,-0.40386500000000003,0.5746100000000001
287,-0.050792000000000004,-1.0946049999999998,-1.184587,-0.023273,0.888747,-0.45780600000000005,1.323721,-2.465184,0.722245,-0.285962,-0.414596,0.634793
288,-0.070454,-1.073757,-1.152541,-0.033567,0.878998,-0.475642,0.937433,-2.309111,0.655254,-0.314731,-0.44188,0.729014
289,-0.08959099999999999,-1.061518,-1.125356,-0.043622,0.8730969999999999,-0.485592,0.5055189999999999,-2.090058,0.59534,-0.29162899999999997,-0.5074810000000001,0.7300979999999999
290,-0.105175,-1.059224,-1.1002239999999999,-0.051394,0.871976,-0.48684399999999994,-0.050753,-1.689784,0.612306,-0.184584,-0.581372,0.637692
291,-0.111831,-1.069416,-1.0760129999999999,-0.053638,0.87692,-0.477634,-0.678462,-1.248904,0.6596989999999999,-0.04469,-0.5732550000000001,0.48533999999999994
292,-0.11088599999999998,-1.093611,-1.053175,-0.050823,0.8882909999999999,-0.45646000000000003,-1.446484,-0.730684,0.668626,0.05971900000000001,-0.406495,0.240594
293,-0.09922,-1.131052,-1.0371299999999999,-0.042169,0.90486,-0.42361400000000005,-1.954868,0.347921,0.440434,-0.11994,-0.146438,-0.265289
294,-0.07743799999999999,-1.161885,-1.038389,-0.030758999999999998,0.9175540000000001,-0.396419,-1.055517,1.4400190000000002,-0.119773,-0.49516499999999997,0.362277,-1.1572
295,-0.089412,-1.168842,-1.063882,-0.034933,0.920298,-0.389654,0.098968,-0.005358,-0.637558,-0.41808500000000004,1.7540639999999998,-1.162058
296,-0.105322,-1.149252,-1.0716510000000001,-0.043015,0.912458,-0.406903,1.272162,-1.0350030000000001,0.089801,0.475037,1.4583,-0.759113
297,-0.124609,-1.122824,-1.057337,-0.053833000000000006,0.901327,-0.42978,1.265272,-1.586918,0.121439,-0.014572,-0.055884,-0.07423300000000001
298,-0.126921,-1.1039450000000002,-1.0452649999999999,-0.056971,0.89299,-0.446456,0.745092,0.042226,0.22147199999999997,-0.341833,-0.778167,0.258285
299,-0.10220499999999999,-1.104157,-1.032286,-0.045901,0.893085,-0.447539,-0.492745,0.717593,0.23332399999999998,-0.577268,-0.698292,-0.251496
300,-0.12087,-1.1310280000000001,-1.055218,-0.051333000000000004,0.90485,-0.42262299999999997,-1.8958509999999997,-0.29304600000000003,-0.756877,-0.478681,-0.004658,0.170747
301,-0.18901099999999998,-1.170202,-1.142356,-0.073269,0.9208299999999999,-0.383019,-1.9463110000000001,1.82001,-1.664721,-0.052051,0.7981189999999999,1.722588
302,-0.180826,-1.172347,-1.202403,-0.06977699999999999,0.9216639999999999,-0.381662,0.5969909999999999,2.937711,-0.7307859999999999,-0.33629000000000003,1.421354,0.315073
303,-0.175564,-1.172756,-1.219798,-0.067702,0.9218219999999999,-0.381653,-0.8734290000000001,0.20036700000000002,-0.09341100000000001,-0.096147,0.817878,0.520523
304,-0.171761,-1.208598,-1.219211,-0.060561000000000004,0.9351200000000001,-0.349115,-2.1570970000000003,0.509263,0.49436199999999997,0.038711,-0.7486729999999999,0.748346
305,-0.145522,-1.264731,-1.225317,-0.043692,0.953526,-0.298123,-3.134288,2.135191,0.19703299999999999,0.070227,-0.219518,0.861233
306,-0.137654,-1.33037,-1.269102,-0.032674,0.9712360000000001,-0.235862,-3.331232,2.65147,-0.33591,0.102391,0.085221,0.654014
307,-0.205835,-1.391354,-1.394144,-0.036478,0.983943,-0.17471099999999998,-3.103605,2.781195,-1.0053299999999998,0.209498,0.511494,0.44946
308,-0.374566,-1.4335930000000001,-1.6265040000000002,-0.05004,0.9906020000000001,-0.12728699999999998,-2.164838,3.1076040000000003,-1.1284459999999998,0.163458,0.23306100000000002,0.187422
309,-0.553127,-1.453362,-1.859025,-0.061549,0.9931129999999999,-0.099688,-1.2267700000000001,1.98069,-0.647227,0.110759,0.096411,0.037875
310,-0.726811,-1.467537,-2.0471049999999997,-0.068488,0.9946729999999999,-0.07702300000000001,-1.2874299999999999,-0.083648,-0.37047199999999997,0.06638200000000001,0.005006,-0.045002
311,-1.0574059999999998,-1.482667,-2.370721,-0.076661,0.9961190000000001,-0.043223000000000004,-1.885692,-0.21809699999999999,-0.328545,-0.0932,-0.16404200000000002,0.241175
312,-1.503036,-1.490145,-2.827554,-0.08036900000000001,0.996749,-0.005454,-1.8509810000000002,0.800529,-0.14801,-0.012862,-0.186828,0.294486
313,-1.860815,-1.483279,3.076788,-0.083747,0.996173,0.024993,-1.4755340000000001,0.974094,-0.188339,0.05248099999999999,-0.204821,0.269456
314,-2.093188,-1.467734,2.8249,-0.089152,0.9946940000000001,0.051328,-1.412407,0.963426,-0.239159,-0.025457,-0.087818,-0.163602
315,-2.251647,-1.447211,2.644748,-0.09578099999999999,0.992373,0.077589,-1.403517,0.971138,-0.310678,-0.068983,-0.09805499999999999,-0.058409
316,-2.342633,-1.422197,2.539709,-0.10609500000000001,0.988979,0.103256,-1.32683,0.463707,-0.5530470000000001,-0.07614,-0.1161,0.048416
317,-2.390259,-1.394168,2.484382,-0.11994,0.984442,0.128403,-1.3416219999999999,0.34823699999999996,-0.701485,0.213781,-0.02001,-0.07191499999999999
318,-2.423596,-1.36345,2.436378,-0.13543,0.9785809999999999,0.155038,-1.486189,0.974987,-0.668046,0.215783,0.060711,-0.128182
319,-2.442283,-1.332439,2.391501,-0.151977,0.971727,0.18068599999999999,-1.4881719999999998,1.289076,-0.6246659999999999,-0.0034340000000000004,0.08798099999999999,-0.22174699999999997
320,-2.447841,-1.3032,2.363578,-0.169071,0.964409,0.203292,-1.230161,0.930574,-0.705725,-0.070721,0.059486000000000004,-0.297561
321,-2.4370279999999998,-1.277126,2.356766,-0.18748599999999999,0.9571879999999999,0.22054,-0.9662959999999999,0.902378,-0.8096,0.06440900000000001,0.16930699999999999,-0.291478
322,-2.410484,-1.255179,2.363909,-0.207252,0.9506049999999999,0.23107199999999997,-0.62455,1.0319989999999999,-0.7539680000000001,0.423912,0.36090300000000003,-0.287225
323,-2.381138,-1.240961,2.370863,-0.223237,0.9460959999999999,0.234661,-0.33961399999999997,1.126678,-0.43590500000000004,0.418458,0.29273499999999997,-0.23487399999999997
324,-2.358858,-1.234798,2.378933,-0.23251599999999997,0.944082,0.233758,-0.01585,0.44420699999999996,-0.276809,0.367129,0.28162600000000004,-0.250146
325,-2.3363240000000003,-1.23124,2.398657,-0.24014499999999997,0.942903,0.23078600000000002,0.185159,0.170266,-0.40965,0.19823,0.35414,-0.396787
326,-2.299182,-1.229559,2.434586,-0.249732,0.942341,0.22276500000000002,0.5396350000000001,0.131079,-0.507536,0.113837,0.339122,-0.438204
327,-2.229027,-1.2337360000000002,2.507699,-0.261617,0.943731,0.202302,1.464677,-0.037606,-0.683525,0.078115,0.348154,-0.324173
328,-2.113433,-1.245501,2.6347389999999997,-0.27367600000000003,0.947556,0.16503199999999998,2.347368,-0.145268,-0.632356,0.314371,0.43977299999999997,-0.308693
329,-1.942737,-1.2661040000000001,2.804557,-0.279482,0.953939,0.109025,3.026189,0.60806,0.065765,0.45785699999999996,0.042673,-0.034837
330,-1.747828,-1.293202,3.009895,-0.269754,0.9617180000000001,0.048260000000000004,3.2535,-0.591796,0.755757,0.40325300000000003,0.07671900000000001,0.02544
331,-1.5451629999999998,-1.319683,-3.035095,-0.248396,0.968636,-0.006369,3.187503,-1.7577740000000002,1.2203979999999999,0.08010700000000001,0.394859,0.31983
332,-1.311317,-1.3362690000000002,-2.758454,-0.22459899999999997,0.9726239999999999,-0.059623,3.1166840000000002,-1.561712,1.2687899999999999,-0.271861,0.869569,0.286964
333,-1.070778,-1.337607,-2.4891400000000004,-0.202787,0.972934,-0.11078800000000001,2.683125,-0.730236,1.237991,-0.246371,0.677288,0.338571
334,-0.8326610000000001,-1.332833,-2.242856,-0.174367,0.9718200000000001,-0.158617,2.332122,0.12381500000000001,1.616868,-0.329296,0.41012299999999996,0.24821700000000002
335,-0.6318520000000001,-1.329348,-2.0198150000000004,-0.141225,0.970993,-0.192942,1.7909680000000001,-1.3687120000000002,1.838259,-0.38232,0.42744499999999996,0.32519000000000003
336,-0.477945,-1.3125200000000001,-1.8259419999999997,-0.117477,0.966832,-0.22678800000000002,2.057157,-1.7669279999999998,1.558618,-0.185273,0.17194700000000002,0.529874
337,-0.329793,-1.284581,-1.642037,-0.091428,0.959319,-0.267104,2.369287,-1.151144,1.8067689999999998,0.11654400000000001,0.003861,0.540298
338,-0.203434,-1.247357,-1.4862739999999999,-0.064211,0.948148,-0.311272,2.421357,-1.343552,1.659964,0.278094,-0.11021099999999999,0.476296
339,-0.137436,-1.206825,-1.381764,-0.048770999999999995,0.9344899999999999,-0.352628,2.14667,-1.810943,1.299722,0.244908,-0.28973000000000004,0.484601
340,-0.107769,-1.170521,-1.3022200000000002,-0.041913,0.920954,-0.387409,1.9475580000000001,-2.5034680000000002,1.229784,0.166257,-0.308039,0.633273
341,-0.102078,-1.132933,-1.233402,-0.043206,0.90566,-0.421795,2.025713,-2.95951,1.188186,0.026695999999999998,-0.27776100000000004,0.6963010000000001
342,-0.10774600000000001,-1.0974059999999999,-1.171797,-0.049027,0.890028,-0.45326099999999997,1.8055990000000002,-3.076816,1.1440700000000001,-0.16104100000000002,-0.28123200000000004,0.7069989999999999
343,-0.121215,-1.069672,-1.116953,-0.058089999999999996,0.877043,-0.47688500000000006,1.344848,-3.10055,1.085334,-0.326752,-0.34782199999999996,0.755037
344,-0.14118,-1.052202,-1.0720049999999999,-0.069745,0.868517,-0.490727,0.801729,-2.8103540000000002,0.913458,-0.375125,-0.508776,0.803196
345,-0.157375,-1.045865,-1.035299,-0.078544,0.865358,-0.49495900000000004,0.22697399999999998,-2.113461,0.828433,-0.359551,-0.565493,0.766077
346,-0.164674,-1.051671,-1.007109,-0.081329,0.868253,-0.489408,-0.400596,-1.3437649999999999,0.6980810000000001,-0.23500100000000002,-0.603422,0.49545100000000003
347,-0.167384,-1.069117,-0.985513,-0.08011900000000001,0.876776,-0.47417600000000004,-1.0120040000000001,-0.923897,0.658021,-0.12737,-0.51702,0.29325300000000004
348,-0.165522,-1.09934,-0.969253,-0.074834,0.890908,-0.447975,-1.636649,-0.394135,0.58675,-0.023051,-0.37396999999999997,0.025047
349,-0.15396400000000002,-1.136301,-0.960571,-0.064555,0.907083,-0.415971,-1.8045240000000002,0.549863,0.425202,-0.034276,-0.139535,-0.418166
350,-0.14336600000000002,-1.165956,-0.958752,-0.056274,0.919165,-0.389828,-1.252642,0.080421,0.127352,-0.091843,0.460229,-0.9051389999999999
351,-0.167496,-1.176668,-0.9750059999999999,-0.06401799999999999,0.9233319999999999,-0.378627,0.039882,-0.49855600000000005,-0.326486,-0.177894,1.71563,-0.9289290000000001
352,-0.17920899999999998,-1.159096,-0.961742,-0.07132999999999999,0.916442,-0.393757,1.261352,-1.580119,0.289114,0.379298,1.166475,-0.440075
353,-0.188387,-1.133298,-0.941934,-0.079343,0.9058149999999999,-0.41617600000000005,1.225826,-1.121193,0.105611,-0.13708800000000002,-0.579673,-0.111076
354,-0.179855,-1.1214389999999999,-0.931097,-0.077706,0.900726,-0.427378,0.179503,0.636841,0.131301,-0.38597800000000004,-0.611282,-0.139943
355,-0.175598,-1.135725,-0.9444950000000001,-0.07363,0.90684,-0.414992,-1.2822850000000001,0.535464,-0.421436,-0.805871,0.144292,-0.178788
356,-0.23505900000000002,-1.156862,-1.0140639999999999,-0.093676,0.915545,-0.391152,-0.951782,0.49218500000000004,-1.604798,-0.460661,0.970777,0.8278280000000001
357,-0.260303,-1.140552,-1.0760969999999999,-0.107348,0.9088639999999999,-0.403041,0.9784780000000001,1.5061799999999999,-1.110847,-0.135572,0.9497030000000001,0.845088
358,-0.275039,-1.134087,-1.0984690000000001,-0.114869,0.906148,-0.407061,-0.438198,0.021616,-0.257853,0.116425,-0.6552479999999999,1.227801
359,-0.276803,-1.161429,-1.111432,-0.10877300000000001,0.917373,-0.382875,-1.972027,0.8801979999999999,0.27939899999999995,0.005151,-0.774154,0.708467
360,-0.268463,-1.2186649999999999,-1.140917,-0.09148400000000001,0.9386399999999999,-0.332543,-3.4024080000000003,2.3012330000000003,0.198152,0.15293099999999998,-0.454478,0.949471
361,-0.26341,-1.289671,-1.191764,-0.072237,0.960744,-0.267864,-3.5838379999999996,2.718568,0.152553,0.172655,0.37705500000000003,0.8738520000000001
362,-0.285903,-1.348398,-1.2716370000000001,-0.062204999999999996,0.9753709999999999,-0.211612,-2.760703,2.762679,-0.40257,0.385004,0.8972030000000001,0.44067700000000004
363,-0.367137,-1.385186,-1.404555,-0.06624,0.982824,-0.172244,-1.902497,2.22226,-0.798603,0.406267,0.39712,0.278323
364,-0.512712,-1.410391,-1.599436,-0.078346,0.9871629999999999,-0.139177,-1.8340619999999999,2.481898,-1.049495,0.006279,-0.090739,0.19539
365,-0.672646,-1.4287239999999999,-1.8009169999999999,-0.08821799999999999,0.989925,-0.110748,-1.444223,1.2902870000000002,-0.431018,-0.340386,-0.138881,0.101211
366,-0.833309,-1.447548,-1.966273,-0.090986,0.9924149999999999,-0.082661,-1.520853,-0.305219,-0.167794,-0.321825,-0.16061199999999998,0.116718
367,-1.118467,-1.462518,-2.250715,-0.097191,0.994144,-0.047228,-1.901273,0.105841,-0.33655300000000005,-0.118095,-0.182666,0.18352000000000002
368,-1.473547,-1.467072,-2.61651,-0.10304200000000001,0.994626,-0.010052,-1.864384,0.530554,-0.285564,-0.016937999999999998,-0.128247,0.195279
369,-1.7795889999999999,-1.459525,-2.934758,-0.108623,0.993816,0.023015,-1.6474990000000003,0.608589,-0.274536,0.168254,-0.094432,0.191951
370,-1.9949569999999999,-1.444755,3.1108689999999997,-0.11456199999999998,0.992067,0.051733,-1.512322,1.270635,-0.253075,0.131941,-0.07371699999999999,-0.11022
371,-2.140755,-1.424739,2.941362,-0.122525,0.989353,0.078528,-1.4668860000000001,0.787438,-0.40169,0.018963999999999998,-0.07060599999999999,-0.089804
372,-2.242428,-1.397932,2.833818,-0.13464,0.9850959999999999,0.107027,-1.486146,-0.00808,-0.711657,0.010189,-0.143147,0.063551
373,-2.30744,-1.366735,2.765479,-0.15010199999999999,0.979252,0.13613499999999998,-1.5196319999999999,0.316118,-0.771059,0.3145,0.047573000000000004,-0.08688
374,-2.346537,-1.334714,2.708247,-0.166974,0.9722620000000001,0.16378,-1.5602040000000001,1.087253,-0.705033,0.326673,0.09754700000000001,-0.151222
375,-2.372534,-1.3031709999999999,2.657547,-0.18390499999999999,0.9644020000000001,0.19001500000000002,-1.54855,1.122153,-0.6515850000000001,0.017752,0.10366800000000001,-0.255567
376,-2.384117,-1.2740479999999998,2.625443,-0.20090999999999998,0.956292,0.212456,-1.2110450000000001,0.899669,-0.717308,0.000959,0.125708,-0.334907
377,-2.373801,-1.249556,2.61674,-0.219296,0.948845,0.22715700000000003,-0.8584299999999999,0.9774430000000001,-0.758742,0.214779,0.354348,-0.344375
378,-2.3480939999999997,-1.230226,2.620874,-0.23809299999999997,0.942564,0.23426599999999997,-0.491084,1.141984,-0.666656,0.339426,0.34982399999999997,-0.29249400000000003
379,-2.318668,-1.2193889999999998,2.628618,-0.252357,0.938889,0.234094,-0.150625,0.970306,-0.387389,0.406043,0.251052,-0.266854
380,-2.291042,-1.215086,2.64725,-0.261761,0.937399,0.229696,0.23571199999999998,0.25959,-0.411553,0.42498500000000006,0.332514,-0.382727
381,-2.252566,-1.213729,2.681991,-0.271391,0.936926,0.220259,0.55005,0.39809,-0.421286,0.264311,0.395441,-0.384337
382,-2.191169,-1.2200879999999998,2.740823,-0.27954,0.9391299999999999,0.199723,1.345534,0.12026700000000001,-0.365167,0.16014,0.454593,-0.359254
383,-2.0937,-1.234752,2.849911,-0.285686,0.944066,0.164676,2.285484,-0.324139,-0.33453099999999997,0.133846,0.495616,-0.29607
384,-1.9438380000000002,-1.257931,3.006484,-0.286612,0.9514549999999999,0.11217,2.937624,0.261635,0.196976,0.11339400000000001,0.269721,-0.12369100000000001
385,-1.760778,-1.285939,-3.086954,-0.275959,0.959702,0.053066999999999996,3.119006,-0.156585,0.729685,0.037204,0.150101,0.068027
386,-1.5586719999999998,-1.309488,-2.86439,-0.25832,0.966053,-0.0031320000000000002,3.048714,-0.829533,0.9800200000000001,-0.015271000000000002,0.336636,0.302723
387,-1.337174,-1.321883,-2.619687,-0.239652,0.969181,-0.057028999999999996,2.924941,-0.62339,0.951118,-0.119098,0.525784,0.342918
388,-1.111927,-1.320258,-2.3805680000000002,-0.222273,0.9687790000000001,-0.10981199999999999,2.72614,-0.214752,0.96416,-0.250566,0.559312,0.184153
389,-0.894016,-1.316035,-2.156007,-0.196464,0.967724,-0.157829,2.339207,0.181704,1.521766,-0.160973,0.217915,0.23069
390,-0.691671,-1.308167,-1.948565,-0.16559000000000001,0.9657110000000001,-0.199951,1.946391,-0.177634,1.680784,-0.297286,0.25751,0.29866
391,-0.5298609999999999,-1.300154,-1.763252,-0.135121,0.963599,-0.23068699999999998,1.6781259999999998,-1.176157,1.736806,-0.218822,0.277856,0.438222
392,-0.39226,-1.283795,-1.592919,-0.10821300000000002,0.959097,-0.261573,1.8983720000000002,-1.301595,1.745982,0.147611,-0.051976999999999995,0.5220100000000001
393,-0.267201,-1.2526760000000001,-1.4442979999999999,-0.082583,0.949825,-0.301678,2.285417,-0.699874,1.450949,0.15115599999999998,-0.123699,0.46745
394,-0.191644,-1.215216,-1.3402,-0.06631000000000001,0.9374450000000001,-0.341758,2.118531,-1.52494,1.19874,0.160991,-0.133795,0.46721599999999996
395,-0.15490299999999999,-1.1791,-1.254464,-0.058899,0.924263,-0.377183,2.025557,-2.460124,1.247359,0.109497,-0.21576700000000001,0.64325
396,-0.140526,-1.143817,-1.180236,-0.05800399999999999,0.910221,-0.41003900000000004,1.928677,-2.748087,1.149843,0.072271,-0.242069,0.692708
397,-0.139213,-1.10955,-1.119005,-0.061759,0.8954989999999999,-0.44075600000000004,1.8186959999999999,-2.672565,1.006905,-0.0078060000000000004,-0.280524,0.7167720000000001
398,-0.145799,-1.081277,-1.067477,-0.068312,0.882559,-0.465211,1.38747,-2.537671,0.9471040000000001,-0.292772,-0.418875,0.684129
399,-0.155686,-1.064303,-1.022605,-0.07522000000000001,0.874451,-0.479245,0.771404,-2.422534,0.92663,-0.29320300000000005,-0.46138,0.715191
400,-0.165734,-1.059723,-0.9838030000000001,-0.080692,0.8722200000000001,-0.48241000000000006,0.141705,-2.038812,0.884352,-0.267926,-0.517285,0.7341949999999999
401,-0.173215,-1.066074,-0.9505610000000001,-0.083342,0.875309,-0.476326,-0.381494,-1.684278,0.8556739999999999,-0.13463,-0.5514560000000001,0.516884
402,-0.175793,-1.085524,-0.9222959999999999,-0.081577,0.884548,-0.45925900000000003,-1.1045969999999998,-1.18097,0.8254090000000001,-0.077359,-0.567928,0.421447
403,-0.171876,-1.118242,-0.9012760000000001,-0.074785,0.8993329999999999,-0.43081899999999995,-1.765178,-0.417469,0.674538,-0.003172,-0.455135,0.21696700000000002
404,-0.161928,-1.157838,-0.8940389999999999,-0.064701,0.9159379999999999,-0.396068,-1.915389,0.525937,0.379587,-0.151013,-0.156721,-0.242482
405,-0.154106,-1.1817879999999998,-0.901747,-0.058216,0.925286,-0.374773,-0.722812,0.6040439999999999,-0.206114,-0.508495,0.42618500000000004,-1.150236
406,-0.177402,-1.180812,-0.925213,-0.06709,0.9249149999999999,-0.374204,0.706252,-0.223485,-0.42687600000000003,-0.399677,1.9247400000000001,-1.165209
407,-0.178092,-1.1512229999999999,-0.902552,-0.072166,0.9132629999999999,-0.400925,1.750417,-1.6513419999999999,0.36205,0.510948,1.37319,-0.6091
408,-0.19481300000000001,-1.123086,-0.882015,-0.083802,0.9014409999999999,-0.42471099999999995,1.164091,-1.603379,0.0652,0.07245,-0.340314,-0.095476
409,-0.19095,-1.111831,-0.8709399999999999,-0.08408099999999999,0.8965110000000001,-0.43496599999999996,0.23811999999999997,0.497708,0.244047,-0.4163,-0.9072379999999999,0.018493
410,-0.170301,-1.12574,-0.867015,-0.072962,0.9025860000000001,-0.424278,-1.27397,0.677532,0.008928,-0.613867,-0.573653,-0.101906
411,-0.22070900000000002,-1.1626450000000002,-0.92217,-0.086892,0.9178559999999999,-0.387281,-2.3351509999999998,-0.264974,-1.266325,-0.254234,0.705236,1.054289
412,-0.280923,-1.1847159999999999,-1.020153,-0.104397,0.926392,-0.361795,-0.5313329999999999,3.0849439999999997,-1.404364,-0.079731,1.591537,0.568537
413,-0.24585100000000001,-1.162399,-1.042381,-0.09665599999999999,0.917758,-0.38519499999999995,0.893747,1.411982,-0.39027399999999995,0.038886000000000004,0.298016,0.959169
414,-0.247829,-1.170831,-1.04903,-0.095516,0.921074,-0.37748699999999996,-1.062749,-0.038964,0.24953499999999998,0.069911,-1.087227,0.8186640000000001
415,-0.23015,-1.208013,-1.04253,-0.080955,0.9349129999999999,-0.345517,-2.253518,1.172052,0.533425,-0.11992699999999999,-0.8208840000000001,0.726742
416,-0.218092,-1.264467,-1.0772620000000002,-0.065247,0.9534469999999999,-0.29441300000000004,-3.136765,2.652238,-0.16150799999999998,0.015578999999999999,-0.183763,0.8981879999999999
417,-0.23289200000000002,-1.328441,-1.150226,-0.055386000000000005,0.970775,-0.233504,-3.3731769999999996,3.024582,-0.363394,0.17735,0.655979,0.603835
418,-0.310706,-1.383001,-1.29863,-0.057075,0.982418,-0.177744,-2.686239,3.337817,-0.968952,0.254524,0.690037,0.439173
419,-0.422162,-1.4135950000000002,-1.4661790000000001,-0.064141,0.987669,-0.142799,-1.5842120000000002,2.197186,-0.662827,0.25809499999999996,0.25499099999999997,0.153999
420,-0.537551,-1.432979,-1.611417,-0.070337,0.990518,-0.117994,-1.295759,1.078891,-0.441461,0.094949,-0.05488,0.108778
421,-0.692883,-1.451028,-1.7789840000000001,-0.076309,0.992836,-0.091917,-1.415381,0.245677,-0.295951,-0.13771,-0.14719400000000002,0.192351
422,-0.917007,-1.470307,-2.0104610000000003,-0.07961599999999999,0.9949549999999999,-0.061002,-1.6965869999999998,0.52398,-0.11881099999999999,-0.16863,-0.139059,0.213727
423,-1.2435180000000001,-1.485543,-2.354212,-0.080606,0.996368,-0.027364999999999997,-1.735829,0.8276620000000001,-0.104519,-0.011023,-0.09614500000000001,0.155325
424,-1.6167850000000001,-1.486718,-2.743674,-0.083864,0.996468,0.0038590000000000005,-1.554457,0.714566,-0.21740700000000002,0.080385,-0.111305,0.148133
425,-1.921191,-1.4756770000000001,-3.069211,-0.089184,0.9954799999999999,0.032595,-1.5424149999999999,1.228105,-0.24682300000000001,0.08970299999999999,-0.154583,0.024366
426,-2.126553,-1.457099,2.978384,-0.096361,0.9935430000000001,0.059846,-1.459881,1.463595,-0.334142,-0.025266,-0.143705,-0.0005809999999999999
427,-2.24385,-1.432799,2.839984,-0.107549,0.9904930000000001,0.085742,-1.397133,0.679337,-0.600823,-0.030925,-0.20855700000000002,0.039731
428,-2.317933,-1.403133,2.75482,-0.12241800000000001,0.985977,0.113391,-1.490045,0.533158,-0.727334,0.25248400000000004,-0.019852,-0.022174
429,-2.368553,-1.371253,2.686712,-0.138413,0.980157,0.141877,-1.598871,1.038353,-0.696695,0.298844,0.058234,-0.075226
430,-2.400102,-1.338383,2.627923,-0.155553,0.9731129999999999,0.16985,-1.62753,1.3557139999999999,-0.6492319999999999,0.227681,0.091126,-0.20287
431,-2.418904,-1.307102,2.581532,-0.172388,0.965434,0.195487,-1.4499870000000001,1.245255,-0.619009,-0.005529999999999999,0.097204,-0.36499699999999996
432,-2.418062,-1.279824,2.559185,-0.189922,0.957965,0.21500500000000003,-1.091011,1.035547,-0.7016899999999999,0.056545000000000005,0.21484099999999998,-0.348093
433,-2.4018580000000003,-1.25708,2.555707,-0.20801599999999998,0.9511930000000001,0.227937,-0.756275,0.958815,-0.717413,0.170632,0.313913,-0.367707
434,-2.377072,-1.2411709999999998,2.561813,-0.22404899999999997,0.9461639999999999,0.233605,-0.372211,0.913013,-0.519187,0.512699,0.27898,-0.22817199999999999
435,-2.356637,-1.233586,2.571398,-0.233841,0.943681,0.234048,-0.044902,0.347549,-0.31962399999999996,0.57811,0.275145,-0.293786
436,-2.333454,-1.230858,2.59097,-0.241065,0.942775,0.230343,0.214077,0.277439,-0.327339,0.5542819999999999,0.346028,-0.36304899999999996
437,-2.301012,-1.232143,2.615427,-0.247507,0.943203,0.221595,0.499414,0.5209050000000001,-0.187857,0.033014,0.343937,-0.49898400000000004
438,-2.230801,-1.24245,2.683929,-0.254749,0.946577,0.197713,1.6604450000000002,0.091748,-0.432366,0.038974,0.359896,-0.396124
439,-2.106077,-1.2597180000000001,2.8158369999999997,-0.263266,0.9520040000000001,0.156125,2.497659,0.083274,-0.37096,0.072271,0.43093100000000006,-0.455167
440,-1.9220830000000002,-1.284946,2.9953279999999998,-0.264746,0.9594219999999999,0.097026,3.128621,0.8124979999999999,0.26917399999999997,0.18749100000000002,0.032719,-0.125606
441,-1.707067,-1.31441,-3.069761,-0.251228,0.9673129999999999,0.034449,3.115185,-0.296006,0.966981,0.168128,0.13121300000000002,0.119925
442,-1.489522,-1.340808,-2.8223849999999997,-0.227206,0.973669,-0.018507,2.976039,-1.437972,1.3509639999999998,0.157351,0.264948,0.342146
443,-1.240877,-1.358058,-2.542025,-0.199743,0.977456,-0.068399,2.713502,-1.0839290000000001,1.485409,-0.286051,0.945105,0.346506
444,-0.9815139999999999,-1.3624319999999999,-2.262682,-0.171966,0.9783709999999999,-0.114962,2.4434869999999997,-0.371467,1.505042,-0.328706,0.700615,0.349673
445,-0.7070649999999999,-1.356775,-1.982912,-0.137967,0.9771850000000001,-0.161471,2.221822,-0.058432000000000005,2.001953,-0.5308109999999999,0.45476099999999997,0.23312600000000003
446,-0.46321899999999994,-1.350935,-1.715173,-0.09744900000000001,0.975928,-0.195106,1.739393,-1.183172,2.105778,-0.604013,0.381662,0.42255299999999996
447,-0.293673,-1.32958,-1.518658,-0.069148,0.9710479999999999,-0.22865100000000002,1.8782349999999999,-0.9504290000000001,1.591567,-0.41504399999999997,0.10912100000000001,0.500822
448,-0.155331,-1.29512,-1.36027,-0.04211,0.962241,-0.268917,2.265719,-0.6970609999999999,1.5640379999999998,0.019694999999999997,-0.132331,0.5763199999999999
449,-0.068575,-1.249232,-1.250054,-0.021656,0.948742,-0.315305,2.554035,-1.041599,1.161638,0.086491,-0.351208,0.48011499999999996
450,-0.036821,-1.202616,-1.187845,-0.01325,0.932984,-0.359672,2.205953,-1.661215,0.837397,0.113347,-0.42764300000000005,0.48491599999999996
451,-0.037243,-1.163534,-1.142747,-0.014747999999999999,0.918209,-0.39582,1.912332,-2.266013,0.756005,0.063836,-0.41883400000000004,0.580589
452,-0.052825,-1.127166,-1.105532,-0.022663,0.9032,-0.42862100000000003,1.800113,-2.643406,0.658496,-0.10580099999999999,-0.40478600000000003,0.626115
453,-0.077304,-1.095577,-1.07234,-0.035334,0.889193,-0.456165,1.470615,-2.6336209999999998,0.628408,-0.17580199999999999,-0.457399,0.633778
454,-0.09737,-1.075541,-1.0403040000000001,-0.046202999999999994,0.8798469999999999,-0.473004,0.8091149999999999,-2.341805,0.686439,-0.262452,-0.520289,0.716214
455,-0.113822,-1.068654,-1.010126,-0.054665,0.876553,-0.47818900000000003,0.204623,-2.016882,0.674323,-0.294319,-0.590344,0.722086
456,-0.12440699999999999,-1.072303,-0.982726,-0.059326,0.8783040000000001,-0.47440600000000005,-0.290464,-1.53267,0.6926770000000001,-0.20944200000000002,-0.575295,0.6103770000000001
457,-0.12363199999999999,-1.086126,-0.953981,-0.05745499999999999,0.8848290000000001,-0.462359,-0.8145100000000001,-0.9975639999999999,0.796221,-0.013574000000000001,-0.541872,0.425601
458,-0.106799,-1.1123530000000001,-0.9249139999999999,-0.047174,0.896742,-0.44003000000000003,-1.463441,-0.113227,0.7862819999999999,0.059565,-0.382353,0.13938599999999998
459,-0.07467,-1.14802,-0.903651,-0.030608,0.911953,-0.409149,-1.8383639999999999,1.172851,0.506414,-0.16230899999999998,-0.11495599999999999,-0.490296
460,-0.039999,-1.1773069999999999,-0.8992180000000001,-0.015332,0.9235770000000001,-0.38310500000000003,-1.0750389999999999,1.419656,-0.06968300000000001,-0.497913,0.651466,-1.275815
461,-0.055890999999999996,-1.186032,-0.9219280000000001,-0.020967,0.9268870000000001,-0.374753,0.11333499999999999,-0.245583,-0.513243,-0.096678,2.02343,-1.102588
462,-0.071337,-1.16559,-0.9157549999999999,-0.028098,0.9190209999999999,-0.393205,1.366112,-1.7212939999999999,0.34022600000000003,0.399069,0.805863,-0.49473500000000004
463,-0.097687,-1.1387690000000001,-0.902083,-0.040838,0.908119,-0.416716,1.230531,-1.8016450000000002,0.039211,-0.160121,-0.257499,0.09426699999999999
464,-0.105402,-1.120857,-0.898042,-0.045756,0.900473,-0.432496,0.6273270000000001,0.280791,0.07399,-0.648001,-0.452338,0.007890000000000001
465,-0.09338400000000001,-1.127102,-0.902177,-0.04003,0.903172,-0.427408,-0.933409,0.635062,-0.320857,-0.874582,0.469951,-0.112173
466,-0.137974,-1.147381,-0.957822,-0.056510000000000005,0.911691,-0.406971,-0.871606,0.770039,-1.361045,-0.241936,1.3727479999999999,0.488117
467,-0.140544,-1.126897,-1.017292,-0.060160000000000005,0.903084,-0.425228,1.627434,2.790534,-1.3130629999999999,0.07885199999999999,0.495567,1.460995
468,-0.154531,-1.111645,-1.046917,-0.068214,0.8964290000000001,-0.43790500000000004,-0.186597,-0.048381,-0.285921,-0.253029,-1.2963770000000001,1.28338
469,-0.158826,-1.142933,-1.052092,-0.065625,0.909854,-0.409704,-2.380475,0.137278,0.20805900000000002,-0.000583,-0.8505739999999999,0.7238060000000001
470,-0.15946,-1.209582,-1.0837139999999998,-0.056116,0.9354680000000001,-0.348925,-3.8921120000000005,2.61667,-0.203056,0.426752,0.214876,1.411196
471,-0.11398399999999999,-1.289962,-1.116693,-0.031523,0.960824,-0.275358,-3.99755,4.0745830000000005,0.266494,0.38497800000000004,0.784461,1.098417
472,-0.063683,-1.3580889999999999,-1.1501270000000001,-0.013434999999999999,0.977463,-0.21067600000000003,-2.872553,4.174771,-0.454304,0.526252,0.810241,0.07942
473,-0.059212,-1.395931,-1.214171,-0.010295,0.98475,-0.17366700000000002,-1.57266,2.6170259999999996,-0.43788699999999997,0.21290100000000003,0.125892,0.042975
474,-0.11248499999999999,-1.429326,-1.303774,-0.015826,0.9900100000000001,-0.140103,-1.914264,1.608286,-0.693217,-0.175626,-0.17695999999999998,0.286313
475,-0.230239,-1.464426,-1.456175,-0.024227000000000002,0.994348,-0.10336,-1.7462959999999998,1.503298,-0.424854,-0.436375,-0.205804,0.24059699999999998
476,-0.342258,-1.49298,-1.58491,-0.026086,0.996974,-0.073219,-1.4877879999999999,0.399897,-0.172738,-0.34529699999999997,-0.257792,0.116432
477,-0.695713,-1.5191139999999999,-1.943528,-0.033097,0.9986649999999999,-0.039637,-1.822948,0.324419,-0.45378900000000005,-0.12341300000000001,-0.15170999999999998,0.179194
478,-1.519945,-1.5279530000000001,-2.779268,-0.04275,0.999082,-0.002176,-1.868524,0.576194,-0.5067729999999999,0.113581,-0.013563,0.34165300000000004
479,-2.1143099999999997,-1.510282,2.898093,-0.051748,0.9981700000000001,0.031267,-1.608694,0.586525,-0.38533,0.297888,-0.048478,0.11154000000000001
480,-2.369573,-1.485494,2.617258,-0.059424,0.9963639999999999,0.061036,-1.55196,1.658736,-0.304055,0.128607,-0.11407,-0.125473
481,-2.500766,-1.45639,2.451907,-0.068243,0.9934629999999999,0.0915,-1.676425,1.451642,-0.354865,-0.113016,-0.196633,0.007835
482,-2.559575,-1.4238389999999999,2.370313,-0.080489,0.9892209999999999,0.122313,-1.588657,1.009261,-0.623945,-0.032838,-0.132639,-0.021727
483,-2.565459,-1.38886,2.341616,-0.098567,0.9834950000000001,0.151721,-1.623104,1.227455,-0.813541,0.148616,0.033533999999999994,-0.198261
484,-2.554135,-1.351768,2.325341,-0.120424,0.976109,0.18085,-1.621934,1.390829,-0.91095,0.173296,0.126201,-0.224536
485,-2.538664,-1.316742,2.314478,-0.142516,0.967901,0.207011,-1.454377,1.2439870000000002,-0.8316110000000001,0.051985,0.090021,-0.29549699999999995
486,-2.524406,-1.2861639999999999,2.303932,-0.162511,0.959765,0.22899499999999998,-1.231848,1.2258360000000001,-0.747781,0.240148,0.210157,-0.29116
487,-2.498787,-1.260717,2.30593,-0.182908,0.952309,0.244232,-0.852548,1.065972,-0.791928,0.43991199999999997,0.386588,-0.377136
488,-2.46748,-1.242444,2.3163169999999997,-0.201294,0.946575,0.25194099999999997,-0.490357,1.159713,-0.572669,0.356567,0.303608,-0.28538800000000003
489,-2.44088,-1.2333889999999998,2.319959,-0.213441,0.943616,0.25304,-0.209772,1.033752,-0.21910300000000002,0.281175,0.302951,-0.358234
490,-2.419023,-1.2313100000000001,2.33163,-0.220218,0.942926,0.24978699999999998,0.21511100000000002,0.336818,-0.260108,0.179569,0.421652,-0.489807
491,-2.379411,-1.233926,2.36599,-0.228233,0.943794,0.239085,0.6500239999999999,0.3964,-0.352218,-0.042229,0.34594,-0.628153
492,-2.302638,-1.243118,2.4342610000000002,-0.239434,0.946792,0.215069,1.493152,0.751067,-0.532654,-0.036719999999999996,0.22969099999999998,-0.410366
493,-2.163602,-1.260895,2.567164,-0.252929,0.952364,0.17038,2.534719,0.568503,-0.535826,0.090896,0.32374400000000003,-0.394104
494,-1.9828990000000002,-1.284986,2.741895,-0.25833,0.959433,0.112925,3.0120669999999996,0.8316530000000001,0.10810399999999999,0.41808999999999996,0.129968,0.019003
495,-1.7677209999999999,-1.31675,2.953354,-0.246462,0.9679030000000001,0.049172,3.1392290000000003,0.06717200000000001,0.9656170000000001,0.35982,0.28574299999999997,0.258827
496,-1.547768,-1.348607,-3.0844,-0.22030500000000003,0.975417,-0.005074,2.9825169999999996,-1.267108,1.505685,0.153547,0.494065,0.320092
497,-1.285828,-1.370225,-2.79465,-0.191191,0.9799530000000001,-0.05600700000000001,2.718825,-0.906883,1.427537,-0.38913200000000003,0.724011,0.285256
498,-1.005299,-1.371905,-2.49369,-0.16682,0.9802860000000001,-0.10587,2.649339,-0.579132,1.310196,-0.41350200000000004,0.7236779999999999,0.33511799999999997
499,-0.7247,-1.3615110000000001,-2.205387,-0.137725,0.9781799999999999,-0.155548,2.506446,0.193619,1.593423,-0.431565,0.265732,0.17040999999999998
500,-0.484554,-1.348387,-1.9497919999999997,-0.102748,0.975369,-0.195185,1.886524,-0.855082,1.9814060000000002,-0.418462,0.260959,0.380671
501,-0.31353000000000003,-1.326393,-1.7537580000000002,-0.07463,0.970282,-0.230179,1.874371,-0.9882559999999999,1.4634040000000001,-0.20948899999999998,0.044336,0.471466
502,-0.19153499999999998,-1.296261,-1.611159,-0.051608,0.962551,-0.26614,2.032547,-0.761613,1.3915790000000001,-0.016156,-0.09110700000000001,0.52499
503,-0.104154,-1.254641,-1.500429,-0.032324,0.9504379999999999,-0.309228,2.3450889999999998,-1.0110219999999999,1.1548,0.17864100000000002,-0.27975300000000003,0.500772
504,-0.065241,-1.211702,-1.429763,-0.022911,0.9362149999999999,-0.35067800000000005,2.144414,-1.706215,0.9545319999999999,0.140678,-0.270627,0.549515
505,-0.054812,-1.172033,-1.371532,-0.021272,0.921542,-0.38769499999999996,1.999089,-2.44829,0.974764,0.056321,-0.253207,0.619125
506,-0.06172999999999999,-1.1342079999999999,-1.315222,-0.026086,0.906199,-0.422044,1.936133,-3.094965,1.042451,-0.043509,-0.244838,0.683412
507,-0.07773200000000001,-1.100043,-1.267119,-0.03522,0.891227,-0.45218800000000003,1.654078,-2.8749290000000003,0.873556,-0.166669,-0.381263,0.682519
508,-0.095289,-1.074084,-1.224759,-0.04534,0.8791540000000001,-0.474375,1.160109,-2.6154990000000002,0.893274,-0.283014,-0.4603,0.705835
509,-0.10921900000000001,-1.060207,-1.1849129999999999,-0.053267999999999996,0.8724559999999999,-0.485779,0.568189,-2.3470590000000002,0.875977,-0.298004,-0.5532729999999999,0.732194
510,-0.11854300000000001,-1.058948,-1.14886,-0.057925,0.871841,-0.48635200000000006,-0.074851,-1.804731,0.8750629999999999,-0.299161,-0.598434,0.693459
511,-0.11683199999999999,-1.069381,-1.114666,-0.056029999999999996,0.8769030000000001,-0.47739,-0.599182,-1.191474,0.882365,-0.207627,-0.570186,0.539111
512,-0.10443599999999999,-1.088111,-1.0823459999999998,-0.048387,0.8857520000000001,-0.46163000000000004,-1.086396,-0.44496899999999995,0.835276,-0.044692,-0.525003,0.324575
513,-0.078942,-1.121126,-1.056389,-0.034277999999999996,0.90059,-0.43331400000000003,-1.826968,0.299735,0.659302,-0.086099,-0.264802,-0.02715
514,-0.058181,-1.156989,-1.0435649999999999,-0.023381,0.9155969999999999,-0.401416,-1.504524,0.562695,0.15488,-0.565578,0.600608,-1.215084
515,-0.07147,-1.1716360000000001,-1.060218,-0.027752999999999996,0.9213879999999999,-0.387652,-0.353435,-0.347364,-0.497143,-0.499911,1.401,-1.3031139999999999
516,-0.087887,-1.153124,-1.067059,-0.035604000000000004,0.9140360000000001,-0.404067,1.534805,-0.9720790000000001,0.111847,0.487005,2.208386,-0.9041600000000001
517,-0.09925,-1.12008,-1.042125,-0.043163,0.900135,-0.433465,1.554147,-1.618791,0.385203,-0.182469,-0.60059,-0.009345000000000001
518,-0.100591,-1.09953,-1.027829,-0.045593,0.8909940000000001,-0.451719,0.7798430000000001,0.075556,0.11804500000000001,-0.30703800000000003,-0.974643,0.237425
519,-0.074589,-1.096308,-1.019176,-0.034047,0.889526,-0.45561199999999996,-0.310731,1.096219,0.231965,-0.725826,-0.28071599999999997,-0.17083800000000002
520,-0.090715,-1.120378,-1.038055,-0.039438,0.900265,-0.43355,-1.751193,-0.702303,-0.8311950000000001,-0.22357800000000003,0.849231,0.9609549999999999
521,-0.161484,-1.153414,-1.116085,-0.065176,0.9141530000000001,-0.400093,-1.386272,1.413987,-1.575909,0.33721,1.543687,1.220314
522,-0.134464,-1.13462,-1.161915,-0.056637,0.906374,-0.418662,1.659189,3.2538650000000002,-0.791079,0.003643,1.292433,0.583716
523,-0.12682000000000002,-1.119657,-1.1754870000000002,-0.055144000000000006,0.8999510000000001,-0.432488,-0.186718,0.154171,-0.05545,-0.378419,-1.08446,0.5811390000000001
524,-0.117423,-1.153685,-1.164742,-0.047461,0.9142629999999999,-0.402329,-2.443443,0.166242,0.47997399999999996,-0.286325,-0.844698,0.982942
525,-0.101954,-1.217273,-1.181365,-0.035236,0.938159,-0.344406,-3.4453300000000002,2.349766,-0.176097,-0.003934,-0.153766,1.186553
526,-0.078827,-1.288087,-1.217136,-0.021966,0.960303,-0.27809,-3.675589,3.0538529999999997,-0.22774499999999998,0.201471,0.7205590000000001,0.8094779999999999
527,-0.077684,-1.358671,-1.2878180000000001,-0.016339,0.9775860000000001,-0.20990100000000003,-3.273805,3.696507,-0.914766,0.41166400000000003,0.924026,0.49083000000000004
528,-0.136706,-1.400003,-1.420668,-0.023162000000000002,0.98545,-0.168373,-1.6388630000000002,3.272369,-0.9604860000000001,0.34761,0.297921,0.078056
529,-0.22227399999999997,-1.424495,-1.549816,-0.032136,0.989317,-0.142188,-1.355996,1.4380190000000002,-0.686967,0.048096,-0.04431,0.14987799999999998
530,-0.336959,-1.4497950000000002,-1.681096,-0.039905,0.9926879999999999,-0.11391,-1.521147,0.404961,-0.34283,-0.159421,-0.150327,0.220478
531,-0.486731,-1.477965,-1.83415,-0.043354000000000004,0.9956940000000001,-0.081924,-1.6769180000000001,0.106512,-0.165142,-0.14877,-0.152784,0.156829
532,-0.789254,-1.504264,-2.144675,-0.04718,0.9977879999999999,-0.046818,-1.8071099999999998,0.515205,-0.22532800000000003,-0.104126,-0.177109,0.21260500000000002
533,-1.336106,-1.518123,-2.706429,-0.051186,0.998613,-0.012237999999999999,-1.701503,0.7407100000000001,-0.233425,-0.005455,-0.156038,0.15947
534,-1.8754369999999998,-1.511125,3.018094,-0.056872000000000006,0.9982200000000001,0.017882,-1.535044,1.149483,-0.304357,0.015628,-0.20017000000000001,-0.066161
535,-2.202713,-1.490585,2.6620619999999997,-0.06464,0.996785,0.04732,-1.565631,1.386399,-0.383922,-0.093777,-0.21797600000000003,0.07649
536,-2.356695,-1.46305,2.487393,-0.075994,0.994201,0.076071,-1.502364,0.772362,-0.59527,0.027456,-0.121322,0.097941
537,-2.4301909999999998,-1.4314209999999998,2.401226,-0.090697,0.990303,0.10522100000000001,-1.533567,0.602475,-0.707433,0.139434,-0.037849,-0.022488
538,-2.4727900000000003,-1.397158,2.338822,-0.10712,0.9849629999999999,0.135542,-1.686496,1.212432,-0.729579,0.213214,0.02961,-0.10886900000000001
539,-2.4902889999999998,-1.360935,2.2898240000000003,-0.126288,0.97806,0.165674,-1.711298,1.634344,-0.723884,-0.006784,0.065718,-0.367151
540,-2.497566,-1.3276940000000002,2.252816,-0.144527,0.9705959999999999,0.192492,-1.474257,1.266802,-0.657664,-0.049916,0.131012,-0.302645
541,-2.484641,-1.2991059999999999,2.240624,-0.16388599999999998,0.963319,0.2125,-1.083114,1.2777049999999999,-0.792746,0.018409000000000002,0.22598200000000002,-0.21416300000000002
542,-2.454107,-1.275688,2.248464,-0.184565,0.9567709999999999,0.224773,-0.6956869999999999,1.069704,-0.7940470000000001,0.40095,0.359529,-0.268993
543,-2.4213880000000003,-1.259916,2.2582169999999997,-0.201749,0.9520649999999999,0.229931,-0.403072,1.187886,-0.499461,0.44343299999999997,0.311836,-0.237454
544,-2.396368,-1.25194,2.267764,-0.212581,0.9495950000000001,0.230386,-0.067525,0.5075390000000001,-0.348831,0.475779,0.306936,-0.216363
545,-2.370895,-1.2475180000000001,2.2896349999999996,-0.22130300000000003,0.948199,0.22790700000000003,0.139535,0.2078,-0.42925399999999997,0.165959,0.39871,-0.35565399999999997
546,-2.3376099999999997,-1.2464540000000002,2.3174759999999996,-0.22949099999999997,0.94786,0.22111599999999998,0.428583,0.320253,-0.297056,0.10366700000000001,0.43041999999999997,-0.293091
547,-2.284859,-1.253855,2.37624,-0.235523,0.9501930000000001,0.20410799999999998,1.2438420000000001,-0.474681,-0.41105200000000003,0.075382,0.49258599999999997,-0.322837
548,-2.18891,-1.270619,2.484491,-0.24097600000000002,0.955284,0.17135,2.2104880000000002,-0.060072,-0.238188,0.21460900000000002,0.225884,-0.1419
549,-2.035685,-1.3011629999999998,2.6384990000000004,-0.238105,0.9638690000000001,0.119422,2.786083,0.262238,0.444809,0.17970899999999998,0.096648,-0.089027
550,-1.8374560000000002,-1.336445,2.845443,-0.224002,0.972665,0.061189999999999994,3.157998,-0.363933,0.8680200000000001,0.082248,0.044608,0.016493
551,-1.587623,-1.3657139999999999,3.121671,-0.20361500000000002,0.979044,0.003426,3.180516,-1.3447930000000001,1.049964,-0.356108,0.57398,0.325507
552,-1.2857129999999999,-1.3766639999999999,-2.828339,-0.185125,0.981215,-0.054254,3.145361,-0.986223,0.9210719999999999,-0.363184,0.6877909999999999,0.339471
553,-0.987624,-1.369599,-2.514767,-0.16680899999999999,0.979828,-0.110046,2.7867439999999997,-0.172703,1.053189,-0.319046,0.631027,0.302352
554,-0.719535,-1.354567,-2.247213,-0.14139300000000002,0.9767129999999999,-0.161363,2.443552,0.472718,1.384318,-0.37194299999999997,0.295809,0.26002600000000003
555,-0.49466499999999997,-1.337917,-2.017132,-0.10955899999999999,0.9730059999999999,-0.20311300000000002,2.045235,-0.23984699999999998,1.7029150000000002,-0.38011100000000003,0.357576,0.408527
556,-0.326006,-1.310502,-1.835879,-0.082424,0.9663139999999999,-0.24380700000000002,2.1439470000000003,-0.467807,1.3492469999999999,-0.25417,0.22619099999999998,0.471163
557,-0.206972,-1.277182,-1.6950759999999998,-0.059474,0.957204,-0.283236,2.170034,-0.9223110000000001,1.500631,0.065653,-0.008596,0.503771
558,-0.11133499999999999,-1.235862,-1.577217,-0.036521,0.9444319999999999,-0.32666999999999996,2.345551,-0.903334,1.398215,0.266639,-0.136723,0.474711
559,-0.056852999999999994,-1.192061,-1.491571,-0.02101,0.929133,-0.369147,2.284908,-1.495855,1.241522,0.14108099999999998,-0.291132,0.526587
560,-0.03829,-1.14947,-1.426325,-0.015656,0.9125469999999999,-0.40867,2.093684,-2.366172,1.137684,-0.007568000000000001,-0.334789,0.614481
561,-0.037437,-1.111069,-1.371192,-0.016607,0.896174,-0.443392,1.8747900000000002,-2.460003,1.082865,-0.057535,-0.324412,0.6320359999999999
562,-0.045982999999999996,-1.077583,-1.3231549999999999,-0.021763,0.8808159999999999,-0.472958,1.615919,-2.66661,1.026842,-0.279659,-0.358081,0.669262
563,-0.065473,-1.050506,-1.280904,-0.032525,0.867675,-0.496067,1.26363,-2.8448900000000004,0.894287,-0.278449,-0.391723,0.771457
564,-0.088515,-1.032247,-1.245731,-0.045339,0.858454,-0.510883,0.793004,-2.5072490000000003,0.782676,-0.25727300000000003,-0.407801,0.77283
565,-0.10511,-1.0259559999999999,-1.214513,-0.054376,0.85521,-0.515421,0.145772,-1.961655,0.767842,-0.231131,-0.48339899999999997,0.6626989999999999
566,-0.114613,-1.0323309999999999,-1.18629,-0.058647000000000005,0.858497,-0.509454,-0.453035,-1.56217,0.7524649999999999,-0.148155,-0.501609,0.511407
567,-0.122045,-1.049411,-1.16124,-0.060638,0.86713,-0.49437700000000007,-0.962936,-1.3471819999999999,0.71124,-0.090852,-0.504871,0.42177600000000004
568,-0.12303,-1.075908,-1.139942,-0.058284,0.880022,-0.471344,-1.485059,-0.5642149999999999,0.633951,-0.119024,-0.29470999999999997,-0.043656
569,-0.10428399999999999,-1.11245,-1.128771,-0.046058999999999996,0.896785,-0.440062,-1.814182,0.9464600000000001,0.358388,-0.291298,-0.132656,-0.391511
570,-0.086485,-1.136026,-1.132584,-0.036382,0.906967,-0.419628,-0.785044,0.803311,-0.166215,-0.5960489999999999,1.153519,-1.082768
571,-0.10356199999999999,-1.135609,-1.150687,-0.043582,0.906791,-0.419321,0.665221,-0.302287,-0.397154,0.21509099999999998,1.965798,-0.7830560000000001
572,-0.11349100000000001,-1.109626,-1.139457,-0.050395,0.895532,-0.442134,1.5105520000000001,-1.46265,0.270398,0.159022,0.311163,-0.144765
573,-0.130873,-1.08235,-1.125397,-0.061237,0.8830629999999999,-0.46524099999999996,1.2080110000000002,-1.2989680000000001,0.092887,-0.059765,-0.20037,0.074296
574,-0.12771400000000002,-1.068206,-1.11545,-0.061352,0.876338,-0.477774,0.365452,0.329014,0.230194,-0.317676,-1.025141,-0.0005740000000000001
575,-0.102875,-1.078598,-1.102727,-0.048529,0.8812959999999999,-0.470066,-0.992916,0.615654,0.321819,-0.478815,-0.604563,0.22349899999999998
576,-0.105251,-1.1158370000000002,-1.125867,-0.046165,0.898279,-0.43699499999999997,-2.478558,1.0938430000000001,-0.756324,-0.386666,-0.17119700000000002,1.325377
577,-0.157629,-1.174566,-1.2126219999999999,-0.060584000000000006,0.922522,-0.381159,-3.200533,1.7081709999999999,-1.6434380000000002,-0.561852,0.804178,1.229532
578,-0.156393,-1.206687,-1.288086,-0.055467999999999996,0.934441,-0.351771,-0.271744,4.610804,-0.659959,-0.219191,2.664253,-1.3201040000000002
579,-0.153089,-1.189699,-1.320076,-0.056718,0.928257,-0.36759000000000003,0.093655,-0.315118,-0.954469,0.339951,-0.061588,1.6282709999999998
580,-0.184883,-1.2127940000000001,-1.352239,-0.064415,0.936599,-0.344432,-1.6421,0.2705,0.086991,0.28630900000000004,-1.016936,0.9845379999999999
581,-0.154231,-1.253204,-1.343958,-0.047972,0.94999,-0.308573,-2.208121,1.7175599999999998,0.47322,0.088713,-0.677178,0.57757
582,-0.139193,-1.307611,-1.372368,-0.036095,0.965566,-0.257641,-3.0964669999999996,2.177725,-0.345423,0.033578,-0.344671,0.5645560000000001
583,-0.201211,-1.372221,-1.4915530000000001,-0.039425999999999996,0.980349,-0.19329200000000002,-3.3839650000000003,3.143023,-0.934054,-0.008914,0.5340560000000001,0.677361
584,-0.307766,-1.420158,-1.669687,-0.04546,0.988675,-0.143016,-2.193948,3.3111620000000004,-0.8565219999999999,0.07294099999999999,0.466967,0.29194200000000003
585,-0.46001499999999995,-1.441251,-1.867819,-0.057351,0.9916209999999999,-0.115752,-1.1740979999999999,1.309477,-0.9333600000000001,0.177484,0.120775,-0.056764
586,-0.666933,-1.449318,-2.072443,-0.07495700000000001,0.9926309999999999,-0.095211,-1.05996,-0.911589,-0.774824,-0.063898,-0.12847999999999998,-0.009526
587,-0.933321,-1.4639739999999999,-2.323859,-0.085678,0.9943,-0.063455,-1.8451990000000003,-0.42293000000000003,-0.28528000000000003,-0.160843,-0.192512,0.311105
588,-1.3134430000000001,-1.4797870000000002,-2.718234,-0.087889,0.9958610000000001,-0.023131,-2.058885,1.116399,-0.10180700000000001,0.012083,-0.272656,0.374114
589,-1.6611799999999999,-1.478436,-3.08881,-0.09185,0.9957379999999999,0.008324,-1.441315,0.8923629999999999,-0.28841700000000003,0.099967,-0.266856,0.11923900000000001
590,-1.895491,-1.465483,2.943641,-0.099623,0.99446,0.033533999999999994,-1.362401,0.792323,-0.380673,0.10433800000000001,-0.057112,-0.185191
591,-2.0824689999999997,-1.447675,2.739347,-0.107081,0.9924299999999999,0.060132000000000005,-1.4057520000000001,0.7059300000000001,-0.316772,0.045756,-0.040892000000000005,-0.042386
592,-2.207379,-1.427694,2.604068,-0.11467999999999999,0.989778,0.08477699999999999,-1.254389,0.353139,-0.401789,0.027002999999999996,-0.032563999999999996,0.041871
593,-2.28443,-1.404357,2.5186040000000003,-0.125245,0.986181,0.108446,-1.248129,0.41866400000000004,-0.542834,0.089891,-0.07875599999999999,-0.12283499999999999
594,-2.3326599999999997,-1.378623,2.45562,-0.138193,0.981591,0.13183699999999998,-1.288527,0.8855569999999999,-0.5832390000000001,0.087,-0.026056,-0.126252
595,-2.35915,-1.351876,2.405307,-0.153112,0.976133,0.15401900000000002,-1.312602,1.202124,-0.607314,0.041005,0.057741999999999995,-0.15121199999999999
596,-2.374535,-1.3249090000000001,2.368667,-0.168936,0.969922,0.17525,-1.19448,0.842933,-0.661576,0.021994,0.079028,-0.229098
597,-2.374846,-1.300812,2.352696,-0.18504600000000002,0.963775,0.192081,-0.8818030000000001,0.816454,-0.7042229999999999,0.153278,0.16095,-0.22745100000000001
598,-2.352244,-1.279919,2.355124,-0.203593,0.957993,0.201991,-0.63813,1.082188,-0.769091,0.282923,0.243851,-0.28596
599,-2.322123,-1.263852,2.362901,-0.220804,0.953261,0.20624800000000001,-0.360417,1.120876,-0.562103,0.450495,0.287553,-0.20984899999999998
600,-2.296182,-1.2552889999999999,2.375285,-0.232179,0.9506389999999999,0.20586,-0.022952,0.393646,-0.41033100000000006,0.44381800000000005,0.31697,-0.286197
601,-2.269148,-1.250998,2.4027990000000004,-0.240781,0.949299,0.202129,0.30061,-0.06216699999999999,-0.455556,0.374753,0.361614,-0.397899
602,-2.2275669999999996,-1.250275,2.446197,-0.249518,0.9490709999999999,0.192364,0.710961,0.05901699999999999,-0.48061899999999996,0.00112,0.22179699999999997,-0.41773699999999997
603,-2.132372,-1.256069,2.543533,-0.26201399999999997,0.950881,0.164845,1.872611,0.246635,-0.7205729999999999,0.220937,0.327989,-0.427861
604,-1.976559,-1.267244,2.702302,-0.27464,0.9542809999999999,0.117986,2.626852,0.23134899999999997,-0.48241300000000004,0.423642,0.246204,-0.207494
605,-1.7800619999999998,-1.285929,2.895539,-0.274899,0.959699,0.058382,3.125451,0.71822,0.406002,0.442303,0.115847,0.049178
606,-1.562398,-1.31124,3.121207,-0.256642,0.9665040000000001,-0.0021550000000000002,3.0676,-0.641018,1.240553,0.351049,0.216892,0.319828
607,-1.343966,-1.3358379999999999,-2.906713,-0.226838,0.9725239999999999,-0.052355,2.917719,-1.7023689999999998,1.7204979999999999,-0.280258,0.984187,0.389788
608,-1.101108,-1.348128,-2.630651,-0.196919,0.9753120000000001,-0.099951,2.562678,-0.922588,1.495897,-0.455608,0.839111,0.233969
609,-0.868718,-1.343148,-2.378555,-0.172312,0.9742,-0.14575,2.462584,-0.563666,1.335573,-0.30617300000000003,0.28339899999999996,0.283018
610,-0.652407,-1.326324,-2.1497900000000003,-0.146945,0.9702649999999999,-0.192334,2.358832,-0.29839899999999997,1.422102,-0.399411,0.351405,0.278806
611,-0.47627299999999995,-1.315644,-1.945616,-0.11571400000000001,0.967625,-0.22430300000000003,1.6558169999999999,-1.41874,1.9484650000000001,-0.341043,0.360821,0.47589
612,-0.341001,-1.294309,-1.781966,-0.091292,0.9620200000000001,-0.257259,1.854957,-0.9046569999999999,1.355266,-0.013475,0.003098,0.47797799999999996
613,-0.23407600000000003,-1.265003,-1.651884,-0.069827,0.953608,-0.29284,2.040078,-0.964117,1.412183,0.073626,-0.119777,0.55645
614,-0.153455,-1.226691,-1.539779,-0.051565999999999994,0.941378,-0.33339,2.296637,-1.598711,1.378469,0.042945,-0.178957,0.594468
615,-0.10990499999999999,-1.185643,-1.450711,-0.041208,0.926741,-0.373434,2.163193,-2.1922650000000004,1.276816,0.0057929999999999995,-0.246763,0.633886
616,-0.092261,-1.147049,-1.377602,-0.037882,0.9115549999999999,-0.40943,2.003759,-2.6142990000000004,1.195058,-0.022985,-0.284724,0.697607
617,-0.095218,-1.110139,-1.316801,-0.042263999999999996,0.89576,-0.442524,1.935281,-3.013066,1.076518,-0.087008,-0.35154,0.7038
618,-0.111097,-1.0765719999999999,-1.266628,-0.05259,0.880337,-0.47142399999999995,1.6468610000000001,-2.994457,0.9356110000000001,-0.204597,-0.47550600000000004,0.736851
619,-0.12457599999999999,-1.0545879999999999,-1.220489,-0.061329999999999996,0.8696969999999999,-0.48976099999999995,0.981735,-2.556696,0.996633,-0.307841,-0.5906899999999999,0.78305
620,-0.135129,-1.044351,-1.179728,-0.067691,0.864598,-0.497883,0.41851800000000006,-2.129407,0.9237850000000001,-0.333386,-0.6501060000000001,0.7511939999999999
621,-0.13813399999999998,-1.04641,-1.1431850000000001,-0.068941,0.8656309999999999,-0.495913,-0.19100899999999998,-1.5040440000000002,0.9080440000000001,-0.30406,-0.59578,0.606234
622,-0.135351,-1.057598,-1.112042,-0.06625,0.871179,-0.486475,-0.684066,-0.938343,0.79278,-0.07172,-0.576959,0.419749
623,-0.12424,-1.08313,-1.0881379999999998,-0.058065,0.8834290000000001,-0.464954,-1.4679010000000001,-0.268284,0.673214,-0.001719,-0.39768000000000003,0.16286
624,-0.111873,-1.119014,-1.0779940000000001,-0.048739,0.8996700000000001,-0.433841,-1.88535,0.49840200000000007,0.314666,-0.20954699999999998,-0.035336,-0.518109
625,-0.09804,-1.148871,-1.084166,-0.040085,0.9123020000000001,-0.407551,-1.020397,1.088753,-0.21522800000000003,-0.523788,0.9421139999999999,-1.300884
626,-0.117416,-1.152555,-1.1104129999999999,-0.047580000000000004,0.913805,-0.403357,0.33053299999999997,-0.388905,-0.556411,0.130435,2.307051,-0.9916159999999999
627,-0.13560899999999998,-1.128888,-1.1028069999999999,-0.057817999999999994,0.9039370000000001,-0.42373900000000003,1.542033,-1.733673,0.354286,0.32455700000000004,0.588327,-0.30364800000000003
628,-0.147606,-1.102,-1.0800319999999999,-0.06644800000000001,0.8921129999999999,-0.4469,1.1932209999999999,-1.385678,0.211466,-0.12508,-0.566688,0.227097
629,-0.14319300000000001,-1.0875549999999998,-1.066339,-0.066308,0.885494,-0.459895,0.456296,0.196325,0.30043200000000003,-0.375312,-0.871334,-0.16312100000000002
630,-0.12795499999999999,-1.095643,-1.056851,-0.058377,0.889222,-0.45373500000000005,-0.997778,0.267133,0.10431300000000002,-0.342563,-0.29946999999999996,0.07548400000000001
631,-0.157073,-1.137473,-1.09181,-0.065682,0.907576,-0.41471899999999995,-2.713553,0.168483,-0.909537,-0.055014999999999994,0.043062,0.743027
632,-0.181677,-1.167512,-1.1700840000000001,-0.070906,0.9197770000000001,-0.385982,-0.567059,4.063483,-1.259526,-0.22818200000000002,1.702675,0.401423
633,-0.155671,-1.145694,-1.208164,-0.063942,0.910997,-0.407426,0.903507,1.3154370000000002,-0.761828,-0.307152,0.550185,1.073655
634,-0.17211700000000002,-1.154509,-1.21945,-0.069255,0.9145969999999999,-0.398392,-1.245766,-0.838507,0.289869,-0.059636,-0.943649,0.6488189999999999
635,-0.169233,-1.197602,-1.210426,-0.061407,0.931167,-0.35938200000000003,-2.514135,0.535253,0.435209,-0.067713,-0.507446,1.002601
636,-0.163605,-1.254774,-1.241793,-0.05062,0.9504790000000001,-0.306637,-3.096421,2.073898,-0.221377,-0.055673,-0.12418499999999999,0.9233819999999999
637,-0.180566,-1.317793,-1.315384,-0.044952,0.9681649999999999,-0.24624200000000002,-3.271621,3.230032,-0.679145,0.058013999999999996,0.352529,0.732784
638,-0.23297600000000002,-1.367658,-1.445106,-0.046577,0.9794379999999999,-0.196292,-2.3506150000000003,3.7307339999999996,-0.950023,0.15421300000000002,0.34676399999999996,0.23481999999999997
639,-0.31600300000000003,-1.397908,-1.594039,-0.05346,0.985092,-0.16350699999999999,-1.51931,2.627248,-0.906482,0.0868,0.146744,0.084665
640,-0.424541,-1.415319,-1.7293330000000002,-0.063783,0.9879379999999999,-0.141103,-1.1177709999999998,0.39716999999999997,-0.6081270000000001,0.036058,0.003258,0.019734
641,-0.5671579999999999,-1.43135,-1.863241,-0.074671,0.990293,-0.117229,-1.275147,-0.744925,-0.44218900000000005,-0.15781199999999998,-0.21504,0.335002
642,-0.7629130000000001,-1.451401,-2.057772,-0.08230599999999999,0.9928809999999999,-0.08609299999999999,-1.678159,0.3958,-0.312938,-0.051878999999999995,-0.197043,0.31509699999999996
643,-1.000173,-1.46755,-2.311832,-0.08673,0.994675,-0.055667999999999995,-1.503841,0.767868,-0.269468,0.143508,-0.131333,0.226841
644,-1.275703,-1.475378,-2.60373,-0.091148,0.995451,-0.027706,-1.4983870000000001,0.8273719999999999,-0.236391,0.216209,-0.10207999999999999,-0.017643
645,-1.568014,-1.475668,-2.921648,-0.094976,0.9954790000000001,-0.000264,-1.440432,1.400201,-0.214288,0.094412,-0.071742,-0.080592
646,-1.7977459999999998,-1.4657360000000001,3.106236,-0.10216900000000001,0.9944860000000001,0.023594,-1.267631,0.915861,-0.45387799999999995,-0.031208,-0.094752,0.030194
647,-1.964331,-1.44505,2.933294,-0.11582200000000001,0.9921040000000001,0.048089,-1.279936,-0.01807,-0.788189,0.044335,-0.126473,0.075843
648,-2.084734,-1.41844,2.811131,-0.132158,0.988416,0.07460900000000001,-1.3908969999999998,0.192281,-0.814871,0.242983,0.013705000000000002,-0.049844
649,-2.170452,-1.389802,2.711718,-0.148598,0.983665,0.101586,-1.481063,0.849601,-0.747977,0.163186,0.07370800000000001,-0.145654
650,-2.229457,-1.36161,2.631326,-0.164221,0.9782,0.127101,-1.429638,0.9896659999999999,-0.6548619999999999,0.012503,0.018641,-0.256632
651,-2.262849,-1.335404,2.58051,-0.179566,0.9724229999999999,0.148823,-1.122499,0.690455,-0.687584,0.007568999999999999,0.044636,-0.280354
652,-2.268506,-1.312789,2.561559,-0.195527,0.9669,0.163926,-0.784266,0.651111,-0.732173,0.248994,0.346576,-0.313569
653,-2.254463,-1.2941340000000001,2.559958,-0.211758,0.9619719999999999,0.172529,-0.49449399999999993,0.855454,-0.6695220000000001,0.413067,0.253726,-0.193525
654,-2.2299450000000003,-1.2821040000000001,2.56892,-0.225056,0.958617,0.17436,-0.147418,0.657421,-0.46495,0.48003,0.283036,-0.23530399999999999
655,-2.207909,-1.276799,2.587164,-0.232929,0.9570930000000001,0.172382,0.157435,-0.00032,-0.34661,0.356006,0.379027,-0.348148
656,-2.1784790000000003,-1.2748700000000002,2.616205,-0.239414,0.9565319999999999,0.166507,0.375707,0.201073,-0.283387,0.06995,0.335399,-0.492648
657,-2.128438,-1.278389,2.664403,-0.24458600000000003,0.9575530000000001,0.152541,0.967404,0.122245,-0.26419699999999996,-0.029508,0.261075,-0.400008
658,-2.010839,-1.285823,2.787791,-0.254346,0.9596690000000001,0.119754,2.134189,-0.114625,-0.647781,0.058408,0.412264,-0.506046
659,-1.830615,-1.292273,2.974871,-0.265705,0.961463,0.070632,2.755345,0.345909,-0.47098100000000004,0.262424,0.10640899999999999,-0.120528
660,-1.597318,-1.300938,-3.084443,-0.266498,0.963809,0.00707,3.144714,0.88892,0.3258,0.364978,0.087125,0.230006
661,-1.371838,-1.312376,-2.845715,-0.25050900000000004,0.9667950000000001,-0.050509,2.9460040000000003,-1.018176,1.092771,0.342154,0.394335,0.46853900000000004
662,-1.165978,-1.321633,-2.595118,-0.226658,0.9691190000000001,-0.09711900000000001,2.844606,-2.027284,1.519577,-0.041760000000000005,0.8772399999999999,0.338071
663,-0.9524739999999999,-1.323757,-2.337857,-0.199256,0.969641,-0.141746,2.573731,-1.633779,1.6496400000000002,-0.205087,0.838556,0.336204
664,-0.744559,-1.315714,-2.107353,-0.170985,0.967643,-0.185554,2.385206,-0.193716,1.594135,-0.35352100000000003,0.48720699999999995,0.27011799999999997
665,-0.550416,-1.304775,-1.895688,-0.137503,0.964824,-0.22406399999999999,1.75375,-1.0936569999999999,2.086532,-0.618509,0.5329020000000001,0.388356
666,-0.39970500000000003,-1.2915290000000001,-1.708225,-0.107268,0.961258,-0.25392,1.892147,-1.392655,1.61466,-0.618242,0.228226,0.509993
667,-0.2921,-1.263744,-1.57532,-0.087036,0.9532290000000001,-0.289444,1.9560689999999998,-0.898857,1.415784,-0.089615,-0.075909,0.502991
668,-0.190937,-1.229874,-1.448641,-0.063453,0.9424469999999999,-0.328277,2.27292,-0.98262,1.575133,0.149482,-0.13481400000000002,0.619857
669,-0.123424,-1.184309,-1.349401,-0.046405,0.9262389999999999,-0.37406799999999996,2.571234,-1.393573,1.256209,0.24693600000000002,-0.301086,0.518675
670,-0.09485299999999999,-1.141,-1.282182,-0.039465,0.909051,-0.414811,2.10531,-1.8191540000000002,0.9960559999999999,0.17918900000000001,-0.348961,0.575928
671,-0.09155,-1.104324,-1.229898,-0.041116,0.8931610000000001,-0.447853,1.8870470000000001,-2.460636,0.965443,0.04197,-0.304324,0.716972
672,-0.10739100000000001,-1.0693270000000001,-1.183751,-0.051525,0.876877,-0.477943,1.781591,-3.009503,0.853247,0.014355000000000001,-0.309388,0.7323069999999999
673,-0.13198,-1.041297,-1.142867,-0.06647,0.86306,-0.500707,1.32641,-2.937557,0.838225,-0.203855,-0.40981300000000004,0.721746
674,-0.154542,-1.024161,-1.104762,-0.080014,0.8542790000000001,-0.5136189999999999,0.7633489999999999,-2.633096,0.8456520000000001,-0.318103,-0.470367,0.766915
675,-0.17181300000000002,-1.0209270000000001,-1.070319,-0.089344,0.852593,-0.514881,0.027194,-2.1352700000000002,0.865509,-0.355358,-0.524941,0.7357670000000001
676,-0.182809,-1.0307389999999998,-1.041434,-0.093475,0.8576790000000001,-0.505616,-0.557766,-1.551347,0.8019229999999999,-0.245469,-0.5483680000000001,0.623368
677,-0.18394000000000002,-1.05102,-1.0188700000000002,-0.09084600000000001,0.86793,-0.48830500000000004,-1.072071,-0.706558,0.708585,-0.08858200000000001,-0.530406,0.373636
678,-0.17465999999999998,-1.080452,-1.0022739999999999,-0.081835,0.8821709999999999,-0.46376300000000004,-1.5550899999999999,-0.016364,0.6210060000000001,0.009279,-0.29991,0.1487
679,-0.156278,-1.1165260000000001,-0.9902190000000001,-0.068297,0.898581,-0.433457,-1.772541,0.661157,0.5417069999999999,-0.10682799999999999,0.09020299999999999,-0.415908
680,-0.13179100000000002,-1.144004,-0.983503,-0.054397,0.9102979999999999,-0.410361,-0.9567110000000001,0.9102129999999999,0.156117,-0.330277,0.772975,-1.0631190000000001
681,-0.133164,-1.149482,-0.9956299999999999,-0.054298,0.912552,-0.405337,0.34782199999999996,0.337803,-0.352125,0.012458,2.109573,-1.176618
682,-0.13471,-1.126466,-0.981234,-0.05773,0.902899,-0.425957,1.409897,-1.395779,0.41915699999999995,0.33634000000000003,0.612268,-0.443993
683,-0.144074,-1.103358,-0.958987,-0.064695,0.892725,-0.44593,0.9983350000000001,-1.28813,0.229206,-0.05818400000000001,-0.52447,0.120277
684,-0.138872,-1.091118,-0.9484469999999999,-0.06388200000000001,0.887143,-0.457049,0.39815700000000004,0.44199499999999997,0.18754500000000002,-0.5010439999999999,-0.569501,-0.033414
685,-0.12931099999999998,-1.0985120000000002,-0.9494889999999999,-0.058662,0.890531,-0.451122,-0.8907360000000001,0.23514200000000002,-0.245277,-0.634621,0.35437199999999996,-0.06844
686,-0.17255,-1.122097,-0.9967360000000001,-0.07447999999999999,0.901012,-0.42735,-1.289566,0.294612,-1.183901,0.231371,1.320668,1.2763950000000002
687,-0.17314100000000002,-1.115909,-1.052284,-0.075691,0.8983110000000001,-0.43278999999999995,0.9814430000000001,3.352315,-1.112136,0.09401699999999999,0.9220780000000001,1.1991319999999999
688,-0.159626,-1.09871,-1.073418,-0.072281,0.8906219999999999,-0.44896199999999997,0.244774,0.754359,-0.27112600000000003,-0.347107,-0.701321,1.167712
689,-0.14996500000000001,-1.120371,-1.068851,-0.065042,0.9002620000000001,-0.43046,-1.893199,-0.137121,0.476725,-0.489004,-1.064599,0.271387
690,-0.153893,-1.177875,-1.082025,-0.058691,0.923794,-0.378361,-3.3149839999999995,1.277356,-0.102244,-0.299417,-0.877957,0.622471
691,-0.133423,-1.246341,-1.116047,-0.042408,0.947824,-0.315956,-3.4422349999999997,3.257559,0.04388,0.295948,0.230856,1.0549540000000002
692,-0.08254500000000001,-1.309839,-1.138105,-0.021273,0.966143,-0.257123,-2.992473,3.577801,-0.243945,0.34947399999999995,0.883085,0.505216
693,-0.108216,-1.356423,-1.2314100000000001,-0.022976,0.97711,-0.211486,-2.030571,3.1038330000000003,-1.096537,0.358013,0.75168,0.324752
694,-0.194909,-1.389508,-1.377845,-0.034918,0.983612,-0.176876,-1.8955369999999998,2.6595619999999998,-1.200779,0.126959,0.085159,0.201138
695,-0.333239,-1.420914,-1.563964,-0.048841,0.9887889999999999,-0.141099,-1.8079830000000001,1.802573,-0.883943,-0.09057899999999999,-0.066715,0.195939
696,-0.46560200000000007,-1.444318,-1.7107990000000002,-0.056628,0.9920120000000001,-0.112705,-1.302741,0.050730000000000004,-0.39105999999999996,-0.140149,-0.096535,0.180804
697,-0.671732,-1.460716,-1.9121709999999998,-0.068362,0.9939469999999999,-0.085982,-1.408749,-0.27921799999999997,-0.637069,-0.05991799999999999,-0.152105,0.096053
698,-0.963369,-1.473907,-2.2086080000000003,-0.079421,0.99531,-0.05520599999999999,-1.596316,0.366489,-0.512088,0.056945,-0.028696,0.11781199999999999
699,-1.289808,-1.478573,-2.546967,-0.088466,0.99575,-0.025533,-1.5099360000000002,0.663127,-0.443499,0.06598899999999999,-0.029137,0.08814
700,-1.594109,-1.474489,-2.873823,-0.09611499999999999,0.995366,0.002241,-1.4617069999999999,1.254977,-0.374486,0.19117699999999999,-0.178044,0.004366
701,-1.835954,-1.4617930000000001,-3.1407130000000003,-0.104973,0.994065,0.028506,-1.4422469999999998,0.963471,-0.48613999999999996,0.049873,-0.16151500000000002,0.067442
702,-2.016508,-1.440496,2.952851,-0.117227,0.9915229999999999,0.056008,-1.4058030000000001,0.108654,-0.667456,0.03161,-0.13903,0.063849
703,-2.1366009999999998,-1.4140059999999999,2.828175,-0.131806,0.987734,0.083705,-1.45245,0.33920900000000004,-0.7407159999999999,0.14541700000000002,-0.026445,-0.01942
704,-2.218068,-1.384407,2.729634,-0.147822,0.9826799999999999,0.11174,-1.577525,1.010709,-0.726427,0.036677,0.136659,-0.149856
705,-2.2745509999999998,-1.353416,2.6492720000000003,-0.164426,0.976466,0.139553,-1.586897,1.089461,-0.698819,-0.046985,0.134176,-0.25172
706,-2.3048349999999997,-1.323609,2.597096,-0.181662,0.9696040000000001,0.163898,-1.2881850000000001,1.035359,-0.747938,-0.099756,0.074371,-0.307255
707,-2.298655,-1.29814,2.580518,-0.201047,0.963059,0.179147,-0.8563440000000001,1.143873,-0.819836,0.335507,0.34819,-0.317208
708,-2.2747889999999997,-1.278345,2.582862,-0.219755,0.95754,0.186602,-0.483771,1.0749870000000001,-0.699641,0.440992,0.364939,-0.30826
709,-2.248096,-1.267332,2.5897240000000004,-0.23286199999999999,0.954307,0.18726900000000002,-0.157531,0.8786440000000001,-0.36703,0.580427,0.219887,-0.21253699999999998
710,-2.222759,-1.263514,2.6057799999999998,-0.240425,0.953159,0.18351800000000001,0.211894,0.29226599999999997,-0.301742,0.404854,0.38558600000000004,-0.436936
711,-2.187424,-1.2640280000000002,2.638398,-0.24635900000000002,0.953314,0.174627,0.539984,0.252474,-0.22569099999999997,0.117041,0.386133,-0.275777
712,-2.117871,-1.271971,2.7086349999999997,-0.251424,0.955683,0.153139,1.516859,-0.133124,-0.28139899999999995,0.061925,0.5484220000000001,-0.394945
713,-1.999257,-1.28599,2.842685,-0.255567,0.959716,0.11673199999999999,2.337967,-0.413142,-0.231508,0.078061,0.508454,-0.220309
714,-1.8056849999999998,-1.3061180000000001,3.037512,-0.25440799999999997,0.9651770000000001,0.060881,3.027097,0.602739,0.333889,-0.0161,0.10361,-0.082564
715,-1.556207,-1.326673,-2.996369,-0.241673,0.97035,-0.0035259999999999996,3.285135,0.122572,0.840507,-0.039394,0.078677,0.270936
716,-1.297408,-1.338619,-2.717766,-0.22154400000000002,0.973168,-0.062123000000000005,3.082366,-1.000787,1.155656,-0.072416,0.508034,0.366002
717,-1.048651,-1.337489,-2.442495,-0.20038399999999998,0.972907,-0.11530399999999999,2.8241970000000003,-0.754892,1.158879,-0.21821,0.8317190000000001,0.25747
718,-0.825592,-1.324756,-2.205276,-0.179003,0.969884,-0.165163,2.492236,-0.03803,1.197302,-0.26016,0.41085299999999997,0.370775
719,-0.610054,-1.310151,-1.994171,-0.14763800000000002,0.966224,-0.21121399999999999,2.24907,0.685325,1.665762,-0.32910700000000004,0.22107800000000002,0.222856
720,-0.413666,-1.294988,-1.793484,-0.109464,0.962205,-0.24935,1.6693099999999998,-0.359611,2.142684,-0.41688800000000004,0.414793,0.33637100000000003
721,-0.26929699999999995,-1.2803579999999999,-1.6249209999999998,-0.07618899999999999,0.958118,-0.276046,1.505873,-0.988293,1.7941080000000003,-0.24407800000000002,0.159908,0.569487
722,-0.15701099999999998,-1.25373,-1.486432,-0.048750999999999996,0.950154,-0.30794,1.934116,-0.935293,1.755371,0.041183,-0.095723,0.588549
723,-0.067239,-1.213554,-1.374889,-0.023495,0.936865,-0.34889699999999996,2.277185,-0.8437530000000001,1.476708,0.132473,-0.16109300000000001,0.5149739999999999
724,-0.025776,-1.170294,-1.302267,-0.010048,0.9208649999999999,-0.389748,2.154285,-1.668754,1.1703270000000001,0.091927,-0.243802,0.53991
725,-0.01745,-1.130442,-1.243422,-0.007437999999999999,0.904601,-0.426192,1.946641,-2.557423,1.141173,0.053748000000000004,-0.27098,0.6460560000000001
726,-0.025255,-1.093038,-1.190867,-0.011611,0.888028,-0.45963999999999994,1.844407,-2.784907,1.1087040000000001,-0.050111,-0.300687,0.667938
727,-0.042883,-1.060065,-1.146792,-0.020955,0.8723870000000001,-0.488364,1.58784,-2.835512,0.9328559999999999,-0.20849099999999998,-0.39433,0.68212
728,-0.062199000000000004,-1.0357809999999998,-1.107549,-0.031692000000000005,0.860261,-0.508866,1.0450629999999999,-2.561878,0.9062819999999999,-0.31091399999999997,-0.46327299999999993,0.7042390000000001
729,-0.079373,-1.02367,-1.071784,-0.041249,0.854023,-0.5185960000000001,0.436352,-2.255996,0.86425,-0.296123,-0.545521,0.752116
730,-0.091686,-1.0238,-1.0401479999999999,-0.047621,0.8540909999999999,-0.517938,-0.145887,-1.790282,0.789084,-0.272173,-0.551707,0.69053
731,-0.098829,-1.034349,-1.012019,-0.050428,0.8595299999999999,-0.5085890000000001,-0.607664,-1.5201870000000002,0.778035,-0.183383,-0.507708,0.555022
732,-0.096634,-1.05624,-0.9840639999999999,-0.047484,0.870511,-0.48985100000000004,-1.3105799999999999,-0.7380909999999999,0.808442,0.010740999999999999,-0.491651,0.356596
733,-0.07797,-1.0905479999999999,-0.960996,-0.035985,0.8868799999999999,-0.46059300000000003,-1.799996,0.284005,0.576182,-0.015681,-0.41004300000000005,0.224723
734,-0.055291,-1.125412,-0.9532010000000001,-0.023807,0.902445,-0.43014300000000005,-1.482725,1.0604360000000002,0.074271,-0.530621,0.580389,-1.197344
735,-0.058023000000000005,-1.1388639999999999,-0.973864,-0.024276,0.908159,-0.417918,-0.348058,0.252868,-0.619658,-0.5301520000000001,0.574675,-1.2095690000000001
736,-0.080982,-1.1287209999999999,-0.994417,-0.034607,0.903866,-0.42641,0.918043,-0.52472,-0.135528,0.45933599999999997,2.063526,-0.7913319999999999
737,-0.098789,-1.103372,-0.977367,-0.044441,0.892732,-0.44838900000000004,1.394655,-2.084374,0.27252,-0.051354,-0.157334,0.12375799999999999
738,-0.11690899999999999,-1.080151,-0.966197,-0.054961,0.8820290000000001,-0.467975,1.014359,-0.709188,0.090776,-0.24101399999999998,-0.554591,0.357242
739,-0.098966,-1.071758,-0.952257,-0.047286,0.878043,-0.47623699999999997,0.028143,0.635495,0.336401,-0.45048599999999994,-0.734061,-0.079549
740,-0.09647,-1.0881049999999999,-0.956994,-0.044708,0.885749,-0.462003,-1.376369,0.072193,-0.367032,-0.360962,-0.346656,0.198926
741,-0.139754,-1.131669,-1.009582,-0.059222000000000004,0.905123,-0.421001,-2.638305,0.742404,-1.174667,0.046268000000000004,0.27265700000000004,1.719157
742,-0.13183399999999998,-1.154865,-1.0665229999999999,-0.053112,0.91474,-0.400532,-0.009769,4.16608,-0.760111,-0.26555300000000004,1.513177,0.466145
743,-0.10382999999999999,-1.1373309999999999,-1.089412,-0.043532,0.907516,-0.417753,0.433,0.846306,-0.517755,-0.278398,0.804933,0.6472600000000001
744,-0.111498,-1.153366,-1.093417,-0.045108999999999996,0.914134,-0.402891,-1.3969260000000001,-0.263893,0.313713,-0.072155,-0.751826,0.789976
745,-0.09299500000000001,-1.1942549999999998,-1.091315,-0.034145,0.929942,-0.366113,-2.33376,1.6385419999999997,0.097496,-0.131001,-0.802531,0.907724
746,-0.071301,-1.246264,-1.114838,-0.022716,0.9478,-0.31804899999999997,-2.787861,2.256478,-0.326279,-0.14133199999999999,-0.305115,0.813426
747,-0.06848,-1.3053299999999999,-1.168523,-0.017952000000000003,0.9649700000000001,-0.261735,-3.066798,3.1179,-0.7865300000000001,0.07433300000000001,0.42997299999999994,0.56743
748,-0.099054,-1.357612,-1.271991,-0.020922,0.9773620000000001,-0.210524,-2.3973430000000002,3.4935339999999995,-0.998116,0.19128599999999998,0.6712130000000001,0.511671
749,-0.139713,-1.39342,-1.3719219999999999,-0.024569999999999998,0.98431,-0.174714,-1.5817,2.351368,-0.5925090000000001,0.218906,0.297032,0.280656
750,-0.186842,-1.417489,-1.451524,-0.028363,0.9882709999999999,-0.150032,-1.191088,1.106225,-0.43970200000000004,0.173306,-0.016561000000000003,0.1446
751,-0.272474,-1.4381709999999999,-1.5515079999999999,-0.035582,0.991218,-0.127339,-1.201015,0.547038,-0.45187299999999997,-0.051516,-0.150917,0.170415
752,-0.390052,-1.46234,-1.6813919999999998,-0.041149,0.994124,-0.10009,-1.503412,0.615576,-0.279953,-0.111577,-0.173293,0.18441
753,-0.566575,-1.487671,-1.87392,-0.044548000000000004,0.996547,-0.07002699999999999,-1.5187389999999998,0.8125180000000001,-0.23331100000000002,-0.061028,-0.12421700000000001,0.19684300000000002
754,-0.868395,-1.505166,-2.1913080000000003,-0.050026,0.9978469999999999,-0.042342000000000005,-1.400245,0.703946,-0.35732600000000003,0.062371,-0.142378,-0.005372
755,-1.340981,-1.512078,-2.682816,-0.057092,0.9982770000000001,-0.013356999999999999,-1.558635,1.0486659999999999,-0.37917,0.040979,-0.17244,0.06075
756,-1.810759,-1.503344,3.108318,-0.065425,0.997726,0.016008,-1.4892889999999999,0.9614219999999999,-0.466168,0.026699,-0.175704,0.21307199999999998
757,-2.077186,-1.4818799999999999,2.829211,-0.077624,0.99605,0.043052999999999994,-1.347013,0.351408,-0.6865829999999999,0.10521199999999999,-0.080019,0.060371
758,-2.2181740000000003,-1.453843,2.681928,-0.093056,0.9931690000000001,0.070357,-1.486297,0.38521,-0.760238,0.146309,0.034038,-0.085143
759,-2.317087,-1.4214950000000002,2.564849,-0.109194,0.988875,0.100971,-1.685789,1.1378409999999999,-0.72414,0.078387,0.065415,-0.15485
760,-2.3658069999999998,-1.388774,2.489632,-0.126749,0.9834799999999999,0.12921,-1.484548,1.2258,-0.783736,-0.028356,0.002009,-0.263854
761,-2.378404,-1.358166,2.453952,-0.145859,0.9774790000000001,0.15248599999999998,-1.245069,1.065308,-0.81604,0.021912,0.14215,-0.243948
762,-2.371759,-1.332646,2.440543,-0.164184,0.971776,0.169376,-0.8937620000000001,0.959426,-0.749358,0.129409,0.27224299999999996,-0.246356
763,-2.3487419999999997,-1.312738,2.443412,-0.181786,0.966887,0.179096,-0.54673,1.066705,-0.70541,0.455284,0.282563,-0.191501
764,-2.319219,-1.3003639999999999,2.456912,-0.195747,0.963656,0.181781,-0.169048,0.579784,-0.477822,0.544959,0.26814099999999996,-0.19128699999999998
765,-2.29454,-1.294308,2.476888,-0.204542,0.9620200000000001,0.180757,0.092224,0.168382,-0.386807,0.530424,0.334092,-0.291169
766,-2.262326,-1.292258,2.5061560000000003,-0.21177600000000002,0.961458,0.175332,0.30894,0.30144,-0.282914,0.094894,0.348005,-0.382211
767,-2.2047689999999998,-1.2969469999999998,2.563232,-0.217877,0.9627370000000001,0.160187,1.165394,-0.096349,-0.382176,-0.027347000000000003,0.467301,-0.384796
768,-2.08616,-1.307332,2.6938419999999996,-0.22658899999999998,0.9654940000000001,0.12834500000000001,2.020428,-0.346016,-0.49232,0.019954,0.49634399999999995,-0.42522
769,-1.892677,-1.3245280000000001,2.884705,-0.23125199999999999,0.969829,0.07711699999999999,2.768123,0.862553,0.054011,0.16451,0.06329800000000001,-0.172988
770,-1.6412,-1.346012,3.129648,-0.222329,0.974842,0.015679,3.135189,0.347287,0.718464,0.11744,0.009945,-0.042443
771,-1.360157,-1.361629,-2.854533,-0.20304,0.9782040000000001,-0.043412,3.136652,-1.056262,1.128334,0.0297,0.295523,0.323167
772,-1.062778,-1.361956,-2.523823,-0.18112899999999998,0.9782719999999999,-0.100845,3.1642330000000003,-1.220839,1.236624,-0.191827,0.778976,0.36593600000000004
773,-0.800737,-1.346537,-2.241241,-0.159632,0.974959,-0.154809,2.70336,-0.5521739999999999,1.185546,-0.255346,0.735688,0.23569600000000002
774,-0.585562,-1.326881,-2.015968,-0.133464,0.9704,-0.201259,2.306079,0.125552,1.476732,-0.30927,0.42640500000000003,0.322383
775,-0.388446,-1.3064959999999999,-1.8154279999999998,-0.098938,0.965276,-0.241761,1.8535220000000001,-0.10296199999999998,2.00477,-0.46670500000000004,0.404674,0.362153
776,-0.236052,-1.2832629999999998,-1.648725,-0.066319,0.958946,-0.275714,1.8380560000000001,-0.46423100000000006,1.521221,-0.5074270000000001,0.304588,0.470538
777,-0.142214,-1.251159,-1.536242,-0.044535000000000005,0.949349,-0.311042,1.979157,-0.7720600000000001,1.390141,-0.161779,-0.009561,0.509483
778,-0.061427999999999996,-1.2108079999999999,-1.436157,-0.021625,0.935901,-0.351592,2.223761,-0.637907,1.46218,0.10152,-0.139835,0.499633
779,-0.008462,-1.1676309999999999,-1.359621,-0.0033200000000000005,0.919824,-0.392311,2.186371,-1.095004,1.252065,0.140954,-0.237252,0.55262
780,0.010714,-1.125494,-1.304281,0.004615,0.902481,-0.4307,2.0525439999999997,-1.8331959999999998,1.090775,0.11155,-0.244369,0.617559
781,0.010457,-1.086611,-1.256958,0.004868,0.8850549999999999,-0.46545699999999995,1.8298240000000001,-2.248946,1.0908200000000001,-0.096634,-0.28541500000000003,0.707904
782,-0.000246,-1.053109,-1.2145299999999999,-0.000122,0.868966,-0.49486800000000003,1.617661,-2.553539,0.989316,-0.21977199999999997,-0.368707,0.720133
783,-0.018819,-1.024928,-1.176046,-0.009770000000000001,0.854677,-0.519065,1.243393,-2.537197,0.9567700000000001,-0.26809299999999997,-0.401277,0.737556
784,-0.037353,-1.007431,-1.140849,-0.019943000000000002,0.845463,-0.533659,0.6825180000000001,-2.323943,0.860712,-0.26365700000000003,-0.48793400000000003,0.740797
785,-0.0546,-1.002917,-1.112061,-0.029351,0.843043,-0.537041,0.001181,-1.906582,0.709072,-0.23711300000000002,-0.588832,0.7126239999999999
786,-0.066246,-1.012753,-1.088678,-0.035052999999999994,0.8482930000000001,-0.528362,-0.736417,-1.368878,0.614568,-0.176647,-0.646541,0.610348
787,-0.073715,-1.037208,-1.0706,-0.037459,0.8609870000000001,-0.5072409999999999,-1.450336,-1.033613,0.508739,-0.11158900000000001,-0.6193029999999999,0.45118
788,-0.076279,-1.075,-1.0583850000000001,-0.036253,0.87959,-0.47434499999999996,-2.070725,-0.319371,0.387054,-0.025744,-0.352597,0.184107
789,-0.065287,-1.116973,-1.056368,-0.028600999999999998,0.898777,-0.43746599999999997,-1.9440939999999998,0.951277,0.06798,-0.23110300000000003,0.116039,-0.600254
790,-0.053549,-1.137316,-1.071581,-0.022481,0.90751,-0.41942399999999996,-0.617992,1.1213739999999999,-0.461359,-0.481807,1.059699,-1.21612
791,-0.059672,-1.1316629999999999,-1.093618,-0.025353999999999998,0.90512,-0.424393,0.927758,0.362976,-0.223127,0.116907,2.3195959999999998,-1.103912
792,-0.065715,-1.104598,-1.07551,-0.029517,0.893284,-0.44851800000000003,1.506351,-1.8241509999999999,0.369103,0.359244,0.5608029999999999,-0.297973
793,-0.089224,-1.078183,-1.061049,-0.04214,0.8811,-0.47104399999999996,1.178447,-1.401389,0.15903599999999998,-0.170003,-0.398937,0.340368
794,-0.080886,-1.0639049999999999,-1.0528549999999999,-0.039224,0.874258,-0.48386999999999997,0.297238,0.699392,0.109596,-0.759879,-0.36878,0.035352999999999996
795,-0.081039,-1.075819,-1.066147,-0.038452,0.8799790000000001,-0.473448,-1.02214,0.131356,-0.549439,-0.738739,0.417079,-0.22133000000000003
