,attitude.roll,attitude.pitch,attitude.yaw,gravity.x,gravity.y,gravity.z,rotationRate.x,rotationRate.y,rotationRate.z,userAcceleration.x,userAcceleration.y,userAcceleration.z
0,0.520524,-1.133305,0.208062,0.210704,0.905817,-0.367556,3.9688269999999997,1.776329,0.811466,-0.02853,-0.153834,-0.022855
1,0.49397700000000005,-1.055301,0.159727,0.23373000000000002,0.870049,-0.434033,3.8475580000000003,0.315769,0.9332,-0.367397,-0.325966,0.6418729999999999
2,0.47370500000000004,-0.99449,0.14036700000000002,0.24858899999999998,0.8384809999999999,-0.48492399999999997,2.352605,-0.352666,1.024027,-0.390633,-0.529109,0.81221
3,0.46245200000000003,-0.953285,0.145292,0.25832,0.815322,-0.518189,1.599424,-0.687194,1.1516540000000002,-0.278508,-0.63092,0.921845
4,0.46251099999999995,-0.9200450000000001,0.149557,0.27029899999999996,0.795629,-0.542137,1.265356,-0.055508,0.382596,0.45644700000000005,0.021892,0.527855
5,0.439381,-0.906183,0.12685,0.262355,0.787155,-0.558172,0.743648,-0.323518,-0.6056050000000001,0.17837999999999998,0.656845,0.689855
6,0.405198,-0.9033450000000001,0.091863,0.24400500000000003,0.785402,-0.568863,0.5424899999999999,-0.42543000000000003,-1.052319,-0.2287,0.368544,0.5814819999999999
7,0.37799699999999997,-0.902325,0.06879600000000001,0.22873800000000002,0.78477,-0.576033,0.060689,-0.295724,-0.30489099999999997,-0.07016900000000001,0.017888,0.323759
8,0.382556,-0.915385,0.072369,0.227516,0.792797,-0.565427,-1.124358,0.26873,-0.041495,-0.136543,-0.136761,0.054227
9,0.41819399999999995,-0.955938,0.102769,0.234262,0.816855,-0.5271319999999999,-2.928859,0.680793,-0.025786,0.059332,-0.276923,-0.376219
10,0.47295600000000004,-1.030657,0.152883,0.23425300000000002,0.8576370000000001,-0.45780299999999996,-4.4379230000000005,0.7022510000000001,-0.619603,0.25869699999999995,-0.34765799999999997,-0.39665900000000004
11,0.5448069999999999,-1.121189,0.20745999999999998,0.22523800000000002,0.900618,-0.37169,-4.494353,1.459452,-1.3163799999999999,0.242825,-0.227782,0.069521
12,0.618276,-1.207314,0.259069,0.206076,0.9346639999999999,-0.28971399999999997,-3.961644,0.849101,-1.524453,0.191797,0.098844,0.276866
13,0.650917,-1.277028,0.311651,0.175449,0.95716,-0.23035300000000003,-2.8128599999999997,-1.827538,-1.288673,0.376126,0.43696,0.220327
14,0.650123,-1.3179040000000002,0.358158,0.151444,0.9681930000000001,-0.199164,-1.592322,-2.060393,-0.326995,0.45980699999999997,0.28873499999999996,-0.341058
15,0.680871,-1.3349440000000001,0.419338,0.14708800000000002,0.972316,-0.181567,-0.80072,-1.618608,0.12769,0.148032,-0.255839,-0.959577
16,0.6263890000000001,-1.328157,0.411401,0.140848,0.970707,-0.19465,1.105315,-2.483693,0.094042,-0.356272,-0.726338,0.311288
17,0.5372600000000001,-1.320703,0.384255,0.126663,0.9688889999999999,-0.212625,-0.582625,-3.4951160000000003,-0.18778,-0.894882,-1.118624,0.426568
18,0.45227799999999996,-1.3483379999999998,0.37764899999999996,0.096417,0.975358,-0.198443,-0.483204,-4.2264230000000005,-1.206301,-1.622373,-1.094376,-0.222989
19,0.31189,-1.357105,0.251373,0.065074,0.9772549999999999,-0.201835,-0.364578,1.856428,-1.340385,-0.28271,0.437571,1.344291
20,0.32155500000000004,-1.386247,0.21003200000000002,0.057994000000000004,0.9830190000000001,-0.174094,-1.5270350000000001,2.002417,-0.345632,1.0363360000000001,3.7149330000000003,-1.593545
21,0.47633500000000006,-1.384167,0.326268,0.085077,0.982635,-0.164889,0.519967,1.858039,1.747612,1.8828189999999998,0.5033569999999999,-0.6179020000000001
22,0.61106,-1.352871,0.458424,0.12404200000000001,0.976348,-0.17707699999999998,0.470732,-0.9183309999999999,1.8555110000000001,1.043576,-0.21478200000000003,0.220946
23,0.62495,-1.3369149999999999,0.515252,0.13558800000000001,0.972774,-0.187948,0.189648,-2.3055849999999998,0.569186,-0.25355300000000003,-0.189358,0.557608
24,0.5861890000000001,-1.335113,0.518676,0.129172,0.972355,-0.194522,-0.129992,-1.9237400000000002,-0.337252,-0.35315599999999997,0.023906999999999998,0.591479
25,0.502238,-1.35713,0.450651,0.102074,0.97726,-0.185856,-0.729488,-0.579541,-1.63571,-0.30111,0.748738,0.153003
26,0.366402,-1.379346,0.336679,0.06816900000000001,0.9817290000000001,-0.177649,-0.325707,-1.280217,-1.255978,0.127998,0.568609,0.122107
27,0.30642199999999997,-1.38819,0.274521,0.054776,0.983374,-0.173129,-0.18096700000000002,0.675968,-0.401828,0.47607700000000003,0.082254,-0.168973
28,0.318474,-1.389108,0.268163,0.056576,0.98354,-0.1716,0.1472,1.0638290000000001,0.087077,0.153064,0.19005899999999998,-0.568222
29,0.324092,-1.378401,0.261333,0.060889,0.981549,-0.181252,0.786515,0.175268,0.095886,0.066064,-0.035626,-0.46895600000000004
30,0.29198,-1.351784,0.232413,0.062539,0.9761129999999999,-0.20806599999999997,1.714796,-0.24887800000000002,0.13175499999999998,0.166755,-0.202645,-0.449755
31,0.247437,-1.310351,0.19178299999999998,0.063069,0.966276,-0.249665,2.2671069999999998,-0.14935,0.071392,0.147945,-0.21012600000000003,-0.340988
32,0.227647,-1.261666,0.168901,0.06866,0.952599,-0.296379,2.5417389999999997,0.05815599999999999,0.421285,-0.039317000000000005,-0.401039,-0.147851
33,0.230346,-1.202936,0.173443,0.082106,0.933099,-0.35012,3.009334,-0.06807300000000001,0.9460049999999999,-0.136321,-0.372643,0.045768
34,0.25598000000000004,-1.140674,0.201078,0.105577,0.9089149999999999,-0.403393,2.7669029999999997,-0.089515,1.456018,-0.261583,-0.24390599999999998,0.249875
35,0.288092,-1.0844719999999999,0.253841,0.132793,0.884057,-0.448117,2.087659,-1.242453,2.121458,0.25642800000000004,0.132225,0.772931
36,0.31009000000000003,-1.040716,0.318319,0.154282,0.862766,-0.481488,1.368292,-1.8776529999999998,2.020039,0.513336,0.315334,0.657208
37,0.322327,-1.0125,0.366752,0.16780899999999999,0.848159,-0.50246,0.7441810000000001,-0.9806360000000001,1.4825549999999998,0.7160569999999999,0.42794899999999997,0.524219
38,0.351989,-0.99134,0.41170500000000004,0.188782,0.8367600000000001,-0.513996,0.483178,-0.33027,1.571766,0.356551,0.32550100000000004,0.28178800000000004
39,0.397967,-0.978526,0.474392,0.21634499999999998,0.829676,-0.5146189999999999,-0.420893,-0.252062,1.977684,0.19047,0.334509,0.22029200000000002
40,0.46754300000000004,-0.980218,0.5577479999999999,0.250965,0.830619,-0.49708,-1.4096950000000001,0.14613800000000002,2.0888400000000003,-0.234211,0.261422,-0.047369
41,0.54166,-0.992268,0.646112,0.281904,0.837268,-0.468521,-1.764289,-0.181996,1.6050149999999999,-0.488859,0.019177,0.13121
42,0.589043,-1.010393,0.714623,0.295298,0.8470409999999999,-0.44195100000000004,-1.7924639999999998,-0.675872,0.728441,-0.415354,-0.243312,0.328273
43,0.616134,-1.039636,0.7643310000000001,0.292717,0.8622200000000001,-0.413391,-2.0338849999999997,-0.766878,-0.012338,-0.320702,-0.373344,0.304215
44,0.635895,-1.0789600000000001,0.803929,0.280465,0.881467,-0.37994,-2.1944779999999997,-0.7395609999999999,-0.576448,-0.32293,-0.395719,0.134777
45,0.638946,-1.122816,0.824483,0.258306,0.901324,-0.347696,-1.898536,-0.7499859999999999,-1.1554799999999998,-0.342489,-0.327166,0.127314
46,0.6119640000000001,-1.168096,0.8138810000000001,0.22513899999999998,0.920006,-0.320781,-1.595646,-1.048322,-1.6689330000000002,-0.199199,-0.172264,-0.026753
47,0.537806,-1.20854,0.766977,0.181534,0.9351,-0.304358,-0.906917,-1.8965450000000001,-1.933296,0.0020440000000000002,0.379292,-0.607721
48,0.39098499999999997,-1.2253370000000001,0.673353,0.129051,0.9409200000000001,-0.31307399999999996,0.547959,-3.5869809999999998,-1.635752,0.432961,0.569746,-1.294608
49,0.278221,-1.215095,0.614934,0.095644,0.9374030000000001,-0.334855,0.668088,-1.816125,-0.235675,0.727811,0.110525,-0.534484
50,0.290094,-1.212357,0.631761,0.100347,0.9364459999999999,-0.336154,-0.34423200000000004,0.355569,0.475521,0.5248970000000001,-0.370879,0.220675
51,0.338861,-1.215638,0.674058,0.11559200000000001,0.937592,-0.327963,-0.244635,0.778899,0.817505,0.408974,-0.369339,0.287252
52,0.410637,-1.2153530000000001,0.723726,0.13892100000000002,0.937492,-0.31907399999999997,-0.402704,1.039025,0.6387430000000001,-0.079153,-0.7591479999999999,0.610364
53,0.437086,-1.2221799999999998,0.749289,0.144598,0.939846,-0.30948200000000003,-0.620911,-0.328025,0.10486,-0.322424,-1.025052,-0.46133100000000005
54,0.38969499999999996,-1.214607,0.739067,0.132475,0.937232,-0.32256,1.8086099999999998,-3.056654,-0.288076,-0.657393,1.378396,-0.013759
55,0.274865,-1.210684,0.676858,0.09564099999999999,0.9358569999999999,-0.33915,-0.5465180000000001,-2.151128,-1.185901,-0.2657,1.505061,1.6128930000000001
56,0.187574,-1.230912,0.620256,0.06216699999999999,0.942793,-0.327529,-0.793611,-1.679974,-1.047226,-0.160189,1.545778,1.4115739999999999
57,0.153411,-1.249322,0.60744,0.048282,0.9487709999999999,-0.312254,-0.757931,0.24040100000000003,0.06579299999999999,1.543911,0.8575649999999999,-0.555285
58,0.18806099999999998,-1.2288540000000001,0.637301,0.062689,0.942105,-0.329405,1.427037,-1.653531,0.802395,-0.278464,0.275638,0.17191900000000002
59,0.148366,-1.214633,0.6607770000000001,0.05154299999999999,0.937241,-0.34485,0.027471,-2.82907,0.28672,-0.696501,0.5531,1.496705
60,0.12828,-1.23284,0.660575,0.042416,0.943434,-0.328835,-1.381089,0.252872,-0.38082,-0.8592489999999999,0.13935999999999998,0.759728
61,0.115375,-1.269839,0.623152,0.034125,0.955053,-0.294464,-1.7285279999999998,1.088761,-1.05623,-0.545417,0.558878,0.34779299999999996
62,0.05425,-1.306267,0.5523779999999999,0.014177,0.965216,-0.26106999999999997,-1.901445,0.126334,-1.051931,0.166106,0.39617399999999997,0.334007
63,0.00617,-1.343378,0.492775,0.001391,0.974252,-0.225458,-1.659519,0.6673279999999999,-0.687739,0.44787299999999997,0.26287,0.218729
64,-0.067802,-1.374745,0.408403,-0.013198,0.980843,-0.19435,-1.608039,0.20808400000000002,-0.970938,0.205641,0.049537,0.053190999999999995
65,-0.21746,-1.402742,0.262703,-0.036087,0.9859120000000001,-0.163324,-1.527786,-0.611812,-1.131697,0.039429,-0.243587,-0.022604
66,-0.419275,-1.424816,0.0739,-0.059217,0.9893639999999999,-0.13286199999999998,-1.5000790000000002,-0.746575,-1.021304,-0.028307,-0.411071,0.154133
67,-0.663805,-1.439252,-0.164273,-0.080812,0.99136,-0.10331199999999999,-1.401276,-0.187408,-1.081151,-0.083479,-0.399121,0.07169600000000001
68,-0.9188930000000001,-1.4408370000000001,-0.42195200000000005,-0.10301700000000001,0.991567,-0.078624,-1.149082,0.101625,-1.119284,-0.011928,-0.319372,-0.10928800000000001
69,-1.114606,-1.433511,-0.627671,-0.122858,0.990591,-0.060288,-0.87955,0.633807,-0.9728049999999999,0.187173,-0.167944,-0.144958
70,-1.232137,-1.423872,-0.765266,-0.138079,0.989226,-0.048635000000000005,-0.60569,1.055793,-0.711854,0.31799499999999997,-0.025008000000000002,-0.208048
71,-1.290258,-1.417938,-0.8433379999999999,-0.146309,0.98834,-0.042157,-0.406654,0.9571770000000001,-0.465715,0.41385600000000006,0.003436,-0.304446
72,-1.329245,-1.405859,-0.90691,-0.15942,0.9864290000000001,-0.039275,-0.269176,1.223611,-0.879566,0.441021,0.253363,-0.278428
73,-1.347058,-1.385626,-0.940427,-0.17952200000000001,0.9829049999999999,-0.04085,0.10603399999999999,0.43390200000000007,-1.1194879999999998,0.620577,0.25151599999999996,-0.15203699999999998
74,-1.343108,-1.3611879999999998,-0.9357469999999999,-0.202705,0.9781120000000001,-0.046968,0.398832,-0.278301,-1.223352,0.992606,0.065497,-0.10678
75,-1.351237,-1.338868,-0.9285889999999999,-0.224336,0.973225,-0.050062,0.293595,-1.014445,-0.8567440000000001,1.1636819999999999,-0.001927,-0.26965500000000003
76,-1.347405,-1.325792,-0.898433,-0.236531,0.9701360000000001,-0.053736,0.679592,-1.3965530000000002,-0.474339,0.8292129999999999,0.337267,-0.36035700000000004
77,-1.299863,-1.311549,-0.816625,-0.247,0.966583,-0.068607,1.4867540000000001,-1.6436990000000002,-0.374381,0.779867,0.532043,-0.160702
78,-1.184431,-1.2994450000000002,-0.664424,-0.24827399999999997,0.96341,-0.101001,2.44303,-1.498907,0.41512,0.705458,0.510742,-0.051495000000000006
79,-0.999966,-1.291333,-0.44011300000000003,-0.232106,0.9612040000000001,-0.149044,3.088634,-1.713744,1.365281,0.633488,0.438668,0.135937
80,-0.793139,-1.276524,-0.184193,-0.20667199999999997,0.9570139999999999,-0.203497,3.378628,-1.992586,1.8472950000000001,0.397102,0.498751,0.167639
81,-0.580289,-1.251999,0.075443,-0.17184000000000002,0.9496129999999999,-0.26211799999999996,3.327694,-1.477466,2.541692,0.181606,0.348925,0.303363
82,-0.366126,-1.232512,0.321211,-0.118809,0.943325,-0.309873,2.199289,-0.589408,3.347725,-0.044292000000000005,0.57967,0.578702
83,-0.161971,-1.219692,0.540942,-0.055464,0.9389940000000001,-0.339433,1.319856,0.034785,3.325828,0.013425999999999999,0.723146,0.343614
84,-0.006483,-1.204619,0.716013,-0.002321,0.9337030000000001,-0.358041,0.805878,-0.909393,2.792541,0.188845,0.38377100000000003,0.23415500000000003
85,0.092044,-1.189859,0.856808,0.034173,0.9283170000000001,-0.370216,0.567803,-1.91103,2.535788,0.449378,0.276075,0.33100100000000005
86,0.163714,-1.172205,0.9752,0.06325700000000001,0.921609,-0.38293,0.570557,-1.8235919999999999,2.246207,0.524191,0.255119,0.60406
87,0.232542,-1.155269,1.088681,0.093027,0.914904,-0.392807,0.200239,-1.784097,2.546945,0.593863,0.18611,0.8062590000000001
88,0.30850700000000003,-1.137838,1.22007,0.127393,0.9077280000000001,-0.39974899999999997,0.252511,-2.463951,2.8195099999999997,0.22076700000000002,0.16237100000000002,0.597046
89,0.349883,-1.114454,1.337038,0.151055,0.8976700000000001,-0.413969,0.159952,-3.658603,2.7530959999999998,-0.081063,0.136433,0.677549
90,0.36544299999999996,-1.09808,1.448272,0.16271,0.890335,-0.42523999999999995,-0.252842,-4.35501,2.507551,-0.179052,0.004609,0.884392
91,0.371711,-1.090602,1.5491489999999999,0.167785,0.8869049999999999,-0.430403,-0.64171,-4.05737,2.205351,-0.236648,-0.154651,0.867613
92,0.37950700000000004,-1.091779,1.649835,0.170749,0.8874479999999999,-0.428112,-1.051102,-4.12253,2.072252,-0.175876,-0.306485,0.810055
93,0.38000300000000004,-1.10172,1.7455610000000001,0.16768,0.8919860000000001,-0.419813,-1.408571,-4.257261,1.7099360000000001,-0.14491400000000002,-0.363483,0.759062
94,0.37059899999999996,-1.12004,1.8318830000000002,0.15778,0.900118,-0.40607,-1.6132959999999998,-4.432681,1.267556,-0.192478,-0.285479,0.73859
95,0.341307,-1.142498,1.899205,0.139016,0.909674,-0.391367,-1.5108540000000001,-4.471432,0.7470289999999999,-0.432061,-0.112554,0.715021
96,0.301107,-1.16565,1.946019,0.116897,0.9190450000000001,-0.37642,-1.336546,-3.9722699999999995,0.44316300000000003,-0.50595,-0.03701,0.529267
97,0.261358,-1.187108,1.9825720000000002,0.096727,0.92729,-0.36163,-1.148141,-3.436771,0.363676,-0.497972,0.010286,0.337552
98,0.234425,-1.2055209999999998,2.013693,0.082973,0.934025,-0.347436,-0.9605549999999999,-2.343177,0.312311,-0.46122299999999994,0.304271,-0.12875999999999999
99,0.221125,-1.213072,2.037879,0.076796,0.9366959999999999,-0.341618,0.08810499999999999,-1.64166,0.327282,0.101884,0.617808,-0.891445
100,0.202717,-1.1880190000000002,2.059301,0.075197,0.927631,-0.36585,1.484553,-2.068452,0.8845129999999999,0.48771499999999995,0.305463,-0.684092
101,0.20180599999999999,-1.161484,2.097686,0.07977100000000001,0.9173950000000001,-0.38990199999999997,0.795668,-1.659513,0.980658,0.362185,-0.246115,-0.18054800000000001
102,0.215531,-1.155139,2.144392,0.086357,0.914851,-0.394449,-0.207418,-1.21718,0.9901770000000001,0.414894,-0.477153,0.361856
103,0.260129,-1.162892,2.20284,0.10203,0.917954,-0.38334,-0.976176,-0.062278999999999994,1.088012,0.589056,-0.466966,0.646432
104,0.315735,-1.1846,2.268484,0.116961,0.926348,-0.358048,-1.5709549999999999,-0.546619,0.714874,0.46717600000000004,-0.43231499999999995,0.6159220000000001
105,0.354522,-1.210642,2.330389,0.122339,0.935843,-0.330502,-1.579094,-1.1697799999999998,0.715616,0.982168,-0.406073,0.268246
106,0.42580200000000007,-1.239551,2.423911,0.13433299999999998,0.9456379999999999,-0.29618099999999997,-2.296984,-0.509462,1.10927,0.8657889999999999,-0.071996,0.650291
107,0.546922,-1.27597,2.560795,0.151116,0.9568530000000001,-0.24818800000000002,-2.495816,-0.7638699999999999,0.7012149999999999,0.302696,2.4121360000000003,-1.530529
108,0.48898199999999997,-1.280088,2.564073,0.134638,0.958041,-0.25304099999999996,1.21571,-4.702385,-0.336035,0.31917399999999996,2.410947,-1.525676
109,0.352694,-1.260883,2.524855,0.105347,0.95236,-0.28620300000000004,0.841482,-4.427133,-0.113603,-1.456146,0.010073,0.18696
110,0.286383,-1.2568290000000002,2.500245,0.087241,0.951116,-0.296256,-0.313721,-0.656077,-0.438425,-0.9309149999999999,-0.608403,0.9854950000000001
111,0.281007,-1.283717,2.475572,0.078525,0.959075,-0.272047,-1.408141,1.521768,-0.9263549999999999,-0.7177,-0.791564,1.095151
112,0.237986,-1.3107739999999999,2.397023,0.060611,0.966384,-0.24985500000000002,-0.64767,1.227997,-1.64599,-0.599093,-0.5397489999999999,0.746971
113,0.081456,-1.324566,2.2496169999999998,0.019833,0.9698379999999999,-0.24294200000000002,-0.504753,-1.850373,-2.1046549999999997,0.43854099999999996,1.334911,0.414008
114,-0.139439,-1.346598,2.073384,-0.0309,0.974973,-0.220167,-1.45278,-2.332195,-1.736782,0.925142,1.28725,0.369093
115,-0.273457,-1.36656,1.964592,-0.054774,0.979216,-0.19528399999999999,-0.896899,-1.025989,-0.666351,1.143153,0.584901,0.3481
116,-0.348853,-1.378471,1.9151880000000001,-0.065336,0.981562,-0.17962899999999998,-0.772466,-1.565216,0.073351,-0.132692,0.040501999999999996,0.360094
117,-0.39920100000000003,-1.3996,1.8911470000000001,-0.066216,0.985382,-0.15696400000000002,-1.204963,-1.092149,0.160522,-0.272652,-0.054702,0.353513
118,-0.502031,-1.424809,1.807148,-0.070001,0.9893629999999999,-0.127519,-1.52852,-1.0617940000000001,-0.22313200000000002,-0.32457600000000003,-0.090498,0.055192
119,-0.699438,-1.4450209999999999,1.627772,-0.080759,0.992101,-0.09598999999999999,-1.4751049999999999,-0.843568,-0.49650299999999997,0.036417000000000005,-0.07773300000000001,0.08659
120,-0.942953,-1.45699,1.389094,-0.091902,0.9935309999999999,-0.066704,-1.475519,-0.030581999999999998,-0.541345,0.21780300000000002,-0.143784,0.173958
121,-1.231711,-1.460828,1.099225,-0.103496,0.9939600000000001,-0.036504,-1.469333,-0.170848,-0.634058,0.171794,-0.296831,0.030004000000000003
122,-1.477562,-1.452857,0.863344,-0.11715199999999999,0.9930530000000001,-0.010954,-1.071752,-0.781356,-0.686046,0.268489,-0.129253,-0.044220999999999996
123,-1.643061,-1.4392280000000002,0.713843,-0.130846,0.9913569999999999,0.009472,-0.867107,-0.828926,-0.688828,0.24779,-0.038156,-0.18468900000000002
124,-1.764677,-1.423798,0.605486,-0.143723,0.989215,0.02822,-0.8312719999999999,-0.6481210000000001,-0.647149,0.100724,-0.11148399999999999,-0.139044
125,-1.8491259999999998,-1.407766,0.5308649999999999,-0.15606099999999998,0.98674,0.044594,-0.690641,-0.45473100000000005,-0.646414,0.099084,-0.0672,-0.013634
126,-1.9053060000000002,-1.392574,0.479152,-0.167452,0.98416,0.058202,-0.647075,-0.15700699999999998,-0.546079,0.136232,0.07247999999999999,0.008052
127,-1.9565110000000001,-1.376111,0.42552399999999996,-0.17924400000000001,0.981109,0.072783,-0.8352360000000001,0.17411500000000002,-0.604433,0.251341,0.11992,-0.045545999999999996
128,-2.014344,-1.357672,0.364623,-0.191046,0.977375,0.09077,-0.9587829999999999,0.010386,-0.578381,0.302923,0.087063,-0.128459
129,-2.064918,-1.3409280000000001,0.314285,-0.200594,0.9736959999999999,0.10805899999999999,-0.798804,-0.11106300000000001,-0.448921,0.346758,0.224805,-0.23565300000000003
130,-2.097514,-1.326622,0.285723,-0.20898699999999998,0.9703370000000001,0.121529,-0.52976,-0.345141,-0.486266,0.512713,0.10289000000000001,-0.286355
131,-2.105753,-1.316863,0.289687,-0.216115,0.967932,0.12806900000000002,-0.0049689999999999995,-0.780801,-0.41794899999999996,0.575902,0.07049,-0.257356
132,-2.097579,-1.314041,0.315768,-0.21951500000000002,0.967219,0.12767,0.323781,-0.75836,-0.18815,0.754472,0.094045,-0.23123200000000002
133,-2.067158,-1.320637,0.35746100000000003,-0.21768200000000001,0.968873,0.117894,0.820574,-0.481378,0.177093,0.479034,0.42427,-0.388493
134,-2.003635,-1.340064,0.438562,-0.207598,0.973499,0.09592300000000001,1.615953,-0.9023120000000001,0.59018,0.506869,0.349453,-0.332404
135,-1.8731119999999999,-1.373174,0.590829,-0.18742999999999999,0.9805360000000001,0.05845499999999999,2.378272,-0.872303,1.215035,0.598029,0.24381399999999998,-0.283827
136,-1.5840040000000002,-1.4141920000000001,0.8991600000000001,-0.155947,0.987763,0.00206,3.424521,-0.69048,1.724175,0.230944,0.24612399999999998,-0.387848
137,-1.016909,-1.431016,1.490265,-0.11849100000000001,0.990247,-0.073283,4.0721620000000005,-1.05523,2.067792,-0.027932,0.5418270000000001,-0.21393299999999998
138,-0.47368599999999994,-1.403769,2.0631779999999997,-0.075838,0.986083,-0.147944,3.6504839999999996,-1.255368,2.399457,-0.36157100000000003,0.568711,0.37511700000000003
139,-0.158551,-1.361718,2.408973,-0.032770999999999995,0.978223,-0.204954,2.6186119999999997,-0.855358,2.3618259999999998,-0.49429799999999996,0.708286,0.7655930000000001
140,0.040126999999999996,-1.3193840000000001,2.606146,0.00998,0.968562,-0.24857100000000001,2.0273209999999997,0.888734,2.016835,-0.164688,0.386006,0.24355
141,0.194212,-1.279698,2.742163,0.055389999999999995,0.9579290000000001,-0.28160799999999997,1.6195469999999998,1.152971,2.091628,0.181808,0.311404,-0.062310000000000004
142,0.32669499999999996,-1.238405,2.8565560000000003,0.104716,0.9452649999999999,-0.30904499999999996,1.596766,1.5292620000000001,2.315314,0.346258,0.17798,0.470605
143,0.45911,-1.1865290000000002,2.950138,0.166128,0.9270729999999999,-0.33605999999999997,1.512947,1.6414819999999999,2.5624119999999997,-0.110037,0.144322,0.101624
144,0.528629,-1.139892,3.033265,0.21066300000000002,0.908588,-0.360677,0.9807899999999999,-1.458491,2.496437,-0.12461900000000001,0.079555,0.235738
145,0.568653,-1.1069280000000001,3.113698,0.240929,0.894329,-0.377,0.384706,-1.622725,2.2596119999999997,-0.11771500000000001,-0.0386,0.354143
146,0.593985,-1.0765040000000001,-3.106618,0.265511,0.8803049999999999,-0.39315,0.511027,-1.405494,1.905566,-0.22495300000000001,-0.219325,0.507133
147,0.606017,-1.049793,-3.059724,0.283518,0.8673200000000001,-0.409113,0.415469,-1.623316,1.582575,-0.31196,-0.33417800000000003,0.42276899999999995
148,0.605686,-1.0308190000000002,-3.020566,0.2927,0.85772,-0.422662,0.057336,-1.6611330000000002,1.227608,-0.42478,-0.45169899999999996,0.461571
149,0.609622,-1.024014,-2.9817009999999997,0.297697,0.854202,-0.426282,-0.524466,-1.355243,0.8941399999999999,-0.404508,-0.673492,0.406995
150,0.620309,-1.031724,-2.9394880000000003,0.298398,0.8581850000000001,-0.417704,-1.205116,-1.234241,0.5292399999999999,-0.349957,-0.750962,0.417338
151,0.635361,-1.055863,-2.896118,0.292269,0.870326,-0.396374,-1.819023,-0.989974,-0.08317999999999999,-0.340014,-0.84225,0.397365
152,0.649898,-1.09487,-2.864637,0.27723600000000004,0.888869,-0.364764,-2.081971,-0.450104,-0.863374,-0.498763,-0.763579,0.166125
153,0.654293,-1.143306,-2.855305,0.252318,0.9100090000000001,-0.328967,-1.99868,-0.158987,-1.5414860000000001,-0.413909,-0.674871,0.06969
154,0.631675,-1.192959,-2.871917,0.21784099999999998,0.929465,-0.29772600000000005,-1.623542,-0.544737,-1.8364049999999998,-0.29694299999999996,-0.5491090000000001,0.030621
155,0.566971,-1.240275,-2.920775,0.17430199999999998,0.945873,-0.27375700000000003,-1.474548,-1.117356,-2.0899360000000002,0.411376,1.03072,0.141525
156,0.520084,-1.280629,-2.951368,0.14218499999999998,0.9581959999999999,-0.248282,-1.42867,-0.692786,-0.9471620000000001,0.44349399999999994,1.018397,0.116049
157,0.535429,-1.307649,-2.931467,0.132716,0.965576,-0.223716,-1.263371,0.198774,-0.273102,0.34010799999999997,-0.174576,-0.40403
158,0.5914699999999999,-1.331417,-2.884292,0.132202,0.971485,-0.196822,-1.351201,0.585909,-0.042397000000000004,-0.12294000000000001,-0.34460799999999997,-0.057344000000000006
159,0.672847,-1.34978,-2.8127590000000002,0.136622,0.975675,-0.171442,-1.102629,0.541642,0.155949,-0.12736,-0.348798,-0.082723
160,0.736463,-1.364347,-2.75116,0.137683,0.978765,-0.151863,-0.9563530000000001,-0.160932,-0.097434,-0.510699,-0.330282,0.2994
161,0.7534420000000001,-1.382154,-2.7123459999999997,0.128297,0.98226,-0.13677,-0.8535229999999999,-1.565148,-0.406837,0.03363,-0.675543,0.209036
162,0.7506520000000001,-1.399677,-2.675637,0.116154,0.985395,-0.12452,-0.8785540000000001,-2.028942,-0.285709,0.154583,-0.807569,0.058983
163,0.7396560000000001,-1.406755,-2.651663,0.110074,0.986575,-0.12063399999999999,0.141647,-1.438204,0.017626,0.153171,-0.89661,-0.18036
164,0.720791,-1.400132,-2.639159,0.11208900000000001,0.9854719999999999,-0.12759600000000001,-0.305035,-1.5686440000000001,0.523147,0.211321,1.338914,0.6252310000000001
165,0.851239,-1.403918,-2.494616,0.124927,0.986108,-0.109472,-1.112493,0.082464,0.707671,0.305829,1.605277,0.289068
166,0.959477,-1.404749,-2.385325,0.135351,0.986246,-0.09486499999999999,-0.675715,-0.060851999999999996,0.471624,0.05613200000000001,0.236182,0.044358999999999996
167,1.0759319999999999,-1.402247,-2.283099,0.147628,0.9858290000000001,-0.07966799999999999,-0.39719299999999996,1.128247,0.699577,0.898911,1.3074290000000002,-0.709105
168,1.10867,-1.384883,-2.237956,0.165455,0.982768,-0.082413,0.252307,-1.6780950000000001,1.036722,0.679455,0.503423,0.081177
169,1.081552,-1.364986,-2.236477,0.180387,0.9788959999999999,-0.096041,0.535772,-0.9106879999999999,0.6894779999999999,-0.24207800000000002,-0.24954099999999999,0.180056
170,1.024532,-1.361143,-2.27451,0.177834,0.9781030000000001,-0.108119,0.309136,-1.207825,-0.463267,-0.333321,0.46499700000000005,-0.18401099999999998
171,0.9352600000000001,-1.368239,-2.348784,0.161896,0.979555,-0.11941900000000001,0.771312,-0.529572,-0.781374,-0.364288,1.087065,-0.536312
172,0.795986,-1.355293,-2.497859,0.152799,0.9768690000000001,-0.149597,1.822589,1.275593,-0.242233,-0.100751,0.338607,-0.445862
173,0.746368,-1.3220290000000001,-2.602195,0.16717,0.969217,-0.180757,2.239288,2.700463,0.578178,-0.103602,-0.11881400000000002,-0.744613
174,0.695296,-1.2695,-2.694712,0.190107,0.954953,-0.22787,3.1301,1.50542,0.822008,-0.13014,-0.127957,-0.319158
175,0.626947,-1.20728,-2.7934959999999998,0.2086,0.934652,-0.287943,3.46575,1.14526,0.5556220000000001,-0.102612,-0.28919,0.12383499999999999
176,0.572421,-1.1439700000000002,-2.867772,0.224242,0.910284,-0.347991,3.397501,0.304585,0.657704,-0.187361,-0.438712,0.640167
177,0.520489,-1.090281,-2.918776,0.229872,0.886757,-0.401025,2.566029,-0.362238,0.303442,-0.239394,-0.444725,0.884927
178,0.485133,-1.043319,-2.946438,0.23472800000000002,0.86408,-0.445275,2.121314,-0.651984,0.686335,-0.07910299999999999,-0.818944,0.621224
179,0.486947,-1.006273,-2.947997,0.250349,0.844844,-0.472826,1.402024,0.737577,0.932699,-0.072752,-0.7073619999999999,0.520662
180,0.51308,-0.9808879999999999,-2.936928,0.27305999999999997,0.830992,-0.48465600000000003,0.707585,0.691168,0.62026,0.145596,0.188005,0.57897
181,0.500634,-0.9773120000000001,-2.956223,0.268431,0.828997,-0.49062,0.300065,-0.016467,-0.8163020000000001,0.048219,0.383421,0.656255
182,0.47821,-0.9851129999999999,-2.9845900000000003,0.254379,0.833334,-0.490759,-0.23367600000000002,0.135676,-0.838385,-0.347504,0.099588,0.493338
183,0.47502700000000003,-1.009896,-2.996441,0.243294,0.846776,-0.47305200000000003,-1.438754,0.42243100000000006,-0.9080590000000001,-0.10526300000000001,-0.11896300000000001,0.165633
184,0.497305,-1.062551,-2.984657,0.232158,0.8736,-0.42769799999999997,-3.1396439999999997,0.750424,-1.003681,0.046238999999999995,-0.195484,-0.19159500000000002
185,0.555024,-1.14707,-2.942486,0.216666,0.9115629999999999,-0.34944000000000003,-4.602437999999999,1.187877,-1.505841,0.191415,-0.169879,-0.384279
186,0.6504479999999999,-1.243211,-2.877538,0.194838,0.9468219999999999,-0.25605900000000004,-4.38298,1.9735490000000002,-1.8364639999999999,0.506563,0.33896,-0.105361
187,0.770092,-1.322007,-2.783661,0.171426,0.969211,-0.176756,-3.5685860000000003,0.834407,-1.3870719999999999,0.6477569999999999,-0.034214,0.038969
188,0.8811889999999999,-1.3779270000000001,-2.660129,0.147877,0.9814579999999999,-0.121951,-2.398504,-1.1221370000000002,-0.895692,0.85635,-0.545103,-0.047925
189,0.961735,-1.39764,-2.539072,0.141312,0.9850459999999999,-0.098569,-0.85934,-2.429623,0.26400500000000005,0.7146140000000001,-0.9452360000000001,0.27866799999999997
190,0.9231600000000001,-1.391879,-2.514724,0.14193,0.984037,-0.107367,0.318808,-3.3263730000000002,0.25522399999999995,-0.693901,-0.982526,-0.811609
191,0.791361,-1.383731,-2.5791060000000003,0.132287,0.982554,-0.130719,0.738468,-3.260873,-0.23758400000000002,-0.729287,-0.035151,-1.223773
192,0.800956,-1.392822,-2.518606,0.127116,0.9842040000000001,-0.123221,-1.491899,-2.027551,0.164,-1.05479,1.7679619999999998,1.46807
193,0.860024,-1.403,-2.480098,0.12657100000000002,0.9859549999999999,-0.10896099999999999,0.11800799999999999,2.165276,-0.14098,-0.11238,0.484626,-0.061998000000000004
194,0.9298690000000001,-1.398255,-2.443129,0.137613,0.985152,-0.102657,-0.5496489999999999,1.1840469999999998,0.730487,0.5963649999999999,0.277223,-0.262058
195,1.107568,-1.386476,-2.2998279999999998,0.163963,0.9830610000000001,-0.08189600000000001,-0.691475,2.326023,1.38499,1.494743,1.295549,-0.377333
196,1.171465,-1.366282,-2.2496650000000002,0.187113,0.97916,-0.078963,0.594137,-0.406351,0.7896529999999999,0.570715,0.413678,-0.088854
197,1.049215,-1.3512680000000001,-2.344321,0.188813,0.976,-0.108504,1.28277,-1.822296,-0.024117,-0.25293000000000004,0.274808,-0.14448699999999998
198,0.9231159999999999,-1.346092,-2.447662,0.17769400000000002,0.9748600000000001,-0.134435,1.067986,-0.7425149999999999,-0.534406,-0.266851,0.5407649999999999,-0.232814
199,0.7870050000000001,-1.330532,-2.58307,0.168533,0.971275,-0.167992,2.188495,0.234942,-0.323802,-0.318191,0.249581,-0.44696800000000003
200,0.698204,-1.291345,-2.705209,0.177314,0.9612069999999999,-0.21128400000000003,2.603252,2.061892,0.380712,-0.074485,-0.223719,-0.287617
201,0.658524,-1.236956,-2.788776,0.20052,0.9447909999999999,-0.259156,3.156947,1.867175,0.908258,-0.009556,-0.183026,-0.127151
202,0.6393260000000001,-1.170857,-2.860298,0.23231500000000002,0.921084,-0.31246199999999996,3.4103199999999996,2.4819240000000002,0.933809,-0.09800700000000001,-0.13818699999999998,0.049812999999999996
203,0.620731,-1.1045,-2.915082,0.26149,0.8932389999999999,-0.365713,3.304734,0.959484,1.065346,-0.289123,-0.348592,0.6531279999999999
204,0.592849,-1.046019,-2.949694,0.279933,0.8654350000000001,-0.415522,2.414142,-0.215421,1.014697,-0.265223,-0.539767,0.8635510000000001
205,0.5767369999999999,-1.005952,-2.9601290000000002,0.29188600000000003,0.844672,-0.4487,1.7081810000000002,-0.347431,0.8069729999999999,-0.404618,-0.634985,0.708832
206,0.57996,-0.969808,-2.966263,0.309865,0.8247770000000001,-0.472996,1.393583,0.858535,0.7946840000000001,-0.082387,0.073416,0.595677
207,0.5935229999999999,-0.9530049999999999,-2.970373,0.32395799999999997,0.81516,-0.48017200000000004,0.448812,0.577689,-0.08002000000000001,0.075548,0.6011310000000001,0.541177
208,0.568416,-0.957757,-2.9981430000000002,0.309713,0.8179029999999999,-0.484883,0.162854,-0.272271,-0.9290959999999999,0.30218,0.583494,0.5643050000000001
209,0.547214,-0.969058,-3.020133,0.294535,0.8243530000000001,-0.483416,-0.401339,-0.032484,-0.730378,-0.263575,0.0038640000000000002,0.270083
210,0.549214,-0.9966440000000001,-3.022669,0.283519,0.8396530000000001,-0.46324899999999997,-1.6686860000000001,0.372863,-0.832685,-0.23470700000000003,0.011284,0.145027
211,0.5881890000000001,-1.0506469999999999,-2.996213,0.27576799999999996,0.8677450000000001,-0.41348500000000005,-3.231287,1.076451,-0.936369,-0.252529,-0.085366,-0.046033
212,0.665879,-1.1285889999999998,-2.936516,0.264357,0.903809,-0.336517,-4.2346639999999995,1.3009110000000002,-1.319679,0.47064300000000003,-0.124848,-0.401383
213,0.786154,-1.210433,-2.844223,0.24952399999999997,0.9357690000000001,-0.24914699999999998,-4.225008,2.050729,-1.293867,0.769962,0.1576,0.005693
214,0.950147,-1.280451,-2.699067,0.23289,0.958145,-0.166491,-3.7933800000000004,0.44109899999999996,-1.136034,0.79598,0.22544899999999998,0.270983
215,1.0973979999999999,-1.329372,-2.53029,0.21279,0.9709979999999999,-0.109001,-2.79547,-1.248052,-0.763703,0.80285,-0.402364,-0.36953
216,1.206993,-1.351053,-2.382534,0.203709,0.9759530000000001,-0.077562,-1.333834,-1.984568,-0.06461499999999999,0.740566,-0.624116,-0.25688
217,1.150543,-1.35251,-2.38373,0.197709,0.9762700000000001,-0.088351,0.648257,-3.422368,-0.264708,-0.9941260000000001,-0.675245,-1.038892
218,0.968842,-1.358034,-2.4682630000000003,0.174041,0.9774510000000001,-0.11956800000000001,0.37255900000000003,-5.2430010000000005,-0.804821,-1.192489,0.311809,-0.6246189999999999
219,0.863763,-1.3657979999999998,-2.523845,0.154765,0.9790610000000001,-0.13222899999999999,0.06339,-1.0387110000000002,-0.44917299999999993,-1.004253,0.827045,0.6594810000000001
220,0.9026299999999999,-1.379151,-2.513393,0.14951099999999998,0.981692,-0.118005,-0.642807,2.595057,-0.397874,0.321604,0.821591,-0.279212
221,1.039923,-1.3802219999999998,-2.4340080000000004,0.163347,0.9818959999999999,-0.095899,-0.600563,2.829443,0.889329,1.238585,1.033348,-0.624346
222,1.1844700000000001,-1.351976,-2.328403,0.201075,0.9761540000000001,-0.081791,-0.452928,1.006843,2.069876,1.791982,0.642239,-0.25294099999999997
223,1.242103,-1.3220040000000002,-2.2422880000000003,0.233048,0.969211,-0.079485,0.060334000000000006,-1.9042130000000002,1.273888,0.028579000000000004,0.025922000000000004,0.299273
224,1.185673,-1.306478,-2.267462,0.242112,0.9652709999999999,-0.09814400000000001,0.563779,-1.606355,0.410695,-0.468919,0.16301,-0.008286
225,1.127824,-1.310433,-2.291044,0.23258099999999998,0.966297,-0.11034100000000001,-0.043437,-1.5943200000000002,-0.738695,-0.461661,0.524777,0.205296
226,1.081151,-1.3285120000000001,-2.31851,0.211727,0.970792,-0.11283599999999999,0.08481699999999999,-0.610496,-0.993297,-0.259853,0.626452,-0.279742
227,1.018658,-1.334409,-2.3904360000000002,0.199389,0.97219,-0.122834,0.771116,0.9964850000000001,-0.393426,0.15900999999999998,0.012107999999999999,-0.580413
228,0.982008,-1.3219049999999999,-2.456085,0.204848,0.9691860000000001,-0.136798,1.1914120000000001,1.2975780000000001,0.401744,0.12414700000000001,-0.150674,-0.600568
229,0.9516129999999999,-1.288173,-2.518383,0.22710100000000003,0.960327,-0.16185,1.911616,1.5913629999999999,1.165904,0.007579000000000001,-0.095291,-0.6398010000000001
230,0.891344,-1.2403950000000001,-2.611406,0.252372,0.9459120000000001,-0.203855,2.922427,1.226576,0.938423,-0.238837,-0.016896,-0.436144
231,0.8174060000000001,-1.182301,-2.716145,0.276282,0.92548,-0.259139,3.467627,1.3308010000000001,1.0414430000000001,-0.27165900000000004,-0.126149,0.041227999999999994
232,0.758039,-1.116555,-2.80107,0.30166,0.898594,-0.318635,3.527483,0.49187299999999995,1.1283940000000001,-0.282525,-0.224598,0.382554
233,0.706175,-1.051739,-2.858287,0.32190799999999997,0.868287,-0.377427,3.116058,-0.291052,1.2055719999999999,-0.30709200000000003,-0.398179,0.522889
234,0.684225,-0.9926790000000001,-2.8812439999999997,0.345394,0.837493,-0.423446,2.386708,0.180802,1.5865690000000001,-0.28175,-0.465758,0.513733
235,0.6853899999999999,-0.945109,-2.875905,0.370704,0.810561,-0.45339700000000005,1.405217,-0.613295,1.4888629999999998,-0.117164,0.561693,0.38361799999999996
236,0.664415,-0.919341,-2.885664,0.373871,0.7952020000000001,-0.477361,1.079067,-0.574336,0.023071,0.341751,0.6240640000000001,0.578038
237,0.63347,-0.9054549999999999,-2.9110650000000002,0.365423,0.786706,-0.49755200000000005,0.956775,-0.424171,-0.393514,-0.234366,0.306861,0.51278
238,0.60993,-0.900525,-2.935066,0.35582800000000003,0.7836529999999999,-0.509188,0.347867,-0.090877,-0.36401100000000003,-0.45588,0.081337,0.353274
239,0.609777,-0.908041,-2.940289,0.352367,0.7883,-0.5044,-0.572893,0.388461,-0.356102,-0.363933,-0.077027,0.206182
240,0.641354,-0.934657,-2.922027,0.355435,0.804395,-0.47603900000000005,-1.9994009999999998,1.0678159999999999,-0.378687,-0.218426,-0.30837800000000004,-0.120229
241,0.701362,-0.9921840000000001,-2.878066,0.352867,0.8372219999999999,-0.417782,-3.550347,1.323441,-1.153626,0.084236,-0.44081400000000004,-0.143314
242,0.777825,-1.074907,-2.827265,0.333892,0.8795459999999999,-0.338988,-4.020595,1.7203970000000002,-2.24487,0.24780300000000002,-0.595641,-0.23230100000000004
243,0.8415950000000001,-1.167801,-2.787313,0.292446,0.91989,-0.261295,-3.6646970000000003,1.157386,-2.948825,0.378452,-0.6084430000000001,-0.2552
244,0.896444,-1.253531,-2.7408349999999997,0.24368,0.950092,-0.19478800000000002,-3.2306529999999998,-0.020171,-2.419788,0.630023,0.031077999999999998,0.11776199999999999
245,0.9437530000000001,-1.309697,-2.6587,0.20903200000000002,0.9661069999999999,-0.15146400000000002,-2.214703,-2.4057880000000003,-1.055129,0.43426400000000004,-0.005154,0.195516
246,0.9937739999999999,-1.340518,-2.554267,0.19128900000000001,0.9736030000000001,-0.12451400000000001,-1.804332,-2.42208,-0.26816599999999996,0.383769,-0.12721300000000002,0.278292
247,1.062084,-1.353745,-2.4434259999999997,0.188077,0.9765370000000001,-0.10488499999999999,-1.099014,-1.688209,0.211179,-0.026181,-1.089879,0.25905900000000004
248,0.991293,-1.347646,-2.473583,0.185167,0.9752049999999999,-0.12118399999999999,1.463378,-3.290435,-0.13206500000000002,-0.906557,-0.589829,-2.207246
249,0.9657870000000001,-1.345816,-2.447289,0.18348299999999998,0.974799,-0.126882,-1.346802,-1.2197959999999999,0.502609,-0.585018,0.311731,0.9481709999999999
250,1.084389,-1.35586,-2.309926,0.18854100000000001,0.9769899999999999,-0.09969700000000001,-0.984555,0.425371,0.359889,0.200924,2.869079,0.149349
251,1.159343,-1.338658,-2.28356,0.210851,0.9731770000000001,-0.092007,0.272698,1.773975,1.142472,0.5667369999999999,0.224135,-0.302647
252,1.201829,-1.311653,-2.2507509999999997,0.239,0.9666100000000001,-0.092416,0.064697,0.39513200000000004,1.416251,0.586577,0.151478,-0.070258
253,1.2228350000000001,-1.293725,-2.233804,0.25714000000000004,0.9618610000000001,-0.09327,0.265181,-0.015411000000000001,0.5475760000000001,0.48716800000000005,0.192512,-0.033821
254,1.160217,-1.286597,-2.276553,0.25708000000000003,0.959886,-0.11191199999999998,0.7837770000000001,-1.6633740000000001,-0.172012,-0.083862,0.449003,0.016789
255,1.076064,-1.294834,-2.3284990000000003,0.23979699999999998,0.9621629999999999,-0.129366,0.168923,-1.469924,-0.862353,-0.038686,0.996699,-0.02104
256,1.015487,-1.307477,-2.365718,0.22116999999999998,0.9655309999999999,-0.137221,0.35313,-0.993655,-0.778356,0.016699000000000002,1.1144399999999999,-0.13905399999999998
257,0.9451649999999999,-1.309599,-2.441341,0.20931999999999998,0.966081,-0.151222,0.8232149999999999,0.8412379999999999,-0.5093,-0.29180900000000004,0.015898,-0.47269399999999995
258,0.9020819999999999,-1.299608,-2.5139150000000003,0.210177,0.9634530000000001,-0.166074,1.367985,1.469108,-0.022394999999999998,-0.220888,0.122072,-0.584262
259,0.8349030000000001,-1.271383,-2.614211,0.21863000000000002,0.9555100000000001,-0.197988,2.33135,1.54011,0.300437,-0.08507,0.128917,-0.54751
260,0.7647550000000001,-1.224901,-2.722484,0.234735,0.9407719999999999,-0.24463200000000002,3.162846,1.624681,0.541146,0.047034,-0.04148,-0.251416
261,0.6967369999999999,-1.162315,-2.82404,0.254899,0.917725,-0.304638,3.81817,1.214466,0.79408,-0.027238,-0.064545,0.026318
262,0.635505,-1.089898,-2.9048849999999997,0.27457600000000004,0.8865799999999999,-0.372266,3.8360559999999997,0.10491600000000001,0.9280860000000001,-0.090662,-0.128202,0.24245999999999998
263,0.585149,-1.024961,-2.951316,0.28672800000000004,0.8546940000000001,-0.432762,2.94909,-0.738699,0.8770379999999999,-0.358032,-0.378406,0.776543
264,0.55193,-0.975432,-2.9691009999999998,0.29405,0.827944,-0.477537,2.002924,-0.806245,1.0061799999999999,-0.33732399999999996,-0.401629,0.670499
265,0.536404,-0.935969,-2.977459,0.30307,0.805174,-0.509746,1.724832,-0.290802,0.486558,-0.161163,0.19735899999999998,0.515529
266,0.507896,-0.913478,-3.006623,0.29715199999999997,0.791633,-0.5338689999999999,1.228241,-0.369523,-0.44082200000000005,0.26193099999999997,0.446892,0.556971
267,0.47193599999999997,-0.9028229999999999,-3.040422,0.281584,0.785079,-0.551688,0.751107,-0.505055,-0.765516,-0.297209,0.14618,0.491874
268,0.44485600000000003,-0.9051809999999999,-3.06313,0.265746,0.786537,-0.557438,-0.16755799999999998,-0.323681,-0.57134,-0.153105,-0.21326399999999998,0.292988
269,0.440957,-0.926945,-3.06705,0.256202,0.79979,-0.542858,-1.4349809999999998,0.15692899999999999,-0.580809,-0.144599,-0.201691,0.035305
270,0.46725900000000004,-0.976826,-3.0500439999999998,0.252091,0.828725,-0.499663,-3.103799,0.9069299999999999,-0.744046,-0.12431400000000001,-0.237875,-0.188616
271,0.527864,-1.058522,-3.013234,0.24688800000000002,0.871632,-0.423441,-4.515833,1.8644310000000002,-1.338385,0.149948,-0.246006,-0.358694
272,0.6277510000000001,-1.155366,-2.964985,0.237033,0.9149430000000001,-0.326638,-4.4650739999999995,3.295226,-1.9466139999999998,0.419476,-0.013300999999999999,-0.192389
273,0.706645,-1.237811,-2.9360209999999998,0.212227,0.9450709999999999,-0.24859299999999998,-2.995219,1.624717,-2.1158040000000002,0.46741400000000005,0.415495,-0.07475599999999999
274,0.720896,-1.3001690000000001,-2.908391,0.176454,0.9636030000000001,-0.200823,-2.507155,-1.546132,-1.593449,0.650405,0.278966,0.150042
275,0.7414069999999999,-1.346004,-2.854879,0.150529,0.9748399999999999,-0.164392,-1.8375080000000001,-1.300176,-0.546502,0.813338,-0.22732800000000003,-0.28375900000000004
276,0.809245,-1.355246,-2.7702869999999997,0.154799,0.976859,-0.147587,-0.341599,-0.5464180000000001,0.666867,0.33838,-0.667578,-0.0303
277,0.807416,-1.340586,-2.758905,0.164859,0.973618,-0.157755,0.489274,-1.047014,0.4586,-0.694141,-0.8199620000000001,-0.237814
278,0.757835,-1.348308,-2.7559549999999997,0.15166500000000002,0.975352,-0.16026600000000002,-0.677886,-3.5727849999999997,-0.658335,-1.181664,-0.979059,-0.282682
279,0.623506,-1.363383,-2.82098,0.120236,0.978567,-0.167177,0.117549,-2.940966,-1.108651,-0.8207209999999999,-0.408758,1.039903
280,0.56726,-1.3790040000000001,-2.886819,0.102421,0.981664,-0.16075799999999998,-0.448254,2.527761,-0.785258,0.06628099999999999,1.576899,-0.093285
281,0.664706,-1.399578,-2.828248,0.105093,0.9853780000000001,-0.134104,-1.01055,1.0347469999999999,0.10789800000000001,1.247201,1.2815290000000001,-0.201147
282,0.772695,-1.38931,-2.73022,0.12599200000000002,0.983577,-0.129234,0.351928,1.23645,1.497299,1.167908,0.27966799999999997,-0.41306400000000004
283,0.8475870000000001,-1.36037,-2.674187,0.156588,0.977942,-0.13823,0.717712,-0.299689,1.1834930000000001,0.8379190000000001,0.214319,-0.219756
284,0.7909010000000001,-1.340139,-2.692917,0.16254100000000002,0.9735159999999999,-0.160762,0.7217600000000001,-2.079827,0.397454,-0.396413,-0.125005,0.371608
285,0.73338,-1.335476,-2.713849,0.156067,0.97244,-0.173211,0.117296,-1.584494,-0.404296,-0.473587,0.094806,0.265054
286,0.639985,-1.352485,-2.798727,0.12933599999999998,0.9762649999999999,-0.173717,-0.025141,-0.18950899999999998,-1.7455610000000001,-0.74251,0.282723,0.106548
287,0.49016400000000004,-1.368388,-2.945465,0.094636,0.979585,-0.17735399999999998,0.131383,-0.246452,-1.4944309999999998,0.11039600000000001,0.300093,0.084092
288,0.389987,-1.377104,-3.058638,0.073175,0.9813,-0.178025,0.12325699999999999,0.9090469999999999,-1.14025,0.490683,0.305138,0.14115899999999998
289,0.295703,-1.380506,3.10791,0.055117,0.981949,-0.18093,0.237675,0.995885,-1.1107200000000002,0.491986,0.033523000000000004,-0.215829
290,0.175003,-1.3803239999999999,2.971125,0.032962,0.981915,-0.186426,0.39618000000000003,0.406175,-1.360958,0.400418,0.036624000000000004,-0.251898
291,0.016132,-1.3723020000000001,2.807697,0.003181,0.9803649999999999,-0.197163,0.633113,-0.063428,-1.6118700000000001,0.447274,0.019712,-0.135449
292,-0.14183800000000002,-1.355441,2.653843,-0.030208,0.976901,-0.211544,0.8114319999999999,-0.501891,-1.607926,0.604747,-0.178713,-0.089237
293,-0.262962,-1.331144,2.540727,-0.0617,0.9714209999999999,-0.229202,0.995763,-0.584335,-1.397161,0.564172,-0.300781,-0.096421
294,-0.340831,-1.302724,2.4739150000000003,-0.088538,0.964283,-0.24963400000000002,1.2052040000000002,-0.707625,-1.1167340000000001,0.489203,-0.28625900000000004,-0.014403999999999998
295,-0.37049,-1.268569,2.456142,-0.107769,0.954676,-0.277449,1.695455,-0.533554,-0.584763,0.403927,-0.14538,-0.029054000000000003
296,-0.34781599999999996,-1.23453,2.495647,-0.11246600000000001,0.9439930000000001,-0.310204,1.8880569999999999,-0.9394309999999999,0.314409,0.628778,0.277671,0.027351999999999998
297,-0.294114,-1.201976,2.576722,-0.10450999999999999,0.932753,-0.345033,1.965532,-1.205941,1.092957,0.555483,0.452409,0.061036
298,-0.231866,-1.1798819999999999,2.679451,-0.087559,0.9245610000000001,-0.37083499999999997,1.275231,-1.9031740000000001,1.8261020000000001,0.482991,0.624847,0.439363
299,-0.14211500000000002,-1.170476,2.808042,-0.055198000000000004,0.9209360000000001,-0.385783,0.779384,-1.06303,2.610978,0.107856,0.707345,0.40081300000000003
300,-0.0328,-1.16583,2.9483759999999997,-0.01292,0.9191159999999999,-0.393775,0.24965900000000002,-1.118974,2.674647,0.080624,0.6194430000000001,0.161246
301,0.059383000000000005,-1.166144,3.081687,0.023365,0.9192389999999999,-0.39300300000000005,-0.178674,-1.7171919999999998,2.662808,0.272945,0.625682,0.029081
302,0.161172,-1.1642219999999999,-3.053025,0.063462,0.918481,-0.390339,-0.267744,-1.640843,3.09365,0.408096,0.641822,0.41540900000000003
303,0.2846,-1.1577110000000002,-2.8887680000000002,0.11271300000000001,0.9158860000000001,-0.385288,-0.47275200000000006,-1.227657,3.306401,0.34274699999999997,0.556297,0.49246599999999996
304,0.407934,-1.148149,-2.725237,0.162722,0.912006,-0.376517,-0.864149,-1.43295,3.302862,0.259519,0.43095,0.485922
305,0.52828,-1.139624,-2.5508029999999997,0.21066,0.9084760000000001,-0.36096100000000003,-1.451735,-2.204765,3.4183190000000003,0.095706,0.423753,0.53395
306,0.63894,-1.132857,-2.375539,0.252894,0.9056280000000001,-0.340416,-1.9233259999999999,-2.4875,3.13765,-0.019175,0.450192,0.5870890000000001
307,0.735685,-1.127192,-2.205891,0.288032,0.9032100000000001,-0.318195,-2.136482,-3.145227,2.903063,0.010445,0.11748099999999999,0.548999
308,0.807867,-1.119397,-2.043254,0.31531,0.8998379999999999,-0.30144899999999997,-2.2473229999999997,-4.023984,2.708998,0.005918,-0.008343000000000001,0.550671
309,0.863352,-1.116456,-1.8822990000000002,0.333552,0.898551,-0.28521799999999997,-2.65646,-4.801694,2.279848,-0.14890499999999998,-0.19036,0.761262
310,0.889275,-1.120974,-1.7381659999999999,0.33767600000000003,0.900524,-0.273916,-2.45969,-5.227536,1.510512,-0.516204,-0.316052,0.8394530000000001
311,0.8885379999999999,-1.1354090000000001,-1.627398,0.32735,0.9067069999999999,-0.265941,-2.228199,-4.916971,0.635789,-0.794285,-0.366118,0.618739
312,0.874801,-1.159592,-1.5413459999999999,0.306746,0.91664,-0.256276,-2.062711,-4.380065,-0.04099,-0.829009,-0.251754,0.344227
313,0.851291,-1.185784,-1.479627,0.282479,0.926794,-0.247506,-1.508812,-3.86226,-0.27493,-0.572091,0.088282,-0.096458
314,0.797153,-1.203191,-1.453718,0.25709,0.933191,-0.251116,-0.5886560000000001,-4.060127,-0.341956,-0.24662199999999998,0.603354,-0.8472120000000001
315,0.689507,-1.203972,-1.467234,0.228159,0.9334709999999999,-0.27672199999999997,0.5660430000000001,-4.848444000000001,-0.008140999999999999,0.22189899999999999,0.444047,-0.7035640000000001
316,0.6136510000000001,-1.1876280000000001,-1.4693049999999999,0.21529,0.927485,-0.30565,0.5553319999999999,-3.047405,0.6186590000000001,0.013623,-0.042078,0.051193999999999996
317,0.593784,-1.176523,-1.4496280000000001,0.214925,0.923276,-0.318384,0.12126500000000001,-1.1049930000000001,0.624889,-0.207021,-0.294705,0.559503
318,0.617433,-1.171899,-1.425335,0.224863,0.9214899999999999,-0.31669,-0.218889,0.615367,0.402391,-0.236551,-0.476315,0.42508900000000005
319,0.6486890000000001,-1.17398,-1.4096389999999999,0.23349099999999998,0.9222959999999999,-0.307979,-0.23898699999999998,0.757547,0.029258999999999997,-0.030289,-0.866525,0.11190399999999999
320,0.6710149999999999,-1.183604,-1.391082,0.23477800000000001,0.9259729999999999,-0.295725,-0.974411,0.030156,0.08594299999999999,0.783624,-0.8467950000000001,0.460687
321,0.789955,-1.207873,-1.277981,0.25217,0.9348629999999999,-0.24988200000000002,-3.176156,1.191392,1.172549,1.712186,0.172086,1.0226790000000001
322,0.971367,-1.217766,-1.0998430000000001,0.285464,0.9383290000000001,-0.19505799999999998,-1.262874,-0.5168689999999999,1.534206,2.041867,3.342432,-1.476695
323,0.845659,-1.1851690000000001,-1.151886,0.281506,0.9265629999999999,-0.24946999999999997,2.488064,-5.128036,0.31222300000000003,0.012790000000000001,1.962689,-0.42103100000000004
324,0.6682680000000001,-1.160318,-1.218093,0.247261,0.9169299999999999,-0.313211,0.8538879999999999,-5.937898000000001,-0.338019,-1.6747049999999999,-0.912032,1.165537
325,0.58382,-1.179725,-1.232321,0.21011100000000002,0.924501,-0.31804099999999996,-1.477999,-1.567885,-1.0425010000000001,-1.827146,-1.0942100000000001,1.150332
326,0.628112,-1.225968,-1.224685,0.19863499999999998,0.941134,-0.273517,-1.8564619999999998,3.0733919999999997,-1.2145299999999999,-1.2476770000000001,-1.22333,1.005496
327,0.614772,-1.253968,-1.27881,0.179696,0.9502280000000001,-0.25451,0.1927,0.467394,-1.841015,-0.800271,-0.277346,0.353067
328,0.40479299999999996,-1.2679790000000002,-1.444972,0.117444,0.9545,-0.27410999999999996,0.336946,-3.897418,-2.9357509999999998,0.373874,2.4083080000000003,0.140382
329,0.219879,-1.298381,-1.582614,0.058685,0.963124,-0.26258000000000004,-1.244567,-1.943423,-1.37047,1.2266549999999998,1.3028520000000001,0.649284
330,0.174691,-1.323691,-1.590926,0.042512,0.969625,-0.24087399999999998,-1.241118,-1.8535439999999999,-0.14210599999999998,0.686553,-0.437017,0.336364
331,0.19741,-1.348975,-1.532958,0.04315,0.975498,-0.215732,-1.437571,-1.2778200000000002,0.7071569999999999,-0.24514499999999997,0.024761000000000002,0.41298199999999996
332,0.260155,-1.3776700000000002,-1.4502709999999999,0.049369,0.981409,-0.18546700000000002,-1.656439,-0.9952989999999999,0.308956,-0.5103979999999999,0.047827,0.08149400000000001
333,0.26813400000000004,-1.4089610000000001,-1.4139979999999999,0.042688,0.986933,-0.15537,-1.538519,-1.480084,-0.303827,-0.24595,-0.17368499999999998,0.191808
334,0.23959499999999997,-1.440016,-1.417058,0.030945999999999998,0.991461,-0.12668,-1.443224,-1.121709,-0.49696899999999994,-0.110597,-0.24848,0.199205
335,0.155404,-1.470901,-1.48504,0.015436000000000002,0.995015,-0.098526,-1.456842,-0.674021,-0.819172,-0.146341,-0.21750300000000003,-0.006989
336,-0.063983,-1.500638,-1.690907,-0.004482,0.99754,-0.069954,-1.418396,-0.8173560000000001,-0.971476,-0.166096,-0.163144,-0.060631
337,-0.521844,-1.5214290000000001,-2.1317310000000003,-0.024595,0.998782,-0.042774,-1.293679,-0.809398,-0.9385680000000001,-0.095461,-0.13576,-0.008648999999999999
338,-1.133422,-1.5231379999999999,-2.735861,-0.043151,0.998865,-0.020176,-1.019676,-0.102094,-0.900173,-0.013794999999999998,-0.141992,0.006229999999999999
339,-1.5435219999999998,-1.509788,3.132258,-0.060940999999999995,0.9981399999999999,-0.001663,-0.921067,0.26815100000000003,-0.8679120000000001,0.02081,-0.182969,-0.062485
340,-1.7788669999999998,-1.49135,2.8936889999999997,-0.07764700000000001,0.9968459999999999,0.016393,-0.9007799999999999,0.07297999999999999,-0.8290639999999999,0.161814,-0.131474,-0.098196
341,-1.9238080000000002,-1.472032,2.744091,-0.09252,0.9951270000000001,0.034089,-0.911098,0.323725,-0.655337,0.25011300000000003,0.054724,-0.10488900000000001
342,-2.032918,-1.455963,2.629642,-0.102558,0.9934139999999999,0.051084,-0.8542190000000001,0.13943,-0.437855,0.31206100000000003,0.140268,-0.106366
343,-2.114217,-1.441381,2.543948,-0.11045899999999999,0.9916370000000001,0.066727,-0.75876,0.31461500000000003,-0.37438699999999997,0.32609699999999997,0.21188400000000002,-0.246232
344,-2.138132,-1.428151,2.512732,-0.11988599999999999,0.989843,0.07639299999999999,-0.349099,0.15826400000000002,-0.524081,0.28765599999999997,0.21346500000000002,-0.395286
345,-2.107367,-1.4158389999999998,2.554968,-0.132644,0.9880180000000001,0.07889299999999999,0.081384,-0.908633,-0.757921,0.406157,0.18468099999999998,-0.265783
346,-2.075959,-1.405571,2.607944,-0.143926,0.986381,0.079595,0.083063,-0.8825200000000001,-0.6297560000000001,0.669988,0.13897,0.001964
347,-2.039677,-1.397057,2.6522349999999997,-0.15420599999999998,0.9849450000000001,0.078114,0.249311,-0.293564,-0.472321,0.541794,0.221598,-0.18633
348,-1.976227,-1.396508,2.732393,-0.15934600000000002,0.98485,0.068393,0.8285030000000001,-1.028408,-0.224847,0.535033,0.30094699999999996,-0.177035
349,-1.8625470000000002,-1.406452,2.867126,-0.156687,0.986526,0.047056,1.53006,-0.816819,0.33205300000000004,0.833598,0.37388699999999997,-0.125029
350,-1.634973,-1.430916,3.115133,-0.13913299999999998,0.990233,0.008941,2.334876,-1.0670030000000001,1.1925729999999999,0.8448209999999999,0.206102,-0.20005799999999999
351,-1.208425,-1.455752,-2.708967,-0.107329,0.99339,-0.04069,2.900604,-1.556237,1.8348799999999998,0.42639099999999996,0.2634,-0.232564
352,-0.587665,-1.4473559999999999,-2.054964,-0.068261,0.992391,-0.102466,3.3946650000000003,-1.404978,2.2077419999999996,0.043847000000000004,0.28918,-0.182126
353,-0.141757,-1.4046459999999998,-1.570978,-0.023366,0.9862290000000001,-0.163724,2.861311,-1.8768770000000001,2.665025,-0.188335,0.261391,0.20777600000000002
354,0.115311,-1.358336,-1.268437,0.024261,0.9775149999999999,-0.20946199999999998,2.0920970000000003,-1.9271369999999999,2.8466549999999997,-0.23893699999999998,0.584176,0.641652
355,0.282098,-1.3120479999999999,-1.069368,0.071226,0.9667110000000001,-0.24575500000000003,1.593892,-0.9710190000000001,2.604805,0.046312,0.67309,0.5639460000000001
356,0.403079,-1.2729270000000001,-0.933107,0.115119,0.9559639999999999,-0.269962,1.0603639999999999,-0.28533000000000003,2.3555759999999997,0.367791,0.432784,0.055134
357,0.495079,-1.231966,-0.8258049999999999,0.157916,0.9431440000000001,-0.29247399999999996,1.168734,-0.781381,2.4360169999999997,0.410322,0.38418800000000003,0.012842
358,0.55425,-1.188596,-0.736634,0.196292,0.927846,-0.317128,0.9284969999999999,-1.4657950000000002,2.504651,0.326627,0.359691,0.15363
359,0.6096050000000001,-1.150739,-0.636901,0.23349,0.9130659999999999,-0.334354,0.35857,-1.9931150000000002,2.734218,0.135346,0.21288,0.524997
360,0.636169,-1.1114,-0.551027,0.263435,0.8963209999999999,-0.356665,0.600837,-2.8487240000000003,2.5725,-0.037758,0.188823,0.481559
361,0.640768,-1.074186,-0.47708599999999995,0.284825,0.8792030000000001,-0.38193699999999997,0.379196,-3.162721,2.433554,-0.144933,0.137231,0.49962799999999996
362,0.6390680000000001,-1.0429950000000001,-0.403971,0.30039099999999996,0.863917,-0.404242,0.058741999999999996,-3.171612,2.2710939999999997,-0.309821,-0.194681,0.701331
363,0.639368,-1.021377,-0.33755100000000005,0.311585,0.852828,-0.41904399999999997,-0.305413,-2.957734,1.848471,-0.32856799999999997,-0.23121599999999998,0.524421
364,0.618793,-1.010964,-0.278435,0.308033,0.8473440000000001,-0.43257700000000004,-0.571261,-3.636976,1.445833,-0.423176,-0.269875,0.6489010000000001
365,0.597021,-1.008162,-0.22218200000000002,0.299877,0.8458530000000001,-0.44114200000000003,-0.8635290000000001,-3.3889120000000004,1.203124,-0.412105,-0.24392399999999997,0.624324
366,0.576291,-1.015564,-0.170464,0.287248,0.849778,-0.44200100000000003,-1.165425,-3.093203,0.7754840000000001,-0.405748,-0.228516,0.677185
367,0.556555,-1.030425,-0.12734700000000002,0.271767,0.857518,-0.436813,-1.259193,-2.699465,0.428221,-0.5222399999999999,-0.274433,0.5715319999999999
368,0.534107,-1.051207,-0.093418,0.252766,0.868023,-0.42736899999999994,-1.383518,-2.494031,0.044666000000000004,-0.615376,-0.278393,0.42457700000000004
369,0.510793,-1.078208,-0.071026,0.23119,0.8811120000000001,-0.41254399999999997,-1.478369,-1.907311,-0.343445,-0.590122,-0.163903,0.23520700000000003
370,0.494667,-1.110673,-0.05563099999999999,0.210812,0.895998,-0.390827,-1.656178,-1.255243,-0.48546000000000006,-0.297619,0.020094,-0.178539
371,0.488938,-1.137073,-0.041147,0.19738699999999998,0.907407,-0.37101100000000004,-0.816503,-0.800945,-0.270805,0.281037,0.738039,-0.895804
372,0.46530600000000005,-1.127151,-0.042367,0.19259600000000002,0.903193,-0.3836,0.956936,-1.2741120000000001,0.634154,1.000535,0.813863,-0.6977140000000001
373,0.464394,-1.1099940000000001,-0.024436000000000003,0.199158,0.8956959999999999,-0.397573,0.215123,-0.549609,0.715638,0.049208999999999996,0.079997,-0.174723
374,0.49260699999999996,-1.106339,0.010281,0.21184099999999997,0.894065,-0.394679,-0.32991,0.046359,0.801866,-0.096591,-0.06914400000000001,0.061885
375,0.523609,-1.1038270000000001,0.047377999999999997,0.22509400000000002,0.8929370000000001,-0.389866,-0.264982,-0.281744,0.745056,-0.247403,-0.206368,0.092915
376,0.538338,-1.103556,0.076583,0.230936,0.8928149999999999,-0.386716,-0.357102,-0.661591,0.444729,-0.265925,-0.537804,0.071439
377,0.547512,-1.109832,0.09474199999999999,0.231553,0.895624,-0.37979,-0.682652,0.11021199999999999,0.059043,0.175323,-0.629938,0.605101
378,0.636975,-1.142677,0.161721,0.246923,0.909748,-0.333746,-3.2577540000000003,1.70832,0.377634,0.42061899999999997,-0.144032,1.292914
379,0.7660680000000001,-1.190721,0.285405,0.257209,0.928637,-0.26735,-2.507806,0.280314,0.394316,1.112694,1.3534680000000001,-0.5165850000000001
380,0.757316,-1.1589459999999998,0.296653,0.274999,0.9163819999999999,-0.290894,1.9547,-2.209236,1.319574,0.6805220000000001,2.404328,-1.287017
381,0.675692,-1.1379540000000001,0.283787,0.262341,0.9077770000000001,-0.327287,0.36446999999999996,-3.772274,0.10551500000000001,-0.993878,-0.62137,0.722887
382,0.634626,-1.147777,0.290218,0.24338400000000002,0.911854,-0.330584,-0.8423799999999999,-1.3727610000000001,-0.307641,-1.11225,-0.7265199999999999,0.6665220000000001
383,0.658129,-1.1738870000000001,0.308659,0.23644,0.9222600000000001,-0.305829,-1.452348,1.006129,-0.609779,-0.8633629999999999,-0.465504,0.624478
384,0.674503,-1.203107,0.312779,0.224485,0.93316,-0.280744,-0.884992,0.14688099999999998,-0.9422729999999999,-0.586302,-0.427255,0.620359
385,0.616861,-1.223133,0.273563,0.19708699999999998,0.9401719999999999,-0.277909,-0.248954,-1.569101,-1.271053,-0.316396,-0.022859,0.526764
386,0.57723,-1.240219,0.250423,0.177129,0.9458549999999999,-0.271998,-0.6344770000000001,-0.349114,-0.200678,1.2242680000000001,0.936164,0.119333
387,0.5968680000000001,-1.2472729999999999,0.283183,0.178681,0.9481209999999999,-0.262941,-0.484015,-0.8786139999999999,0.215521,0.9402149999999999,0.138045,0.020525
388,0.605284,-1.250907,0.31583,0.178926,0.9492700000000001,-0.25859299999999996,-0.47063699999999997,-1.091191,0.350483,-0.357637,0.019403,0.25906599999999996
389,0.6211369999999999,-1.254866,0.34544400000000003,0.180815,0.950508,-0.252666,-0.382846,-0.477228,0.183667,-0.351484,-0.13871,0.175716
390,0.629097,-1.259929,0.364767,0.17998599999999998,0.952069,-0.247325,-0.38206,-0.417113,0.068227,-0.23841199999999999,-0.136578,0.159572
391,0.6450779999999999,-1.265045,0.382411,0.18098399999999998,0.9536209999999999,-0.240521,-0.36553,0.176182,0.069719,-0.074752,-0.061439999999999995,0.142788
392,0.67073,-1.27053,0.401361,0.18384,0.9552579999999999,-0.231699,-0.400408,0.444921,0.027469999999999998,0.027586000000000003,-0.06292400000000001,0.068232
393,0.694056,-1.277543,0.416678,0.18490399999999999,0.957309,-0.22219299999999997,-0.426754,0.400742,-0.090161,0.043337,-0.16939,0.019190000000000002
394,0.7107439999999999,-1.285092,0.426375,0.183867,0.959463,-0.213594,-0.31888099999999997,0.352727,-0.164122,0.088884,-0.206091,-0.105895
395,0.715472,-1.29132,0.424325,0.180951,0.9612,-0.208208,-0.146833,0.30038899999999996,-0.278221,0.044391,-0.30257,-0.08914
396,0.702362,-1.29608,0.40486500000000003,0.17524800000000001,0.9625020000000001,-0.207067,0.08726,0.28936300000000004,-0.387667,0.105071,-0.290932,-0.093516
397,0.677233,-1.299092,0.37235100000000004,0.168173,0.9633149999999999,-0.20914499999999997,0.183719,0.3117,-0.462866,0.127344,-0.087018,-0.142234
398,0.647875,-1.301518,0.336448,0.160549,0.9639629999999999,-0.212126,0.20441800000000002,0.202837,-0.429467,0.186405,-0.0855,-0.017686
399,0.619935,-1.302894,0.304735,0.15379,0.9643280000000001,-0.21544899999999997,0.195303,0.15248399999999998,-0.35041700000000003,0.170032,-0.260822,0.006372999999999999
400,0.597719,-1.303085,0.275072,0.148862,0.9643790000000001,-0.21866,0.223068,0.423918,-0.321729,0.125796,-0.233895,-0.016341
401,0.5784159999999999,-1.302905,0.243375,0.144709,0.9643309999999999,-0.221638,0.2603,0.606075,-0.352681,0.20101,-0.042212,-0.103771
402,0.557823,-1.298726,0.207738,0.142247,0.963217,-0.22798800000000002,0.610154,0.710884,-0.226458,0.318096,0.02479,-0.251809
403,0.533706,-1.2841989999999999,0.16936800000000002,0.143811,0.959211,-0.243373,1.0790440000000001,0.596416,0.020519,0.15884700000000002,-0.143522,-0.328938
404,0.503206,-1.253737,0.126961,0.150348,0.950156,-0.273125,1.998589,0.43631099999999995,0.366841,0.089474,-0.240119,-0.262336
405,0.479225,-1.201194,0.09333999999999999,0.16656600000000002,0.9324709999999999,-0.32055,2.884452,0.374454,0.9478120000000001,0.04518,-0.149069,-0.22196100000000002
406,0.464321,-1.134004,0.073421,0.189441,0.906113,-0.378245,3.283615,0.020211,1.2768620000000002,-0.204441,0.14691099999999999,0.11788499999999999
407,0.44531099999999996,-1.0662989999999999,0.06116,0.208204,0.875418,-0.436226,3.061931,-0.271543,1.169933,-0.120344,0.174372,0.825234
408,0.44794700000000004,-1.0078340000000001,0.058024,0.23115100000000002,0.845678,-0.481037,2.288942,0.147397,1.235568,-0.018153,0.11623599999999999,0.745487
409,0.42815699999999995,-0.969526,0.061657000000000003,0.234871,0.8246180000000001,-0.514626,1.491494,-1.474225,0.663782,0.197486,0.25709299999999996,0.37954
410,0.41653999999999997,-0.9424790000000001,0.06202100000000001,0.237817,0.809018,-0.537524,1.043216,0.0075650000000000005,0.522019,-0.24311100000000002,0.353885,0.3707
411,0.43215299999999995,-0.928307,0.068467,0.25095700000000004,0.800607,-0.544103,0.23329299999999997,0.8872540000000001,0.48212,-0.5019939999999999,0.36383699999999997,0.484228
412,0.477117,-0.9281209999999999,0.090941,0.27522800000000003,0.800495,-0.532406,-0.588584,1.450828,0.650845,-0.27666199999999996,0.20330399999999998,0.305798
413,0.528443,-0.9439569999999999,0.12376600000000001,0.29575100000000004,0.809886,-0.5065729999999999,-1.524419,1.0931819999999999,0.325368,-0.086125,-0.050425,0.207531
414,0.579321,-0.982554,0.15961199999999998,0.303782,0.831917,-0.464358,-2.590015,1.085085,-0.45225200000000004,0.060002,-0.165383,0.132235
415,0.633837,-1.044719,0.198376,0.29739,0.864783,-0.40460799999999997,-3.415655,1.084561,-1.202569,0.11284200000000001,-0.220557,0.047918999999999996
416,0.694188,-1.122127,0.24055700000000002,0.277507,0.901025,-0.333381,-3.696454,1.1433790000000001,-1.814561,0.185842,-0.305017,-0.032998
417,0.7510180000000001,-1.20085,0.28757,0.246725,0.9323469999999999,-0.264301,-3.4469339999999997,0.32468800000000003,-1.8908169999999997,0.260386,-0.20496,-0.08712400000000001
418,0.790248,-1.26745,0.344305,0.21224400000000002,0.954342,-0.210195,-2.7483020000000002,-1.403171,-1.436138,0.43392,-0.004345,-0.175151
419,0.812733,-1.3100889999999998,0.41569300000000003,0.187177,0.966208,-0.177214,-1.8464650000000002,-2.7248189999999997,-0.444313,0.514971,-0.164877,-0.28834699999999996
420,0.84191,-1.328199,0.5070520000000001,0.17918399999999998,0.970717,-0.159996,-1.215586,-3.011565,0.38619699999999996,0.523513,-0.625472,0.472679
421,0.863691,-1.329143,0.5855859999999999,0.18193,0.970944,-0.15546,-0.5848220000000001,-2.300771,0.574494,-0.14698699999999998,-1.1059379999999999,0.667316
422,0.861701,-1.328663,0.6203569999999999,0.181973,0.970829,-0.156126,0.289877,-2.243792,-0.046515,-1.076489,-1.196186,-1.898135
423,0.803751,-1.336669,0.634175,0.167024,0.972717,-0.161003,-1.025867,-3.4728660000000002,-0.034902999999999997,-1.088136,-0.45309399999999994,1.169823
424,0.812499,-1.339392,0.649658,0.16650299999999998,0.9733450000000001,-0.15771400000000002,0.40628800000000004,1.3913959999999999,0.001982,-0.349623,1.185712,0.593596
425,0.8760680000000001,-1.341308,0.688122,0.174752,0.973783,-0.145624,-1.018974,0.930982,0.225489,0.499565,2.481036,-0.9304870000000001
426,0.9214379999999999,-1.3413700000000002,0.744109,0.18112799999999998,0.9737969999999999,-0.137511,-0.442521,-0.738809,0.384411,0.28478400000000004,-0.611584,1.005522
427,1.019031,-1.346308,0.813588,0.18956800000000001,0.974908,-0.11668599999999998,-0.8223879999999999,2.619964,0.191583,0.5236729999999999,0.45156,-0.22833
428,1.108452,-1.347356,0.870282,0.19831700000000002,0.975141,-0.09883600000000001,-0.368641,0.732129,0.37235999999999997,1.052323,1.384845,-0.103923
429,1.103429,-1.3291870000000001,0.867991,0.213602,0.9709540000000001,-0.107796,0.8834110000000001,-0.08790099999999999,1.092524,0.77384,0.05759500000000001,-0.596641
430,1.048886,-1.3149950000000001,0.811275,0.21933200000000003,0.967461,-0.126138,0.9782700000000001,-0.416601,-0.171167,-0.554293,0.132408,-0.873816
431,0.9113829999999999,-1.303215,0.6866270000000001,0.208965,0.964413,-0.161983,2.1796290000000003,-0.737975,-0.49778500000000003,-1.060848,0.499881,-0.16522699999999998
432,0.751458,-1.267427,0.510764,0.203947,0.954335,-0.218283,3.4069309999999997,1.124814,-0.135881,-0.833799,0.339717,-0.36145900000000003
433,0.671506,-1.207098,0.384903,0.221323,0.934588,-0.278496,3.759635,2.342076,0.709986,0.08255599999999999,0.004408,-0.14817
434,0.644977,-1.128699,0.30549499999999996,0.257205,0.903856,-0.341888,4.132211,2.169542,1.441337,0.035595999999999996,0.083097,0.182754
435,0.638333,-1.043811,0.251882,0.299673,0.8643270000000001,-0.403896,4.086062999999999,1.7972650000000001,1.60493,-0.133322,-0.037118,0.567501
436,0.637219,-0.972542,0.22525100000000003,0.335082,0.82632,-0.45267299999999994,2.651096,0.735313,1.485172,-0.37348899999999996,-0.163753,0.646628
437,0.646977,-0.930839,0.234091,0.359954,0.802121,-0.476479,1.206379,-0.310822,1.414464,-0.0034020000000000005,-0.038633,0.49517100000000003
438,0.6338050000000001,-0.8951979999999999,0.234211,0.370349,0.7803329999999999,-0.503905,1.3419370000000002,-0.850226,0.85849,0.57565,0.29083400000000004,0.613128
439,0.614157,-0.875547,0.22752399999999998,0.369144,0.767894,-0.523517,0.746627,-0.6894319999999999,0.059369000000000005,0.128414,0.45668500000000006,0.8112060000000001
440,0.5881850000000001,-0.8711040000000001,0.208443,0.35731399999999996,0.7650399999999999,-0.535759,0.369218,-0.42189499999999996,-0.44994700000000004,-0.645675,-0.033107,0.65786
441,0.586259,-0.875851,0.203201,0.35426799999999997,0.768089,-0.533415,-0.477109,0.46534,-0.214509,-0.581655,-0.224708,0.45110900000000004
442,0.6182380000000001,-0.901581,0.226365,0.359566,0.784308,-0.50554,-2.147207,0.748642,-0.083396,-0.345025,-0.21565900000000002,0.21869
443,0.681371,-0.956664,0.284118,0.362955,0.817274,-0.44757700000000006,-3.8065260000000003,0.945845,-0.5406880000000001,-0.087381,-0.320676,-0.078439
444,0.761794,-1.038923,0.35275,0.350044,0.861858,-0.366971,-4.4816709999999995,1.344416,-1.857691,-0.0064459999999999995,-0.357387,-0.22478
445,0.843184,-1.1380549999999998,0.40903,0.313161,0.9078200000000001,-0.27891,-4.23763,1.5410760000000001,-3.029146,0.156642,-0.293501,-0.29128000000000004
446,0.906646,-1.229781,0.463187,0.263352,0.942416,-0.206146,-3.365757,-0.206012,-2.445046,0.64032,-0.13074000000000002,0.05014
447,0.965694,-1.288944,0.5663229999999999,0.228746,0.960542,-0.15821300000000002,-2.787415,-2.732338,-0.9443940000000001,0.749831,-0.330949,0.201762
448,1.020634,-1.312635,0.679227,0.21762600000000001,0.9668610000000001,-0.133476,-1.120207,-2.283995,0.30688200000000004,0.88145,-0.5463899999999999,0.239891
449,0.9904209999999999,-1.299424,0.683419,0.224158,0.963404,-0.146981,0.6234770000000001,-2.018087,0.496046,-0.904501,-0.678431,-1.9669709999999998
450,0.877541,-1.291955,0.649945,0.21170300000000003,0.961375,-0.17588800000000002,0.020572,-4.009066000000001,-0.051475,-0.8269989999999999,0.020787,-1.9479060000000001
451,0.9228629999999999,-1.302028,0.729206,0.211723,0.9640989999999999,-0.16026300000000002,-0.718724,-0.397378,0.221811,-0.961234,2.323957,1.081467
452,0.9260209999999999,-1.281928,0.696171,0.22767199999999999,0.9585670000000001,-0.171208,1.264938,1.970839,0.8714290000000001,0.110615,0.411199,0.288136
453,0.9576540000000001,-1.257579,0.711825,0.251992,0.9513469999999999,-0.177303,0.042700999999999996,0.514157,0.9779899999999999,0.036108999999999995,-0.301246,0.255794
454,1.0118040000000001,-1.2541579999999999,0.750035,0.26397600000000004,0.9502870000000001,-0.165129,-0.484117,1.446985,0.192245,0.340119,0.346984,0.022765
455,1.041029,-1.2606959999999998,0.762767,0.263322,0.952303,-0.154203,-0.237671,0.013144999999999999,-0.29237399999999997,0.973159,0.651838,0.110044
456,1.021709,-1.263674,0.75742,0.257873,0.9532069999999999,-0.15778,0.198768,-0.8228719999999999,-0.194251,0.9232030000000001,0.561121,0.025256999999999998
457,0.980081,-1.266665,0.731132,0.248714,0.9541069999999999,-0.166786,0.14992,-0.732422,-0.393397,0.0051920000000000004,0.395746,-0.39074000000000003
458,0.945818,-1.271031,0.701589,0.23947399999999996,0.955406,-0.172769,0.417785,-0.050325,-0.43940200000000007,-0.42709600000000003,0.371529,-0.381598
459,0.8951629999999999,-1.264235,0.641207,0.23548000000000002,0.953377,-0.188729,1.301533,0.566448,-0.134917,-0.43267,0.154594,-0.528449
460,0.827469,-1.239751,0.5530520000000001,0.239292,0.9457030000000001,-0.21996,2.167496,1.003336,0.14831,-0.047947000000000004,-0.047525,-0.474346
461,0.765351,-1.195099,0.456718,0.254198,0.9302520000000001,-0.2646,3.009042,1.563492,0.528416,-0.005297,0.058776999999999996,-0.407992
462,0.707259,-1.135209,0.365221,0.27415700000000004,0.9066219999999999,-0.320736,3.664418,0.975191,0.82644,-0.05732999999999999,0.075403,-0.044147000000000006
463,0.6529689999999999,-1.064804,0.294121,0.294462,0.8746940000000001,-0.384968,3.744985,0.293613,0.9731549999999999,-0.227644,-0.08167999999999999,0.6219680000000001
464,0.626077,-0.99564,0.24531,0.318747,0.8391069999999999,-0.440792,3.337711,0.9931969999999999,1.1349879999999999,-0.317786,-0.237377,0.651943
465,0.624047,-0.9404629999999999,0.22931700000000002,0.344408,0.8078310000000001,-0.47831999999999997,1.820787,-0.007719,1.274161,-0.311434,-0.024949000000000002,0.559237
466,0.612591,-0.903917,0.233533,0.355651,0.785756,-0.506062,1.360797,-0.776335,1.012355,0.07447899999999999,0.26234,0.59647
467,0.608367,-0.878243,0.22975500000000001,0.36492199999999997,0.769618,-0.523945,0.882431,0.207756,0.41809399999999997,-0.091912,0.5292560000000001,0.60236
468,0.6149600000000001,-0.866597,0.22875500000000001,0.373515,0.76213,-0.528813,0.28730100000000003,0.409356,0.33569899999999997,-0.302592,0.17038,0.475208
469,0.6325970000000001,-0.8656799999999999,0.24040100000000003,0.383196,0.761536,-0.5227069999999999,-0.533349,0.515886,0.247577,-0.44482700000000003,0.088378,0.46479899999999996
470,0.6649689999999999,-0.884832,0.264548,0.390841,0.773809,-0.49845900000000004,-1.65707,0.8470549999999999,-0.07689,-0.33945,-0.186727,0.26321500000000003
471,0.720457,-0.9284040000000001,0.305825,0.39525,0.800665,-0.450234,-3.018138,1.279182,-0.666996,-0.067721,-0.289724,0.073754
472,0.794094,-0.998539,0.36234099999999997,0.386235,0.8406809999999999,-0.379575,-3.906221,1.4213879999999999,-1.625167,0.212856,-0.323392,-0.021335
473,0.8679899999999999,-1.0869,0.411077,0.354985,0.8851889999999999,-0.300706,-3.758857,1.63042,-2.876362,0.351772,-0.394939,-0.078276
474,0.9250299999999999,-1.176051,0.45404700000000003,0.307132,0.9230950000000001,-0.231438,-3.326946,0.12183800000000002,-2.6802,0.36991599999999997,-0.365859,-0.170326
475,0.953092,-1.240724,0.524451,0.264216,0.946019,-0.187711,-2.5674650000000003,-2.962243,-1.4488969999999999,0.33458499999999997,-0.47530100000000003,-0.020281
476,0.953252,-1.277228,0.603627,0.23592,0.957217,-0.167552,-1.8196759999999998,-4.067391000000001,-0.385786,0.509731,-0.648563,0.255214
477,0.9530040000000001,-1.2847879999999998,0.672061,0.229973,0.9593780000000001,-0.163414,-0.209091,-2.117412,0.48288400000000004,0.6134569999999999,-0.7861600000000001,0.601006
478,0.9044459999999999,-1.27545,0.642868,0.228803,0.956702,-0.17991500000000002,0.428105,-1.5374430000000001,-0.18318399999999999,-0.730787,-0.362906,-2.668809
479,0.921582,-1.295173,0.718792,0.21677800000000003,0.962256,-0.164527,-1.738647,-3.635893,0.060744000000000006,-0.824292,0.694605,1.830436
480,0.9139790000000001,-1.3013860000000002,0.741613,0.21078200000000002,0.9639280000000001,-0.16251600000000002,0.06424400000000001,0.9380059999999999,-0.071393,-0.143994,1.808457,0.220973
481,0.9780979999999999,-1.2976020000000001,0.7622909999999999,0.223786,0.9629139999999999,-0.150713,-0.337854,0.701109,0.37796,0.391235,0.161689,-0.35686999999999997
482,1.0135129999999999,-1.303072,0.820039,0.22450799999999999,0.964375,-0.139907,-0.921377,-0.14315999999999998,0.22755100000000003,0.43389300000000003,1.023662,0.006057
483,1.085971,-1.3071549999999998,0.858658,0.230562,0.965448,-0.121451,-0.341893,1.572818,-0.22886700000000001,0.6330399999999999,1.368506,-0.193903
484,1.064582,-1.308671,0.843891,0.22663200000000003,0.965841,-0.125645,0.42458,-1.278944,-0.089536,0.7044739999999999,0.697412,-0.194286
485,0.9941620000000001,-1.305941,0.796512,0.219439,0.9651299999999999,-0.142716,0.703515,-0.854243,-0.24516,-0.177859,0.278217,-0.67961
486,0.893966,-1.293656,0.6921149999999999,0.21329,0.961842,-0.17136400000000002,2.081276,0.45113100000000006,-0.210504,-0.562884,0.265728,-0.801429
487,0.7903279999999999,-1.248882,0.566627,0.22481500000000001,0.9486319999999999,-0.222609,3.439059,1.096593,0.765962,-0.737449,0.477455,-0.68094
488,0.718047,-1.173318,0.46555799999999997,0.25467399999999996,0.92204,-0.291516,4.089193,1.247803,1.547975,-0.296743,0.158359,0.16351
489,0.687208,-1.09279,0.389763,0.291821,0.887914,-0.355596,4.034688,2.085557,1.217509,-0.45737799999999995,0.013072,0.626042
490,0.6743819999999999,-1.024708,0.335489,0.324288,0.854562,-0.405659,3.150764,1.5259209999999999,1.010158,-0.555474,-0.180612,0.8165319999999999
491,0.657305,-0.9717979999999999,0.304779,0.344482,0.825901,-0.44633900000000004,2.135722,-0.172026,1.065064,-0.081467,-1.142734,1.081547
492,0.6743279999999999,-0.9382719999999999,0.30757399999999996,0.36911700000000003,0.806538,-0.461787,0.872442,1.428334,1.015733,-0.053565999999999996,-0.8195540000000001,0.7573350000000001
493,0.700865,-0.923228,0.321552,0.389022,0.797553,-0.461053,0.010085,0.262153,0.6245069999999999,-0.020049,-0.33576100000000003,0.461771
494,0.707225,-0.9300799999999999,0.325465,0.388387,0.801668,-0.454404,-0.43359899999999996,0.23568899999999998,-0.629446,-0.112477,0.41564799999999996,0.901975
495,0.7025359999999999,-0.9517190000000001,0.308566,0.374952,0.8144140000000001,-0.442875,-0.6488229999999999,0.6404989999999999,-1.242491,-0.22372199999999998,-0.046363,0.545994
496,0.693611,-0.987942,0.297323,0.35188600000000003,0.834895,-0.423232,-1.501264,-0.5730729999999999,-1.512877,-0.049548,-0.096415,0.137008
497,0.661776,-1.042337,0.29241,0.309842,0.863585,-0.397766,-2.415577,-1.746214,-1.9835049999999999,0.087116,-0.253813,-0.363266
498,0.631083,-1.119526,0.305172,0.257311,0.8998940000000001,-0.352108,-3.7484879999999996,-2.131192,-2.056416,0.310041,-0.079139,-0.581242
499,0.662605,-1.201447,0.379333,0.222081,0.9325629999999999,-0.284614,-4.2027589999999995,-1.705639,-0.725925,1.166927,0.189386,-0.22431199999999998
500,0.7407739999999999,-1.254106,0.500159,0.21016500000000002,0.9502709999999999,-0.22981100000000002,-2.691728,-1.845868,0.263301,0.907816,-0.772796,-0.013704
501,0.799083,-1.2681440000000002,0.59458,0.213617,0.954549,-0.20784899999999998,-0.878501,-1.414511,0.575584,0.551657,-0.961355,0.352655
502,0.78495,-1.274546,0.6386729999999999,0.20633400000000002,0.9564379999999999,-0.206519,-0.567891,-4.299347,-0.20796599999999998,-1.3316700000000001,-1.3110979999999999,-0.96354
503,0.6043569999999999,-1.2834290000000002,0.560649,0.161051,0.958993,-0.233221,0.694934,-4.075648999999999,-1.564619,-1.083979,-0.39412800000000003,0.29984099999999997
504,0.553995,-1.314661,0.516977,0.133279,0.967376,-0.215448,-1.858132,0.907251,-1.1017290000000002,-0.9882139999999999,1.825135,1.14068
505,0.535987,-1.3357430000000001,0.48266000000000003,0.11893499999999999,0.9725020000000001,-0.200231,-0.195649,0.9125469999999999,-0.67138,0.445366,1.0295889999999999,0.175726
506,0.634953,-1.344329,0.553136,0.133179,0.9744659999999999,-0.18077100000000002,-0.821234,1.7666849999999998,0.9874459999999999,1.633316,0.32183,-0.5616
507,0.810426,-1.328284,0.690865,0.17399900000000001,0.9707379999999999,-0.1655,-0.499687,1.075987,1.872928,2.15405,1.2447469999999998,-0.231579
508,0.805663,-1.3159049999999999,0.726144,0.181862,0.967691,-0.174637,0.643123,-2.898182,-0.007954000000000001,0.17319400000000001,0.02024,0.32103000000000004
509,0.713917,-1.315186,0.680301,0.165553,0.9675090000000001,-0.19109,0.15077000000000002,-1.71797,-0.6175189999999999,-0.012706,0.22945100000000002,0.12537
510,0.632147,-1.33002,0.607671,0.140896,0.971153,-0.192373,0.0063939999999999995,-0.000151,-1.438987,-0.51907,0.8710399999999999,-0.07432000000000001
511,0.5148729999999999,-1.332769,0.48604200000000003,0.116104,0.9718049999999999,-0.20521199999999998,1.0959,0.096208,-0.9070030000000001,-0.281173,0.06712,-0.316272
512,0.443075,-1.309874,0.402208,0.110596,0.966152,-0.233058,1.637176,0.657093,-0.182891,0.481659,-0.098126,-0.36968
513,0.424098,-1.274853,0.36183899999999997,0.12000899999999999,0.956527,-0.265802,2.007557,1.129276,0.49420699999999995,0.6837479999999999,-0.23101799999999997,-0.46893900000000005
514,0.41408100000000003,-1.226277,0.3461,0.135889,0.9412379999999999,-0.309197,2.470956,-0.270596,0.9158440000000001,0.358129,-0.25766,-0.066978
515,0.40929,-1.167607,0.350329,0.156139,0.9198139999999999,-0.359944,2.7051529999999997,-0.595169,1.425311,0.059925,-0.201598,0.253544
516,0.41348500000000005,-1.1059370000000002,0.37246,0.180126,0.893885,-0.41051499999999996,2.532809,-0.83147,1.792946,-0.21508400000000003,-0.289331,0.565086
517,0.431457,-1.052716,0.41458,0.20709499999999997,0.868771,-0.449829,1.63209,-1.067086,2.088196,-0.142367,-0.126248,0.706695
518,0.445457,-1.0164790000000001,0.461459,0.226794,0.85026,-0.47499600000000003,0.8912700000000001,-1.567785,1.6702599999999999,0.09283200000000001,0.473654,0.24999000000000002
519,0.449237,-0.991517,0.506257,0.23773200000000003,0.836857,-0.493104,0.519463,-1.45567,1.6611099999999999,0.44032299999999996,0.749111,0.5340590000000001
520,0.466699,-0.966462,0.552557,0.255662,0.822881,-0.507447,0.540641,-0.999872,1.677766,0.479278,0.6010850000000001,0.5515760000000001
521,0.49028900000000003,-0.946471,0.601242,0.275252,0.811358,-0.515687,-0.0062829999999999995,-0.652908,1.69807,-0.451629,0.359663,0.088532
522,0.526642,-0.942525,0.656455,0.29541999999999996,0.809044,-0.5081060000000001,-1.018791,-0.292188,1.346568,-0.473063,0.28847399999999995,0.016819
523,0.572127,-0.958935,0.713384,0.310987,0.818581,-0.482919,-1.805782,0.157124,0.756178,-0.388822,0.15398399999999998,0.003686
524,0.626178,-0.9858040000000001,0.767378,0.323612,0.833717,-0.447425,-1.942807,0.6172270000000001,0.36686599999999997,-0.534702,-0.082755,0.076805
525,0.663114,-1.012095,0.804417,0.326305,0.847944,-0.41774700000000003,-1.4619540000000002,-0.044667,-0.22606300000000001,-0.549511,-0.195173,0.143547
526,0.660898,-1.038861,0.8121659999999999,0.31133299999999997,0.861827,-0.400404,-1.0761020000000001,-0.584368,-0.9244979999999999,-0.44300100000000003,-0.315806,0.20867800000000003
527,0.637342,-1.073591,0.800755,0.283826,0.878919,-0.38333,-1.325496,-0.8210459999999999,-1.460048,-0.024731,-0.37898000000000004,-0.153429
528,0.5888680000000001,-1.113164,0.775225,0.24539699999999998,0.897101,-0.367406,-1.167931,-1.585596,-1.6758849999999998,0.156901,-0.23311500000000002,-0.290401
529,0.499457,-1.1427260000000001,0.7265020000000001,0.198817,0.909769,-0.36440300000000003,-0.417626,-2.621883,-1.583858,0.367207,-0.015878,-0.451957
530,0.419612,-1.15544,0.686709,0.164393,0.9149729999999999,-0.368506,-0.200852,-1.6134469999999999,-0.612622,0.5803119999999999,-0.002421,-0.32650100000000004
531,0.404019,-1.160742,0.686227,0.156718,0.917099,-0.366559,-0.21800799999999998,-0.430663,0.11854200000000001,0.525975,-0.132172,-0.30177600000000004
532,0.408479,-1.162493,0.703677,0.15771400000000002,0.917796,-0.364383,-0.284287,-0.683913,0.370504,0.460084,-0.30511,-0.24251999999999999
533,0.43144899999999997,-1.1666379999999998,0.740955,0.164449,0.919434,-0.357205,-0.567109,-0.6330399999999999,0.680385,0.51031,-0.49081400000000003,-0.064426
534,0.46404799999999996,-1.169003,0.790829,0.17503,0.9203610000000001,-0.34970999999999997,-0.567276,-0.40613499999999997,0.9460799999999999,0.6181369999999999,-0.6204649999999999,0.31087600000000004
535,0.5185770000000001,-1.174215,0.857799,0.191449,0.9223870000000001,-0.33547899999999997,-0.673305,-0.635197,1.044977,-0.099637,-0.328637,0.21249400000000002
536,0.462862,-1.160176,0.856193,0.17823599999999998,0.9168729999999999,-0.357173,0.425282,-3.911611,-0.26560900000000004,-0.690489,1.950436,-0.023076
537,0.40875300000000003,-1.171526,0.8443200000000001,0.15451199999999998,0.9213450000000001,-0.356716,-0.786193,-0.66923,-0.46730200000000005,-0.21385300000000002,1.04713,1.7428709999999998
538,0.38101,-1.1847860000000001,0.825868,0.140002,0.9264180000000001,-0.349494,-0.089167,-1.1209879999999999,-0.51847,-0.16203499999999998,-0.050717,1.295783
539,0.352952,-1.194499,0.81823,0.127025,0.930032,-0.344823,-0.614356,-0.45862700000000006,-0.269818,0.439518,1.3500889999999999,0.305471
540,0.34042100000000003,-1.192476,0.804396,0.123322,0.9292860000000001,-0.34815999999999997,0.707964,-0.826419,-0.016556,0.67427,0.9294629999999999,-0.06491
541,0.29731599999999997,-1.184679,0.809812,0.110324,0.926378,-0.360068,-0.053194000000000005,-2.3884090000000002,0.184159,-0.704379,0.6884140000000001,1.189674
542,0.297781,-1.201079,0.823068,0.10602,0.9324290000000001,-0.345445,-1.343839,0.506149,-0.079597,-0.9899459999999999,0.365773,0.708788
543,0.31587600000000005,-1.2369350000000001,0.823734,0.101796,0.9447840000000001,-0.311477,-1.666018,0.6787340000000001,-0.8672120000000001,-1.167547,0.375879,0.03865
544,0.275399,-1.269684,0.7806,0.080649,0.9550069999999999,-0.285402,-1.323867,-0.190422,-1.190584,0.022211,0.42110699999999995,0.402177
545,0.22621799999999997,-1.302527,0.7254229999999999,0.059451,0.964231,-0.258304,-1.4794610000000001,0.42755699999999996,-1.085641,0.287199,0.32710500000000003,0.337848
546,0.186649,-1.336803,0.677359,0.043025,0.972748,-0.22783,-1.499141,0.286196,-0.8826350000000001,0.469686,0.145843,0.12925799999999998
547,0.12526500000000002,-1.367615,0.614007,0.02521,0.9794290000000001,-0.200199,-1.373872,-0.167735,-0.960227,0.160779,-0.039412,0.096912
548,0.020675,-1.395485,0.519103,0.0036060000000000003,0.9846719999999999,-0.17437,-1.316741,-0.750635,-0.961217,0.10769200000000001,-0.20108800000000002,0.203743
549,-0.106607,-1.421331,0.404238,-0.015844,0.988851,-0.148055,-1.324892,-0.562467,-0.8578979999999999,0.066411,-0.29894,0.16403099999999998
550,-0.26855100000000004,-1.444727,0.246835,-0.033359,0.992064,-0.121218,-1.3453110000000001,-0.124552,-0.861806,-0.013547,-0.25808600000000004,0.10313599999999999
551,-0.50205,-1.461103,0.008756,-0.052676,0.9939899999999999,-0.095954,-1.232731,0.27639600000000003,-1.060223,-0.0081,-0.307283,0.024725999999999998
552,-0.791248,-1.466491,-0.289034,-0.074041,0.9945649999999999,-0.07318,-1.108107,0.407238,-1.121477,0.12145,-0.257886,-0.045351
553,-1.049146,-1.461659,-0.5592010000000001,-0.094421,0.99405,-0.054269000000000005,-0.951177,0.5500149999999999,-0.9987860000000001,0.29025300000000004,-0.102815,-0.136191
554,-1.2409430000000001,-1.45373,-0.765397,-0.110489,0.9931559999999999,-0.037827,-0.8698469999999999,0.845973,-0.756111,0.3022,-0.038352,-0.22113000000000002
555,-1.35487,-1.4428860000000001,-0.904539,-0.12458499999999999,0.9918309999999999,-0.027326999999999997,-0.474051,1.302716,-0.767818,0.374783,0.11617100000000001,-0.387758
556,-1.365276,-1.425625,-0.936052,-0.141605,0.9894809999999999,-0.029519999999999998,0.189334,0.812264,-0.969791,0.753483,0.127889,-0.218482
557,-1.357062,-1.405427,-0.92769,-0.16086099999999998,0.986358,-0.034914999999999995,0.269216,-0.599675,-0.926832,1.001498,-0.050368,-0.164487
558,-1.361824,-1.388995,-0.910801,-0.176859,0.9835200000000001,-0.037506,0.419637,-1.005183,-0.615477,1.294581,-0.044143,-0.241562
559,-1.296427,-1.377877,-0.8387020000000001,-0.184544,0.981449,-0.051942999999999996,1.054214,-0.186587,-0.21685100000000002,0.7661640000000001,0.252728,-0.489225
560,-1.1487129999999999,-1.366072,-0.6664760000000001,-0.185448,0.979117,-0.08327999999999999,2.261503,-1.568642,0.16616199999999998,0.8144,0.598749,-0.16359200000000002
561,-0.949824,-1.35085,-0.427565,-0.17744000000000001,0.975909,-0.126937,2.607964,-1.630244,0.8843700000000001,0.821575,0.45017700000000005,0.080199
562,-0.716535,-1.33277,-0.157632,-0.154854,0.9718049999999999,-0.177797,3.0848310000000003,-1.554149,1.6866330000000003,0.612678,0.350308,0.049822000000000005
563,-0.476012,-1.303151,0.13137100000000002,-0.12118399999999999,0.9643959999999999,-0.235056,3.208322,-2.061432,2.43056,0.351027,0.5389149999999999,0.227258
564,-0.26113200000000003,-1.27453,0.392438,-0.075373,0.956433,-0.282049,2.2063919999999997,-1.647343,3.107761,0.09957300000000001,0.515994,0.48180200000000006
565,-0.069049,-1.25295,0.6224930000000001,-0.021562,0.9499110000000001,-0.311772,1.3750040000000001,-1.135644,3.203848,-0.052016,0.8363290000000001,0.5789989999999999
566,0.085743,-1.230285,0.809348,0.0286,0.942584,-0.33273800000000003,0.9165409999999999,-1.29718,2.972253,0.167277,0.638089,0.367375
567,0.206105,-1.2098200000000001,0.972046,0.072279,0.935552,-0.345709,0.48462700000000003,-1.6391790000000002,2.8254639999999998,0.21632600000000002,0.499033,0.300467
568,0.29882600000000004,-1.186053,1.104854,0.11049300000000001,0.926895,-0.358685,0.586374,-1.584116,2.556911,0.29877800000000004,0.394303,0.232006
569,0.37145,-1.161726,1.220804,0.144371,0.917491,-0.370627,0.21964899999999998,-1.7819479999999999,2.531102,0.486397,0.248906,0.776663
570,0.45740699999999995,-1.1428040000000002,1.358692,0.183292,0.909801,-0.37237600000000004,-0.413714,-2.179933,3.238623,0.640011,0.22199000000000002,0.734376
571,0.528784,-1.11655,1.497424,0.22135900000000003,0.8985920000000001,-0.378854,-0.20637199999999997,-3.132673,3.1547669999999997,0.494675,0.23266399999999998,0.6202479999999999
572,0.560674,-1.0912979999999999,1.6207610000000001,0.24531599999999998,0.8872260000000001,-0.3907,-0.47861800000000004,-4.34737,2.929027,-0.10731600000000001,0.140346,0.8844139999999999
573,0.5714670000000001,-1.073692,1.7311849999999998,0.25792800000000005,0.878967,-0.401107,-0.770387,-4.18056,2.493077,-0.15425999999999998,0.10681199999999999,0.907852
574,0.5814199999999999,-1.064629,1.8360020000000001,0.26627199999999995,0.874609,-0.405161,-1.11602,-4.106225,2.3185830000000003,-0.192801,-0.008352,0.840266
575,0.590255,-1.06272,1.9420369999999998,0.27076999999999996,0.873682,-0.404179,-1.458257,-4.265038,2.104889,-0.27933,-0.25853899999999996,0.7642869999999999
576,0.5902069999999999,-1.070655,2.042169,0.266884,0.8775149999999999,-0.39842,-1.793828,-4.455578,1.5612,-0.35033400000000003,-0.238202,0.763212
577,0.575072,-1.0846280000000001,2.125594,0.254129,0.88413,-0.392085,-1.6171870000000002,-4.322184,1.0837,-0.433328,-0.435674,0.804453
578,0.555821,-1.102683,2.1951959999999997,0.23807199999999998,0.8924209999999999,-0.38328,-1.634896,-3.8668970000000003,0.7294109999999999,-0.656086,-0.202678,0.6052960000000001
579,0.534724,-1.126583,2.250378,0.21899899999999997,0.902949,-0.369756,-1.656726,-3.299107,0.21685300000000002,-0.6732229999999999,-0.133464,0.5286
580,0.512545,-1.155853,2.284982,0.197695,0.9151389999999999,-0.351331,-1.615664,-2.2554119999999998,-0.281989,-0.698046,-0.10576700000000001,0.46684
581,0.49604,-1.1875069999999999,2.303728,0.177989,0.9274399999999999,-0.328896,-1.508638,-1.444252,-0.495925,-0.269939,0.15929100000000002,-0.101158
582,0.473833,-1.215048,2.309512,0.158924,0.937386,-0.309915,-0.9943290000000001,-1.506453,-0.5713020000000001,-0.056369,0.326362,-0.480688
583,0.41223000000000004,-1.217176,2.2904709999999997,0.138743,0.938125,-0.317283,0.647981,-2.359977,-0.071627,0.16606600000000002,0.46949799999999997,-0.9482809999999999
584,0.383569,-1.202885,2.296302,0.134598,0.9330799999999999,-0.333529,0.330022,-1.240816,0.5806060000000001,0.750748,0.043497,0.039019
585,0.420721,-1.201347,2.344573,0.147479,0.9325260000000001,-0.329608,-0.556067,0.186134,0.945398,0.601483,-0.071839,0.33591
586,0.500526,-1.205662,2.410531,0.171353,0.934076,-0.313268,-0.737123,1.209415,0.9481629999999999,0.345965,-0.56402,0.26967399999999997
587,0.574595,-1.211446,2.468456,0.191126,0.936126,-0.295189,-0.909775,0.6161260000000001,0.5482020000000001,0.5181479999999999,-0.786208,0.49150900000000003
588,0.663341,-1.237991,2.5550479999999998,0.20116099999999998,0.9451299999999999,-0.257413,-2.6943639999999998,0.261972,0.35138800000000003,0.608089,-0.759552,0.887051
589,0.787691,-1.284499,2.691567,0.20014200000000001,0.9592959999999999,-0.199226,-2.8430009999999997,-0.659717,-0.261628,0.69091,1.184518,-0.197197
590,0.759748,-1.294159,2.687616,0.188106,0.9619790000000001,-0.198012,1.340079,-1.9247919999999998,-0.27672199999999997,1.013906,2.194789,-1.4650590000000001
591,0.620783,-1.269922,2.624431,0.172379,0.9550780000000001,-0.241058,1.253974,-4.760872,0.14291700000000002,-0.031188999999999998,1.904145,-1.118606
592,0.51302,-1.261374,2.587931,0.149454,0.9525100000000001,-0.265304,0.158193,-2.570663,-0.505272,-0.961084,-0.951319,1.035461
593,0.49045900000000003,-1.282058,2.569446,0.13412000000000002,0.9586040000000001,-0.251171,-1.2297930000000001,1.253011,-0.7335109999999999,-0.849986,-1.046846,0.9506950000000001
594,0.527169,-1.3097940000000001,2.556749,0.12981900000000002,0.966132,-0.22300999999999999,-0.874949,2.60129,-0.950677,-0.621518,-0.779746,0.714465
595,0.45183,-1.329006,2.469352,0.10454000000000001,0.9709110000000001,-0.21540700000000002,-0.059836,-1.278083,-1.74652,-0.21094000000000002,0.570868,0.359481
596,0.233725,-1.3545719999999999,2.310924,0.049687,0.976714,-0.20870300000000003,-1.422349,-3.211128,-2.004593,0.8674270000000001,1.998307,0.11792799999999999
597,0.138246,-1.395874,2.24191,0.023981,0.98474,-0.17235999999999999,-1.738189,-0.904943,-0.6328159999999999,0.7755489999999999,-0.100188,0.252606
598,0.073363,-1.4188450000000001,2.210378,0.011094,0.9884780000000001,-0.150948,-0.8338450000000001,-2.09386,-0.068432,0.12249700000000001,-0.152174,0.15911199999999998
599,0.087488,-1.436388,2.261332,0.011706999999999999,0.990981,-0.133476,-1.043526,-1.340546,0.338267,-0.219441,0.033662,0.457588
600,0.13237100000000002,-1.466879,2.32062,0.013687999999999999,0.994605,-0.10280399999999999,-1.91986,-0.524632,0.05443099999999999,-0.39142,-0.076087,0.391851
601,0.11222599999999999,-1.510151,2.30935,0.006784,0.9981620000000001,-0.060192999999999997,-2.092829,-0.44065699999999997,-0.548294,-0.358529,-0.264,0.063871
602,-0.33108699999999996,-1.544849,1.873852,-0.008407,0.999663,-0.024458,-1.6323530000000002,-0.339931,-0.828285,-0.165253,-0.146514,0.017882
603,-1.822518,-1.542351,0.387317,-0.027471,0.9995950000000001,0.007065000000000001,-1.5544360000000002,-0.25646199999999997,-0.990218,-0.018961000000000002,-0.09832,-0.072128
604,-2.1976880000000003,-1.512589,0.01847,-0.047083,0.9983059999999999,0.034106,-1.149527,-0.354873,-0.973376,0.15333,-0.083496,-0.14058099999999998
605,-2.240297,-1.4887190000000001,-0.020728,-0.064266,0.996634,0.050863,-0.698453,0.005058,-0.7987029999999999,0.247585,-0.192434,-0.096731
606,-2.247994,-1.470672,-0.033149,-0.077882,0.994992,0.06262000000000001,-0.564779,0.274368,-0.5972890000000001,0.261308,-0.084759,-0.161771
607,-2.258959,-1.454888,-0.050273000000000005,-0.089311,0.99329,0.073436,-0.590331,0.339225,-0.544139,0.346681,0.077709,-0.024776
608,-2.275052,-1.438268,-0.07471,-0.100688,0.991231,0.08554400000000001,-0.6905680000000001,0.40434000000000003,-0.490443,0.29233899999999996,0.045665,-0.037233999999999996
609,-2.3074630000000003,-1.4209459999999998,-0.111597,-0.110568,0.988793,0.100284,-0.8101689999999999,0.106624,-0.527217,0.339129,-0.029351,-0.08922200000000001
610,-2.336319,-1.401382,-0.13911300000000001,-0.121555,0.985684,0.116817,-0.808196,-0.195803,-0.556726,0.291279,0.045093,-0.155117
611,-2.361293,-1.384309,-0.159245,-0.130422,0.982662,0.131759,-0.6659069999999999,-0.26055900000000004,-0.47019099999999997,0.283544,0.13234400000000002,-0.20906
612,-2.363939,-1.370624,-0.156769,-0.139497,0.980032,0.141675,-0.363592,-0.32174200000000003,-0.616484,0.294313,0.094919,-0.21903699999999998
613,-2.353711,-1.364534,-0.132715,-0.145169,0.9788030000000001,0.144449,-0.052326,-0.807721,-0.566685,0.44912399999999997,0.036898,-0.130945
614,-2.3337950000000003,-1.359782,-0.100469,-0.151377,0.9778190000000001,0.144743,0.060291,-0.31114200000000003,-0.43834799999999996,0.44341499999999995,0.179865,-0.10656500000000001
615,-2.2960540000000003,-1.358355,-0.060048000000000004,-0.157774,0.977519,0.139853,0.437262,-0.082953,-0.287525,0.360503,0.33701,-0.11312
616,-2.232587,-1.3661860000000001,0.00722,-0.16028199999999998,0.97914,0.124856,1.0100790000000002,-0.066888,-0.006875,0.566333,0.371949,-0.18624200000000002
617,-2.1314610000000003,-1.391269,0.10808699999999999,-0.15121500000000002,0.983928,0.094944,1.846221,0.192228,0.801937,0.684006,0.224217,-0.297184
618,-1.9325869999999998,-1.436993,0.308035,-0.124752,0.9910620000000001,0.047212,2.765177,-0.074283,1.6504560000000001,0.719738,0.34160999999999997,-0.49566800000000005
619,-1.328131,-1.4822110000000002,0.926725,-0.085854,0.996079,-0.021253,3.89604,-0.85436,2.075964,0.34385,0.193802,-0.44713100000000006
620,-0.366767,-1.462218,1.913259,-0.038854,0.9941110000000001,-0.101142,4.035347,-1.0915270000000001,2.656218,-0.080775,0.49029399999999995,0.049781
621,0.08277000000000001,-1.4010989999999999,2.398877,0.013962,0.9856360000000001,-0.168296,2.943133,-1.8911799999999999,2.977557,-0.372162,0.506582,0.360755
622,0.29837600000000003,-1.340768,2.644413,0.067024,0.9736600000000001,-0.217925,2.3092759999999997,-0.625028,2.843321,-0.554955,0.6209439999999999,0.676817
623,0.42603100000000005,-1.2852780000000001,2.771267,0.116395,0.959516,-0.256474,1.8247080000000002,0.715651,2.3244029999999998,0.12712,0.48663599999999996,0.062581
624,0.5304800000000001,-1.237195,2.859685,0.165669,0.9448690000000001,-0.282441,1.362586,0.9016190000000001,2.3059819999999998,0.186946,0.439378,-0.09735
625,0.6070439999999999,-1.187114,2.930772,0.213536,0.927293,-0.30745500000000003,1.7308,0.895267,2.509387,0.28638800000000003,0.411803,-0.087382
626,0.700595,-1.128829,2.9966630000000003,0.27573600000000004,0.903912,-0.326971,0.758738,0.03648,2.862621,-0.003214,0.202472,0.128881
627,0.726093,-1.083233,3.06609,0.31104299999999996,0.8834770000000001,-0.35031100000000004,0.798516,-2.080279,2.576123,-0.21306599999999998,0.123298,0.45665
628,0.7306199999999999,-1.042853,3.120527,0.33617199999999997,0.8638450000000001,-0.375177,0.460103,-2.312821,2.148905,-0.254446,0.07360900000000001,0.41335500000000003
629,0.724182,-1.01201,-3.116066,0.35124,0.847899,-0.397108,0.313539,-2.2492259999999997,1.824128,-0.34968299999999997,-0.1501,0.415571
630,0.713799,-0.986456,-3.073932,0.361169,0.834076,-0.416979,0.126093,-2.383032,1.6157549999999998,-0.42063199999999995,-0.216995,0.41189799999999993
631,0.700257,-0.969535,-3.0319380000000002,0.364533,0.824623,-0.43256300000000003,-0.295028,-2.357008,1.333975,-0.582901,-0.41681599999999996,0.473685
632,0.695905,-0.9646600000000001,-2.986852,0.365219,0.8218549999999999,-0.437225,-0.8536879999999999,-1.870168,1.017528,-0.5820770000000001,-0.5022909999999999,0.46392799999999995
633,0.703752,-0.9730540000000001,-2.939003,0.364162,0.826608,-0.429071,-1.379065,-1.452223,0.584965,-0.485195,-0.630991,0.37774
634,0.713915,-0.9941479999999999,-2.895334,0.357006,0.8382950000000001,-0.412076,-1.704953,-1.190954,0.000173,-0.432827,-0.72953,0.276013
635,0.726058,-1.027843,-2.859986,0.34302699999999997,0.8561860000000001,-0.38636,-1.971898,-0.704831,-0.656066,-0.45072399999999996,-0.816666,0.096336
636,0.734325,-1.07195,-2.841314,0.320575,0.878135,-0.355115,-1.885505,-0.27387,-1.41018,-0.38458600000000004,-0.713615,-0.17319
637,0.711306,-1.116737,-2.8561959999999997,0.28633800000000004,0.898674,-0.332254,-1.1023129999999999,-0.6956,-1.851753,-0.07595,-0.454002,-0.24330700000000002
638,0.645207,-1.147874,-2.908825,0.24681399999999998,0.9118940000000001,-0.327918,-0.27279000000000003,-1.010768,-1.8103040000000001,0.392712,0.546038,-0.080483
639,0.591812,-1.171707,-2.9518150000000003,0.216773,0.921415,-0.32249099999999997,-0.600398,-0.30519,-1.0860370000000001,0.457345,1.069689,0.14764000000000002
640,0.580581,-1.188498,-2.96809,0.204622,0.92781,-0.311924,-0.5239699999999999,0.38161999999999996,-0.546932,0.168929,-0.267058,-0.222912
641,0.601165,-1.2047780000000001,-2.959534,0.202427,0.93376,-0.295149,-0.937644,0.78012,-0.210637,0.09174700000000001,-0.5528390000000001,-0.079363
642,0.650614,-1.224466,-2.9282779999999997,0.20559299999999997,0.940625,-0.270099,-1.150274,1.0701200000000002,-0.087512,-0.041056999999999996,-0.543545,0.095997
643,0.707534,-1.243896,-2.891053,0.20870500000000003,0.947042,-0.244029,-1.160348,1.050526,-0.240313,-0.530818,-0.138052,0.37549899999999997
644,0.733487,-1.2680559999999998,-2.8699369999999997,0.19958800000000002,0.954523,-0.22146500000000002,-1.066237,-0.36136,-0.754866,-0.36085900000000004,-0.243876,-0.117325
645,0.709363,-1.2939040000000002,-2.872329,0.178054,0.96191,-0.207421,-0.887299,-1.262713,-0.8774430000000001,-0.07843,-0.27444,-0.141594
646,0.685894,-1.316125,-2.87284,0.159558,0.9677459999999999,-0.19495,-0.866302,-1.066805,-0.604083,0.199267,-0.325046,0.090351
647,0.690322,-1.337925,-2.8450919999999997,0.146948,0.973008,-0.17793,-1.14469,-1.2586600000000001,-0.33658899999999997,-0.071616,-0.36149699999999996,-0.15701600000000002
648,0.6496810000000001,-1.3464639999999999,-2.84922,0.13456700000000002,0.974943,-0.17713099999999998,0.629995,-2.3853590000000002,-0.367615,-0.481994,1.235201,-0.7367640000000001
649,0.5637770000000001,-1.341832,-2.904424,0.12128499999999999,0.973902,-0.191838,-0.120683,-0.582624,-0.321757,0.279381,0.205663,0.805349
650,0.603312,-1.357159,-2.864835,0.120288,0.977266,-0.174581,-0.972267,0.041788,0.109465,-0.306293,-0.311388,0.551046
651,0.646335,-1.362363,-2.835505,0.12462100000000001,0.978356,-0.165185,-0.012397,1.63739,0.121603,-0.218158,0.893516,-0.9258190000000001
652,0.716009,-1.343908,-2.808541,0.147647,0.9743709999999999,-0.169703,0.6162890000000001,1.543811,1.398367,2.387082,1.2759639999999999,-0.17386400000000002
653,0.7702479999999999,-1.312027,-2.74113,0.178178,0.966706,-0.18366,0.48586899999999994,-1.305467,1.6938,0.775741,-0.489716,0.466558
654,0.790258,-1.291872,-2.680518,0.195623,0.9613520000000001,-0.193731,-0.132082,-2.267863,1.011327,-0.140875,-0.164203,0.405294
655,0.795485,-1.295893,-2.641095,0.19387100000000002,0.9624510000000001,-0.189999,-0.732704,-0.732842,-0.320499,-0.85714,0.572446,0.709774
656,0.7927960000000001,-1.3144120000000001,-2.638373,0.18063099999999999,0.9673129999999999,-0.177978,-0.622015,-0.577715,-0.581639,0.06564600000000001,0.360232,0.096801
657,0.802384,-1.33398,-2.612748,0.168685,0.97209,-0.16305,-1.0571,-0.601376,-0.4148,0.077592,0.355455,0.081873
658,0.8514950000000001,-1.352827,-2.554653,0.162673,0.976339,-0.142474,-1.130244,-0.281339,-0.198872,0.546205,0.139201,0.058383000000000004
659,0.9048940000000001,-1.368539,-2.4998240000000003,0.157961,0.9796159999999999,-0.12409500000000001,-0.789858,0.120486,-0.28139899999999995,0.293608,0.024336,-0.210576
660,0.9306989999999999,-1.380786,-2.4741310000000003,0.151476,0.982002,-0.112803,-0.43094399999999994,-0.077606,-0.338458,0.108107,0.11595899999999999,-0.41553199999999996
661,0.9155479999999999,-1.386425,-2.485735,0.14535599999999999,0.983052,-0.11170899999999999,0.16187200000000002,-0.077876,-0.252064,-0.360108,0.077739,-0.366151
662,0.8544579999999999,-1.3802530000000002,-2.563351,0.14283900000000002,0.981901,-0.124357,1.107377,1.240521,-0.169169,-0.19545099999999999,-0.178557,-0.40692399999999995
663,0.759042,-1.3557860000000002,-2.689405,0.146835,0.976974,-0.15478599999999998,2.1042799999999997,1.3977620000000002,0.136695,0.127411,-0.152054,-0.623641
664,0.678275,-1.3084719999999999,-2.800995,0.162712,0.9657899999999999,-0.201923,3.0006009999999996,1.43117,0.860758,0.204094,-0.132477,-0.453259
665,0.640297,-1.241,-2.8708150000000003,0.193477,0.946108,-0.25969899999999996,3.407222,1.3686690000000001,1.485384,-0.010494,-0.103869,-0.133657
666,0.625026,-1.162506,-2.9159330000000003,0.232314,0.917801,-0.321977,3.721868,1.376096,1.752491,-0.27470300000000003,-0.082474,0.138353
667,0.626117,-1.081624,-2.9431830000000003,0.275359,0.8827219999999999,-0.380759,3.418875,1.111057,1.961154,-0.35034099999999996,-0.048813999999999996,0.549216
668,0.634387,-1.012062,-2.9424330000000003,0.314189,0.8479270000000001,-0.42696999999999996,2.456871,0.13911400000000002,2.098822,0.131261,0.035969,0.5807939999999999
669,0.6310600000000001,-0.9601059999999999,-2.932563,0.338325,0.8192520000000001,-0.46298999999999996,1.6744580000000002,-1.041318,1.4731670000000001,0.35820799999999997,0.092704,0.5846640000000001
670,0.609651,-0.922743,-2.93446,0.34563,0.797261,-0.494888,1.464963,-0.8281069999999999,0.817678,0.443417,0.127971,0.587082
671,0.580281,-0.903256,-2.948956,0.339403,0.785347,-0.517722,0.815984,-0.951765,-0.195098,-0.31602600000000003,0.295021,0.572653
672,0.554883,-0.8957700000000001,-2.96302,0.329234,0.78069,-0.5311560000000001,0.40819099999999997,-0.511419,0.061066999999999996,-0.454768,0.022685,0.507474
673,0.5593239999999999,-0.89418,-2.952779,0.33224699999999996,0.7796960000000001,-0.53074,-0.531135,-0.071546,0.363727,-0.374987,-0.119814,0.42048
674,0.58982,-0.91365,-2.917569,0.339767,0.791738,-0.507649,-1.9759360000000001,0.348959,0.354164,-0.11366199999999999,-0.331823,0.087377
675,0.652766,-0.9605239999999999,-2.85727,0.348087,0.819492,-0.455266,-3.4616589999999996,0.911113,-0.144043,-0.07004099999999999,-0.429676,-0.025935000000000003
676,0.737484,-1.0329629999999999,-2.7857220000000003,0.344469,0.85882,-0.37916700000000003,-4.255025,1.481098,-1.334973,-0.07036,-0.40719099999999997,-0.11369100000000001
677,0.825069,-1.124158,-2.726402,0.317297,0.901904,-0.293071,-4.08536,1.870222,-2.6204259999999997,0.0040219999999999995,-0.40321599999999996,-0.09937
678,0.888035,-1.214212,-2.685251,0.27082399999999995,0.9370950000000001,-0.22024499999999997,-3.129628,0.574859,-2.91867,0.314625,0.335,-0.059937
679,0.894057,-1.286046,-2.654773,0.21900799999999998,0.9597319999999999,-0.175926,-2.4622669999999998,-2.055556,-2.10413,0.445924,0.9591069999999999,0.290488
680,0.9263549999999999,-1.329888,-2.579416,0.19073199999999998,0.9711219999999999,-0.14332999999999999,-1.902679,-1.374358,-0.582083,0.50075,-0.166465,-0.46661
681,1.04283,-1.351424,-2.451814,0.18798399999999998,0.9760340000000001,-0.10962999999999999,-1.685111,-0.162674,0.17739000000000002,0.23303600000000002,-0.8179069999999999,-0.202442
682,1.136259,-1.354835,-2.3412330000000003,0.19437100000000002,0.976771,-0.090212,-0.8732850000000001,-1.3532309999999999,0.433482,-0.689122,-1.023707,0.085177
683,1.123421,-1.362316,-2.294177,0.186604,0.978347,-0.089537,-0.288074,-3.942853,-0.620924,-1.168125,-1.189833,-0.8160729999999999
684,0.974621,-1.3718620000000001,-2.386548,0.16353199999999998,0.9802780000000001,-0.110963,0.667529,-1.289959,-0.739426,-0.24432800000000002,-0.30141399999999996,0.122147
685,1.013903,-1.3766260000000001,-2.369157,0.163797,0.981208,-0.101985,-0.501587,2.190093,0.32364699999999996,0.291036,2.38958,0.48668999999999996
686,1.133248,-1.3612,-2.296535,0.18846400000000002,0.978115,-0.088161,0.103946,1.889873,1.082426,0.901166,0.410496,-0.422505
687,1.184906,-1.335796,-2.251839,0.215721,0.972514,-0.087638,-0.220955,-0.008781,1.446854,0.498299,-0.690395,0.467842
688,1.2529059999999999,-1.312724,-2.189591,0.24243,0.966884,-0.07977200000000001,-0.283704,0.351076,1.286789,1.05356,0.621221,-0.306596
689,1.266422,-1.297195,-2.1426830000000003,0.257781,0.9628040000000001,-0.080978,-0.228812,-2.477293,0.722503,0.546678,0.44337,0.463287
690,1.225562,-1.286413,-2.141659,0.264011,0.959835,-0.094948,0.2145,-1.792305,0.334821,-0.183979,0.098957,-0.058265
691,1.198224,-1.289482,-2.144893,0.258573,0.960691,-0.10105700000000001,-0.15742899999999999,-0.650936,-0.5216810000000001,-0.591809,0.47859399999999996,0.128355
692,1.1723139999999999,-1.307875,-2.170818,0.23953899999999997,0.965635,-0.100847,0.1907,0.009665,-1.121505,-0.697395,0.582888,-0.358
693,1.113915,-1.319807,-2.233084,0.222888,0.9686670000000001,-0.10956500000000001,0.566923,0.398461,-0.64188,-0.371722,0.246604,-0.366158
694,1.069544,-1.3206959999999999,-2.305056,0.21705300000000002,0.968888,-0.11893,0.9843629999999999,1.699743,-0.350075,-0.045087,0.133697,-0.40498
695,0.9964540000000001,-1.307672,-2.417663,0.218365,0.9655819999999999,-0.141307,1.905432,1.802,-0.08098999999999999,0.300159,0.032114,-0.418019
