,attitude.roll,attitude.pitch,attitude.yaw,gravity.x,gravity.y,gravity.z,rotationRate.x,rotationRate.y,rotationRate.z,userAcceleration.x,userAcceleration.y,userAcceleration.z
0,-1.268206,-1.372092,0.361348,-0.188423,0.9803229999999999,-0.058821000000000005,-0.228163,-0.48723500000000003,-0.48313500000000004,0.32195300000000004,-0.014793,0.015898
1,-1.317775,-1.361761,0.321994,-0.2009,0.978232,-0.051945000000000005,-0.28625100000000003,-0.570325,-0.699216,0.347354,-0.017935,0.182789
2,-1.384831,-1.345995,0.26405,-0.219061,0.9748379999999999,-0.041214,-0.541399,-0.472189,-1.0429540000000002,0.377722,-0.040207,0.18382300000000001
3,-1.465241,-1.3232030000000001,0.188143,-0.2437,0.969505,-0.02582,-0.800513,-0.261303,-1.340932,0.45326400000000006,-0.11066400000000001,0.032152
4,-1.54342,-1.297331,0.11341199999999999,-0.269963,0.962841,-0.007392,-0.904708,-0.389954,-1.312653,0.576344,0.065037,-0.123055
5,-1.6193389999999999,-1.275449,0.050237000000000004,-0.290724,0.956701,0.014124000000000001,-0.8504700000000001,-1.008425,-0.940809,0.634413,0.191599,-0.186166
6,-1.677186,-1.25983,0.014757,-0.304244,0.9520379999999999,0.032491,-0.362153,-1.237242,-0.619843,0.61235,0.249011,-0.291723
7,-1.6898490000000002,-1.252063,0.024673,-0.311141,0.949633,0.037218,0.36391,-1.005717,-0.274305,0.5680529999999999,0.29553,-0.07416
8,-1.6591740000000001,-1.2527110000000001,0.075408,-0.311523,0.949836,0.027602999999999996,1.0716450000000002,-0.802946,0.08502799999999999,0.568435,0.295327,-0.064545
9,-1.580716,-1.260029,0.17369500000000002,-0.305769,0.952099,0.0030329999999999997,1.830336,-0.698192,0.403183,0.492857,0.515918,0.295215
10,-1.437738,-1.2696479999999999,0.33781300000000003,-0.293991,0.954997,-0.03935,2.765238,-0.696702,0.817772,0.32553000000000004,0.36859699999999995,0.278089
11,-1.2411729999999999,-1.280517,0.5586,-0.270807,0.9581639999999999,-0.092644,3.0425590000000002,-0.7196819999999999,1.52797,0.302347,0.365429,0.331383
12,-1.02025,-1.292101,0.804068,-0.234449,0.9614149999999999,-0.14391800000000002,2.7455380000000003,-0.8163159999999999,2.240659,0.027661,0.247813,-0.12152400000000001
13,-0.791094,-1.2970059999999999,1.0628819999999999,-0.192272,0.9627530000000001,-0.190094,2.5572790000000003,-1.039859,2.362476,0.195675,0.593903,0.294068
14,-0.578375,-1.288369,1.301066,-0.152346,0.960382,-0.233357,2.277976,-0.68029,2.195558,0.256274,0.645545,0.275624
15,-0.407916,-1.271658,1.494955,-0.116904,0.955591,-0.270514,1.900508,-0.868711,1.957086,0.323416,0.347342,0.210837
16,-0.28279299999999996,-1.254251,1.6470900000000002,-0.08686,0.9503159999999999,-0.298919,1.3932360000000001,-1.0764129999999998,1.8576689999999998,0.446021,-0.129653,0.281875
17,-0.179672,-1.241566,1.785666,-0.057777999999999996,0.946292,-0.318108,1.0139559999999999,-1.6343940000000001,2.130268,0.400491,-0.14311500000000002,0.28641500000000003
18,-0.065473,-1.2281520000000001,1.9451080000000003,-0.021981999999999998,0.9418700000000001,-0.335256,0.955419,-1.906307,2.779686,0.271677,-0.019277000000000002,0.210577
19,0.062344000000000004,-1.214141,2.120965,0.021753,0.9370700000000001,-0.348461,0.474286,-1.8068849999999999,3.108415,0.194419,0.117602,0.23350100000000001
20,0.188166,-1.205296,2.291914,0.066857,0.933945,-0.351105,-0.100039,-1.840314,2.908962,-0.0063100000000000005,0.043991,0.31895500000000004
21,0.273327,-1.194598,2.429679,0.09917100000000001,0.930068,-0.353747,-0.048796,-2.4081,2.331071,-0.086491,-0.159911,0.35212899999999997
22,0.313664,-1.183633,2.532795,0.116495,0.925984,-0.359139,-0.019679,-2.8811310000000003,1.7860189999999998,-0.075586,-0.20464000000000002,0.32857600000000003
23,0.32579600000000003,-1.174679,2.607622,0.123492,0.922566,-0.36554000000000003,-0.050556,-2.8111599999999997,1.364834,-0.037783,-0.22084499999999999,0.309083
24,0.332301,-1.170264,2.67243,0.127195,0.920853,-0.368576,-0.31332600000000005,-2.518971,1.250461,-0.028089,-0.173982,0.288529
25,0.348931,-1.172199,2.739528,0.132696,0.9216059999999999,-0.364734,-0.642853,-2.111553,1.149361,-0.065039,-0.16502999999999998,0.296543
26,0.375794,-1.18085,2.807807,0.139514,0.9249299999999999,-0.353608,-1.025152,-1.599464,1.025325,-0.084109,-0.20032,0.211732
27,0.418505,-1.197533,2.87831,0.14819300000000002,0.931142,-0.333181,-1.410247,-0.857936,0.8026989999999999,-0.16133,-0.173071,0.10986900000000001
28,0.47232799999999997,-1.220008,2.945672,0.15634,0.939102,-0.30601,-1.562733,-0.239207,0.451533,-0.159651,-0.156372,0.051723000000000005
29,0.524127,-1.2466540000000002,3.0010939999999997,0.159391,0.947924,-0.275737,-1.646966,0.044093,0.008338,-0.125944,-0.16405,-0.019916999999999997
30,0.5631689999999999,-1.2778260000000001,3.044314,0.154177,0.95739,-0.244193,-1.6529349999999998,-0.272741,-0.40683600000000003,0.10969300000000001,-0.185891,-0.218545
31,0.567499,-1.308389,3.064894,0.139434,0.9657680000000001,-0.218739,-1.267291,-1.110442,-0.642351,0.261781,-0.130807,-0.291469
32,0.535922,-1.330675,3.066137,0.12143499999999999,0.971309,-0.204471,-0.781801,-1.895723,-0.487334,0.584238,0.159398,-0.384961
33,0.499618,-1.341114,3.069517,0.10907,0.9737389999999999,-0.19983299999999998,-0.272773,-1.8812490000000002,-0.020189,0.708221,0.22448800000000002,-0.15516300000000002
34,0.507193,-1.3387129999999998,3.098796,0.11171600000000001,0.973189,-0.201044,0.015943000000000002,-0.437968,0.569637,0.667474,0.042787,-0.025961
35,0.573408,-1.327423,-3.122679,0.130727,0.9705309999999999,-0.20243,0.16158699999999998,0.640837,1.055313,0.42625,-0.273952,0.136664
36,0.668374,-1.315814,-3.044063,0.156305,0.9676680000000001,-0.197952,-0.347925,1.0291139999999999,1.1014629999999999,0.079108,0.08261,0.022872999999999998
37,0.782183,-1.323647,-2.936745,0.172425,0.969614,-0.173537,-1.68098,0.023321,0.43648400000000004,0.067428,0.739035,-0.01236
38,0.899468,-1.3474899999999999,-2.800866,0.17339100000000002,0.9751709999999999,-0.137745,-1.8948720000000001,-1.102854,0.134126,0.333796,0.358768,0.131901
39,0.975284,-1.359137,-2.691039,0.17390999999999998,0.977684,-0.117836,-1.030055,-1.7892,0.260687,-0.06160499999999999,0.032784,-0.020393
40,1.0242440000000002,-1.368882,-2.6053990000000002,0.17132,0.979684,-0.104226,-1.0393459999999999,-1.666032,-0.162552,-0.40726599999999996,-0.036400999999999996,0.071664
41,1.053483,-1.393836,-2.5444139999999997,0.15299000000000001,0.984383,-0.087051,-1.19614,-1.458041,-1.156291,-0.256658,-0.10273099999999999,0.323135
42,1.077787,-1.433568,-2.495256,0.12049000000000001,0.990599,-0.064735,-1.343575,-1.094222,-1.7004439999999998,-0.009757,-0.017302,0.45075200000000004
43,1.130247,-1.4737790000000002,-2.414612,0.087591,0.9952979999999999,-0.041295,-1.2705520000000001,-1.6761080000000002,-1.4364059999999998,0.038874,0.162936,0.233159
44,1.2661129999999998,-1.502567,-2.239832,0.064999,0.9976729999999999,-0.020441,-1.183349,-1.866255,-0.848031,-0.06718099999999999,0.082298,0.042977999999999995
45,1.653491,-1.518006,-1.8245799999999999,0.052534000000000004,0.998607,0.004354,-1.4060549999999998,-1.007104,-0.5238119999999999,-0.12116800000000001,-0.000408,0.09957300000000001
46,2.191294,-1.516838,-1.273207,0.043837,0.9985450000000001,0.031327999999999995,-1.326319,-0.46779799999999994,-0.395759,-0.15876600000000002,0.047491000000000005,0.124983
47,2.573196,-1.5048,-0.8860110000000001,0.035476,0.9978229999999999,0.055542999999999995,-1.171668,-0.093,-0.48489,0.0132,0.024562,0.13417
48,2.836616,-1.489806,-0.6229359999999999,0.024281,0.9967219999999999,0.07713300000000001,-1.0156120000000002,0.126236,-0.5674020000000001,0.173701,0.034238,0.041046
49,3.0135,-1.475382,-0.449108,0.012166,0.995452,0.094456,-0.781341,0.2342,-0.5968829999999999,0.334819,-0.009825,-0.063115
50,-3.140159,-1.462809,-0.325017,-0.000154,0.994175,0.10774600000000001,-0.5964,0.349537,-0.562624,0.352114,-0.052815,-0.085575
51,-3.049518,-1.4527370000000002,-0.23988,-0.010827,0.9930389999999999,0.117255,-0.41158500000000003,0.24418099999999998,-0.483217,0.376504,-0.08569,-0.09162000000000001
52,-2.9811259999999997,-1.445227,-0.171327,-0.020006,0.9921270000000001,0.123601,-0.275906,-0.152723,-0.445442,0.399049,-0.053252999999999995,-0.118748
53,-2.9343619999999997,-1.437937,-0.114075,-0.02725,0.991187,0.129607,-0.333996,-0.697025,-0.40883,0.40629299999999996,-0.052314,-0.12475499999999999
54,3.001665,-1.444146,-0.439783,0.017613,0.991991,0.125049,-0.556126,-0.932942,-0.359873,0.323345,-0.123521,-0.246036
55,2.478691,-1.424305,-0.9411360000000001,0.089816,0.989289,0.11503599999999999,-0.5861729999999999,-0.6805829999999999,-0.305927,0.197278,-0.212327,-0.341095
56,2.526295,-1.419686,-0.881876,0.086877,0.988605,0.12291099999999999,-0.33111599999999997,-0.502097,-0.14093599999999998,0.180518,-0.219394,-0.382463
57,2.519889,-1.417967,-0.877317,0.088652,0.988344,0.123732,0.050401,-0.58327,0.11393299999999999,0.14163399999999998,-0.047639999999999995,-0.44857600000000003
58,2.45817,-1.420297,-0.928723,0.094662,0.9886959999999999,0.116244,0.54175,-0.494163,0.314871,0.10979100000000001,-0.009876000000000001,-0.282168
59,2.302352,-1.4294799999999999,-1.076473,0.10479400000000001,0.990031,0.09407599999999999,1.428205,-0.5237729999999999,0.557178,0.12569,-0.021724,-0.160925
60,1.9717259999999999,-1.438517,-1.393109,0.12141700000000001,0.9912639999999999,0.051467,2.4054189999999998,-1.133675,0.9162299999999999,0.062009,0.068856,-0.101607
61,1.513624,-1.423099,-1.8220919999999998,0.146905,0.9891129999999999,-0.008408,2.986177,-1.9028740000000002,1.494908,-0.646279,0.7750630000000001,-0.6857300000000001
62,1.1519709999999999,-1.3710879999999999,-2.142045,0.181227,0.980125,-0.080676,3.4767930000000002,-2.606553,2.0173240000000003,-0.886275,1.079919,-0.24763200000000002
63,0.904457,-1.3016159999999999,-2.348373,0.20904899999999998,0.963989,-0.164378,3.9932440000000002,-1.852436,1.328825,-0.994266,0.808304,0.673991
64,0.749418,-1.2406840000000001,-2.501347,0.220811,0.9460059999999999,-0.237301,3.4088760000000002,0.392455,0.41601499999999997,0.040938,0.193581,0.366971
65,0.6869109999999999,-1.198002,-2.5944380000000002,0.23096799999999998,0.931313,-0.281614,2.175766,1.792445,0.09902799999999999,0.326405,0.137443,0.123304
66,0.696952,-1.169074,-2.634548,0.250977,0.9203889999999999,-0.299821,1.38547,2.3662490000000003,0.611928,0.600463,0.37485300000000005,-0.226196
67,0.719655,-1.1325020000000001,-2.639497,0.27972800000000003,0.9054770000000001,-0.319158,1.545526,0.7466510000000001,1.3660809999999999,0.06841599999999999,0.007731,-0.020472
68,0.7247819999999999,-1.091017,-2.635724,0.306015,0.8870969999999999,-0.34556,1.395123,-0.174377,1.387576,-0.162186,-0.160275,0.12536
69,0.724992,-1.059277,-2.628723,0.324602,0.872002,-0.36639299999999997,0.859374,-0.31601399999999996,1.042184,-0.28499,-0.542076,0.213256
70,0.7314039999999999,-1.041381,-2.614376,0.33731500000000003,0.863102,-0.375859,0.16615,-0.290147,0.769185,-0.22749699999999998,-0.561543,0.222875
71,0.748895,-1.0359610000000001,-2.5887919999999998,0.347017,0.860353,-0.373323,-0.469679,-0.18828,0.621471,-0.1662,-0.557176,0.23106500000000002
72,0.78045,-1.039448,-2.550259,0.356509,0.862125,-0.360055,-0.989186,0.001273,0.555643,-0.11146800000000001,-0.623645,0.24457600000000002
73,0.827839,-1.050094,-2.5007919999999997,0.366385,0.8674700000000001,-0.336534,-1.41993,0.418713,0.433526,-0.156134,-0.668877,0.23933600000000002
74,0.894532,-1.06636,-2.438513,0.376942,0.875447,-0.30249699999999996,-1.8610959999999999,0.6773680000000001,0.335042,-0.242375,-0.7553300000000001,0.167746
75,0.974648,-1.088941,-2.361453,0.383483,0.8861370000000001,-0.26019200000000003,-2.277635,0.531883,0.04924,-0.48985200000000007,-0.770734,0.09294
76,1.059509,-1.11691,-2.278041,0.382386,0.89875,-0.214538,-2.278635,0.583717,-0.390941,-0.512604,-0.699745,0.128234
77,1.1368049999999998,-1.1502809999999999,-2.213101,0.370381,0.9128790000000001,-0.171657,-1.8057889999999999,1.084638,-1.126422,-0.495824,-0.580069,0.124279
78,1.196159,-1.187989,-2.167979,0.347613,0.9276200000000001,-0.136684,-1.395661,0.6020220000000001,-1.47011,-0.241046,-0.204002,-0.08427799999999999
79,1.215978,-1.223747,-2.140075,0.318932,0.9403809999999999,-0.118164,-0.915595,-0.8823040000000001,-1.5204030000000002,0.060279,-0.078473,-0.29444899999999996
80,1.196464,-1.2572290000000002,-2.130391,0.287089,0.951239,-0.112785,-0.71728,-1.555455,-1.451925,0.197698,-0.12197000000000001,-0.329583
81,1.197476,-1.286325,-2.105438,0.261313,0.95981,-0.102353,-0.9576120000000001,-0.735996,-1.043388,0.236154,-0.088549,-0.207461
82,1.2364870000000001,-1.3039399999999999,-2.066456,0.24909499999999998,0.9646049999999999,-0.086522,-0.5977779999999999,0.43520699999999995,-0.40678400000000003,-0.029033,0.185755,-0.47552
83,1.247287,-1.307717,-2.068629,0.24655900000000003,0.9655940000000001,-0.08266799999999999,0.268308,0.734382,-0.050741,0.044152,0.143247,-0.1357
84,1.262322,-1.299715,-2.0797060000000003,0.255128,0.963482,-0.08129600000000001,0.073673,1.74026,0.585407,0.14666600000000002,0.426853,0.46033900000000005
85,1.374754,-1.290366,-2.000968,0.27146,0.960936,-0.05391,-1.508476,1.560229,0.624793,0.009179000000000001,0.9483809999999999,0.42665200000000003
86,1.484544,-1.286173,-1.887097,0.279744,0.9597680000000001,-0.024189,-1.0038040000000001,-1.573329,0.33323200000000003,-0.153249,0.761943,-0.523648
87,1.40149,-1.280689,-1.918277,0.281957,0.9582129999999999,-0.048198000000000005,0.499863,-1.8772689999999999,0.179618,0.319835,0.388146,-0.08568200000000001
88,1.415235,-1.279455,-1.8961310000000002,0.283761,0.95786,-0.044502,-0.360404,-0.13118,0.100869,0.142539,1.328929,-0.36274
89,1.397338,-1.276749,-1.915155,0.285473,0.9570790000000001,-0.05002,0.573381,0.198853,0.141152,0.563908,0.384154,-0.154265
90,1.3393979999999999,-1.266421,-1.967039,0.291704,0.954034,-0.068731,0.8501270000000001,-0.893912,0.38163,0.088271,0.147009,0.29770399999999997
91,1.2912190000000001,-1.260442,-1.991426,0.293533,0.952225,-0.084272,0.261279,-1.411583,0.080147,-0.129959,0.047943,0.243589
92,1.267452,-1.2645389999999999,-1.9896880000000001,0.287722,0.953469,-0.090058,-0.331406,-1.030623,-0.36886199999999997,-0.228442,-0.024575,0.104447
93,1.2831290000000002,-1.280702,-1.9679959999999999,0.27428400000000003,0.958217,-0.08115399999999999,-0.623625,0.16866,-0.859549,-0.033424,0.006490000000000001,-0.176873
94,1.315641,-1.304015,-1.942434,0.255087,0.9646239999999999,-0.066537,-0.603681,0.394075,-1.037023,0.363138,0.079779,-0.12148099999999999
95,1.339374,-1.320702,-1.919302,0.240892,0.9688889999999999,-0.056764999999999996,-0.45801899999999995,-0.179384,-0.546025,0.42227,-0.22561799999999999,-0.02963
96,1.346034,-1.327842,-1.8991259999999999,0.234515,0.9706309999999999,-0.053616,-0.176678,-0.8390920000000001,-0.18215599999999998,0.171185,-0.424626,-0.10744000000000001
97,1.325477,-1.3294,-1.902534,0.231897,0.9710049999999999,-0.058058000000000005,0.134496,-0.784259,-0.045457,0.017691,-0.255215,-0.17
98,1.289626,-1.327855,-1.930325,0.23110799999999998,0.970635,-0.066749,0.46127700000000005,-0.21133000000000002,-0.015066,0.047441000000000004,-0.22025300000000003,-0.122643
99,1.237468,-1.3246129999999998,-1.9838669999999998,0.23028800000000002,0.96985,-0.079737,0.759698,0.009001,0.038011,-0.125856,-0.16278199999999998,-0.199621
100,1.162007,-1.313721,-2.060099,0.233301,0.9671379999999999,-0.101064,1.322381,-0.192879,0.21845599999999998,-0.188058,-0.440587,-0.248515
101,1.0518969999999999,-1.297877,-2.1642080000000004,0.23406100000000002,0.962988,-0.133672,1.663991,-0.588467,0.015183000000000002,-0.086905,-0.459341,-0.090662
102,0.928824,-1.275685,-2.280614,0.232942,0.9567700000000001,-0.174151,2.198359,-0.532094,0.10643699999999999,0.106932,-0.49526800000000004,-0.104078
103,0.803091,-1.236803,-2.39318,0.235866,0.9447409999999999,-0.22766399999999998,2.7905290000000003,-1.325073,0.49508100000000005,-0.23449299999999998,-0.182381,0.037478
104,0.686664,-1.181375,-2.480875,0.240684,0.9251290000000001,-0.293609,3.304449,-1.7066569999999999,0.9018799999999999,-0.281028,0.024013,0.051453
105,0.608749,-1.1102040000000002,-2.53803,0.254171,0.89579,-0.364633,3.5988379999999998,-1.03942,1.351734,-0.27744,0.402688,-0.043616
106,0.575503,-1.040106,-2.5686459999999998,0.275463,0.862458,-0.4246,3.087646,0.26447800000000005,1.262103,-0.284283,0.987136,0.177728
107,0.573476,-0.9814280000000001,-2.585868,0.301571,0.831292,-0.466912,2.541966,0.60523,1.2364899999999999,-0.085736,0.666663,0.252176
108,0.57438,-0.929903,-2.593688,0.324853,0.801562,-0.5019640000000001,2.05879,0.304742,1.142702,0.29990300000000003,0.046932999999999996,0.10673099999999999
109,0.5901689999999999,-0.890926,-2.5912599999999997,0.34986799999999996,0.777654,-0.522346,1.3136379999999999,0.959102,1.184731,-0.120452,0.721461,-0.060158
110,0.621417,-0.866074,-2.575066,0.377154,0.761791,-0.5267149999999999,0.299061,0.821543,1.0336100000000001,-0.097018,0.717075,-0.148502
111,0.663416,-0.862092,-2.542005,0.400801,0.759206,-0.5128,-0.875907,0.984376,1.0251940000000002,-0.095443,0.268473,-0.27015900000000004
112,0.726823,-0.86808,-2.490964,0.42946000000000006,0.7630899999999999,-0.482967,-1.503874,1.35606,1.060924,-0.130892,-0.33170900000000003,-0.050251
113,0.801687,-0.88195,-2.4316150000000003,0.45673100000000005,0.77198,-0.442089,-1.9905599999999999,1.502725,0.769985,-0.123525,-0.42072299999999996,0.031597
114,0.8773780000000001,-0.9049219999999999,-2.3696450000000002,0.475088,0.786377,-0.394845,-2.315491,1.25695,0.177303,-0.064321,-0.591629,0.23848899999999998
115,0.944218,-0.94132,-2.3119810000000003,0.476887,0.8083359999999999,-0.345213,-2.6117529999999998,0.9344520000000001,-0.700295,-0.31450300000000003,-0.7465069999999999,0.218153
116,1.009693,-0.991726,-2.251431,0.46333599999999997,0.8369719999999999,-0.29120100000000004,-2.9554080000000003,0.715696,-1.373258,-0.34002899999999997,-0.716595,0.140719
117,1.0825870000000002,-1.0526309999999999,-2.183373,0.437425,0.8687290000000001,-0.232312,-3.075255,0.771701,-1.9542119999999998,-0.38939,-0.596421,-0.008227
118,1.1649,-1.118825,-2.106691,0.401254,0.8995879999999999,-0.17244400000000001,-3.001716,0.6322770000000001,-2.3156470000000002,-0.395837,-0.064887,-0.177898
119,1.247356,-1.181805,-2.019972,0.35959,0.925292,-0.12053900000000001,-2.571597,-0.23441399999999998,-2.266666,-0.32045100000000004,0.176011,-0.277914
120,1.3012569999999999,-1.236076,-1.9425119999999998,0.316644,0.9445020000000001,-0.087477,-1.7588259999999998,-1.33819,-2.134593,-0.226831,0.62874,-0.420885
121,1.3200610000000002,-1.27732,-1.889421,0.280237,0.9572440000000001,-0.07177599999999999,-1.122033,-1.677489,-1.48664,0.020956,0.067719,-0.376817
122,1.34743,-1.2976450000000002,-1.8401040000000002,0.263065,0.962925,-0.059757000000000005,-0.804597,-0.255387,-0.421228,0.251156,-0.25739,-0.05633200000000001
123,1.428213,-1.2984930000000001,-1.787648,0.266221,0.9631540000000001,-0.038218,-0.658185,2.492515,0.37744,0.266189,-0.309834,0.076304
124,1.5285959999999998,-1.286154,-1.7534419999999997,0.280564,0.9597620000000001,-0.011847,-0.178065,3.696791,0.631351,0.020538,-0.009292,-0.066309
125,1.632767,-1.282515,-1.70393,0.28375900000000004,0.958734,0.017606999999999998,-1.255371,1.709797,-0.23461500000000002,-0.41411499999999996,0.353018,-0.218764
126,1.6974169999999997,-1.2894,-1.619632,0.275475,0.9606690000000001,0.035068,-0.779242,-2.4891900000000002,-0.463054,-0.339821,0.583979,0.6427729999999999
127,1.642845,-1.2968979999999999,-1.6145969999999998,0.269785,0.962724,0.019471000000000002,0.043079,-2.378742,-0.291877,0.93601,0.18501199999999998,0.227996
128,1.6705880000000002,-1.290454,-1.566525,0.275308,0.9609610000000001,0.027565,-0.8146399999999999,-0.06879,0.34224099999999996,1.0034239999999999,0.363349,-0.132118
129,1.6765580000000002,-1.289426,-1.560993,0.27612,0.960676,0.029312,0.301207,-0.033732,-0.06768400000000001,0.27814,1.063875,-0.188522
130,1.619769,-1.287466,-1.6229879999999999,0.27921999999999997,0.9601299999999999,0.013685,1.029354,-0.13,0.19817200000000001,0.481645,0.10826,0.0027489999999999997
131,1.5787360000000001,-1.285767,-1.653503,0.28117600000000004,0.9596530000000001,0.002232,0.042377,-0.778965,0.04149,0.187436,0.11351199999999999,0.034099000000000004
132,1.5665850000000001,-1.2904120000000001,-1.640218,0.276723,0.9609489999999999,-0.001165,-0.299881,-1.4299950000000001,-0.423675,-0.080525,0.166202,0.14691700000000002
133,1.577236,-1.303782,-1.605537,0.263847,0.964563,0.0016989999999999998,-0.568751,-0.8342860000000001,-0.7777609999999999,-0.380623,0.054602,0.187525
134,1.636187,-1.322705,-1.544814,0.24502800000000002,0.969383,0.016045,-0.821894,0.48121499999999995,-1.062158,-0.407504,0.026726,0.11223499999999999
135,1.732098,-1.338182,-1.4602620000000002,0.227529,0.973067,0.037022,-0.914133,0.725132,-0.708465,0.194681,-0.158049,-0.009145
136,1.81923,-1.344317,-1.387325,0.217653,0.974463,0.055213,-0.634732,0.8472360000000001,-0.317837,0.21764899999999998,-0.24664899999999998,-0.094047
137,1.87345,-1.344967,-1.3465340000000001,0.213736,0.9746090000000001,0.066738,-0.296541,0.584201,-0.100425,0.191049,-0.321685,-0.21072
138,1.883375,-1.346833,-1.342479,0.21133200000000002,0.975025,0.068297,0.13919,0.17799500000000001,-0.127839,0.132388,-0.40279,-0.19859100000000002
139,1.86348,-1.35178,-1.367816,0.208027,0.9761120000000001,0.062686,0.46012600000000003,0.356966,-0.140782,0.18687,-0.395942,-0.16833800000000002
140,1.808034,-1.355861,-1.435858,0.20730700000000002,0.9769899999999999,0.050125,0.952997,0.6056229999999999,0.11871500000000001,0.192,-0.34721399999999997,-0.36807199999999995
141,1.682669,-1.3541860000000001,-1.569893,0.21357399999999999,0.976632,0.023993,1.737079,-0.009996,0.476426,0.099888,-0.323845,-0.68804
142,1.4612610000000001,-1.3400040000000002,-1.7811700000000001,0.22737600000000002,0.9734860000000001,-0.025006,2.651056,-1.209638,0.784518,0.080913,-0.20255,-0.571994
143,1.2306059999999999,-1.313589,-1.9874330000000002,0.2398,0.9671040000000001,-0.084878,2.695958,-1.506683,0.7040270000000001,-0.073098,-0.43969899999999995,-0.007956999999999999
144,1.0380969999999998,-1.273128,-2.159437,0.252651,0.956023,-0.14895,3.1658880000000003,-1.419697,0.9208430000000001,-0.213833,-0.32600300000000004,-0.18773499999999999
145,0.873135,-1.2219309999999999,-2.2919400000000003,0.26195999999999997,0.9397610000000001,-0.21960100000000002,3.2364290000000002,-2.198279,0.8261930000000001,-0.41102299999999997,-0.19803199999999999,0.329358
146,0.744526,-1.163593,-2.3931560000000003,0.268367,0.9182319999999999,-0.29125300000000004,3.4659519999999997,-1.204164,0.840409,-0.303615,-0.023762000000000002,0.292611
147,0.672701,-1.097186,-2.460266,0.284197,0.889927,-0.356736,3.3414589999999995,-0.32302,1.173832,-0.214281,0.535045,0.0
148,0.636188,-1.035046,-2.503445,0.303297,0.859886,-0.410617,2.955429,0.21184299999999998,0.952533,-0.288129,1.113732,0.055636
149,0.614143,-0.982503,-2.533923,0.319789,0.831889,-0.453535,2.363163,0.08114600000000001,0.8502870000000001,0.109135,0.591802,0.070784
150,0.602005,-0.941134,-2.548173,0.333475,0.808227,-0.48534799999999995,1.7356169999999997,0.041755,0.855568,-0.02511,0.265489,0.109082
151,0.603002,-0.9112549999999999,-2.554409,0.347503,0.790274,-0.504686,0.961201,0.488807,0.552621,-0.098678,0.493174,-0.184111
152,0.6313529999999999,-0.902566,-2.544236,0.365709,0.7849189999999999,-0.500157,-0.21628200000000003,1.245143,0.510312,-0.131044,0.310417,-0.23818499999999998
153,0.676823,-0.906752,-2.519924,0.386004,0.787506,-0.480451,-0.834353,1.316902,0.41723999999999994,-0.21698299999999998,-0.029876999999999997,-0.087573
154,0.728629,-0.920373,-2.487996,0.403186,0.7958270000000001,-0.451773,-1.316673,1.337488,0.21622399999999997,-0.21641799999999997,-0.372106,0.161948
155,0.782632,-0.942235,-2.451145,0.41461400000000004,0.808874,-0.416914,-1.688912,1.098027,-0.04992,-0.188814,-0.48581499999999994,0.141783
156,0.834601,-0.973065,-2.4080310000000003,0.41702700000000004,0.826614,-0.377884,-2.153141,0.702706,-0.420125,-0.127141,-0.710068,0.09843400000000001
157,0.891235,-1.018449,-2.356821,0.40812600000000004,0.851295,-0.32974000000000003,-2.74211,0.755311,-1.075922,-0.220779,-0.810066,0.137326
158,0.9612440000000001,-1.075974,-2.297571,0.389351,0.8800530000000001,-0.271866,-2.976578,1.037185,-1.56503,-0.225442,-0.772524,0.070236
159,1.044994,-1.139938,-2.2274220000000002,0.36123299999999997,0.908608,-0.209621,-3.055646,1.016977,-2.0366419999999996,-0.170498,-0.5139090000000001,-0.048054
160,1.143201,-1.20858,-2.1385490000000003,0.322442,0.9351139999999999,-0.14694100000000002,-3.099776,0.611477,-2.3579630000000003,0.013647999999999999,0.314139,-0.16867200000000002
161,1.257108,-1.271859,-2.021481,0.280131,0.95565,-0.090874,-2.732832,-0.134244,-2.136527,0.045034,0.521523,-0.295189
162,1.3605530000000001,-1.317851,-1.90262,0.24474200000000002,0.9681799999999999,-0.052226999999999996,-1.7099229999999999,-0.819688,-1.5740969999999999,-0.058524,0.649405,-0.660099
163,1.400777,-1.338817,-1.839303,0.226584,0.9732129999999999,-0.038899,-0.53562,-0.902041,-0.38113,0.320657,-0.224266,-0.22323099999999998
164,1.438225,-1.332755,-1.8116189999999999,0.233725,0.971802,-0.031168,-0.238578,1.7428150000000002,0.747734,0.586847,-0.373794,-0.003118
165,1.555267,-1.3077860000000001,-1.7736020000000001,0.25995300000000005,0.965612,-0.004037,-0.339727,4.845695,1.434191,0.5368149999999999,-0.361242,0.5697260000000001
166,1.691944,-1.294538,-1.696405,0.270753,0.962083,0.032963,-1.517073,1.232127,-0.16852999999999999,-1.421068,0.753112,-1.116581
167,1.698837,-1.3062040000000001,-1.63238,0.25937,0.965199,0.033393,-0.006336,-3.907346,-0.798734,-1.29149,0.547588,0.6811
168,1.621968,-1.322366,-1.664173,0.24555500000000002,0.9693,0.012576,0.261029,-1.177768,-0.583516,0.693593,1.298843,-0.498996
169,1.6537830000000002,-1.321288,-1.630698,0.24607199999999999,0.9690340000000001,0.020468,-0.362902,0.32663000000000003,0.165431,0.134742,1.086279,-0.600363
170,1.6262,-1.3171110000000001,-1.6635959999999999,0.250581,0.967994,0.013897,0.575367,0.270853,0.24683200000000002,0.367506,0.513329,-0.18073699999999998
171,1.597604,-1.315384,-1.6886970000000001,0.252548,0.9675590000000001,0.006772,0.050862,-0.5966600000000001,-0.002479,0.34526100000000004,0.280686,0.16833800000000002
172,1.614938,-1.317948,-1.6533330000000002,0.249914,0.9682040000000001,0.011039,-0.596256,-0.9822,-0.262879,0.28534899999999996,0.27879,0.140908
173,1.642168,-1.3262690000000001,-1.602602,0.241475,0.970252,0.017263999999999998,-0.5332319999999999,-1.003679,-0.540148,-0.08878,0.00921,0.179788
174,1.67314,-1.338546,-1.560571,0.22895700000000002,0.973151,0.023514,-0.440114,-0.144759,-0.697627,-0.369139,-0.071677,-0.064683
175,1.729888,-1.347952,-1.507426,0.21820599999999998,0.975273,0.035011,-0.562142,0.317794,-0.38181,-0.175787,-0.027336000000000003,-0.010978
176,1.7806990000000003,-1.3506690000000001,-1.4614530000000001,0.213554,0.9758700000000001,0.045495999999999995,-0.440989,0.38697800000000004,-0.20586500000000002,0.014809000000000001,-0.033746,-0.066843
177,1.832686,-1.3535270000000001,-1.42155,0.208207,0.97649,0.055809000000000004,-0.303532,0.768091,-0.26094,0.285385,-0.043414999999999995,-0.10215
178,1.853477,-1.358087,-1.416799,0.202722,0.977463,0.058882000000000004,0.215871,0.799026,-0.188986,0.344977,-0.17572000000000002,-0.080962
179,1.822028,-1.361482,-1.4650729999999998,0.201258,0.978174,0.051654,0.729699,0.7502979999999999,0.095608,0.254293,-0.275552,-0.47842700000000005
180,1.7174049999999998,-1.359425,-1.577502,0.207542,0.9777440000000001,0.030647000000000004,1.408618,-0.198545,0.492536,-0.008323,-0.344611,-0.5394359999999999
181,1.5184469999999999,-1.347444,-1.7600529999999999,0.22118800000000002,0.97516,-0.011590000000000001,2.2597650000000002,-1.396803,0.775618,0.046497000000000004,-0.565264,-0.21720100000000003
182,1.2516180000000001,-1.312514,-2.00612,0.242513,0.96683,-0.08014500000000001,3.948551,-1.229595,1.451634,0.087977,-0.419558,-0.661737
183,0.994168,-1.243881,-2.240472,0.26919499999999996,0.9470370000000001,-0.175073,4.4027769999999995,-2.1254020000000002,1.5681180000000001,-0.517425,-0.29751700000000003,0.206537
184,0.830825,-1.169553,-2.371292,0.28842399999999996,0.9205760000000001,-0.263341,4.115203,-1.5936860000000002,1.515221,-0.46979,-0.33003000000000005,0.277517
185,0.740926,-1.091318,-2.453226,0.311373,0.887236,-0.340377,3.826515,-0.335547,1.487023,-0.44020299999999996,-0.406599,0.475463
186,0.699176,-1.024551,-2.5004880000000003,0.334331,0.8544809999999999,-0.397596,2.974123,0.12548499999999999,1.218764,-0.309933,-0.47116499999999994,0.441938
187,0.67327,-0.9712149999999999,-2.536403,0.351864,0.825572,-0.441158,2.554239,0.262954,0.772343,-0.143795,-0.469584,0.063854
188,0.661254,-0.928221,-2.565602,0.368008,0.800555,-0.472948,1.921987,0.751239,0.690389,-0.262524,0.27177199999999996,-0.006331
189,0.6699930000000001,-0.9004459999999999,-2.57863,0.385789,0.783604,-0.48695900000000003,0.9849040000000001,0.983028,0.281895,0.067,1.036769,0.23576799999999998
190,0.672612,-0.89685,-2.5857810000000003,0.388817,0.781365,-0.48814799999999997,-0.104229,-0.085395,-0.117449,0.003151,0.39431,0.22569699999999998
191,0.680134,-0.90627,-2.57337,0.387831,0.787209,-0.479465,-1.07002,0.28685,0.070812,-0.065184,0.330406,-0.126278
192,0.723943,-0.936742,-2.534806,0.392381,0.805632,-0.44383599999999995,-2.320127,0.702789,-0.297375,0.23165700000000003,-0.006163,-0.342129
193,0.770682,-0.984943,-2.4868360000000003,0.38516999999999996,0.83324,-0.39667600000000003,-2.902128,0.11758800000000001,-0.7664350000000001,0.23804499999999998,-0.287174,-0.424994
194,0.831003,-1.041894,-2.418066,0.372689,0.863361,-0.34015700000000004,-3.537173,0.300896,-0.7689699999999999,0.060203,-0.502674,-0.221381
195,0.943034,-1.104595,-2.319387,0.363794,0.893282,-0.26400300000000004,-3.8935120000000003,1.8704880000000002,-1.102482,-0.15719,-0.774722,0.03538
196,1.0900299999999998,-1.1736209999999998,-2.212939,0.342961,0.922157,-0.178883,-3.478193,2.760745,-2.181763,-0.384725,-0.411034,0.168218
197,1.21938,-1.240029,-2.121066,0.304915,0.945793,-0.111792,-2.4228080000000003,1.5196399999999999,-2.282827,-0.325102,-0.24691,-0.051415999999999996
198,1.308625,-1.286,-2.031212,0.271354,0.9597190000000001,-0.07281699999999999,-1.795207,-0.465067,-1.471529,-0.10144700000000001,0.215833,-0.413206
199,1.392485,-1.311374,-1.9275959999999999,0.252446,0.9665379999999999,-0.045497,-1.52224,-0.779667,-0.558026,0.551875,0.288085,-0.403096
200,1.463881,-1.311744,-1.853938,0.25469400000000003,0.966633,-0.027335,-0.561897,0.7606689999999999,0.486088,0.686651,-0.012806,0.099402
201,1.561515,-1.294119,-1.7809709999999999,0.273142,0.961968,-0.002535,-1.3656709999999999,1.1662780000000001,0.98095,0.343283,0.26496,0.392413
202,1.6460540000000001,-1.2827110000000002,-1.682441,0.28330500000000003,0.9587899999999999,0.021361,-0.767844,-1.6928310000000002,0.174805,-0.730708,1.0802120000000002,-0.46501099999999995
203,1.590717,-1.278692,-1.7023599999999999,0.287904,0.9576399999999999,0.005736,0.233931,-0.948659,0.219304,0.191695,0.856844,0.191667
204,1.6100809999999999,-1.270649,-1.692707,0.295426,0.9552930000000001,0.011612,-0.008253,0.947541,0.692678,0.9947959999999999,0.9022049999999999,-0.43368500000000004
205,1.555508,-1.251534,-1.7579740000000001,0.313823,0.9494670000000001,-0.004797999999999999,1.259531,-0.18483,0.920902,0.122396,0.063152,0.088035
206,1.490535,-1.241719,-1.8027279999999999,0.322123,0.946341,-0.025910000000000002,0.383492,-1.706233,0.130521,-0.019785,0.5516300000000001,-0.16758699999999999
207,1.448394,-1.2505680000000001,-1.8009810000000002,0.312421,0.9491639999999999,-0.038432999999999995,-0.308679,-2.284093,-0.746311,-0.039807999999999996,0.615808,0.253445
208,1.441222,-1.272722,-1.7749720000000002,0.29120999999999997,0.9559040000000001,-0.037946,-0.613974,-1.089253,-1.180468,-0.159084,0.180449,0.116407
209,1.462391,-1.3003200000000001,-1.742409,0.265613,0.9636440000000001,-0.028907,-0.593249,-0.22994299999999998,-1.372636,-0.047916,0.076792,0.12725
210,1.485889,-1.323534,-1.7160060000000001,0.24386,0.9695860000000001,-0.020755000000000003,-0.382206,-0.195624,-0.814662,0.22719499999999998,-0.041547,0.061649
211,1.5010430000000001,-1.332243,-1.688936,0.235713,0.9716809999999999,-0.016468,-0.347148,-0.63045,-0.263728,0.183827,-0.045364999999999996,-0.23896399999999998
212,1.5007139999999999,-1.336493,-1.675617,0.23158600000000001,0.972676,-0.016257,-0.022143,-0.67225,-0.215471,0.20008599999999999,-0.070043,-0.24849899999999997
213,1.4771290000000001,-1.342035,-1.686909,0.225768,0.9739479999999999,-0.021209,0.139658,-0.6117100000000001,-0.310558,0.04622,-0.352732,-0.177506
214,1.442585,-1.34738,-1.7104169999999999,0.219734,0.975146,-0.028327999999999996,0.338099,-0.5688979999999999,-0.266498,-0.021293,-0.405704,-0.27161399999999997
215,1.368753,-1.348955,-1.771409,0.21554,0.9754940000000001,-0.044150999999999996,0.8739469999999999,-0.855709,-0.135269,-0.082117,-0.46014399999999994,-0.259865
216,1.2425629999999999,-1.3425850000000001,-1.8801889999999999,0.214148,0.974073,-0.07292799999999999,1.458313,-0.9777819999999999,0.04843,0.036127,-0.42664799999999997,-0.210732
217,1.09169,-1.3255940000000002,-2.015495,0.215412,0.970088,-0.111901,1.961956,-1.0377129999999999,0.213327,0.039807,-0.43375699999999995,-0.10572000000000001
218,0.948204,-1.2975709999999998,-2.140598,0.219202,0.9629059999999999,-0.15735,2.182037,-1.189713,0.47143199999999996,-0.198435,-0.466156,-0.275237
219,0.819868,-1.254394,-2.242983,0.227463,0.950361,-0.21229800000000001,2.7153490000000002,-1.757823,0.887151,-0.343277,-0.355833,0.045169
220,0.711336,-1.19648,-2.32062,0.2387,0.930758,-0.276962,3.16411,-1.6228690000000001,1.114439,-0.410286,-0.332522,0.289108
221,0.6316039999999999,-1.129602,-2.3801240000000004,0.252127,0.904243,-0.344636,3.414855,-1.0955540000000001,1.1625159999999999,-0.278769,-0.229911,0.296494
222,0.578982,-1.0634940000000002,-2.420111,0.265826,0.874058,-0.406639,3.0433060000000003,-0.536745,1.067338,-0.275729,-0.199101,0.19408399999999998
223,0.555801,-1.013568,-2.4435029999999998,0.279025,0.8487239999999999,-0.44923199999999996,2.0523290000000003,0.094519,0.706026,-0.267413,0.201218,0.047178
224,0.5598770000000001,-0.976247,-2.454869,0.297476,0.828401,-0.47461099999999995,1.694965,0.923055,0.811426,0.169489,1.082976,0.062151
225,0.5638850000000001,-0.9390709999999999,-2.46517,0.315625,0.80701,-0.499112,1.572802,0.19643,0.677976,0.332827,0.501263,0.104504
226,0.562966,-0.9181030000000001,-2.459701,0.324128,0.794451,-0.513601,0.301872,-0.294664,0.714593,-0.248917,0.468397,0.033361
227,0.586708,-0.9200280000000001,-2.432451,0.335382,0.795618,-0.504487,-1.0158399999999999,0.271823,0.585022,-0.382745,0.329519,-0.094238
228,0.627718,-0.9423819999999999,-2.392297,0.34525,0.8089609999999999,-0.475796,-1.883313,0.6298630000000001,0.245219,-0.18826700000000002,-0.08782999999999999,-0.09012200000000001
229,0.691918,-0.977512,-2.340973,0.356704,0.829109,-0.430508,-2.536874,1.39283,-0.044471,-0.027556999999999998,-0.47008500000000003,-0.042042
230,0.7801640000000001,-1.025574,-2.276904,0.364784,0.8550120000000001,-0.368623,-3.154689,1.8432669999999998,-0.5300630000000001,0.129616,-0.781053,0.019288
231,0.8788950000000001,-1.085712,-2.2049119999999998,0.35905,0.8846360000000001,-0.297487,-3.3820300000000003,1.719509,-1.350819,0.10113899999999999,-1.013496,-0.007673999999999999
232,0.9753139999999999,-1.15321,-2.129464,0.335746,0.91407,-0.227476,-3.282222,1.286797,-1.916793,-0.061012000000000004,-0.8679889999999999,-0.0394
233,1.0698530000000002,-1.223754,-2.048658,0.298321,0.940383,-0.163339,-3.011078,0.654805,-2.3467189999999998,-0.150052,-0.262282,-0.18112799999999998
234,1.143991,-1.284818,-1.960509,0.256782,0.9593860000000001,-0.116774,-2.217833,-1.3632309999999999,-1.868575,0.039330000000000004,0.46576899999999993,-0.44430699999999995
235,1.155419,-1.321041,-1.902491,0.22614099999999998,0.968973,-0.099737,-0.9967600000000001,-2.3104,-1.028823,0.167963,0.266257,-0.363886
236,1.172542,-1.333972,-1.86028,0.21624699999999997,0.972088,-0.09098300000000001,-0.7007369999999999,-0.262625,-0.033797,0.293549,-0.079449,-0.018178
237,1.241232,-1.335752,-1.802301,0.220344,0.972504,-0.075366,-0.741161,0.68477,0.176215,0.063362,-0.541107,0.141925
238,1.36022,-1.347591,-1.676582,0.21645599999999998,0.975193,-0.046266,-1.90557,-0.9589840000000001,-0.669435,-0.801722,0.860592,-0.326994
239,1.392951,-1.3773549999999999,-1.5981290000000001,0.189191,0.981349,-0.034006,-0.49003800000000003,-1.85736,-1.275828,-1.003858,1.281194,0.611216
240,1.4453200000000002,-1.3944,-1.553549,0.17408900000000002,0.984482,-0.021959,-0.791552,1.260305,-0.38355500000000003,1.558607,1.088699,-0.623167
241,1.525087,-1.390319,-1.489658,0.179297,0.983758,-0.008201,0.222539,0.753948,0.42213900000000004,0.906107,0.083625,0.10596400000000002
242,1.435994,-1.372801,-1.5785559999999998,0.194906,0.980463,-0.026434,0.851074,-0.92776,0.8517,0.407343,0.028616000000000003,0.035238
243,1.358623,-1.3620700000000001,-1.6109209999999998,0.20255499999999999,0.9782959999999999,-0.043633,0.185773,-2.747319,0.11444800000000001,-0.07551000000000001,0.4681,0.173974
244,1.318935,-1.375377,-1.604027,0.188038,0.980966,-0.048387,-0.510837,-1.9478360000000001,-1.00987,-0.411,0.37572300000000003,0.41316400000000003
245,1.3397649999999999,-1.4121540000000001,-1.56029,0.153764,0.9874430000000001,-0.03617,-0.9253370000000001,-0.594242,-2.154293,-0.740693,-0.059342,0.160773
246,1.4418309999999999,-1.463845,-1.459543,0.10583499999999998,0.994286,-0.013725,-1.265574,0.46006,-2.311845,-0.199005,-0.139245,0.020638
247,1.797868,-1.501036,-1.118354,0.067876,0.997568,0.015683000000000002,-1.4569299999999998,0.934651,-1.749768,0.481929,-0.194955,0.14488499999999999
248,2.461344,-1.511378,-0.471788,0.037321,0.998235,0.046129,-1.463594,0.802032,-1.346925,0.476472,-0.425634,0.055281
249,2.962236,-1.497494,0.023309,0.013058000000000002,0.997315,0.072022,-1.1586379999999998,0.020355,-1.137627,0.30206700000000003,-0.439118,-0.088898
250,-3.057915,-1.480683,0.296148,-0.007518,0.995942,0.08964,-0.7004020000000001,-0.708166,-1.034148,0.28431300000000004,-0.44645799999999997,-0.297587
251,-2.885852,-1.47041,0.487133,-0.025343,0.994965,0.096928,-0.137518,-0.949124,-0.93804,0.296782,-0.44560299999999997,-0.35593
252,-2.733013,-1.470204,0.656724,-0.039886000000000005,0.9949450000000001,0.092126,0.5168659999999999,-0.646548,-0.715939,0.236083,-0.326396,-0.30745900000000004
253,-2.535135,-1.479892,0.8618239999999999,-0.051721,0.995871,0.074562,1.101161,-0.12392,-0.584341,-0.05773,-0.030875,-0.338204
254,-2.217458,-1.491823,1.180145,-0.062933,0.996883,0.047511000000000005,1.478531,0.055817,-0.571253,-0.053522,0.023655000000000002,-0.26974000000000004
255,-1.7623369999999998,-1.494038,1.638889,-0.07524199999999999,0.9970559999999999,0.014591,1.827134,-0.29247399999999996,-0.620715,0.277009,-0.228242,-0.12067
256,-1.244129,-1.481638,2.178475,-0.084299,0.996028,-0.028561000000000003,2.508832,-1.4252559999999999,-0.31433099999999997,0.734125,-0.40862600000000004,-0.017490000000000002
257,-0.793589,-1.448979,2.667814,-0.086609,0.9925889999999999,-0.085202,3.2311970000000003,-1.988418,0.298186,0.690613,-0.14919000000000002,0.124173
258,-0.448129,-1.410736,3.065038,-0.069048,0.987218,-0.143626,3.054932,-2.5813,1.661834,-0.128538,1.3710129999999998,0.24656199999999998
259,-0.155755,-1.366952,-2.879084,-0.031401,0.9792959999999999,-0.199973,2.897348,-1.5799450000000002,2.5973490000000004,-0.375627,1.4098190000000002,0.282721
260,0.09872,-1.315137,-2.60392,0.024923,0.9674969999999999,-0.251643,2.522866,-0.267574,3.199802,-0.45023100000000005,1.198122,0.172298
261,0.290391,-1.258947,-2.406063,0.087849,0.9517680000000001,-0.29396700000000003,2.00025,0.143821,3.3366290000000003,-0.32321500000000003,1.285842,-0.237161
262,0.43126800000000004,-1.206676,-2.252968,0.148867,0.9344370000000001,-0.32351399999999997,1.281353,-0.45913000000000004,3.162532,-0.11351300000000002,1.463649,-0.195956
263,0.5096890000000001,-1.160911,-2.1481689999999998,0.19443,0.917167,-0.347848,1.1355549999999999,-1.1393520000000001,2.6346830000000003,0.445982,0.796838,0.047479
264,0.565809,-1.112355,-2.0571040000000003,0.237249,0.8967430000000001,-0.373578,0.9931719999999999,-1.458328,3.138299,0.283457,0.419892,0.294476
265,0.6270479999999999,-1.063976,-1.949831,0.28480900000000003,0.874292,-0.39305500000000004,0.326395,-1.800485,3.500479,0.023922,0.49526000000000003,0.299107
266,0.6839310000000001,-1.025644,-1.8389659999999999,0.327639,0.855049,-0.40192100000000003,-0.463236,-2.068418,3.257094,-0.31764499999999996,0.32703499999999996,0.299229
267,0.7331270000000001,-0.9978049999999999,-1.7331310000000002,0.36280100000000004,0.840283,-0.40286,-0.967361,-1.9835599999999998,2.9864080000000004,-0.49598000000000003,0.06286900000000001,0.257321
268,0.790868,-0.9765879999999999,-1.6178700000000001,0.39803299999999997,0.828592,-0.393702,-1.7121439999999999,-1.7965529999999998,2.953192,-0.568016,-0.027460000000000002,0.2512
269,0.851684,-0.968033,-1.502275,0.426544,0.823772,-0.37343899999999997,-2.2204770000000003,-1.8995330000000001,2.241543,-0.47666899999999995,-0.5176649999999999,0.32821100000000003
270,0.88739,-0.971666,-1.407063,0.437279,0.8258260000000001,-0.356081,-2.195655,-2.1649439999999998,1.195199,-0.46447,-0.8247129999999999,0.257845
271,0.91181,-0.9925280000000001,-1.3283049999999998,0.43212700000000004,0.83741,-0.334675,-2.467613,-2.010611,0.133425,-0.43107399999999996,-0.915032,0.21995900000000002
272,0.9260459999999999,-1.031412,-1.262129,0.410498,0.858025,-0.308675,-2.631817,-2.1959560000000002,-0.791496,-0.49930399999999997,-0.9590690000000001,0.101339
273,0.925733,-1.0838780000000001,-1.207018,0.373881,0.8837790000000001,-0.281325,-2.642491,-2.498528,-1.5720530000000001,-0.39207,-0.7119949999999999,0.097624
274,0.8997870000000001,-1.1434739999999999,-1.178664,0.32458000000000004,0.9100790000000001,-0.257683,-2.0056700000000003,-2.658086,-2.181628,-0.1486,-0.270812,-0.093574
275,0.8118449999999999,-1.189822,-1.208713,0.269777,0.9283030000000001,-0.255872,-0.39526100000000003,-3.2983599999999997,-1.968733,0.23678400000000002,0.46569499999999997,-0.474688
276,0.672128,-1.198025,-1.283008,0.22676500000000002,0.931322,-0.28498,1.047572,-3.293982,-0.853051,0.418224,1.214964,-0.27170700000000003
277,0.596453,-1.176203,-1.328185,0.215937,0.9231530000000001,-0.31805,1.6354739999999999,-0.5422710000000001,0.474261,0.131276,0.24232800000000002,-0.222768
278,0.598201,-1.139551,-1.338973,0.235398,0.9084459999999999,-0.345412,1.380416,0.920178,1.004716,-0.515687,0.091661,0.283523
279,0.653011,-1.125574,-1.2996370000000002,0.26165700000000003,0.902515,-0.34205100000000005,-1.023256,1.068494,0.8969370000000001,-0.642654,0.022198,0.503855
280,0.7227100000000001,-1.159507,-1.244546,0.264427,0.9166059999999999,-0.299847,-1.991989,1.061439,-1.025142,-0.356682,1.138768,0.9252889999999999
281,0.69004,-1.194402,-1.274364,0.23398000000000002,0.9299959999999999,-0.283473,-0.17036300000000001,-1.601212,-1.406384,-0.09994700000000001,0.79118,0.310329
282,0.637158,-1.2001959999999998,-1.298282,0.215459,0.93211,-0.291108,-0.295547,-1.153026,-0.16015,0.9358770000000001,0.142597,0.381349
283,0.632264,-1.214698,-1.264773,0.206021,0.937264,-0.281224,-1.058398,-2.09627,0.086762,0.114917,-0.190133,0.6440020000000001
284,0.620877,-1.236129,-1.2236989999999999,0.191075,0.944519,-0.26715,-1.461182,-2.7446029999999997,-0.201504,-0.14397100000000002,0.061248000000000004,0.539687
285,0.604222,-1.272464,-1.1807450000000002,0.166982,0.955828,-0.24187899999999998,-2.114481,-2.824573,-0.6813229999999999,-0.253347,0.336393,0.530712
286,0.604445,-1.318451,-1.13384,0.14188699999999999,0.9683290000000001,-0.20543000000000003,-2.235635,-1.8533490000000001,-0.765667,-0.111125,0.196328,0.366105
287,0.632976,-1.356299,-1.079749,0.125907,0.9770840000000001,-0.17160999999999998,-1.748729,-0.956227,-0.429062,-0.027519,0.163435,0.310938
288,0.707904,-1.386495,-0.9909209999999999,0.119155,0.9830639999999999,-0.139217,-1.7032720000000001,-0.343717,-0.196657,-0.19354100000000002,0.064574,0.253872
289,0.8046439999999999,-1.41305,-0.8923709999999999,0.113187,0.987584,-0.108912,-1.411142,0.110997,-0.409912,-0.17384000000000002,0.003307,0.063318
290,0.877033,-1.43682,-0.823517,0.102683,0.9910389999999999,-0.0854,-1.0074530000000002,0.235046,-0.61235,-0.076102,-0.056010000000000004,0.021800999999999997
291,0.901802,-1.4560030000000002,-0.801563,0.08983200000000001,0.993418,-0.071023,-0.537307,0.093046,-0.674046,0.086423,-0.212779,0.052376
292,0.8840129999999999,-1.471326,-0.8206459999999999,0.076769,0.995057,-0.062946,-0.365667,0.089152,-0.6482720000000001,0.169401,-0.369874,-0.032345
293,0.871359,-1.486067,-0.836573,0.064731,0.9964129999999999,-0.05446,-0.46579899999999996,0.180885,-0.5914050000000001,0.21210900000000002,-0.367018,-0.127806
294,0.8700950000000001,-1.50106,-0.8410280000000001,0.053228,0.997569,-0.044897,-0.403117,0.132686,-0.580224,0.17241900000000002,-0.23723899999999998,0.00527
295,0.7735,-1.511567,-0.9362520000000001,0.041318,0.998246,-0.042312999999999996,0.011334,-0.26808899999999997,-0.615271,0.11391,-0.025865,-0.015319
296,0.566704,-1.520442,-1.1299059999999999,0.026989,0.998733,-0.042414,-0.116847,-0.900983,-0.740337,0.143513,-0.005065,0.11121500000000001
297,0.240536,-1.534451,-1.435293,0.008636,0.99934,-0.035207,-0.543501,-1.085086,-0.950317,0.170396,-0.152599,0.239186
298,-0.518822,-1.547364,-2.176185,-0.011548000000000001,0.999725,-0.020225,-0.8473149999999999,-0.825033,-0.984819,0.296415,-0.168518,0.11760699999999999
299,-1.5406870000000001,-1.540332,3.0973900000000003,-0.030335,0.9995360000000001,-0.0009140000000000001,-0.997985,-0.543665,-0.8879549999999999,0.319504,-0.099069,0.001341
300,-1.9762419999999998,-1.521012,2.6729529999999997,-0.045666000000000005,0.998761,0.019601,-0.977841,-0.625437,-0.702908,0.29282800000000003,0.046054000000000005,-0.22298600000000002
301,-2.12748,-1.503439,2.536504,-0.057098,0.997732,0.035533999999999996,-0.565562,-0.829953,-0.5320550000000001,0.19300799999999999,0.278238,-0.202282
302,-2.113413,-1.494681,2.568775,-0.06508,0.9971049999999999,0.039243,0.132183,-0.915026,-0.375384,0.16206500000000001,0.196468,-0.12026700000000001
303,-1.981859,-1.495835,2.717869,-0.068611,0.997192,0.029907,0.75543,-0.832037,-0.091263,0.186027,0.285477,0.003098
304,-1.691318,-1.504174,3.026966,-0.066038,0.997782,0.007998,1.435434,-0.8985479999999999,0.23403800000000002,0.33665300000000004,0.472052,0.210142
305,-1.0617809999999999,-1.504976,-2.6092419999999996,-0.057391,0.997835,-0.032027999999999994,2.4609349999999997,-0.732042,0.595638,0.350024,0.336638,0.374908
306,-0.392415,-1.473364,-1.925211,-0.03719,0.995257,-0.08985599999999999,3.107023,-0.555157,1.3540889999999999,0.040287,0.005155,0.138531
307,-0.00785,-1.421756,-1.530443,-0.001166,0.988914,-0.14846800000000002,2.757997,-0.279064,2.141781,-0.090509,0.0009689999999999999,-0.031037000000000002
308,0.21942199999999998,-1.367086,-1.291951,0.044032,0.9793229999999999,-0.197441,2.375137,-0.43653000000000003,2.4245240000000003,-0.08108,0.303774,0.13001300000000002
309,0.356184,-1.308315,-1.143893,0.090477,0.965749,-0.243182,2.255831,-0.356375,2.4631119999999997,0.021752,0.799723,0.186633
310,0.43731800000000004,-1.25405,-1.049597,0.131911,0.950254,-0.282157,1.80942,-0.526159,2.152564,0.065752,0.68262,0.193549
311,0.484371,-1.208702,-0.986658,0.164946,0.935157,-0.313479,1.415031,-0.708022,1.887259,0.203294,0.14113699999999998,0.2018
312,0.51949,-1.169969,-0.9267620000000001,0.193697,0.920738,-0.3387,1.019674,-1.228987,1.974896,0.139448,-0.032585,0.217194
313,0.555021,-1.130965,-0.8552649999999999,0.22437100000000001,0.9048229999999999,-0.361867,0.909267,-1.6043290000000001,2.428598,0.015208000000000001,0.026237,0.23952199999999998
314,0.590428,-1.08849,-0.776537,0.258216,0.885928,-0.385295,0.742101,-1.772992,2.660519,-0.038870999999999996,0.083387,0.296993
315,0.6272310000000001,-1.050317,-0.696577,0.291863,0.8675809999999999,-0.40263499999999997,0.299852,-1.6893040000000001,2.6284799999999997,-0.11068,-0.0055969999999999995,0.361406
316,0.652452,-1.019045,-0.623409,0.31824600000000003,0.851608,-0.416508,0.075681,-2.04195,2.30049,-0.274453,-0.039184,0.382237
317,0.653265,-0.993266,-0.566474,0.331821,0.837814,-0.433543,0.13011,-2.539734,1.796239,-0.381305,-0.11863599999999999,0.368129
318,0.6330359999999999,-0.971641,-0.527297,0.333625,0.8258120000000001,-0.45466999999999996,0.22128499999999998,-2.615054,1.372889,-0.372367,-0.12226,0.3046
319,0.6113390000000001,-0.955793,-0.49532200000000004,0.331154,0.816771,-0.47246000000000005,0.025571,-2.260749,1.117899,-0.31000500000000003,-0.07650599999999999,0.33684000000000003
320,0.59632,-0.946873,-0.46472299999999994,0.328099,0.811593,-0.483389,-0.233958,-1.8190419999999998,0.906149,-0.28633600000000003,-0.09084400000000001,0.349234
321,0.5905560000000001,-0.9444889999999999,-0.435841,0.326384,0.810198,-0.486878,-0.44374399999999997,-1.229435,0.6945560000000001,-0.262816,-0.176653,0.362473
322,0.594378,-0.9476889999999999,-0.410426,0.326789,0.8120689999999999,-0.483476,-0.623232,-0.609846,0.417975,-0.240394,-0.212338,0.395814
323,0.609456,-0.9584,-0.385718,0.329044,0.8182729999999999,-0.47133500000000006,-1.0081,-0.044133,0.20625900000000003,-0.26614699999999997,-0.199574,0.34178800000000004
324,0.635219,-0.979823,-0.359356,0.330597,0.830399,-0.44848599999999994,-1.4720389999999999,0.319094,-0.182007,-0.296554,-0.27516199999999996,0.278946
325,0.660347,-1.012958,-0.33884200000000003,0.324698,0.8484010000000001,-0.41807,-1.749465,0.40988500000000005,-0.800425,-0.253257,-0.31843299999999997,0.151498
326,0.673992,-1.0570979999999999,-0.329029,0.306686,0.870933,-0.383947,-1.963964,0.10172,-1.337776,0.048431999999999996,-0.254402,-0.06663
327,0.6694479999999999,-1.105306,-0.322381,0.278539,0.893602,-0.351977,-1.93582,-1.005159,-1.347912,0.471004,0.16392400000000001,-0.421385
328,0.63131,-1.140626,-0.324403,0.246126,0.9088950000000001,-0.33664099999999997,-0.8069069999999999,-2.186962,-0.8919950000000001,0.9629040000000001,0.8267770000000001,-0.529539
329,0.6036560000000001,-1.136773,-0.324115,0.23870999999999998,0.907281,-0.346199,0.440188,-0.548948,0.78318,0.8753040000000001,0.864081,-0.21747600000000003
330,0.631554,-1.114231,-0.287878,0.260285,0.8975719999999999,-0.355825,0.395257,-0.09362000000000001,1.506537,0.298141,0.087413,-0.41677299999999995
331,0.6889350000000001,-1.094892,-0.231686,0.291245,0.8888790000000001,-0.353647,-0.181875,0.585026,1.4578389999999999,0.21023499999999998,-0.2053,0.134302
332,0.722374,-1.082131,-0.20570300000000002,0.310381,0.8829600000000001,-0.352194,0.294515,0.26110700000000003,0.532229,-0.031052999999999997,-0.020396,0.362296
333,0.7244430000000001,-1.080951,-0.19661099999999998,0.311799,0.8824049999999999,-0.352331,-0.5752619999999999,-0.494616,0.06565,-0.192674,0.537043,0.746329
334,0.7481720000000001,-1.098482,-0.15229,0.309498,0.890518,-0.333443,-1.581679,-1.017357,0.327413,0.290722,0.14915499999999998,0.175927
335,0.7698649999999999,-1.1044969999999998,-0.099522,0.312924,0.8932379999999999,-0.3228,-0.701345,-0.994597,0.7982100000000001,0.039645,-0.260471,0.6367649999999999
336,0.800658,-1.113145,-0.043308,0.317157,0.897093,-0.307622,-1.35572,-1.148842,0.24583899999999997,-0.754077,0.14168,0.10465
337,0.782279,-1.1416620000000002,-0.030868,0.29329299999999997,0.909326,-0.295128,-1.2509219999999999,-1.65245,-1.5078719999999999,-0.550556,-0.112497,0.693398
338,0.729175,-1.196627,-0.063311,0.243511,0.9308120000000001,-0.272556,-1.701613,-0.790744,-2.688237,-0.312893,-0.056376,0.721546
339,0.6583899999999999,-1.254166,-0.121058,0.190503,0.95029,-0.246277,-1.4207040000000002,-1.124264,-2.3771310000000003,-0.115155,0.28129299999999996,0.5858770000000001
340,0.578248,-1.293413,-0.166331,0.14966400000000002,0.961775,-0.229312,-1.176272,-2.092727,-1.226913,-0.037558,-0.075087,0.33873200000000003
341,0.539559,-1.3256139999999998,-0.17014300000000002,0.1247,0.970093,-0.20824,-1.456874,-1.423439,-0.791759,-0.073629,-0.153595,0.29838899999999996
342,0.5394680000000001,-1.3586049999999998,-0.152521,0.108176,0.9775719999999999,-0.18068199999999998,-1.50416,-0.59208,-0.595534,-0.250021,-0.15373399999999998,0.223834
343,0.5604180000000001,-1.3875680000000001,-0.123975,0.096841,0.983261,-0.15432,-1.280992,-0.212957,-0.49404799999999993,-0.025704,0.033143,0.25046599999999997
344,0.588216,-1.409237,-0.095726,0.089246,0.986978,-0.13380699999999998,-0.880295,0.109805,-0.304724,0.164889,0.007102,0.244983
345,0.6206229999999999,-1.422466,-0.068359,0.08593300000000001,0.9890190000000001,-0.12021099999999998,-0.575995,0.314794,-0.150105,0.322087,-0.106573,0.13051
346,0.6516069999999999,-1.431935,-0.040915,0.083932,0.990374,-0.11003900000000001,-0.46291899999999997,0.08956499999999999,-0.134072,0.27793,-0.11275,-0.042381
347,0.664096,-1.441448,-0.026006,0.079487,0.9916459999999999,-0.10155700000000001,-0.428633,-0.245592,-0.26479400000000003,0.238002,-0.099099,-0.056204
348,0.650257,-1.452304,-0.030826,0.071551,0.9929879999999999,-0.094071,-0.40267600000000003,-0.5540109999999999,-0.414837,0.132154,-0.025688,0.030914999999999998
349,0.611445,-1.464499,-0.057108000000000006,0.06089,0.9943559999999999,-0.086853,-0.41988500000000006,-0.661237,-0.49173199999999995,0.061591999999999994,-0.015489,0.23216199999999998
350,0.573238,-1.479012,-0.082137,0.049694,0.995791,-0.07697899999999999,-0.632152,-0.6784979999999999,-0.519898,0.001927,-0.028551,0.22495900000000002
351,0.548814,-1.498908,-0.091395,0.03745,0.997417,-0.06124500000000001,-0.9183969999999999,-0.818902,-0.591152,-0.004994,-0.018215000000000002,0.179303
352,0.513979,-1.522068,-0.108831,0.02392,0.998813,-0.042367,-0.979174,-0.8653430000000001,-0.645996,0.054068,-0.006091,0.16236199999999998
353,0.39069,-1.544363,-0.218644,0.010025,0.9996510000000001,-0.024342,-0.8568209999999999,-0.51828,-0.697929,0.10871800000000001,-0.011369,0.133961
354,-3.047413,-1.5644930000000001,2.629882,-0.000551,0.99998,0.00583,-0.6675409999999999,-0.016907,-0.76882,0.12695399999999998,-0.014919,-0.016908000000000003
355,-2.61652,-1.538826,3.056963,-0.015977,0.999489,0.027579000000000003,-0.487544,0.308765,-0.849165,0.158082,-0.061012000000000004,-0.099494
356,-2.378427,-1.5223799999999998,-2.991366,-0.033411,0.998828,0.034931,-0.29465,0.006689,-0.86559,0.240504,-0.089633,-0.082477
357,-2.234184,-1.508546,-2.8401240000000003,-0.048983,0.9980629999999999,0.038282,-0.07884400000000001,-0.499569,-0.7234970000000001,0.46495200000000003,-0.042893,0.124026
358,-2.159431,-1.498916,-2.755409,-0.059702,0.997418,0.039856,-0.063929,-0.44542,-0.425428,0.293055,-0.08041,0.133103
359,-2.1515299999999997,-1.495059,-2.740405,-0.06323200000000001,0.997133,0.041494,-0.023132,-0.278647,-0.076049,0.193572,-0.025637,0.114375
360,-2.1185259999999997,-1.495947,-2.705172,-0.063812,0.9972,0.038925,0.25116900000000003,0.008983,-0.048864,0.11538699999999999,0.170509,-0.058852999999999996
361,-1.97633,-1.498613,-2.5656209999999997,-0.06624,0.997396,0.028439,0.680299,0.202823,-0.14439100000000002,0.285661,0.204875,-0.109707
362,-1.698594,-1.501328,-2.29113,-0.068813,0.9975879999999999,0.008842000000000001,1.187637,0.14438099999999998,-0.08843,0.352733,0.242265,-0.028526
363,-1.19579,-1.498756,-1.7857049999999999,-0.066947,0.9974059999999999,-0.026352999999999998,2.150055,-0.22460500000000003,0.24243699999999999,0.44229799999999997,0.24043299999999998,0.328843
364,-0.600005,-1.477842,-1.177453,-0.052397000000000006,0.995683,-0.076588,2.64446,-0.6464979999999999,1.1554879999999998,0.043044,-0.107484,-0.039333
365,-0.12276500000000001,-1.447223,-0.68061,-0.015092,0.992375,-0.122314,2.138776,-1.013189,2.4503150000000002,-0.220214,-0.084858,-0.218827
366,0.215827,-1.396938,-0.318485,0.037043,0.984925,-0.168958,2.571724,-0.8916940000000001,2.860176,-0.351511,0.48927299999999996,0.23698200000000003
367,0.371396,-1.3254190000000001,-0.148806,0.088158,0.970046,-0.22635300000000003,3.013977,-0.323297,2.592277,-0.337944,0.8838969999999999,0.208378
368,0.4336,-1.2564819999999999,-0.083064,0.12989,0.951009,-0.280549,2.577454,0.12526900000000002,1.884695,0.011025,0.490382,0.12350599999999999
369,0.465617,-1.207327,-0.054759,0.159617,0.9346690000000001,-0.317668,1.699409,0.27229200000000003,1.3111469999999998,0.12115999999999999,0.19825,0.133632
370,0.48963199999999996,-1.170939,-0.031147,0.18308,0.921117,-0.343544,1.313332,0.004369,1.2479049999999998,0.192607,-0.080098,0.14388299999999998
371,0.5164529999999999,-1.1343450000000002,0.0018170000000000003,0.20874,0.906258,-0.367589,1.266518,-0.29423,1.634657,0.07144199999999999,-0.079185,0.136983
372,0.5468890000000001,-1.094784,0.047961000000000004,0.23829699999999998,0.8888290000000001,-0.3914,1.136028,-0.711779,2.003886,-0.029358,-0.022786,0.160443
373,0.574393,-1.054314,0.09979500000000001,0.268306,0.8695620000000001,-0.414574,0.993059,-1.009211,2.182729,-0.112544,-0.027719,0.188408
374,0.600671,-1.016864,0.156092,0.29731199999999997,0.850462,-0.43395500000000004,0.592042,-1.177352,2.220736,-0.24173899999999998,-0.009459,0.280771
375,0.624406,-0.9884959999999999,0.211615,0.321506,0.8352,-0.446175,0.124482,-1.07008,1.907548,-0.293063,-0.030131,0.335427
376,0.647459,-0.9717889999999999,0.265638,0.340075,0.825896,-0.44971300000000003,-0.40821999999999997,-1.229901,1.578224,-0.408465,-0.19917200000000002,0.377219
377,0.652624,-0.96331,0.31145700000000004,0.34663299999999997,0.8210860000000001,-0.453499,-0.41820100000000004,-1.770255,1.119512,-0.409667,-0.22495500000000002,0.346779
378,0.644999,-0.9601219999999999,0.34357600000000005,0.344737,0.819262,-0.458218,-0.47606400000000004,-1.576441,0.654183,-0.304683,-0.282183,0.21333000000000002
379,0.642275,-0.9655309999999999,0.369077,0.340828,0.822351,-0.45560100000000003,-0.770083,-0.8900530000000001,0.289122,-0.205986,-0.323587,0.211353
380,0.652443,-0.980115,0.390944,0.338125,0.8305610000000001,-0.44253400000000004,-1.052083,-0.12494000000000001,-0.059932000000000006,-0.18848199999999998,-0.324839,0.275145
381,0.675805,-1.0006629999999999,0.412224,0.337622,0.841829,-0.421108,-1.2372940000000001,0.504933,-0.239358,-0.184363,-0.407854,0.23546999999999998
382,0.707329,-1.025392,0.432482,0.337094,0.8549180000000001,-0.39431,-1.295876,0.780866,-0.461242,-0.11668099999999999,-0.432234,0.154823
383,0.7330300000000001,-1.051388,0.446405,0.332129,0.8681129999999999,-0.368872,-1.142277,0.576591,-0.658597,-0.044943000000000004,-0.37146999999999997,0.102546
384,0.7439560000000001,-1.075983,0.452578,0.32158000000000003,0.880057,-0.349402,-0.9350360000000001,0.08507999999999999,-0.733432,0.022064,-0.290076,0.133353
385,0.741783,-1.0987770000000001,0.455247,0.307184,0.890652,-0.335221,-0.876531,-0.407366,-0.712096,0.025656,-0.190716,0.125565
386,0.735113,-1.122064,0.46206899999999995,0.29095,0.900998,-0.321787,-1.040482,-0.739422,-0.647654,0.032536,-0.138653,0.10752300000000001
387,0.735797,-1.148139,0.478491,0.275304,0.9120020000000001,-0.30406500000000003,-1.294155,-0.632221,-0.596152,0.053140999999999994,-0.11116,0.121753
388,0.754063,-1.175786,0.505692,0.263445,0.922992,-0.280495,-1.389394,-0.128386,-0.503459,0.14393399999999998,-0.255222,0.168801
389,0.7849649999999999,-1.199147,0.536419,0.25667199999999996,0.93173,-0.256895,-1.114458,0.21615,-0.322519,0.165615,-0.307981,0.086134
390,0.8202780000000001,-1.214202,0.569,0.255293,0.937091,-0.238078,-0.8755120000000001,0.24510500000000002,-0.045286,0.05313300000000001,-0.274219,-0.054235000000000005
391,0.857718,-1.227359,0.6054069999999999,0.254678,0.9416030000000001,-0.22027,-0.928177,0.070938,-0.13409300000000002,-0.119256,-0.139311,-0.095587
392,0.8809889999999999,-1.243195,0.633224,0.2482,0.946817,-0.204768,-0.810191,-0.299093,-0.407328,-0.127686,-0.173868,-0.040197000000000004
393,0.891517,-1.2600799999999999,0.654154,0.237867,0.9521149999999999,-0.192071,-0.791764,-0.505685,-0.441117,-0.15243299999999999,-0.19425699999999999,0.143441
394,0.9147040000000001,-1.276625,0.687868,0.229742,0.957043,-0.17687,-1.004391,-0.42246999999999996,-0.287817,-0.010458,-0.15833699999999998,0.132482
395,0.951305,-1.292351,0.737433,0.223777,0.961484,-0.159585,-0.994419,-0.6702319999999999,-0.142152,0.21375300000000003,-0.033826,0.201516
396,0.999099,-1.304458,0.8032100000000001,0.22133899999999998,0.964741,-0.142402,-1.202987,-0.812041,0.070217,0.16003900000000001,0.338481,0.44452600000000003
397,1.0611,-1.320067,0.8968719999999999,0.21656399999999998,0.9687319999999999,-0.121051,-1.123753,-2.183395,-0.178504,-0.03767,0.9439420000000001,-0.160718
398,1.023854,-1.327477,0.90438,0.20576799999999998,0.9705440000000001,-0.12529400000000002,-0.331802,-1.304602,-0.31724,0.37521,1.08979,-0.30827
399,1.0544129999999998,-1.342737,0.9379190000000001,0.196597,0.974107,-0.111622,-0.386491,-0.128661,-0.504999,0.41161800000000004,1.616027,0.154774
400,0.9897799999999999,-1.334101,0.8720620000000001,0.196003,0.972118,-0.1287,1.373207,-0.076687,0.42162299999999997,0.331463,-0.113857,0.185691
401,0.9026780000000001,-1.304025,0.8028850000000001,0.206929,0.964627,-0.16330799999999998,1.6629180000000001,-1.539423,0.731033,-0.015233000000000002,-0.299435,0.12700699999999998
402,0.796337,-1.275576,0.736278,0.207965,0.9567379999999999,-0.203464,1.524716,-2.356319,0.276052,-0.10158099999999999,-0.0016600000000000002,0.06763
403,0.704082,-1.258743,0.679635,0.198735,0.9517049999999999,-0.234002,1.011371,-1.460917,-0.220063,0.027857999999999997,0.25198400000000004,-0.003669
404,0.6495449999999999,-1.250704,0.6312979999999999,0.190306,0.949206,-0.25057199999999996,0.644429,0.103574,-0.334658,0.12268299999999999,0.191708,0.403587
405,0.6228739999999999,-1.241905,0.5938760000000001,0.188421,0.946401,-0.262332,0.827624,0.467538,-0.137292,0.057642,-0.416646,-0.048124
406,0.589138,-1.22177,0.554758,0.19001700000000002,0.9397059999999999,-0.284326,1.4527370000000002,0.016814,0.147526,0.09211799999999999,-0.447183,0.094552
407,0.555868,-1.18384,0.518829,0.199128,0.926062,-0.32055,2.3025759999999997,0.025332,0.74311,0.218108,-0.6030949999999999,-0.078864
408,0.533431,-1.1192,0.497579,0.221904,0.899752,-0.375768,3.2676060000000002,-0.38535,1.6412740000000001,0.001454,-0.178926,0.126851
409,0.514257,-1.048629,0.48990100000000003,0.24533200000000002,0.86674,-0.434245,3.054358,-0.5436439999999999,1.4519799999999998,-0.526673,-0.32564899999999997,0.324718
410,0.492341,-0.9873719999999999,0.47881899999999994,0.260396,0.8345809999999999,-0.48545200000000005,2.6496459999999997,-0.709248,1.125694,-0.42442799999999997,-0.673082,0.623636
411,0.47046800000000005,-0.9376180000000001,0.471025,0.268223,0.8061510000000001,-0.5274220000000001,2.1042080000000003,-0.7777189999999999,0.8730760000000001,-0.342213,-0.793593,0.512147
412,0.457147,-0.8959020000000001,0.46342799999999995,0.27578600000000003,0.7807729999999999,-0.560653,1.9392029999999998,0.01425,0.632695,-0.185118,-0.444942,0.18243399999999999
413,0.46119799999999994,-0.857726,0.455578,0.291114,0.756357,-0.58581,1.7025430000000001,0.7385189999999999,0.601272,-0.195716,0.508704,0.14683
414,0.47472700000000007,-0.8339709999999999,0.449288,0.30714,0.7406050000000001,-0.597633,0.7209260000000001,0.8996190000000001,0.060098,0.27463200000000004,1.5803479999999999,0.159157
415,0.47676599999999997,-0.839469,0.438935,0.30648400000000003,0.744289,-0.593379,-0.42621000000000003,0.353797,-0.44287,0.144871,0.390218,0.0042829999999999995
416,0.485971,-0.855985,0.442481,0.30615,0.755217,-0.579583,-1.0075370000000001,0.388932,-0.200218,-0.101728,0.41321,0.228677
417,0.521633,-0.8868790000000001,0.459621,0.314839,0.775104,-0.547802,-2.026805,1.569185,-0.363742,0.088527,0.030758999999999998,-0.021961
418,0.579535,-0.937643,0.48856700000000003,0.32402800000000004,0.8061659999999999,-0.49507399999999996,-2.93569,1.7016580000000001,-0.735592,0.199562,-0.31007199999999996,-0.190457
419,0.642258,-1.00017,0.527721,0.323556,0.841563,-0.43252700000000005,-3.258204,1.4457360000000001,-0.9244559999999999,0.098899,-0.45594300000000004,-0.10649000000000002
420,0.709514,-1.063513,0.573354,0.316481,0.8740680000000001,-0.368566,-3.167801,1.350631,-1.195031,0.0063950000000000005,-0.6527850000000001,0.018285
421,0.769288,-1.12986,0.611721,0.29687800000000003,0.9043530000000001,-0.306602,-2.901703,1.276675,-1.8446930000000001,-0.127399,-0.232066,0.008567
422,0.810315,-1.1921540000000002,0.6350060000000001,0.267815,0.929168,-0.25479,-2.317198,0.590491,-1.7820470000000002,-0.068428,-0.007872,-0.12056099999999999
423,0.841392,-1.2401389999999999,0.666415,0.24205500000000002,0.9458290000000001,-0.21636,-1.828008,-0.080613,-1.146451,0.028452999999999996,0.31404299999999996,-0.236125
424,0.8797219999999999,-1.269889,0.705382,0.228377,0.955068,-0.1889,-1.1956149999999999,0.325544,-0.435391,0.265733,0.224192,-0.13911800000000002
425,0.948608,-1.28025,0.754985,0.23278400000000002,0.9580870000000001,-0.166957,-0.8543200000000001,1.4508290000000001,0.24494000000000002,0.229787,-0.323474,0.144511
426,1.051382,-1.288842,0.835382,0.24152800000000002,0.960514,-0.138102,-1.4089200000000002,0.882315,0.107199,-0.198208,0.101773,0.164179
427,1.095153,-1.30833,0.898357,0.230652,0.9657530000000001,-0.118806,-0.7100850000000001,-1.818412,-0.70058,-0.41061400000000003,1.385779,0.7967390000000001
428,1.048915,-1.316938,0.8765370000000001,0.2177,0.967951,-0.125191,0.221175,-0.585072,-0.38053000000000003,0.43527,0.7273310000000001,0.540794
429,1.061197,-1.318207,0.8882540000000001,0.21814699999999998,0.968269,-0.12190799999999999,-0.231281,0.459163,0.21103899999999998,0.8510969999999999,0.668832,-0.47417700000000007
430,1.059195,-1.30515,0.873583,0.228909,0.964923,-0.128524,0.9847530000000001,0.6182479999999999,0.664778,0.5696899999999999,0.120343,0.454971
431,1.0218690000000001,-1.2811649999999999,0.8314020000000001,0.24363200000000002,0.958349,-0.149013,0.961197,-0.374409,0.6402479999999999,0.44765200000000005,-0.067526,0.383556
432,0.986411,-1.2698120000000002,0.815379,0.247256,0.955045,-0.163548,0.262192,-1.3459370000000002,0.180479,0.22894099999999998,0.166689,-0.0037340000000000003
433,0.9471870000000001,-1.274458,0.811515,0.237048,0.956412,-0.170526,-0.299594,-1.887866,-0.47116099999999994,-0.321856,0.091363,0.400323
434,0.9169139999999999,-1.295785,0.809341,0.215535,0.9624219999999999,-0.165175,-0.7545609999999999,-0.9049809999999999,-1.050302,-0.340459,0.134624,0.213225
435,0.9005709999999999,-1.3239940000000001,0.796184,0.191447,0.969699,-0.151745,-0.664718,0.159609,-1.2230219999999998,-0.04655,0.321225,0.17355
436,0.906007,-1.344179,0.790822,0.176824,0.974432,-0.138596,-0.51499,0.682597,-0.538984,0.254999,-0.324408,0.036179
437,0.935782,-1.35121,0.809906,0.175351,0.975988,-0.12920299999999998,-0.322307,0.41556499999999996,0.004292,0.171649,-0.36545300000000003,-0.131143
438,0.9522129999999999,-1.353445,0.826105,0.175672,0.9764719999999999,-0.125039,-0.10923599999999999,-0.17727,-0.044735000000000004,0.061220000000000004,-0.33664,-0.11090799999999999
439,0.9370860000000001,-1.357432,0.815697,0.170622,0.977324,-0.125376,-0.005614,-0.194596,-0.33027199999999995,0.207078,-0.321211,-0.017782
440,0.903892,-1.361904,0.7820189999999999,0.162932,0.978261,-0.12826400000000002,0.292541,0.083744,-0.39798,0.271318,-0.33405,-0.023744
441,0.836354,-1.3575760000000001,0.7114090000000001,0.157046,0.9773540000000001,-0.14180399999999999,0.977033,-0.069589,-0.209269,0.23979,-0.43168500000000004,-0.318736
442,0.738462,-1.337417,0.62122,0.155669,0.9728899999999999,-0.171013,1.6244809999999998,-0.758008,0.090965,0.17314300000000002,-0.422597,-0.263344
443,0.646207,-1.309774,0.544933,0.155393,0.9661270000000001,-0.20602600000000001,1.6712099999999999,-0.919525,0.215412,0.21786799999999998,-0.48076,0.10353299999999999
444,0.571472,-1.273881,0.48694499999999996,0.15823800000000002,0.9562440000000001,-0.24607600000000002,2.176831,-1.125911,0.50656,-0.12358599999999999,-0.398993,-0.306964
445,0.493676,-1.221833,0.444763,0.162023,0.9397280000000001,-0.301091,2.727099,-2.279639,0.836622,-0.155324,-0.255112,0.302098
446,0.425446,-1.160036,0.41758199999999995,0.164802,0.916817,-0.363705,3.16958,-1.9536810000000002,0.989914,-0.149589,-0.186608,0.45277
447,0.383689,-1.090595,0.407057,0.172929,0.8869020000000001,-0.428364,3.303329,-1.395822,1.2262110000000002,-0.10716400000000001,0.51918,0.095387
448,0.37211500000000003,-1.021654,0.40838800000000003,0.189775,0.852972,-0.48623,3.080724,-0.038235000000000005,1.312647,-0.258027,1.2373290000000001,-0.014303999999999999
449,0.387088,-0.961433,0.413484,0.216056,0.8200120000000001,-0.529996,2.5372619999999997,0.4977,1.225911,-0.331946,1.346156,0.100156
450,0.390359,-0.9113319999999999,0.421153,0.233141,0.79032,-0.5666,1.9772439999999998,-0.347682,1.067122,0.17138399999999998,0.11629600000000001,0.204158
451,0.40125500000000003,-0.875102,0.43190200000000006,0.250325,0.767609,-0.590009,1.260903,0.48684799999999995,1.050367,0.074824,0.770904,-0.025195
452,0.431138,-0.85426,0.451142,0.274469,0.754085,-0.596673,0.291652,0.9095840000000001,0.8700030000000001,0.101522,0.6558579999999999,-0.261252
453,0.474988,-0.853334,0.47840299999999997,0.30068,0.7534770000000001,-0.584689,-0.642021,1.307172,0.820243,-0.027548000000000003,0.197283,-0.164762
454,0.531222,-0.863541,0.513652,0.32915300000000003,0.7601479999999999,-0.5602050000000001,-1.2145110000000001,1.550282,0.72727,-0.048743,-0.07779,0.068261
455,0.593631,-0.8821709999999999,0.553824,0.35546700000000003,0.77212,-0.526754,-1.5995700000000002,1.5706870000000002,0.48740900000000004,0.014268000000000001,-0.20102899999999999,0.281988
456,0.650642,-0.9077209999999999,0.590847,0.37283099999999997,0.788103,-0.489782,-1.7704520000000001,1.276051,-0.007994,-0.043119,-0.389818,0.381292
457,0.6963229999999999,-0.9423860000000001,0.62279,0.377051,0.808963,-0.451006,-2.093381,0.855196,-0.50857,-0.138465,-0.550372,0.305712
458,0.738576,-0.988705,0.657007,0.370123,0.8353149999999999,-0.406514,-2.572386,0.638209,-0.9741780000000001,-0.19658499999999998,-0.607684,0.127308
459,0.7822020000000001,-1.048612,0.695012,0.351554,0.866732,-0.353808,-2.9969740000000002,0.529151,-1.570935,-0.25256999999999996,-0.587908,0.023242
460,0.8306979999999999,-1.1191950000000002,0.734969,0.322239,0.899749,-0.29429099999999997,-3.162264,0.783047,-2.0499110000000003,-0.352498,-0.45489399999999997,-0.009389
461,0.889595,-1.191637,0.78199,0.287524,0.928976,-0.233082,-2.950972,0.694293,-2.148734,-0.32564099999999996,-0.181402,-0.024975
462,0.929541,-1.254824,0.8212510000000001,0.249002,0.9504950000000001,-0.18588,-2.134421,-0.267866,-2.003996,-0.23501,0.44693599999999994,-0.10450999999999999
463,0.926897,-1.299436,0.8358540000000001,0.21436,0.963407,-0.160903,-1.137008,-1.150362,-1.425468,-0.153752,0.517443,-0.37542800000000004
464,0.890633,-1.322278,0.831752,0.191223,0.9692780000000001,-0.154686,-0.440737,-1.617318,-0.607089,-0.052291,0.441763,-0.5381239999999999
465,0.90465,-1.327605,0.8482350000000001,0.18930999999999998,0.9705739999999999,-0.148798,-0.324494,1.0763129999999999,0.203188,0.7140569999999999,-0.287698,0.275003
466,0.9827030000000001,-1.322243,0.877501,0.20466199999999998,0.969269,-0.136468,0.080314,3.043895,0.648936,0.279102,-0.523636,0.342905
467,1.075415,-1.30528,0.8944,0.23085100000000003,0.964957,-0.124734,0.344384,4.219684,0.7550279999999999,0.05017,-0.497565,0.13485
468,1.159014,-1.300088,0.913674,0.245049,0.9635819999999999,-0.107026,-0.697926,1.841088,0.020132,-0.6386649999999999,-0.249257,-0.836593
469,1.206848,-1.313688,1.0003229999999999,0.23761500000000002,0.9671290000000001,-0.090512,-1.042956,-3.5860199999999995,-0.331042,0.24947600000000003,0.341281,1.055508
470,1.130935,-1.321913,0.98798,0.22286199999999998,0.9691879999999999,-0.10488099999999999,-0.223156,-2.48972,-0.275445,1.129861,0.736561,0.41271199999999997
471,1.228019,-1.319602,1.0913629999999999,0.23408800000000002,0.968616,-0.083538,-0.6119600000000001,1.034678,0.742815,0.801373,0.949658,-0.327931
472,1.182605,-1.31671,1.059734,0.232646,0.967893,-0.095139,0.382345,-1.126342,-0.223825,-0.5371199999999999,-0.27520500000000003,0.20931999999999998
473,1.189486,-1.326546,1.0818530000000002,0.22444899999999998,0.970319,-0.089989,-0.821765,-0.400751,-0.546154,0.034554,0.876971,-0.171318
474,1.259227,-1.341934,1.1377629999999999,0.21593299999999999,0.973925,-0.069543,-0.737122,1.1679540000000002,-0.242062,0.816736,1.407651,0.006585
475,1.271456,-1.342406,1.1451799999999999,0.21632800000000002,0.974032,-0.066762,0.24297399999999997,-0.389391,-0.048418,0.203654,0.149625,0.042043000000000004
476,1.217961,-1.345409,1.108023,0.209704,0.974708,-0.077222,0.378128,-1.053183,-0.40020500000000003,0.08053400000000001,0.032357,0.157056
477,1.151326,-1.348831,1.061258,0.201049,0.975467,-0.089655,0.424389,-1.069867,-0.264196,-0.089644,0.042584,-0.008718
478,1.074431,-1.347949,1.004512,0.194325,0.9752719999999999,-0.105245,0.718424,-0.961034,-0.29646500000000003,-0.080876,0.150857,-0.008173999999999999
479,0.982735,-1.3447559999999998,0.9201799999999999,0.186462,0.974562,-0.124324,0.9195180000000001,-0.167965,-0.330259,0.267243,-0.037504,0.051173
480,0.910516,-1.338813,0.843974,0.181577,0.9732120000000001,-0.141005,0.878749,0.121519,-0.227298,0.336336,-0.318748,-0.000749
481,0.842189,-1.328738,0.775089,0.178834,0.9708469999999999,-0.159594,1.0217,-0.214048,-0.08379600000000001,0.205657,-0.457083,-0.153165
482,0.760212,-1.3127229999999999,0.702339,0.175858,0.966884,-0.184947,1.278248,-0.776502,-0.042827,0.087219,-0.517436,-2e-05
483,0.678882,-1.292006,0.633848,0.172795,0.9613889999999999,-0.214169,1.4638440000000001,-0.694426,0.050231,0.067745,-0.544855,0.093213
484,0.609023,-1.2619049999999998,0.577448,0.173905,0.9526709999999999,-0.24933899999999998,1.8699689999999998,-0.9166280000000001,0.38663800000000004,-0.00847,-0.41778999999999994,-0.093083
485,0.5447390000000001,-1.21984,0.537036,0.17815,0.9390440000000001,-0.29403,2.262762,-1.496705,0.720206,-0.102009,-0.368671,0.11951600000000001
486,0.48910699999999996,-1.165244,0.508889,0.185361,0.918884,-0.348265,2.892209,-1.445748,1.0172299999999999,-0.277631,-0.315888,0.325499
487,0.44692600000000005,-1.097816,0.49315699999999996,0.196881,0.890215,-0.41079399999999994,3.201923,-1.313807,1.319395,-0.291745,-0.221025,0.54733
488,0.417109,-1.029672,0.486497,0.208675,0.85713,-0.47093500000000005,3.133842,-1.14374,1.2065379999999999,-0.270061,-0.24864,0.600237
489,0.39100300000000004,-0.9697889999999999,0.476225,0.21550999999999998,0.824766,-0.5227930000000001,2.628196,-0.661732,0.7206199999999999,-0.126047,-0.281553,0.203869
490,0.380802,-0.926427,0.464549,0.22325599999999998,0.799479,-0.557663,1.887045,0.346428,0.46205100000000005,-0.16023800000000002,-0.091837,0.04158
491,0.397888,-0.889476,0.46338999999999997,0.24403699999999998,0.776742,-0.580617,1.665554,1.215256,0.7627659999999999,-0.233279,0.9495459999999999,0.060719
492,0.41388800000000003,-0.863842,0.46458299999999997,0.261219,0.7603439999999999,-0.594676,0.737334,0.129132,0.388069,0.346524,0.290285,0.27428800000000003
493,0.41648,-0.8584,0.470567,0.26442899999999997,0.756798,-0.597772,-0.190141,0.141482,0.23522800000000002,0.072378,0.309227,0.203226
494,0.44609899999999997,-0.871577,0.485653,0.27768899999999996,0.7653449999999999,-0.5806319999999999,-1.125702,1.250903,0.130063,-0.017190999999999998,0.311529,0.092442
495,0.49726400000000004,-0.9033459999999999,0.51332,0.295269,0.785402,-0.544018,-2.250683,1.47379,-0.021222,0.11648900000000001,-0.175753,-0.163181
496,0.552942,-0.953026,0.5555399999999999,0.3042,0.815172,-0.492903,-3.003552,0.868984,-0.235077,0.17146199999999998,-0.338991,-0.128816
497,0.607716,-1.0123440000000001,0.603564,0.302553,0.848076,-0.43499899999999997,-3.318886,0.735638,-0.713536,0.224516,-0.460167,-0.098524
498,0.6668229999999999,-1.080438,0.649237,0.291272,0.882164,-0.370058,-3.446671,1.153897,-1.3024870000000002,0.02576,-0.878777,0.100069
499,0.735403,-1.152945,0.697459,0.27224,0.913963,-0.30091999999999997,-3.416435,1.311988,-1.701993,-0.11043599999999999,-0.9239729999999999,0.123948
500,0.799233,-1.225802,0.7370439999999999,0.242418,0.941077,-0.235801,-2.912849,1.204042,-2.049782,-0.271944,-0.496284,0.119361
501,0.848699,-1.284678,0.7840739999999999,0.211785,0.959347,-0.18653699999999998,-2.283688,-0.371962,-1.415253,-0.22754699999999997,0.42807399999999995,-0.286012
502,0.881367,-1.3250549999999999,0.835883,0.18770499999999998,0.969957,-0.15474000000000002,-1.608212,-1.01661,-0.896963,-0.003425,0.45326000000000005,-0.343841
503,0.9276120000000001,-1.3479700000000001,0.893056,0.176822,0.9752770000000001,-0.132529,-0.929674,0.16064900000000001,-0.186569,0.437985,0.068241,0.28173000000000004
504,1.012825,-1.347443,0.95814,0.187895,0.97516,-0.117271,-0.517546,1.3689280000000001,0.72275,0.423387,-0.134462,0.429633
505,1.125785,-1.3456299999999999,1.052761,0.201511,0.974757,-0.096104,-1.215214,0.31180399999999997,0.354968,-0.353107,0.631078,-0.5313220000000001
506,1.127565,-1.35632,1.0842319999999999,0.19225699999999998,0.977088,-0.091271,-0.029414999999999997,-1.8694669999999998,-0.508828,-0.544247,0.909341,0.639916
507,1.1012959999999998,-1.363509,1.0581610000000001,0.183524,0.978593,-0.093109,0.008704,0.867394,-0.317652,1.109292,0.6738270000000001,-0.104691
508,1.153546,-1.3635700000000002,1.0957270000000001,0.188081,0.978605,-0.083372,-0.182354,0.581946,0.368246,0.31406999999999996,0.944567,-0.145204
509,1.126506,-1.348675,1.061373,0.1989,0.975432,-0.094683,0.779385,0.17193,0.570974,0.620192,0.33181900000000003,0.1989
510,1.0753979999999999,-1.337467,1.023404,0.20340999999999998,0.972902,-0.109911,0.564559,-1.290352,0.139785,0.28030900000000003,0.34513699999999997,0.028155
511,1.0030459999999999,-1.336956,0.984936,0.195352,0.972784,-0.12459500000000001,0.27564099999999997,-1.798444,-0.41919399999999996,-0.018106,0.296641,0.22089299999999998
512,0.9346479999999999,-1.347646,0.947664,0.178003,0.9752049999999999,-0.131469,-0.08822999999999999,-1.4835049999999999,-0.8066989999999999,-0.20534699999999997,0.158492,0.335082
513,0.8787159999999999,-1.3660379999999999,0.9092879999999999,0.15653699999999998,0.97911,-0.129744,-0.330421,-0.516642,-1.027547,-0.047773,0.10933,0.13331500000000002
514,0.845909,-1.384183,0.8771620000000001,0.138873,0.9826379999999999,-0.12300799999999999,-0.36839,0.091728,-0.7529899999999999,0.26855100000000004,0.115476,0.102393
515,0.841766,-1.396656,0.868635,0.129211,0.984876,-0.115407,-0.323277,0.311579,-0.360919,0.272782,-0.12159500000000001,0.016592
516,0.8499209999999999,-1.39959,0.8696799999999999,0.127977,0.9853799999999999,-0.112443,0.096317,0.289393,0.027668,0.208632,-0.22932199999999997,-0.207808
517,0.801707,-1.386379,0.8222459999999999,0.131753,0.983043,-0.127524,1.222083,-0.338834,0.311938,0.201621,-0.272457,-0.24526399999999998
518,0.697029,-1.352223,0.729544,0.13919,0.976208,-0.166252,2.146759,-0.871442,0.567975,0.11235099999999999,-0.307965,0.024725999999999998
519,0.593495,-1.306965,0.643111,0.14584,0.965398,-0.216178,2.641371,-1.0220790000000002,0.513939,-0.13554000000000002,-0.509008,-0.14811
520,0.4923,-1.250143,0.566362,0.148971,0.9490299999999999,-0.277752,3.166807,-1.590743,0.5429069999999999,-0.230713,-0.589639,0.165493
521,0.418159,-1.184205,0.5188159999999999,0.153104,0.9262,-0.344543,3.4121230000000002,-1.318978,0.832692,-0.17262,-0.587943,0.221466
522,0.378992,-1.112668,0.49844499999999997,0.163632,0.896882,-0.410883,3.40657,-0.90441,1.059653,-0.23289200000000002,-0.47174099999999997,0.47304700000000005
523,0.36185,-1.0468950000000001,0.49202799999999997,0.177094,0.865874,-0.46786400000000006,2.9183689999999998,-0.38159299999999996,1.008572,-0.21566799999999997,-0.555617,0.623199
524,0.352025,-0.9927010000000001,0.486545,0.188408,0.8375049999999999,-0.512919,2.393932,-0.131293,0.674507,-0.184364,-0.578365,0.5478609999999999
525,0.346004,-0.94868,0.47806800000000005,0.19763599999999998,0.812647,-0.548218,2.022366,0.099759,0.492154,-0.069188,-0.48263,0.22656199999999999
526,0.34843,-0.912734,0.475609,0.208808,0.791179,-0.574833,1.513919,0.31307399999999996,0.601561,-0.219718,0.023366,0.15572
527,0.364437,-0.886713,0.48147399999999996,0.22524499999999997,0.774999,-0.5904560000000001,0.9072,0.735424,0.469663,-0.055629,1.147532,0.37700100000000003
528,0.369674,-0.884544,0.475621,0.228942,0.773626,-0.590835,-0.257841,0.27464299999999997,-0.23863800000000002,0.40121599999999996,0.39617399999999997,0.10328599999999999
529,0.380892,-0.8962319999999999,0.482799,0.23217800000000002,0.780979,-0.579796,-0.847616,0.42553199999999997,0.101017,0.052765,0.503765,0.161796
530,0.41129,-0.923866,0.5049939999999999,0.24097,0.797938,-0.552473,-1.9854580000000002,0.7025239999999999,0.01687,0.114926,0.190939,-0.049883
531,0.44555,-0.9739760000000001,0.534788,0.242202,0.8271270000000001,-0.507145,-2.9624639999999998,0.327374,-0.42423999999999995,0.201997,-0.014184,-0.393581
532,0.483914,-1.0382790000000002,0.56908,0.236206,0.861532,-0.44940699999999995,-3.4180029999999997,0.751989,-0.720659,0.219543,-0.471975,-0.133082
533,0.549075,-1.108254,0.608039,0.232882,0.894921,-0.380629,-3.5423480000000005,1.973411,-1.032877,0.15959,-0.586724,-0.041688
534,0.6248060000000001,-1.181125,0.644821,0.222206,0.925034,-0.30811,-3.2972370000000004,2.010186,-1.6497119999999998,0.09099600000000001,-0.5438850000000001,0.268559
535,0.6660689999999999,-1.246415,0.657718,0.196934,0.9478479999999999,-0.250591,-2.416921,1.0485360000000001,-1.687196,0.045391,-0.17741700000000002,0.010204000000000001
536,0.703229,-1.2955889999999999,0.686999,0.175727,0.962369,-0.207269,-2.1122520000000002,0.236052,-0.96725,0.051293,0.033237,-0.183722
537,0.778887,-1.332832,0.757627,0.16558499999999998,0.9718200000000001,-0.167756,-1.805237,0.554235,-0.351286,0.048755,0.499692,-0.394088
538,0.858643,-1.344962,0.820284,0.169487,0.974608,-0.146315,-0.474563,1.157804,0.203097,0.281013,0.10353299999999999,-0.12060699999999999
539,0.962766,-1.353726,0.903473,0.176758,0.976533,-0.123022,-1.331001,0.913917,0.131198,0.20314000000000002,0.18222,0.256399
540,1.0283129999999998,-1.370093,0.9701540000000001,0.170723,0.979927,-0.102914,-0.551021,-0.426314,-0.515389,0.169273,0.46291400000000005,0.66755
541,0.993282,-1.3746120000000002,0.954627,0.163302,0.980817,-0.10641099999999999,0.154142,-1.041632,-0.164639,0.606809,0.146242,0.552319
542,0.999819,-1.376915,0.97304,0.16209300000000001,0.9812639999999999,-0.10412,-0.609029,-0.34349,0.133579,0.898698,0.29601900000000003,-0.011038
543,1.051369,-1.381892,1.0344200000000001,0.163001,0.9822110000000001,-0.093204,-0.502139,-0.630043,0.039620999999999996,0.47803599999999996,0.835981,-0.013928
544,1.071215,-1.390081,1.078343,0.157752,0.983715,-0.086094,-0.584488,-1.433957,-0.24727600000000002,0.45484300000000005,0.791736,0.160359
545,1.07617,-1.402882,1.113659,0.147079,0.985935,-0.079326,-0.603215,-1.415538,-0.5743060000000001,0.15979100000000002,0.278499,0.297252
546,1.073015,-1.425237,1.132319,0.127423,0.989425,-0.069245,-0.68167,-0.8762709999999999,-1.097905,-0.351102,-0.008605,0.250397
547,1.042003,-1.45451,1.114218,0.100152,0.993246,-0.05851900000000001,-0.563453,-0.562075,-1.451064,-0.41088199999999997,-0.037863,0.125825
548,0.982341,-1.485851,1.063442,0.07053999999999999,0.996394,-0.047073000000000004,-0.6894939999999999,-0.31997,-1.4137979999999999,-0.262907,-0.033076,0.093963
549,0.940745,-1.5155319999999999,1.019543,0.044581,0.9984729999999999,-0.032507999999999995,-0.7245189999999999,0.352773,-1.2557399999999999,0.011236,-0.410445,0.279303
550,0.898224,-1.5432139999999999,0.964366,0.021469,0.9996200000000001,-0.017099,-0.776903,0.7156140000000001,-1.105952,0.092087,-0.324464,0.098565
551,0.267393,-1.5671700000000002,0.32128,0.0006519999999999999,0.999993,-0.00238,-0.66932,0.510421,-1.034435,0.11984700000000001,-0.27936700000000003,-0.023392
552,-1.955523,-1.5490190000000001,-1.908002,-0.020034,0.999763,0.008112000000000001,-0.444521,0.21450999999999998,-1.021803,0.26661599999999996,-0.378623,-0.063608
553,-1.91165,-1.528318,-1.8662470000000002,-0.039945,0.9990979999999999,0.014168,-0.217998,0.09424400000000001,-0.979474,0.314054,-0.376646,-0.065621
554,-1.825325,-1.5094889999999999,-1.7806330000000001,-0.05924,0.9981209999999999,0.015412,0.035373,-0.013225,-0.96368,0.38695300000000005,-0.29435500000000003,-0.038102
555,-1.7030349999999999,-1.491264,-1.656591,-0.078712,0.9968389999999999,0.01047,0.406579,-0.040042,-0.9728030000000001,0.436821,-0.245466,0.010389
556,-1.551315,-1.4742030000000002,-1.5042010000000001,-0.096387,0.995338,-0.0018780000000000001,0.7046819999999999,-0.033147,-0.824383,0.42579399999999995,-0.181816,-0.05845499999999999
557,-1.4187889999999999,-1.459155,-1.3670639999999998,-0.11009400000000001,0.993775,-0.016865,0.7845489999999999,-0.31450700000000004,-0.595933,0.353792,-0.10025,-0.26765
558,-1.321827,-1.4460540000000002,-1.256683,-0.120558,0.99223,-0.030650999999999998,0.8128029999999999,-0.8273440000000001,-0.5106890000000001,0.299559,-0.024105,-0.254413
559,-1.208933,-1.4287940000000001,-1.12452,-0.13234100000000001,0.989935,-0.050095,1.251336,-0.886123,-0.5769850000000001,0.391405,-0.050878,-0.235229
560,-1.0900969999999999,-1.405166,-0.98106,-0.146174,0.9863149999999999,-0.07622899999999999,1.632586,-1.356924,-0.653836,0.5512640000000001,-0.091921,-0.144977
561,-0.9708459999999999,-1.375005,-0.830619,-0.160557,0.980894,-0.109832,2.172809,-1.361537,-0.5015729999999999,0.6404770000000001,-0.172651,0.290541
562,-0.800971,-1.340196,-0.632108,-0.164107,0.9735290000000001,-0.159074,2.971882,-1.183638,0.403223,0.398284,0.31849299999999997,0.094224
563,-0.606006,-1.3089950000000001,-0.40523200000000004,-0.14741700000000002,0.965925,-0.212725,2.873974,-1.240889,1.483653,0.039155,0.49844499999999997,0.060091
564,-0.40825300000000003,-1.281749,-0.18143499999999999,-0.11316,0.958516,-0.26160700000000003,2.591656,-0.65164,2.2222720000000002,-0.114059,0.8285319999999999,0.393748
565,-0.219687,-1.247075,0.026113,-0.069319,0.948058,-0.31044499999999997,2.604171,-0.342127,2.597977,-0.617662,1.196412,0.097737
566,-0.042595999999999995,-1.2082979999999999,0.21435500000000002,-0.0151,0.9350139999999999,-0.354285,2.110262,0.073433,2.999919,-0.567267,1.426665,-0.10235
567,0.094448,-1.1689209999999999,0.367085,0.036887,0.9203290000000001,-0.389397,1.7504110000000002,-0.44113199999999997,2.788693,-0.104896,1.473958,-0.19986700000000002
568,0.185721,-1.131373,0.479958,0.078555,0.9049969999999999,-0.418099,1.432253,-0.62708,2.4117669999999998,0.394895,0.8638319999999999,-0.00106
569,0.25306,-1.097747,0.573628,0.114067,0.890183,-0.441089,0.984225,-1.046467,2.4508349999999997,0.613716,0.303695,0.09285299999999999
570,0.317406,-1.071144,0.6763239999999999,0.149534,0.877749,-0.45518400000000003,0.369787,-1.413155,2.774957,0.433886,0.165708,0.358245
571,0.381954,-1.052066,0.782367,0.184793,0.868449,-0.46004799999999996,-0.183641,-1.394001,2.72727,0.047675,0.125859,0.491482
572,0.44811999999999996,-1.0395729999999999,0.889735,0.219489,0.862188,-0.45656599999999997,-0.740059,-1.29189,2.715775,-0.268852,0.058939,0.439675
573,0.521095,-1.036237,1.00316,0.25362399999999996,0.8604930000000001,-0.44183999999999996,-1.505012,-1.2129450000000002,2.551166,-0.362068,-0.007863,0.249793
574,0.598284,-1.045138,1.123591,0.282615,0.864994,-0.41462200000000005,-2.2257029999999998,-1.457186,2.1843169999999996,-0.29349400000000003,-0.390842,0.10296099999999998
575,0.667665,-1.063761,1.24064,0.300651,0.874188,-0.381314,-2.5756,-1.669414,1.48246,-0.291084,-0.633328,0.031491000000000005
576,0.720511,-1.096122,1.340099,0.301544,0.889442,-0.343455,-2.826695,-1.7649119999999998,0.27587399999999995,-0.23493899999999998,-0.880408,0.051203
577,0.748976,-1.1418139999999999,1.41185,0.28321,0.9093899999999999,-0.304629,-2.634992,-1.8384630000000002,-0.676615,-0.1202,-0.7986409999999999,0.12247000000000001
578,0.75015,-1.189653,1.453162,0.253594,0.92824,-0.272133,-2.0543419999999997,-1.8404619999999998,-1.212008,0.020316999999999998,-0.629229,0.078026
579,0.6995600000000001,-1.228349,1.447574,0.216207,0.9419360000000001,-0.256919,-0.906275,-2.716182,-1.391942,0.07191,-0.305644,-0.097024
580,0.568394,-1.240821,1.39209,0.17440899999999998,0.94605,-0.273068,0.630775,-4.641148,-0.857447,0.258116,0.563715,-0.47951099999999997
581,0.43154,-1.22214,1.335452,0.14289300000000002,0.939833,-0.310309,1.473267,-3.287689,-0.13011,0.34258,0.647722,-0.254449
582,0.38768600000000003,-1.192279,1.3139049999999999,0.139703,0.929214,-0.34211199999999997,1.556735,-0.071991,0.421828,0.248725,0.011704,0.260783
583,0.400393,-1.163549,1.312235,0.154384,0.918214,-0.36475100000000005,1.024222,0.9468030000000001,0.519352,-0.202128,-0.277406,0.781423
584,0.448492,-1.1625290000000001,1.340565,0.172148,0.91781,-0.35775,-0.932944,1.063397,0.498054,-0.289198,-0.11240499999999999,0.627602
585,0.499406,-1.199445,1.392202,0.173779,0.9318379999999999,-0.31855100000000003,-2.4609389999999998,-0.35089000000000004,-0.407045,0.024799,1.129533,0.700341
586,0.492051,-1.240968,1.397451,0.15300899999999998,0.946098,-0.285451,-1.468875,-0.782155,-1.042632,0.24570300000000003,1.4207379999999998,0.41760699999999995
587,0.47269799999999995,-1.262011,1.3969719999999999,0.13835999999999998,0.9527040000000001,-0.27057,-0.651094,-0.9144680000000001,-0.09992000000000001,0.41618999999999995,0.072397,0.370316
588,0.46862600000000004,-1.275644,1.413465,0.131378,0.956758,-0.25951799999999997,-0.8768299999999999,-1.130684,-0.1792,0.130402,0.070952,0.601895
589,0.440725,-1.297533,1.419529,0.115124,0.9628950000000001,-0.244079,-1.087888,-2.131046,-0.511609,-0.005672,-0.033956,0.562896
590,0.373551,-1.325713,1.4066610000000002,0.088541,0.970117,-0.22589499999999998,-1.322842,-2.969478,-0.8251649999999999,-0.055475,-0.040001999999999996,0.5607340000000001
591,0.280414,-1.359529,1.373243,0.05803099999999999,0.977766,-0.201496,-1.54969,-2.9651520000000002,-0.9111450000000001,-0.108004,0.107927,0.384799
592,0.18753499999999998,-1.392997,1.3327360000000001,0.032971,0.9842350000000001,-0.173747,-1.475547,-2.360275,-0.659302,-0.077359,0.171389,0.25756399999999996
593,0.12889,-1.420059,1.304791,0.019299,0.988661,-0.148902,-1.215358,-1.084285,-0.300197,-0.04765,0.09775,0.164984
594,0.11196800000000001,-1.4432200000000002,1.300084,0.014213,0.991873,-0.12641,-1.100951,-0.39078,-0.13577999999999998,0.0021899999999999997,-0.038031,0.211218
595,0.092637,-1.464143,1.283834,0.009845,0.994318,-0.105966,-0.9901409999999999,-0.07003,-0.257194,0.060514,-0.095743,0.177041
596,0.026269999999999998,-1.4827780000000002,1.219071,0.0023079999999999997,0.996129,-0.087837,-0.861624,-0.14324800000000001,-0.43993699999999997,0.112255,-0.12143399999999999,0.13130999999999998
597,-0.11905,-1.497382,1.0779889999999999,-0.008706,0.9973059999999999,-0.072785,-0.68983,-0.272204,-0.574236,0.224954,-0.215156,0.001542
598,-0.324502,-1.506384,0.8769959999999999,-0.020507,0.997926,-0.06096,-0.5328,-0.219523,-0.564661,0.21725300000000003,-0.303087,-0.077788
599,-0.550545,-1.5099280000000002,0.6550590000000001,-0.031796,0.9981479999999999,-0.051797,-0.41247,-0.257279,-0.550953,0.217587,-0.295084,-0.09058300000000001
600,-0.78582,-1.5080559999999998,0.42730799999999997,-0.044316,0.998033,-0.044278,-0.336275,-0.49682299999999996,-0.652663,0.22897800000000001,-0.086167,-0.0010550000000000002
601,-1.013183,-1.501049,0.21350100000000002,-0.05909299999999999,0.997569,-0.036851999999999996,-0.356581,-0.823464,-0.73464,0.241817,-0.049402999999999996,0.07342699999999999
602,-1.228641,-1.4913450000000001,0.017315999999999998,-0.074728,0.9968450000000001,-0.026614999999999996,-0.512282,-1.061483,-0.7503770000000001,0.257635,-0.072621,0.092289
603,-1.440499,-1.479057,-0.173251,-0.090798,0.9957950000000001,-0.011898,-0.74259,-1.090267,-0.81177,0.24730700000000003,-0.152091,0.069119
604,-1.655631,-1.461698,-0.369573,-0.108458,0.9940549999999999,0.009223,-1.094317,-0.906352,-0.944785,0.255858,-0.044271,0.07676000000000001
605,-1.831811,-1.4371260000000001,-0.533155,-0.12873099999999998,0.991079,0.034385,-1.17959,-0.544402,-1.076168,0.303535,0.017176,0.085656
606,-1.9215209999999998,-1.410757,-0.617387,-0.149633,0.9872209999999999,0.05474299999999999,-0.8379620000000001,-0.216587,-1.033609,0.37251799999999996,0.019829,0.068715
607,-1.9543110000000001,-1.390405,-0.64579,-0.16636199999999998,0.9837739999999999,0.067126,-0.451345,-0.320269,-0.748765,0.363765,0.158591,-0.018649000000000002
608,-1.9709459999999999,-1.378456,-0.653361,-0.176038,0.98156,0.074459,-0.22441,-0.520586,-0.401888,0.18002100000000001,0.254662,-0.24564699999999998
609,-1.980484,-1.372615,-0.6524949999999999,-0.180576,0.980426,0.078417,0.003118,-0.516774,-0.220842,0.168872,0.219815,-0.333864
610,-1.9556830000000003,-1.371604,-0.6150899999999999,-0.183383,0.9802270000000001,0.074287,0.542121,-0.664755,-0.178431,0.5629460000000001,0.318968,-0.061958000000000006
611,-1.8725779999999999,-1.37354,-0.516744,-0.187105,0.980608,0.058244000000000004,1.1519030000000001,-0.6323949999999999,-0.27462600000000004,0.6115430000000001,0.342573,-0.024095
612,-1.744791,-1.375038,-0.375264,-0.191555,0.9809,0.03367,1.470221,-0.489921,-0.21597,0.567714,0.22695500000000002,0.06777000000000001
613,-1.5743989999999999,-1.376944,-0.192392,-0.19262,0.9812690000000001,0.0006940000000000001,1.986532,-0.476807,0.052538999999999995,0.5789880000000001,0.100624,0.27931999999999996
614,-1.341258,-1.379284,0.060240999999999996,-0.185334,0.9817170000000001,-0.043304,2.605786,-0.9724309999999999,0.648226,0.485871,0.051866999999999996,0.390534
615,-1.058489,-1.3810639999999998,0.374254,-0.16436800000000001,0.9820549999999999,-0.092439,2.732631,-1.3957700000000002,1.4422760000000001,0.116257,-0.053451,0.21959099999999998
616,-0.7637149999999999,-1.37826,0.705919,-0.132328,0.9815219999999999,-0.138195,2.445193,-1.6420560000000002,2.008877,-0.061520000000000005,0.161071,-0.012546999999999999
617,-0.473491,-1.364041,1.0302799999999999,-0.09360299999999999,0.9787020000000001,-0.182687,2.444584,-1.032738,2.2804889999999998,-0.11426800000000001,0.41058,0.194254
618,-0.215071,-1.333401,1.302082,-0.050187,0.9719540000000001,-0.22974299999999998,2.3883799999999997,-0.048063999999999996,2.2393099999999997,-0.046767,0.646698,0.121451
619,-0.039968000000000004,-1.2965950000000002,1.484652,-0.010819,0.962642,-0.27055300000000004,1.911168,-0.18153699999999998,1.9338389999999999,0.049882,0.46256,-0.034531
620,0.064015,-1.266751,1.602947,0.019150999999999998,0.954133,-0.298761,1.194776,-0.625125,1.598254,0.371046,0.051329,0.092447
621,0.135799,-1.24629,1.69967,0.043164,0.947808,-0.315898,0.7255510000000001,-1.2426110000000001,1.6449060000000002,0.505267,-0.15357300000000002,0.23974099999999998
622,0.20644099999999999,-1.227594,1.8072279999999998,0.068975,0.941682,-0.329352,0.566739,-1.7390970000000001,2.065313,0.357325,-0.12204100000000001,0.285209
623,0.2824,-1.208275,1.931707,0.098821,0.935006,-0.340579,0.298427,-2.187109,2.4464360000000003,0.338054,-0.061852,0.316425
624,0.361031,-1.191476,2.065745,0.130798,0.928917,-0.346412,-0.14272100000000001,-2.361001,2.625175,0.275009,0.026680000000000002,0.389396
625,0.43523599999999996,-1.178185,2.198385,0.16131199999999998,0.9239129999999999,-0.346928,-0.443524,-2.495711,2.474764,0.033832,-0.0071189999999999995,0.41800299999999996
626,0.491026,-1.167116,2.3159400000000003,0.18521700000000002,0.9196219999999999,-0.346391,-0.5650310000000001,-2.764678,2.177294,-0.099539,-0.028966000000000002,0.35048
627,0.5279729999999999,-1.158607,2.419496,0.201821,0.9162459999999999,-0.34606,-0.679787,-2.917708,1.918179,-0.230035,-0.040757999999999996,0.316671
628,0.557602,-1.154285,2.515414,0.21407800000000002,0.9145059999999999,-0.34328600000000004,-0.887761,-2.905361,1.6752919999999998,-0.238416,-0.046144,0.25142800000000004
629,0.580384,-1.153217,2.602648,0.222377,0.9140729999999999,-0.339136,-0.9084530000000001,-2.778563,1.4196799999999998,-0.178859,-0.056452999999999996,0.219523
630,0.600928,-1.154244,2.6799720000000002,0.228767,0.9144899999999999,-0.33372199999999996,-0.93099,-2.296173,1.2180790000000001,-0.057960000000000005,0.023209,0.1508
631,0.631163,-1.156239,2.754278,0.23767399999999997,0.9152950000000001,-0.32518,-0.9554309999999999,-1.6332010000000001,1.146556,-0.079898,-8.8e-05,0.164475
632,0.672028,-1.1584379999999999,2.826959,0.249506,0.916178,-0.313623,-0.981432,-1.113899,1.041023,-0.17405199999999998,-0.075785,0.20850500000000002
633,0.713486,-1.1623620000000001,2.892663,0.25993499999999997,0.917744,-0.300292,-0.994014,-0.8571129999999999,0.772482,-0.26316999999999996,-0.223149,0.19551
634,0.750095,-1.170512,2.949949,0.265644,0.92095,-0.285096,-1.1128049999999998,-0.792525,0.441489,-0.23405900000000002,-0.240759,0.163224
635,0.7837189999999999,-1.185136,3.005163,0.265542,0.92655,-0.266435,-1.361804,-0.934313,0.15151199999999998,-0.134485,-0.21660500000000002,0.061983
636,0.815006,-1.205825,3.062446,0.259739,0.934134,-0.244796,-1.513428,-1.212942,-0.10129099999999999,-0.033878,-0.17034000000000002,-0.096299
637,0.840009,-1.229063,3.118951,0.249542,0.942175,-0.22367399999999998,-1.518472,-1.517064,-0.233396,0.011414,-0.167349,-0.27936300000000003
638,0.866138,-1.253573,-3.103164,0.237632,0.950105,-0.20205399999999998,-1.5261559999999998,-1.605293,-0.273929,0.17106,-0.04735,-0.485461
639,0.8815540000000001,-1.270672,-3.058255,0.22814600000000002,0.9553,-0.188007,-0.6367520000000001,-1.085866,-0.139127,0.641757,0.364662,-0.206814
640,0.878675,-1.265757,-3.0491330000000003,0.23121599999999998,0.953835,-0.191657,0.26274699999999995,-0.35467600000000005,0.575519,0.638687,0.366127,-0.203164
641,0.906008,-1.248261,-3.020509,0.249466,0.948435,-0.19553299999999998,0.153821,0.181418,1.137024,0.571869,0.06955499999999999,-0.241632
642,0.946275,-1.228421,-2.980527,0.27234899999999995,0.94196,-0.196297,0.051802999999999995,0.005053,1.107695,0.458028,-0.302723,-0.160957
643,0.9656899999999999,-1.215568,-2.952292,0.286043,0.937567,-0.197844,-0.169541,-0.570747,0.6390060000000001,0.371519,-0.215018,0.211196
644,0.996758,-1.218191,-2.900769,0.289984,0.938476,-0.187527,-1.253952,-1.033166,0.269896,0.33260500000000004,0.290329,0.526226
645,1.078319,-1.2311940000000001,-2.79525,0.29352,0.942887,-0.157496,-2.1739349999999997,-0.6568970000000001,0.47770100000000004,0.246427,1.0958860000000001,0.728785
646,1.173206,-1.231947,-2.680364,0.30646599999999996,0.9431379999999999,-0.128702,-1.065575,-1.117725,1.0051889999999999,-0.017404,0.668618,-0.823477
647,1.137946,-1.213023,-2.664786,0.317886,0.936679,-0.146887,0.16258699999999998,-2.70526,0.808567,-0.9671780000000001,-0.22108699999999998,-0.542932
648,1.088684,-1.210504,-2.661493,0.312357,0.935794,-0.163456,0.10981300000000001,-2.399652,-0.44414899999999996,-1.126231,-0.09627000000000001,0.048558
649,1.03674,-1.240734,-2.688216,0.278964,0.9460219999999999,-0.164973,-0.835285,-0.45728199999999997,-2.113257,-0.700701,-0.386803,0.784679
650,1.064876,-1.298952,-2.6833869999999997,0.234864,0.963277,-0.130118,-1.7129349999999999,1.79319,-2.569856,-0.272461,-0.044027,0.845023
651,1.096932,-1.353528,-2.669523,0.191799,0.97649,-0.098361,-1.153637,-0.042977,-2.081828,0.130497,0.645702,0.385425
652,1.121618,-1.3833520000000001,-2.621126,0.167851,0.982484,-0.080911,-1.262191,-1.304707,-0.547003,0.48786499999999994,0.162109,-0.11191400000000001
653,1.2564030000000002,-1.403198,-2.4673700000000003,0.158622,0.9859879999999999,-0.051579999999999994,-1.709597,-0.53247,-0.40370300000000003,0.31411100000000003,-0.138546,0.047735
654,1.399731,-1.4171770000000001,-2.3097540000000003,0.150765,0.988224,-0.026045,-1.154726,-0.761263,-0.41235299999999997,-0.093025,-0.031849,0.158827
655,1.510536,-1.430447,-2.1794919999999998,0.13961600000000002,0.990167,-0.008424,-1.0262950000000002,-0.878059,-0.619609,-0.222349,-0.067102,0.23195
656,1.6680709999999999,-1.4431209999999999,-2.010063,0.126708,0.9918610000000001,0.012365000000000001,-1.174707,-0.242431,-0.671667,-0.179534,-0.119027,0.21935500000000002
657,1.886254,-1.4523110000000001,-1.791337,0.112353,0.9929889999999999,0.036667,-1.217391,0.161733,-0.740849,-0.078677,-0.077004,0.068771
658,2.115179,-1.45604,-1.5648959999999998,0.097933,0.993423,0.059289,-1.03601,0.202491,-0.701178,0.014188999999999998,-0.078658,-0.029564999999999998
659,2.309116,-1.456264,-1.3719290000000002,0.084505,0.993448,0.076901,-0.785209,0.06069,-0.622333,0.137998,-0.092997,-0.107953
660,2.459435,-1.45455,-1.218299,0.073111,0.993251,0.090012,-0.603147,-0.221335,-0.582244,0.146386,-0.032878,-0.25157199999999996
661,2.590249,-1.453699,-1.079438,0.061188,0.993152,0.09950099999999999,-0.458614,-0.443029,-0.678158,0.116729,-0.037586,-0.26898
662,2.722721,-1.452441,-0.933099,0.048017000000000004,0.9930040000000001,0.107851,-0.468218,-0.739969,-0.737665,0.138994,-0.053246,-0.098345
663,2.846746,-1.447217,-0.7939229999999999,0.035813,0.992374,0.117923,-0.597002,-0.604498,-0.671441,0.22247199999999998,-0.084995,0.11585699999999999
664,2.964805,-1.436733,-0.667921,0.023503,0.991027,0.131557,-0.76285,-0.226852,-0.662401,0.162395,-0.134704,0.12044200000000001
665,3.069477,-1.4214719999999998,-0.559485,0.010718,0.988872,0.148362,-0.885036,-0.134729,-0.683668,0.059137,-0.068584,-0.047318
666,-3.121956,-1.404688,-0.46186000000000005,-0.003246,0.9862360000000001,0.165296,-0.824565,-0.305005,-0.7781,0.040966,0.01854,-0.285581
667,-3.0450310000000003,-1.38963,-0.374874,-0.017369,0.983634,0.17932,-0.606577,-0.48571800000000004,-0.796642,0.13384000000000001,0.00715,-0.389709
668,-2.978182,-1.380794,-0.298773,-0.030722000000000003,0.9820040000000001,0.18633,-0.1709,-0.317125,-0.711561,0.238654,-0.0207,-0.24469499999999997
669,-2.91603,-1.381168,-0.232936,-0.042154000000000004,0.982074,0.183704,0.29478899999999997,-0.02968,-0.5377609999999999,0.312448,0.03909,-0.034061
670,-2.8663950000000002,-1.387022,-0.185028,-0.049652999999999996,0.9831610000000001,0.175848,0.407584,0.20945300000000003,-0.23070100000000002,0.275895,-0.018409000000000002,-0.055425999999999996
671,-2.850863,-1.396188,-0.173327,-0.049792,0.9847950000000001,0.166414,0.571059,0.17961,0.16358399999999998,0.141665,0.13411700000000001,-0.121583
672,-2.8511919999999997,-1.416042,-0.176826,-0.044129,0.988049,0.14766300000000002,1.2044709999999998,0.113574,0.41058,0.239182,0.37359899999999996,-0.049747
673,-2.8778479999999997,-1.4526860000000001,-0.202678,-0.030713,0.9930329999999999,0.11373599999999999,2.0099270000000002,-0.152066,0.8737450000000001,0.12850599999999998,0.323251,0.07800599999999999
674,-3.100773,-1.500615,-0.42055200000000004,-0.00286,0.9975379999999999,0.070021,2.2143770000000003,-0.38717199999999996,1.680914,-0.028482,0.21222399999999997,-0.055968
675,2.159813,-1.5233649999999999,-1.43107,0.03937,0.998875,0.026304,2.195997,-0.842059,2.232571,-0.254794,0.250407,-0.22726300000000002
676,1.291008,-1.483101,-2.2859279999999997,0.08414500000000001,0.996157,-0.024177,2.685938,-0.585832,2.200413,-0.208443,0.28758,0.008612999999999999
677,0.9912120000000001,-1.4208370000000001,-2.582761,0.124983,0.988777,-0.081811,2.936451,-0.1087,2.011409,-0.170119,0.44791400000000003,0.009545
678,0.8677440000000001,-1.3573469999999999,-2.7103200000000003,0.16159,0.9773059999999999,-0.136951,2.693959,0.244854,1.718705,-0.072891,0.568211,0.06998
679,0.808372,-1.303345,-2.7767209999999998,0.191107,0.964448,-0.18252100000000002,2.215313,0.186276,1.3319450000000002,0.067057,0.18843,0.143795
680,0.773774,-1.2574459999999998,-2.814311,0.21541,0.951306,-0.220477,1.86253,-0.040188,1.2614049999999999,0.068968,0.046405,0.11183499999999999
681,0.758599,-1.213991,-2.823485,0.240269,0.937018,-0.253504,1.57571,-0.483271,1.491774,-0.034779000000000004,0.046549,0.046931
682,0.756579,-1.1706219999999998,-2.812087,0.267418,0.9209930000000001,-0.28329299999999996,1.3436379999999999,-0.612295,1.724259,-0.12601500000000002,0.022609999999999998,0.053770000000000005
683,0.767551,-1.129677,-2.786673,0.29646100000000003,0.904274,-0.307236,0.970987,-0.613397,1.790023,-0.164732,-0.002892,0.086976
684,0.78668,-1.095166,-2.753356,0.324194,0.8890040000000001,-0.323364,0.574679,-0.558457,1.714545,-0.23549499999999998,-0.153683,0.145675
685,0.7995140000000001,-1.064718,-2.719047,0.347571,0.8746520000000001,-0.337895,0.47995,-1.100945,1.596006,-0.275779,-0.182315,0.245274
686,0.7985949999999999,-1.0384229999999999,-2.690083,0.363615,0.861605,-0.354142,0.299698,-1.3379370000000002,1.3450870000000001,-0.327131,-0.187334,0.28013699999999997
687,0.800758,-1.021313,-2.659525,0.374909,0.852794,-0.363565,-0.136227,-1.061456,1.046859,-0.42591999999999997,-0.282177,0.250544
688,0.812991,-1.0145440000000001,-2.627204,0.383513,0.84924,-0.362912,-0.504866,-0.582601,0.697566,-0.409804,-0.302563,0.161496
689,0.832556,-1.016702,-2.596698,0.389183,0.850377,-0.354105,-0.7552760000000001,-0.16480699999999998,0.331018,-0.364738,-0.334875,0.10398299999999999
690,0.859547,-1.027536,-2.567009,0.39159499999999997,0.856028,-0.337438,-1.0623479999999998,0.23610100000000003,-0.026289999999999997,-0.18465499999999999,-0.366236,0.120779
691,0.8960600000000001,-1.0465440000000001,-2.5358,0.390873,0.865699,-0.31269600000000003,-1.2790920000000001,0.6130359999999999,-0.32739,-0.17426,-0.39026500000000003,0.145429
692,0.9370700000000001,-1.070336,-2.505682,0.386654,0.8773620000000001,-0.28412800000000005,-1.308047,0.784668,-0.59914,-0.165677,-0.42461800000000005,0.11051400000000002
693,0.974317,-1.0978649999999999,-2.480086,0.376837,0.8902370000000001,-0.255865,-1.271045,0.6695399999999999,-0.87754,-0.155584,-0.382409,0.043142
694,1.0056209999999999,-1.12771,-2.458259,0.362054,0.903433,-0.229609,-1.1514030000000002,0.566341,-1.014373,-0.09415599999999999,-0.222219,0.070246
695,1.027727,-1.152319,-2.4464740000000003,0.347898,0.913709,-0.209995,-0.68598,0.606445,-0.7911189999999999,0.019991,-0.04054,0.08998400000000001
696,1.057859,-1.166376,-2.4287259999999997,0.34284000000000003,0.9193309999999999,-0.19309500000000002,-0.7064600000000001,0.6235229999999999,-0.249696,0.024637,0.0042840000000000005,-0.132055
697,1.087525,-1.178172,-2.3997330000000003,0.33879000000000004,0.923908,-0.177789,-0.819535,-0.12269000000000001,-0.287985,0.015168000000000001,-0.022525999999999997,-0.251975
698,1.120312,-1.190806,-2.361855,0.3339,0.928668,-0.161492,-0.958227,-0.009739,-0.175867,0.121895,-0.24274,0.042366
699,1.1574229999999999,-1.198182,-2.321422,0.33338,0.9313790000000001,-0.14623699999999998,-0.725118,-0.127632,0.066262,-0.004141,-0.173993,-0.102466
700,1.186596,-1.202227,-2.281877,0.33400799999999997,0.932844,-0.135037,-0.801668,-0.553434,0.055590999999999995,-0.10475999999999999,-0.168775,-0.369053
701,1.203154,-1.209741,-2.247718,0.32964699999999997,0.935525,-0.12696400000000002,-0.541248,-0.825867,-0.239207,-0.08530800000000001,-0.23041599999999998,-0.401905
702,1.193581,-1.219373,-2.241875,0.320023,0.938884,-0.126789,-0.201203,-0.69384,-0.516875,-0.050598000000000004,-0.419566,-0.10937100000000001
703,1.188407,-1.235391,-2.235093,0.30537,0.944277,-0.12281600000000001,-0.583202,-0.5251399999999999,-0.814589,-0.106472,-0.472017,0.089826
704,1.212101,-1.258686,-2.1991810000000003,0.287514,0.9516879999999999,-0.107793,-1.190233,-0.572873,-0.872179,-0.10376800000000001,-0.37086199999999997,0.13329000000000002
705,1.274586,-1.282701,-2.116027,0.271741,0.9587870000000001,-0.082932,-1.734492,-1.069458,-0.62538,-0.12843,-0.176957,0.057923
706,1.35422,-1.299635,-2.001746,0.26158000000000003,0.96346,-0.057554999999999995,-1.645325,-1.764693,-0.26814899999999997,0.0032670000000000004,0.611186,-0.190401
707,1.416877,-1.303661,-1.9012259999999999,0.260836,0.9645309999999999,-0.040468000000000004,-1.1104120000000002,-1.4032200000000001,0.24680300000000002,0.175932,0.755943,-0.075041
708,1.476105,-1.2951489999999999,-1.8273110000000001,0.270937,0.962249,-0.025731999999999998,-1.007059,-0.33771799999999996,0.6328560000000001,0.342405,0.759125,0.18573599999999998
709,1.518491,-1.289685,-1.7751240000000001,0.27703,0.9607479999999999,-0.014503,-0.464454,-0.455862,0.137938,-0.23622800000000002,0.64968,-0.027245
710,1.545977,-1.288343,-1.739544,0.278613,0.960375,-0.006915999999999999,-0.475058,-0.25853000000000004,0.083131,-0.093112,0.31001100000000004,0.266545
711,1.575294,-1.28703,-1.706274,0.279957,0.960008,0.001259,-0.422048,-0.09572699999999999,0.08329299999999999,0.283611,1.156814,-0.28377600000000003
712,1.569202,-1.282733,-1.7110889999999999,0.284083,0.9587959999999999,-0.000453,0.393335,0.012144,0.371929,0.38760900000000004,0.056432,-0.006337
713,1.527406,-1.27427,-1.7514919999999998,0.29191300000000003,0.956357,-0.012674,0.554551,-0.430533,0.37896399999999997,0.201602,0.066928,0.040155
714,1.488157,-1.2711430000000001,-1.773479,0.294171,0.9554389999999999,-0.024366,0.193849,-1.107236,-0.043568,-0.111035,0.115423,0.206006
715,1.466839,-1.278024,-1.773897,0.287039,0.9574469999999999,-0.029948000000000002,-0.13685799999999998,-0.869785,-0.5290189999999999,-0.349508,-0.056218,0.265971
716,1.467777,-1.294614,-1.764471,0.271227,0.962103,-0.028041000000000003,-0.251413,-0.177452,-0.937699,-0.354647,-0.175696,0.030208
717,1.485949,-1.311644,-1.7462389999999999,0.25532699999999997,0.966607,-0.021716,-0.36652399999999996,0.11058,-0.673953,-0.067492,-0.169915,-0.058744000000000005
718,1.522176,-1.322999,-1.7120970000000002,0.244966,0.969455,-0.01192,-0.527129,0.170044,-0.48714399999999997,0.184416,-0.162509,0.028949000000000003
719,1.5654540000000001,-1.3317219999999999,-1.668779,0.236785,0.971558,-0.001265,-0.5038229999999999,-0.013628999999999999,-0.395947,0.193879,-0.267441,-0.062303
720,1.599178,-1.339399,-1.633541,0.22923000000000002,0.973347,0.006508,-0.361815,0.012502,-0.39392,0.040118,-0.36246100000000003,-0.140373
721,1.629689,-1.3471309999999999,-1.6032629999999999,0.221404,0.9750909999999999,0.013054,-0.29035500000000003,0.007992,-0.393415,0.01024,-0.367394,-0.13546
722,1.638738,-1.3545719999999999,-1.5899780000000001,0.21403000000000003,0.976715,0.014563999999999999,-0.014639,-0.353072,-0.380349,-0.026621,-0.41801400000000005,-0.098777
723,1.613652,-1.36313,-1.605833,0.205969,0.9785149999999999,0.008832,0.33068400000000003,-0.501001,-0.44931800000000005,0.045236,-0.346053,-0.329465
724,1.571321,-1.3738549999999998,-1.640282,0.195651,0.98067,0.000103,0.304359,-0.31290999999999997,-0.576862,0.087598,-0.374636,-0.05564500000000001
725,1.536761,-1.385903,-1.6742549999999998,0.18371300000000002,0.9829559999999999,-0.006255,0.356074,0.018284,-0.5950850000000001,0.090503,-0.310379,-0.097444
726,1.469839,-1.393701,-1.738709,0.17525,0.98436,-0.017753,0.716571,-0.41032399999999997,-0.283301,0.15765099999999999,-0.075699,-0.5160600000000001
727,1.330447,-1.3920620000000001,-1.8636490000000001,0.172651,0.9840690000000001,-0.042315,1.31075,-0.935206,-0.074448,0.177538,-0.050018,-0.332746
728,1.1489200000000002,-1.384141,-2.030597,0.169283,0.9826299999999999,-0.075978,1.7392419999999997,-0.87774,-0.164464,0.103224,-0.31927,0.123677
729,0.937312,-1.3631389999999999,-2.2216419999999997,0.16615,0.978517,-0.122031,2.412664,-1.506505,0.113442,-0.43826000000000004,0.290298,-0.527383
730,0.739648,-1.3189819999999999,-2.379962,0.167931,0.968462,-0.18404600000000002,3.002038,-2.361602,0.587604,-0.496957,0.856856,-0.296194
731,0.610826,-1.25791,-2.481611,0.176534,0.951449,-0.252137,3.3994800000000005,-0.981492,0.897328,-0.40471399999999996,0.9721040000000001,-0.069731
732,0.54183,-1.1873770000000001,-2.546551,0.192917,0.927391,-0.32050300000000004,3.576715,-0.100624,1.038443,-0.134461,0.784569,0.23174299999999998
733,0.515684,-1.119549,-2.585314,0.215045,0.899904,-0.379372,3.112505,0.789572,1.0020129999999998,-0.078723,0.718916,0.25455500000000003
734,0.514284,-1.064915,-2.6081380000000003,0.238367,0.874748,-0.42189099999999996,2.335282,1.011209,0.8617040000000001,0.12244200000000001,0.56205,0.023652
735,0.5254340000000001,-1.022769,-2.610394,0.261327,0.853554,-0.45072,1.56321,0.392896,1.11134,0.23844400000000002,0.592476,-0.275796
736,0.540235,-0.9882110000000001,-2.592838,0.282978,0.835043,-0.47182700000000005,1.099648,-0.17646199999999998,1.3716139999999999,0.089184,0.39605100000000004,-0.158223
737,0.560087,-0.959399,-2.5644810000000002,0.30494699999999997,0.818847,-0.486304,0.598295,-0.122656,1.404363,-0.11741700000000001,0.125932,0.053778999999999993
738,0.58486,-0.943392,-2.534211,0.32409499999999997,0.809554,-0.489469,-0.037066,0.080312,1.015105,-0.218504,-0.198439,0.187375
739,0.611816,-0.9403100000000001,-2.5053509999999997,0.338602,0.8077409999999999,-0.482596,-0.51494,0.22401,0.6590689999999999,-0.23522300000000002,-0.38647600000000004,0.264227
740,0.63755,-0.9468280000000001,-2.478112,0.347765,0.811566,-0.469483,-0.856381,0.142296,0.344868,-0.227663,-0.472775,0.28329499999999996
741,0.663192,-0.9618909999999999,-2.448877,0.352121,0.820275,-0.450726,-1.284656,0.09022000000000001,0.152868,-0.233713,-0.533379,0.245098
742,0.696655,-0.986843,-2.411938,0.353758,0.834289,-0.42285900000000004,-1.8369529999999998,0.183589,-0.073299,-0.256682,-0.616898,0.168739
743,0.739754,-1.023883,-2.366699,0.350567,0.8541340000000001,-0.38412399999999997,-2.387368,0.303143,-0.45544799999999996,-0.21133000000000002,-0.705742,0.18927
744,0.794407,-1.070964,-2.313612,0.341935,0.877663,-0.335829,-2.740155,0.528337,-0.787213,-0.185792,-0.659798,0.248854
745,0.867291,-1.124032,-2.246257,0.329465,0.90185,-0.279485,-3.015828,0.6921,-1.008334,-0.1797,-0.653223,0.196019
746,0.95768,-1.181613,-2.163981,0.310313,0.925219,-0.21832600000000002,-3.079471,0.814449,-1.445838,-0.219142,-0.481753,0.051822
747,1.059197,-1.240541,-2.0716669999999997,0.282752,0.945959,-0.158754,-2.8363509999999996,0.579006,-1.652141,-0.241614,-0.031439,-0.191878
748,1.154355,-1.291217,-1.9677779999999998,0.25235100000000005,0.9611719999999999,-0.11161800000000001,-2.278265,-0.698574,-1.524829,-0.30919,0.285227,-0.432892
749,1.199807,-1.326792,-1.890426,0.225134,0.9703780000000001,-0.087577,-1.085409,-1.891271,-1.064178,-0.341528,0.604542,-0.60569
750,1.1549120000000002,-1.340031,-1.9001279999999998,0.20920500000000003,0.973492,-0.092394,0.28739899999999996,-1.238464,-0.338649,-0.024925,0.320469,-0.180677
751,1.1251120000000001,-1.330665,-1.932996,0.21458000000000002,0.9713069999999999,-0.10251400000000001,0.618386,0.879951,0.5433,0.509404,-0.358956,-0.22030100000000002
752,1.1368719999999999,-1.308973,-1.97334,0.234837,0.9659200000000001,-0.108819,1.171843,3.398823,0.988318,0.302623,-0.629143,-0.404777
753,1.1997959999999999,-1.288573,-1.978057,0.25952800000000004,0.9604389999999999,-0.10096000000000001,-0.421838,3.0523279999999997,0.575979,0.029564999999999998,-0.693608,-0.321998
754,1.333104,-1.299495,-1.879609,0.260432,0.9634229999999999,-0.063095,-1.824685,1.143685,-0.420548,-0.738063,0.521654,0.189316
755,1.397252,-1.314363,-1.7933970000000001,0.24980100000000002,0.967301,-0.043792000000000005,-0.251253,-2.1677150000000003,-0.5879800000000001,-0.272323,0.9419860000000001,1.040634
756,1.360451,-1.315215,-1.795448,0.247214,0.9675159999999999,-0.052780999999999995,-0.806383,-1.265197,0.633305,0.396554,0.90814,0.26957800000000004
757,1.432105,-1.295399,-1.71524,0.269298,0.962317,-0.037591,-0.079692,-0.257738,1.14129,0.585484,0.152276,-0.294212
758,1.42619,-1.281888,-1.707368,0.281914,0.9585549999999999,-0.041053,-0.250942,-0.68013,0.360833,-0.291756,0.7352770000000001,-0.107293
759,1.436178,-1.280683,-1.689612,0.283453,0.9582120000000001,-0.03839,-0.084503,-0.016951,0.072726,-0.044806,1.316065,0.075667
760,1.432408,-1.279001,-1.697353,0.284902,0.957729,-0.039681,0.149873,0.070947,-0.000525,0.108195,0.41910200000000003,0.027320999999999998
761,1.427686,-1.2830190000000001,-1.6983669999999997,0.280901,0.9588770000000001,-0.040477,-0.123129,-0.24205300000000002,-0.343862,-0.087862,0.42813199999999996,0.187617
762,1.44401,-1.294967,-1.6813930000000001,0.270138,0.9622,-0.034434,-0.42912,0.189634,-0.673428,-0.13575399999999999,0.33432399999999995,0.163737
763,1.490438,-1.3117510000000001,-1.6457650000000001,0.255308,0.966635,-0.02056,-0.620708,0.8375879999999999,-0.840103,-0.201276,-0.025442,0.0866
764,1.565032,-1.32926,-1.5889879999999998,0.239166,0.970972,-0.001379,-0.797179,0.9936709999999999,-0.8255120000000001,-0.081863,-0.156686,0.09139
765,1.65762,-1.3434780000000002,-1.5137399999999999,0.22449000000000002,0.974274,0.019540000000000002,-0.8781,0.94434,-0.673258,0.21502399999999997,-0.359635,0.055289
766,1.767247,-1.350616,-1.4204219999999999,0.214177,0.975858,0.042625,-1.040399,0.9427719999999999,-0.407335,0.171794,-0.395398,-0.020668000000000002
767,1.891364,-1.352883,-1.31389,0.20515300000000003,0.976351,0.068115,-1.0793549999999998,1.018701,-0.44722799999999996,0.000291,-0.350389,-0.24682600000000002
768,2.001423,-1.356119,-1.217802,0.193556,0.977045,0.088916,-0.750979,0.620653,-0.556588,0.046892,-0.202295,-0.376986
769,2.071911,-1.3612799999999998,-1.1527450000000001,0.182387,0.978132,0.09990299999999999,-0.334692,0.23870500000000003,-0.506189,0.135744,-0.128751,-0.433246
770,2.0847330000000004,-1.367985,-1.143621,0.175376,0.979504,0.099006,0.365861,0.202078,-0.21282800000000002,0.27395,-0.1405,-0.344505
771,2.018834,-1.375907,-1.2178200000000001,0.174515,0.9810690000000001,0.083878,1.101684,0.42734399999999995,0.091125,0.178177,-0.453741,-0.146485
772,1.883493,-1.3829870000000002,-1.3635030000000001,0.177623,0.982416,0.057426,1.566719,0.29522,0.22807,0.190831,-0.501398,-0.128334
773,1.704045,-1.385434,-1.545407,0.18263900000000002,0.98287,0.024481,1.655775,-0.278316,0.255064,0.200632,-0.523839,-0.337271
774,1.537536,-1.382889,-1.699831,0.186671,0.982397,-0.006211,1.3097290000000001,-0.935052,0.154144,0.118199,-0.49378,-0.090652
775,1.389685,-1.377809,-1.8300310000000002,0.188628,0.9814360000000001,-0.034541,1.173003,-1.030214,0.094559,0.135606,-0.414389,-0.098088
776,1.264566,-1.372751,-1.9378330000000001,0.187574,0.980453,-0.059307000000000006,1.003666,-0.895782,-0.07664299999999999,0.006823,-0.20906,0.112819
777,1.176442,-1.370334,-2.012282,0.183814,0.979975,-0.07649500000000001,0.622736,-0.766232,-0.17561,-0.024391,-0.29485500000000003,0.175982
778,1.0853700000000002,-1.368331,-2.0832900000000003,0.177832,0.979574,-0.093811,0.791354,-1.260984,-0.20584499999999997,0.023645,-0.250417,0.094635
779,0.9483469999999999,-1.356834,-2.189478,0.172492,0.977197,-0.12378199999999999,1.529868,-1.938769,0.020236,0.084939,0.019750999999999998,-0.197629
780,0.793445,-1.3277459999999999,-2.3055630000000003,0.171525,0.970608,-0.168787,2.177478,-2.036283,0.400898,-0.105851,0.805133,-0.20679299999999998
781,0.661194,-1.279161,-2.40326,0.176544,0.957775,-0.226915,2.977421,-1.9086470000000002,0.8218610000000001,-0.24043299999999998,0.914234,-0.038419999999999996
782,0.566496,-1.215838,-2.472496,0.18651700000000002,0.9376610000000001,-0.293249,3.328154,-0.8919819999999999,0.952263,-0.42167,1.064155,0.12025999999999999
783,0.513374,-1.1470200000000002,-2.526532,0.20194600000000001,0.911543,-0.35819,3.528234,0.277575,0.807952,-0.367458,0.8485590000000001,0.081259
784,0.49895500000000004,-1.082835,-2.571183,0.224334,0.8832899999999999,-0.411662,3.00405,1.757367,0.6987760000000001,-0.352996,1.0629680000000001,-0.004415
785,0.52274,-1.03053,-2.584876,0.256796,0.8575719999999999,-0.445668,2.1543099999999997,1.6211010000000001,1.145942,-0.055365,0.8822049999999999,-0.19889400000000002
786,0.554621,-0.988175,-2.578187,0.289752,0.835023,-0.467733,1.459414,1.1990180000000001,1.2740879999999999,0.355039,0.386916,-0.230906
787,0.590584,-0.956918,-2.561452,0.320764,0.81742,-0.478465,0.856196,1.0277889999999998,1.19425,0.525992,-0.009208,-0.11571300000000001
788,0.6202840000000001,-0.935941,-2.5431630000000003,0.344723,0.805158,-0.48257700000000003,0.37395300000000004,0.520282,0.9223399999999999,0.310855,-0.17912,0.068881
789,0.638828,-0.926082,-2.5249740000000003,0.35832800000000004,0.799271,-0.48245200000000005,-0.10401300000000001,0.003221,0.638722,-0.006842,-0.222077,0.16680799999999998
790,0.651701,-0.92742,-2.503448,0.36386,0.800075,-0.476948,-0.6622600000000001,-0.290036,0.40018899999999996,-0.224227,-0.349071,0.181767
791,0.67023,-0.9398540000000001,-2.472563,0.36642600000000003,0.8074720000000001,-0.462293,-1.279623,-0.297115,0.308292,-0.315797,-0.441597,0.1974
792,0.7007770000000001,-0.9618690000000001,-2.430917,0.36882,0.820262,-0.43718900000000005,-1.8136729999999999,-0.06472,0.197442,-0.329239,-0.536082,0.195139
793,0.746352,-0.9928739999999999,-2.379274,0.370904,0.837599,-0.401061,-2.3029900000000003,0.256467,-0.04567,-0.289193,-0.531478,0.18137999999999999
