,attitude.roll,attitude.pitch,attitude.yaw,gravity.x,gravity.y,gravity.z,rotationRate.x,rotationRate.y,rotationRate.z,userAcceleration.x,userAcceleration.y,userAcceleration.z
0,0.715184,-1.209773,0.074633,0.231627,0.935536,-0.266673,-0.939465,-0.769962,-1.5471409999999999,0.0016179999999999999,-0.526692,0.015635
1,0.679044,-1.244984,0.053424,0.201018,0.947391,-0.24906799999999998,-1.20858,-0.794614,-1.276593,-0.040206,-0.283954,-0.060319000000000005
2,0.662668,-1.2757399999999999,0.051847000000000004,0.178895,0.956786,-0.229238,-1.12179,-0.6999350000000001,-0.786862,0.011626000000000001,0.010789,-0.078608
3,0.662928,-1.2987870000000001,0.06314600000000001,0.16533699999999998,0.963233,-0.21175100000000002,-0.977773,-0.42564700000000005,-0.507402,-0.059471,0.023126,0.134771
4,0.6705369999999999,-1.320215,0.081022,0.154079,0.9687680000000001,-0.194267,-0.9742200000000001,-0.571655,-0.494371,-0.204753,0.026501,0.148582
5,0.666622,-1.3410799999999998,0.093913,0.140785,0.9737309999999999,-0.17894000000000002,-0.869029,-0.9457690000000001,-0.534818,-0.221992,0.150842,0.005097
6,0.6528390000000001,-1.361912,0.097929,0.125953,0.9782629999999999,-0.164711,-0.8772549999999999,-0.73019,-0.62595,-0.224464,-0.055578999999999996,0.07167799999999999
7,0.662879,-1.3822020000000002,0.112902,0.11535899999999999,0.9822690000000001,-0.147759,-0.891401,0.136126,-0.409242,-0.269656,-0.137268,0.073219
8,0.723967,-1.400663,0.160975,0.112132,0.985562,-0.126831,-1.086436,0.895386,-0.170159,-0.139751,0.117572,-0.011002
9,0.8247049999999999,-1.4160190000000001,0.24688400000000002,0.11318900000000001,0.9880459999999999,-0.10462300000000001,-0.890358,0.5774779999999999,0.039921,-0.099823,0.323523,0.148401
10,0.858188,-1.41803,0.27679699999999996,0.115123,0.9883540000000001,-0.099475,0.23500500000000002,0.046287,0.034575999999999996,-0.22791599999999998,0.231998,0.25258200000000003
11,0.77112,-1.410548,0.197215,0.11118900000000001,0.987188,-0.11441099999999998,0.8228469999999999,-0.701435,-0.233825,-0.17523,0.648768,0.10229500000000001
12,0.704306,-1.41119,0.141626,0.10289200000000001,0.98729,-0.12109600000000001,-0.211466,-0.5032800000000001,-0.40581,-0.145952,1.111053,-0.023816999999999998
13,0.7424029999999999,-1.423606,0.182998,0.09913200000000001,0.989187,-0.108045,-0.732021,0.192392,0.032975,0.371235,0.700815,-0.04584
14,0.8164,-1.428152,0.24762399999999998,0.10357000000000001,0.989843,-0.09734,-0.368218,0.650428,0.258187,0.360953,0.399408,0.215031
15,0.896864,-1.426434,0.31709899999999996,0.11238699999999999,0.989598,-0.08976100000000001,-0.245414,0.345812,0.40471399999999996,0.27276,-0.21434499999999998,0.243829
16,0.909916,-1.423835,0.334731,0.11558,0.9892209999999999,-0.089865,0.098188,-0.444493,0.07484099999999999,0.065496,-0.377603,0.192267
17,0.8868219999999999,-1.4208319999999999,0.31990999999999997,0.115776,0.988776,-0.094387,0.17982599999999999,-0.35834,0.037913,-0.081368,-0.42607799999999996,0.024426
18,0.8793719999999999,-1.4202190000000001,0.318922,0.11553699999999999,0.988685,-0.095634,-0.113226,-0.302906,0.015499,-0.066206,-0.23135999999999998,0.034706
19,0.9128280000000001,-1.424656,0.355049,0.115201,0.98934,-0.089034,-0.43813199999999997,0.015795,-0.014952000000000002,-0.204221,-0.007422,0.086531
20,0.957717,-1.427842,0.39812800000000004,0.116501,0.989799,-0.08196,-0.248063,0.15851600000000002,0.093014,-0.09375,-0.130074,-0.031062
21,0.980497,-1.426075,0.414882,0.11979100000000001,0.9895459999999999,-0.080259,0.071744,0.42337600000000003,0.180367,-0.044321,-0.19717300000000001,-0.059329
22,0.991009,-1.4209379999999998,0.411812,0.12488099999999999,0.988792,-0.08177999999999999,0.168473,0.8331120000000001,0.195472,-0.010135,-0.287971,-0.06665700000000001
23,1.004665,-1.418285,0.40841,0.1282,0.9883930000000001,-0.081474,0.049593,0.767227,-0.008236,0.112935,-0.178456,0.020546000000000002
24,1.000251,-1.42143,0.393892,0.125221,0.988866,-0.080359,-0.009784000000000001,0.357263,-0.264498,0.19117,-0.10088,0.098593
25,0.9814430000000001,-1.423734,0.368739,0.12179300000000001,0.9892059999999999,-0.081433,0.19201400000000002,0.311187,-0.106001,0.19971,-0.15551099999999998,0.003522
26,0.948033,-1.420682,0.326473,0.121456,0.9887540000000001,-0.087216,0.384437,0.424388,-0.077028,0.222004,-0.121673,-0.062228
27,0.892181,-1.418779,0.265974,0.11786400000000001,0.988468,-0.095042,0.44955200000000006,0.010511,-0.261914,0.387141,-0.10721099999999999,-0.07863300000000001
28,0.820691,-1.4165290000000001,0.199345,0.112401,0.988124,-0.104735,0.43354499999999996,-0.409377,-0.20594,0.45083100000000004,-0.005229,0.036558999999999994
29,0.763201,-1.412158,0.15288800000000002,0.10918199999999999,0.9874430000000001,-0.11414,0.42290600000000006,-0.7146640000000001,-0.042185,0.20373,-0.131715,0.221577
30,0.705982,-1.403858,0.113542,0.10779000000000001,0.9860979999999999,-0.126431,0.6043350000000001,-1.023776,0.11223399999999999,0.11581199999999998,-0.20712199999999997,0.317639
31,0.646804,-1.385466,0.076053,0.11103800000000001,0.982875,-0.147036,1.186866,-1.155015,0.45830200000000004,-0.088439,-0.286876,0.376177
32,0.582342,-1.349197,0.032323000000000005,0.12087300000000001,0.9755469999999999,-0.183552,2.057711,-0.981568,0.8166760000000001,-0.47409799999999996,-0.109885,0.041782
33,0.550091,-1.301441,0.012369,0.13910699999999998,0.963943,-0.22684200000000002,1.947271,-0.448101,1.237169,-0.515297,0.094621,-0.196223
34,0.57694,-1.261239,0.040154,0.16616199999999998,0.952469,-0.255319,1.286748,0.254132,1.489096,-0.005425999999999999,0.46138,0.13028800000000001
35,0.612062,-1.225589,0.075448,0.19442,0.941005,-0.276954,1.0776700000000001,-0.043147000000000005,1.420719,0.091301,0.275395,0.21241
36,0.6269399999999999,-1.196134,0.101853,0.214692,0.930631,-0.29635700000000004,0.8337760000000001,-0.723929,1.117581,0.20887600000000003,0.100329,0.126145
37,0.633354,-1.1754209999999998,0.11901800000000001,0.22795,0.922852,-0.310447,0.531373,-0.183686,0.810333,-0.036895,0.873352,0.022316
38,0.656844,-1.162929,0.14213,0.2422,0.917969,-0.31411300000000003,0.06586399999999999,0.230025,0.585429,-0.258695,0.40727199999999997,0.005092
39,0.682244,-1.1586049999999999,0.167898,0.2526,0.9162450000000001,-0.31093899999999997,-0.304501,0.12189000000000001,0.509274,-0.419775,0.22248800000000002,-0.048313999999999996
40,0.719201,-1.161914,0.197006,0.261917,0.917566,-0.29911,-0.56484,0.7419680000000001,0.18085299999999999,-0.195908,-0.21088600000000002,-0.016182
41,0.747909,-1.171401,0.21054699999999998,0.264462,0.9212959999999999,-0.285074,-0.497341,0.7905770000000001,-0.311188,-0.035886,-0.31273,0.044763
42,0.756359,-1.187764,0.20612800000000003,0.25648000000000004,0.927536,-0.271826,-0.592318,0.5329520000000001,-0.803972,-0.00233,-0.316711,0.033972
43,0.743371,-1.212134,0.18670899999999999,0.23755700000000002,0.9363670000000001,-0.258413,-0.668247,0.055603,-1.243998,0.23928000000000002,-0.329739,0.042517
44,0.702814,-1.241398,0.149923,0.20907699999999999,0.9462370000000001,-0.24681199999999998,-0.6961649999999999,-0.496072,-1.520155,0.31404,-0.367899,0.019166
45,0.644178,-1.272386,0.10318900000000002,0.176554,0.9558049999999999,-0.235073,-0.814954,-0.782346,-1.488572,0.28934299999999996,-0.38537,-0.009403
46,0.594078,-1.301453,0.0681,0.14894100000000002,0.9639459999999999,-0.220496,-0.935384,-0.80706,-1.065297,0.050843,-0.226046,-0.074441
47,0.570002,-1.325901,0.057533,0.13083,0.9701629999999999,-0.204112,-0.939716,-0.621317,-0.625458,-0.032655,0.029319,-0.014318
48,0.5683729999999999,-1.345566,0.065525,0.120202,0.974743,-0.18820499999999998,-0.8373879999999999,-0.410617,-0.39214099999999996,-0.067651,0.11855,0.017429
49,0.565064,-1.3644450000000001,0.072,0.109703,0.978785,-0.17302599999999999,-0.842933,-0.577363,-0.512675,-0.272621,0.201269,0.08443400000000001
50,0.548988,-1.384422,0.070619,0.096682,0.982683,-0.158052,-0.833835,-0.735933,-0.5594100000000001,-0.22108699999999998,0.001113,0.11718900000000002
51,0.528546,-1.403411,0.05898,0.084004,0.986024,-0.143851,-0.701391,-0.219769,-0.5506,-0.19426400000000002,-0.260285,0.040594
52,0.515526,-1.4181059999999999,0.043325,0.07497100000000001,0.9883649999999999,-0.13230899999999998,-0.523705,0.310526,-0.385533,-0.18321700000000002,-0.283669,-0.042587
53,0.5605720000000001,-1.429915,0.07430700000000001,0.074642,0.990093,-0.118904,-0.713882,0.93895,0.067396,-0.11729,-0.131053,0.135933
54,0.655193,-1.437934,0.158077,0.0807,0.991187,-0.105019,-0.451126,0.252273,0.265596,-0.018032,0.13659000000000002,0.199715
55,0.641874,-1.429238,0.14798,0.084452,0.9899969999999999,-0.11298499999999999,0.9302790000000001,-0.375308,0.16709100000000002,0.094152,1.1134110000000002,-0.219931
56,0.562192,-1.410406,0.072463,0.085117,0.987165,-0.135105,0.852244,-0.166373,-0.066594,0.118755,1.706912,-0.145092
57,0.49983999999999995,-1.4224700000000001,0.029082,0.07081900000000001,0.9890200000000001,-0.129682,-0.823041,-1.449697,-0.8276120000000001,-0.01871,1.979944,0.292982
58,0.440047,-1.417843,-0.0163,0.06489199999999999,0.988325,-0.137822,1.00207,-0.13230899999999998,0.342468,0.545856,-0.20492399999999997,-0.074412
59,0.497867,-1.401033,0.030343000000000002,0.08067300000000001,0.985625,-0.148422,0.083079,0.669243,0.755901,0.123352,-0.28234699999999996,0.184326
60,0.589608,-1.4017959999999998,0.126655,0.093512,0.9857530000000001,-0.139782,-0.612282,-0.692024,0.520984,0.06051,-0.322896,0.271679
61,0.608823,-1.410025,0.167567,0.09153700000000001,0.9871040000000001,-0.131299,-0.479466,-1.0804559999999999,-0.224277,-0.028183,0.007387,0.037610000000000005
62,0.6088140000000001,-1.4250180000000001,0.18041400000000002,0.083061,0.9893930000000001,-0.11914300000000001,-0.8460620000000001,-0.371452,-0.32175,-0.068733,0.086565,0.064318
63,0.6692140000000001,-1.441683,0.247698,0.079859,0.991676,-0.100963,-0.8750180000000001,-0.324692,-0.002614,0.012762,0.05828099999999999,0.092311
64,0.73451,-1.448226,0.31404,0.081925,0.992498,-0.090718,-0.287456,0.216022,0.132189,0.072555,-0.035817,0.030842
65,0.749419,-1.445426,0.31844,0.08516,0.992151,-0.091519,0.228028,0.481653,0.123699,-0.03946,-0.23000500000000001,-0.127658
66,0.76174,-1.444524,0.32416500000000004,0.086898,0.992038,-0.09111,-0.172592,0.21837600000000001,-0.022972,-0.048781,-0.358142,-0.051041
67,0.776841,-1.450252,0.337984,0.08427799999999999,0.992743,-0.085733,-0.22159600000000002,0.057339,-0.20150099999999999,0.028088,-0.371421,-0.022101
68,0.752025,-1.4550049999999999,0.310567,0.078898,0.9933040000000001,-0.08434900000000001,0.020412,0.1496,-0.306751,0.125997,-0.30762,-0.025454
69,0.70186,-1.4589379999999998,0.258322,0.072046,0.99375,-0.085214,0.053273,0.028343,-0.381142,0.23378600000000002,-0.194236,0.059517999999999995
70,0.632904,-1.461634,0.19068,0.064419,0.9940479999999999,-0.087815,0.19011199999999998,-0.128805,-0.361825,0.26303499999999996,-0.170851,0.084199
71,0.559902,-1.4595069999999999,0.12115699999999999,0.058965,0.993814,-0.094071,0.365951,-0.245133,-0.194873,0.28942399999999996,-0.176446,0.043488
72,0.492725,-1.452647,0.05892000000000001,0.05574199999999999,0.993028,-0.103823,0.522094,-0.305706,-0.10077,0.308211,-0.220873,0.090776
73,0.43771800000000005,-1.4421549999999999,0.012331,0.054363999999999996,0.9917370000000001,-0.11616300000000002,0.659195,-0.543148,0.017997,0.233463,-0.247612,0.122098
74,0.385387,-1.426817,-0.026507999999999997,0.053926999999999996,0.9896530000000001,-0.132933,0.889184,-0.778729,0.123522,0.1629,-0.387755,0.256499
75,0.35568,-1.4047969999999999,-0.0386,0.057533,0.9862540000000001,-0.15487599999999999,1.20191,-0.906804,0.44526899999999997,0.022652000000000002,-0.445787,0.300369
76,0.361194,-1.369951,-0.016324,0.070495,0.9798979999999999,-0.186608,1.768678,-0.750242,1.026936,-0.22476100000000002,-0.214319,0.12113299999999999
77,0.402989,-1.327134,0.040616,0.094609,0.970461,-0.221919,1.601536,-0.568752,1.60558,-0.14922,0.562742,0.100398
78,0.48233000000000004,-1.286556,0.125816,0.13007,0.959875,-0.24842600000000004,1.233274,-0.043612,1.934552,-0.0019420000000000001,0.810633,0.104902
79,0.536117,-1.252256,0.1872,0.159968,0.949694,-0.269232,0.916379,-0.365191,1.377275,0.632192,1.075438,-0.37995300000000004
80,0.568729,-1.232742,0.23221,0.17861,0.9434020000000001,-0.279437,0.182982,-0.549886,1.048718,0.368204,1.152164,-0.226544
81,0.595723,-1.217801,0.275512,0.193976,0.938341,-0.286152,0.293962,-0.795233,1.0359200000000002,0.081247,1.0579049999999999,-0.16506600000000002
82,0.622707,-1.203051,0.319981,0.20967600000000003,0.93314,-0.292026,0.044344999999999996,-0.73598,1.086444,-0.12,0.28371799999999997,-0.10276500000000001
83,0.645856,-1.192396,0.364327,0.22235100000000002,0.929257,-0.295018,-0.119913,-0.975158,0.8356389999999999,-0.180893,0.16095299999999998,-0.07661
84,0.655961,-1.190556,0.396124,0.226363,0.928575,-0.29411,-0.37884,-0.9285620000000001,0.330638,-0.130904,0.043104,0.009595000000000001
85,0.651684,-1.197193,0.411026,0.22136,0.931018,-0.290169,-0.419137,-0.902957,-0.176013,-0.009538,-0.142078,0.13298800000000002
86,0.625517,-1.20852,0.403627,0.20750300000000002,0.9350930000000001,-0.28729299999999997,-0.378349,-0.9921129999999999,-0.559106,-0.0067280000000000005,-0.214069,0.117432
87,0.586852,-1.224343,0.385336,0.188026,0.940583,-0.28274299999999997,-0.547592,-1.150326,-0.806845,-0.0008,-0.287827,0.10117899999999999
88,0.538604,-1.246059,0.361188,0.163653,0.947735,-0.273881,-0.802884,-1.3650950000000002,-0.955767,-0.017809000000000002,-0.44768900000000006,0.11965999999999999
89,0.47975500000000004,-1.271025,0.327925,0.136295,0.9554040000000001,-0.261955,-0.8222870000000001,-1.33985,-1.124714,-0.016986,-0.464117,0.11638599999999999
90,0.402403,-1.294427,0.274991,0.106857,0.962053,-0.251058,-0.699118,-1.309083,-1.199737,-0.044312,-0.5041359999999999,0.134496
91,0.316321,-1.314985,0.211277,0.078707,0.967458,-0.24046399999999998,-0.636188,-1.195789,-1.0819379999999998,-0.066316,-0.427572,0.169343
92,0.233,-1.3310540000000002,0.149975,0.054824,0.971399,-0.23102199999999998,-0.517754,-1.209876,-0.8589030000000001,-0.042815,-0.32801199999999997,0.10207000000000001
93,0.15373399999999998,-1.3431680000000001,0.094473,0.034554,0.9742040000000001,-0.222992,-0.479368,-1.277824,-0.683359,0.0030280000000000003,-0.124473,-0.03038
94,0.081233,-1.353605,0.045814,0.017484,0.976506,-0.21476199999999998,-0.38818800000000003,-1.25531,-0.5321319999999999,0.027392000000000003,-0.008428,0.020288999999999998
95,0.024881,-1.357728,0.013059999999999999,0.00526,0.9773870000000001,-0.211378,-0.07636,-1.145675,-0.24808400000000003,0.03368,-0.016083,0.038985
96,-0.003036,-1.358487,0.002727,-0.00064,0.9775469999999999,-0.21070100000000003,-0.046557,-0.723671,-0.046522,-0.028886000000000002,-0.238198,-0.05667899999999999
97,-0.011534,-1.3605530000000001,0.0026100000000000003,-0.002407,0.97798,-0.208666,-0.142691,-0.22180100000000003,0.005574,-0.038838,-0.307158,-0.034376
98,-0.008892,-1.364869,0.003432,-0.001818,0.978872,-0.204448,-0.25058800000000003,0.236583,0.020257,-0.004301,-0.234533,-0.096028
99,-0.0007559999999999999,-1.369094,0.003554,-0.000151,0.979727,-0.200318,-0.148999,0.493093,-0.012477,0.029525,-0.182516,-0.152282
100,0.004037,-1.367041,-0.00020800000000000001,0.000817,0.9793139999999999,-0.202327,0.267248,0.296675,-0.005045,0.183448,0.306773,-0.21996
101,0.051791,-1.365887,0.04098,0.010533,0.979079,-0.20318699999999998,-0.11466400000000002,0.609123,0.77703,0.0807,0.353547,0.165528
102,0.168356,-1.366152,0.151936,0.034048,0.979133,-0.200326,-0.28110100000000005,0.170771,1.05203,0.163736,0.629097,0.410654
103,0.228152,-1.368884,0.21848800000000002,0.045354000000000005,0.979685,-0.195326,-0.009603,-0.574433,0.428903,0.084712,0.47264700000000004,0.6208020000000001
104,0.169915,-1.357872,0.177071,0.03573,0.977417,-0.208256,0.757763,-1.313409,-0.848792,-0.212229,0.484283,-0.015728
105,-0.004759,-1.350243,0.04222,-0.001041,0.975777,-0.21874699999999997,0.20213,-2.436794,-1.551987,0.009098,1.338814,-0.149386
106,-0.100108,-1.3529010000000001,-0.01956,-0.021603,0.976355,-0.21507300000000001,-0.094529,-1.233486,0.14821199999999998,0.907833,0.230494,0.631196
107,-0.046606,-1.357251,0.046528,-0.009873,0.9772860000000001,-0.21167600000000003,-0.340124,-0.273891,0.681515,0.27208000000000004,0.056679999999999994,0.104895
108,-0.020586,-1.373009,0.083239,-0.004044,0.980504,-0.196438,-1.052798,-0.8061550000000001,0.140971,-0.219283,0.17625,0.12823099999999998
109,-0.10543599999999999,-1.400951,0.026552,-0.017786,0.985611,-0.168067,-1.622373,-1.5807,-0.672798,-0.34315999999999997,0.365128,0.290107
110,-0.259479,-1.433315,-0.11163800000000001,-0.035155,0.9905639999999999,-0.13243,-1.8166950000000002,-0.48150200000000004,-0.728974,0.122314,0.41942399999999996,0.35381999999999997
111,-0.453452,-1.459001,-0.303156,-0.048854,0.993757,-0.100249,-1.384728,-0.17340899999999998,-0.628076,0.15473399999999998,0.258425,0.23155100000000003
112,-0.630947,-1.468634,-0.474272,-0.060133000000000006,0.9947860000000001,-0.082311,-0.6598970000000001,-0.428918,-0.49663500000000005,0.21983200000000003,0.002132,0.083242
113,-0.8159810000000001,-1.471596,-0.65108,-0.072101,0.995084,-0.06782,-0.814271,-0.51085,-0.6525,0.229602,-0.239056,0.052317999999999996
114,-1.0843129999999999,-1.469789,-0.907033,-0.089091,0.9949030000000001,-0.047118,-1.0204,-0.786192,-0.8811190000000001,0.161631,-0.34642,0.107299
115,-1.315679,-1.45936,-1.121232,-0.107557,0.9937969999999999,-0.028051,-0.753404,-0.956526,-0.8736940000000001,0.139326,-0.422737,0.045599
116,-1.468543,-1.446893,-1.257974,-0.122896,0.992334,-0.012611,-0.680833,-0.751985,-0.672624,0.096956,-0.39957600000000004,-0.038659
117,-1.5949360000000001,-1.435782,-1.372878,-0.134522,0.990899,0.0032479999999999996,-0.716838,-0.576554,-0.556664,0.13263,-0.28830900000000004,-0.043272000000000005
118,-1.689443,-1.423994,-1.456985,-0.145208,0.989244,0.01731,-0.5728310000000001,-0.5685859999999999,-0.54285,0.191778,-0.2679,-0.046239999999999996
119,-1.7593330000000003,-1.4118950000000001,-1.5157770000000002,-0.155393,0.987402,0.029649000000000002,-0.538931,-0.5912,-0.511605,0.157498,-0.26885,-0.071229
120,-1.8264509999999998,-1.4001370000000002,-1.572371,-0.164277,0.9854729999999999,0.042938,-0.59969,-0.528341,-0.46083599999999997,0.170808,-0.152801,-0.067733
121,-1.879071,-1.3892209999999998,-1.6186909999999999,-0.172034,0.98356,0.054779999999999995,-0.466488,-0.24046199999999998,-0.373748,0.33569899999999997,-0.011316,-0.017747
122,-1.895659,-1.382478,-1.630196,-0.17738299999999999,0.9823200000000001,0.059741999999999996,-0.03134,-0.36825,-0.22954000000000002,0.497558,-0.025991000000000004,0.030697000000000002
123,-1.886032,-1.3805129999999999,-1.604761,-0.179785,0.981951,0.058629999999999995,0.299046,-1.074951,-0.144073,0.694419,-0.030045999999999996,0.026148
124,-1.871029,-1.382,-1.560473,-0.17925,0.982231,0.05549400000000001,0.499787,-1.578088,0.029957,0.656453,0.023552,-0.018369999999999997
125,-1.8448689999999999,-1.3897059999999999,-1.4984959999999998,-0.173348,0.983648,0.048736,0.759035,-1.782489,0.304427,0.598274,-0.057668,0.29376199999999997
126,-1.7685060000000001,-1.4066450000000001,-1.3893959999999999,-0.160196,0.986557,0.032091,1.3851200000000001,-1.2946389999999999,0.8380129999999999,0.273782,0.038589,0.23695100000000002
127,-1.5588540000000002,-1.4368100000000001,-1.161258,-0.13353299999999999,0.9910370000000001,-0.0015949999999999998,2.0440720000000003,-0.613985,1.611932,0.104571,0.314444,0.19560999999999998
128,-1.122692,-1.46223,-0.705937,-0.097609,0.9941120000000001,-0.046922000000000005,2.522322,-1.006576,1.872149,0.08453200000000001,0.668546,0.219728
129,-0.635997,-1.4590450000000001,-0.188307,-0.066211,0.993762,-0.089676,1.972751,-1.5860969999999999,1.552859,0.023593,0.655881,0.317612
130,-0.325923,-1.4442629999999999,0.15884600000000001,-0.040394,0.9920049999999999,-0.11951600000000001,1.472798,-1.810934,1.469538,0.087452,0.682189,0.215738
131,-0.10952100000000001,-1.423171,0.413637,-0.016074,0.989123,-0.146177,1.338354,-1.8072990000000002,1.4760719999999998,0.05094,0.41219799999999995,0.062726
132,0.047147,-1.401989,0.607989,0.007917,0.985786,-0.167792,0.9620780000000001,-1.6911040000000002,1.516024,0.0074340000000000005,0.372781,0.150397
133,0.16963,-1.380845,0.763304,0.031871,0.9820129999999999,-0.186077,0.878373,-1.4187889999999999,1.421086,0.006292,0.245236,0.154476
134,0.23981599999999997,-1.3599860000000001,0.865476,0.049697000000000005,0.9778620000000001,-0.203243,0.768975,-1.6174389999999998,1.110792,0.0719,0.16103900000000002,0.12488900000000001
135,0.287346,-1.339046,0.950627,0.065088,0.973266,-0.220246,0.847137,-1.6958669999999998,1.208647,0.233496,0.020768000000000002,0.097123
136,0.326654,-1.317014,1.031225,0.08055599999999999,0.9679700000000001,-0.237775,0.561605,-2.200295,1.328008,0.16158599999999998,0.047869,0.274991
137,0.365438,-1.299809,1.118635,0.095653,0.963507,-0.249991,0.35911,-2.381785,1.335372,0.151845,-0.013387999999999999,0.268988
138,0.393565,-1.285324,1.199709,0.10798699999999999,0.9595290000000001,-0.26006599999999996,0.191147,-2.5662279999999997,1.252182,0.113418,-0.192347,0.288997
139,0.404438,-1.2755969999999999,1.2672370000000002,0.114476,0.956744,-0.267446,0.0025570000000000002,-2.790283,0.970209,0.12629300000000002,-0.252154,0.321538
140,0.397981,-1.271181,1.3215379999999999,0.114383,0.95545,-0.272072,-0.162495,-2.946457,0.741725,0.144833,-0.274084,0.337913
141,0.384999,-1.270629,1.368174,0.11104000000000001,0.9552870000000001,-0.274023,-0.27755100000000005,-2.814452,0.597611,0.08050399999999999,-0.32096399999999997,0.408209
142,0.37290500000000004,-1.2724950000000002,1.412476,0.10706800000000001,0.955837,-0.27368600000000004,-0.355746,-2.686187,0.557376,-0.070127,-0.268673,0.448033
143,0.355501,-1.2760690000000001,1.449805,0.101099,0.956881,-0.272303,-0.35570100000000004,-2.6501810000000003,0.344754,-0.15348299999999998,-0.233279,0.44665
144,0.317864,-1.2817290000000001,1.4655989999999999,0.089087,0.9585100000000001,-0.27076500000000003,-0.345354,-2.600855,-0.010955,-0.260932,-0.180983,0.36132600000000004
145,0.264952,-1.289397,1.459976,0.072716,0.9606680000000001,-0.267996,-0.32645599999999997,-2.218498,-0.274095,-0.17997,-0.18015,0.201513
146,0.20408800000000002,-1.2958120000000002,1.43813,0.055028999999999995,0.9624290000000001,-0.265882,-0.215522,-1.8891490000000002,-0.41474799999999995,-0.084082,-0.155682,0.072798
147,0.139875,-1.304196,1.407106,0.036728,0.964672,-0.260865,-0.420599,-1.5705639999999998,-0.5202060000000001,0.241333,-0.028789999999999996,-0.17938099999999998
148,0.075924,-1.314551,1.368736,0.019223,0.967348,-0.252704,-0.503233,-1.222916,-0.540457,0.56853,0.092161,-0.036435
149,0.031172000000000002,-1.319798,1.340809,0.00774,0.968665,-0.248234,0.050131,-0.740382,-0.21247,0.613826,0.174768,0.029942
150,0.028484,-1.309695,1.354475,0.007351000000000001,0.9661059999999999,-0.258025,0.652302,-0.8869969999999999,0.498018,0.56966,0.26048699999999997,0.011489
151,0.069236,-1.299209,1.416632,0.018558,0.9633459999999999,-0.267604,0.288431,-0.95878,0.91538,0.43337700000000007,0.193407,-0.068334
152,0.11988299999999999,-1.300067,1.486592,0.031982,0.963576,-0.2655,-0.36502399999999996,-0.813847,0.935199,0.365646,-0.141311,-0.16083
153,0.159667,-1.307209,1.5519690000000002,0.041422,0.965461,-0.25721700000000003,-0.39623800000000003,-1.388939,0.6569119999999999,0.345541,-0.192741,-0.273544
154,0.175268,-1.3082040000000001,1.595869,0.045262000000000004,0.96572,-0.25559299999999996,-0.181549,-1.3279290000000001,0.6647430000000001,0.623378,0.728554,0.39955999999999997
155,0.21699200000000002,-1.319122,1.665484,0.053610000000000005,0.9684969999999999,-0.243171,-1.114738,-1.2193459999999998,0.693336,-0.305396,0.408441,0.33271
156,0.238802,-1.3542530000000002,1.7207240000000001,0.050817,0.9766459999999999,-0.20874,-2.0305560000000002,-2.113095,-0.11415,-0.384573,0.407097,0.066467
157,0.149949,-1.3673,1.69135,0.030187000000000002,0.979366,-0.19980699999999998,0.357039,-3.006136,-0.500116,-0.286184,0.18079,0.495629
158,0.047826,-1.35259,1.632469,0.010348999999999999,0.9762870000000001,-0.216212,0.829303,-1.747225,-0.581752,0.023114,-0.171844,0.536632
159,-0.034088,-1.34409,1.57859,-0.007659999999999999,0.9744120000000001,-0.22462100000000002,0.135113,-1.452831,-0.607274,0.087326,-0.275834,0.5444760000000001
160,-0.125855,-1.349069,1.516979,-0.027601999999999998,0.975519,-0.218158,-0.573095,-1.7015310000000001,-0.668521,0.075057,-0.279947,0.395816
161,-0.22939,-1.365652,1.449647,-0.046314999999999995,0.979032,-0.198353,-1.0725200000000001,-2.013744,-0.48039799999999994,-0.031657,0.03435,0.193638
162,-0.35484299999999996,-1.38303,1.36842,-0.064848,0.982424,-0.175015,-1.021878,-2.451452,-0.5542590000000001,-0.051516,0.264158,0.158719
163,-0.49214399999999997,-1.397592,1.272399,-0.08142200000000001,0.985038,-0.151866,-1.080911,-1.833215,-0.331137,0.16925199999999999,0.102777,0.062724
164,-0.589793,-1.4206889999999999,1.199948,-0.083159,0.9887549999999999,-0.12425599999999999,-1.378698,-1.044076,0.250089,0.321791,-0.09738200000000001,0.057911000000000004
165,-0.722338,-1.443367,1.086247,-0.083998,0.991892,-0.095321,-1.3538940000000002,-1.092841,-0.096847,0.13006500000000001,-0.263559,0.037323
166,-0.9517040000000001,-1.4552399999999999,0.882028,-0.09387000000000001,0.993331,-0.066886,-1.283949,-1.4097899999999999,-0.548879,-0.006197,-0.332656,-0.0054399999999999995
167,-1.2157850000000001,-1.454574,0.6407510000000001,-0.10869300000000001,0.9932540000000001,-0.040293999999999996,-1.185582,-1.047297,-0.708889,-0.029323000000000002,-0.1528,0.034572000000000006
168,-1.449186,-1.447224,0.421759,-0.12231099999999999,0.992375,-0.014948,-1.165209,-0.6908880000000001,-0.611996,0.068722,-0.023793,0.071467
169,-1.623053,-1.438149,0.25858200000000003,-0.132043,0.991215,0.006906,-0.945809,-0.567851,-0.402317,0.14269300000000001,-0.066426,-0.006113
170,-1.760852,-1.430449,0.12954300000000002,-0.13733499999999998,0.990167,0.02642,-0.9268700000000001,-0.43871000000000004,-0.213275,0.213171,-0.128366,-0.037956000000000004
171,-1.8915549999999999,-1.4223780000000001,0.004111999999999999,-0.140301,0.9890059999999999,0.046612,-1.002276,-0.290663,-0.141353,0.179714,-0.085411,-0.048016
172,-2.0106319999999998,-1.41214,-0.108846,-0.142925,0.98744,0.06725700000000001,-0.9548040000000001,-0.438788,-0.169673,0.202785,-0.051161,-0.027157
173,-2.0966150000000003,-1.401325,-0.185142,-0.145851,0.9856739999999999,0.08463999999999999,-0.698156,-0.580152,-0.205087,0.254479,-0.11203199999999999,-0.05637999999999999
174,-2.153658,-1.391571,-0.231902,-0.14881,0.983982,0.098106,-0.590134,-0.511325,-0.19480699999999998,0.240058,-0.096226,-0.022788
175,-2.202296,-1.379809,-0.271882,-0.153197,0.981817,0.11205,-0.6693100000000001,-0.454067,-0.325756,0.210905,0.007639,0.062251
176,-2.242172,-1.366027,-0.303052,-0.159191,0.979108,0.126476,-0.632735,-0.44861999999999996,-0.387465,0.187923,0.201648,0.042727999999999995
177,-2.2564,-1.352436,-0.310494,-0.16766099999999998,0.9762540000000001,0.13714200000000001,-0.39353,-0.270052,-0.49498100000000006,0.219281,0.25066,0.007939
178,-2.25121,-1.3415709999999998,-0.300483,-0.17660599999999999,0.973843,0.14293499999999998,-0.19808800000000001,-0.22705,-0.49580799999999997,0.544571,0.040424,0.05198099999999999
179,-2.247718,-1.332964,-0.290659,-0.183631,0.971851,0.147563,-0.18020799999999998,-0.373651,-0.347012,0.626456,0.024791999999999998,0.039617
180,-2.255503,-1.327118,-0.28615300000000005,-0.186875,0.970457,0.152579,-0.10683800000000002,-0.761173,-0.20393,0.597962,0.004824,-0.054251
181,-2.27605,-1.325487,-0.287376,-0.18490499999999999,0.9700620000000001,0.157411,-0.040989,-1.054287,0.045801999999999995,0.386977,0.185135,0.121947
182,-2.296576,-1.331431,-0.285586,-0.177319,0.9714889999999999,0.157344,0.45040600000000003,-1.099779,0.33984899999999996,0.22811599999999999,0.346596,-0.030039999999999997
183,-2.310261,-1.353163,-0.284141,-0.15950999999999999,0.976411,0.145491,0.8211129999999999,-0.533938,1.038194,0.071406,0.285369,0.142244
184,-2.318517,-1.382783,-0.28310100000000005,-0.13702899999999998,0.9823780000000001,0.127073,1.1953850000000001,-0.527995,1.092075,0.17925,-0.077394,0.215685
185,-2.288927,-1.422947,-0.239837,-0.11090499999999999,0.9890899999999999,0.09690499999999999,1.8430520000000001,-0.706094,1.378838,-0.055292999999999995,-0.01854,0.100879
186,-2.225886,-1.472842,-0.16180899999999998,-0.077515,0.9952059999999999,0.059552,1.919977,-0.748486,1.789627,-0.150696,0.11456500000000001,0.130603
187,-2.206579,-1.524967,-0.12481400000000001,-0.03678,0.99895,0.027144,1.520995,-0.950564,2.054154,-0.121621,0.332013,0.104478
188,1.6104530000000001,-1.566115,-2.5676360000000003,0.003558,0.9999889999999999,0.00014099999999999998,1.268899,-1.101689,1.970334,-0.23813099999999998,0.441204,-0.089619
189,1.102326,-1.523966,-3.0543259999999997,0.04168,0.9989040000000001,-0.021092,0.946419,-1.25042,1.881746,-0.153863,0.53642,-0.03149
190,1.068023,-1.483795,-3.0663099999999996,0.07609199999999999,0.996218,-0.041844,0.9840899999999999,-0.9056489999999999,1.6775369999999998,-0.149624,0.42332299999999995,0.060764
191,1.0549899999999999,-1.447855,-3.071396,0.106646,0.992452,-0.06046900000000001,0.832781,-0.118126,1.471441,-0.131899,0.26256799999999997,0.039639999999999995
192,1.04751,-1.41615,-3.081188,0.133394,0.988066,-0.076959,0.9801610000000001,0.210189,1.29152,-0.01349,0.005998,-0.085531
193,1.034717,-1.3834549999999999,-3.087209,0.1601,0.982503,-0.095117,0.808958,-0.48005,1.424736,-0.024266,-0.09995,0.045343
194,1.0365149999999999,-1.3529799999999998,-3.077271,0.18596500000000002,0.9763719999999999,-0.11003199999999999,0.6312369999999999,-0.019835,1.308605,-0.0026609999999999997,-0.23302399999999998,0.220094
195,1.061857,-1.327497,-3.05287,0.21036,0.970548,-0.117374,0.30557199999999995,-0.740205,1.1192469999999999,-0.038836,-0.15524100000000002,-0.114544
196,1.036477,-1.309367,-3.0429630000000003,0.222423,0.9660219999999999,-0.131615,0.34633400000000003,-2.015039,0.7430140000000001,-0.0009109999999999999,-0.179431,0.020363
197,1.006441,-1.294093,-3.031936,0.23081100000000002,0.9619610000000001,-0.146111,0.215719,-1.905818,0.7152569999999999,-0.040351,-0.32214499999999996,0.14113699999999998
198,0.987799,-1.283811,-3.016225,0.236294,0.959101,-0.155827,0.022101,-1.605664,0.414417,-0.11683299999999999,-0.534327,0.160038
199,0.96867,-1.282233,-3.004889,0.234517,0.9586540000000001,-0.161175,-0.145966,-1.429785,0.000684,-0.058751,-0.653401,0.180111
200,0.9449299999999999,-1.288507,-3.003699,0.225746,0.96042,-0.16317,-0.212354,-1.146809,-0.377224,-0.047386000000000005,-0.638948,0.094581
201,0.912143,-1.299865,-3.01424,0.21163400000000002,0.963522,-0.163794,-0.23256,-1.1467889999999998,-0.630534,-0.040995,-0.632757,0.034369
202,0.869698,-1.3145209999999998,-3.033643,0.193681,0.967341,-0.1635,-0.290844,-1.192919,-0.765478,-0.047853,-0.558588,-0.01956
203,0.831325,-1.331021,-3.05013,0.175448,0.971391,-0.160029,-0.460049,-1.06781,-0.7369100000000001,0.040402999999999994,-0.259142,0.025432
204,0.802527,-1.348817,-3.058981,0.158309,0.9754639999999999,-0.152977,-0.549416,-0.9855780000000001,-0.7109340000000001,0.084275,-0.157959,0.060814
205,0.768907,-1.365509,-3.074291,0.141732,0.9790030000000001,-0.14648599999999998,-0.424104,-0.864625,-0.697395,0.071341,-0.020079,0.047273
206,0.738984,-1.381666,-3.093522,0.126615,0.982168,-0.138949,-0.539148,-0.35075700000000004,-0.698857,-0.041684,0.080881,-0.007687
207,0.734574,-1.403721,-3.096753,0.11145,0.986075,-0.123396,-0.964664,0.048533,-0.815573,-0.125076,0.237817,0.016401
208,0.751786,-1.4324299999999999,-3.078377,0.094176,0.9904430000000001,-0.10073,-1.209776,-0.185806,-0.874668,-0.173415,0.227163,0.05185599999999999
209,0.7726430000000001,-1.460392,-3.0480150000000004,0.07688400000000001,0.9939120000000001,-0.07887000000000001,-1.0615629999999998,-0.6095189999999999,-0.803656,-0.083277,-0.127624,-0.030001
210,0.791148,-1.481933,-3.015645,0.06308,0.9960540000000001,-0.062359000000000005,-0.749516,-0.662975,-0.49376000000000003,-0.065109,-0.309744,-0.025761000000000003
211,0.846017,-1.492544,-2.954669,0.058485,0.9969399999999999,-0.051792,-0.48172600000000004,-0.014683000000000002,-0.079316,-0.058561,-0.690299,0.012195000000000001
212,1.004332,-1.498946,-2.79793,0.060529999999999994,0.9974200000000001,-0.038497,-0.808761,0.097352,0.158606,-0.11721600000000001,-1.057784,-0.073152
213,1.213441,-1.501077,-2.581988,0.065209,0.9975709999999999,-0.024347999999999998,-0.551618,-0.698837,0.308837,-0.064309,-0.8505370000000001,-0.088109
214,1.25243,-1.4922309999999999,-2.527157,0.074494,0.996915,-0.024551,0.341289,-0.868368,0.637895,0.010695999999999999,0.460421,-0.25758400000000004
215,1.233193,-1.477655,-2.5236680000000002,0.08771799999999999,0.9956649999999999,-0.030793,-0.566342,-0.9604459999999999,0.47571199999999997,-0.058314,2.647981,0.105546
216,1.469047,-1.483033,-2.2642599999999997,0.087154,0.996151,-0.008898999999999999,-0.703287,-0.9890680000000001,0.293195,-0.195323,0.6538430000000001,0.39882199999999995
217,1.439535,-1.472849,-2.2965009999999997,0.09690900000000001,0.995207,-0.012794,0.409063,0.474364,0.192267,0.088135,0.182054,-0.032601
218,1.389062,-1.473716,-2.349109,0.095289,0.995291,-0.017509999999999998,0.08218400000000001,-0.095578,-0.051772000000000006,0.349643,-0.13776300000000002,0.163079
219,1.417918,-1.4733690000000002,-2.3151740000000003,0.096095,0.995258,-0.014806,-0.180703,-0.337912,0.038569,0.379156,-0.26965700000000004,0.14624600000000001
220,1.4023729999999999,-1.474167,-2.327096,0.095072,0.9953350000000001,-0.016165000000000002,0.17005499999999998,-0.026574,-0.068339,0.37187800000000004,-0.397389,-0.076089
221,1.377832,-1.473637,-2.352243,0.095164,0.9952840000000001,-0.018595,0.07731,0.058695000000000004,0.000339,0.143819,0.484605,-0.183996
222,1.373642,-1.4762620000000002,-2.364361,0.09252,0.9955350000000001,-0.018481,-0.001895,0.54966,-0.16535,0.133722,0.588724,-0.065092
223,1.359545,-1.471757,-2.388671,0.096638,0.9951,-0.020724,0.361066,0.49162799999999995,0.445078,0.210552,-0.220625,-0.049955
224,1.2610709999999998,-1.460324,-2.5036680000000002,0.104967,0.9939040000000001,-0.033592000000000004,0.8705729999999999,0.963384,0.310232,0.164458,-0.36949899999999997,-0.038811
225,1.148978,-1.447335,-2.6368400000000003,0.112325,0.9923879999999999,-0.050406,1.052719,0.962491,0.37559899999999996,0.099345,-0.581759,0.10005800000000001
226,1.000185,-1.42454,-2.79905,0.122625,0.989324,-0.078705,1.7950709999999999,0.37756799999999996,0.552449,-0.16960699999999998,-0.656407,0.13253800000000002
227,0.850474,-1.388991,-2.95192,0.135879,0.983519,-0.119252,2.102503,-0.09623,0.756029,-0.22495900000000002,-0.677199,0.236943
228,0.773329,-1.348598,-3.026358,0.153926,0.9754149999999999,-0.157687,1.790052,-0.233787,1.060603,-0.183559,-0.693738,0.238879
229,0.752703,-1.3087010000000001,-3.040125,0.177119,0.965849,-0.18909700000000002,1.438767,-0.447981,1.383163,-0.13441,-0.21862600000000001,0.027766000000000002
230,0.7550859999999999,-1.263583,-3.026964,0.207246,0.9531799999999999,-0.220207,1.566484,-0.537607,1.8403009999999997,-0.019913999999999998,0.79566,-0.055291
231,0.7616109999999999,-1.217175,-3.009415,0.23897,0.938125,-0.250618,1.336267,-0.2408,1.608645,-0.032777999999999995,1.247651,0.014702000000000002
232,0.771738,-1.190861,-2.996797,0.258626,0.928689,-0.265791,0.515779,-0.283945,0.856282,0.17391500000000001,0.743904,-0.148836
233,0.7864369999999999,-1.1788889999999999,-2.975331,0.270356,0.924182,-0.269795,-0.128486,0.006788,0.6377649999999999,0.060163999999999995,0.688992,-0.258281
234,0.829784,-1.175408,-2.937045,0.284165,0.922847,-0.259996,-0.475991,0.49928900000000004,0.5866359999999999,-0.214981,0.6150100000000001,-0.284011
235,0.867783,-1.176515,-2.906427,0.293057,0.923273,-0.248352,-0.503085,0.461654,0.165616,-0.07594,-0.088526,-0.233413
236,0.8856450000000001,-1.1883059999999999,-2.891989,0.288997,0.927738,-0.236173,-0.641267,0.08264400000000001,-0.569801,0.020665,-0.30939099999999997,-0.125567
237,0.8831100000000001,-1.21392,-2.895006,0.269942,0.9369930000000001,-0.22174499999999997,-0.862533,0.025417,-1.2506620000000002,0.079957,-0.35990500000000003,0.009098
238,0.88182,-1.2493459999999998,-2.8992259999999996,0.243869,0.948778,-0.200855,-1.202073,0.21711799999999998,-1.476538,0.10470299999999999,-0.382769,-0.025814999999999998
239,0.8936940000000001,-1.2893809999999999,-2.893843,0.216441,0.9606629999999999,-0.173993,-1.348692,0.333823,-1.496939,0.162144,-0.25299099999999997,-0.139926
240,0.9060600000000001,-1.327511,-2.88123,0.189592,0.9705520000000001,-0.148588,-1.296518,-0.20405299999999998,-1.298265,0.233473,-0.087739,-0.267428
241,0.9273319999999999,-1.361336,-2.8506240000000003,0.166338,0.978143,-0.12474400000000001,-1.305584,-0.559714,-1.059659,0.170042,-0.144708,-0.220532
242,0.95515,-1.391948,-2.807633,0.14521900000000001,0.984049,-0.102721,-1.17388,-0.8194739999999999,-0.9494469999999999,0.034164,-0.202631,-0.081513
243,0.984927,-1.416593,-2.755589,0.127959,0.9881340000000001,-0.084912,-0.977435,-1.2069729999999999,-0.652749,-0.137374,-0.256841,-0.004581
244,1.030836,-1.436037,-2.684132,0.11521400000000001,0.990934,-0.06905599999999999,-0.9864299999999999,-1.176583,-0.519323,-0.23423200000000002,-0.161969,-0.016835
245,1.137399,-1.4545379999999999,-2.560899,0.105244,0.99325,-0.0487,-1.1854790000000002,-0.480742,-0.40089600000000003,-0.291294,-0.353113,0.0067540000000000005
246,1.355224,-1.466887,-2.343867,0.101286,0.994606,-0.022179,-1.372739,0.43261099999999997,-0.075431,-0.295637,-0.286461,0.063118
247,1.567974,-1.469683,-2.140095,0.100901,0.994892,-0.000285,-0.709496,0.397094,-0.026955,-0.20077,0.30598000000000003,-0.17629
248,1.614614,-1.473144,-2.100177,0.097363,0.995236,0.004268999999999999,-0.035944,0.44376000000000004,-0.29257,-0.095211,1.213535,0.123813
249,1.614447,-1.479584,-2.110546,0.090956,0.995843,0.003973,0.11092300000000001,0.415339,-0.23916500000000002,0.079149,1.1280430000000001,-0.070181
250,1.601962,-1.480091,-2.12509,0.09049600000000001,0.9958889999999999,0.002821,0.014759999999999999,-0.066884,0.023563999999999998,0.276508,1.0660610000000001,-0.099272
251,1.6099290000000002,-1.474344,-2.113644,0.09619,0.995352,0.003766,0.036321,-0.206485,0.549458,0.424867,-0.150351,0.27962
252,1.522291,-1.4641979999999999,-2.199162,0.10623699999999998,0.994324,-0.005157,0.60832,-0.136302,0.35147,0.602274,-0.379242,-0.019806
253,1.4420469999999999,-1.456874,-2.274048,0.112704,0.993518,-0.014591,0.230462,-0.39816999999999997,0.365189,0.17680099999999999,-0.462207,-0.127025
254,1.481747,-1.4528,-2.2232819999999998,0.117226,0.9930469999999999,-0.010467,-0.5393479999999999,-0.6072649999999999,0.042818,-0.178048,-0.03951,-0.07396
255,1.590609,-1.459976,-2.104835,0.11053800000000001,0.993866,0.0021899999999999997,-0.745618,-0.21367399999999998,-0.436622,-0.222309,0.268631,0.052177
256,1.74797,-1.464603,-1.950434,0.104296,0.994367,0.018674,-0.75593,0.37330599999999997,-0.16505,-0.108767,0.181811,0.15437599999999999
257,1.810354,-1.4607629999999998,-1.8982459999999999,0.10664100000000001,0.9939520000000001,0.026047000000000004,-0.000339,0.5778949999999999,0.230935,-0.126737,-0.081813,0.025558
258,1.722875,-1.460089,-1.9980259999999999,0.109172,0.993878,0.016732,0.804986,0.600296,0.058138999999999996,0.023045,-0.115292,-0.187493
259,1.5749790000000001,-1.4610969999999999,-2.162757,0.109444,0.9939889999999999,0.000458,0.857667,0.940947,0.07195700000000001,0.061424,-0.226518,-0.125931
260,1.466113,-1.457432,-2.292236,0.11247,0.9935809999999999,-0.011817,0.718802,0.9571930000000001,0.125446,0.052904,-0.42560299999999995,-0.144921
261,1.336043,-1.4557879999999999,-2.440605,0.111577,0.993394,-0.026685000000000004,0.896568,0.799077,-0.180758,0.042247,-0.543702,-0.170214
262,1.202754,-1.456516,-2.588069,0.10636500000000002,0.993477,-0.041016000000000004,0.70868,0.629866,-0.32606399999999996,0.061451,-0.436608,-0.118835
263,1.093955,-1.458016,-2.709633,0.099958,0.993647,-0.051637999999999996,0.549204,0.49203800000000003,-0.351572,0.379977,-0.149882,-0.083143
264,0.992295,-1.4565709999999998,-2.8152779999999997,0.095404,0.993483,-0.062301999999999996,0.569195,-0.056492999999999995,-0.124267,0.403116,-0.218367,0.023224
265,0.9114549999999999,-1.446386,-2.891866,0.09805599999999999,0.9922709999999999,-0.075999,0.76118,-0.316827,0.34315300000000004,0.220654,-0.48009399999999997,0.250452
266,0.840808,-1.420886,-2.9527759999999996,0.111274,0.988784,-0.099579,1.44364,-0.547297,0.909032,0.062798,-0.40094,0.278992
267,0.762087,-1.374581,-3.026581,0.13459300000000002,0.9808120000000001,-0.141019,2.394902,-0.122314,1.4310829999999999,-0.41782600000000003,0.307046,-0.363544
268,0.7612899999999999,-1.3209790000000001,-3.029603,0.170542,0.968958,-0.17897000000000002,1.5548549999999999,0.330106,1.972633,-0.47321499999999994,0.795004,0.046615
269,0.78555,-1.275096,-3.010822,0.20608200000000002,0.956598,-0.206019,1.567324,0.11745499999999999,1.594842,-0.409054,0.7645930000000001,0.23714699999999997
270,0.789745,-1.236613,-3.013272,0.232929,0.944679,-0.230913,1.062218,0.604296,1.231768,-0.027163999999999997,0.693688,-0.20495500000000003
271,0.834621,-1.2107620000000001,-2.984668,0.261067,0.9358850000000001,-0.236553,0.407023,0.9066139999999999,1.321875,0.520122,1.245786,-0.23987199999999997
272,0.8626799999999999,-1.192431,-2.9667630000000003,0.280586,0.92927,-0.24025500000000002,0.254114,0.299835,0.5492600000000001,0.442924,0.8712059999999999,-0.330912
273,0.8879950000000001,-1.186973,-2.948258,0.290509,0.92724,-0.23627199999999998,-0.296656,0.593078,0.421124,0.127689,0.375998,-0.23525500000000002
274,0.915172,-1.187838,-2.920888,0.296185,0.9275629999999999,-0.22780100000000003,-0.457395,-0.33515300000000003,0.12208800000000002,-0.186703,-0.23276999999999998,-0.13450399999999998
275,0.916027,-1.198186,-2.903221,0.28875,0.9313799999999999,-0.22169,-0.644908,-0.8180890000000001,-0.422328,-0.193322,-0.372695,-0.011098
276,0.909557,-1.2193209999999999,-2.896896,0.27171100000000004,0.938866,-0.211416,-0.7862100000000001,-0.5022760000000001,-0.954626,-0.139173,-0.551582,0.11873399999999999
277,0.895285,-1.248966,-2.902034,0.246829,0.948658,-0.197776,-0.89738,-0.47895600000000005,-1.361356,0.057599000000000004,-0.837834,-0.006219
278,0.87489,-1.2853290000000002,-2.9154240000000002,0.216114,0.9595299999999999,-0.180523,-1.039541,-0.30173,-1.601858,0.08880199999999999,-0.915341,-0.075336
279,0.846081,-1.323508,-2.940292,0.183248,0.9695799999999999,-0.16225599999999998,-0.945183,-0.276172,-1.681348,0.110072,-0.902487,-0.174826
280,0.798289,-1.357694,-2.981409,0.151449,0.9773790000000001,-0.147594,-0.756003,-0.440762,-1.444807,0.127558,-0.533578,-0.011784000000000001
281,0.762929,-1.3826379999999998,-3.002376,0.129243,0.98235,-0.135186,-0.7583,-0.9942,-0.771134,0.081893,-0.090245,0.05143
282,0.76585,-1.40151,-2.973088,0.116763,0.9857049999999999,-0.121419,-0.9412290000000001,-1.371393,-0.325412,0.024488,-0.014453,0.06722
283,0.80214,-1.419921,-2.911403,0.108024,0.98864,-0.104466,-0.983648,-1.1048129999999998,-0.35382399999999997,-0.20182,0.450737,-0.118968
284,0.832894,-1.440401,-2.862996,0.096178,0.991511,-0.08745,-0.970151,-0.703399,-0.582843,-0.307314,0.337881,-0.141295
285,0.8917120000000001,-1.4616850000000001,-2.799182,0.084703,0.9940530000000001,-0.068368,-0.926125,0.14411600000000002,-0.509915,-0.21444899999999997,-0.02657,-0.16197899999999998
286,0.9558190000000001,-1.4764190000000001,-2.746759,0.076931,0.99555,-0.05434,-0.516211,0.7707930000000001,-0.406373,-0.294979,0.195933,-0.299374
287,0.9788620000000001,-1.484874,-2.73916,0.07117000000000001,0.9963110000000001,-0.047852,-0.030388,0.797147,-0.225689,-0.258716,0.345242,-0.066589
288,0.9827520000000001,-1.482823,-2.754671,0.073054,0.996133,-0.048707,0.019809999999999998,0.9584030000000001,0.16328800000000002,-0.052851999999999996,0.17382,0.046998000000000005
289,1.03385,-1.4844760000000001,-2.715418,0.074033,0.9962770000000001,-0.044071,-0.233321,0.377712,-0.120815,0.11214,-0.009155,0.157962
290,1.011099,-1.4861469999999999,-2.733521,0.071599,0.996419,-0.044857999999999995,0.199486,-0.529764,0.0019440000000000002,0.321361,0.208918,0.110075
291,0.980722,-1.483934,-2.749402,0.072037,0.99623,-0.048241,0.00043099999999999996,-0.7142350000000001,-0.04728,0.37106300000000003,0.57744,-0.22214499999999998
292,1.022712,-1.484874,-2.702029,0.073198,0.9963110000000001,-0.044686000000000003,-0.36983299999999997,0.080416,0.284537,0.458143,0.909832,0.051842
293,1.167475,-1.475455,-2.561249,0.08751,0.995458,-0.037342,-0.11075299999999999,0.13369,0.855641,0.360519,-0.13223800000000002,0.160251
294,1.1461,-1.463177,-2.579471,0.097827,0.994215,-0.044239,0.453905,-0.36882,0.291935,0.183057,-0.009031,-0.196453
295,1.1464379999999998,-1.4621600000000001,-2.566923,0.09876499999999999,0.9941049999999999,-0.044623,-0.44884799999999997,-0.692621,-0.001308,0.02976,0.070806,-0.033105
296,1.289104,-1.468839,-2.411104,0.097724,0.994807,-0.02828,-1.009996,-0.481732,-0.038612,-0.043677,0.078512,0.119528
297,1.472164,-1.473436,-2.222557,0.096683,0.9952639999999999,-0.009567,-0.9094549999999999,-0.189127,-0.039353,-0.076663,-0.066828,0.057709
298,1.611692,-1.474972,-2.076766,0.095545,0.9954120000000001,0.00391,-0.517926,-0.254164,-0.098492,-0.00677,-0.212865,-0.057865
299,1.6524,-1.4777930000000001,-2.0349310000000003,0.092507,0.9956780000000001,0.007566,-0.045589,0.092784,-0.158662,-0.074776,-0.23672100000000001,-0.09754700000000001
300,1.658302,-1.479682,-2.033804,0.090584,0.9958520000000001,0.007947,-0.000455,0.258434,-0.06455599999999999,-0.121025,-0.227816,-0.085904
301,1.6671029999999998,-1.480436,-2.032133,0.089762,0.99592,0.008672,-0.002817,0.502161,-0.007201000000000001,-0.106349,-0.267542,-0.088475
302,1.6786290000000001,-1.480449,-2.0343869999999997,0.089642,0.995921,0.009704,0.057997,0.7151029999999999,-0.031618,-0.010799,-0.267681,-0.012756
303,1.631034,-1.483303,-2.0982819999999998,0.087164,0.996175,0.005257,0.45203999999999994,0.907051,-0.15623,0.144251,-0.25916,-0.07749199999999999
304,1.5138610000000001,-1.486734,-2.2355110000000002,0.083767,0.996469,-0.0047740000000000005,0.6284850000000001,0.970462,-0.182852,0.234593,-0.18287,-0.10220499999999999
305,1.372455,-1.488535,-2.395322,0.080496,0.996618,-0.016179,0.639372,0.816882,-0.147328,0.400064,-0.19721,-0.07014
306,1.248506,-1.485426,-2.528952,0.080821,0.996358,-0.026989,0.556421,0.198218,0.125282,0.536245,-0.268865,0.010479
307,1.127427,-1.474628,-2.649428,0.08669199999999999,0.9953790000000001,-0.04117,0.8514440000000001,-0.136194,0.38093899999999997,0.288812,-0.379992,0.181551
308,0.990685,-1.45421,-2.780005,0.097259,0.9932120000000001,-0.063736,1.262515,-0.513666,0.648145,0.100694,-0.5299550000000001,0.388764
309,0.835334,-1.419551,-2.9227279999999998,0.111702,0.988584,-0.10106799999999999,2.248335,-0.761951,0.87754,-0.19023900000000002,-0.45570200000000005,0.339136
310,0.71225,-1.364655,-3.031227,0.13375599999999999,0.978828,-0.154909,2.336662,-0.8448889999999999,1.560857,-0.412671,0.563683,-0.23181
311,0.770625,-1.317136,-2.977018,0.174796,0.968,-0.180038,0.995682,0.820952,2.2522450000000003,-0.332358,0.9317340000000001,-0.112107
312,0.8203729999999999,-1.2711649999999999,-2.928052,0.21587699999999999,0.9554450000000001,-0.201281,1.2713079999999999,-0.360138,1.938422,-0.008173999999999999,0.836455,0.076815
313,0.832724,-1.233479,-2.90672,0.24482199999999998,0.9436459999999999,-0.222681,0.748012,-0.099273,1.359728,0.313619,0.24505900000000003,-0.161261
314,0.861711,-1.2162680000000001,-2.889009,0.263463,0.93781,-0.22603499999999999,0.184232,0.925268,0.581084,0.288234,0.42974300000000004,-0.135827
315,0.8917450000000001,-1.209492,-2.874277,0.27507,0.9354370000000001,-0.222007,-0.12578599999999998,0.6138560000000001,0.405198,-0.018402,0.5647310000000001,-0.34528400000000004
316,0.931385,-1.208067,-2.849023,0.284721,0.934932,-0.211727,-0.400047,0.9328290000000001,0.262936,-0.19403800000000002,0.086156,-0.171147
317,0.962952,-1.211103,-2.8273349999999997,0.288931,0.936005,-0.201013,-0.39898,0.186097,-0.010631999999999999,-0.19006900000000002,-0.109253,-0.19187
318,0.9757469999999999,-1.2202709999999999,-2.814181,0.28435900000000003,0.9391930000000001,-0.19248099999999999,-0.465974,0.068645,-0.41687399999999997,-0.101391,-0.268142,-0.029183999999999998
319,0.977985,-1.239264,-2.814665,0.269944,0.9455450000000001,-0.181844,-0.5856859999999999,0.12370899999999999,-1.028804,0.038726,-0.298297,-0.158198
320,0.9666879999999999,-1.270139,-2.823649,0.243721,0.955142,-0.168213,-0.8586879999999999,-0.33570900000000004,-1.519368,0.21756799999999998,-0.246829,-0.212952
321,0.9445629999999999,-1.309855,-2.834105,0.209021,0.966148,-0.151198,-1.107905,-0.722673,-1.7684400000000002,0.329431,-0.187782,-0.21556199999999998
322,0.9259229999999999,-1.3494540000000002,-2.836519,0.17543499999999998,0.9756040000000001,-0.131953,-1.155707,-0.8271430000000001,-1.442832,0.396357,-0.096514,-0.11774200000000001
323,0.940091,-1.38071,-2.806555,0.152576,0.981988,-0.11141,-1.195094,-0.717427,-0.8749540000000001,0.322827,-0.129098,-0.14136700000000002
324,0.9916889999999999,-1.4068200000000002,-2.740298,0.136603,0.9865860000000001,-0.089324,-1.229627,-0.641265,-0.710787,0.085656,-0.170058,-0.08630499999999999
325,1.062064,-1.431927,-2.656525,0.12086500000000001,0.990373,-0.067406,-1.137781,-0.688184,-0.778451,-0.21365399999999998,-0.254823,-0.034767
326,1.110902,-1.453968,-2.587967,0.10441700000000001,0.993183,-0.05171900000000001,-0.721622,-1.0988950000000002,-0.728016,-0.364534,-0.47459799999999996,0.062584
327,1.124334,-1.468739,-2.552736,0.091853,0.9947969999999999,-0.04397,-0.42115,-0.9973700000000001,-0.536972,-0.342677,-0.889191,-0.059561
328,1.22478,-1.483136,-2.4378330000000004,0.082311,0.99616,-0.029675,-1.0789950000000001,-0.47173999999999994,-0.345688,-0.205083,-0.988699,0.08598
329,1.522527,-1.490402,-2.130325,0.080157,0.99677,-0.003872,-1.375376,-0.516986,0.036860000000000004,-0.13322699999999998,-0.482839,-0.06612
330,1.6263610000000002,-1.487157,-2.00855,0.083359,0.9965040000000001,0.004637,0.29427600000000004,-1.137865,0.143321,0.03447,1.233751,0.03232
331,1.461119,-1.483463,-2.170798,0.086648,0.996189,-0.009542,0.6039760000000001,0.340776,0.131839,0.201713,0.7833220000000001,-0.015040000000000001
332,1.3705530000000001,-1.469036,-2.2586150000000003,0.09951,0.994827,-0.020197,0.579133,-0.342042,0.945458,0.258781,0.512467,-0.012701
333,1.313089,-1.454447,-2.311188,0.11221600000000001,0.993239,-0.029577,0.305788,-0.053025,0.568232,0.201245,-0.140853,0.171727
334,1.298055,-1.441063,-2.329319,0.124553,0.9915959999999999,-0.034839,0.37335999999999997,0.024513,0.5664680000000001,0.44633900000000004,-0.31100900000000004,-0.024365
335,1.265874,-1.429136,-2.351516,0.13464500000000001,0.989983,-0.042378,0.168487,-0.730971,0.528618,0.396361,-0.483162,-0.06602100000000001
336,1.2947870000000001,-1.4246530000000002,-2.30408,0.14008299999999999,0.98934,-0.039677,-0.528546,-0.9730059999999999,0.12240699999999999,0.269356,0.095834,-0.029827
337,1.387745,-1.430981,-2.195609,0.13700199999999998,0.990242,-0.025362,-0.9612059999999999,-0.502424,-0.233731,0.081275,0.495201,0.11778499999999999
338,1.512566,-1.4388530000000002,-2.0658790000000002,0.131305,0.991308,-0.0076549999999999995,-0.758416,-0.049165,-0.272419,-0.161838,0.41871099999999994,-0.025747000000000003
339,1.562416,-1.443409,-2.018494,0.127003,0.9918969999999999,-0.001064,-0.11286700000000001,0.255188,-0.22023,0.011959000000000001,0.244873,-0.166767
340,1.5690030000000001,-1.4480790000000001,-2.0182189999999998,0.122374,0.9924799999999999,-0.00021899999999999998,0.032601,0.32716100000000004,-0.229989,0.159639,0.11196700000000001,-0.123743
341,1.557711,-1.452368,-2.038362,0.118105,0.9929959999999999,-0.001545,0.19765,0.525664,-0.197043,0.176573,-0.093795,-0.098857
342,1.504921,-1.456726,-2.099703,0.11353699999999999,0.993501,-0.007490000000000001,0.435759,0.23121999999999998,-0.296484,0.076282,-0.21949899999999997,-0.134722
343,1.390128,-1.463336,-2.215361,0.105466,0.994232,-0.019265,0.688872,-0.080192,-0.427845,0.07937899999999999,-0.295242,0.060372
344,1.2094639999999999,-1.464026,-2.393455,0.099647,0.9943049999999999,-0.037659,1.069222,-0.176305,-0.165487,0.040917,-0.433453,0.185837
345,1.0082200000000001,-1.450549,-2.597586,0.10144,0.9927790000000001,-0.063962,1.469209,0.21373000000000003,0.250209,-0.111633,-0.552426,0.119077
346,0.8633790000000001,-1.423157,-2.749116,0.111783,0.9891209999999999,-0.09558,1.7013040000000001,0.241245,0.626741,-0.1714,-0.621583,0.146789
347,0.764242,-1.387684,-2.853565,0.12599000000000002,0.983282,-0.131437,1.900064,0.171984,0.725426,-0.151533,-0.646047,0.055113
348,0.713182,-1.349022,-2.910095,0.143897,0.975509,-0.16634000000000002,1.7359040000000001,0.241754,1.0019280000000002,-0.099036,-0.346007,-0.073818
349,0.694703,-1.308025,-2.925207,0.166277,0.965674,-0.199547,1.6662669999999997,-0.506896,1.2683879999999998,-0.020632,0.24390599999999998,0.052528
350,0.674832,-1.268545,-2.926499,0.185967,0.9546690000000001,-0.232415,1.376951,-1.14881,1.14114,0.323509,0.829709,-0.01818
351,0.661064,-1.242497,-2.917238,0.197954,0.946592,-0.254502,0.702588,-1.0364209999999998,0.7933859999999999,0.401335,0.793658,-0.08342000000000001
352,0.661471,-1.231641,-2.900836,0.20435799999999998,0.9430360000000001,-0.262515,-0.048251,-0.558588,0.498041,-0.05486799999999999,0.820895,-0.386518
353,0.688858,-1.228836,-2.866396,0.21315100000000003,0.942099,-0.258861,-0.245024,-0.164905,0.519663,-0.072328,0.754251,-0.273335
354,0.71349,-1.228553,-2.840146,0.21963600000000003,0.9420040000000001,-0.253734,-0.333057,0.14652,0.238775,-0.309724,0.292371,-0.239292
355,0.743513,-1.233754,-2.8164540000000002,0.22383499999999998,0.943737,-0.243417,-0.531101,0.507025,0.033967000000000004,-0.227054,-0.016582,-0.06214
356,0.768228,-1.246472,-2.801695,0.221423,0.947866,-0.229161,-0.696479,0.501005,-0.44788,-0.151859,-0.129888,0.007801000000000001
357,0.7819699999999999,-1.269558,-2.795329,0.209073,0.9549700000000001,-0.210511,-1.022942,0.282407,-0.909216,-0.021542,-0.081114,-0.04721
358,0.7852020000000001,-1.3031059999999999,-2.7934959999999998,0.18698800000000002,0.964384,-0.18706099999999998,-1.2946799999999998,-0.037849,-1.303809,0.11625,-0.128691,-0.140988
359,0.779141,-1.342251,-2.796152,0.159186,0.9739969999999999,-0.161191,-1.379384,-0.23103200000000002,-1.404566,0.181436,-0.176573,-0.124377
360,0.778931,-1.378021,-2.79166,0.134577,0.981476,-0.13633,-1.229179,-0.200878,-1.084157,0.265844,-0.29652399999999995,0.016472
361,0.7873600000000001,-1.405273,-2.779114,0.116721,0.986332,-0.116264,-0.946966,-0.2595,-0.78835,0.11892,-0.393467,-0.010811
362,0.8008069999999999,-1.4281709999999999,-2.755592,0.10202699999999999,0.9898459999999999,-0.09893099999999999,-0.9578110000000001,-0.628631,-0.642675,0.030693,-0.379357,-0.053276
363,0.832398,-1.4513129999999999,-2.70719,0.088131,0.99287,-0.08021299999999999,-1.048775,-0.919169,-0.634392,-0.117565,-0.305737,-0.090548
364,0.8729540000000001,-1.474257,-2.6469840000000002,0.073826,0.995344,-0.061911,-0.935668,-0.930161,-0.64854,-0.215977,-0.051649,-0.10294500000000001
365,0.911748,-1.4921209999999998,-2.594217,0.062097,0.996907,-0.048099,-0.6163529999999999,-0.453646,-0.47707299999999997,-0.212274,-0.004902,-0.055432
366,0.9669059999999999,-1.502687,-2.540511,0.055973,0.9976809999999999,-0.038613999999999996,-0.430724,0.274392,-0.219268,-0.14072,-0.535081,-0.0689
367,1.08599,-1.509909,-2.435725,0.053779999999999994,0.9981469999999999,-0.028327999999999996,-0.536984,1.00914,-0.054309,-0.187721,-0.697869,0.011741
368,1.339707,-1.513066,-2.202974,0.05609600000000001,0.998334,-0.013199,-0.803884,0.977126,0.190627,-0.13103199999999998,-0.5458189999999999,-0.067413
369,1.63214,-1.5085709999999999,-1.920869,0.062004,0.998065,0.0038079999999999998,-0.7441479999999999,0.13809200000000002,0.304282,-0.16169,0.106367,0.056494
370,1.601209,-1.504775,-1.9450830000000001,0.065884,0.997821,0.0020039999999999997,0.655295,-0.359245,0.120278,-0.145931,0.9233819999999999,0.197871
371,1.334884,-1.502063,-2.219107,0.066723,0.9976389999999999,-0.016038999999999998,0.6699689999999999,0.561936,-0.088035,-0.20792800000000003,1.427074,0.158145
372,1.272142,-1.509314,-2.2732099999999997,0.058663,0.9981110000000001,-0.01806,0.267115,-0.506506,-0.544542,0.386466,0.9112520000000001,-0.19805
373,1.052031,-1.507854,-2.5070919999999997,0.054572,0.99802,-0.031156,0.380546,1.277576,0.218811,0.799707,0.612835,0.043913
374,1.227336,-1.495265,-2.3516369999999998,0.071003,0.997149,-0.025393000000000002,-0.15590199999999999,0.603348,0.9262959999999999,0.739849,0.312391,0.112399
375,1.253715,-1.485101,-2.321749,0.08128200000000001,0.9963299999999999,-0.026673000000000002,0.0065379999999999995,-0.665606,0.30628299999999997,0.392015,0.09146900000000001,-0.049362
376,1.317204,-1.4872370000000001,-2.238068,0.080751,0.996511,-0.020929,-0.6795770000000001,-0.973239,-0.22154400000000002,0.149061,0.387858,0.015512
377,1.589388,-1.499111,-1.955512,0.071556,0.997432,0.00133,-1.336262,-0.174118,-0.49207399999999996,-0.06243099999999999,0.12601199999999999,0.112149
378,1.998895,-1.5030620000000001,-1.5450760000000001,0.061523,0.997707,0.028074,-1.282926,-0.016331000000000002,-0.5698840000000001,-0.009840999999999999,0.014606999999999998,0.053637
379,2.415032,-1.5013040000000002,-1.123838,0.046087,0.9975860000000001,0.05185700000000001,-1.185684,-0.288146,-0.8775729999999999,0.026407,-0.139875,-0.018668999999999998
380,2.771887,-1.489649,-0.7628729999999999,0.029269,0.9967090000000001,0.075529,-1.185916,-0.038064999999999995,-0.812733,0.009412,-0.24979200000000001,0.025301
381,3.003761,-1.473428,-0.531193,0.01335,0.9952629999999999,0.09624400000000001,-0.917703,0.0643,-0.803513,-0.013456999999999998,-0.281595,-0.041877
382,-3.1088400000000003,-1.4601600000000001,-0.360632,-0.003614,0.993886,0.11030799999999999,-0.588946,0.037832,-0.86314,-0.038821,-0.274098,-0.10791300000000001
383,-2.974075,-1.4501680000000001,-0.225384,-0.020058000000000003,0.992733,0.118612,-0.312974,0.030194,-0.7907,0.02253,-0.276989,-0.103354
384,-2.866708,-1.443648,-0.11928,-0.03441,0.991928,0.122011,-0.125144,0.177072,-0.65498,0.11045999999999999,-0.371215,-0.16420099999999999
385,-2.778408,-1.439262,-0.037078,-0.04658,0.9913620000000001,0.122564,0.020434,0.418904,-0.518609,0.193079,-0.35323899999999997,-0.078436
386,-2.69652,-1.438585,0.037083,-0.056739,0.991273,0.118951,0.254607,0.381533,-0.433604,0.242865,-0.347306,-0.019662
387,-2.60677,-1.44164,0.121947,-0.06562799999999999,0.9916709999999999,0.11077999999999999,0.440392,0.207123,-0.402173,0.303207,-0.34665100000000004,-0.11918800000000002
388,-2.521236,-1.444882,0.20715,-0.072983,0.992083,0.102153,0.42936599999999997,-0.04875,-0.341033,0.437058,-0.256747,-0.170467
389,-2.442929,-1.448425,0.29065,-0.07849,0.9925219999999999,0.09344,0.47353,-0.357061,-0.26769,0.613494,-0.265151,-0.064677
390,-2.366845,-1.454715,0.379404,-0.080996,0.9932700000000001,0.08274,0.682454,-0.73227,-0.12474500000000001,0.686373,-0.339965,-0.140494
391,-2.285675,-1.462416,0.47990600000000005,-0.08165599999999999,0.994133,0.070882,0.6007319999999999,-1.080455,-0.093891,0.629645,-0.311729,-0.162328
392,-2.22195,-1.468361,0.568282,-0.081302,0.994758,0.061953999999999995,0.576442,-1.210544,-0.041551,0.40105,-0.20105699999999999,-0.13913299999999998
393,-2.137896,-1.476008,0.676901,-0.079797,0.995511,0.050821,0.69548,-1.227278,0.043691,0.355569,-0.29575799999999997,0.058904
394,-2.0321849999999997,-1.487657,0.8060350000000001,-0.07431900000000001,0.9965459999999999,0.03695,0.818593,-1.018202,0.398933,0.11583800000000001,-0.326166,0.167945
395,-1.906451,-1.508462,0.946204,-0.05876,0.998058,0.020499,0.9409850000000001,-0.519163,0.968511,-0.200685,-0.14385599999999998,0.135889
396,-1.577681,-1.538986,1.282659,-0.031684,0.9994940000000001,0.000218,1.04315,-0.424038,1.599353,-0.392388,0.319659,0.171138
397,0.322025,-1.5516020000000001,-3.080126,0.006013,0.999816,-0.018021000000000002,0.803808,-1.348178,1.9428330000000003,-0.0010539999999999998,0.832902,0.186936
398,0.9075340000000001,-1.5212430000000001,-2.459419,0.038971,0.9987729999999999,-0.03045,0.49824399999999996,-1.885432,1.498075,0.207077,1.076026,0.17756
399,0.978095,-1.492584,-2.349323,0.064764,0.996943,-0.043617,0.5825020000000001,-2.008824,1.380249,0.231577,1.072729,0.15451800000000002
400,1.028468,-1.462754,-2.257532,0.092328,0.9941690000000001,-0.055637,0.341538,-2.096867,1.495115,-0.031583,1.4216790000000001,0.07294099999999999
401,1.0449190000000002,-1.435287,-2.1975860000000003,0.116816,0.990833,-0.067799,0.476821,-2.116733,1.284577,-0.009531,1.056363,0.160908
402,1.008399,-1.409675,-2.195379,0.135695,0.9870479999999999,-0.08552799999999999,0.709808,-1.8330490000000002,1.0027629999999998,0.16092,0.699445,-0.099454
403,0.9697889999999999,-1.388847,-2.200582,0.149221,0.9834930000000001,-0.10230800000000001,0.474763,-1.647069,0.7851020000000001,0.217692,0.57385,-0.079485
404,0.968952,-1.372282,-2.1683470000000002,0.162546,0.980361,-0.11164400000000001,0.108378,-1.6143610000000002,0.91496,0.203467,0.494676,0.021541
405,0.983524,-1.358356,-2.120916,0.175505,0.977519,-0.116818,-0.09955900000000001,-1.736621,0.7673180000000001,0.227464,0.008153,0.037763
406,0.987979,-1.353046,-2.069028,0.180356,0.9763860000000001,-0.11889100000000001,-0.44289700000000004,-2.529723,0.400604,0.15048499999999998,-0.285529,0.115351
407,0.9943719999999999,-1.355012,-2.009834,0.179503,0.976809,-0.11668900000000001,-0.642637,-2.563298,0.179198,0.098772,-0.384341,0.15170799999999998
408,0.99082,-1.361675,-1.958495,0.17363800000000001,0.9782139999999999,-0.113756,-0.608546,-2.826589,-0.074463,-0.040719,-0.611408,0.262545
409,0.9600489999999999,-1.370806,-1.926727,0.162731,0.980068,-0.113917,-0.476156,-3.233219,-0.265297,-0.157101,-0.705105,0.306163
410,0.905399,-1.3820940000000002,-1.915045,0.147553,0.982248,-0.115798,-0.400819,-3.284885,-0.463394,-0.214799,-0.723856,0.326995
411,0.82737,-1.3952930000000001,-1.9302740000000003,0.128522,0.9846389999999999,-0.11816199999999999,-0.24742600000000003,-3.070466,-0.670901,-0.33628600000000003,-0.6617930000000001,0.369322
412,0.70517,-1.404935,-1.9919529999999999,0.107001,0.9862770000000001,-0.125711,0.161143,-3.121795,-0.709642,-0.315314,-0.549616,0.072565
413,0.572896,-1.411517,-2.059784,0.085966,0.987342,-0.133268,-0.134682,-3.305538,-0.590763,-0.095075,-0.39218800000000004,-0.426882
414,0.490517,-1.4255790000000002,-2.0848970000000002,0.06816,0.989474,-0.127627,-0.561569,-2.46843,-0.43778900000000004,0.018816,-0.318362,-0.354535
415,0.426116,-1.423115,-2.112539,0.060813,0.989115,-0.133969,0.8239479999999999,-1.557078,0.090941,0.350625,0.120199,-0.038363
416,0.39632,-1.391103,-2.121713,0.068987,0.983899,-0.164859,1.6448209999999999,-0.625857,0.9340360000000001,0.353666,0.267704,0.007389
417,0.48915699999999995,-1.3593309999999998,-2.0329900000000003,0.09861900000000001,0.9777239999999999,-0.18526700000000002,0.56942,0.8237190000000001,1.6649450000000001,0.251098,0.026929,0.021784
418,0.628127,-1.343698,-1.9109759999999998,0.132299,0.974324,-0.182167,-0.202665,0.778852,1.3006870000000001,0.42414300000000005,-0.247822,-0.367363
419,0.670972,-1.335598,-1.863975,0.14488199999999998,0.972468,-0.182508,0.15875799999999998,-0.7269140000000001,0.322376,0.41156000000000004,-0.24596700000000002,-0.36702199999999996
420,0.656673,-1.32912,-1.8611689999999999,0.146101,0.970938,-0.189548,0.12622,-0.799423,0.368176,0.645968,1.135965,0.058290999999999996
421,0.7173039999999999,-1.33349,-1.7794400000000001,0.154527,0.971975,-0.177147,-1.5854030000000001,-0.845657,0.6265390000000001,0.261443,1.360331,0.772896
422,0.8716450000000001,-1.3669719999999999,-1.599553,0.154916,0.9793,-0.13025899999999999,-2.494727,-1.3946290000000001,-0.093749,-0.5796899999999999,0.001078,0.35791999999999996
423,0.863117,-1.3770850000000001,-1.560877,0.146264,0.981297,-0.125129,0.496521,-2.910201,-0.101892,-0.59414,-0.249027,0.195213
424,0.676596,-1.353167,-1.693613,0.135185,0.9764120000000001,-0.16834000000000002,2.16082,-2.149353,-0.272839,-0.182121,-0.435946,-0.054621
425,0.570357,-1.337547,-1.784054,0.124793,0.9729200000000001,-0.19454200000000002,0.607491,-0.35062,-0.394953,-0.123176,-0.44330299999999995,0.343452
426,0.529928,-1.346135,-1.8268389999999999,0.1126,0.9748700000000001,-0.192209,-0.502253,0.102503,-0.859416,0.041819,-0.180696,0.37337600000000004
427,0.462887,-1.377504,-1.877946,0.085768,0.981377,-0.171862,-1.450117,-1.6553419999999999,-1.3338020000000002,0.194689,0.647483,0.326571
428,0.364977,-1.411746,-1.9301599999999999,0.056523000000000004,0.9873780000000001,-0.14793,-1.094627,-2.374139,-0.909518,0.057704,0.858615,0.14344400000000002
429,0.267223,-1.424359,-1.984841,0.038523,0.989297,-0.140713,-0.311217,-2.054986,-0.416278,0.18596400000000002,0.018241,0.024335
430,0.253905,-1.439581,-1.962293,0.032858,0.9914040000000001,-0.126619,-1.148992,-1.5907790000000002,0.106045,0.40979899999999997,-0.232477,-0.009673000000000001
431,0.29468099999999997,-1.470078,-1.8872799999999998,0.029192000000000003,0.9949319999999999,-0.096179,-1.724711,-1.954359,-0.113291,0.203428,-0.257521,0.188251
432,0.24762800000000001,-1.5042440000000001,-1.884838,0.016286000000000002,0.9977860000000001,-0.064419,-1.586867,-2.6675310000000003,-0.639116,-0.062475,-0.305327,0.21145300000000003
433,-0.071378,-1.53755,-2.154382,-0.002362,0.999447,-0.033042,-1.63932,-2.2444919999999997,-0.891056,-0.32677,-0.231396,0.11498199999999999
434,-1.6839549999999999,-1.549311,2.547084,-0.021166,0.999769,0.002405,-1.774544,-1.251117,-0.9082290000000001,-0.409635,-0.13043,0.12055
435,-2.29568,-1.52011,1.958084,-0.03787,0.9987159999999999,0.033543,-1.314827,-1.176421,-0.805769,-0.136522,-0.0323,0.16889500000000002
436,-2.4092919999999998,-1.494477,1.866872,-0.05094,0.9970889999999999,0.05665800000000001,-1.074639,-1.011616,-0.669706,0.114554,-0.06273200000000001,0.055585
437,-2.467191,-1.468224,1.8243740000000002,-0.063911,0.9947440000000001,0.079944,-1.122032,-0.6916479999999999,-0.7249270000000001,0.092765,-0.170342,-0.02106
438,-2.483,-1.443036,1.823061,-0.077956,0.99185,0.100738,-0.9032680000000001,-0.771936,-0.816231,0.11123599999999999,-0.15595799999999999,0.035462
439,-2.476019,-1.419586,1.8468669999999998,-0.093001,0.9885889999999999,0.118461,-0.80415,-0.8381540000000001,-0.859251,0.13667100000000001,-0.13132,0.002358
440,-2.4724369999999998,-1.3977700000000002,1.8656540000000001,-0.10678299999999999,0.985068,0.135017,-0.717547,-0.666408,-0.727475,0.10086200000000001,0.022576,-0.019569
441,-2.4712110000000003,-1.380908,1.8779259999999998,-0.117253,0.982025,0.147884,-0.5061939999999999,-0.46969700000000003,-0.553199,0.086125,0.056029999999999996,0.009801
442,-2.464363,-1.369942,1.8932759999999997,-0.125004,0.9798959999999999,0.15546,-0.21331,-0.423425,-0.390979,0.250203,0.109169,-0.045627999999999995
443,-2.454221,-1.36737,1.9097240000000002,-0.128173,0.9793799999999999,0.156132,0.135022,-0.262783,-0.106741,0.457992,0.15888,-0.17483900000000002
444,-2.448746,-1.3736959999999998,1.9279990000000002,-0.125066,0.9806379999999999,0.15065699999999999,0.49527299999999996,-1.031023,0.157406,0.572179,0.013182,-0.09616799999999999
445,-2.4584040000000003,-1.386785,1.9512310000000002,-0.11549100000000001,0.983118,0.14189000000000002,0.736217,-1.912211,0.265972,0.829679,-0.107706,0.201967
446,-2.469641,-1.406574,1.984778,-0.101756,0.9865459999999999,0.127925,1.122148,-2.22552,0.493396,0.8293870000000001,0.07069,0.152852
447,-2.461764,-1.435799,2.024808,-0.084591,0.9909020000000001,0.104643,1.412432,-1.190174,0.799608,0.102551,0.22661199999999998,0.29468
448,-2.397966,-1.4739,2.103733,-0.065465,0.995309,0.071176,2.0554959999999998,-0.622047,0.9571959999999999,-0.399714,0.421729,0.232535
449,-2.039142,-1.5265520000000001,2.4791220000000003,-0.039393,0.9990209999999999,0.019928,2.8145919999999998,-0.889018,1.5268620000000002,-0.49753400000000003,0.480807,0.21936
450,-0.06817100000000001,-1.540704,-1.812605,-0.002041,0.999547,-0.029899000000000002,2.192338,-0.99403,1.953143,-0.345844,0.54095,0.179069
451,0.50134,-1.5002739999999999,-1.21935,0.033842000000000004,0.9975139999999999,-0.061751,1.219986,-1.263703,1.7704400000000002,-0.09074199999999999,0.563368,0.055938
452,0.658396,-1.465068,-1.02983,0.06455,0.994416,-0.08344800000000001,1.027153,-1.837635,1.608527,0.019648,0.364715,0.088377
453,0.700673,-1.427518,-0.945672,0.092047,0.9897530000000001,-0.109133,1.1583459999999999,-2.101141,1.590553,0.25595999999999997,0.006722,0.13225
454,0.720105,-1.389689,-0.8832200000000001,0.118772,0.9836450000000001,-0.13539,1.0492,-2.147735,1.6154879999999998,0.318347,0.001829,0.17260699999999998
455,0.718802,-1.3549579999999999,-0.840616,0.141016,0.9767969999999999,-0.16117,1.0612489999999999,-2.138057,1.316458,0.155081,0.013772999999999999,0.048179
456,0.702214,-1.326824,-0.8036399999999999,0.15601800000000002,0.9703860000000001,-0.184401,0.681327,-2.708498,1.242964,0.057040999999999994,-0.005298,0.233046
457,0.7116899999999999,-1.299935,-0.7508600000000001,0.174741,0.963541,-0.202606,0.468764,-1.31225,1.508882,-0.147596,-0.062952,-0.093552
458,0.725271,-1.2749219999999999,-0.686552,0.193408,0.9565469999999999,-0.21818600000000002,0.39638,-3.02461,1.4208399999999999,-0.177981,-0.06500700000000001,0.13325499999999998
459,0.711209,-1.25135,-0.6345350000000001,0.204985,0.9494090000000001,-0.237902,0.332162,-3.132792,1.357505,-0.13011,-0.064461,0.263156
460,0.698991,-1.2299149999999999,-0.583825,0.21511,0.9424600000000001,-0.255911,0.256254,-3.01819,1.269234,-0.070258,-0.07234299999999999,0.294653
461,0.681204,-1.213775,-0.538226,0.22007600000000002,0.936942,-0.27147899999999997,0.025001,-2.979066,1.010127,-0.057951,-0.068869,0.355296
462,0.6655369999999999,-1.205396,-0.496367,0.220635,0.933981,-0.281059,-0.202316,-2.564875,0.724929,-0.10091499999999999,-0.171575,0.356392
463,0.6534369999999999,-1.202848,-0.46193,0.218665,0.933067,-0.285596,-0.324544,-1.993543,0.47872,-0.21671100000000001,-0.22234299999999999,0.298246
464,0.647014,-1.205971,-0.434304,0.21506799999999998,0.9341860000000001,-0.284669,-0.489167,-1.409082,0.183061,-0.24987399999999999,-0.213941,0.27066100000000004
465,0.639887,-1.216518,-0.41507,0.207139,0.937897,-0.278275,-0.709572,-1.200184,-0.184079,-0.20872600000000002,-0.203751,0.188172
466,0.625776,-1.2341030000000002,-0.405775,0.1935,0.943852,-0.267759,-0.8335969999999999,-1.104718,-0.506602,-0.14695999999999998,-0.182225,0.14552
467,0.6009260000000001,-1.254458,-0.41033000000000003,0.175886,0.9503809999999999,-0.25658200000000003,-0.739304,-0.9806540000000001,-0.711201,-0.081174,-0.090121,0.096349
468,0.56515,-1.273801,-0.42821800000000004,0.15672,0.9562200000000001,-0.247135,-0.652159,-0.8890620000000001,-0.781212,0.012653,0.096682,-0.015163999999999999
469,0.53192,-1.295536,-0.44565,0.137847,0.962354,-0.23423400000000003,-0.896365,-0.8350639999999999,-0.753077,0.12471099999999999,0.18677,-0.30199000000000004
470,0.502209,-1.3156139999999998,-0.463462,0.1215,0.9676170000000001,-0.221241,-0.477865,-0.44380600000000003,-0.658788,0.186361,0.012088,-0.034481
471,0.44752700000000006,-1.310625,-0.508731,0.11131400000000001,0.9663459999999999,-0.23190100000000002,1.065725,-0.710023,-0.158419,0.255858,0.112695,0.10343699999999999
472,0.41985900000000004,-1.288867,-0.524598,0.113402,0.960521,-0.25403400000000004,0.732799,-0.369287,0.43381800000000004,0.239992,0.21870900000000001,-0.042154000000000004
473,0.465318,-1.284774,-0.48258500000000004,0.126592,0.959374,-0.25213,-0.46993199999999996,0.56157,0.725463,0.218654,-0.043312,0.120019
474,0.53793,-1.289409,-0.414803,0.14227,0.9606709999999999,-0.23845999999999998,-0.643609,0.072408,0.6597149999999999,0.169284,-0.199242,-0.06741799999999999
475,0.586646,-1.293051,-0.360189,0.151775,0.961676,-0.228334,-0.550972,-0.285525,0.5796359999999999,0.427647,0.501352,0.077363
476,0.642018,-1.296135,-0.290001,0.162402,0.962517,-0.217207,-0.803588,-0.674667,0.6114850000000001,-0.073322,0.32765900000000003,0.234388
477,0.7020649999999999,-1.311069,-0.21191,0.16584200000000002,0.96646,-0.196072,-1.509088,-0.9028200000000001,0.20413,-0.193339,0.315812,0.185238
478,0.7231390000000001,-1.328964,-0.152543,0.15846500000000002,0.970901,-0.179536,-0.62922,-2.536375,-0.17005499999999998,-0.224933,0.321061,0.08064400000000001
479,0.650362,-1.3307129999999998,-0.175835,0.14396199999999998,0.971318,-0.18923099999999998,0.347648,-2.079976,-0.332595,-0.035091000000000004,-0.05388300000000001,0.350272
480,0.569864,-1.32875,-0.228285,0.12930899999999998,0.970849,-0.2018,0.385968,-1.328373,-0.511684,0.050317,-0.179758,0.431537
481,0.503406,-1.334193,-0.261455,0.113071,0.97214,-0.20531,-0.31774600000000003,-1.8939139999999999,-0.4646,0.018017,-0.20888,0.497119
482,0.46649799999999997,-1.351613,-0.26622399999999996,0.097786,0.976075,-0.194186,-0.9761629999999999,-1.4007319999999999,-0.41641999999999996,-0.273903,0.012206,0.22780100000000003
483,0.460171,-1.375586,-0.248849,0.086135,0.981007,-0.173778,-1.2015280000000002,-1.178533,-0.376618,-0.430709,0.071987,0.206554
484,0.460164,-1.398414,-0.223095,0.076166,0.9851790000000001,-0.153668,-1.023182,-1.168276,-0.16601400000000002,-0.39895,0.11121099999999999,0.26356199999999996
485,0.53446,-1.4119959999999998,-0.13967100000000002,0.080539,0.987418,-0.136062,-0.961925,0.10595399999999999,0.538876,0.171247,-0.029669,0.202423
486,0.6983550000000001,-1.424298,0.016678,0.093841,0.989288,-0.111784,-1.286578,0.535225,0.562764,0.167329,-0.131744,0.17127799999999999
487,0.84088,-1.436351,0.152481,0.099871,0.990976,-0.089361,-0.905912,0.219547,0.056285,0.140974,-0.15215399999999998,0.081808
488,0.889684,-1.44681,0.207302,0.096051,0.992324,-0.077849,-0.48012299999999997,-0.5444859999999999,-0.254887,-0.096997,-0.228758,0.091399
489,0.9068069999999999,-1.457241,0.23746599999999998,0.089209,0.99356,-0.06980800000000001,-0.495174,-0.60183,-0.286965,-0.04972,-0.22589,0.13789300000000002
490,0.957108,-1.465199,0.295605,0.086137,0.9944299999999999,-0.060676999999999995,-0.445504,-0.211024,-0.026473000000000003,-0.003785,-0.157775,0.144951
491,1.01111,-1.465325,0.34986999999999996,0.089181,0.9944430000000001,-0.055873,-0.093339,0.098709,0.266146,-0.07409,-0.150251,0.031702999999999995
492,1.019291,-1.456957,0.35429299999999997,0.096723,0.993527,-0.059502,0.369722,0.249914,0.413397,-0.12295299999999999,-0.20524299999999998,-0.070274
493,0.985808,-1.445065,0.314691,0.104522,0.9921059999999999,-0.069227,0.558988,0.24114899999999997,0.31004499999999996,-0.093414,-0.223735,-0.116503
494,0.950725,-1.435433,0.274547,0.109804,0.9908520000000001,-0.078402,0.42721499999999996,0.306793,0.258834,-0.038592,-0.381065,0.013796000000000001
495,0.949944,-1.4247370000000001,0.262353,0.11835799999999999,0.989352,-0.084649,0.389613,0.692787,0.46638,0.023426,-0.5823699999999999,0.138208
496,0.942148,-1.411209,0.24293800000000002,0.128511,0.987293,-0.093433,0.6033149999999999,0.471754,0.41153999999999996,0.037383,-0.6710699999999999,0.010212
497,0.9094909999999999,-1.4000299999999999,0.203006,0.134095,0.985455,-0.104353,0.541647,0.239798,0.130464,0.092788,-0.444241,-0.069247
498,0.8729020000000001,-1.397617,0.163939,0.13201,0.985042,-0.11071700000000001,0.192215,-0.011054999999999999,-0.23698699999999998,0.196191,-0.05419500000000001,-7.7e-05
499,0.851042,-1.401773,0.145764,0.126478,0.985749,-0.110875,-0.10378699999999999,-0.309544,-0.193807,0.452089,-0.019334,0.100484
500,0.846131,-1.401594,0.150134,0.126064,0.98572,-0.11161199999999999,0.097625,-0.509699,0.134732,0.38399099999999997,-0.098512,0.117502
501,0.819421,-1.394461,0.13633499999999998,0.128175,0.9844930000000001,-0.11973699999999998,0.450371,-0.753076,0.21869299999999997,0.207747,-0.12829200000000002,0.121706
502,0.779706,-1.380299,0.11286800000000001,0.13311199999999998,0.9819100000000001,-0.13463599999999998,0.767814,-0.858485,0.462463,-0.017038,-0.303245,0.348518
503,0.740464,-1.355585,0.090759,0.14406,0.976931,-0.157625,1.260859,-0.9235129999999999,0.84521,-0.093202,-0.40463499999999997,0.47000299999999995
504,0.6999529999999999,-1.312245,0.06541799999999999,0.164696,0.9667610000000001,-0.195553,2.262784,-0.573465,1.414712,-0.242089,-0.454646,0.447506
505,0.661238,-1.2478790000000002,0.029533999999999998,0.194867,0.948314,-0.25044299999999997,2.706886,-0.18112799999999998,1.7495290000000001,-0.39608499999999996,0.055425,-0.481109
506,0.6974229999999999,-1.193684,0.057751,0.236494,0.929732,-0.282248,1.4646290000000002,0.9652040000000001,2.269221,-0.154859,0.92119,0.217719
507,0.735641,-1.1456110000000002,0.090577,0.276802,0.910962,-0.305815,1.406072,-0.01145,1.73702,-0.042151999999999995,1.193316,-0.17705
508,0.757494,-1.1165610000000001,0.106637,0.301479,0.898597,-0.318792,0.46485299999999996,0.686984,1.052298,0.198506,1.025017,-0.11983800000000001
509,0.7837609999999999,-1.100386,0.12460299999999999,0.319969,0.891382,-0.32101799999999997,0.202652,0.116349,0.659161,0.159661,0.629797,-0.165265
510,0.795706,-1.0944969999999998,0.1382,0.327524,0.888698,-0.320841,-0.11508399999999999,0.092055,0.350393,-0.057977999999999995,-0.019572,-0.125753
511,0.806747,-1.0943180000000001,0.14904,0.33116100000000004,0.888616,-0.317315,-0.195804,0.099978,0.037898,0.040268,-0.04717,-0.009239
512,0.817731,-1.1004610000000001,0.153977,0.330638,0.891416,-0.309919,-0.37773,0.435065,-0.21803899999999998,-0.096278,-0.00366,-0.059633000000000005
513,0.829147,-1.1136469999999998,0.155645,0.32545799999999997,0.897314,-0.298158,-0.497993,0.5543600000000001,-0.642048,-0.16664400000000001,0.187799,-0.157531
514,0.836975,-1.135848,0.142311,0.312908,0.906892,-0.28218699999999997,-0.544243,0.41603900000000005,-1.175236,-0.144268,0.156844,-0.192971
515,0.8247329999999999,-1.163905,0.128157,0.290624,0.918356,-0.268615,-0.924069,-0.19251300000000002,-1.308501,-0.061971000000000005,0.06954400000000001,-0.268067
516,0.815476,-1.200009,0.120689,0.263803,0.932042,-0.248392,-1.18629,-0.071609,-1.479267,0.166007,-0.09425800000000001,-0.0028280000000000002
517,0.800072,-1.2384709999999999,0.108028,0.234041,0.9452860000000001,-0.227271,-1.168509,-0.212036,-1.540923,0.277587,0.019649,0.059454999999999994
518,0.793571,-1.275102,0.102381,0.207722,0.9566,-0.204354,-1.244515,0.046883999999999995,-1.223455,-0.039082,-0.231091,0.181329
519,0.809923,-1.3037969999999999,0.118752,0.19107000000000002,0.964567,-0.181921,-1.0839020000000001,-0.019673,-0.703092,-0.13974,-0.449034,0.152197
520,0.828327,-1.326249,0.140678,0.17837999999999998,0.970247,-0.163687,-0.937831,-0.189914,-0.61426,-0.186727,-0.937593,0.133185
521,0.8476299999999999,-1.349071,0.163912,0.164859,0.975519,-0.145518,-0.9931540000000001,-0.289319,-0.749115,-0.13074000000000002,-1.219065,0.011271999999999999
522,0.860283,-1.375504,0.189104,0.147083,0.980991,-0.126553,-1.113752,-0.7842060000000001,-0.761073,-0.20724800000000002,-1.2150299999999998,0.062313
523,0.9141,-1.394839,0.260594,0.138626,0.984559,-0.10685599999999999,-0.985133,-0.872812,-0.027261,-0.409683,-0.900209,-0.043748
524,0.9531149999999999,-1.384703,0.312177,0.150817,0.982735,-0.107142,0.528014,-0.09456200000000001,1.173378,-0.184035,0.8833850000000001,-0.069524
525,1.073344,-1.372943,0.42634399999999995,0.17272300000000002,0.980491,-0.093789,-1.534426,0.293045,0.8689870000000001,-0.070688,2.139871,0.338616
526,1.1157700000000002,-1.3617290000000002,0.492464,0.186412,0.978225,-0.091206,0.839366,-1.1046,0.67692,0.222111,0.5952310000000001,0.160527
527,0.997785,-1.346532,0.375276,0.186853,0.974958,-0.12056199999999999,1.175259,0.24375300000000003,-0.07449,-0.095224,0.497591,-0.104718
528,0.9906950000000001,-1.336914,0.36218,0.19383,0.972774,-0.127019,0.178508,0.22066,0.43666499999999997,0.208209,0.141118,0.1881
529,0.98193,-1.329078,0.35988600000000004,0.199043,0.970928,-0.132944,0.319309,-0.653794,0.280672,0.298073,-0.361431,0.086542
530,0.959227,-1.322563,0.34936999999999996,0.20115,0.969348,-0.141058,0.075656,-0.46784899999999996,0.078974,0.329398,0.014783000000000001,-0.24383000000000002
531,0.9919870000000001,-1.333137,0.385274,0.19707,0.971892,-0.128779,-1.056468,0.043727999999999996,-0.332309,0.12692,0.507692,0.044139
532,1.069658,-1.349081,0.464801,0.192852,0.9755219999999999,-0.10564000000000001,-1.0226709999999999,0.012645,-0.047886,0.030873,0.121097,0.359058
533,1.100024,-1.351357,0.49075799999999997,0.19399,0.9760200000000001,-0.098729,0.124009,0.443255,-0.036155,-0.030813,-0.16075799999999998,0.244664
534,1.0505520000000002,-1.347334,0.432061,0.192277,0.975136,-0.110153,0.8759979999999999,0.248452,-0.190886,0.029906,-0.054528,-0.108048
535,0.9810200000000001,-1.343624,0.356781,0.187166,0.9743069999999999,-0.125257,0.698317,0.23359000000000002,-0.31602199999999997,0.119902,0.085477,-0.085268
536,0.914953,-1.340372,0.28985900000000003,0.180998,0.97357,-0.139272,0.806912,-0.281358,-0.30499,0.128145,-0.18842899999999999,0.07297200000000001
537,0.8349489999999999,-1.330526,0.212561,0.176386,0.971274,-0.159719,1.096945,-0.10638199999999999,-0.09168,0.051838999999999996,-0.35423899999999997,0.143621
538,0.78172,-1.3125280000000001,0.155662,0.179927,0.966834,-0.181256,1.1166690000000001,0.17316600000000001,0.31188699999999997,0.007801000000000001,-0.40007600000000004,0.073224
539,0.752918,-1.289584,0.123609,0.189754,0.96072,-0.202499,1.190518,0.021612,0.584994,-0.0034289999999999998,-0.44881800000000005,0.24751199999999998
540,0.718441,-1.256432,0.087035,0.203523,0.950993,-0.23278000000000001,1.849494,0.126163,0.774265,0.005614,-0.48267,0.346061
541,0.694937,-1.21475,0.056755999999999994,0.22319899999999998,0.937282,-0.267731,1.769453,0.250666,1.143152,-0.19603900000000002,-0.154277,-0.044509
542,0.70431,-1.173054,0.064446,0.250801,0.9219379999999999,-0.29517,1.4600799999999998,-0.029077,1.570774,-0.20815300000000003,0.44404399999999994,0.13065
543,0.700818,-1.133364,0.067217,0.273162,0.905842,-0.32377100000000003,1.410312,-0.43599399999999994,1.0774299999999999,-0.04193,0.643672,0.25559499999999996
544,0.694966,-1.110334,0.066903,0.284549,0.895847,-0.3413,0.461434,-0.026079,0.622691,0.191724,1.093197,-0.308388
545,0.716493,-1.096131,0.08545599999999999,0.300156,0.889446,-0.344657,0.2901,0.227424,0.779267,-0.00647,1.2515459999999998,-0.144814
546,0.731408,-1.0877709999999998,0.101681,0.310218,0.8855940000000001,-0.34566399999999997,-0.147045,0.010624,0.49661700000000003,-0.16892200000000002,0.409786,-0.220818
547,0.751263,-1.08774,0.12296300000000002,0.31703899999999996,0.8855799999999999,-0.339457,-0.383646,0.051876,0.242811,-0.090339,-0.0009660000000000001,-0.049886
548,0.760795,-1.094295,0.135695,0.316251,0.888605,-0.332208,-0.498043,-0.132664,-0.128425,-0.14401,-0.117548,0.013559
549,0.771316,-1.1082969999999999,0.148396,0.31102399999999997,0.89494,-0.31990999999999997,-0.832355,0.012240000000000001,-0.377705,-0.141041,-0.197537,0.081568
550,0.781172,-1.130102,0.15934,0.300348,0.9044559999999999,-0.302898,-0.974092,-0.050894999999999996,-0.716172,-0.043177,-0.220892,0.088497
551,0.778616,-1.156879,0.160547,0.282458,0.915552,-0.28631599999999996,-0.9682209999999999,-0.263698,-1.0502120000000001,-0.006548999999999999,-0.30101999999999995,0.053238
552,0.7629090000000001,-1.1897959999999999,0.150601,0.256954,0.928293,-0.268779,-1.118354,-0.32774000000000003,-1.420783,-0.029902999999999996,-0.41779499999999997,0.0359
553,0.741892,-1.228442,0.134034,0.226827,0.941967,-0.247475,-1.2411459999999999,-0.244754,-1.554207,-0.028783,-0.40410999999999997,0.07459199999999999
554,0.7234189999999999,-1.26585,0.119952,0.198741,0.9538629999999999,-0.22504000000000002,-1.228552,-0.273522,-1.297709,0.004964,-0.364614,0.0378
555,0.715642,-1.298503,0.118851,0.176448,0.9631569999999999,-0.202956,-1.226135,-0.383404,-0.9941760000000001,0.035924,-0.241294,0.078765
556,0.711781,-1.328393,0.12480999999999999,0.156782,0.970764,-0.181749,-1.1046639999999999,-0.546188,-0.8841600000000001,0.008104,-0.188736,0.12446800000000001
557,0.695449,-1.3521450000000002,0.12190799999999999,0.138977,0.976191,-0.16653199999999999,-0.758487,-0.7461899999999999,-0.719116,-0.014633000000000002,-0.187556,0.09683
558,0.6811159999999999,-1.369428,0.12341099999999999,0.125932,0.979794,-0.155374,-0.671313,-0.761516,-0.425795,-0.17473,-0.090435,0.073663
559,0.698821,-1.384615,0.150806,0.119075,0.982718,-0.14171,-0.829785,-0.187691,-0.19903800000000002,-0.337215,-0.354575,-0.05653300000000001
560,0.790675,-1.3991209999999998,0.232483,0.121425,0.9853,-0.12015,-1.12125,1.123042,0.208512,-0.2971,-0.322519,0.19478099999999998
561,0.9249870000000001,-1.405409,0.337947,0.13147,0.986355,-0.099078,-0.582487,1.503009,0.358135,-0.23294099999999998,-0.055827999999999996,0.10924
562,0.9378280000000001,-1.401345,0.332813,0.135962,0.985677,-0.09975099999999999,0.513538,0.39319899999999997,-0.11028199999999999,-0.115377,0.6702060000000001,-0.033260000000000005
563,0.875085,-1.4062459999999999,0.270811,0.12573,0.986492,-0.10498199999999999,-0.10488900000000001,-0.29493,-0.648899,-0.09693600000000001,1.351734,0.0048850000000000005
564,0.8309979999999999,-1.413859,0.237196,0.11542999999999999,0.987711,-0.10535599999999999,0.032353,-0.393146,-0.18313800000000002,0.382189,2.233283,-0.04888
565,0.851557,-1.403933,0.26098499999999997,0.12494200000000001,0.9861110000000001,-0.10941500000000001,0.671009,-0.007076000000000001,1.016168,0.41860600000000003,-0.290127,0.457483
566,0.8434950000000001,-1.373614,0.251743,0.146329,0.9806229999999999,-0.130243,1.045065,0.139571,0.782516,0.5928829999999999,-0.37538299999999997,-0.010702
567,0.8449479999999999,-1.361457,0.254727,0.155425,0.978168,-0.137934,-0.075277,-0.457054,0.440033,-0.003432,-0.588062,-0.18201199999999998
568,0.8802620000000001,-1.366021,0.309666,0.156755,0.979107,-0.12951600000000002,-0.768035,-1.062913,-0.094936,0.089644,-0.038616000000000004,-0.021881
569,0.9301940000000001,-1.3836870000000001,0.373245,0.14913099999999999,0.9825459999999999,-0.111174,-1.196699,-0.24680900000000003,-0.281642,0.11826400000000001,0.408506,0.184142
570,1.022585,-1.3986370000000001,0.467621,0.146197,0.985217,-0.089275,-0.919171,0.02715,-0.035431,-0.106951,0.22613200000000003,0.25652600000000003
571,1.089579,-1.401299,0.531192,0.14952000000000001,0.98567,-0.078073,-0.38527,0.363102,0.202876,-0.182052,-0.049573,-0.049689
572,1.1456979999999999,-1.401749,0.5789920000000001,0.15325999999999998,0.9857450000000001,-0.069381,-0.40072199999999997,0.411393,0.127931,-0.105271,-0.192334,-0.022202
573,1.193163,-1.403088,0.62025,0.15515299999999999,0.9859700000000001,-0.061545,-0.286649,0.311188,0.046603,-0.08694600000000001,-0.341942,0.18218099999999998
574,1.215747,-1.402779,0.632779,0.156788,0.9859180000000001,-0.058130999999999995,0.043637,0.690322,0.052697,-0.14444400000000002,-0.451067,0.020686000000000003
575,1.2131,-1.4022809999999999,0.611107,0.157094,0.985835,-0.05871799999999999,0.225291,1.0525879999999999,-0.12275499999999999,-0.185704,-0.47593199999999997,-0.037351999999999996
576,1.188267,-1.405476,0.563756,0.152666,0.986366,-0.061425,0.38327,1.047758,-0.383359,-0.147051,-0.22223600000000002,0.037667
577,1.12509,-1.409238,0.482522,0.145135,0.986978,-0.069341,0.5721649999999999,0.750179,-0.455366,0.015815,0.197669,-0.014308000000000001
578,1.066518,-1.413734,0.40718899999999997,0.13694,0.987691,-0.075573,0.324734,0.79674,-0.42938000000000004,0.43441,0.205531,0.113079
579,1.0249409999999999,-1.4117950000000001,0.353323,0.13531700000000002,0.9873860000000001,-0.082194,0.55571,0.418066,0.027781,0.511259,-0.22050999999999998,0.130366
580,0.9582579999999999,-1.401398,0.282238,0.137933,0.9856860000000001,-0.096926,0.8499,0.023389,0.17027899999999999,0.452506,-0.4178,0.145861
581,0.888523,-1.383831,0.21716999999999997,0.144263,0.9825729999999999,-0.117203,1.141716,-0.477487,0.498767,0.13611700000000002,-0.448241,0.236436
582,0.803545,-1.350201,0.144599,0.157501,0.975767,-0.151886,2.0333810000000003,-0.799845,0.951925,-0.10611,-0.34004,0.260407
583,0.716136,-1.294917,0.07420299999999999,0.178817,0.9621860000000001,-0.205477,2.844343,-0.985775,1.456687,-0.295074,-0.090436,0.154406
584,0.680742,-1.235327,0.050539,0.207195,0.944256,-0.255831,2.254114,-0.29980999999999997,1.719809,-0.08727599999999999,0.41177700000000006,0.020876
585,0.673081,-1.178588,0.048087,0.23828000000000002,0.924067,-0.29886599999999997,2.2609060000000003,-0.498845,1.6709740000000002,0.02617,0.718847,0.08741
586,0.650763,-1.133477,0.036699,0.25656100000000004,0.90589,-0.336955,1.560168,-0.30886399999999997,0.857191,0.102082,0.9379360000000001,-0.387792
587,0.652162,-1.112895,0.03344,0.26829200000000003,0.896982,-0.351342,0.5600109999999999,0.422543,0.502096,-0.063947,1.050085,-0.534446
588,0.6579079999999999,-1.103101,0.034023000000000005,0.275665,0.89261,-0.356729,0.284157,-0.025836,0.183482,-0.310501,0.5070640000000001,-0.058066
589,0.671664,-1.100958,0.042172,0.281736,0.891641,-0.3544,-0.211048,0.24830300000000002,0.255515,-0.173994,-0.020654,-0.096451
590,0.6842,-1.105672,0.055304,0.283497,0.893766,-0.34757899999999997,-0.46244399999999997,0.057482000000000005,-0.024802,-0.1478,-0.084165,-0.06364500000000001
591,0.6968449999999999,-1.1191440000000001,0.071047,0.280115,0.899727,-0.334702,-0.934699,-0.069985,-0.239446,-0.11719700000000001,-0.540612,-0.033157
592,0.7208640000000001,-1.142902,0.09113099999999999,0.273884,0.909841,-0.311729,-1.270632,0.54625,-0.606845,0.045787,-0.514318,0.09325399999999999
593,0.735781,-1.173187,0.09248200000000001,0.259885,0.921989,-0.287044,-1.038716,0.5084489999999999,-1.210859,0.050067,-0.486778,-0.028645
594,0.718298,-1.207978,0.073629,0.233567,0.9349,-0.26721999999999996,-1.1669209999999999,-0.27512800000000004,-1.4820790000000001,0.067215,-0.454081,-0.08686
595,0.694442,-1.247358,0.061177999999999996,0.203395,0.948148,-0.244221,-1.422424,-0.76785,-1.386024,0.02683,-0.355863,0.099079
596,0.666277,-1.283925,0.053717999999999995,0.17488099999999998,0.959134,-0.22243400000000002,-1.282599,-1.2019030000000002,-1.119572,-0.061737,-0.275021,0.14762
597,0.649834,-1.3136219999999998,0.060744000000000006,0.153893,0.9671120000000001,-0.202506,-1.216949,-1.092122,-0.65885,-0.130089,-0.302577,0.171317
598,0.660413,-1.337266,0.08870499999999999,0.141956,0.9728559999999999,-0.182752,-1.0722040000000002,-0.633633,-0.357188,-0.20083900000000002,-0.21061799999999997,0.123883
599,0.684368,-1.353042,0.11893699999999999,0.136571,0.9763850000000001,-0.16738499999999998,-0.671505,-0.043605,-0.138296,-0.33048,0.097727,0.097485
600,0.728658,-1.362801,0.155087,0.137497,0.978447,-0.154057,-0.686737,0.753732,0.013331,-0.340973,0.16375,0.061665
601,0.8073899999999999,-1.374343,0.210838,0.141018,0.980765,-0.134948,-0.799794,1.451967,-0.008648999999999999,-0.139248,-0.06091900000000001,0.123275
602,0.8867440000000001,-1.3837540000000002,0.255264,0.144111,0.982559,-0.117506,-0.54866,1.924455,-0.102572,-0.100883,-0.107208,0.062238
603,0.9731290000000001,-1.392895,0.303546,0.14628,0.984217,-0.099575,-0.669503,1.873693,-0.090533,0.036002,0.042516000000000005,-0.08417100000000001
604,1.029833,-1.3996899999999999,0.334036,0.145952,0.985397,-0.08767899999999999,-0.139706,0.969929,-0.180746,-0.036516,0.210587,0.095675
605,1.010061,-1.399355,0.30609000000000003,0.14446900000000001,0.98534,-0.090723,0.367321,-0.093124,-0.11068,-0.065139,0.208065,0.20980300000000002
606,0.945573,-1.398784,0.252782,0.13877899999999999,0.9852420000000001,-0.100174,0.199213,-0.638328,-0.28527600000000003,0.061233,0.9937459999999999,0.073075
607,0.959917,-1.40798,0.276935,0.132774,0.986775,-0.092972,-0.683569,-0.39069499999999996,-0.175324,0.166863,0.481487,-0.009963
608,0.989874,-1.4150260000000001,0.315321,0.129684,0.987892,-0.085136,-0.238817,-0.382816,-0.133771,0.292969,0.49762700000000004,-0.176262
609,1.025508,-1.4169120000000002,0.350665,0.13104000000000002,0.988183,-0.07949400000000001,-0.33572199999999996,0.267969,0.24073200000000003,0.118426,-0.001504,0.22028699999999998
610,1.067783,-1.413141,0.389335,0.137547,0.987598,-0.075681,-0.067788,0.043405,0.222595,0.209774,-0.22003499999999998,0.14578
611,1.072486,-1.411784,0.398575,0.139079,0.987384,-0.075674,-0.022699,-0.244986,0.10898,0.031347,-0.427417,0.140631
612,1.080363,-1.409602,0.412508,0.141571,0.987036,-0.07559099999999999,-0.072475,-0.378062,0.131236,-0.021896000000000002,-0.43970299999999995,0.026839
613,1.092885,-1.409381,0.432472,0.1427,0.987001,-0.073913,-0.196353,-0.249466,0.047952,-0.16687000000000002,-0.054613,0.068191
614,1.132269,-1.412196,0.47205600000000003,0.142983,0.987449,-0.06705599999999999,-0.380017,0.158237,0.015169,-0.21201399999999998,0.139397,-0.031332
615,1.1692639999999999,-1.414388,0.500221,0.143372,0.987793,-0.060876,-0.165295,0.656193,-0.022425999999999998,-0.142991,0.076401,0.0039299999999999995
616,1.19432,-1.413886,0.5112,0.145314,0.987715,-0.057447000000000005,-0.016457,0.67006,0.10998699999999999,-0.065389,0.010668,0.017424000000000002
617,1.200624,-1.4121860000000002,0.500003,0.147239,0.987448,-0.057138,0.20555500000000002,1.017169,-0.039526,0.050301,-0.115744,-0.06189600000000001
618,1.177609,-1.41385,0.456038,0.144366,0.9877090000000001,-0.059881,0.31403200000000003,0.9410440000000001,-0.276884,0.16506600000000002,-0.264824,-0.023554
619,1.132968,-1.4169049999999999,0.39521,0.138817,0.988182,-0.064985,0.419875,0.6778529999999999,-0.35165100000000005,0.230796,-0.274895,-0.079684
620,1.06146,-1.417632,0.311263,0.133191,0.988293,-0.07438600000000001,0.632134,0.494691,-0.284775,0.2988,-0.231564,-0.11526600000000001
621,0.989559,-1.413583,0.23209899999999997,0.130846,0.987667,-0.085958,0.5924689999999999,0.216894,-0.044346,0.387251,-0.273953,-0.010142
622,0.939082,-1.4045889999999999,0.181015,0.133507,0.9862190000000001,-0.09769299999999999,0.658929,-0.13074000000000002,0.252461,0.23950900000000003,-0.39314099999999996,0.14414100000000002
623,0.882584,-1.3850639999999999,0.131604,0.142626,0.982801,-0.11728599999999999,1.157678,-0.5464319999999999,0.677357,0.10407899999999999,-0.44480699999999995,0.261604
624,0.808855,-1.346377,0.06979500000000001,0.161001,0.974924,-0.15362,2.1470990000000003,-0.624502,1.227025,-0.100927,-0.371286,0.346262
625,0.74153,-1.28831,0.009319,0.18826500000000002,0.9603649999999999,-0.20555199999999998,2.643691,-0.35936999999999997,1.6253959999999998,-0.360933,-0.122047,-0.127548
626,0.748025,-1.2375049999999999,0.015600999999999999,0.222525,0.9449709999999999,-0.239812,1.389925,0.313046,1.856127,-0.29949000000000003,0.420996,-0.012584
627,0.761221,-1.1971129999999999,0.031462000000000004,0.251808,0.930989,-0.264289,1.300297,-0.47698999999999997,1.302106,-0.207405,0.597499,0.207725
628,0.731762,-1.166497,0.020812,0.262843,0.919378,-0.292667,1.156391,-1.030224,0.717492,-0.133967,0.336466,0.07393200000000001
629,0.712298,-1.14596,0.014491999999999998,0.269383,0.911106,-0.311954,0.688963,-0.533555,0.52772,0.224865,0.283199,0.167774
630,0.704806,-1.136298,0.012517,0.272729,0.9070809999999999,-0.320655,0.163773,-0.036929000000000003,0.132446,0.100776,0.153069,0.056417999999999996
631,0.73678,-1.1390069999999999,0.036400999999999996,0.281188,0.9082180000000001,-0.30995100000000003,-0.769277,0.8132,0.398304,-0.30426,0.596008,-0.229645
632,0.789198,-1.147572,0.07625900000000001,0.29151,0.9117700000000001,-0.289302,-0.8508399999999999,0.701541,0.154323,-0.207998,0.751454,-0.263615
633,0.816038,-1.1594659999999999,0.09539700000000001,0.291248,0.91659,-0.273926,-0.6107600000000001,0.404605,-0.388413,-0.193226,0.372992,-0.350555
634,0.8131689999999999,-1.181027,0.08656799999999999,0.276037,0.924997,-0.26111599999999996,-0.6493260000000001,0.078652,-1.158452,0.133128,-0.06276799999999999,-0.167122
635,0.789601,-1.212972,0.067865,0.24869000000000002,0.9366610000000001,-0.24660900000000002,-1.038613,-0.468312,-1.500165,0.530317,-0.06086799999999999,0.044735000000000004
636,0.770104,-1.253144,0.057776999999999995,0.217448,0.9499709999999999,-0.224204,-1.4900879999999999,-0.49237,-1.4861959999999999,0.609883,0.06895,0.030631
637,0.784126,-1.2935299999999998,0.082187,0.193304,0.961807,-0.193796,-1.7325529999999998,-0.45548599999999995,-0.9100290000000001,0.189432,0.049530000000000005,-0.06249
638,0.823967,-1.325366,0.13351300000000002,0.1783,0.970033,-0.165051,-1.44489,-0.527818,-0.65369,0.006361,-0.156297,-0.111728
639,0.8418629999999999,-1.3522969999999999,0.163622,0.161676,0.976224,-0.144377,-0.9930469999999999,-0.594679,-0.8416600000000001,-0.272958,-0.783978,0.235136
640,0.8209709999999999,-1.3760270000000001,0.158796,0.141628,0.981092,-0.131894,-0.647802,-1.005698,-0.918839,-0.306682,-0.939054,0.339673
641,0.7757189999999999,-1.396097,0.13931500000000002,0.121702,0.9847790000000001,-0.124081,-0.564735,-1.410145,-0.8141229999999999,-0.155454,-1.056526,0.242657
642,0.733071,-1.417897,0.12209600000000001,0.101908,0.988334,-0.11317200000000001,-0.871817,-1.1183100000000001,-0.801686,-0.192133,-1.2186350000000001,-0.082552
643,0.8321700000000001,-1.441817,0.235715,0.095092,0.9916940000000001,-0.086589,-1.701691,-0.6439779999999999,0.111648,-0.28425500000000004,-1.0919290000000001,0.033259
644,1.013259,-1.443437,0.44425299999999995,0.107769,0.991901,-0.067197,-0.174509,-1.2454479999999999,1.081281,0.025867,0.418637,-0.23479
645,1.009284,-1.410304,0.439733,0.135258,0.9871489999999999,-0.08508500000000001,0.361599,0.610216,1.160628,-0.001621,0.423389,-0.216902
646,1.106358,-1.411241,0.5471590000000001,0.14204,0.987298,-0.071161,-0.252954,-1.134817,0.12453299999999999,-0.18445999999999999,0.5620029999999999,0.517663
647,0.9919030000000001,-1.404197,0.43272,0.138802,0.9861540000000001,-0.09071900000000001,1.22892,0.209792,-0.418042,0.031197000000000003,-0.18424400000000002,0.182074
648,0.838425,-1.408083,0.282661,0.120451,0.986791,-0.10830899999999999,0.562923,-0.580587,-0.919472,0.553408,1.290446,-0.150755
649,0.876558,-1.415785,0.323685,0.118647,0.98801,-0.098772,-0.716052,-0.058801,0.5034109999999999,0.64063,0.164471,0.303743
650,0.93758,-1.40429,0.394524,0.133597,0.9861700000000001,-0.098067,0.22702399999999998,-0.613518,0.67842,0.671366,-0.403833,0.09121599999999999
651,0.8921540000000001,-1.393408,0.361981,0.137353,0.984308,-0.11076400000000002,0.631709,-0.6965399999999999,0.044693000000000004,0.413505,-0.372293,-0.298401
652,0.833141,-1.389606,0.317626,0.133349,0.9836299999999999,-0.121188,0.274025,-0.763558,-0.201274,0.13175699999999999,0.27602899999999997,-0.16139
653,0.785766,-1.392266,0.287112,0.12561,0.9841059999999999,-0.12551700000000002,0.028630000000000003,-1.016186,-0.21548299999999998,0.070176,0.263346,0.10676400000000001
654,0.7493890000000001,-1.391259,0.27032,0.121637,0.983926,-0.130728,0.281519,-0.8515149999999999,-0.056899,-0.094598,-0.17086199999999999,0.22852199999999998
655,0.691495,-1.381999,0.22223800000000002,0.119674,0.982231,-0.14456,0.8576440000000001,-0.309435,0.01266,-0.148162,-0.43999399999999994,0.320112
656,0.632365,-1.359485,0.162209,0.123964,0.977757,-0.169177,1.55698,0.137409,0.348121,-0.24980300000000003,-0.5477489999999999,0.319904
657,0.575222,-1.321217,0.097343,0.13436800000000002,0.969016,-0.207242,2.156586,0.325259,0.536871,-0.38976900000000003,-0.578224,0.291501
658,0.538774,-1.278422,0.057474000000000004,0.14788199999999999,0.9575620000000001,-0.247392,1.959603,-0.027756,0.809413,-0.385065,-0.509885,0.099733
659,0.5455260000000001,-1.237285,0.064795,0.169856,0.9448989999999999,-0.279844,1.590574,0.10859300000000001,1.396319,0.11027999999999999,0.132845,0.289854
660,0.5881689999999999,-1.191569,0.106744,0.20540100000000003,0.928951,-0.30799,1.513783,0.090111,2.088014,0.129011,0.334812,0.313316
661,0.621814,-1.144242,0.151645,0.241004,0.9103969999999999,-0.336293,1.367947,-0.7512,1.8840430000000001,0.15930999999999998,0.575993,0.26035
662,0.626811,-1.113054,0.18020799999999998,0.259216,0.8970520000000001,-0.35791300000000004,0.519342,-0.899624,1.110254,0.505005,1.337612,-0.396298
663,0.636829,-1.1034549999999999,0.204833,0.267897,0.892769,-0.362205,-0.098858,-0.684964,0.712555,0.079973,1.375541,-0.44420699999999996
664,0.6470859999999999,-1.096786,0.23416700000000001,0.275181,0.8897450000000001,-0.364181,-0.07802,-0.839327,0.6691010000000001,-0.08844400000000001,0.82342,-0.20751999999999998
665,0.651486,-1.091366,0.256322,0.27970100000000003,0.887258,-0.366796,-0.18942,-0.626293,0.504612,-0.070793,0.188029,-0.166697
666,0.658701,-1.09501,0.27803,0.280359,0.888933,-0.362209,-0.600915,-0.7116859999999999,0.10553699999999999,0.030279,-0.070924,-0.027851
667,0.65359,-1.111745,0.291219,0.26942,0.896473,-0.35177600000000003,-0.9712219999999999,-0.844391,-0.48546999999999996,-0.015361000000000001,-0.20735599999999998,0.141144
668,0.640809,-1.1375979999999999,0.294004,0.250959,0.9076280000000001,-0.336495,-1.100624,-0.790324,-0.840025,0.06708,-0.299138,0.129403
669,0.6163489999999999,-1.1678309999999998,0.288978,0.226683,0.919902,-0.319988,-1.2056040000000001,-1.112882,-1.0700120000000002,0.039781,-0.29996799999999996,0.018185
670,0.575128,-1.202273,0.273279,0.195947,0.93286,-0.302281,-1.2721959999999999,-1.417549,-1.277327,-0.024484,-0.281188,0.053914
671,0.5228550000000001,-1.2363790000000001,0.24762399999999998,0.16389600000000001,0.944602,-0.28436500000000003,-1.180408,-1.360541,-1.2276200000000002,-0.011766,-0.25521,0.11423
672,0.472787,-1.265739,0.22146300000000002,0.136768,0.95383,-0.267397,-1.060471,-1.220399,-0.9470879999999999,-0.027042,-0.257037,0.122637
673,0.431262,-1.292405,0.204341,0.114873,0.961499,-0.249644,-1.110735,-1.2944930000000001,-0.756132,-0.030660000000000003,-0.29980100000000004,0.152049
674,0.37616900000000003,-1.3188959999999998,0.175587,0.091561,0.968441,-0.23181300000000002,-1.04424,-1.4281,-0.968073,-0.036462,-0.262935,0.119066
675,0.288189,-1.344334,0.116943,0.063814,0.974467,-0.215268,-0.91327,-1.602789,-1.085507,-0.064974,-0.075556,0.077145
676,0.199237,-1.3630309999999999,0.0548,0.040825,0.9784940000000001,-0.202189,-0.641229,-1.219665,-0.6952649999999999,-0.11223599999999999,-0.035898,0.125712
677,0.14898499999999998,-1.374876,0.018982,0.028895,0.9808690000000001,-0.19250799999999998,-0.468801,-0.492997,-0.349956,-0.12499500000000001,-0.155887,0.059878999999999995
678,0.133968,-1.383099,0.005684000000000001,0.024923,0.9824370000000001,-0.184921,-0.335885,0.13298,-0.097729,-0.08658400000000001,-0.276351,-0.010422
679,0.145845,-1.387089,0.010163,0.026547,0.983173,-0.180733,-0.11213900000000002,0.47346800000000006,0.074313,0.113376,-0.372776,-0.085289
680,0.17285899999999998,-1.383953,0.025551,0.03195,0.9825959999999999,-0.18298599999999998,0.318128,0.697184,0.231924,0.15620699999999998,-0.33048099999999997,-0.108884
681,0.24475300000000003,-1.376768,0.07989199999999999,0.046721,0.9812360000000001,-0.18706199999999998,-0.046947,0.9912200000000001,0.809042,-0.008513,0.036785000000000005,-0.191753
682,0.36541399999999996,-1.3814,0.19200699999999998,0.067273,0.982118,-0.175832,-0.561265,0.11910599999999999,0.9016379999999999,-0.012523999999999999,0.381941,0.296636
683,0.433593,-1.38353,0.265845,0.078217,0.982517,-0.168943,-0.29747199999999996,-0.29854200000000003,0.42224799999999996,0.106216,0.566922,0.4521
684,0.408352,-1.37976,0.251733,0.075398,0.981808,-0.174261,0.736394,-0.649253,-0.413976,-0.025136000000000002,0.741382,0.140035
685,0.29999499999999996,-1.372575,0.158153,0.058194,0.980419,-0.188127,0.22868000000000002,-1.212784,-0.772519,-0.171551,0.474675,0.437303
686,0.196589,-1.378968,0.07859400000000001,0.037239,0.981657,-0.186978,-0.255414,-1.013622,-0.874432,0.033425,0.662248,0.158841
687,0.157559,-1.398715,0.054571,0.026867000000000002,0.9852299999999999,-0.16910899999999998,-1.3437379999999999,-0.6924710000000001,-0.057777999999999996,0.463657,0.674148,0.505305
688,0.181814,-1.422146,0.08988099999999999,0.026777999999999996,0.988972,-0.14565699999999998,-0.848517,-0.48607,0.110991,0.36732600000000004,0.323955,0.330227
689,0.173521,-1.430656,0.093923,0.024115,0.990196,-0.137579,-0.411629,-0.708863,-0.22963899999999998,-0.100974,0.46822299999999994,0.24078899999999998
690,0.100161,-1.4502680000000001,0.037135,0.012022,0.9927450000000001,-0.119627,-1.237618,-0.860143,-0.575978,-0.309233,0.311729,0.284621
691,-0.013286000000000001,-1.477857,-0.065002,-0.001233,0.995684,-0.092789,-1.289851,-0.43573900000000004,-0.636707,-0.06972,0.284192,0.250535
692,-0.187079,-1.494777,-0.233433,-0.014122999999999998,0.9971120000000001,-0.074611,-0.66164,-0.20052999999999999,-0.594164,-0.001807,0.127217,0.164699
693,-0.36522,-1.501033,-0.411152,-0.024893000000000002,0.997568,-0.06510099999999999,-0.456093,0.028561000000000003,-0.520383,0.020453,-0.146264,0.092902
694,-0.592522,-1.5056129999999999,-0.639664,-0.036371,0.997876,-0.054026,-0.609352,0.009267000000000001,-0.6239779999999999,0.053140999999999994,-0.365003,0.065592
695,-0.8807149999999999,-1.5050700000000001,-0.926666,-0.050642,0.997841,-0.041803,-0.5870920000000001,-0.158578,-0.76034,0.12747,-0.440529,0.042536000000000004
696,-1.136343,-1.497162,-1.177449,-0.066724,0.99729,-0.030961000000000002,-0.48970699999999995,-0.363315,-0.7935800000000001,0.254285,-0.42264399999999996,0.061036
697,-1.315964,-1.486429,-1.345748,-0.08154,0.9964430000000001,-0.021241,-0.429938,-0.720842,-0.680541,0.388639,-0.412947,0.008454000000000001
698,-1.4532200000000002,-1.476018,-1.466381,-0.09398,0.9955120000000001,-0.011101,-0.436601,-0.912984,-0.576724,0.44248999999999994,-0.405546,-0.052405999999999994
699,-1.565647,-1.466233,-1.5582770000000001,-0.10437,0.9945379999999999,-0.000537,-0.425145,-1.122183,-0.48557700000000004,0.3983,-0.322846,-0.037838
700,-1.667554,-1.455535,-1.635645,-0.114468,0.9933649999999999,0.01111,-0.473844,-1.33483,-0.545465,0.280911,-0.183016,0.037306
701,-1.774288,-1.441276,-1.71407,-0.126493,0.991624,0.026101999999999997,-0.6552399999999999,-1.488067,-0.6950189999999999,0.093183,-0.12542799999999998,0.067618
702,-1.8687799999999999,-1.4227379999999998,-1.781188,-0.141017,0.989059,0.04331,-0.655998,-1.3085879999999999,-0.8223719999999999,0.08237699999999999,-0.077972,0.03895
703,-1.9267400000000001,-1.403251,-1.817984,-0.156309,0.9859969999999999,0.058112,-0.551978,-0.9319280000000001,-0.800764,0.245329,0.08317100000000001,0.056329
704,-1.9640990000000003,-1.3865020000000001,-1.839753,-0.169261,0.983066,0.07023,-0.41961000000000004,-0.763622,-0.647299,0.41782700000000006,0.155972,0.060003999999999995
705,-1.985782,-1.374571,-1.845336,-0.17842,0.9808100000000001,0.07860700000000001,-0.20972800000000003,-0.8727280000000001,-0.45127700000000004,0.48788400000000004,0.217433,0.029135
706,-2.000593,-1.368039,-1.8385919999999998,-0.183056,0.9795149999999999,0.08390800000000001,0.056883,-1.165311,-0.24180500000000002,0.558682,0.283195,0.035156
707,-1.9850009999999998,-1.370241,-1.796152,-0.182367,0.9799559999999999,0.080176,0.65967,-1.371964,0.031862,0.584299,0.134302,0.296274
708,-1.9252650000000002,-1.382295,-1.706443,-0.175736,0.9822860000000001,0.06504,1.264023,-1.392503,0.381146,0.5372170000000001,0.087263,0.34525300000000003
709,-1.790175,-1.4071069999999999,-1.5478100000000001,-0.159053,0.986633,0.035463999999999996,1.9037950000000001,-0.808312,1.052505,0.411662,0.13253800000000002,0.339124
710,-1.507594,-1.437017,-1.249347,-0.133115,0.991065,-0.008424,2.607248,-0.633125,1.387275,0.20483099999999999,0.045327,0.174928
711,-1.01778,-1.448497,-0.736269,-0.10381099999999999,0.9925309999999999,-0.064079,2.910995,-1.219808,1.585633,0.037908,0.386726,0.150947
712,-0.628333,-1.440167,-0.307184,-0.076565,0.9914799999999999,-0.10538,1.7722349999999998,-2.167595,1.43041,0.029263,0.531942,0.284686
713,-0.39038,-1.428701,-0.013244,-0.053890999999999994,0.9899209999999999,-0.13096300000000002,1.44639,-2.855125,1.552929,0.409467,0.670296,0.28228400000000003
714,-0.175244,-1.40856,0.262135,-0.028162,0.9868680000000001,-0.159052,1.546778,-2.8266270000000002,1.798216,0.413278,0.46793500000000005,0.37118
715,-0.012609,-1.383424,0.48545699999999997,-0.002349,0.982497,-0.186264,1.351202,-2.9079450000000002,1.790545,0.364165,0.276994,0.381469
716,0.089446,-1.3578379999999999,0.6493,0.018879,0.97741,-0.21050700000000003,1.12279,-2.910531,1.5699670000000001,0.142299,0.049644,0.281049
717,0.138069,-1.33562,0.7620680000000001,0.03207,0.9724729999999999,-0.23079699999999997,0.85882,-3.267573,1.310071,0.17873,-0.009049,0.210152
718,0.158897,-1.317232,0.8602420000000001,0.039693,0.968024,-0.247696,0.667759,-3.997692,1.310741,0.198512,-0.029394999999999998,0.27632199999999996
719,0.165904,-1.301201,0.954365,0.043985,0.963879,-0.26268400000000003,0.562051,-4.208432,1.356206,0.22721,-0.133236,0.38006999999999996
720,0.176826,-1.2867959999999998,1.0501790000000002,0.049288,0.959942,-0.275828,0.43354499999999996,-3.989956,1.443691,0.260892,-0.085156,0.339045
721,0.18617999999999998,-1.275344,1.143497,0.053898,0.9566709999999999,-0.28614,0.249036,-4.043372,1.375173,0.272045,0.057184000000000006,0.351982
722,0.185789,-1.268641,1.230451,0.054969000000000004,0.9546969999999999,-0.292458,-0.022479,-4.237062,1.296613,0.262703,0.086379,0.388405
723,0.184856,-1.268138,1.3182610000000001,0.054785,0.954548,-0.29298,-0.301762,-4.205107,1.2732569999999999,0.18041400000000002,0.028088,0.43024799999999996
724,0.18296600000000002,-1.270784,1.400799,0.053771000000000006,0.955333,-0.290599,-0.366899,-3.901702,1.113248,-0.053069000000000005,-0.093684,0.496562
725,0.179954,-1.274593,1.473427,0.052244000000000006,0.9564520000000001,-0.287177,-0.401444,-3.4386120000000004,0.953248,-0.120924,-0.09138500000000001,0.49675699999999995
726,0.17463199999999998,-1.281421,1.533076,0.049579000000000005,0.9584219999999999,-0.281013,-0.5473819999999999,-2.9491080000000003,0.678137,-0.269611,-0.123385,0.42231
727,0.15858,-1.291274,1.573372,0.043568,0.9611870000000001,-0.272434,-0.586975,-2.609881,0.329185,-0.284383,-0.30028299999999997,0.313648
728,0.123082,-1.301585,1.586017,0.032654,0.963981,-0.26395799999999997,-0.47398100000000004,-2.270105,-0.022974,-0.203689,-0.303291,0.123547
729,0.067531,-1.310777,1.57208,0.017349,0.966385,-0.25651199999999996,-0.50425,-1.966172,-0.34511,-0.084381,-0.276947,-0.054751999999999995
730,0.0017530000000000002,-1.3246959999999999,1.536931,0.00042699999999999997,0.9698700000000001,-0.243623,-0.7173,-1.332047,-0.49803000000000003,0.193955,-0.153265,-0.13660999999999998
731,-0.058388999999999996,-1.335436,1.496951,-0.013608000000000002,0.9724299999999999,-0.23279499999999997,-0.44386400000000004,-0.952988,-0.423967,0.320981,0.178342,-0.275933
732,-0.096187,-1.339073,1.477865,-0.022056,0.9732719999999999,-0.228593,0.021269,-1.0286819999999999,-0.013628,0.377479,0.331217,-0.24967899999999998
733,-0.080822,-1.32978,1.51668,-0.01927,0.971096,-0.23790999999999998,0.756067,-1.1330209999999998,0.665686,0.305601,0.41937700000000006,-0.218908
734,-0.029687,-1.31561,1.583172,-0.0074930000000000005,0.967616,-0.252313,0.5717939999999999,-0.256052,0.763688,0.247773,0.137151,-0.276038
735,0.024268,-1.31621,1.6374540000000002,0.006111,0.9677680000000001,-0.251769,-0.323534,0.043733999999999995,0.6299319999999999,0.293083,-0.13021300000000002,-0.294892
736,0.059585,-1.325863,1.683009,0.01444,0.970153,-0.24205900000000002,-0.506983,-0.800872,0.483386,0.557413,-0.622467,-0.195365
737,0.078373,-1.320582,1.720348,0.019386,0.968859,-0.24684899999999999,0.689947,-0.433892,0.646169,0.4636,0.250821,0.35739899999999997
738,0.141032,-1.3139969999999999,1.787769,0.035701,0.967208,-0.251463,-0.34780300000000003,-0.241133,0.76045,0.265812,1.326646,0.702284
739,0.12305899999999999,-1.344425,1.7869700000000002,0.02755,0.9744870000000001,-0.222744,-1.7866389999999999,-1.577,-0.9175190000000001,-0.44735,0.916306,0.252208
740,-0.001187,-1.342076,1.70993,-0.000269,0.973957,-0.22673000000000001,1.267792,-2.383939,-0.5041800000000001,-0.329885,0.14297100000000001,0.262252
741,-0.051673000000000004,-1.323528,1.694879,-0.012642,0.969585,-0.244429,0.49040100000000003,-1.135618,-0.051875,0.12906600000000001,-0.16212000000000001,0.481871
742,-0.048198000000000005,-1.3249870000000001,1.709091,-0.011724,0.9699409999999999,-0.24305900000000003,-0.296083,-0.439375,0.20879499999999998,0.32390399999999997,-0.424058,0.558504
743,-0.058222,-1.3358459999999999,1.711656,-0.013546,0.972526,-0.2324,-0.781755,-0.739225,-0.042041,0.303143,-0.459251,0.478875
744,-0.10596300000000002,-1.362954,1.683611,-0.021825,0.9784780000000001,-0.205192,-1.6885130000000002,-1.21015,-0.303076,0.04572,-0.014352,0.21222600000000003
745,-0.222554,-1.397432,1.598643,-0.038074000000000004,0.98501,-0.168243,-1.786873,-1.8326919999999998,-0.644796,-0.030499000000000002,0.570242,0.252136
746,-0.37945100000000004,-1.418073,1.477188,-0.056351,0.98836,-0.141309,-0.9299040000000001,-1.692203,-0.556737,-0.02179,0.308621,0.155896
747,-0.471491,-1.434109,1.404166,-0.061890999999999995,0.9906729999999999,-0.121393,-1.126395,-0.60119,0.10279,0.131472,-0.057415,-0.015844
748,-0.580701,-1.459586,1.300869,-0.060884,0.993822,-0.092787,-1.5053809999999999,-0.31808000000000003,-0.038021,0.067079,-0.253085,0.054747000000000004
749,-0.832126,-1.476077,1.060864,-0.069925,0.995517,-0.063677,-1.350508,-0.862757,-0.623763,0.022088,-0.400364,0.065539
750,-1.1765290000000002,-1.475549,0.7357779999999999,-0.087805,0.995467,-0.036531,-1.2805440000000001,-1.027966,-0.9275059999999999,0.050512,-0.413329,0.035189
751,-1.4899639999999998,-1.4654340000000001,0.437355,-0.104822,0.994455,-0.008491,-1.3268,-0.668574,-0.719987,0.07961499999999999,-0.141259,0.152885
752,-1.7035529999999999,-1.455181,0.22941399999999998,-0.11434200000000001,0.993324,0.015269,-1.037201,-0.195951,-0.348965,0.16928900000000002,-0.06618500000000001,0.08443200000000001
753,-1.857564,-1.446707,0.07843,-0.11871500000000001,0.992311,0.035009,-0.990137,-0.25213,-0.193672,0.179918,-0.032899,-0.093374
754,-2.012264,-1.434118,-0.071605,-0.123188,0.9906739999999999,0.058216,-1.205523,-0.318114,-0.289095,0.17186400000000002,-0.070325,-0.108402
755,-2.133382,-1.416787,-0.186945,-0.12975699999999998,0.9881639999999999,0.081819,-1.068763,-0.339632,-0.354342,0.267422,-0.092305,-0.081941
756,-2.203157,-1.401992,-0.25080399999999997,-0.135515,0.985786,0.099297,-0.701859,-0.31341399999999997,-0.302675,0.335039,-0.12190999999999999,-0.1027
757,-2.2394819999999998,-1.390717,-0.283389,-0.140533,0.9838290000000001,0.11103699999999998,-0.526251,-0.148999,-0.27922600000000003,0.370925,-0.14902100000000001,-0.12803599999999998
758,-2.2667450000000002,-1.378511,-0.308277,-0.14665799999999998,0.98157,0.12251600000000001,-0.5888359999999999,-0.156947,-0.368315,0.13349,0.118039,-0.027744
759,-2.285757,-1.366753,-0.323129,-0.153007,0.9792549999999999,0.13284,-0.484677,-0.277555,-0.400548,0.149238,0.166603,0.0026739999999999997
760,-2.295287,-1.3597110000000001,-0.32677399999999995,-0.156894,0.9778040000000001,0.13885799999999998,-0.190047,-0.31651599999999996,-0.237139,0.19681099999999999,0.145533,0.03085
761,-2.30333,-1.3663530000000002,-0.32625,-0.15094100000000002,0.979174,0.13577,0.026622000000000003,-0.537658,-0.001401,0.5627,-0.0020469999999999998,-0.003141
762,-2.31881,-1.370328,-0.325165,-0.145966,0.979973,0.135441,0.258245,-1.01443,0.21233600000000002,0.5751350000000001,-0.042794,0.052501
763,-2.324148,-1.3820350000000001,-0.303804,-0.136863,0.982237,0.128361,0.720837,-1.43,0.37206,0.5687180000000001,0.024522,0.10273299999999999
764,-2.325526,-1.4054229999999999,-0.28225900000000004,-0.11991500000000001,0.9863569999999999,0.112776,1.095607,-0.806109,0.9357629999999999,-0.09946100000000001,0.318239,0.088594
765,-2.296477,-1.444259,-0.24606399999999998,-0.094398,0.9920049999999999,0.083747,1.751236,-0.18826099999999998,1.435206,-0.137795,0.35031100000000004,0.15110099999999999
766,-2.204605,-1.49371,-0.149567,-0.06204400000000001,0.99703,0.0456,1.986011,-0.178305,1.6718419999999998,-0.146971,0.226007,0.285317
767,-1.7668580000000003,-1.542828,0.292929,-0.027395999999999997,0.999609,0.005441,2.017957,-0.33645,1.7652029999999999,-0.078027,0.189631,0.151862
768,0.215286,-1.537934,2.288729,0.007014,0.99946,-0.032073000000000004,1.765255,-0.8657219999999999,1.6754529999999999,-0.0037329999999999998,0.310415,-0.001603
769,0.549012,-1.498993,2.644972,0.037431,0.997423,-0.061188,1.1946350000000001,-1.1892120000000002,1.549037,-0.008241,0.33521799999999996,0.015106
770,0.688321,-1.464573,2.808859,0.067345,0.9943639999999999,-0.08187699999999999,0.9416450000000001,-1.16087,1.607054,0.019065000000000002,0.119269,0.112303
771,0.754588,-1.428051,2.89384,0.097442,0.9898290000000001,-0.10364000000000001,1.083489,-0.719188,1.586114,-0.035492,0.097695,0.078325
772,0.7903399999999999,-1.392598,2.939668,0.12595399999999998,0.984165,-0.124715,0.923367,-0.406989,1.44145,-0.10797899999999999,0.18774100000000002,0.038915
773,0.818298,-1.3608120000000001,2.97872,0.152158,0.9780340000000001,-0.14246099999999998,0.868353,-0.59195,1.390028,-0.0883,0.12343699999999999,0.165044
774,0.821891,-1.328298,3.000657,0.175876,0.970741,-0.163486,0.813809,-1.1232229999999999,1.362554,-0.08089,0.017403000000000002,0.397449
775,0.865035,-1.298429,3.041947,0.204748,0.9631370000000001,-0.174483,0.400675,0.6406149999999999,1.51871,-0.179846,-0.09489600000000001,-0.16935799999999998
776,0.88197,-1.273791,3.082091,0.22592800000000002,0.956217,-0.186021,0.371637,-1.6758509999999998,1.150802,-0.169897,-0.207407,0.015489
777,0.8703930000000001,-1.2563549999999999,3.10364,0.23647100000000001,0.9509690000000001,-0.19934000000000002,0.279304,-1.499188,0.74187,-0.115103,-0.258785,0.10317899999999999
778,0.854965,-1.24536,3.11335,0.24124400000000001,0.9475110000000001,-0.209815,0.20371199999999998,-1.101236,0.39045599999999997,-0.100222,-0.279756,0.133536
779,0.8488610000000001,-1.239881,3.1269880000000003,0.243851,0.9457450000000001,-0.21470999999999998,-0.119402,-0.85075,0.367581,-0.09338400000000001,-0.298025,0.166554
780,0.861966,-1.238114,-3.1264819999999998,0.24791300000000002,0.9451700000000001,-0.21258400000000002,-0.39411,-0.711376,0.383644,0.03526,-0.360361,0.07913099999999999
781,0.8765940000000001,-1.240449,-3.098945,0.249298,0.9459299999999999,-0.20752199999999998,-0.391455,-0.474534,0.027641000000000002,0.09748899999999999,-0.43598100000000006,0.074771
782,0.869345,-1.248445,-3.096014,0.242002,0.948493,-0.20443599999999998,-0.25131,-0.5946819999999999,-0.416675,0.017519999999999997,-0.47608100000000003,0.086425
783,0.8410110000000001,-1.26096,-3.108384,0.22724699999999998,0.952383,-0.203279,-0.288164,-0.991886,-0.686683,0.024218,-0.466528,0.10042000000000001
784,0.800333,-1.2765440000000001,-3.125454,0.20811500000000002,0.9570190000000001,-0.20199,-0.391757,-1.317239,-0.752152,0.011077,-0.442996,0.01771
785,0.7603989999999999,-1.2933540000000001,-3.139567,0.18877,0.961759,-0.198452,-0.479187,-1.273385,-0.7207720000000001,0.02351,-0.37167100000000003,-0.024784
786,0.726213,-1.309985,3.128131,0.17123,0.966181,-0.192801,-0.47026899999999994,-0.708839,-0.7160920000000001,0.008334999999999999,-0.26970900000000003,0.024268
787,0.702367,-1.325874,3.1103419999999997,0.156646,0.9701559999999999,-0.185086,-0.43291999999999997,-0.165945,-0.649229,-0.11209000000000001,-0.170199,0.070172
788,0.679888,-1.341492,3.089866,0.142902,0.973825,-0.176755,-0.500537,-0.138594,-0.7704449999999999,-0.123295,0.033469,0.032117
789,0.647307,-1.365359,3.059381,0.12301400000000001,0.978972,-0.162725,-0.916626,-0.24654299999999998,-1.1193170000000001,-0.12779000000000001,0.225237,-0.026026
790,0.61148,-1.398631,3.033617,0.098346,0.985216,-0.140268,-1.32772,-0.595442,-1.156993,-0.028308,0.19785899999999998,-0.025518
791,0.5950949999999999,-1.43214,3.029444,0.077477,0.990403,-0.11444800000000001,-1.323603,-0.547737,-0.836559,0.051125,0.029129000000000002,-0.08414500000000001
792,0.602912,-1.457937,3.044786,0.063856,0.9936379999999999,-0.092757,-0.96198,-0.275301,-0.549167,0.068438,-0.109376,-0.12309400000000001
793,0.622222,-1.472284,3.065098,0.05731900000000001,0.995152,-0.079913,-0.477509,0.125229,-0.167077,0.0011220000000000002,-0.302052,-0.075162
794,0.714262,-1.47774,-3.132745,0.060864999999999995,0.9956729999999999,-0.070204,-0.543254,0.46438500000000005,0.322343,-0.044584,-0.46929099999999996,0.025817000000000003
795,0.8612190000000001,-1.4798200000000001,-2.990697,0.06891699999999999,0.995865,-0.059186,-0.459096,0.009028,0.370516,-0.076318,-0.50003,0.034375
796,0.981503,-1.479948,-2.858772,0.075415,0.995876,-0.050418,-0.576028,-0.8682610000000001,0.347323,-0.025945999999999997,-0.057735,0.01015
