,attitude.roll,attitude.pitch,attitude.yaw,gravity.x,gravity.y,gravity.z,rotationRate.x,rotationRate.y,rotationRate.z,userAcceleration.x,userAcceleration.y,userAcceleration.z
0,-0.357748,-1.213386,-0.11431600000000001,-0.12250499999999999,0.9368059999999999,-0.32769899999999996,-1.886025,-0.905866,2.393378,0.302116,-0.081368,0.296632
1,-0.307242,-1.256524,-0.031252999999999996,-0.093489,0.9510219999999999,-0.294648,-1.573811,-1.554614,1.589883,0.207121,-0.15495499999999998,0.569673
2,-0.320146,-1.2951219999999999,-0.016041,-0.085661,0.962242,-0.258365,-1.934784,-0.833184,0.246887,-0.105348,-0.186378,0.9758030000000001
3,-0.411134,-1.3117889999999999,-0.125711,-0.102358,0.9666450000000001,-0.23477800000000001,0.150241,0.9924879999999999,-2.037566,-1.918577,1.248199,-0.5351199999999999
4,-0.52776,-1.2250020000000001,-0.20869000000000001,-0.170692,0.940807,-0.29282600000000003,5.073071,-4.684821,-2.993624,-0.618844,1.8848619999999998,-1.623342
5,-0.6278590000000001,-1.091651,-0.163642,-0.27081,0.887389,-0.373098,4.353592,-3.5733019999999995,-2.745837,1.096737,1.7360240000000002,-0.22428299999999998
6,-0.45393100000000003,-1.109161,-0.14696199999999998,-0.19531400000000002,0.895325,-0.400306,-2.102925,11.132374,2.161724,-0.302153,0.8204040000000001,-1.103585
7,-0.331448,-1.1332149999999999,-0.127271,-0.13789400000000002,0.9057790000000001,-0.400686,0.5287649999999999,0.8879670000000001,0.06213099999999999,-0.23722800000000002,-0.164858,0.53681
8,-0.371758,-1.114472,-0.121081,-0.16006800000000002,0.8976780000000001,-0.410551,0.5040640000000001,-3.520722,-0.038146,0.24683000000000002,-0.116825,0.420652
9,-0.42255299999999996,-1.1042530000000002,-0.10852200000000001,-0.18445899999999998,0.893128,-0.410239,0.942838,-2.301323,-0.066554,0.298595,0.323836,-0.430749
10,-0.42545900000000003,-1.077979,-0.09756799999999999,-0.195271,0.8810030000000001,-0.430932,1.28178,0.180769,-0.36006,0.00948,0.020181,-0.327766
11,-0.41075200000000006,-1.053083,-0.094311,-0.19761099999999998,0.8689530000000001,-0.45373,1.187944,0.48224700000000004,-0.545904,-0.190695,-0.180141,-0.246115
12,-0.424407,-1.020936,-0.10394,-0.21518299999999999,0.852598,-0.476207,1.511657,-0.716025,-1.1328340000000001,-0.12228,-0.412336,0.156002
13,-0.46041800000000005,-0.9745659999999999,-0.128078,-0.24949899999999997,0.827458,-0.503054,1.9331080000000003,-0.654129,-1.7911990000000002,0.00455,-0.385075,0.44796899999999995
14,-0.502243,-0.9294709999999999,-0.15749200000000002,-0.287997,0.801303,-0.5243760000000001,1.3800780000000001,-1.005755,-1.823453,0.013888,-0.515521,0.772637
15,-0.541053,-0.8920319999999999,-0.187547,-0.323357,0.778349,-0.5381560000000001,1.091594,-0.830066,-1.553297,0.166024,-0.412184,0.722483
16,-0.57119,-0.850932,-0.201103,-0.35643,0.751895,-0.5546270000000001,1.9244150000000002,-0.9277610000000001,-1.553764,0.321015,-0.18400899999999998,0.7028810000000001
17,-0.584363,-0.789329,-0.202022,-0.388552,0.7098810000000001,-0.587449,2.9127680000000002,-0.33805,-1.7644650000000002,0.231325,0.174976,0.328843
18,-0.582495,-0.7362529999999999,-0.204734,-0.407625,0.671516,-0.618795,0.9651879999999999,0.07038,-1.249822,0.197725,0.32967399999999997,-0.29661
19,-0.592486,-0.729233,-0.222217,-0.41640900000000003,0.666298,-0.618587,-0.326554,0.255796,-0.411983,-0.008487,0.022606,0.164852
20,-0.5837359999999999,-0.744201,-0.229503,-0.405438,0.677384,-0.613816,-1.0837809999999999,0.8074180000000001,0.557308,-0.091174,0.048354,0.103333
21,-0.5681109999999999,-0.778983,-0.22713200000000003,-0.382886,0.7025560000000001,-0.599845,-1.550869,0.5985229999999999,1.2529299999999999,-0.11511600000000001,-0.117122,-0.022378
22,-0.550296,-0.8266120000000001,-0.217032,-0.354224,0.735641,-0.577372,-2.038751,0.522702,1.721773,-0.182809,-0.489806,-0.19234300000000001
23,-0.530433,-0.8892760000000001,-0.204028,-0.318708,0.776616,-0.543409,-2.7374680000000002,0.49253900000000006,2.1442200000000002,-0.029085000000000003,-0.37863600000000003,-0.291125
24,-0.510325,-0.9676440000000001,-0.18868900000000002,-0.277075,0.8235520000000001,-0.494967,-3.3761160000000006,0.368029,2.399497,0.095373,-0.22111999999999998,-0.257292
25,-0.485325,-1.048122,-0.171852,-0.232875,0.8664870000000001,-0.441554,-3.161946,0.651171,2.269238,0.198237,0.161864,0.008020999999999999
26,-0.44013199999999997,-1.1157219999999999,-0.13505999999999999,-0.18726500000000001,0.898229,-0.39763899999999996,-2.275208,0.5167729999999999,2.342902,0.128168,0.199733,0.010020000000000001
27,-0.382751,-1.170892,-0.0615,-0.145404,0.921098,-0.361158,-1.851419,-1.364668,2.549099,0.28689899999999996,-0.21667600000000004,0.31677
28,-0.360913,-1.2252319999999999,0.014728999999999999,-0.11961400000000001,0.940884,-0.316905,-2.136023,-3.0403540000000002,1.9991240000000001,0.026825,-0.191815,0.7914680000000001
29,-0.389216,-1.266057,0.050496,-0.113856,0.953925,-0.27760300000000004,-1.252891,-2.781279,0.6493869999999999,-0.298116,0.21843800000000002,0.5058739999999999
30,-0.472729,-1.267052,0.005082,-0.136183,0.9542229999999999,-0.266293,0.142373,-1.417988,-1.0250629999999998,-0.854463,0.8125,0.248806
31,-0.581773,-1.188417,-0.033352,-0.205037,0.9277790000000001,-0.311745,5.77238,-5.9628760000000005,-3.6654230000000005,-0.881008,2.7955330000000003,-1.305015
32,-0.598477,-1.083515,-0.028981,-0.263791,0.883609,-0.386845,2.143186,4.094156,-1.528761,0.976514,0.283886,0.779805
33,-0.44381000000000004,-1.087544,-0.014893,-0.199518,0.8854879999999999,-0.41964700000000005,-0.520424,5.928916,0.688208,0.438043,0.5070439999999999,-0.69806
34,-0.40343,-1.089788,-0.019306999999999998,-0.181634,0.8865290000000001,-0.42553,-0.09851599999999999,0.285636,-0.080348,0.441446,-0.092401,0.27105
35,-0.42455600000000004,-1.112183,-0.019274,-0.182357,0.896667,-0.403403,-1.596055,-1.3437,0.816064,0.494384,-0.053436000000000004,0.191733
36,-0.44780699999999996,-1.154923,-0.012301000000000001,-0.174923,0.9147639999999999,-0.364155,-1.826444,-1.603636,1.01775,0.346249,0.15889,-0.058773
37,-0.48124399999999995,-1.1857540000000002,-0.012847999999999998,-0.17385799999999998,0.926783,-0.332938,-1.088902,-1.59764,0.478101,-0.09781000000000001,0.22225,-0.17540899999999998
38,-0.5053770000000001,-1.198126,-0.007606,-0.176276,0.931358,-0.31858800000000004,-0.187601,-1.328506,0.324886,-0.099191,0.11638599999999999,-0.207337
39,-0.518911,-1.199281,-0.003009,-0.180038,0.9317780000000001,-0.315238,0.05703099999999999,-0.702458,-0.069449,-0.10991,-0.18483,-0.305535
40,-0.529702,-1.1882,-0.011012000000000001,-0.188634,0.9276989999999999,-0.322167,0.596356,0.276931,-0.636299,-0.257395,-0.525492,-0.164405
41,-0.530946,-1.1632200000000001,-0.037182,-0.200709,0.918084,-0.341814,0.9229350000000001,1.7635040000000002,-1.3131760000000001,-0.16328900000000002,-0.5827720000000001,0.06866599999999999
42,-0.51547,-1.129043,-0.074862,-0.21074600000000002,0.9040040000000001,-0.37197199999999997,1.223123,2.7373279999999998,-1.613565,0.043845,-0.5493439999999999,0.262567
43,-0.503418,-1.088959,-0.11449200000000001,-0.22355799999999998,0.8861450000000001,-0.40591700000000003,1.374268,1.99082,-1.8070380000000001,0.01703,-0.299124,0.624071
44,-0.534099,-1.049232,-0.15121500000000002,-0.253635,0.867041,-0.428846,1.246807,-1.325416,-1.6883110000000001,0.004017,-0.260306,0.833707
45,-0.622648,-0.999518,-0.177485,-0.315334,0.841211,-0.439237,2.14261,-4.228562999999999,-2.130191,0.07535900000000001,-0.314416,0.492795
46,-0.716407,-0.923761,-0.184926,-0.395861,0.797875,-0.45463100000000006,3.259426,-3.8924879999999997,-2.693251,0.354983,0.060371,-0.051320000000000005
47,-0.728286,-0.842765,-0.178502,-0.44288500000000003,0.746486,-0.49659899999999996,2.086642,1.232747,-2.258289,0.33834699999999995,0.34122199999999997,-0.909651
48,-0.707238,-0.817902,-0.20718699999999998,-0.44426000000000004,0.7297130000000001,-0.519762,-0.08238,1.74338,-1.269966,-0.027327999999999998,0.94114,0.22033899999999998
49,-0.7109260000000001,-0.8040229999999999,-0.222994,-0.45273900000000006,0.7201529999999999,-0.525744,0.279623,-0.12481400000000001,-0.5942,0.040233,1.019425,0.032488
50,-0.70092,-0.8045939999999999,-0.219984,-0.447191,0.720549,-0.529933,-0.145544,0.909593,0.565867,-0.321486,0.323289,-0.034459
51,-0.663718,-0.824631,-0.20651,-0.418191,0.734297,-0.534717,-0.714158,1.503641,1.15186,-0.18881900000000001,-0.114745,-0.017407
52,-0.623729,-0.859296,-0.19655999999999998,-0.381378,0.757383,-0.5300199999999999,-1.488467,1.600032,1.427271,0.054764,-0.307722,-0.088357
53,-0.594033,-0.910222,-0.187641,-0.34342,0.78964,-0.508459,-2.153563,0.920175,1.789896,0.26209,-0.398054,-0.172052
54,-0.574242,-0.972558,-0.183804,-0.305923,0.8263290000000001,-0.472854,-2.774004,0.8263219999999999,1.8220020000000001,0.24571199999999999,-0.49231400000000003,-0.317108
55,-0.558662,-1.043382,-0.179732,-0.266775,0.8641110000000001,-0.426781,-2.933795,0.448642,2.103381,0.24008800000000002,-0.501089,-0.31047800000000003
56,-0.540048,-1.1143290000000001,-0.165501,-0.226638,0.8976149999999999,-0.378048,-2.9441349999999997,0.327065,2.1461930000000002,0.193405,-0.524157,0.351666
57,-0.522934,-1.198642,-0.16483699999999998,-0.18160199999999999,0.9315459999999999,-0.315027,-3.9521379999999997,1.0773540000000001,2.1381930000000002,0.11975799999999999,-0.092694,0.52073
58,-0.49499099999999996,-1.2865540000000002,-0.161426,-0.13321,0.959874,-0.24676900000000002,-3.56639,1.125466,2.292514,0.007447,-0.074682,0.447712
59,-0.430738,-1.361692,-0.10788900000000001,-0.086674,0.978217,-0.188621,-2.806541,0.21513600000000002,2.046887,0.081578,-0.649436,0.39261599999999997
60,-0.403955,-1.41926,-0.059658,-0.059333000000000004,0.98854,-0.13880399999999998,-2.1890110000000003,-1.790877,1.270765,-0.08267999999999999,-0.8269799999999999,0.402231
61,-0.443187,-1.450854,-0.045207,-0.051309,0.992816,-0.108091,-0.829607,-3.102369,0.39424899999999996,-0.386771,-0.681185,-0.241579
62,-0.546465,-1.40575,-0.048319,-0.085379,0.986411,-0.140368,3.057466,-5.344899,-2.4075830000000003,-0.8418059999999999,0.064813,0.9643280000000001
63,-0.703868,-1.337949,-0.16735,-0.149333,0.9730129999999999,-0.17590899999999998,1.853076,-1.3893739999999999,-3.000041,-0.671086,1.667246,-1.2084139999999999
64,-0.793397,-1.2618639999999999,-0.189397,-0.216702,0.952659,-0.21326199999999998,2.636301,-2.1731759999999998,-2.1421919999999997,0.230633,3.131677,-1.11439
65,-0.679239,-1.2424549999999999,-0.182195,-0.202578,0.946578,-0.2509,0.623391,7.914161999999999,-0.194037,1.078203,2.175736,-0.07711799999999999
66,-0.48776899999999995,-1.191426,-0.13460899999999998,-0.173559,0.928898,-0.327146,2.144006,4.995769999999999,-0.562099,-0.530787,0.06739400000000001,0.004651
67,-0.53722,-1.192999,-0.167963,-0.188771,0.929479,-0.31691199999999997,-0.990241,-3.5492470000000003,-0.398922,0.548756,0.18268800000000002,-0.230787
68,-0.63865,-1.224412,-0.21302100000000002,-0.202379,0.9406059999999999,-0.272583,-2.237425,-1.8115560000000002,0.624179,0.6459520000000001,0.022849,-0.10817
69,-0.683439,-1.279625,-0.263623,-0.181276,0.957908,-0.222598,-2.765565,0.9362090000000001,1.242947,0.371355,0.132927,-0.034894
70,-0.7183470000000001,-1.3347639999999998,-0.321213,-0.15390299999999998,0.9722729999999999,-0.176061,-2.47033,0.926325,1.061288,0.33308699999999997,-0.14836,-0.029032
71,-0.8246690000000001,-1.379097,-0.437788,-0.139907,0.9816819999999999,-0.129329,-2.3314630000000003,0.070937,0.402124,0.324142,-0.314659,0.056437
72,-1.005983,-1.40317,-0.607325,-0.140929,0.9859829999999999,-0.089303,-1.699771,-1.1891969999999998,-0.166552,0.003127,-0.22202199999999997,-0.24541300000000002
73,-1.229676,-1.410036,-0.799883,-0.150846,0.9871059999999999,-0.05355,-1.5252350000000001,-1.842598,-0.487099,0.11039500000000001,-0.227386,-0.49221099999999995
74,-1.440815,-1.4052200000000001,-0.989425,-0.163431,0.986323,-0.021363,-1.373473,-0.541693,-0.669303,0.165644,-0.31837,-0.544585
75,-1.538456,-1.389489,-1.1104459999999998,-0.180222,0.9836090000000001,-0.00583,-0.672567,1.968047,-0.997704,0.202957,-0.357007,-0.286848
76,-1.5064600000000001,-1.363826,-1.125852,-0.205071,0.978658,-0.013212,0.24458600000000003,2.207174,-1.3857780000000002,0.269554,-0.43021099999999995,0.137098
77,-1.444093,-1.337512,-1.082056,-0.229321,0.9729120000000001,-0.029212000000000002,0.8229190000000001,0.083258,-1.149349,0.30492800000000003,-0.436108,0.200782
78,-1.376829,-1.310352,-0.984841,-0.252681,0.966276,-0.049636,1.6922439999999999,-2.1141650000000003,-1.1639620000000002,0.306437,-0.44965900000000003,0.284926
79,-1.30544,-1.2805090000000001,-0.8566450000000001,-0.27620900000000004,0.9581620000000001,-0.07506399999999999,2.269307,-2.851118,-0.9197049999999999,0.199518,0.277648,0.28291900000000003
80,-1.2269139999999998,-1.25334,-0.70741,-0.29387399999999997,0.950033,-0.10524000000000001,2.631373,-3.192174,-0.39331,0.142538,1.4695690000000001,0.234634
81,-1.127529,-1.23833,-0.541636,-0.29483200000000004,0.94524,-0.13998,2.8438830000000004,-2.730871,0.743103,-0.253538,2.284008,-0.108418
82,-0.9464370000000001,-1.2192610000000002,-0.342258,-0.279375,0.938845,-0.201292,3.942468,1.624861,0.901156,-0.8344860000000001,1.107435,0.323042
83,-0.735183,-1.1844459999999999,-0.158255,-0.252735,0.92629,-0.279483,2.7816509999999997,1.321381,1.0771700000000002,0.18079,0.629328,0.157916
84,-0.632215,-1.173842,-0.036227999999999996,-0.22846100000000003,0.922243,-0.311886,1.622733,-2.097907,1.752846,0.350074,0.819319,-0.28062800000000004
85,-0.600298,-1.165605,0.09023300000000001,-0.222675,0.919027,-0.325276,1.8374279999999998,-5.098592,1.783828,0.495975,0.990442,-0.179287
86,-0.5727439999999999,-1.153802,0.22644699999999998,-0.219493,0.9143110000000001,-0.34038,2.019458,-4.429252,2.0715939999999997,0.375407,0.8349260000000001,0.024828
87,-0.526828,-1.142548,0.361734,-0.20879899999999998,0.909695,-0.358968,1.8286689999999999,-3.7369779999999997,2.009553,0.163114,0.503803,0.248219
88,-0.494021,-1.131035,0.483313,-0.20186500000000002,0.904853,-0.37482,1.6915830000000003,-4.031928,1.8295119999999998,-0.126367,-0.160499,0.614963
89,-0.494983,-1.117799,0.573044,-0.20789699999999997,0.8991389999999999,-0.38513200000000003,1.39294,-4.0003720000000005,1.124496,-0.088383,-0.355881,0.671341
90,-0.5226350000000001,-1.106004,0.633342,-0.223744,0.893915,-0.388399,1.02708,-4.112664,0.75248,0.213536,-0.583856,0.5115529999999999
91,-0.562376,-1.097839,0.6747340000000001,-0.24288200000000001,0.890225,-0.385366,0.703923,-3.61416,0.51137,0.327111,-0.699307,0.450643
92,-0.603139,-1.0951790000000001,0.7040350000000001,-0.259727,0.8890100000000001,-0.377096,0.35922600000000005,-3.160215,0.5094489999999999,0.309715,-0.732776,0.466314
93,-0.638864,-1.100633,0.7307100000000001,-0.270135,0.891494,-0.363681,-0.031577,-2.96392,0.776728,0.10898699999999999,-0.747024,0.451694
94,-0.6773359999999999,-1.117404,0.755926,-0.274513,0.8989659999999999,-0.34132199999999996,-0.468616,-3.087039,1.0419559999999999,0.114097,-0.742549,0.409864
95,-0.716114,-1.1431120000000001,0.7749550000000001,-0.272275,0.9099290000000001,-0.312881,-0.8869030000000001,-2.501251,1.1664709999999998,0.07160599999999999,-0.7458819999999999,0.304321
96,-0.747265,-1.17546,0.78023,-0.261739,0.922867,-0.282503,-1.275379,-1.3483120000000002,1.159075,0.14041700000000001,-0.48837299999999995,0.11499200000000001
97,-0.7737470000000001,-1.211526,0.770141,-0.24569699999999997,0.936154,-0.25149099999999996,-1.46813,-0.652694,1.061766,0.084748,0.034076,-0.00565
98,-0.794216,-1.2399879999999999,0.756352,-0.231688,0.94578,-0.227638,-0.835304,-0.104523,0.625376,-0.158876,0.326086,-0.135018
99,-0.77586,-1.245358,0.7639319999999999,-0.22391,0.9475110000000001,-0.228223,0.234659,0.9412790000000001,0.039715,-0.492963,1.030776,-0.622653
100,-0.748574,-1.225592,0.780844,-0.230303,0.9410059999999999,-0.24792199999999998,1.400606,-0.323169,-0.712163,-0.370008,0.8853790000000001,-0.705036
101,-0.737658,-1.184815,0.834625,-0.253195,0.9264290000000001,-0.278602,2.3557330000000003,-2.511891,-0.5798409999999999,0.050985,-0.312446,-0.6829149999999999
102,-0.72772,-1.1539030000000001,0.889699,-0.26934,0.914351,-0.30235,1.42335,-1.656707,0.0193,0.24311,-0.35630700000000004,-0.5712149999999999
103,-0.726104,-1.14476,0.9260290000000001,-0.274391,0.9106110000000001,-0.30902399999999997,0.685034,-1.871457,0.28361,0.326133,-0.41993400000000003,-0.313168
104,-0.7433489999999999,-1.131693,0.969835,-0.287707,0.905133,-0.31298000000000004,1.714802,-3.40521,0.129331,0.451571,1.963839,-0.14540899999999998
105,-0.723018,-1.112688,1.037658,-0.292615,0.896891,-0.331604,0.7305590000000001,-0.790984,0.9715469999999999,1.298902,1.284094,0.682984
106,-0.65958,-1.127154,1.1049799999999999,-0.26302600000000004,0.903194,-0.339199,0.593572,1.048239,1.4831159999999999,0.987833,-0.374172,1.7673150000000002
107,-0.617152,-1.1457469999999998,1.103349,-0.238641,0.911018,-0.33629499999999996,-1.822143,1.9730580000000002,0.076369,0.33753299999999997,-1.0465010000000001,1.579077
108,-0.680323,-1.165806,1.032797,-0.247848,0.919106,-0.30629,-1.044025,-1.827492,-0.951633,-0.603669,0.075157,-0.7365109999999999
109,-0.8465790000000001,-1.1402510000000001,0.9893,-0.31261300000000003,0.9087379999999999,-0.276524,0.849124,-7.7133270000000005,-1.479933,-0.133249,0.6758109999999999,-0.540492
110,-0.9311530000000001,-1.14315,0.9505709999999999,-0.33274000000000004,0.9099440000000001,-0.24755500000000003,-2.239833,1.4354559999999998,0.6135970000000001,1.0458290000000001,0.6910229999999999,0.44358500000000006
111,-0.9302459999999999,-1.2106350000000001,0.8491270000000001,-0.28256,0.93584,-0.21061999999999997,-3.792762,5.533304,1.7586560000000002,0.495069,0.453763,0.284518
112,-0.922416,-1.274338,0.758246,-0.232846,0.956377,-0.17641600000000002,-2.500375,3.7792660000000002,1.5861969999999999,0.26157800000000003,0.362913,0.12986199999999998
113,-0.907909,-1.313679,0.734762,-0.200435,0.9671270000000001,-0.15648800000000002,-0.99315,0.931375,1.1816309999999999,-0.004323,-0.006235,0.251474
114,-0.932458,-1.339191,0.708229,-0.184335,0.973299,-0.13677,-1.16173,-0.36851300000000003,0.592461,-0.035422,-0.33334600000000003,0.07079099999999999
115,-1.031382,-1.358026,0.629927,-0.181178,0.97745,-0.10845999999999999,-1.222648,-1.538356,0.155563,-0.015584,-0.363558,-0.195419
116,-1.156057,-1.3699620000000001,0.5268729999999999,-0.182567,0.979901,-0.08038,-1.251066,-0.640738,0.016413999999999998,0.223216,-0.311123,-0.176349
117,-1.270832,-1.379987,0.400833,-0.181177,0.981851,-0.056038,-1.341588,0.8943409999999999,0.090726,0.054026,-0.31906999999999996,-0.11599000000000001
118,-1.392731,-1.390003,0.257913,-0.176956,0.983701,-0.031847,-1.469187,0.8443459999999999,0.182835,0.100662,-0.329221,0.011492
119,-1.560482,-1.396642,0.072699,-0.173255,0.984873,-0.0017870000000000002,-1.76004,0.696228,0.179924,0.131446,-0.304133,0.03145
120,-1.7631439999999998,-1.395889,-0.146519,-0.170796,0.984743,0.033264,-1.9798419999999999,0.624822,0.112251,0.117283,-0.22509899999999997,0.051926
121,-1.9846650000000001,-1.384528,-0.381067,-0.169547,0.9827020000000001,0.074472,-2.269156,0.301102,0.06577999999999999,0.13018,0.001459,-0.096109
122,-2.1835299999999997,-1.3635979999999999,-0.584134,-0.168286,0.978611,0.118305,-2.162105,-0.06901900000000001,0.090502,0.13096300000000002,0.050106,-0.286182
123,-2.312955,-1.341223,-0.72422,-0.167709,0.9737629999999999,0.153799,-1.6451669999999998,0.724054,0.048232,0.069611,0.139548,-0.5395409999999999
124,-2.350745,-1.324597,-0.786283,-0.173266,0.9698459999999999,0.171388,-0.755095,1.254576,-0.19405799999999998,0.23225700000000002,0.358234,-0.352342
125,-2.331102,-1.317379,-0.783051,-0.181667,0.9680610000000001,0.172771,0.052766999999999994,0.46609700000000004,-0.317728,0.432857,0.342989,-0.29002
126,-2.29418,-1.31669,-0.743315,-0.18842,0.967888,0.166389,0.462441,-0.34455399999999997,-0.41210399999999997,0.716512,0.394279,-0.142448
127,-2.262966,-1.31469,-0.703233,-0.195011,0.967384,0.161663,0.13566,-0.325662,-0.32468,0.384709,0.571328,-0.147563
128,-2.246518,-1.310749,-0.679395,-0.20061700000000002,0.9663780000000001,0.16081700000000002,0.29083000000000003,-0.338513,-0.44215299999999996,0.255884,0.446876,-0.597981
129,-2.165946,-1.3091409999999999,-0.592288,-0.21419699999999997,0.9659629999999999,0.14502,1.15001,-0.005186,-0.893777,0.562982,0.338541,-0.498963
130,-2.053099,-1.307172,-0.47666899999999995,-0.23084899999999997,0.9654520000000001,0.120859,1.191927,-0.025107,-0.743908,0.660903,0.5692010000000001,-0.200373
131,-1.9538419999999999,-1.3072030000000001,-0.366333,-0.24166100000000001,0.96546,0.09737699999999999,1.5033299999999998,-0.604223,-0.579689,0.45670299999999997,0.059763,-0.009242
132,-1.817462,-1.308458,-0.20127,-0.25148200000000004,0.965786,0.063321,2.4221630000000003,-1.529835,-0.6052,0.11761700000000001,-0.038632,0.080996
133,-1.646897,-1.3079180000000001,0.014107,-0.2591,0.9656459999999999,0.019756,2.817068,-1.957264,-0.35193,0.018225,0.1211,0.195271
134,-1.479525,-1.3033350000000001,0.22949099999999997,-0.263176,0.9644450000000001,-0.024087,2.917411,-2.18546,-0.115928,0.163155,0.293642,0.07918700000000001
135,-1.293244,-1.29172,0.4621,-0.264919,0.96131,-0.075477,3.235098,-1.3181479999999999,0.096688,0.30753600000000003,0.409997,0.27269699999999997
136,-1.100571,-1.278385,0.6603220000000001,-0.256971,0.9575520000000001,-0.130605,2.501265,0.8302139999999999,0.540667,0.383817,0.516966,0.38158200000000003
137,-0.9860459999999999,-1.274693,0.795968,-0.24330900000000003,0.9564809999999999,-0.161065,1.7236200000000002,-2.218915,1.025183,0.426613,0.438691,0.39158000000000004
138,-0.904032,-1.2542959999999999,0.974375,-0.24457800000000002,0.9503309999999999,-0.192484,3.2344470000000003,-5.8969,0.41233500000000006,0.43223100000000003,0.467028,0.25096999999999997
139,-0.8937309999999999,-1.212636,1.138001,-0.27322199999999996,0.936543,-0.219621,3.396927,-7.223002,-0.03562,0.42394799999999994,0.33546,0.09930499999999999
140,-0.873926,-1.178048,1.2680120000000001,-0.29349400000000003,0.923861,-0.24564,2.571246,-3.7201589999999998,0.35898,0.294669,0.096189,-0.061153
141,-0.8446299999999999,-1.1625450000000002,1.366075,-0.296848,0.917817,-0.26361100000000004,1.704664,-3.107422,0.792249,0.277789,0.006469,0.22483899999999998
142,-0.8224290000000001,-1.151162,1.4604030000000001,-0.29856,0.9132379999999999,-0.27722800000000003,1.880941,-2.985804,0.861691,0.277472,-0.047088,0.346289
143,-0.787065,-1.139622,1.558484,-0.29601700000000003,0.908475,-0.295032,1.765418,-2.835007,1.079676,0.233334,-0.163724,0.383899
144,-0.76854,-1.1318290000000002,1.6487889999999998,-0.29541300000000004,0.905191,-0.30554499999999996,1.555448,-3.2826800000000005,1.059555,0.44044799999999995,-0.320154,0.392154
145,-0.763514,-1.124733,1.726043,-0.298308,0.9021520000000001,-0.311658,1.289791,-3.20017,0.902701,0.505995,-0.323371,0.36727600000000005
146,-0.766625,-1.122105,1.790431,-0.300919,0.901016,-0.312435,0.907632,-2.965722,0.945665,0.445557,-0.292098,0.29087399999999997
147,-0.773567,-1.128391,1.844859,-0.299118,0.903724,-0.30628099999999997,0.387209,-2.714383,1.146806,0.179992,-0.30001,0.278159
148,-0.782012,-1.145003,1.89202,-0.291073,0.910711,-0.293051,-0.037407,-2.490093,1.368948,0.174023,-0.29320300000000005,0.28833600000000004
149,-0.792295,-1.167416,1.932969,-0.279465,0.919739,-0.27563699999999997,-0.307638,-2.321899,1.366845,0.13131800000000002,-0.335862,0.24824699999999997
150,-0.8027310000000001,-1.192655,1.9651490000000003,-0.265542,0.9293520000000001,-0.25649299999999997,-0.515202,-1.7915279999999998,1.314509,0.01426,-0.351731,0.203621
151,-0.8105180000000001,-1.2210159999999999,1.984955,-0.24832600000000002,0.939448,-0.23615300000000003,-0.891141,-1.0111729999999999,1.230766,-0.035167000000000004,-0.353434,0.12441300000000001
152,-0.829369,-1.254868,1.976689,-0.22913699999999998,0.950508,-0.209823,-1.4657129999999998,-0.31624,1.103017,-0.009297,-0.275215,-0.002091
153,-0.8695959999999999,-1.2917809999999998,1.937134,-0.210425,0.961327,-0.177671,-1.682066,0.035686,0.928003,-0.072626,-0.043923000000000004,-0.209277
154,-0.905932,-1.3201180000000001,1.888011,-0.195217,0.968744,-0.15303599999999998,-1.0996059999999999,0.782133,0.501689,-0.14922,0.653234,-0.6039979999999999
155,-0.907394,-1.3262129999999999,1.879509,-0.19078399999999998,0.9702379999999999,-0.149111,0.384637,-0.332325,0.059490999999999995,-0.204922,1.323005,-0.8876780000000001
156,-0.8460260000000001,-1.311896,1.9668560000000002,-0.191662,0.966672,-0.169725,1.497395,-1.1612200000000001,0.18796600000000002,0.006146,0.271426,-0.704466
157,-0.780669,-1.290622,2.077922,-0.194599,0.961007,-0.196449,1.949495,-2.81106,0.260536,0.009236,-0.4983,-0.794167
158,-0.760549,-1.2707469999999998,2.16947,-0.203736,0.9553219999999999,-0.214121,1.269451,-3.6161830000000004,0.26109099999999996,0.285584,0.40321399999999996,-0.313116
159,-0.793867,-1.2662950000000002,2.1983080000000004,-0.213786,0.953997,-0.210195,-0.295696,-2.201473,0.014408,0.46654799999999996,1.552397,0.588232
160,-0.86569,-1.2970979999999999,2.120321,-0.205835,0.962778,-0.175177,-2.310834,1.111774,0.9008709999999999,0.676431,0.16944,1.182455
161,-0.8998430000000001,-1.338344,2.078838,-0.180421,0.9731040000000001,-0.14322000000000001,-1.195953,-0.694838,1.242122,0.65349,-0.46927399999999997,1.1436469999999999
162,-0.9256690000000001,-1.358152,2.106354,-0.168622,0.977476,-0.126895,0.058988,-3.225276,0.789454,0.182065,-0.595534,0.612857
163,-0.921982,-1.363979,2.164676,-0.16361199999999998,0.9786889999999999,-0.124073,0.344478,-1.8004779999999998,0.411472,-0.028648000000000003,-0.5669,0.18353699999999998
164,-0.9546680000000001,-1.3619459999999999,2.1379740000000003,-0.169203,0.9782700000000001,-0.11980999999999999,-0.557779,0.178292,-0.541674,-0.256822,-0.086867,-0.11188
165,-1.064077,-1.364255,2.0307,-0.17929900000000001,0.9787459999999999,-0.099522,-1.1592360000000002,-0.742969,-0.33746,-0.233879,0.395689,-0.34380700000000003
166,-1.196792,-1.377614,1.918189,-0.178702,0.981398,-0.070136,-1.269383,-0.7955399999999999,0.382888,0.39121100000000003,0.5421,0.018531
167,-1.26767,-1.392932,1.834069,-0.16885,0.984224,-0.05281,-0.7528779999999999,1.437337,0.45306899999999994,0.49668500000000004,0.194899,0.016677
168,-1.27873,-1.405913,1.78677,-0.157173,0.9864370000000001,-0.047256,-0.6136010000000001,1.645329,0.532824,0.055519000000000006,-0.24051199999999998,-0.021164
169,-1.359011,-1.416959,1.683745,-0.149793,0.98819,-0.032207,-1.13837,0.617369,0.181167,0.075253,-0.19938699999999998,0.057628
170,-1.531317,-1.423266,1.5155399999999999,-0.146865,0.989137,-0.005801,-1.357056,-0.7594380000000001,0.221996,0.162231,-0.043153,0.064929
171,-1.765739,-1.4289049999999999,1.297626,-0.138718,0.98995,0.027389999999999998,-1.629062,-0.9354180000000001,0.50981,0.277344,-0.020926,-0.009293000000000001
172,-2.0377680000000002,-1.4303190000000001,1.0400049999999998,-0.125006,0.990149,0.063024,-1.693318,-0.7677729999999999,0.7324039999999999,0.21218,-0.08306000000000001,-0.071172
173,-2.295502,-1.424541,0.788708,-0.109096,0.989324,0.096596,-1.594884,-0.21636100000000003,0.74734,0.119395,-0.07953400000000001,-0.156151
174,-2.49478,-1.411108,0.5874090000000001,-0.095815,0.9872770000000001,0.126876,-1.51535,0.042661000000000004,0.638605,0.080938,-0.120196,-0.195922
175,-2.6330459999999998,-1.3925100000000001,0.444482,-0.086341,0.9841489999999999,0.154885,-1.380501,0.133705,0.398013,0.0026920000000000004,-0.130572,-0.223244
176,-2.71795,-1.371918,0.358277,-0.081211,0.980289,0.180089,-1.2234129999999999,-0.045922000000000004,0.161127,-0.043514,-0.11453599999999999,-0.216344
177,-2.762377,-1.349601,0.31002199999999996,-0.081212,0.9756360000000001,0.203793,-1.2597399999999999,0.230861,-0.026420999999999997,-0.09479800000000001,-0.035602999999999996,-0.288312
178,-2.7867900000000003,-1.326475,0.27416,-0.084031,0.970302,0.22681700000000002,-1.19559,0.750434,-0.011683,-0.145201,0.064748,-0.538905
179,-2.779457,-1.310653,0.261198,-0.09112,0.966353,0.24052300000000001,-0.477463,1.037475,-0.221748,-0.1144,0.110017,-0.554381
180,-2.7318029999999998,-1.308115,0.293641,-0.103451,0.9656969999999999,0.238157,0.321248,0.6460279999999999,-0.524383,0.184475,0.127687,-0.34957699999999997
181,-2.677367,-1.31303,0.33832199999999996,-0.11413,0.9669620000000001,0.22793000000000002,0.47148199999999996,0.5966319999999999,-0.290398,0.262231,0.223743,-0.12482599999999999
182,-2.638095,-1.320391,0.368008,-0.11955299999999999,0.9688120000000001,0.217032,0.5617989999999999,0.41360600000000003,-0.1528,0.040222,0.195662,-0.120413
183,-2.573435,-1.331648,0.43153,-0.12745,0.97154,0.199648,1.131489,-0.011738,-0.571292,-0.088111,0.25368,-0.34286700000000003
184,-2.426514,-1.349481,0.580259,-0.14392,0.9756100000000001,0.16573,2.0832319999999998,0.394248,-0.8920399999999999,0.094191,0.119056,-0.205052
185,-2.163148,-1.369633,0.8329030000000001,-0.16575399999999998,0.979835,0.11154700000000001,2.999343,0.838173,-1.079558,0.13761700000000002,0.026513,-0.19457
186,-1.768623,-1.3760059999999998,1.218531,-0.189772,0.981088,0.038038999999999996,3.8246309999999997,0.9217690000000001,-1.1219700000000001,-0.46785200000000005,0.587683,0.174531
187,-1.371675,-1.351132,1.60496,-0.213585,0.9759709999999999,-0.0431,4.027318,0.9071440000000001,-1.3694309999999998,-0.444038,0.592801,0.255671
188,-1.098799,-1.302649,1.866407,-0.235969,0.9642629999999999,-0.120458,3.3769480000000005,0.649107,-1.012585,-0.073616,0.707368,0.245061
189,-0.9833850000000001,-1.267802,2.002293,-0.248358,0.9544469999999999,-0.16535999999999998,2.232574,-1.5530950000000001,-0.21872600000000003,0.38088099999999997,0.650976,0.28112800000000004
190,-0.910375,-1.241135,2.130122,-0.25564899999999996,0.946152,-0.19858299999999998,2.792758,-2.290772,0.220898,0.507984,0.51683,0.30888899999999997
191,-0.797067,-1.203694,2.276265,-0.25673,0.933371,-0.250807,3.075573,-0.636211,0.195116,0.585511,0.632608,-0.03708
192,-0.70296,-1.170379,2.381272,-0.251996,0.920898,-0.29739,2.22343,-0.016649,0.507768,0.036786,0.049149,0.0088
193,-0.628199,-1.148741,2.470742,-0.240736,0.912249,-0.331428,1.8145639999999998,-0.721643,0.807054,-0.03914,-0.067034,0.155357
194,-0.586374,-1.129679,2.5512259999999998,-0.236248,0.904275,-0.355626,1.76173,-2.003103,0.836101,0.006115,-0.217187,0.352819
195,-0.562341,-1.109032,2.624316,-0.23754,0.8952680000000001,-0.376919,1.654624,-1.941673,0.751953,0.2349,-0.45711199999999996,0.381603
196,-0.5394680000000001,-1.093422,2.677131,-0.236008,0.8882040000000001,-0.394196,1.060606,-0.649871,0.5624140000000001,0.16594,-0.550817,0.43743999999999994
197,-0.507584,-1.087526,2.713543,-0.225863,0.8854799999999999,-0.406089,0.44496099999999994,0.08823099999999999,0.596692,0.042697000000000006,-0.625638,0.345893
198,-0.48864799999999997,-1.0895299999999999,2.740669,-0.2173,0.88641,-0.408725,0.126782,-0.447533,0.588747,0.250884,-0.537304,0.283588
199,-0.47988400000000003,-1.094473,2.764363,-0.211684,0.8886870000000001,-0.406722,-0.009587,-0.632454,0.597646,0.140975,-0.559722,0.24796999999999997
200,-0.473447,-1.102953,2.785581,-0.205618,0.892543,-0.401354,-0.290152,-0.5847720000000001,0.638354,-0.042582,-0.615916,0.20885
201,-0.47355699999999995,-1.118919,2.796666,-0.19913699999999998,0.8996290000000001,-0.38859899999999997,-0.774664,-0.4698,0.545091,-0.036306,-0.61754,0.156925
202,-0.486097,-1.143784,2.7928189999999997,-0.193482,0.910207,-0.366176,-1.381311,-0.437616,0.48206000000000004,-0.009184999999999999,-0.60616,0.165981
203,-0.5138050000000001,-1.179162,2.7719810000000003,-0.187601,0.924286,-0.332411,-1.943715,-0.44110600000000005,0.5101829999999999,0.039300999999999996,-0.6013649999999999,0.166625
204,-0.552534,-1.221247,2.738293,-0.17974400000000001,0.939527,-0.291509,-2.169147,-0.24443,0.539335,0.143489,-0.46346800000000005,0.112081
205,-0.591914,-1.2606540000000002,2.6936430000000002,-0.170281,0.95229,-0.253269,-1.937454,0.365735,0.398098,0.20414000000000002,-0.23206,-0.131527
206,-0.630278,-1.2925870000000002,2.643843,-0.161858,0.961549,-0.221863,-1.574805,0.47250600000000004,0.28939899999999996,0.18244200000000002,0.0028829999999999997,-0.309616
207,-0.6651520000000001,-1.315585,2.600742,-0.155803,0.9676100000000001,-0.198629,-1.048618,0.211029,0.22077,0.149104,0.177928,-0.41720100000000004
208,-0.683236,-1.326574,2.585963,-0.152647,0.970326,-0.187521,-0.192982,-0.519471,0.20845500000000003,0.085798,0.18249100000000001,-0.454691
209,-0.670148,-1.32413,2.6245529999999997,-0.151653,0.9697319999999999,-0.191361,0.671425,-1.5042149999999999,0.365306,-0.047368,-0.0342,-0.338104
210,-0.629283,-1.318244,2.692078,-0.147066,0.9682780000000001,-0.202008,0.665719,-0.9222600000000001,0.560004,-0.089247,-0.226319,-0.158999
211,-0.57739,-1.319174,2.754613,-0.135898,0.96851,-0.20861,0.249969,-0.20774,0.723895,-0.091458,-0.354817,-0.033867
212,-0.52107,-1.327796,2.812235,-0.119778,0.97062,-0.208679,-0.176057,0.11375199999999999,0.8818090000000001,-0.107394,-0.541085,0.09758
213,-0.474386,-1.347257,2.861341,-0.10126,0.9751190000000001,-0.197198,-0.866508,-0.276359,1.0024680000000001,-0.023389,-0.831046,0.43750900000000004
214,-0.47339499999999995,-1.382859,2.8751700000000002,-0.085177,0.982392,-0.16628199999999999,-1.8313380000000001,-0.769771,0.8211719999999999,-0.045225,-0.8480690000000001,0.759772
215,-0.607572,-1.417457,2.757779,-0.08719199999999999,0.988267,-0.125399,-2.056186,-0.8382639999999999,-0.5017010000000001,-0.20876799999999998,0.014633000000000002,0.7366659999999999
216,-0.8895629999999999,-1.42803,2.496868,-0.11052000000000001,0.989826,-0.089599,-1.015916,-1.869832,-1.3070979999999999,0.120652,1.200863,-0.44375699999999996
217,-0.8388629999999999,-1.357375,2.663481,-0.157556,0.9773120000000001,-0.14155,4.980842,-5.568157,-2.320147,-0.46942700000000004,5.945814,-0.518912
218,-0.6768390000000001,-1.278042,2.877816,-0.180753,0.9574530000000001,-0.224971,3.512742,1.919026,0.44058500000000006,1.040433,-0.6351720000000001,0.145244
219,-0.544068,-1.283484,2.901944,-0.146681,0.959009,-0.24245799999999998,-0.586808,4.497801,-0.202378,-0.505694,-0.44034700000000004,0.065975
220,-0.546985,-1.266489,2.882911,-0.155843,0.9540549999999999,-0.255914,0.7371810000000001,-0.594378,-0.776263,-0.287975,-0.389907,0.219354
221,-0.5706,-1.278399,2.856321,-0.155694,0.957556,-0.242583,-1.585412,0.7686109999999999,0.577364,0.8377,0.177347,0.295607
222,-0.56988,-1.324386,2.836183,-0.131605,0.969794,-0.20537600000000003,-2.03925,0.82415,1.200101,0.463743,0.43463999999999997,0.078819
223,-0.546579,-1.3664100000000001,2.849195,-0.105495,0.9791860000000001,-0.173396,-1.6707029999999998,0.393801,1.14127,0.05349400000000001,0.006502,0.074656
224,-0.561272,-1.403529,2.833478,-0.088615,0.986043,-0.14094500000000001,-1.562846,-0.33104,0.629137,-0.14910199999999998,-0.209508,-0.187608
225,-0.620818,-1.425878,2.796898,-0.084004,0.989518,-0.11746400000000001,-0.670874,-1.436145,0.22658699999999998,-0.064052,-0.236893,-0.301848
226,-0.650176,-1.425593,2.785389,-0.087587,0.989476,-0.115173,0.20414000000000002,-0.20266900000000002,-0.236763,0.009492,-0.373174,-0.586869
227,-0.634524,-1.4131719999999999,2.7652520000000003,-0.093053,0.9876030000000001,-0.126419,0.5582550000000001,2.86599,-0.7093079999999999,-0.116801,-0.479638,-0.36734
228,-0.5971890000000001,-1.385848,2.734852,-0.10340799999999999,0.9829459999999999,-0.152067,1.224305,3.274236,-1.081193,-0.078598,-0.522329,0.006575
229,-0.552149,-1.346646,2.7328080000000003,-0.11658900000000001,0.974983,-0.189247,1.903002,1.653689,-1.0711709999999999,-0.052082,-0.585274,0.201759
230,-0.535013,-1.295965,2.7406919999999997,-0.13836600000000002,0.962471,-0.233462,2.260529,-0.263916,-1.353568,-0.18243499999999999,-0.47158,0.342028
231,-0.580515,-1.239835,2.729529,-0.178222,0.94573,-0.271719,2.348314,-2.771184,-1.7930540000000001,-0.32515,-0.157431,0.452963
232,-0.6643979999999999,-1.171352,2.726597,-0.239794,0.921277,-0.306181,3.230807,-4.568655000000001,-2.203329,-0.28187399999999996,0.043505,0.40382199999999996
233,-0.699732,-1.067616,2.765342,-0.310552,0.8760530000000001,-0.36890100000000003,4.936823,-2.324385,-2.815994,-0.127772,0.526138,-0.027217
234,-0.66919,-0.987311,2.776927,-0.34177399999999997,0.8345469999999999,-0.432113,1.667959,2.6772099999999996,-1.879563,-0.105751,1.310106,-0.567628
235,-0.6316470000000001,-0.9603299999999999,2.767714,-0.33849,0.8193809999999999,-0.462645,1.02585,1.087261,-0.652488,0.039326,1.111161,0.05769199999999999
236,-0.6301869999999999,-0.930934,2.781406,-0.35186,0.802178,-0.48239499999999996,1.486042,-0.810107,-0.49088100000000007,0.264915,0.524772,0.20947600000000002
237,-0.620848,-0.914048,2.7916279999999998,-0.355169,0.791982,-0.496608,0.345174,0.7834300000000001,-0.006306,-0.10184700000000001,-0.378728,-0.038945
238,-0.588904,-0.92515,2.792438,-0.33422199999999996,0.798711,-0.500356,-0.804358,1.809463,0.413775,0.101358,-0.530095,0.018896
239,-0.564149,-0.951401,2.7851790000000003,-0.31041399999999997,0.81423,-0.490584,-1.4753969999999998,1.330455,0.6372329999999999,0.085073,-0.565481,-0.062654
240,-0.543878,-0.9920059999999999,2.779347,-0.283055,0.837125,-0.468082,-1.983659,1.233387,1.109166,0.244481,-0.563901,-0.073925
241,-0.524945,-1.0456370000000001,2.7771779999999997,-0.25126,0.865244,-0.433845,-2.5894220000000003,0.881647,1.417306,0.23386500000000002,-0.651758,-0.022653
242,-0.51669,-1.112849,2.770771,-0.218403,0.896962,-0.384394,-3.174492,0.709413,1.572605,0.201237,-0.6985979999999999,0.086344
243,-0.50298,-1.186658,2.7644029999999997,-0.180649,0.9271219999999999,-0.328346,-3.282828,1.060355,1.816022,0.091736,-0.24271900000000002,0.274848
244,-0.473364,-1.2605,2.7770799999999998,-0.139199,0.9522430000000001,-0.27176500000000003,-3.0926259999999997,0.547821,1.9515349999999998,-0.009986,-0.017641999999999998,0.09545
245,-0.45760100000000004,-1.328152,2.805556,-0.10615,0.970706,-0.215549,-2.584833,-1.324832,1.7523830000000002,0.12676500000000002,0.08068600000000001,-0.165951
246,-0.43386499999999995,-1.3767559999999999,2.883568,-0.08106000000000001,0.981233,-0.174958,-1.397224,-3.246125,1.9383290000000002,0.357808,-0.9077930000000001,-0.16151300000000002
247,-0.325444,-1.411892,3.0606419999999996,-0.050593,0.987401,-0.14993,-0.9585299999999999,-3.297225,2.082464,0.100611,-1.09966,0.028225999999999998
248,-0.253546,-1.43724,-3.0959849999999998,-0.033401,0.9910950000000001,-0.128901,-0.815176,-1.997891,0.43780699999999995,-0.7096560000000001,-0.6743680000000001,0.9601850000000001
249,-0.312842,-1.4626709999999998,3.0948,-0.033211000000000004,0.99416,-0.102674,-1.36769,3.300074,-0.235139,-0.529792,2.009471,-2.653613
250,-0.46383599999999997,-1.4271200000000002,2.994339,-0.06405599999999999,0.9896959999999999,-0.128053,3.482794,-6.828091000000001,-1.8931619999999998,-0.310135,2.317402,-0.509536
251,-0.49970600000000004,-1.377084,2.996609,-0.09224,0.981296,-0.168963,1.545115,0.930275,-0.73839,0.58455,2.582226,-1.112714
252,-0.393895,-1.28731,3.080345,-0.107347,0.9600860000000001,-0.258284,5.172949,1.7123009999999999,-0.981107,-0.237273,-0.48894099999999996,0.295561
253,-0.361123,-1.2491940000000001,3.049991,-0.11168099999999999,0.94873,-0.2957,0.342181,2.363213,-1.328673,-0.195875,-0.26263400000000003,-0.016097999999999998
254,-0.42153100000000004,-1.233617,2.9763990000000002,-0.13535999999999998,0.943692,-0.301867,0.11608299999999999,-0.136575,-1.23625,0.25102199999999997,-0.367825,0.138873
255,-0.44539399999999996,-1.250337,2.929856,-0.135707,0.949091,-0.28426999999999997,-1.7672259999999997,1.751743,0.231935,0.5042979999999999,0.220419,0.021682
256,-0.442432,-1.276869,2.9092740000000004,-0.124037,0.9571139999999999,-0.261817,-0.651291,0.269455,0.186082,0.21310300000000001,0.456003,-0.03277
257,-0.434115,-1.2715670000000001,2.931991,-0.12398800000000001,0.955564,-0.267439,0.7508520000000001,-0.868857,0.185584,0.11999000000000001,0.157839,-0.23839000000000002
258,-0.422177,-1.253074,2.955991,-0.12800599999999998,0.9499489999999999,-0.284974,1.097569,-0.102459,-0.23065100000000002,-0.082595,-0.489073,-0.330703
259,-0.408729,-1.22832,2.953388,-0.133469,0.941926,-0.308158,1.136365,1.157462,-0.72124,-0.112472,-0.342835,-0.10119
260,-0.408642,-1.195518,2.933259,-0.145646,0.9304049999999999,-0.336351,1.5770030000000002,0.728359,-1.153447,-0.13020199999999998,-0.25525,0.024294
261,-0.43035100000000004,-1.149491,2.9042310000000002,-0.17060999999999998,0.9125559999999999,-0.371663,1.9652049999999999,-0.20871399999999998,-1.580028,-0.36917,0.190944,0.345402
262,-0.47984,-1.0902020000000001,2.880795,-0.213418,0.8867209999999999,-0.41009700000000004,2.937318,-2.134769,-1.880554,-0.226356,0.294203,0.270784
263,-0.53767,-1.00835,2.880425,-0.2731,0.8459530000000001,-0.458017,3.8397349999999997,-2.769134,-1.99842,0.13355899999999998,0.730234,-0.239844
264,-0.5468569999999999,-0.9322790000000001,2.888557,-0.309925,0.80298,-0.5090859999999999,2.596102,0.0036340000000000005,-1.683784,-0.016246,0.989027,-0.390832
265,-0.559477,-0.887999,2.879681,-0.334881,0.7758109999999999,-0.534764,1.6645310000000002,-0.591259,-1.29215,0.048,0.534034,-0.008586
266,-0.579383,-0.847448,2.872486,-0.362394,0.749594,-0.553876,1.363589,-0.452354,-1.136333,-0.343188,0.222254,-0.072406
267,-0.582911,-0.825492,2.871243,-0.373317,0.7348819999999999,-0.5662,0.65293,-0.21210199999999998,-0.395986,-0.311223,0.105511,-0.027533999999999996
268,-0.589795,-0.8194450000000001,2.8725169999999998,-0.379671,0.730767,-0.5673,-0.00131,-0.343511,-0.0008730000000000001,-0.15473800000000001,-0.328332,-0.10158400000000001
269,-0.591021,-0.8303149999999999,2.866516,-0.375917,0.7381439999999999,-0.5602050000000001,-0.864836,0.498046,0.217412,-0.060835,-0.480911,0.031869
270,-0.581814,-0.855936,2.854828,-0.36023,0.755185,-0.547659,-1.491838,1.075472,0.48255299999999995,0.126877,-0.386502,0.234533
271,-0.568911,-0.8922209999999999,2.842683,-0.33814299999999997,0.778468,-0.528816,-1.8633330000000001,1.0777370000000002,0.770511,0.16780899999999999,-0.362971,0.33263400000000004
272,-0.558161,-0.937124,2.8319799999999997,-0.313596,0.805859,-0.5022439999999999,-2.195825,0.9096870000000001,0.9927309999999999,0.12219000000000001,-0.462185,0.31440799999999997
273,-0.550559,-0.988822,2.82108,-0.287569,0.8353790000000001,-0.46845,-2.473575,0.737496,1.137358,0.057497,-0.583487,0.293615
274,-0.554248,-1.046828,2.805631,-0.26332,0.8658399999999999,-0.42541999999999996,-2.815287,0.300431,1.242353,0.041259,-0.723308,0.136754
275,-0.569575,-1.1139649999999999,2.786437,-0.237877,0.8974549999999999,-0.37146799999999996,-3.247768,-0.010133,1.492899,0.218559,-0.6121,-0.033408999999999994
276,-0.594835,-1.187567,2.760543,-0.20953200000000002,0.9274620000000001,-0.309692,-3.3595660000000005,-0.082643,1.607579,0.278868,-0.43558,-0.115906
277,-0.6295029999999999,-1.25929,2.727024,-0.180444,0.951873,-0.24774200000000002,-3.207594,-0.237546,1.585338,0.23406300000000002,0.323304,-0.287628
278,-0.6551600000000001,-1.3313629999999999,2.705263,-0.144492,0.9714729999999999,-0.188047,-2.907127,-0.229175,2.161061,0.18373699999999998,0.26500799999999997,-0.16555999999999998
279,-0.622587,-1.399138,2.7450330000000003,-0.099607,0.985303,-0.138763,-2.235346,-0.383443,2.328321,-0.060336,-0.07562,-0.037689999999999994
280,-0.533011,-1.450944,2.843572,-0.060752,0.992826,-0.102974,-1.401849,-0.45104799999999995,1.729616,-0.535928,-0.189192,0.00518
281,-0.472948,-1.464613,2.936354,-0.048273,0.994368,-0.094343,0.495604,-2.964945,0.048686,-1.148443,-0.06626699999999999,-0.088793
282,-0.614869,-1.439465,2.860639,-0.075537,0.9913879999999999,-0.106964,0.268913,-1.551603,-1.28144,0.037877999999999995,0.23869899999999997,0.50618
283,-0.7195600000000001,-1.425254,2.725791,-0.095578,0.9894270000000001,-0.109072,0.20965100000000003,2.320062,-1.077443,0.46403199999999994,0.319639,-0.388395
284,-0.6348,-1.370434,2.817967,-0.118022,0.9799950000000001,-0.160249,4.2554739999999995,-2.136299,-1.0434729999999999,0.760936,1.033021,-0.8396129999999999
285,-0.543429,-1.300037,2.921384,-0.138297,0.963568,-0.228931,2.316738,1.937352,-0.970368,0.070762,0.5950409999999999,-0.814847
286,-0.438879,-1.26538,2.954561,-0.127769,0.953722,-0.27219,1.641691,3.864182,-0.056745000000000004,0.033438999999999997,-0.054537,0.013812999999999999
287,-0.40466799999999997,-1.255628,2.948907,-0.12204100000000001,0.950744,-0.284938,-0.047148,0.711727,-0.380696,0.11651700000000001,0.126496,0.348384
288,-0.415163,-1.260876,2.939237,-0.123011,0.952358,-0.279072,-0.578418,-0.357242,0.20341700000000001,0.468775,-0.016323,0.187169
289,-0.417459,-1.281116,2.9441889999999997,-0.11581099999999998,0.958335,-0.261112,-0.9596299999999999,-0.291385,0.580957,0.44762799999999997,-0.003333,0.095829
290,-0.411814,-1.301175,2.952762,-0.106618,0.963872,-0.244094,-0.7789590000000001,-0.118851,0.434583,0.17496199999999998,-0.074513,-0.09282
291,-0.41551499999999997,-1.313115,2.954905,-0.10286700000000001,0.966983,-0.23315100000000002,-0.41088199999999997,-0.373708,0.180039,-0.020347,-0.14743399999999998,-0.086322
292,-0.43209200000000003,-1.319488,2.948848,-0.10413499999999999,0.9685879999999999,-0.225814,-0.283328,-0.669532,-0.010971,0.009989,-0.299047,-0.17108199999999998
293,-0.465222,-1.3215350000000001,2.930775,-0.110668,0.969095,-0.220467,-0.11953699999999999,-0.779949,-0.24576199999999998,0.025554,-0.343302,-0.21755100000000002
294,-0.49758900000000006,-1.316807,2.908317,-0.11993,0.9679180000000001,-0.220795,0.20335,-0.32974899999999996,-0.42247700000000005,-0.06514299999999999,-0.381996,-0.252502
295,-0.516281,-1.305811,2.884842,-0.12928299999999998,0.965096,-0.22775700000000001,0.40552699999999997,0.561895,-0.599532,-0.080235,-0.41860299999999995,-0.229854
296,-0.522085,-1.288778,2.856989,-0.138781,0.9604959999999999,-0.241218,0.6498229999999999,1.271464,-0.8348120000000001,-0.097272,-0.41278100000000006,-0.183129
297,-0.517688,-1.261696,2.8356619999999997,-0.15054,0.952608,-0.264339,1.312532,1.1557879999999998,-0.9859950000000001,0.046094,-0.310548,0.033122000000000006
298,-0.503344,-1.226183,2.832623,-0.162955,0.941206,-0.29593200000000003,1.4837770000000001,0.45797299999999996,-0.8535809999999999,0.111228,-0.24777,0.23768899999999998
299,-0.512663,-1.188468,2.838753,-0.182996,0.927798,-0.32511799999999996,2.082414,-1.433842,-0.86834,0.025388,0.08570599999999999,0.205886
300,-0.531351,-1.126943,2.866203,-0.217587,0.9031030000000001,-0.370215,3.399771,-2.472791,-1.134476,-0.044833,0.416004,0.000265
301,-0.532909,-1.0539020000000001,2.905021,-0.251064,0.869358,-0.425655,3.4286790000000003,-1.111018,-0.9811270000000001,-0.088245,0.783886,-0.421284
302,-0.498115,-1.000995,2.932613,-0.25774,0.842008,-0.47391099999999997,2.19767,1.271317,-0.541989,-0.188244,0.9941129999999999,-0.16914
303,-0.47429899999999997,-0.95934,2.9551380000000003,-0.262181,0.818813,-0.510691,2.14929,-0.48287299999999994,-0.313616,0.073461,0.604344,-0.272924
304,-0.467868,-0.926959,2.9827790000000003,-0.270712,0.799798,-0.535759,1.582535,-0.733309,0.20083399999999998,-0.363566,0.485129,-0.08445
305,-0.44317799999999996,-0.908874,3.0146990000000002,-0.263563,0.788812,-0.5552560000000001,0.981342,0.266379,0.6066189999999999,-0.26622199999999996,0.10311,0.017689
306,-0.421371,-0.904148,3.0443990000000003,-0.252915,0.785898,-0.564267,0.403554,-0.405561,0.778632,-0.004104,-0.310969,-0.003665
307,-0.416983,-0.908839,3.066734,-0.24894000000000002,0.78879,-0.561994,-0.153861,-0.626881,0.664995,0.048333,-0.610446,0.160993
308,-0.4134,-0.9225549999999999,3.0749400000000002,-0.242556,0.797147,-0.552922,-0.76147,0.186922,0.40974399999999994,0.08415399999999999,-0.537274,0.20599800000000001
309,-0.406596,-0.9458260000000001,3.070792,-0.23138699999999998,0.81098,-0.537373,-1.3078670000000001,0.576795,0.355222,0.212238,-0.376502,0.333287
310,-0.40286700000000003,-0.97682,3.063639,-0.219419,0.828722,-0.514854,-1.58855,0.41440299999999997,0.44960900000000004,0.155882,-0.47474799999999995,0.390358
311,-0.40305100000000005,-1.01168,3.055805,-0.208052,0.847724,-0.487932,-1.756886,0.28586100000000003,0.506282,-0.052263,-0.613883,0.31097600000000003
312,-0.407373,-1.053775,3.0433950000000003,-0.195838,0.869296,-0.453842,-2.313723,0.35787800000000003,0.562124,-0.155648,-0.728014,0.235733
313,-0.419437,-1.110636,3.021517,-0.180854,0.8959809999999999,-0.405596,-3.079584,0.34063499999999997,0.742667,-0.0020989999999999997,-0.593522,0.176852
314,-0.441954,-1.176817,2.9914389999999997,-0.164181,0.9233889999999999,-0.346982,-3.2813809999999997,0.161996,0.83549,0.129407,-0.32619000000000004,0.058622
315,-0.480484,-1.240357,2.953088,-0.14996700000000002,0.9459,-0.28772,-3.06498,-0.38405100000000003,0.8045859999999999,0.143696,-0.029838999999999997,-0.134628
316,-0.5351640000000001,-1.2984149999999999,2.911661,-0.13719800000000001,0.963133,-0.231411,-2.676303,-0.9471120000000001,0.882798,0.209006,0.179338,-0.250324
317,-0.586811,-1.3504399999999999,2.878579,-0.121028,0.97582,-0.18201099999999998,-2.233495,-0.8678610000000001,1.1923700000000002,0.12559,0.125392,-0.24192399999999997
318,-0.582021,-1.395849,2.893147,-0.09568099999999999,0.9847360000000001,-0.145398,-1.540869,-0.356658,1.423016,0.046212,-0.100733,-0.29349000000000003
319,-0.524201,-1.42547,2.9641919999999997,-0.072483,0.989459,-0.12537,-0.5768949999999999,-0.81986,1.0724879999999999,-0.32426,-0.159136,0.068714
320,-0.457962,-1.4281780000000002,3.052848,-0.062841,0.9898469999999999,-0.12748900000000002,0.7233649999999999,-1.187704,0.293694,-0.698283,0.431753,0.307741
321,-0.45573,-1.396016,3.07723,-0.076533,0.984765,-0.156144,1.488651,-0.683673,-0.939675,-0.424108,0.812675,0.749894
322,-0.518039,-1.365164,3.008666,-0.101108,0.978932,-0.177395,1.435815,-0.272863,-1.595391,0.496464,0.960872,-1.76865
323,-0.533404,-1.296697,3.001334,-0.137632,0.962669,-0.233077,2.246938,2.411852,-1.820697,0.5503060000000001,1.061852,-0.080125
324,-0.46420500000000003,-1.272068,2.982861,-0.13176400000000002,0.9557110000000001,-0.263162,0.806852,3.6469650000000002,-0.156298,-0.207546,0.755165,-0.483741
325,-0.435889,-1.2577459999999998,2.990863,-0.130027,0.951399,-0.279167,0.356029,-0.134967,-0.247536,0.320334,0.247942,0.007254999999999999
326,-0.43574399999999996,-1.265464,2.990586,-0.126883,0.9537469999999999,-0.272519,-0.7192029999999999,0.379391,0.460003,0.40939899999999996,0.073963,0.040311
327,-0.406217,-1.293166,3.009457,-0.108298,0.961708,-0.251773,-1.369221,0.5374720000000001,0.9178,0.21802399999999997,0.086647,0.10663099999999999
328,-0.383454,-1.326467,3.0282970000000002,-0.090503,0.9703,-0.224338,-1.392735,-0.038391,0.8254379999999999,0.127933,0.045218,0.08356
329,-0.37456799999999996,-1.3530469999999999,3.0501650000000002,-0.07904,0.9763860000000001,-0.20105399999999998,-0.961609,-0.940262,0.6138239999999999,-0.009034,-0.148963,0.030095
330,-0.386519,-1.368857,3.062109,-0.07560800000000001,0.9796790000000001,-0.185772,-0.569716,-1.1885290000000002,0.288936,-0.06398,-0.363606,-0.079914
331,-0.412825,-1.3794959999999998,3.053721,-0.076282,0.981758,-0.174163,-0.5398270000000001,-0.711494,0.049252,-0.05985700000000001,-0.41194899999999995,-0.09601
332,-0.452089,-1.387108,3.017122,-0.07979299999999999,0.9831770000000001,-0.164306,-0.43078599999999995,0.206607,-0.269493,-0.07978400000000001,-0.415321,-0.148911
333,-0.498241,-1.389916,2.9566220000000003,-0.085969,0.9836860000000001,-0.158025,-0.328608,0.8591770000000001,-0.51317,-0.086288,-0.276014,-0.158137
334,-0.5520079999999999,-1.385821,2.883496,-0.096448,0.982941,-0.156605,-0.030692,0.8890290000000001,-0.777115,-0.040408,-0.265991,-0.203625
335,-0.605751,-1.3723940000000001,2.813948,-0.11222599999999999,0.980383,-0.16203199999999998,0.336064,0.610607,-0.9985229999999999,0.012647,-0.23726399999999997,-0.3611
336,-0.644838,-1.352566,2.760221,-0.130132,0.976282,-0.173027,0.520461,0.8038649999999999,-1.002824,0.09287000000000001,-0.171976,-0.372398
337,-0.657183,-1.331023,2.725886,-0.145075,0.971392,-0.188019,0.693611,1.1387129999999999,-0.9742700000000001,0.101939,-0.202898,-0.287094
338,-0.658974,-1.306292,2.704884,-0.160075,0.9652219999999999,-0.20669200000000001,0.921795,0.651022,-0.957096,0.143657,-0.197217,0.020306
339,-0.662662,-1.274548,2.7018560000000003,-0.179602,0.9564379999999999,-0.230147,1.442114,-0.473179,-1.057775,0.015203999999999999,-0.153872,0.19422799999999998
340,-0.669295,-1.228807,2.7179599999999997,-0.208069,0.942089,-0.26300999999999997,2.2526200000000003,-1.508317,-1.305023,-0.066955,0.041187,0.265833
341,-0.685639,-1.166007,2.746555,-0.249356,0.9191860000000001,-0.304825,3.0954900000000003,-2.4160369999999998,-1.7423529999999998,-0.065768,0.11237,0.283661
342,-0.70457,-1.090182,2.773995,-0.29945,0.886711,-0.35223899999999997,3.275429,-1.897532,-2.0932060000000003,-0.08444600000000001,0.640007,-0.403589
343,-0.698855,-1.0239639999999999,2.7930479999999998,-0.334527,0.854176,-0.39808899999999997,2.360004,0.329778,-1.521341,-0.064674,1.164089,-0.503645
344,-0.684442,-0.985809,2.8007400000000002,-0.349116,0.8337190000000001,-0.42782,1.3770040000000001,-0.034894999999999995,-0.8494200000000001,-0.051168,1.121313,-0.176627
345,-0.692213,-0.9549030000000001,2.8145569999999998,-0.368705,0.816258,-0.44472399999999995,1.447236,-1.231459,-0.579272,-0.170754,0.248272,-0.10823900000000002
346,-0.693999,-0.9349370000000001,2.8300650000000003,-0.379848,0.804562,-0.456503,0.7139989999999999,-0.33389800000000003,-0.094162,-0.086171,-0.12035799999999999,-0.027353
347,-0.6871729999999999,-0.934939,2.839008,-0.376722,0.804563,-0.459084,-0.088627,0.036767,0.347342,0.033063999999999996,-0.165998,0.052177999999999995
348,-0.684517,-0.947636,2.8423950000000002,-0.369012,0.812038,-0.452132,-0.611334,0.036631,0.568018,0.073907,-0.339092,0.153426
349,-0.680887,-0.9709,2.839901,-0.355378,0.8253940000000001,-0.438668,-1.135065,0.479817,0.747526,0.150117,-0.387787,0.146249
350,-0.67157,-1.003831,2.833376,-0.33417600000000003,0.843535,-0.420446,-1.533463,0.850981,0.9803440000000001,0.18898800000000002,-0.544478,0.156194
351,-0.659539,-1.044451,2.8276830000000004,-0.307832,0.864649,-0.397015,-1.767554,0.766629,1.231986,0.17488199999999998,-0.703913,0.14937999999999999
352,-0.652397,-1.090819,2.824306,-0.28033,0.8870049999999999,-0.36692800000000003,-1.9708029999999999,0.34479,1.405227,0.13958299999999998,-0.8446319999999999,0.09382599999999999
353,-0.6549119999999999,-1.1441430000000001,2.818371,-0.25205700000000003,0.9103559999999999,-0.328205,-2.372761,0.098361,1.574719,0.142575,-0.804796,0.06312999999999999
354,-0.66973,-1.2087780000000001,2.79693,-0.219854,0.935184,-0.277658,-3.064694,0.294292,1.661502,0.21461999999999998,-0.451557,0.117059
355,-0.719411,-1.2791569999999999,2.7414080000000003,-0.189459,0.957774,-0.216272,-3.262716,-0.026019999999999998,1.4832040000000002,0.210166,0.12628699999999998,-0.022391
356,-0.810858,-1.342354,2.659602,-0.164154,0.9740200000000001,-0.156001,-2.816493,-0.9648260000000001,1.437317,0.149094,0.41292700000000004,-0.190114
357,-0.9113709999999999,-1.396824,2.581861,-0.136802,0.9849049999999999,-0.106047,-2.0343150000000003,-1.237747,1.610842,0.071632,0.134846,-0.41771099999999994
358,-0.953902,-1.4385139999999998,2.567926,-0.107582,0.9912639999999999,-0.076301,-0.908539,-1.705973,1.576576,-0.091804,-0.36635500000000004,-0.43763100000000005
359,-0.91114,-1.46571,2.662019,-0.082884,0.994484,-0.06428099999999999,-0.168467,-3.079234,1.23206,-0.41902399999999995,-0.7689739999999999,-0.011632
360,-0.863084,-1.4739200000000001,2.765397,-0.073494,0.9953110000000001,-0.062878,0.209186,-1.837102,0.101859,-0.59539,-0.552761,0.852261
361,-1.004915,-1.463959,2.616257,-0.09001100000000001,0.9942979999999999,-0.057173,-0.787195,1.582925,-1.020434,-0.44487,0.617045,0.607206
362,-1.237861,-1.448109,2.346155,-0.115659,0.992483,-0.039996,-0.828522,1.0569520000000001,-1.851125,0.340039,2.013071,-1.833753
363,-1.086626,-1.409831,2.5453770000000002,-0.141849,0.987073,-0.074602,2.560119,-0.982809,-0.585708,1.591007,1.228274,0.9157879999999999
364,-0.9357,-1.401255,2.633942,-0.13583,0.985662,-0.1001,0.061773,3.307886,0.305741,-0.390934,1.633616,-1.7440930000000001
365,-0.769649,-1.393794,2.790883,-0.12253,0.984376,-0.126452,1.703815,-0.262125,0.28226100000000004,-0.12232799999999999,0.202193,-0.414839
366,-0.751692,-1.3818979999999998,2.80355,-0.128227,0.9822120000000001,-0.137176,-0.066866,0.55111,-0.420152,0.074577,0.286999,0.053528
367,-0.803131,-1.3907,2.733982,-0.128885,0.983826,-0.124393,-1.07812,0.778742,0.007259000000000001,0.254266,-0.10633900000000002,0.086612
368,-0.8881610000000001,-1.410726,2.636542,-0.123669,0.987216,-0.10054600000000001,-1.356757,0.533615,0.276955,0.354306,-0.14444300000000002,0.18323399999999998
369,-0.999606,-1.433138,2.508047,-0.11543900000000001,0.99054,-0.074187,-1.467853,0.8626790000000001,0.399671,0.188605,-0.12027,0.052962
370,-1.145642,-1.4512,2.34923,-0.10868699999999999,0.992857,-0.049210000000000004,-1.197289,0.301259,0.170476,-0.016771,-0.325621,-0.003005
371,-1.319225,-1.455752,2.180441,-0.111175,0.99339,-0.028574000000000002,-0.936199,-0.687491,-0.278291,-0.065339,-0.561871,-0.034444999999999996
372,-1.498441,-1.448121,2.021587,-0.122046,0.9924850000000001,-0.008846,-0.8244469999999999,-1.143291,-0.675373,0.189566,-0.535683,-0.093434
373,-1.64106,-1.4321620000000002,1.894075,-0.137849,0.9904059999999999,0.009701999999999999,-0.860384,-0.504468,-0.824926,0.279435,-0.460804,-0.16154200000000002
374,-1.7509580000000002,-1.414405,1.7810810000000001,-0.15323299999999998,0.9877959999999999,0.027908999999999996,-0.99116,0.406403,-0.726594,0.296513,-0.39268800000000004,-0.300523
375,-1.8311950000000001,-1.395807,1.684346,-0.168227,0.984728,0.044824,-0.913795,0.959189,-0.770559,0.272338,-0.344531,-0.33020900000000003
376,-1.854069,-1.37532,1.635887,-0.18649100000000002,0.9809549999999999,0.054288,-0.574342,1.3282450000000001,-0.916075,0.273146,-0.269881,-0.284497
377,-1.8447669999999998,-1.355533,1.625567,-0.205637,0.9769200000000001,0.057791999999999996,-0.263227,0.543038,-0.8947360000000001,0.24531,-0.055762,-0.359611
378,-1.8371849999999998,-1.338169,1.6376030000000001,-0.22240300000000002,0.9730639999999999,0.060688,0.026299,-0.564754,-0.9030440000000001,0.305838,-0.04385,-0.46240600000000004
379,-1.800823,-1.319971,1.694118,-0.24166500000000002,0.968708,0.056590999999999995,0.7187819999999999,-1.024278,-1.139037,0.276958,-0.080372,-0.42927200000000004
380,-1.7166130000000002,-1.299814,1.8059560000000001,-0.264835,0.963508,0.038893000000000004,1.566386,-1.314203,-1.298319,0.24528899999999998,-0.246757,-0.14569000000000001
381,-1.58918,-1.275733,1.963139,-0.290749,0.956784,0.005346,2.342287,-0.899897,-1.416276,0.327919,0.5361060000000001,0.093653
382,-1.437986,-1.250666,2.1370669999999996,-0.31191599999999997,0.9491950000000001,-0.041671,2.888415,-0.793459,-0.802643,0.390651,1.216775,0.244155
383,-1.284983,-1.235977,2.315101,-0.315265,0.94447,-0.09264299999999999,2.836749,-0.832399,0.453275,-0.06692200000000001,2.099643,0.078376
384,-1.130061,-1.239257,2.489296,-0.29439,0.945543,-0.13885799999999998,2.542382,0.023875999999999998,1.291881,-0.5306069999999999,0.838607,-0.110181
385,-0.9742360000000001,-1.241618,2.6506939999999997,-0.267425,0.946308,-0.181608,2.020902,-0.213678,1.47655,0.313202,0.445003,-0.35846100000000003
386,-0.860873,-1.249,2.803609,-0.23986,0.9486690000000001,-0.20613499999999998,1.511451,-2.253737,1.9317360000000001,0.518471,0.559372,-0.393596
387,-0.782133,-1.260399,2.9463169999999996,-0.215268,0.9522120000000001,-0.216678,1.143504,-3.141028,1.963418,0.371838,0.874814,0.084964
388,-0.691854,-1.270952,3.10852,-0.188435,0.955383,-0.227452,1.3394549999999998,-3.1291860000000002,2.294852,0.216252,0.7525029999999999,0.30945300000000003
389,-0.566298,-1.278086,-2.983884,-0.154807,0.957465,-0.24350100000000002,1.2836610000000002,-2.870389,2.625279,0.045188,0.6283350000000001,0.321565
390,-0.417487,-1.283719,-2.767802,-0.11480599999999999,0.959076,-0.258827,1.239191,-2.847542,2.81081,-0.273683,0.01648,0.375069
391,-0.30072,-1.278015,-2.576476,-0.085489,0.9574450000000001,-0.27566,1.1962270000000002,-3.7663699999999998,2.189982,-0.26177,-0.144823,0.392085
392,-0.24817600000000004,-1.267433,-2.4294729999999998,-0.073379,0.9543370000000001,-0.289576,0.999733,-4.640964,1.828671,-0.09184400000000001,-0.37900500000000004,0.38558400000000004
393,-0.230568,-1.259295,-2.315024,-0.07004099999999999,0.951874,-0.298375,0.686377,-4.496582,1.425714,0.04285,-0.549424,0.521443
394,-0.242008,-1.253168,-2.237429,-0.07484600000000001,0.9499790000000001,-0.303211,0.48795900000000003,-4.055992,0.9078129999999999,0.033663,-0.677701,0.49847700000000006
395,-0.271549,-1.251543,-2.1918189999999997,-0.08418400000000001,0.94947,-0.30235500000000004,0.106438,-3.3608269999999996,0.554948,-0.044692,-0.667243,0.484911
396,-0.30794499999999997,-1.2565709999999999,-2.168462,-0.093682,0.9510360000000001,-0.294538,-0.27175900000000003,-2.72275,0.356004,-0.215294,-0.6220720000000001,0.47706400000000004
397,-0.35052300000000003,-1.2666549999999999,-2.158861,-0.102835,0.954105,-0.28126100000000004,-0.503473,-2.6065810000000003,0.277325,-0.019358,-0.55289,0.295848
398,-0.404388,-1.278559,-2.1583080000000003,-0.113352,0.9576020000000001,-0.264856,-0.578378,-2.754,0.178714,0.012856999999999999,-0.46773400000000004,0.20765
399,-0.470566,-1.289547,-2.173606,-0.12584,0.960709,-0.24738600000000002,-0.6069829999999999,-2.4250279999999997,-0.013119,-0.03096,-0.221925,0.030527999999999996
400,-0.534754,-1.299567,-2.196958,-0.136536,0.963442,-0.23051,-0.5509890000000001,-1.852038,-0.029485,-0.144745,0.148054,-0.07343
401,-0.5815739999999999,-1.3076889999999999,-2.218328,-0.142871,0.9655870000000001,-0.21732100000000001,-0.464794,-0.974462,-0.051372,-0.358319,0.5260060000000001,-0.5928899999999999
402,-0.6095619999999999,-1.30761,-2.2326669999999997,-0.14894000000000002,0.965566,-0.2133,0.23628200000000002,-0.636416,-0.214619,-0.28871199999999997,0.906718,-0.832858
403,-0.591033,-1.288851,-2.2071709999999998,-0.15503,0.960516,-0.231025,1.401053,-0.008672,-0.232925,-0.220764,0.34972600000000004,-0.824258
404,-0.537369,-1.258484,-2.1531599999999997,-0.157278,0.951626,-0.26395100000000005,1.7136220000000002,-0.063786,-0.041596,-0.106135,-0.22346100000000002,-0.6426189999999999
405,-0.502677,-1.236825,-2.101411,-0.157923,0.9447479999999999,-0.287245,1.0864479999999999,-1.1069639999999998,0.3036,0.072534,-0.47514399999999996,-0.156435
406,-0.49544399999999994,-1.229729,-2.055078,-0.159024,0.942398,-0.29427,0.46750600000000003,-2.277761,0.588129,0.055142,-0.32425,0.199391
407,-0.505541,-1.235854,-2.007529,-0.15918800000000002,0.9444290000000001,-0.287593,0.032549,-2.781616,0.959614,0.083978,0.777342,0.42406800000000006
408,-0.507008,-1.2421520000000001,-1.976525,-0.156719,0.9464809999999999,-0.282154,-0.327469,-0.502111,0.253425,0.15633699999999998,1.769095,0.511112
409,-0.49935799999999997,-1.261368,-1.9714669999999999,-0.145819,0.952508,-0.267327,-0.826765,0.068327,0.822842,0.606695,0.141929,0.24334
410,-0.476871,-1.266046,-1.9486849999999998,-0.137724,0.9539219999999999,-0.26657600000000004,0.274811,0.35420799999999997,0.038617,0.153883,-0.5728489999999999,0.8723350000000001
411,-0.505523,-1.271039,-1.9837200000000001,-0.142996,0.955408,-0.258351,-0.968108,-0.11573800000000001,-0.441616,-0.337778,-0.6846720000000001,0.5747260000000001
412,-0.600899,-1.285417,-2.056108,-0.159165,0.9595549999999999,-0.23220300000000002,-1.127713,-2.0608720000000003,-0.584449,-0.12858499999999998,0.11564,0.101298
413,-0.728406,-1.294439,-2.1342060000000003,-0.18162999999999999,0.9620559999999999,-0.20360999999999999,-0.954867,-2.43684,-0.48662,0.447759,0.36726,0.36285
414,-0.806207,-1.309774,-2.196818,-0.18623599999999998,0.9661270000000001,-0.178642,-1.348654,0.21075,0.29131599999999996,0.58713,0.33471599999999996,0.27410100000000004
415,-0.850593,-1.34504,-2.274559,-0.16825199999999998,0.974625,-0.147629,-2.117252,2.018202,0.770741,0.395425,0.276977,0.172898
416,-0.912956,-1.385905,-2.3746810000000003,-0.14546900000000001,0.9829559999999999,-0.11239600000000001,-1.982764,1.385867,1.076934,0.196464,0.110824,0.050125
417,-0.9716100000000001,-1.423102,-2.443893,-0.12151300000000001,0.9891129999999999,-0.082986,-1.248579,0.012241,1.0945040000000001,-0.023736,-0.151558,-0.075202
418,-1.0346879999999998,-1.444482,-2.49686,-0.108294,0.9920329999999999,-0.064343,-0.711388,-0.711572,0.486025,-0.13748,-0.222227,-0.08630700000000001
419,-1.123313,-1.45433,-2.574056,-0.104751,0.993225,-0.050276,-0.644788,-0.570503,0.049406,-0.064835,-0.25909499999999996,-0.172335
420,-1.23266,-1.458418,-2.678245,-0.105778,0.993692,-0.037196,-0.6835,-0.028794,-0.054108,0.036518,-0.136331,-0.20094800000000002
421,-1.380179,-1.461049,-2.8350009999999997,-0.107526,0.993984,-0.020748,-0.982671,0.5465869999999999,-0.094322,0.016553000000000002,-0.10763099999999999,-0.223896
422,-1.582622,-1.463349,-3.044546,-0.107216,0.994233,0.001268,-1.2339149999999999,0.092038,0.042306,0.11356300000000001,-0.102158,-0.114961
423,-1.8329389999999999,-1.459698,2.992858,-0.107064,0.993835,0.028727,-1.413502,-0.511143,-0.00945,0.15218399999999999,-0.055587,-0.045832
424,-2.083703,-1.447835,2.7534509999999996,-0.106852,0.99245,0.060177,-1.55609,-0.6778420000000001,-0.023051,0.166163,-0.043002,-0.045177999999999996
425,-2.288761,-1.42925,2.560046,-0.10623699999999998,0.989999,0.092795,-1.5720020000000001,-0.657547,-0.023188,0.235357,0.026114,-0.018622
426,-2.434525,-1.407405,2.4253560000000003,-0.10565899999999999,0.9866809999999999,0.12365799999999999,-1.424736,-0.647417,-0.020036,0.158668,0.053526,-0.164216
427,-2.5295229999999997,-1.387792,2.342355,-0.104554,0.983301,0.14893599999999999,-1.075518,-0.609064,-0.057170000000000006,0.050858,0.06368,-0.291697
428,-2.593116,-1.371134,2.286045,-0.103404,0.9801340000000001,0.169234,-0.9495399999999999,-0.250915,0.0458,-0.192205,0.256896,-0.35591
429,-2.6163540000000003,-1.361913,2.25717,-0.10397200000000001,0.9782629999999999,0.179404,-0.309195,0.46608299999999997,0.006625,-0.169344,0.128701,-0.24278899999999998
430,-2.576076,-1.360154,2.294179,-0.112033,0.9778969999999999,0.17652400000000001,0.42661400000000005,-0.26675,-0.649594,0.48674300000000004,0.045465,-0.100337
431,-2.4846340000000002,-1.362484,2.410217,-0.12629200000000002,0.978381,0.163752,0.896969,-1.281442,-0.9195409999999999,0.39503,0.434796,-0.050135
432,-2.432481,-1.36453,2.479098,-0.133353,0.9788020000000001,0.155426,0.25044299999999997,-0.418824,-0.29598,0.151603,0.582797,-0.32568400000000003
433,-2.404401,-1.365389,2.512899,-0.137099,0.978978,0.150998,0.432275,-0.254589,-0.232963,0.10285799999999999,0.36594699999999997,-0.432004
434,-2.318005,-1.3739620000000001,2.6065709999999997,-0.143455,0.980691,0.13289600000000001,1.27617,-0.243848,-0.453545,0.21276,0.251899,-0.259803
435,-2.151799,-1.386077,2.780033,-0.15352000000000002,0.982988,0.100802,1.820974,-0.187829,-0.5491560000000001,0.350267,0.159056,-0.074847
436,-1.950525,-1.395982,2.990545,-0.161521,0.984759,0.064463,1.9873040000000002,-0.466264,-0.32758400000000004,0.181251,-0.033877,-0.06890299999999999
437,-1.699285,-1.403648,-3.017068,-0.164985,0.9860629999999999,0.021315999999999998,2.582135,-1.39459,-0.192985,0.07566,-0.052515,-0.038498000000000004
438,-1.396226,-1.395211,-2.666562,-0.172015,0.984625,-0.030338,3.22533,-2.595446,-0.41128000000000003,0.18573299999999998,0.25969899999999996,0.06824
439,-1.1393,-1.369104,-2.337749,-0.181954,0.9797290000000001,-0.08377799999999999,3.335757,-3.4478519999999997,-0.194704,0.495965,0.454078,0.183311
440,-0.964367,-1.340643,-2.085889,-0.187441,0.9736309999999999,-0.130012,2.798064,-3.417103,0.30677,0.605318,0.48594799999999994,0.19091
441,-0.8344530000000001,-1.318275,-1.8953520000000001,-0.185112,0.9682860000000001,-0.167787,2.31723,-2.472122,0.702784,0.530205,0.444907,0.25111500000000003
442,-0.7129310000000001,-1.299348,-1.718132,-0.17536500000000002,0.963384,-0.202819,2.2991029999999997,-2.580054,1.0691959999999998,0.159908,0.31039,0.314422
443,-0.619997,-1.275369,-1.554298,-0.169163,0.956678,-0.23695500000000003,2.410847,-3.64232,1.018995,-0.040447000000000004,0.113925,0.310609
444,-0.566342,-1.244991,-1.4125459999999999,-0.171731,0.947393,-0.270094,2.463598,-4.117192,0.913149,-0.061713,-0.09432,0.27592300000000003
445,-0.52988,-1.214977,-1.2923040000000001,-0.176068,0.9373610000000001,-0.300582,2.206369,-3.6508339999999997,0.927847,0.204755,-0.151396,0.273056
446,-0.505893,-1.1887459999999999,-1.195553,-0.18066400000000002,0.927902,-0.32611999999999997,1.892555,-3.0942380000000003,0.803164,0.257431,-0.139664,0.306818
447,-0.49236499999999994,-1.163492,-1.1200290000000002,-0.187256,0.918192,-0.34907699999999997,1.7654459999999998,-2.638025,0.578433,0.286041,-0.130305,0.337801
448,-0.48366099999999995,-1.138096,-1.060561,-0.194993,0.9078370000000001,-0.371223,1.632167,-2.0404709999999997,0.44427700000000003,0.035829,-0.088974,0.27613000000000004
449,-0.465988,-1.118565,-1.006039,-0.19633299999999998,0.899474,-0.39038,1.234121,-1.308361,0.7225689999999999,-0.023866,-0.040877,0.23408400000000001
450,-0.43499099999999996,-1.109533,-0.94891,-0.187556,0.895491,-0.40362800000000004,0.793866,-0.8937719999999999,1.054384,-0.011739,-0.091063,0.226505
451,-0.400375,-1.109402,-0.89171,-0.173521,0.895432,-0.40998599999999996,0.363595,-0.807679,1.209365,0.044233,-0.233888,0.19526400000000002
452,-0.36786199999999997,-1.1164100000000001,-0.836149,-0.157841,0.8985299999999999,-0.409544,0.013811000000000002,-0.919744,1.298933,0.029925999999999998,-0.282869,0.23666199999999998
453,-0.339895,-1.128107,-0.782686,-0.142812,0.903603,-0.40386,-0.231961,-1.041251,1.2621200000000001,0.003454,-0.35624,0.272665
454,-0.31735399999999997,-1.1421459999999999,-0.7361439999999999,-0.129702,0.9095280000000001,-0.394884,-0.405589,-0.9153129999999999,1.0876940000000002,-0.019285,-0.33816199999999996,0.253374
455,-0.297456,-1.1578700000000002,-0.6977260000000001,-0.11761300000000001,0.91595,-0.38366500000000003,-0.576182,-0.556222,0.946105,-0.097444,-0.343319,0.240675
456,-0.277291,-1.178855,-0.6710189999999999,-0.10456700000000001,0.924169,-0.367388,-1.074285,-0.076188,0.680297,-0.149019,-0.35831199999999996,0.194628
457,-0.276787,-1.209511,-0.670802,-0.096592,0.935443,-0.340019,-1.7023220000000001,0.066149,0.262326,-0.120815,-0.28991999999999996,0.11605
458,-0.30092800000000003,-1.245808,-0.698689,-0.094641,0.9476540000000001,-0.304944,-1.903684,0.096698,-0.00938,-0.130854,0.003807,-0.107608
459,-0.335766,-1.278146,-0.736779,-0.095054,0.957483,-0.272375,-1.525039,0.0008640000000000001,-0.081388,-0.125863,0.673087,-0.49975
460,-0.373929,-1.2907,-0.7658119999999999,-0.100978,0.9610290000000001,-0.25734,-0.093486,-1.069108,-0.147998,-0.066442,1.21431,-0.808578
461,-0.38200100000000003,-1.276096,-0.737913,-0.10827200000000001,0.956889,-0.269513,1.148954,-1.7885360000000001,0.19809300000000002,-0.026112,0.380361,-0.7615850000000001
462,-0.371204,-1.252882,-0.682204,-0.11338499999999999,0.949889,-0.291292,1.587915,-2.405648,0.42948100000000006,0.295056,0.23152199999999998,-0.716246
463,-0.36664800000000003,-1.220041,-0.619013,-0.123177,0.9391139999999999,-0.320764,1.968263,-3.075657,0.353948,0.327462,0.5340159999999999,-0.372168
464,-0.372954,-1.205822,-0.5696680000000001,-0.13005,0.934133,-0.332384,-0.19481700000000002,-1.647389,0.6969989999999999,0.412109,0.886409,0.929491
465,-0.34571,-1.249166,-0.551531,-0.107118,0.9487209999999999,-0.297406,-2.308188,1.367987,1.301146,0.271959,-0.41457200000000005,0.892926
466,-0.272264,-1.289002,-0.49541999999999997,-0.074777,0.960558,-0.26783,-1.0967200000000001,0.316544,1.32057,0.133768,-0.44519200000000003,0.6943739999999999
467,-0.233091,-1.300843,-0.432338,-0.061599,0.963783,-0.259468,-0.182273,-1.628578,0.7771819999999999,-0.040177,-0.535469,0.44844799999999996
468,-0.24292600000000003,-1.308923,-0.411301,-0.062273,0.965907,-0.251281,-0.447664,-1.294701,0.097648,-0.122923,-0.288691,0.19151300000000002
469,-0.307228,-1.317899,-0.459046,-0.075666,0.968191,-0.23848699999999998,-0.653158,-0.644936,-0.775221,-0.06364700000000001,-0.042364,0.173118
470,-0.408989,-1.322524,-0.5615600000000001,-0.097719,0.9693379999999999,-0.22545500000000002,-0.685707,0.198598,-1.2380010000000001,0.035555,0.100333,0.161964
471,-0.499997,-1.327947,-0.6687609999999999,-0.115283,0.970657,-0.211025,-0.871185,0.864525,-0.8438399999999999,0.18442,0.37290999999999996,0.128399
472,-0.548762,-1.338241,-0.7368779999999999,-0.12021400000000002,0.973081,-0.19661900000000002,-0.8448459999999999,0.701068,-0.217468,0.29431599999999997,0.232196,0.157801
473,-0.590799,-1.352368,-0.776733,-0.120699,0.976239,-0.179957,-0.8049149999999999,-0.770464,0.11050399999999999,0.295001,0.13884200000000002,0.116068
474,-0.645926,-1.3678709999999998,-0.801471,-0.121305,0.9794809999999999,-0.16092599999999999,-0.78577,-1.788602,0.29354,0.13455,-0.044041000000000004,0.02114
475,-0.7067180000000001,-1.388789,-0.8330719999999999,-0.117526,0.983482,-0.13764500000000002,-1.1945370000000002,-1.1233440000000001,0.516295,0.179477,-0.042793,0.048442
476,-0.77927,-1.420075,-0.899423,-0.10550999999999999,0.988663,-0.10681099999999999,-1.666827,0.088769,0.701587,0.161357,-0.056,0.115097
477,-0.908391,-1.45423,-1.038367,-0.091691,0.9932139999999999,-0.071516,-1.8782580000000002,0.459409,0.637678,0.104768,-0.0201,0.11533900000000001
478,-1.153391,-1.4832379999999998,-1.2854510000000001,-0.079914,0.9961690000000001,-0.035439,-1.7543650000000002,-0.320412,0.540198,0.084248,-0.062911,0.083962
479,-1.523382,-1.4992530000000002,-1.6387369999999999,-0.071373,0.997442,-0.003387,-1.394724,-1.1636819999999999,0.38783,0.041801,-0.053854,0.012953999999999999
480,-1.903113,-1.501298,-1.99459,-0.065617,0.9975860000000001,0.022645,-1.1485450000000001,-1.15534,0.219692,0.028553,-0.043927,-0.062165
481,-2.208426,-1.4934049999999999,-2.282059,-0.062103,0.997007,0.04601,-1.100733,-0.8365379999999999,0.107454,0.05194,-0.015165000000000001,-0.21848
482,-2.4001810000000003,-1.480575,-2.461936,-0.060832000000000004,0.995933,0.066433,-0.907392,-0.452074,-0.03483,0.086039,-0.012336,-0.43298000000000003
483,-2.482638,-1.467902,-2.546005,-0.062878,0.994711,0.081193,-0.624693,0.42605600000000005,-0.099142,0.024411000000000002,-0.063498,-0.516953
484,-2.483724,-1.4626549999999998,-2.563043,-0.065982,0.994158,0.085392,0.0036829999999999996,0.8681969999999999,-0.124161,-0.020276,0.068189,-0.424946
485,-2.3876560000000002,-1.4666290000000002,-2.4793380000000003,-0.07116499999999999,0.9945790000000001,0.07579,0.636942,0.424307,-0.22278699999999999,-0.003573,0.12569,-0.22265500000000002
486,-2.234457,-1.474932,-2.324618,-0.075389,0.995409,0.058953,0.9642940000000001,-0.340588,-0.233407,0.018763,-0.023042,-0.212945
487,-1.962561,-1.4813450000000001,-2.0411099999999998,-0.08255,0.996002,0.034102999999999994,1.535253,-0.542946,-0.472714,-0.006058,-0.087326,-0.014434
488,-1.528096,-1.476758,-1.596211,-0.093801,0.995582,-0.004007999999999999,2.187745,-0.327258,-0.6308020000000001,-0.033305,-0.071219,0.027308
489,-1.089453,-1.446167,-1.1501,-0.110175,0.992244,-0.057547,3.084789,-0.228922,-0.9579479999999999,-0.256006,0.300969,0.13999
490,-0.7807850000000001,-1.3799270000000001,-0.8374379999999999,-0.133523,0.9818399999999999,-0.134761,4.434352,0.204213,-1.220405,-0.412101,0.755007,0.30012
491,-0.5860609999999999,-1.288411,-0.65013,-0.154114,0.960393,-0.232146,4.977133,0.889294,-1.185444,-0.348175,0.668482,0.47975
492,-0.503724,-1.206857,-0.570233,-0.171817,0.934502,-0.311744,3.357628,-0.665978,-0.8550690000000001,-0.283368,0.66433,0.381904
493,-0.515188,-1.1533930000000001,-0.534048,-0.199733,0.9141450000000001,-0.352767,2.446576,-2.981966,-0.578591,0.448223,0.742853,0.077697
494,-0.5307529999999999,-1.108552,-0.491482,-0.22573600000000002,0.8950540000000001,-0.38460500000000003,2.380603,-2.0735810000000003,-0.18176900000000001,0.591001,0.675487,-0.043557
495,-0.500637,-1.0687959999999999,-0.44173100000000004,-0.230958,0.8766219999999999,-0.42212700000000003,2.208771,-0.11413,0.130714,0.370729,0.569637,-0.013267
496,-0.46031700000000003,-1.035717,-0.391079,-0.226518,0.8602280000000001,-0.456833,1.980372,-0.315846,0.423138,-0.118926,-0.043791000000000004,0.295578
497,-0.432454,-1.005248,-0.34278200000000003,-0.22458699999999998,0.844295,-0.486545,1.8663459999999998,-0.8847659999999999,0.53737,0.062569,-0.12318,0.414814
498,-0.413943,-0.9800559999999999,-0.29496300000000003,-0.22402800000000003,0.830528,-0.509935,1.566841,-1.1272790000000001,0.704368,0.12180999999999999,-0.207008,0.42982600000000004
499,-0.39652,-0.959282,-0.261332,-0.22172600000000003,0.8187800000000001,-0.529562,1.062382,-0.35233200000000003,0.48620699999999994,0.11229000000000001,-0.45510200000000006,0.39791
500,-0.384204,-0.9522700000000001,-0.233163,-0.21733400000000003,0.8147340000000001,-0.537563,0.476426,-0.674955,0.6886939999999999,0.178394,-0.46282,0.42290900000000003
501,-0.379227,-0.951616,-0.20626,-0.21485300000000002,0.814354,-0.539133,0.238413,-0.9181370000000001,0.7033659999999999,0.193903,-0.5730970000000001,0.442255
502,-0.380252,-0.9549780000000001,-0.182782,-0.21438800000000002,0.816301,-0.536367,-0.000102,-1.044101,0.709339,0.168688,-0.641787,0.359014
503,-0.38124,-0.964377,-0.160201,-0.212054,0.821694,-0.5290100000000001,-0.325183,-0.8612559999999999,0.820066,0.12688,-0.6289140000000001,0.25505300000000003
504,-0.374857,-0.9826159999999999,-0.140158,-0.203151,0.831952,-0.516319,-0.8549969999999999,-0.253418,0.85511,0.014736,-0.658108,0.208473
505,-0.363475,-1.0132860000000001,-0.128099,-0.188099,0.848575,-0.49450900000000003,-1.5902100000000001,0.189122,0.8472709999999999,0.041737,-0.6244689999999999,0.30336199999999997
506,-0.358032,-1.0555139999999998,-0.12678,-0.17268599999999998,0.8701540000000001,-0.461531,-2.152952,0.197955,0.724757,0.053301,-0.591757,0.313246
507,-0.360874,-1.101612,-0.13516,-0.159653,0.8919379999999999,-0.423033,-2.192314,0.287208,0.550247,0.092087,-0.301743,0.270858
508,-0.366079,-1.141327,-0.1505,-0.149049,0.9091870000000001,-0.388797,-1.8327240000000002,0.506473,0.284354,0.074586,-0.2051,0.159564
509,-0.378515,-1.1736309999999999,-0.176566,-0.14294,0.922161,-0.35942399999999997,-1.639016,0.610206,0.016382,0.0074730000000000005,-0.034083999999999996,0.025608
510,-0.400163,-1.202433,-0.210525,-0.140279,0.932918,-0.33164,-1.52051,0.333054,-0.041187,-0.066341,0.215565,-0.218165
511,-0.432147,-1.228071,-0.23954299999999998,-0.140747,0.941842,-0.30516,-1.255694,-0.635814,0.128547,-0.054428,0.247687,-0.263733
512,-0.464163,-1.245678,-0.24918200000000001,-0.142996,0.9476129999999999,-0.285624,-0.607887,-1.374842,0.297457,-0.073008,0.200291,-0.20931
513,-0.475999,-1.2567959999999998,-0.23545100000000002,-0.14153,0.9511059999999999,-0.27453,-0.35026999999999997,-0.997576,0.566897,-0.149226,-0.17347200000000002,0.052987
514,-0.452908,-1.272779,-0.205244,-0.128485,0.9559200000000001,-0.26402,-0.675081,0.11886600000000001,0.839867,-0.204309,-0.275287,0.136259
515,-0.41715399999999997,-1.297268,-0.178232,-0.109445,0.962824,-0.246964,-1.061531,0.540999,0.8376950000000001,-0.23404499999999998,-0.365,0.096482
516,-0.392429,-1.320401,-0.153271,-0.094762,0.968815,-0.22895,-0.740395,-0.34678200000000003,0.664812,-0.19282,-0.084522,0.050498
517,-0.396359,-1.328768,-0.134576,-0.092528,0.9708540000000001,-0.22109,-0.086655,-1.591394,0.191342,-0.157579,0.333086,-0.040354
518,-0.448813,-1.314561,-0.130448,-0.10996700000000001,0.9673510000000001,-0.22834000000000002,1.344918,-3.779428,-0.526518,-0.076541,1.606654,-0.47779099999999997
519,-0.531432,-1.2518340000000001,-0.127356,-0.158913,0.9495610000000001,-0.270332,2.997706,-3.133364,-1.817964,1.289971,0.5623859999999999,-0.249931
520,-0.450691,-1.204631,-0.095457,-0.15595699999999998,0.933707,-0.322286,2.035781,5.513189,-0.380845,0.60455,-0.372825,0.109395
521,-0.347943,-1.181704,-0.088905,-0.12934400000000001,0.9252540000000001,-0.356616,0.628663,2.640025,-0.197917,-0.8396040000000001,-0.160545,0.283877
522,-0.339016,-1.168743,-0.071023,-0.130133,0.9202600000000001,-0.369035,0.397988,-1.365776,0.358944,0.6843319999999999,-0.358721,0.744859
523,-0.322139,-1.204546,-0.037005,-0.11337799999999999,0.9336770000000001,-0.33969499999999997,-2.445535,-0.324843,1.450835,0.9142049999999999,0.274194,0.48533999999999994
524,-0.293091,-1.2464819999999999,0.002384,-0.092064,0.9478690000000001,-0.305069,-0.9544020000000001,-0.730356,1.134895,0.48452,0.659995,-0.104401
525,-0.270923,-1.26147,0.042546,-0.081468,0.9525389999999999,-0.29331199999999996,-0.571006,-0.563925,0.741049,-0.300871,-0.067972,0.299187
526,-0.251814,-1.2735299999999998,0.073372,-0.07298099999999999,0.956141,-0.283669,-0.26655999999999996,-0.615678,0.36616,-0.435472,-0.399454,0.03547
527,-0.2643,-1.2688,0.07094199999999999,-0.077698,0.9547450000000001,-0.287097,0.362687,-0.399927,-0.319793,-0.38971,-0.43524399999999996,-0.077191
528,-0.301887,-1.266391,0.034061,-0.089115,0.954025,-0.286171,-0.33335,0.13642100000000001,-0.643672,-0.019969999999999998,-0.242691,-0.197151
529,-0.330943,-1.269829,-0.018846,-0.096325,0.95505,-0.280358,-0.339024,1.6388169999999997,-0.7278899999999999,0.066982,-0.27225,-0.163627
530,-0.33681,-1.269004,-0.06944700000000001,-0.098229,0.9548049999999999,-0.280531,-0.126081,2.244256,-0.736792,0.062828,-0.259737,-0.084215
531,-0.347556,-1.261818,-0.118979,-0.103572,0.9526450000000001,-0.285903,0.23888,1.431724,-0.854979,0.052348,-0.1959,-0.088761
532,-0.370256,-1.244774,-0.160414,-0.11589300000000001,0.9473239999999999,-0.298573,0.802004,0.5673279999999999,-0.962101,0.090625,-0.244306,-0.095592
533,-0.392706,-1.213768,-0.192388,-0.133746,0.93694,-0.322887,1.496421,0.34729699999999997,-1.151385,0.09711,-0.260319,0.003215
534,-0.418156,-1.1716469999999999,-0.22320399999999999,-0.157815,0.921392,-0.35515,1.881837,0.022591999999999998,-1.536042,-0.06742000000000001,-0.151052,0.21785100000000002
535,-0.463208,-1.110641,-0.260256,-0.198427,0.895984,-0.397291,2.7963419999999997,-0.9203620000000001,-2.281542,-0.14897,0.053571,0.360425
536,-0.5184840000000001,-1.028726,-0.29123699999999997,-0.25566700000000003,0.856643,-0.44810500000000003,3.5228059999999997,-1.60614,-2.709287,-0.194208,0.23121799999999998,-0.019943000000000002
537,-0.5611109999999999,-0.941393,-0.30754899999999996,-0.313243,0.808379,-0.498399,3.3033120000000005,-1.065181,-2.469027,-0.256627,1.090867,-0.628203
538,-0.571851,-0.886927,-0.331694,-0.341922,0.775134,-0.531278,1.050999,0.8348270000000001,-1.73837,0.085376,1.229474,-0.191592
539,-0.578018,-0.8589370000000001,-0.345578,-0.35690900000000003,0.757149,-0.547122,1.053384,-0.24843099999999999,-0.974255,0.020727000000000002,0.7670819999999999,0.171511
540,-0.584385,-0.8286459999999999,-0.349152,-0.372871,0.737017,-0.563714,1.1917,0.062575,-0.814523,-0.084038,0.324919,0.271081
541,-0.577383,-0.8117979999999999,-0.346724,-0.37564000000000003,0.725525,-0.576635,0.40373000000000003,0.372571,-0.13248900000000002,-0.011125,-0.141861,0.01824
542,-0.56429,-0.81622,-0.346462,-0.366338,0.728562,-0.578786,-0.493997,0.87595,0.23661,0.051916,-0.292313,-0.040873
543,-0.5467310000000001,-0.8355319999999999,-0.352091,-0.348738,0.741653,-0.5730029999999999,-1.177362,1.181165,0.42586199999999996,0.11570599999999999,-0.40889000000000003,0.038518000000000004
544,-0.529466,-0.870409,-0.361008,-0.32552600000000004,0.764592,-0.556265,-1.915175,1.1610260000000001,0.773247,0.15568099999999999,-0.490651,0.22546999999999998
545,-0.5147930000000001,-0.920377,-0.367492,-0.298131,0.79583,-0.527041,-2.4652580000000004,0.798772,1.264456,0.168828,-0.472649,0.293597
546,-0.5097470000000001,-0.983324,-0.36632,-0.27045399999999997,0.8323450000000001,-0.483795,-2.83418,-0.11367999999999999,1.7277240000000003,0.127448,-0.5111319999999999,0.33169499999999996
547,-0.5007590000000001,-1.05223,-0.35329,-0.23795100000000002,0.8685299999999999,-0.43478100000000003,-2.8788270000000002,0.074526,2.119209,0.114766,-0.661667,0.46328400000000003
548,-0.470909,-1.127994,-0.32429600000000003,-0.19439700000000001,0.9035549999999999,-0.381837,-3.224064,0.131504,2.554695,0.190628,-0.746694,0.361039
549,-0.431205,-1.2172459999999998,-0.271808,-0.144713,0.938149,-0.314538,-3.7391959999999997,-1.039258,3.006592,0.467817,-0.699761,0.171868
550,-0.37956799999999996,-1.304478,-0.178055,-0.097514,0.9647459999999999,-0.24444899999999997,-3.0886720000000003,-2.142651,2.917478,0.427622,-0.760355,0.06312899999999999
551,-0.28108099999999997,-1.365587,-0.038869,-0.056525,0.979018,-0.195775,-1.944611,-1.5134319999999999,2.282661,0.30767,-0.919341,-0.036311
552,-0.175816,-1.399045,0.095837,-0.029894,0.9852870000000001,-0.168273,-0.931017,-1.276713,1.082347,-0.288664,-0.144573,-0.14068699999999998
553,-0.199928,-1.389061,0.080185,-0.035894,0.983532,-0.177136,1.3781219999999998,-0.042520999999999996,-1.33331,-0.7691140000000001,0.443287,-0.064487
554,-0.395374,-1.346523,-0.11193800000000001,-0.08565700000000001,0.9749559999999999,-0.20524099999999998,1.9282139999999999,-0.9942979999999999,-1.9542259999999998,-2.139486,1.5492290000000002,-0.224477
555,-0.49382299999999996,-1.268972,-0.12848299999999999,-0.140901,0.9547959999999999,-0.261747,4.427834,-5.725755,-2.380424,1.684602,2.1797560000000002,-0.132799
556,-0.36288200000000004,-1.1812770000000001,-0.081005,-0.134797,0.925092,-0.355014,3.086218,12.338844,-0.33418400000000004,1.814134,0.192126,0.801074
557,-0.201045,-1.1611770000000001,-0.082735,-0.07952999999999999,0.917272,-0.390239,0.8992479999999999,1.974537,-0.7752180000000001,-1.046462,-1.173498,0.691203
558,-0.321094,-1.1185399999999999,-0.148293,-0.137918,0.8994629999999999,-0.41466099999999995,1.524265,-4.398954,-2.127873,0.8843479999999999,0.184674,-0.21252100000000002
559,-0.41247399999999995,-1.1003969999999998,-0.205671,-0.181694,0.891388,-0.415229,-0.438959,-0.046755,-0.8311139999999999,0.756371,0.13588,-0.10929200000000001
560,-0.401378,-1.1093620000000002,-0.223716,-0.173947,0.895415,-0.409847,-0.21716999999999997,1.356806,-0.107109,-0.10863099999999999,0.280672,-0.381596
561,-0.38914499999999996,-1.097322,-0.222775,-0.172998,0.88999,-0.421889,0.969584,0.318977,-0.273746,0.06665900000000001,-0.059789,0.1631
562,-0.384038,-1.063192,-0.22144499999999998,-0.18212,0.8739110000000001,-0.45067799999999997,1.970586,0.014299000000000001,-0.8720450000000001,0.064063,-0.054728,0.195734
563,-0.400571,-1.0057209999999999,-0.23087600000000003,-0.20880700000000002,0.844548,-0.49309,2.909626,-0.616917,-1.54193,-0.1327,0.047755,0.30353
564,-0.423545,-0.9298870000000001,-0.23905,-0.24574400000000002,0.801553,-0.54509,3.5404709999999997,-0.998559,-1.753883,-0.175734,0.073905,0.21900999999999998
565,-0.461261,-0.8552290000000001,-0.241635,-0.29199200000000003,0.754721,-0.587484,3.237529,-2.072771,-1.65421,-0.060455999999999996,0.171869,0.17868499999999998
566,-0.49894399999999994,-0.788566,-0.247511,-0.337276,0.709344,-0.6189319999999999,2.442929,-1.333795,-1.68314,0.151897,0.639213,-0.403422
567,-0.515238,-0.7513770000000001,-0.260341,-0.36007100000000003,0.682645,-0.63588,0.9487620000000001,0.400861,-1.019609,-0.551596,0.653826,0.3378
568,-0.5028739999999999,-0.734554,-0.263148,-0.357666,0.6702560000000001,-0.650255,0.534396,0.369367,-0.244797,-0.384872,0.022004,0.348878
569,-0.511584,-0.7269720000000001,-0.264447,-0.365794,0.66461,-0.6515270000000001,0.130509,-0.74763,-0.28037,0.040629000000000005,0.267915,-0.089409
570,-0.531149,-0.72824,-0.272997,-0.37804299999999996,0.665557,-0.643519,-0.461192,-0.48313,-0.11179000000000001,-0.234918,-0.141464,0.018962
571,-0.535539,-0.749093,-0.280848,-0.3737,0.680975,-0.629779,-1.372026,0.435827,0.504512,-0.085391,-0.212454,0.343387
572,-0.517414,-0.784748,-0.286065,-0.349986,0.706647,-0.614947,-1.7159810000000002,1.41669,0.8661840000000001,0.033138,-0.180799,0.42467
573,-0.48452399999999995,-0.8251959999999999,-0.28525700000000004,-0.315996,0.734681,-0.600325,-1.784327,1.590873,1.055627,0.137575,-0.247468,0.395369
574,-0.454295,-0.868179,-0.27924699999999997,-0.28357899999999997,0.763154,-0.580671,-1.876839,1.0846360000000002,1.19343,0.06803300000000001,-0.470521,0.296827
575,-0.43395,-0.9160010000000001,-0.27261599999999997,-0.256058,0.793172,-0.55255,-2.2005049999999997,0.5657300000000001,1.2367,-0.008744,-0.543737,0.212096
576,-0.42931499999999995,-0.972088,-0.27149,-0.234587,0.8260639999999999,-0.512432,-2.757896,-0.078691,1.1695389999999999,0.061628999999999996,-0.529067,-0.08478200000000001
577,-0.44091499999999995,-1.0383440000000002,-0.27624,-0.21664699999999998,0.8615649999999999,-0.459096,-3.2191009999999998,-0.395448,1.3953229999999999,0.17799700000000002,-0.298439,-0.12246199999999999
578,-0.441567,-1.1122049999999999,-0.274386,-0.189184,0.8966770000000001,-0.40022399999999997,-3.31673,0.066896,1.742288,0.199377,-0.17602,-0.184874
579,-0.421329,-1.1847860000000001,-0.255067,-0.153977,0.9264180000000001,-0.343569,-3.0094090000000002,0.075538,1.9783650000000002,0.19081199999999998,0.371448,-0.147519
580,-0.365917,-1.252237,-0.197397,-0.11206400000000001,0.9496879999999999,-0.29246300000000003,-2.53839,0.155221,2.4216599999999997,0.224201,-0.084789,0.080778
581,-0.24317600000000003,-1.315181,-0.07725900000000001,-0.060881,0.967508,-0.245402,-2.510232,0.552203,2.4886459999999997,-0.136751,-0.271692,0.385981
582,-0.104649,-1.371567,0.045932,-0.020674,0.9802190000000001,-0.196831,-2.474121,1.099708,1.4050200000000002,-0.6441979999999999,-0.334254,0.785515
583,0.025003,-1.411562,0.149084,0.003964,0.987349,-0.15851300000000001,-1.4804469999999998,1.495117,0.763043,-0.800351,0.24391300000000002,0.257131
584,-0.085359,-1.390169,0.064708,-0.015316,0.9837309999999999,-0.178992,3.385535,-4.574428,-1.9522709999999999,-0.934681,0.552081,0.161338
585,-0.355547,-1.300306,-0.085353,-0.093015,0.9636399999999999,-0.250492,4.003233,-7.0299380000000005,-2.7406349999999997,-0.061342999999999995,2.256178,-1.119305
586,-0.5360090000000001,-1.174024,-0.12205,-0.19735999999999998,0.9223129999999999,-0.332246,6.285401,-3.6008120000000003,-3.121126,1.218005,0.616352,-0.455031
587,-0.365322,-1.123271,-0.112042,-0.154595,0.9015209999999999,-0.404179,-0.027143,13.791895000000002,-0.038388,1.499657,-0.559739,1.516636
588,-0.15323599999999998,-1.1439840000000001,-0.094101,-0.06318700000000001,0.9102899999999999,-0.409121,-0.478088,3.52509,0.537776,-0.787933,-0.000317,0.246401
589,-0.25003600000000004,-1.124197,-0.11008599999999999,-0.106869,0.9019209999999999,-0.41847,0.747938,-6.13659,-0.616324,0.453838,0.541255,-0.24370100000000003
590,-0.350437,-1.134603,-0.120446,-0.145045,0.906367,-0.396814,-0.9347799999999999,-3.0095110000000003,0.185105,0.115183,0.634679,-0.218741
591,-0.345611,-1.1463139999999998,-0.10754200000000001,-0.139523,0.9112520000000001,-0.387495,-0.286613,0.7696930000000001,0.520211,-0.002537,0.317782,-0.203173
592,-0.30595100000000003,-1.155842,-0.092701,-0.121428,0.915135,-0.38442600000000005,-0.36169,1.20747,0.332187,-0.142274,-0.332279,-0.032337
593,-0.313342,-1.1612,-0.09997400000000001,-0.122753,0.9172819999999999,-0.378848,-0.205423,-0.752706,-0.317961,0.14541199999999999,-0.381988,-0.102292
594,-0.356232,-1.156195,-0.128432,-0.140483,0.915277,-0.37753400000000004,0.133875,-0.45498500000000003,-0.738989,0.049846,-0.185907,-0.396773
595,-0.37053200000000003,-1.148382,-0.162959,-0.148453,0.9121020000000001,-0.382141,0.158369,1.612867,-0.798083,-0.089585,-0.13408699999999998,-0.314285
596,-0.35026,-1.133205,-0.188648,-0.14540999999999998,0.905775,-0.39803,0.754373,2.222324,-0.811793,0.011773,-0.210188,-0.015102
597,-0.338327,-1.105543,-0.21010900000000002,-0.148911,0.893708,-0.42321499999999995,1.369923,0.923084,-0.911582,-0.023025999999999998,-0.11546400000000001,0.282926
598,-0.362647,-1.065741,-0.227665,-0.171648,0.8751479999999999,-0.45238599999999995,1.885979,-1.278641,-1.142301,0.006319,0.016774,0.340142
599,-0.41372299999999995,-1.014679,-0.239569,-0.21222399999999997,0.849311,-0.483354,2.472234,-2.2484610000000003,-1.279037,0.032369,0.113167,0.42048800000000003
600,-0.45524899999999996,-0.954893,-0.240312,-0.25400500000000004,0.8162520000000001,-0.518859,2.889137,-1.936293,-1.384416,-0.24067,0.5643630000000001,0.017394
601,-0.47480900000000004,-0.886697,-0.239195,-0.288919,0.774989,-0.562066,2.781037,-0.325433,-1.597674,-0.41655600000000004,0.656316,0.055031
602,-0.47948,-0.844894,-0.25198899999999996,-0.30622699999999997,0.747901,-0.588956,1.1609,0.391482,-0.989273,0.096831,0.335885,0.239056
603,-0.47320100000000004,-0.816541,-0.260731,-0.31206500000000004,0.7287819999999999,-0.609502,1.053017,0.878526,-0.94899,-0.046105,0.390359,0.112569
604,-0.45840699999999995,-0.801616,-0.270671,-0.307793,0.718481,-0.623737,0.245623,0.9974120000000001,-0.40998900000000005,0.161645,0.15726700000000002,0.169422
605,-0.451549,-0.801127,-0.275733,-0.303661,0.718141,-0.62615,-0.261011,0.41723999999999994,-0.072021,0.129696,-0.095613,0.093481
606,-0.44191199999999997,-0.816922,-0.282186,-0.29272600000000004,0.729042,-0.618715,-1.158561,0.9494229999999999,0.28635900000000003,-0.039580000000000004,-0.49744499999999997,0.121492
607,-0.42099899999999996,-0.85103,-0.289225,-0.2694,0.7519600000000001,-0.601647,-1.901268,1.484381,0.615907,0.062201,-0.374091,0.184335
608,-0.391276,-0.8985639999999999,-0.292642,-0.23749099999999998,0.782434,-0.575669,-2.412096,1.646665,0.967849,0.08919099999999999,-0.38613200000000003,0.23786999999999997
609,-0.360556,-0.956208,-0.289905,-0.203429,0.8170109999999999,-0.539546,-2.7960529999999997,1.176288,1.181551,-0.028107999999999998,-0.392404,0.26264499999999996
610,-0.342008,-1.021067,-0.285025,-0.17522100000000002,0.852666,-0.49219700000000005,-3.117884,0.430163,1.302036,-0.007701,-0.314382,0.032114
611,-0.334771,-1.0915569999999999,-0.274188,-0.151497,0.887346,-0.43550600000000006,-3.2771809999999997,-0.43067700000000003,1.4643959999999998,0.078423,-0.034227,-0.206202
612,-0.3384,-1.16192,-0.255352,-0.13198800000000002,0.917568,-0.37503000000000003,-3.077994,-1.358536,1.5588440000000001,0.18951300000000001,0.188191,-0.402756
613,-0.341169,-1.224381,-0.22195,-0.113602,0.9405959999999999,-0.319959,-2.497018,-1.797896,1.7044700000000002,0.20015,0.175402,-0.5042439999999999
614,-0.290717,-1.279272,-0.14338,-0.082384,0.957807,-0.275352,-2.138452,-0.751007,2.261109,0.085802,0.052478,-0.024956
615,-0.181058,-1.327236,-0.016673,-0.043426,0.9704860000000001,-0.237217,-1.670563,-0.877301,2.003892,-0.390992,-0.48373,0.301029
616,-0.11105699999999999,-1.360084,0.085367,-0.023180000000000003,0.9778819999999999,-0.207866,-1.3849,-1.7295619999999998,0.9686680000000001,-0.659834,-0.874351,0.722804
617,-0.12273699999999999,-1.383532,0.10381800000000001,-0.022793,0.982517,-0.18476900000000002,-1.0725559999999998,-0.941298,-0.089836,-0.48517299999999997,-0.653492,0.968888
618,-0.196772,-1.402382,0.018042,-0.03277,0.9858520000000001,-0.164383,-0.821276,0.962691,-0.922668,-0.479879,0.305332,-0.145309
619,-0.382883,-1.3788200000000002,-0.15701700000000002,-0.071281,0.9816290000000001,-0.176982,1.7745360000000001,-2.4798560000000003,-2.477888,0.048514999999999996,1.6532740000000001,-1.744603
620,-0.623049,-1.307384,-0.263681,-0.15193299999999998,0.965507,-0.211452,2.527164,-7.212788000000001,-2.087348,1.428223,1.5737079999999999,0.468105
621,-0.46195299999999995,-1.292942,-0.20214000000000001,-0.122251,0.9616459999999999,-0.245542,-0.182615,11.723034,0.9203020000000001,0.7164590000000001,1.06199,-0.020938
622,-0.203061,-1.2990549999999998,-0.12078399999999999,-0.054129,0.963305,-0.262894,1.0168620000000002,3.5428260000000003,1.466864,-0.5011680000000001,0.386945,-0.031585
623,-0.205143,-1.257428,-0.085371,-0.062796,0.9513010000000001,-0.3018,1.451542,-2.401226,-0.5521050000000001,-0.074411,0.310677,-0.35522800000000004
624,-0.262811,-1.250683,-0.111046,-0.081751,0.9492,-0.303869,0.19438699999999998,-1.576292,-0.364322,0.329676,0.49089399999999994,0.08856699999999999
625,-0.284065,-1.240531,-0.11095999999999999,-0.090887,0.9459559999999999,-0.311298,0.5400739999999999,-0.7288939999999999,0.008748,0.375722,0.326871,0.326435
626,-0.284621,-1.223976,-0.09972400000000001,-0.095444,0.940458,-0.326233,1.277249,-0.68598,-0.173097,0.028183999999999997,0.194323,0.03888
627,-0.30609699999999995,-1.1723219999999999,-0.097243,-0.116923,0.9216540000000001,-0.369976,3.203964,-1.207553,-1.146007,-0.18044000000000002,-0.213265,0.479916
628,-0.345125,-1.0959459999999999,-0.122768,-0.15467899999999998,0.8893610000000001,-0.43024399999999996,3.2920800000000003,-0.698558,-1.968575,-0.180145,-0.7784909999999999,0.423256
629,-0.401835,-1.021484,-0.154909,-0.204197,0.852884,-0.480512,3.316921,-1.789711,-2.178511,0.08583500000000001,-0.7367640000000001,0.334776
630,-0.447205,-0.9459040000000001,-0.173068,-0.252986,0.811026,-0.527479,2.971591,-1.192032,-1.894337,0.382411,-0.8135439999999999,0.23075700000000002
631,-0.469629,-0.8887139999999999,-0.195941,-0.285296,0.776262,-0.56216,1.796861,0.03052,-1.845357,0.244662,-0.9806229999999999,0.365489
632,-0.49029700000000004,-0.84683,-0.222254,-0.311898,0.749184,-0.58433,1.372104,-0.098521,-1.7082220000000001,0.276391,-0.919991,0.556345
633,-0.5133800000000001,-0.8109810000000001,-0.247626,-0.33828,0.724963,-0.599995,1.043923,-0.308988,-1.538261,0.378655,-0.729587,0.545491
634,-0.535867,-0.782099,-0.269179,-0.362228,0.70477,-0.609991,0.729698,-0.382558,-1.2498049999999998,0.261841,-0.572156,0.266302
635,-0.5564520000000001,-0.7686890000000001,-0.28823899999999997,-0.37966500000000003,0.6951930000000001,-0.6103770000000001,-0.155649,-0.28574499999999997,-0.717729,0.222194,-0.459338,0.142817
636,-0.568647,-0.783536,-0.306475,-0.38148000000000004,0.705789,-0.5969369999999999,-1.44156,0.342423,0.21572399999999997,-0.241537,0.529684,-0.033464
637,-0.556582,-0.8244870000000001,-0.318816,-0.358672,0.7341989999999999,-0.576459,-2.178204,1.429732,0.9377120000000001,-0.23253000000000001,0.530708,-0.27695
638,-0.536037,-0.87435,-0.323882,-0.327633,0.767127,-0.5515180000000001,-2.212216,1.1300270000000001,1.323487,-0.223423,0.6755,-0.37932899999999997
639,-0.497906,-0.92716,-0.316548,-0.286603,0.7999189999999999,-0.527245,-2.128632,1.889525,1.5281959999999999,-0.140826,0.5342180000000001,-0.47237399999999996
640,-0.458125,-0.9747129999999999,-0.30384099999999997,-0.24829099999999998,0.827541,-0.503514,-1.8576650000000001,0.9774889999999999,1.333636,-0.041382,0.363209,-0.546794
641,-0.448219,-1.022095,-0.289358,-0.226032,0.853203,-0.47005699999999995,-2.085043,-0.771623,1.512683,0.237598,-0.146064,-0.573095
642,-0.456312,-1.076274,-0.26509299999999997,-0.209132,0.8801950000000001,-0.42604899999999996,-2.14312,-1.7060349999999997,1.8702599999999998,0.255717,-0.23542,-0.32237899999999997
643,-0.457229,-1.12665,-0.22714299999999998,-0.18969,0.9029780000000001,-0.385548,-1.685517,-1.7405979999999999,1.8585459999999998,0.27370500000000003,-0.256585,-0.182354
644,-0.42147700000000005,-1.1751,-0.167949,-0.15769,0.9227280000000001,-0.351716,-2.056254,-0.164735,2.365615,0.207373,-0.103057,0.32664499999999996
645,-0.350351,-1.250043,-0.109536,-0.10821199999999999,0.948998,-0.296125,-3.61745,1.0800450000000001,2.252702,-0.42831800000000003,-0.116524,0.6256229999999999
646,-0.291608,-1.326156,-0.057107000000000005,-0.069631,0.970225,-0.23197600000000002,-2.9565740000000003,-0.175609,1.604107,-0.549021,-0.6285189999999999,0.165143
647,-0.321937,-1.355558,-0.037313,-0.067576,0.976925,-0.202602,0.406188,-4.818383,-0.16747599999999999,-0.729574,-0.384824,0.7718
648,-0.494205,-1.3087280000000001,-0.095685,-0.12288699999999998,0.9658559999999999,-0.228075,1.7640639999999999,-4.38825,-1.8153549999999998,0.22167199999999998,0.35282399999999997,0.515733
649,-0.595639,-1.266793,-0.17083399999999999,-0.16794,0.9541459999999999,-0.24779,1.298469,-0.937427,-2.30907,0.539736,3.201372,-2.457334
650,-0.6265430000000001,-1.194869,-0.174519,-0.21526700000000001,0.930167,-0.29739899999999997,2.746648,-0.600229,-1.5772680000000001,0.5814020000000001,2.943337,-0.760935
651,-0.524158,-1.17391,-0.16150899999999999,-0.19346,0.922269,-0.33465,1.003081,7.704885000000001,0.14218,-0.03356,-0.341489,-0.30780599999999997
652,-0.377749,-1.1485670000000001,-0.128512,-0.151143,0.912178,-0.38090100000000005,0.8758819999999999,2.815958,-0.185729,-0.9726049999999999,0.0008470000000000001,-0.34129699999999996
653,-0.427476,-1.136687,-0.144761,-0.174371,0.9072450000000001,-0.382753,0.218164,-3.223077,-0.41759300000000005,0.518548,0.44312700000000005,0.049562
654,-0.475408,-1.155946,-0.146278,-0.184477,0.915177,-0.358354,-1.389634,-1.329232,0.761953,0.09322899999999999,0.089309,0.084245
655,-0.48672200000000004,-1.187969,-0.149491,-0.174717,0.9276120000000001,-0.330163,-1.378734,-0.28452,0.567343,0.004002,-0.14003,0.10836099999999999
656,-0.515,-1.216952,-0.16789300000000001,-0.170665,0.938048,-0.301559,-1.5455860000000001,-0.605798,0.336921,0.09788,-0.24430700000000002,0.20005699999999998
657,-0.565669,-1.252602,-0.208261,-0.16768,0.949802,-0.26411599999999996,-2.010424,-0.728982,0.37656100000000003,0.24357800000000002,-0.313144,0.125352
658,-0.638426,-1.2903850000000001,-0.266371,-0.164922,0.960942,-0.222237,-2.059974,-0.8438209999999999,0.366748,0.344503,-0.356099,0.190117
659,-0.723507,-1.330242,-0.346204,-0.157717,0.9712059999999999,-0.178556,-2.285282,-0.056274,0.48487399999999997,0.406039,-0.361129,0.118604
660,-0.8347969999999999,-1.367794,-0.46775,-0.149422,0.979466,-0.13534300000000002,-2.209279,0.46431400000000006,0.235842,0.20859499999999997,-0.253025,-0.143618
661,-1.00518,-1.391766,-0.638519,-0.150336,0.984017,-0.095434,-1.895575,-0.633491,-0.15900699999999998,0.018806,-0.10839100000000002,-0.30694099999999996
662,-1.2273370000000001,-1.401114,-0.8375540000000001,-0.159001,0.9856379999999999,-0.056864,-1.651872,-1.526972,-0.441375,0.170994,-0.114301,-0.28919
663,-1.4130040000000001,-1.3941700000000001,-1.0078040000000001,-0.173521,0.984442,-0.027610000000000003,-1.129224,-0.293594,-0.8409559999999999,0.221067,-0.12038299999999999,-0.263085
664,-1.4991430000000001,-1.377691,-1.102889,-0.191408,0.9814129999999999,-0.013739,-0.531343,0.43541199999999997,-0.915694,0.18799000000000002,-0.108412,-0.128855
665,-1.516289,-1.359361,-1.1149950000000002,-0.20954499999999998,0.9777309999999999,-0.011433,0.24829,-0.623854,-0.9633700000000001,0.268764,-0.20281300000000002,-0.044048000000000004
666,-1.477269,-1.338443,-1.0577459999999999,-0.22925500000000001,0.9731270000000001,-0.021504,0.936809,-1.0458479999999999,-0.991135,0.283485,-0.255537,-0.063197
667,-1.410577,-1.313397,-0.9505440000000001,-0.251301,0.9670549999999999,-0.040611,1.7959150000000002,-2.337173,-1.1501219999999999,0.054798,0.183473,0.126472
668,-1.3180479999999999,-1.282027,-0.806158,-0.275721,0.9585950000000001,-0.071211,2.425618,-2.2192540000000003,-1.0817809999999999,0.15499300000000002,0.531349,0.134443
669,-1.215256,-1.2526959999999998,-0.6561680000000001,-0.293198,0.949831,-0.10887100000000001,2.599764,-1.7601189999999998,-0.434879,0.21431,1.37161,0.199599
670,-1.088616,-1.230942,-0.5076510000000001,-0.29534,0.9428030000000001,-0.154576,2.736341,0.215414,0.11901700000000001,0.022391,1.424506,0.29073000000000004
671,-0.9273610000000001,-1.204903,-0.365975,-0.28623899999999997,0.9338040000000001,-0.21465,2.726913,1.696218,0.37556300000000004,-0.037125,0.730106,0.30946799999999997
672,-0.781673,-1.17937,-0.23299499999999998,-0.268758,0.924366,-0.270768,2.5585139999999997,0.23788499999999999,0.780044,0.24460300000000001,0.8404809999999999,0.04451
673,-0.721666,-1.1603709999999998,-0.12729400000000002,-0.263592,0.9169510000000001,-0.29953,1.834775,-2.857723,0.8537309999999999,0.513714,0.719813,-0.248536
674,-0.7117640000000001,-1.1473959999999999,-0.043146,-0.268362,0.911697,-0.311109,1.4463540000000001,-3.466189,0.972506,0.48876000000000003,0.7887270000000001,-0.013354
675,-0.684083,-1.147575,0.05946900000000001,-0.259546,0.9117709999999999,-0.318291,1.2792649999999999,-3.275947,2.02543,0.400934,0.9630620000000001,0.345894
676,-0.63785,-1.1579840000000001,0.189051,-0.238894,0.9159959999999999,-0.322303,1.257339,-3.8860360000000003,2.4982130000000002,0.123949,0.808979,0.484306
677,-0.5810930000000001,-1.164233,0.33939600000000003,-0.21708000000000002,0.918485,-0.330545,1.517182,-4.055956,2.674366,-0.234596,0.130633,0.47475600000000007
678,-0.523367,-1.167027,0.48223999999999995,-0.196364,0.919587,-0.340294,1.167442,-3.4831190000000003,2.249241,-0.154298,-0.400483,0.361001
679,-0.497115,-1.171681,0.584517,-0.185321,0.9214049999999999,-0.341566,0.5225069999999999,-3.46895,1.6636060000000001,0.088519,-0.486621,0.34336700000000003
680,-0.509035,-1.179548,0.652031,-0.185841,0.924434,-0.332993,0.17102699999999998,-3.8555269999999995,1.140354,0.202046,-0.43529799999999996,0.454682
681,-0.549904,-1.187665,0.695113,-0.195363,0.927499,-0.318713,0.003019,-4.088925,0.779488,0.18016500000000002,-0.40223000000000003,0.539737
682,-0.606364,-1.1952690000000001,0.719341,-0.209011,0.930314,-0.301377,-0.1181,-3.7954339999999998,0.483437,0.047527999999999994,-0.41490299999999997,0.520005
683,-0.6654869999999999,-1.2019520000000001,0.7286520000000001,-0.22261,0.932745,-0.283603,-0.186496,-3.089107,0.264137,-0.089341,-0.46124799999999994,0.4276
684,-0.714867,-1.208772,0.730333,-0.23216199999999998,0.935182,-0.267459,-0.254246,-2.281301,0.24126399999999998,-0.030594999999999997,-0.5602729999999999,0.188068
685,-0.751877,-1.214329,0.7308319999999999,-0.23834499999999997,0.9371360000000001,-0.254886,-0.169818,-1.627154,0.151285,-0.035489,-0.510881,0.079211
686,-0.7762939999999999,-1.217655,0.730809,-0.242312,0.938291,-0.246765,-0.097428,-1.000821,0.100781,-0.124555,-0.283262,-0.20253
687,-0.790602,-1.220867,0.732045,-0.243675,0.9393969999999999,-0.241152,-0.11862,-0.684546,0.14723,-0.181969,-0.071385,-0.434278
688,-0.8070609999999999,-1.223684,0.7290760000000001,-0.245698,0.9403590000000001,-0.235277,-0.057502,-0.781038,-0.017794,-0.109404,0.07030700000000001,-0.642744
689,-0.828398,-1.215916,0.73678,-0.256037,0.937688,-0.23491399999999998,0.686821,-1.843564,-0.284698,0.241999,0.39306199999999997,-0.753017
690,-0.831043,-1.197355,0.775832,-0.269468,0.931077,-0.245927,1.34019,-1.8209349999999997,-0.116725,0.153837,0.10938900000000001,-0.7312770000000001
691,-0.8079430000000001,-1.180393,0.8345940000000001,-0.275094,0.9247559999999999,-0.262961,1.342839,-1.545575,0.283524,0.148644,0.018573,-0.712091
692,-0.785432,-1.1705459999999999,0.900012,-0.27553099999999997,0.9209639999999999,-0.275512,1.1919469999999999,-2.220885,0.661486,0.18912,0.5434680000000001,-0.372803
693,-0.781464,-1.161953,0.9696879999999999,-0.28,0.917581,-0.282211,1.343366,-3.222633,0.6275069999999999,0.853822,1.792441,0.419754
694,-0.770413,-1.155198,1.0253379999999999,-0.281174,0.914875,-0.28973000000000004,0.6419699999999999,-0.8057840000000001,0.767994,1.232941,1.951168,0.924373
695,-0.671858,-1.163689,1.138298,-0.246457,0.91827,-0.309899,1.308861,-0.563339,2.428086,0.295957,-0.6681020000000001,1.207131
696,-0.587778,-1.18677,1.224374,-0.20775100000000002,0.927164,-0.311778,-0.70718,1.028049,1.546704,-0.9534739999999999,-1.250513,0.734614
697,-0.621062,-1.21725,1.1746219999999998,-0.201467,0.9381510000000001,-0.281571,-1.897548,-0.6071439999999999,-0.882242,-1.123133,-1.156046,0.009186
698,-0.801921,-1.199084,1.090167,-0.261036,0.931707,-0.25254899999999997,0.830951,-7.643689999999999,-2.080486,0.150776,0.734492,0.315537
699,-0.964383,-1.149053,1.063495,-0.336361,0.912377,-0.233298,0.6049359999999999,-4.655219000000001,-1.978003,0.757458,0.7052069999999999,0.5417850000000001
700,-1.022435,-1.167732,0.975992,-0.334727,0.9198639999999999,-0.204469,-3.4132800000000003,3.993361,0.800816,0.658015,0.503827,0.298799
701,-1.067108,-1.224477,0.816141,-0.29728000000000004,0.940629,-0.163832,-3.747532,5.140639,0.830126,0.46824,0.390151,-0.035311
702,-1.1174959999999998,-1.257906,0.6995819999999999,-0.276721,0.951448,-0.1348,-1.591416,1.296017,0.570239,0.328524,0.306761,-0.100964
703,-1.169253,-1.2752370000000002,0.671442,-0.268104,0.9566389999999999,-0.11384100000000001,-0.492954,-2.3245709999999997,0.612462,0.238654,-0.050526999999999996,0.069819
704,-1.255743,-1.295457,0.6342,-0.258488,0.962333,-0.084243,-1.257463,-2.4125419999999997,0.8967219999999999,0.172718,-0.328498,0.005615
705,-1.425697,-1.3251950000000001,0.496302,-0.240581,0.9699909999999999,-0.035155,-2.406222,-1.426142,1.104283,0.139354,-0.38002600000000003,-0.06930700000000001
706,-1.6500099999999998,-1.348376,0.282006,-0.21989499999999998,0.975366,0.017455000000000002,-2.4771810000000003,-0.443375,1.020275,0.176514,-0.329309,-0.041289
707,-1.860112,-1.357204,0.066488,-0.203158,0.977276,0.060473,-1.995643,0.299672,0.7321300000000001,0.187808,-0.340588,-0.041201999999999996
708,-2.016873,-1.35391,-0.10681099999999999,-0.194129,0.9765719999999999,0.092837,-1.7147119999999998,0.7750630000000001,0.419426,0.23439699999999997,-0.308893,0.177808
709,-2.140387,-1.343073,-0.25590599999999997,-0.190113,0.974183,0.12174700000000001,-1.6821169999999999,1.262258,0.30045700000000003,0.225071,-0.18036,0.24248000000000003
710,-2.245139,-1.328777,-0.382704,-0.187202,0.9708559999999999,0.14963900000000002,-1.569825,0.51761,0.20819200000000002,0.18218099999999998,-0.099366,0.16074000000000002
711,-2.34111,-1.3118670000000001,-0.47092399999999995,-0.183758,0.966665,0.178297,-1.257784,-1.194715,0.044855,0.095425,0.058375,-0.197523
712,-2.438308,-1.294901,-0.5276930000000001,-0.176171,0.962182,0.207769,-1.083795,-2.472147,-0.064456,0.017678,0.189979,-0.535573
713,-2.533764,-1.2748540000000002,-0.582947,-0.16655,0.956528,0.239402,-1.4134200000000001,-1.590657,0.09448200000000001,0.015716,0.280472,-0.608954
714,-2.5820060000000002,-1.2543950000000001,-0.63802,-0.165166,0.950361,0.263687,-1.026462,1.423789,0.096526,0.11574300000000001,0.319994,-0.43363900000000005
715,-2.544178,-1.245126,-0.6435569999999999,-0.17996900000000002,0.9474360000000001,0.264525,-0.15649100000000002,2.000047,-0.37669899999999995,0.365348,0.267468,-0.267775
716,-2.49579,-1.240214,-0.609395,-0.195351,0.9458540000000001,0.259223,0.242352,0.016255000000000002,-0.659791,0.525597,0.390374,-0.04119
717,-2.469502,-1.23892,-0.56491,-0.20285899999999998,0.945433,0.254956,0.42589,-1.069215,-0.564182,0.46070200000000006,0.42795,-0.119458
718,-2.456025,-1.2385709999999999,-0.5261680000000001,-0.206486,0.945319,0.25245500000000004,0.38445300000000004,-1.137774,-0.432993,0.307179,0.561776,-0.462859
719,-2.430434,-1.244333,-0.48520100000000005,-0.20931999999999998,0.947183,0.242959,0.9094030000000001,-0.314427,-0.327832,0.37808200000000003,0.429908,-0.311471
720,-2.3420509999999997,-1.260574,-0.395309,-0.218888,0.952266,0.21278200000000003,1.943918,0.36238200000000004,-0.514821,0.442155,0.37097600000000003,-0.137343
721,-2.203061,-1.284227,-0.259662,-0.22801999999999997,0.959219,0.167045,2.43128,0.524948,-0.300113,0.20919000000000001,0.055643,0.045724
722,-2.0422849999999997,-1.307698,-0.09303099999999999,-0.23169499999999998,0.9655889999999999,0.118127,2.572805,-0.36349899999999996,-0.154845,0.09258,-0.041425,0.036657999999999996
723,-1.861878,-1.323528,0.11071199999999999,-0.234458,0.969585,0.070242,2.767993,-1.013339,-0.318223,-0.06858099999999999,0.175862,0.00265
724,-1.6407740000000002,-1.332379,0.367794,-0.235585,0.9717129999999999,0.016513,3.327121,-1.5951440000000001,0.036805000000000004,0.063421,0.41892700000000005,0.018567
725,-1.397475,-1.333134,0.645069,-0.231902,0.971891,-0.040601,3.002512,-0.900584,0.317795,0.310104,0.432696,0.247236
726,-1.228998,-1.335642,0.8265870000000001,-0.219514,0.9724780000000001,-0.078095,1.3456629999999998,-0.554114,0.8900950000000001,0.41188100000000005,0.405024,0.099365
727,-1.17316,-1.353089,0.925952,-0.19914,0.9763950000000001,-0.083641,0.7502489999999999,-2.7875229999999998,1.287245,0.336606,0.37342800000000004,0.15370899999999998
728,-1.0984610000000001,-1.3620809999999999,1.079344,-0.184516,0.978298,-0.09427100000000001,1.611493,-4.224208999999999,0.981044,0.310066,0.211598,0.287462
729,-0.9871120000000001,-1.3575469999999998,1.290327,-0.176598,0.977348,-0.11663299999999999,2.1930509999999996,-5.023683999999999,0.872899,0.33414499999999997,0.023018,0.357417
730,-0.8741209999999999,-1.3396649999999999,1.508045,-0.175699,0.9734079999999999,-0.146993,2.632939,-4.753519,0.5957520000000001,0.33634400000000003,-0.149632,0.5406850000000001
731,-0.750923,-1.302033,1.7113939999999999,-0.18118099999999998,0.9641,-0.194125,3.390521,-3.009576,0.184339,0.263548,-0.18169000000000002,0.490084
732,-0.652984,-1.245753,1.864642,-0.194024,0.9476370000000001,-0.253651,3.5823419999999997,-2.314964,-0.26066,0.139901,-0.189306,0.066044
733,-0.6082420000000001,-1.198183,1.9603540000000002,-0.20802800000000002,0.9313790000000001,-0.298759,2.260133,-2.173692,0.18819,-0.034587,-0.318449,-0.048378
734,-0.581084,-1.179399,2.030475,-0.20940599999999998,0.924377,-0.318867,1.247163,-1.770616,0.6986859999999999,0.168512,-0.269882,0.259907
735,-0.560635,-1.170864,2.0933479999999998,-0.20703000000000002,0.9210879999999999,-0.329752,0.856037,-2.02012,0.8287329999999999,0.26502800000000004,-0.235052,0.25416
736,-0.552649,-1.1704299999999999,2.148159,-0.2046,0.920918,-0.33173600000000003,0.431371,-2.140592,0.954108,0.24019899999999997,-0.240025,0.249888
737,-0.546279,-1.178236,2.200939,-0.198742,0.923933,-0.326879,0.054145000000000006,-2.089962,1.140483,0.185772,-0.310773,0.25612399999999996
738,-0.541589,-1.194192,2.248919,-0.189582,0.929919,-0.315134,-0.376225,-1.893721,1.189568,0.057685,-0.35331999999999997,0.237406
739,-0.5397430000000001,-1.21726,2.285572,-0.177926,0.938154,-0.29699899999999996,-0.816657,-1.42858,1.1346209999999999,-0.009925,-0.370161,0.183611
740,-0.542609,-1.246686,2.3041150000000004,-0.164447,0.947934,-0.27272199999999996,-1.2802129999999998,-0.787029,0.940418,-0.049207,-0.28906,0.10250999999999999
741,-0.566262,-1.2810489999999999,2.290785,-0.153278,0.958316,-0.24111300000000002,-1.7231900000000002,-0.436942,0.622818,-0.035779000000000005,-0.14989,-0.035605
742,-0.619631,-1.315303,2.2408759999999996,-0.146764,0.9675389999999999,-0.20573899999999998,-1.7607150000000003,-0.135978,0.250429,-0.038477,-0.07795099999999999,-0.16563
743,-0.689348,-1.3415700000000002,2.167086,-0.144523,0.973842,-0.17534,-1.486134,0.21014699999999997,0.035054,-0.086969,0.45023,-0.552229
744,-0.759904,-1.357305,2.089057,-0.145949,0.977297,-0.153588,-0.814846,0.22699699999999998,-0.231607,-0.11729500000000001,0.9127940000000001,-0.713676
745,-0.7842600000000001,-1.3511,2.0850779999999998,-0.153926,0.9759639999999999,-0.154277,0.878884,-2.2079299999999997,-0.174995,0.153666,0.314762,-0.631993
746,-0.745729,-1.326293,2.183919,-0.164249,0.970258,-0.177825,1.911866,-2.403132,0.058933000000000006,0.279697,-0.318799,-0.6283569999999999
747,-0.663083,-1.301684,2.302986,-0.163659,0.964007,-0.209536,1.8975959999999998,-1.8019599999999998,0.5141939999999999,0.204263,0.000745,-0.739149
748,-0.616379,-1.283025,2.408601,-0.164069,0.958879,-0.23158600000000001,1.207635,-2.991196,0.676473,0.432746,1.020674,0.047306
749,-0.6403979999999999,-1.29786,2.4199029999999997,-0.161065,0.9629840000000001,-0.216148,-1.5740399999999999,-0.680621,0.426551,0.723916,0.944182,1.210273
750,-0.657017,-1.339156,2.390411,-0.140213,0.973291,-0.18178,-1.6279569999999999,0.768059,1.294918,0.627915,-0.377054,1.133089
751,-0.601748,-1.3662459999999998,2.453995,-0.11498599999999999,0.979152,-0.167446,-0.194609,-1.1919680000000001,1.364058,0.454662,-0.7753260000000001,0.91061
752,-0.5606770000000001,-1.3800780000000001,2.535542,-0.100802,0.9818680000000001,-0.16054000000000002,-0.24464899999999998,-2.038272,0.728133,-0.179471,-0.49621099999999996,0.606951
753,-0.612608,-1.384436,2.505993,-0.10653699999999999,0.982685,-0.151588,-0.344668,-0.5005390000000001,-0.650406,-0.559036,-0.108799,0.007591
754,-0.725725,-1.373632,2.39921,-0.13000599999999998,0.980626,-0.146527,-0.06292400000000001,-0.8453139999999999,-1.253679,-0.515807,0.364284,-0.54584
755,-0.864906,-1.361312,2.302421,-0.15825999999999998,0.978138,-0.134902,-0.618013,-2.760974,-0.9656129999999999,-0.077519,0.530224,-0.366471
756,-1.033259,-1.368172,2.1757,-0.17285899999999998,0.979542,-0.103039,-1.503183,-1.442164,-0.199025,0.600899,0.336285,0.301098
757,-1.101779,-1.376476,2.07205,-0.172247,0.9811790000000001,-0.087283,-0.749433,3.445796,-0.17225,0.5499930000000001,-0.027489999999999997,0.177508
758,-1.087101,-1.3806399999999999,2.0063169999999997,-0.167327,0.981975,-0.0879,-0.707108,3.581145,0.042585000000000005,0.280181,-0.040782,0.050363
759,-1.122088,-1.394393,1.9403740000000003,-0.158115,0.9844809999999999,-0.076126,-0.8812129999999999,0.11170899999999999,0.41755600000000004,0.070239,-0.022476,-0.021972
760,-1.223825,-1.405515,1.8696540000000001,-0.154721,0.9863719999999999,-0.055947000000000004,-0.672151,-2.254117,0.19879000000000002,0.16186199999999998,-0.13101,-0.121696
761,-1.329744,-1.4118110000000001,1.810232,-0.15373299999999998,0.9873879999999999,-0.037793,-0.512844,-2.211926,0.165665,0.158067,-0.11644700000000001,-0.211292
762,-1.422504,-1.419271,1.747167,-0.149282,0.988542,-0.022300999999999998,-0.595931,-1.0512190000000001,0.3484,0.18016600000000002,-0.06819299999999999,-0.225563
763,-1.514319,-1.429711,1.662291,-0.14038399999999998,0.9900639999999999,-0.007937,-0.686128,-0.06830800000000001,0.511016,0.11958599999999998,-0.087644,-0.26077
764,-1.588536,-1.4416120000000001,1.581331,-0.128795,0.991667,0.002285,-0.444033,0.493947,0.619877,0.067409,-0.133757,-0.293392
765,-1.616778,-1.453841,1.5389950000000001,-0.11655599999999999,0.9931690000000001,0.005363000000000001,-0.130143,0.739102,0.5790270000000001,0.019205,-0.166768,-0.3545
766,-1.569126,-1.461343,1.573339,-0.109226,0.994016,-0.000182,0.47469399999999995,0.602065,0.225573,-0.013318,-0.118772,-0.496888
767,-1.376175,-1.4589729999999999,1.760189,-0.109473,0.9937540000000001,-0.021578999999999997,1.378144,0.153124,-0.175602,-0.062783,-0.013682,-0.48855299999999996
768,-1.098618,-1.4369370000000001,2.046752,-0.118849,0.9910540000000001,-0.060697,2.450247,-0.573141,-0.6350640000000001,-0.09186,0.080937,-0.424029
769,-0.857124,-1.383856,2.30591,-0.140494,0.982577,-0.12165899999999999,3.4742669999999998,-0.764885,-1.256848,-0.324853,0.31738,0.07045
770,-0.74815,-1.317199,2.43623,-0.170672,0.968016,-0.183885,3.091882,-1.2625110000000002,-1.422319,-0.362516,0.467393,0.577653
771,-0.74512,-1.25647,2.488053,-0.20963800000000002,0.9510049999999999,-0.227244,2.671904,-2.8993130000000003,-1.722257,-0.249423,0.498565,0.715388
772,-0.776243,-1.186268,2.525244,-0.26281,0.926975,-0.267667,3.2048,-3.083193,-2.0184729999999997,0.29587600000000003,0.5577810000000001,-0.029254000000000002
773,-0.738731,-1.1169069999999999,2.5876360000000003,-0.295238,0.898749,-0.32416500000000004,3.296329,0.488551,-1.002259,0.395687,0.547281,-0.31214200000000003
774,-0.670824,-1.074905,2.637671,-0.295781,0.879545,-0.37271,1.649814,0.899408,-0.290032,0.1955,0.422228,-0.318498
775,-0.645777,-1.05433,2.66653,-0.297184,0.869569,-0.394372,1.186411,-0.5319689999999999,0.022622999999999997,-0.066479,0.19178599999999998,0.08834199999999999
776,-0.639415,-1.038252,2.7002349999999997,-0.302973,0.861518,-0.407422,1.098273,-1.3668200000000001,0.283723,-0.027882999999999998,9e-06,0.260434
777,-0.63434,-1.0282120000000001,2.7364610000000003,-0.30601300000000003,0.856377,-0.415901,0.8548129999999999,-1.16351,0.533862,0.08341799999999999,-0.2817,0.268486
778,-0.621105,-1.025627,2.769392,-0.301769,0.855039,-0.421713,0.434866,-0.47968,0.650762,0.14280199999999998,-0.5277229999999999,0.27878400000000003
779,-0.6034970000000001,-1.031648,2.792435,-0.29136999999999996,0.858146,-0.42271400000000003,-0.118447,0.093202,0.656845,0.181812,-0.619193,0.317429
780,-0.588302,-1.0463870000000002,2.80289,-0.277863,0.8656200000000001,-0.416524,-0.6491,0.439287,0.616375,0.193909,-0.552845,0.30649299999999996
781,-0.574581,-1.0672629999999999,2.804568,-0.26224200000000003,0.875883,-0.405038,-0.9274969999999999,0.6937800000000001,0.6183770000000001,0.194966,-0.5210859999999999,0.278924
782,-0.558516,-1.090794,2.805772,-0.24470999999999998,0.8869940000000001,-0.391608,-1.001192,0.739588,0.681897,0.153538,-0.514756,0.192771
783,-0.54662,-1.1171719999999998,2.8052639999999998,-0.22779000000000002,0.8988649999999999,-0.374368,-1.240859,0.554134,0.647346,-0.027062,-0.609833,0.117105
784,-0.554932,-1.1481620000000001,2.787086,-0.216108,0.912012,-0.348611,-1.703916,0.291528,0.387007,-0.068712,-0.6545350000000001,0.180536
785,-0.59073,-1.184404,2.7469900000000003,-0.209891,0.926275,-0.31298400000000004,-2.0413099999999997,-0.09787,0.290077,-0.060739,-0.625768,0.188304
