,attitude.roll,attitude.pitch,attitude.yaw,gravity.x,gravity.y,gravity.z,rotationRate.x,rotationRate.y,rotationRate.z,userAcceleration.x,userAcceleration.y,userAcceleration.z
0,1.1803139999999999,-1.351,0.447743,0.20160799999999998,0.975942,-0.082985,-0.14141700000000001,0.25645,0.284935,0.016746,0.047007,0.06566699999999999
1,1.206105,-1.347453,0.46871199999999996,0.206914,0.9751620000000001,-0.078993,-0.07055399999999999,0.260849,0.18928399999999998,0.049922,0.027630000000000002,0.034666
2,1.217778,-1.345149,0.475008,0.20992800000000003,0.97465,-0.077349,0.022757,0.281122,0.10017899999999999,0.055712,0.024008,0.029848000000000003
3,1.220616,-1.3435489999999999,0.47201499999999996,0.21161100000000002,0.97429,-0.077287,0.093429,0.285351,0.047256,0.066221,0.027312,0.030687
4,1.22098,-1.342551,0.466424,0.212552,0.974065,-0.077543,0.103131,0.28328400000000004,0.022757,0.058703,0.016063,0.022642
5,1.220243,-1.341797,0.459793,0.21318299999999998,0.973894,-0.077952,0.088349,0.286656,-0.008329000000000001,0.058133000000000004,0.015837,0.031945999999999995
6,1.220693,-1.3419809999999999,0.453946,0.213049,0.973936,-0.077794,0.049268,0.318973,-0.06419,0.067804,0.007265000000000001,0.034566
7,1.225266,-1.343496,0.451367,0.212013,0.9742780000000001,-0.07631900000000001,-0.013231999999999999,0.368398,-0.114898,0.060646000000000005,-0.012929,0.027399
8,1.232982,-1.346107,0.45098599999999994,0.210195,0.9748629999999999,-0.073837,-0.041601,0.42618,-0.154694,0.054911,-0.012186,0.019791
9,1.2414,-1.349413,0.44998,0.207758,0.9755950000000001,-0.071022,-0.028348,0.48701300000000003,-0.194204,0.056311,-0.008722,0.013541999999999998
10,1.247795,-1.353308,0.446,0.204603,0.9764430000000001,-0.068485,-0.005579,0.521211,-0.24109099999999997,0.059892999999999995,0.009214,0.018208000000000002
11,1.252038,-1.358057,0.439637,0.200485,0.977456,-0.066162,0.0042,0.511786,-0.290148,0.048554,-0.007318000000000001,0.04152
12,1.252178,-1.363833,0.429946,0.195128,0.9786590000000001,-0.064364,0.008525,0.45665,-0.358414,0.05124,-0.004416,0.046419999999999996
13,1.2514129999999999,-1.370715,0.42040500000000003,0.18867899999999999,0.98005,-0.062397,-0.024572,0.408999,-0.40131300000000003,0.023967,-0.010140999999999999,0.048007999999999995
14,1.249862,-1.378393,0.41109300000000004,0.181437,0.981547,-0.060314,-0.031007,0.367613,-0.435488,0.007788,0.015508000000000001,0.060742
15,1.246127,-1.3862430000000001,0.39974699999999996,0.173901,0.9830180000000001,-0.05853200000000001,0.008482,0.371731,-0.43414899999999995,-0.011746,0.042571,0.048476
16,1.235328,-1.3929770000000001,0.380454,0.167005,0.984232,-0.058226,0.114139,0.43823999999999996,-0.374744,0.005267,0.076926,0.058439
17,1.213431,-1.397433,0.348315,0.161578,0.98501,-0.060333000000000005,0.24316300000000002,0.511999,-0.28420700000000004,0.031307999999999996,0.10306300000000002,0.107925
18,1.184968,-1.399143,0.307831,0.158235,0.9853040000000001,-0.064273,0.329516,0.608193,-0.17263199999999998,0.018462,0.038424,0.122485
19,1.160212,-1.39855,0.26918600000000004,0.15713,0.985202,-0.06840299999999999,0.312336,0.696218,-0.059633000000000005,-0.000667,-0.01366,0.111555
20,1.149716,-1.396168,0.24317199999999997,0.158545,0.984791,-0.071007,0.24073200000000003,0.7876029999999999,0.059391,-0.018453999999999998,-0.022144999999999998,0.086403
21,1.151541,-1.392425,0.227717,0.16204000000000002,0.9841340000000001,-0.07221799999999999,0.21947600000000003,0.882179,0.136033,-0.029274,-0.011722,0.064131
22,1.154824,-1.387634,0.212321,0.16658900000000001,0.983273,-0.073591,0.281426,0.9287110000000001,0.16738499999999998,-0.013544,-0.004528,0.038343
23,1.1488040000000002,-1.382074,0.187158,0.171128,0.982245,-0.07683,0.403134,0.934729,0.155408,0.032272,0.022608,0.004946
24,1.130547,-1.375705,0.1494,0.175353,0.98103,-0.082606,0.5046010000000001,0.93766,0.133681,0.02762,0.015735,-0.007222
25,1.105034,-1.368827,0.10462,0.179214,0.9796729999999999,-0.090081,0.586649,0.900148,0.11934700000000001,0.003311,-0.028517,-0.041495
26,1.0764639999999999,-1.361214,0.057807000000000004,0.183129,0.978118,-0.0987,0.621496,0.82968,0.129294,-0.002373,-0.00302,-0.045755000000000004
27,1.0474569999999999,-1.35226,0.01215,0.18776900000000002,0.976216,-0.10834400000000001,0.6582899999999999,0.750549,0.172382,-0.009516,-0.002339,-0.029077
28,1.019289,-1.34194,-0.031231000000000002,0.193215,0.9739270000000001,-0.118862,0.691974,0.683182,0.20688600000000001,-0.018517,-0.059757000000000005,-0.019275999999999998
29,0.9942790000000001,-1.331175,-0.070421,0.198961,0.9714280000000001,-0.129365,0.649045,0.634299,0.214127,0.012159999999999999,-0.088326,-0.007201000000000001
30,0.97657,-1.320858,-0.101238,0.204933,0.968928,-0.138472,0.55918,0.596194,0.23063899999999998,0.033576999999999996,-0.066874,-0.011979
31,0.965426,-1.311239,-0.123866,0.211033,0.9665040000000001,-0.146045,0.476542,0.498434,0.24086999999999997,0.08559800000000001,-0.015271000000000002,-0.030606
32,0.9586049999999999,-1.302969,-0.13966099999999998,0.21656599999999998,0.964348,-0.15207,0.35981799999999997,0.372194,0.210306,0.115068,0.058325999999999996,-0.03955
33,0.954319,-1.2970959999999998,-0.149846,0.220531,0.962777,-0.15626900000000002,0.23786500000000002,0.21423499999999998,0.124199,0.080586,0.056159,-0.040173
34,0.948744,-1.294184,-0.15773800000000002,0.22193400000000002,0.961986,-0.159129,0.13306300000000001,0.036131,-0.00021899999999999998,0.042363,0.056599000000000003,-0.011616
35,0.9402389999999999,-1.294145,-0.16595,0.220602,0.961975,-0.16103199999999998,0.06809,-0.062222,-0.123392,0.019999,0.048445999999999996,0.008383
36,0.929399,-1.296254,-0.175821,0.217218,0.962549,-0.1622,0.025905,-0.068004,-0.23904699999999998,-0.017175,0.02239,0.026945999999999998
37,0.916459,-1.300424,-0.18828699999999998,0.211914,0.9636709999999999,-0.162553,-0.009826999999999999,-0.035566,-0.32800100000000004,-0.029526,0.011640000000000001,0.020066999999999998
38,0.9022040000000001,-1.306365,-0.20283199999999998,0.20507899999999998,0.965241,-0.16200499999999998,-0.043636,-0.0012,-0.367805,-0.007706,0.019332,-0.000608
39,0.888769,-1.312414,-0.21673,0.198347,0.9668049999999999,-0.16106199999999998,-0.044799,-0.002343,-0.347516,-0.0013859999999999999,-0.011452,-0.049861
40,0.8750459999999999,-1.318147,-0.231082,0.191859,0.9682540000000001,-0.160212,-0.030944,0.013511000000000002,-0.32821100000000003,-0.016643,-0.012642,-0.075994
41,0.859499,-1.32325,-0.247306,0.1856,0.969517,-0.159948,0.009516,-0.002618,-0.325772,-0.016655,-0.010868000000000001,-0.071513
42,0.838633,-1.327911,-0.268291,0.178859,0.970648,-0.160762,0.054309,-0.039922000000000006,-0.359594,-0.019634,-0.016653,-0.072163
43,0.812361,-1.332355,-0.294145,0.171442,0.971707,-0.162437,0.061859000000000004,-0.06958400000000001,-0.407573,-0.026025,-0.044414999999999996,-0.024406999999999998
44,0.7815840000000001,-1.337521,-0.323887,0.162824,0.972914,-0.164071,0.033063,-0.10130499999999999,-0.441917,-0.03816,-0.08540199999999999,-0.006812
45,0.751786,-1.343496,-0.352486,0.153891,0.9742780000000001,-0.1646,-0.019150999999999998,-0.08302999999999999,-0.438032,-0.039862,-0.094334,-0.018475
46,0.72513,-1.349805,-0.378904,0.145369,0.9756809999999999,-0.16403900000000002,-0.07434,-0.017859,-0.437433,-0.06046900000000001,-0.050571,-0.001077
47,0.70102,-1.356899,-0.403996,0.136904,0.977211,-0.16220199999999999,-0.11264600000000001,0.04072,-0.401456,-0.056902,0.034904000000000004,0.0049299999999999995
48,0.683258,-1.3634629999999999,-0.423709,0.129948,0.978583,-0.159629,-0.12646300000000002,0.10553599999999999,-0.348224,-0.048467,0.070565,-0.010384000000000001
49,0.671207,-1.368683,-0.438853,0.12483699999999999,0.9796440000000001,-0.157181,-0.107652,0.146499,-0.21889099999999997,-0.029225,0.09253,-0.056823
50,0.664466,-1.371467,-0.44834799999999997,0.122092,0.9802,-0.155872,-0.022907,0.122322,-0.107173,0.005761,0.072382,-0.07568
51,0.662081,-1.371692,-0.453329,0.121584,0.980244,-0.15598800000000002,0.041706,0.136535,0.011833,0.023832,0.050029000000000004,-0.10097
52,0.665504,-1.369687,-0.452745,0.12333,0.9798459999999999,-0.157117,0.092508,0.144482,0.111522,0.029822,0.042447000000000006,-0.10489200000000001
53,0.672037,-1.365912,-0.448721,0.126657,0.9790840000000001,-0.159202,0.131589,0.122774,0.178053,0.022483000000000003,0.032878,-0.10276099999999999
54,0.67998,-1.3610360000000001,-0.442687,0.130917,0.978081,-0.1619,0.159025,0.09057899999999999,0.21353699999999998,0.005573,0.020561000000000003,-0.09360800000000001
55,0.686721,-1.355767,-0.43723500000000004,0.135271,0.9769700000000001,-0.164997,0.17063599999999998,0.055414,0.206186,-0.015642,0.010395999999999999,-0.08745900000000001
56,0.6904359999999999,-1.350731,-0.43399499999999996,0.139015,0.975883,-0.168285,0.165244,0.01188,0.175225,-0.036323,0.015694,-0.072255
57,0.691509,-1.3464450000000001,-0.43248500000000006,0.141862,0.9749389999999999,-0.17135699999999998,0.13106600000000002,-0.036841000000000006,0.134457,-0.041627,0.062247000000000004,-0.073547
58,0.691589,-1.343207,-0.43120699999999995,0.14388900000000002,0.9742129999999999,-0.17377599999999999,0.10116900000000001,-0.073885,0.102244,-0.059370000000000006,0.085052,-0.040732
59,0.686765,-1.3409200000000001,-0.434008,0.14445999999999998,0.9736950000000001,-0.17619,0.097112,-0.11187899999999999,0.016807,-0.078481,-0.002381,-0.00983
60,0.6777569999999999,-1.339933,-0.441754,0.143469,0.973469,-0.178232,0.074293,-0.035886,-0.052885,-0.076422,-0.035542000000000004,0.017633000000000003
61,0.668886,-1.340187,-0.450854,0.141729,0.973527,-0.179304,0.022396,0.0145,-0.087495,-0.060765999999999994,-0.066774,0.010725
62,0.661095,-1.3417059999999998,-0.45931700000000003,0.13942000000000002,0.973873,-0.17923499999999998,-0.026545999999999997,0.046620999999999996,-0.085741,-0.064957,-0.11890799999999999,0.003392
63,0.659512,-1.34324,-0.46276000000000006,0.13822,0.9742209999999999,-0.17827300000000001,-0.03918,0.11684100000000001,-0.052805,-0.063299,-0.14196,-0.006953
64,0.6618470000000001,-1.344047,-0.46359300000000003,0.138152,0.974402,-0.177329,-0.01247,0.18044200000000002,0.002848,-0.055358000000000004,-0.177649,-0.030494999999999998
65,0.668718,-1.343385,-0.46056099999999994,0.139768,0.974253,-0.17688299999999998,0.015024000000000001,0.201348,0.07885700000000001,-0.007474,-0.11294000000000001,-0.085065
66,0.681383,-1.3417629999999998,-0.45221999999999996,0.142991,0.973886,-0.176325,-0.0032090000000000005,0.24907100000000001,0.14810299999999998,0.018508,-0.0375,-0.098776
67,0.6987220000000001,-1.339679,-0.44034799999999996,0.147332,0.973411,-0.175373,-0.002008,0.304359,0.173678,0.06977,0.10151,-0.100811
68,0.714823,-1.337542,-0.429368,0.1515,0.9729190000000001,-0.174549,-0.006509999999999999,0.2352,0.156643,0.133824,0.166149,-0.03999
69,0.7272930000000001,-1.336846,-0.419016,0.154115,0.972758,-0.173152,-0.087086,0.031269,0.076225,0.12712,0.123403,-0.024342
70,0.7314689999999999,-1.339136,-0.412236,0.153347,0.9732870000000001,-0.170848,-0.16961800000000002,-0.199023,-0.070403,0.063373,0.014476,-0.0005690000000000001
71,0.730464,-1.3444,-0.407549,0.149754,0.974482,-0.167182,-0.27105100000000004,-0.31333,-0.168173,-0.019536,-0.033701,-0.019249000000000002
72,0.72922,-1.3522370000000001,-0.402091,0.144452,0.976211,-0.161668,-0.366834,-0.327639,-0.23612199999999997,-0.037412,-0.018875,-0.049071
73,0.7304,-1.361283,-0.394251,0.138746,0.978132,-0.15491300000000002,-0.398729,-0.326368,-0.259847,-0.046002999999999995,0.023638,-0.067347
74,0.728749,-1.370333,-0.38913200000000003,0.132588,0.979975,-0.148531,-0.35185,-0.334015,-0.2531,-0.007558,0.014319,-0.049589
75,0.728144,-1.3773309999999999,-0.383006,0.127931,0.9813440000000001,-0.143488,-0.269032,-0.32511,-0.154257,0.00952,0.017908,-0.034093
76,0.7283850000000001,-1.382049,-0.37690100000000004,0.12488199999999999,0.98224,-0.14,-0.200787,-0.261719,-0.08229,0.026592,-0.001466,-0.022399000000000002
77,0.7293609999999999,-1.38485,-0.371159,0.12318499999999999,0.9827620000000001,-0.137826,-0.154979,-0.207827,-0.012605,0.019561000000000002,0.00172,-0.015265
78,0.736858,-1.386641,-0.359596,0.123031,0.9830909999999999,-0.135594,-0.14658800000000002,-0.188887,0.038704,0.020707,0.018908,-0.014033000000000002
79,0.747042,-1.387764,-0.345221,0.12365599999999999,0.983296,-0.133525,-0.14460699999999999,-0.200702,0.061166,-0.0013570000000000001,0.043117,0.008556
80,0.757538,-1.388699,-0.330296,0.124419,0.983466,-0.131552,-0.121156,-0.20822800000000002,0.058134000000000005,-0.015288,0.028421,0.017766999999999998
81,0.765153,-1.389359,-0.318657,0.12496700000000001,0.983585,-0.130133,-0.085757,-0.179533,0.044458,-0.022795,0.013316999999999999,0.01296
82,0.770601,-1.3896879999999998,-0.30976,0.125449,0.9836450000000001,-0.129218,-0.06963899999999999,-0.15826700000000002,0.04027,-0.01084,0.003935,-0.004266
83,0.776253,-1.390279,-0.30077,0.125771,0.983751,-0.128093,-0.085647,-0.165642,0.033759,-0.006691,0.0032329999999999998,-0.001027
84,0.782257,-1.391443,-0.290756,0.12573,0.983959,-0.126523,-0.114639,-0.21769699999999997,0.022941,-0.009932,-0.000805,-0.0008119999999999999
85,0.788483,-1.393358,-0.278978,0.12517899999999998,0.9842989999999999,-0.12440899999999999,-0.154386,-0.28995,0.011005,-0.001323,-0.00116,0.023791999999999997
86,0.7970510000000001,-1.395889,-0.263844,0.124457,0.984743,-0.12159,-0.201434,-0.32064899999999996,0.0032380000000000004,-0.017432,-0.012529,0.035927
87,0.807884,-1.398899,-0.246656,0.123624,0.9852620000000001,-0.11818599999999999,-0.21940300000000001,-0.29178899999999997,-0.00547,-0.024716,-0.018435,0.032553
88,0.8207059999999999,-1.401888,-0.228505,0.122973,0.985769,-0.11458199999999999,-0.21276199999999998,-0.226877,0.0062439999999999996,-0.020327,0.005579,0.008579
89,0.835448,-1.404252,-0.209594,0.12292,0.9861639999999999,-0.111193,-0.179555,-0.178068,0.025641000000000004,-0.022822,0.02052,0.0022140000000000003
90,0.8483360000000001,-1.405831,-0.193307,0.123175,0.986424,-0.10857,-0.13358399999999998,-0.150557,0.032336000000000004,-0.027685,0.023143,-0.000301
91,0.85814,-1.407144,-0.1803,0.123254,0.9866389999999999,-0.106511,-0.10902200000000001,-0.15168199999999998,0.0261,-0.029182999999999997,0.020013999999999997,0.019916999999999997
92,0.866308,-1.4083,-0.16902799999999998,0.123251,0.986826,-0.104762,-0.106821,-0.14102,0.021828999999999998,-0.032111,0.004919,0.030910000000000003
93,0.8750469999999999,-1.409534,-0.15766,0.123227,0.987025,-0.10290099999999999,-0.11305,-0.110075,0.014268000000000001,-0.027097000000000003,0.004628,0.030605
94,0.8849670000000001,-1.411084,-0.145735,0.123057,0.987273,-0.100704,-0.128904,-0.078057,0.013047999999999999,-0.009729999999999999,0.013032,0.018428
95,0.8974,-1.412623,-0.13198800000000002,0.12311,0.987517,-0.098217,-0.127698,-0.041863,0.018351,-0.013674,0.026674,0.019543
96,0.909333,-1.413949,-0.119046,0.12323800000000001,0.987725,-0.095935,-0.111686,-0.046154,0.012059,-0.011376,0.019264,0.019183000000000002
97,0.919358,-1.415511,-0.10781600000000001,0.122964,0.987967,-0.09375700000000001,-0.111667,-0.058869000000000005,-0.005016,-0.009027,0.010445999999999999,0.024528
98,0.928925,-1.417248,-0.096788,0.12247899999999999,0.9882350000000001,-0.091548,-0.120178,-0.070489,-0.022152,-0.008694,0.0038159999999999995,0.021235
99,0.938159,-1.419216,-0.085917,0.121748,0.988534,-0.08926100000000001,-0.12231099999999999,-0.076848,-0.028568,-0.005522,0.0045850000000000005,0.018734999999999998
100,0.947153,-1.421079,-0.075413,0.12105,0.9888129999999999,-0.087086,-0.11053299999999999,-0.064118,-0.025297,0.000166,0.012972,0.013722
101,0.955701,-1.422688,-0.065816,0.12048800000000001,0.989052,-0.085128,-0.090166,-0.037579,-0.019847999999999998,0.001888,0.013144999999999999,0.019256
102,0.9623079999999999,-1.423902,-0.058676,0.12006300000000002,0.9892299999999999,-0.08364500000000001,-0.06980499999999999,-0.016349000000000002,-0.018665,0.00277,0.012158,0.018642
103,0.96835,-1.425035,-0.052362,0.11964200000000001,0.9893959999999999,-0.08228200000000001,-0.067623,-0.007826000000000001,-0.020797,0.002093,0.011489,0.020544999999999997
104,0.974409,-1.42631,-0.04615,0.119095,0.9895799999999999,-0.080847,-0.071828,-0.003511,-0.030445999999999997,-0.002334,0.00804,0.018515
105,0.98011,-1.427776,-0.04028,0.11834800000000001,0.98979,-0.079359,-0.073905,-0.004514,-0.044346,-0.000627,0.005388,0.017118
106,0.9851120000000001,-1.4294149999999999,-0.035217,0.11739200000000001,0.990022,-0.07786900000000001,-0.070642,0.0029579999999999997,-0.050742,0.0056240000000000005,0.014662,0.011295
107,0.9902200000000001,-1.430977,-0.030181,0.116495,0.990241,-0.07642,-0.064236,0.008244,-0.046431,0.007024,0.019722999999999997,0.021199000000000003
108,0.9943620000000001,-1.4323350000000001,-0.026277,0.115683,0.9904299999999999,-0.075204,-0.054624,0.016707,-0.039966,0.006311,0.013248,0.021905
109,0.9985729999999999,-1.433508,-0.022469,0.115024,0.990591,-0.074088,-0.047146,0.024111,-0.034578,0.0050479999999999995,0.002604,0.021322999999999998
110,1.0022469999999999,-1.434475,-0.019383,0.114488,0.9907229999999999,-0.073149,-0.035377,0.034710000000000005,-0.031305,0.0011279999999999999,0.010529,0.016173
111,1.004801,-1.435232,-0.0177,0.114041,0.990825,-0.07245399999999999,-0.022531,0.048497000000000005,-0.02696,7.900000000000001e-05,0.010517,0.015997
112,1.0065540000000002,-1.4358870000000001,-0.017037,0.11362,0.990914,-0.071907,-0.012891,0.055924,-0.02797,0.003826,0.0045850000000000005,0.020409
113,1.007565,-1.436521,-0.017230000000000002,0.11316199999999998,0.990999,-0.071457,-0.009662,0.06018300000000001,-0.03009,0.006803,0.004973,0.021591
114,1.008674,-1.437195,-0.01738,0.112676,0.9910889999999999,-0.070976,-0.014977,0.063402,-0.031199,0.001857,0.0038,0.019813
115,1.01001,-1.437977,-0.01737,0.112114,0.991193,-0.070413,-0.017063,0.06981799999999999,-0.035495,-0.001015,0.000644,0.022668
116,1.0117180000000001,-1.438866,-0.017171000000000002,0.111489,0.99131,-0.069755,-0.019153,0.075168,-0.039789,-0.0007099999999999999,0.009041,0.018638
117,1.012577,-1.439785,-0.017819,0.110776,0.9914299999999999,-0.069177,-0.017005000000000003,0.075174,-0.042979,0.0013,0.012278,0.017022
118,1.013297,-1.440698,-0.018708000000000002,0.11005899999999999,0.991549,-0.068619,-0.012695,0.082624,-0.045094999999999996,0.006091,0.011564,0.016663
119,1.0135379999999998,-1.441508,-0.02011,0.10939600000000001,0.991654,-0.06816799999999999,-0.002069,0.080427,-0.03754,0.011744,0.003616,0.012901
120,1.012553,-1.442048,-0.022774000000000003,0.108876,0.9917229999999999,-0.067993,0.004308,0.083566,-0.028954,0.012172,0.00643,0.006790000000000001
121,1.0119479999999998,-1.442341,-0.024996,0.108589,0.991761,-0.067906,0.009551,0.076039,-0.016089,0.010475,0.00949,0.009007
122,1.01149,-1.442483,-0.026887,0.10843900000000001,0.9917790000000001,-0.067881,0.012699,0.066432,-0.013918,0.008611,0.005139,0.011271
123,1.009914,-1.4425700000000001,-0.029693999999999998,0.10826,0.99179,-0.06800700000000001,0.015861,0.057899,-0.013885,0.01143,0.002015,0.012114
124,1.008851,-1.442636,-0.031938,0.108134,0.991799,-0.068088,0.012666,0.056852999999999994,-0.016043,0.008870000000000001,0.007103,0.015049000000000002
125,1.007048,-1.442757,-0.034908999999999996,0.10790999999999999,0.991814,-0.068219,0.014799000000000001,0.055785,-0.017095,0.009079,0.009895000000000001,0.013852000000000001
126,1.005264,-1.442807,-0.037758,0.10774600000000001,0.991821,-0.068384,0.016890000000000002,0.049373,-0.013866999999999999,0.0077480000000000005,0.00647,0.012491
127,1.003771,-1.442823,-0.040239,0.10763199999999999,0.991823,-0.068538,0.017942,0.047235,-0.012789,0.004459,0.007308,0.013408000000000002
128,1.00135,-1.442807,-0.043558,0.10747999999999999,0.991821,-0.06880700000000001,0.022175999999999998,0.040824,-0.011683,0.005801,0.008362999999999999,0.012913999999999998
129,0.999027,-1.442744,-0.046698,0.107373,0.991812,-0.069091,0.022152,0.037619,-0.009542,0.0052369999999999995,0.007333,0.007598000000000001
130,0.9964770000000001,-1.442666,-0.050015,0.10726,0.9918030000000001,-0.069406,0.027491,0.036544,-0.011640000000000001,0.006845,0.005481000000000001,0.005609
131,0.992981,-1.442511,-0.05419500000000001,0.107146,0.991783,-0.069865,0.030639,0.027998000000000002,-0.008403,0.008851000000000001,0.006065999999999999,0.004786
132,0.989041,-1.442268,-0.05865599999999999,0.107072,0.9917520000000001,-0.07041900000000001,0.031668,0.022655,-0.005184,0.0092,0.002206,0.008544
133,0.986129,-1.4419819999999999,-0.061958000000000006,0.10710399999999999,0.991715,-0.07088799999999999,0.030543,0.013059000000000001,-0.001975,0.008359,0.001434,0.0065569999999999995
134,0.9828680000000001,-1.441718,-0.065438,0.10709,0.9916809999999999,-0.071382,0.02518,0.006686,-0.0020039999999999997,0.010296,0.004001,0.005754
135,0.9805360000000001,-1.4414120000000001,-0.06786299999999999,0.107176,0.991641,-0.071801,0.021927000000000002,0.00028399999999999996,0.0033229999999999996,0.012804,0.0075959999999999995,0.002892
136,0.978406,-1.441062,-0.069896,0.10731099999999999,0.9915959999999999,-0.072223,0.022936,-0.00932,0.006547,0.009845999999999999,0.006435,-0.00040899999999999997
137,0.976168,-1.440632,-0.07187400000000001,0.107503,0.991541,-0.072702,0.025016999999999998,-0.017862,0.009777,0.008708,0.005804,-0.000647
138,0.9737379999999999,-1.4401709999999999,-0.073876,0.107704,0.991481,-0.07322000000000001,0.026060000000000003,-0.024253,0.008723999999999999,0.006005,0.006551,-0.000816
139,0.971103,-1.439704,-0.076004,0.107894,0.9914200000000001,-0.073765,0.026036,-0.029580000000000002,0.008731000000000001,0.010728,0.007390000000000001,-0.002834
140,0.968397,-1.439238,-0.078012,0.108074,0.991359,-0.07431900000000001,0.024922,-0.039167,0.009803000000000001,0.006962,0.0063219999999999995,-0.00035800000000000003
141,0.965374,-1.438779,-0.080185,0.108224,0.9912979999999999,-0.074904,0.023826,-0.046616000000000005,0.008737,0.011618999999999999,0.0037119999999999996,-0.000978
142,0.9627450000000001,-1.4383489999999999,-0.08182400000000001,0.108376,0.991242,-0.075432,0.020592,-0.05194,0.010858,0.013937999999999999,0.007995,-0.006034
143,0.9606469999999999,-1.4378950000000001,-0.082703,0.10858699999999999,0.991182,-0.075918,0.01731,-0.065794,0.015125,0.012629000000000001,0.008681,-0.007792
144,0.958917,-1.4374209999999998,-0.08293099999999999,0.10884,0.9911190000000001,-0.076375,0.016156999999999998,-0.08178200000000001,0.018343,0.010804000000000001,0.011002,-0.005381
145,0.9572219999999999,-1.4368670000000001,-0.082878,0.109161,0.9910450000000001,-0.076877,0.016099000000000002,-0.08926,0.023693000000000002,0.005021,0.013975,0.00036899999999999997
146,0.955418,-1.436104,-0.08288999999999999,0.10963900000000001,0.990943,-0.07751,0.025667000000000002,-0.087202,0.033371,-0.00771,0.009179000000000001,0.000178
147,0.953512,-1.4349610000000002,-0.082954,0.11041199999999998,0.9907889999999999,-0.078372,0.035183,-0.090495,0.049464999999999995,-0.019225,-0.003621,0.003467
148,0.9513940000000001,-1.43345,-0.08337,0.111463,0.990583,-0.079474,0.052229,-0.08421000000000001,0.061326,-0.024899,-0.007642,0.009955
149,0.947793,-1.431756,-0.085258,0.11253699999999998,0.9903489999999999,-0.080853,0.062888,-0.0885,0.05927,-0.017551,0.010581,0.014156
150,0.943334,-1.430345,-0.08789,0.11330499999999999,0.9901530000000001,-0.082173,0.053363,-0.092642,0.037844,-0.014596000000000001,0.017705000000000002,0.017475
151,0.9380950000000001,-1.4297790000000001,-0.091336,0.113324,0.990074,-0.083096,0.027954000000000003,-0.09025599999999999,-0.003997,-0.018384,0.000741,0.017193
152,0.932586,-1.430496,-0.095101,0.112294,0.990174,-0.08329600000000001,-0.010223000000000001,-0.087795,-0.053404999999999994,-0.004979,-0.002961,0.0070019999999999995
153,0.92911,-1.432156,-0.09693099999999999,0.11068499999999999,0.990405,-0.0827,-0.051677,-0.080086,-0.08041,0.0009480000000000001,-0.004138,-0.001009
154,0.9286549999999999,-1.434366,-0.095912,0.108893,0.990708,-0.081438,-0.076172,-0.070413,-0.080593,0.005289,0.0026850000000000003,-0.017103
155,0.9293549999999999,-1.4365059999999998,-0.093794,0.107248,0.9909969999999999,-0.080091,-0.066618,-0.069428,-0.068777,0.009772,0.012498,-0.022646
156,0.9289930000000001,-1.438064,-0.09285700000000001,0.10597999999999999,0.9912040000000001,-0.079204,-0.039989,-0.05895,-0.048309,0.005241,0.019996,-0.02132
157,0.928566,-1.438918,-0.092296,0.105269,0.991317,-0.078743,-0.021896000000000002,-0.044198,-0.023632,-0.0009140000000000001,0.021211,-0.023171
158,0.9281309999999999,-1.439181,-0.09183999999999999,0.105027,0.991351,-0.07863300000000001,-0.009193999999999999,-0.047514999999999995,-0.004311,-0.002641,0.021665,-0.036815
159,0.926552,-1.439077,-0.092279,0.104985,0.9913379999999999,-0.078861,0.00777,-0.063583,0.0033060000000000003,0.000362,0.015559,-0.037488
160,0.923366,-1.438701,-0.094026,0.105031,0.991288,-0.07942,0.024749,-0.076456,0.010918,-0.005132,0.009307,-0.036822
161,0.919008,-1.437899,-0.096834,0.10531800000000001,0.991182,-0.080361,0.037459,-0.078698,0.029166,-0.010957,0.013197,-0.026848
162,0.9157649999999999,-1.436766,-0.098551,0.105949,0.991031,-0.081388,0.042746,-0.074515,0.044153,-0.014549000000000001,0.008221,-0.021823
163,0.9136340000000001,-1.435368,-0.099346,0.10687200000000001,0.9908440000000001,-0.082459,0.039559,-0.057515,0.057996000000000006,-0.025222,0.006973999999999999,-0.017715
164,0.91299,-1.433838,-0.099087,0.108019,0.9906360000000001,-0.083455,0.035354000000000003,-0.035164,0.066483,-0.041003,-0.002156,-0.011454
165,0.9143819999999999,-1.432428,-0.09736399999999999,0.109243,0.990442,-0.08415800000000001,0.02804,-0.005293,0.062121,-0.042714999999999996,-0.0015970000000000001,-0.008249
166,0.9160159999999999,-1.431297,-0.09589,0.11027,0.9902860000000001,-0.084662,0.016462,0.01823,0.05026,-0.038584,-0.000708,-0.008325
167,0.917351,-1.4306450000000002,-0.09519,0.11089600000000001,0.990195,-0.084908,0.0071400000000000005,0.041738,0.031014999999999997,-0.032054,0.0034579999999999997,-0.010826
168,0.919895,-1.430577,-0.09372799999999999,0.11116500000000001,0.990185,-0.08466599999999999,-0.017211,0.06321,0.010520999999999999,-0.031667,0.011844,-0.013722
169,0.922629,-1.431183,-0.09247000000000001,0.110919,0.9902700000000001,-0.08400099999999999,-0.033022,0.080412,-0.015249,-0.02489,0.011973000000000001,-0.024321000000000002
170,0.926016,-1.4321959999999998,-0.090611,0.110402,0.99041,-0.083022,-0.046824,0.07521599999999999,-0.035635,-0.021397,0.010551000000000001,-0.024338
171,0.929416,-1.433599,-0.08852,0.10957,0.990603,-0.081815,-0.057497,0.063577,-0.046377,-0.017712000000000002,0.014051,-0.024081
172,0.9315540000000001,-1.435029,-0.087631,0.108609,0.990798,-0.080736,-0.04792,0.063523,-0.040968,-0.006833,0.01529,-0.018599
173,0.933419,-1.436038,-0.087039,0.107956,0.990934,-0.079939,-0.030907,0.066595,-0.02483,-0.0041659999999999996,0.013293000000000001,-0.017259
174,0.935641,-1.4365809999999999,-0.086221,0.10770199999999999,0.991007,-0.079381,-0.019209999999999998,0.072886,-0.009802,-0.006856999999999999,0.0129,-0.021251
175,0.93786,-1.436762,-0.085326,0.107734,0.991031,-0.079036,-0.01462,0.064347,0.007773,-0.009361,0.008099,-0.019566
176,0.9411280000000001,-1.436708,-0.08316699999999999,0.10803499999999999,0.991024,-0.078715,-0.013638999999999998,0.052596000000000004,0.015271999999999999,-0.011737000000000001,0.009007,-0.014394
177,0.94475,-1.4365860000000001,-0.080424,0.108419,0.991007,-0.078395,-0.013706,0.039804,0.017425,-0.010839,0.006704000000000001,-0.009221
178,0.9483,-1.4365,-0.077563,0.10876400000000001,0.9909959999999999,-0.078058,-0.023322,0.036642,0.017361,-0.014266,0.0008410000000000001,-0.00324
179,0.9544870000000001,-1.436605,-0.072161,0.109161,0.9910100000000001,-0.077324,-0.043554,0.047356999999999996,0.019343,-0.014693000000000001,0.005618,-0.003334
180,0.962894,-1.436862,-0.064736,0.109598,0.991044,-0.076258,-0.05097,0.056978999999999995,0.017141999999999998,-0.016016,0.011168,0.00048300000000000003
181,0.9710209999999999,-1.437289,-0.05776,0.109865,0.991101,-0.075126,-0.055184000000000004,0.062346000000000006,0.010697,-0.010148,0.012775,-0.002861
182,0.979168,-1.437834,-0.050806,0.110025,0.991174,-0.073928,-0.054089,0.06130700000000001,0.003228,-0.0037479999999999996,0.014213,-0.001374
183,0.986605,-1.438389,-0.044453,0.110114,0.991247,-0.072805,-0.049831,0.054916999999999994,-0.001007,-0.008520999999999999,0.011087999999999999,0.001256
184,0.9926309999999999,-1.439051,-0.039389,0.11,0.991334,-0.071781,-0.047689999999999996,0.051599,-0.005215999999999999,-0.0026850000000000003,0.004943,0.004825
185,0.999359,-1.439698,-0.033579000000000005,0.10994300000000001,0.991419,-0.07069299999999999,-0.05198099999999999,0.047349,-0.004173,-0.002582,0.001303,0.00299
186,1.006844,-1.440337,-0.026927,0.10993199999999999,0.991502,-0.069529,-0.056277999999999995,0.044155,-0.0009939999999999999,-0.0046159999999999994,0.000502,0.008204000000000001
187,1.015036,-1.440971,-0.019527000000000003,0.10996500000000001,0.991585,-0.06829500000000001,-0.058426,0.042027999999999996,6.2e-05,-0.004252000000000001,-0.000145,0.014752000000000001
188,1.0241870000000002,-1.4416010000000001,-0.011173,0.110053,0.9916659999999999,-0.066962,-0.065899,0.045232,0.004279,-0.004737,-0.00134,0.012976
189,1.035232,-1.4422700000000002,-0.0009960000000000001,0.11021600000000001,0.9917520000000001,-0.06540399999999999,-0.07762899999999999,0.049522000000000004,0.007396,-0.002443,0.005593,0.009785
190,1.0481639999999999,-1.442939,0.010994,0.11047799999999999,0.9918370000000001,-0.06364199999999999,-0.085102,0.053788,0.012679000000000001,0.0019489999999999998,0.013991,0.011594
191,1.061468,-1.443547,0.023235,0.110785,0.991915,-0.061871,-0.077605,0.059092,0.011656999999999999,0.000391,0.016432,0.016674
192,1.072743,-1.444091,0.033353,0.111002,0.991984,-0.060361,-0.065627,0.063662,0.0067469999999999995,0.00263,0.015295,0.013104
193,1.08302,-1.4446299999999999,0.042439,0.11114500000000001,0.992052,-0.058967,-0.060283,0.062591,0.003582,-0.000992,0.013793000000000001,0.01139
194,1.0916370000000002,-1.445155,0.049951999999999996,0.11118900000000001,0.992117,-0.057767,-0.050677,0.055135,-0.004888,0.0034659999999999995,0.010782,0.006956
195,1.0990739999999999,-1.4457360000000001,0.056500999999999996,0.111103,0.99219,-0.056678,-0.045395,0.040215,-0.008036,0.011531999999999999,0.014341,0.013968000000000001
196,1.105605,-1.446207,0.06244500000000001,0.111055,0.9922489999999999,-0.05574199999999999,-0.038008999999999994,0.027385000000000003,-0.002627,0.007704000000000001,0.004593,0.020372
197,1.111701,-1.446475,0.068082,0.11115599999999999,0.992282,-0.054947,-0.038047000000000004,0.028412,0.006984999999999999,0.005986,-0.004672,0.017394999999999997
198,1.119461,-1.446736,0.07531,0.111346,0.9923139999999999,-0.053970000000000004,-0.048725,0.029501,0.010114,0.009809,0.004374,0.01863
199,1.128785,-1.446956,0.08406799999999999,0.111647,0.9923420000000001,-0.052836,-0.054148,0.029731999999999998,0.011033,0.007768000000000001,-0.0002,0.018213999999999998
200,1.138548,-1.44721,0.093459,0.111929,0.992373,-0.051637999999999996,-0.056353,0.014821,0.012105,0.015009,0.001295,0.013444999999999999
201,1.148471,-1.447401,0.10340999999999999,0.11226400000000002,0.992396,-0.050447000000000006,-0.056454,-0.0033049999999999998,0.0164,0.009456,-0.00146,0.016405
202,1.157493,-1.4475120000000001,0.11260799999999999,0.112614,0.99241,-0.049388,-0.045785,-0.004403,0.015408000000000002,0.007731999999999999,0.002203,0.018963
203,1.165524,-1.4475850000000001,0.12071300000000001,0.11294100000000001,0.992419,-0.048454000000000004,-0.043618000000000004,0.000924,0.013280000000000002,0.010045,0.011090000000000001,0.018044
204,1.173155,-1.4477010000000001,0.128381,0.1132,0.992433,-0.047546,-0.044670999999999995,0.0009400000000000001,0.010068,0.008565000000000001,0.008909,0.021072
205,1.179894,-1.447891,0.135247,0.113345,0.9924569999999999,-0.04671,-0.038269,-0.005448,0.003711,0.006895,0.0082,0.02106
206,1.18613,-1.448141,0.141748,0.11340499999999999,0.9924870000000001,-0.04591,-0.036160000000000005,-0.015026,-0.000535,0.007826000000000001,0.007498,0.024594
207,1.191202,-1.448466,0.147172,0.113337,0.992527,-0.045215,-0.03165,-0.016916,-0.007970999999999999,0.004568,0.005657,0.029376
208,1.195007,-1.44896,0.151483,0.113053,0.9925870000000001,-0.044604000000000005,-0.031655,-0.027530000000000002,-0.017571,0.005417,0.009351,0.027697000000000003
209,1.198827,-1.449567,0.15598399999999998,0.11266099999999998,0.992661,-0.043953,-0.034894,-0.039224,-0.020783000000000003,0.007548,0.012482,0.026298000000000002
210,1.202132,-1.450161,0.16028199999999998,0.112256,0.992732,-0.043368000000000004,-0.028555,-0.050973000000000004,-0.018588,0.008944,0.011113,0.033404
211,1.20466,-1.4505940000000002,0.163829,0.11196400000000001,0.992784,-0.04293,-0.020000999999999998,-0.048919,-0.012136,0.010519,0.006712,0.037574
212,1.207007,-1.450875,0.167102,0.111804,0.992818,-0.042568,-0.017877,-0.043629,-0.004651,0.012906,0.002986,0.035412
213,1.2093909999999999,-1.450954,0.17038299999999998,0.11183299999999999,0.992827,-0.042274,-0.015787,-0.043675,0.004978,0.015318,0.003053,0.028175
214,1.212336,-1.450872,0.174345,0.112034,0.992818,-0.041973,-0.015872999999999998,-0.054362,0.013537,0.01762,0.009029,0.028255000000000002
215,1.215635,-1.4506459999999999,0.178837,0.112382,0.992791,-0.041681,-0.010596,-0.06292,0.017858000000000002,0.016768,0.009512999999999999,0.033777
216,1.216699,-1.450356,0.18127100000000002,0.112696,0.992756,-0.041661000000000004,-0.003157,-0.07146,0.015784,0.013326,0.011028,0.034230000000000003
217,1.216541,-1.450078,0.182592,0.11294900000000001,0.9927219999999999,-0.041775,0.005378,-0.07573300000000001,0.011576000000000001,0.010922,0.008971,0.031841
218,1.215402,-1.449749,0.183003,0.11320699999999999,0.992683,-0.042017,0.012827000000000002,-0.08002100000000001,0.011634,0.012846000000000002,0.007317000000000001,0.031488999999999996
219,1.212661,-1.449414,0.181917,0.113403,0.992642,-0.042444,0.014937,-0.08429299999999999,0.012722,0.011245999999999999,0.00925,0.032266
220,1.2099360000000001,-1.4490020000000001,0.180865,0.11367000000000001,0.992592,-0.042897000000000005,0.02239,-0.085393,0.014912,0.008218000000000001,0.008018,0.033437
221,1.205967,-1.448531,0.178584,0.113934,0.9925350000000001,-0.043515,0.028787,-0.08648099999999999,0.014958,0.009219,0.009937,0.03291
222,1.201912,-1.44808,0.176234,0.114175,0.9924799999999999,-0.044138,0.032001999999999996,-0.086479,0.011776,0.004691,0.008343999999999999,0.036768
223,1.196955,-1.447669,0.172913,0.11433399999999999,0.9924290000000001,-0.044851999999999996,0.032021,-0.08327899999999999,0.010704,0.0068980000000000005,0.008944,0.034552
224,1.191584,-1.447259,0.169214,0.11447,0.9923790000000001,-0.045616000000000004,0.035212,-0.087543,0.008595,0.005082,0.011618999999999999,0.033272
225,1.184593,-1.446795,0.163903,0.114574,0.9923219999999999,-0.046589,0.0459,-0.08438,0.007598000000000001,0.005314,0.007449,0.035587
226,1.177422,-1.446317,0.15834,0.114674,0.9922620000000001,-0.04759,0.05231,-0.082272,0.007640000000000001,0.0077480000000000005,0.007951,0.033369
227,1.168816,-1.445762,0.151363,0.11476199999999999,0.992193,-0.048789,0.058697000000000006,-0.08549,0.0076879999999999995,0.0063159999999999996,0.008966,0.032981
228,1.159416,-1.4451260000000001,0.14364100000000002,0.114873,0.9921139999999999,-0.050116,0.06080700000000001,-0.088702,0.009844,0.0065260000000000006,0.009488,0.035818
229,1.15044,-1.444459,0.136376,0.11502000000000001,0.99203,-0.051414,0.065074,-0.08871699999999999,0.009873,0.0032049999999999995,0.004857,0.033149
230,1.140733,-1.44374,0.12826500000000002,0.11516099999999999,0.9919389999999999,-0.052824,0.06830900000000001,-0.08127100000000001,0.009887,0.003385,0.003285,0.029554
231,1.1302459999999999,-1.4430049999999999,0.119335,0.115258,0.9918459999999999,-0.054339,0.071514,-0.082339,0.007774,0.0032259999999999997,0.005408,0.029330000000000002
232,1.11994,-1.442273,0.110546,0.115343,0.9917520000000001,-0.055839,0.077934,-0.080222,0.005679999999999999,0.006254,0.008019,0.029089999999999998
233,1.1087690000000001,-1.441559,0.100816,0.115344,0.99166,-0.057439,0.076901,-0.075945,0.002462,0.006634999999999999,0.008721,0.027927999999999998
234,1.097007,-1.440834,0.090499,0.115298,0.991567,-0.059118,0.08010199999999999,-0.077017,0.001418,0.009183,0.007121,0.027502
235,1.085547,-1.440145,0.08036900000000001,0.11521500000000001,0.991477,-0.060752999999999995,0.083355,-0.070615,-0.003909,0.009358,0.005563,0.025093
236,1.072827,-1.439394,0.068954,0.11508399999999999,0.9913790000000001,-0.062568,0.087618,-0.070634,-0.002811,0.009609999999999999,0.004745,0.027808
237,1.060194,-1.438609,0.057641,0.11495999999999999,0.991276,-0.06439500000000001,0.090818,-0.071707,-0.003855,0.007170999999999999,0.004146,0.027239999999999997
238,1.0478809999999998,-1.437804,0.04659,0.114846,0.9911700000000001,-0.066202,0.09082799999999999,-0.069576,-0.003858,0.0020670000000000003,0.002941,0.023447
239,1.035762,-1.436957,0.035715,0.114756,0.991057,-0.068016,0.087627,-0.06638200000000001,-0.0006799999999999999,0.0012109999999999998,0.003145,0.023552
240,1.0232459999999999,-1.4359629999999999,0.024365,0.11473399999999999,0.990924,-0.069958,0.095242,-0.063407,0.004678,0.001034,0.005429,0.020276
241,1.011737,-1.434854,0.013985,0.114852,0.9907739999999999,-0.07185599999999999,0.096289,-0.06130599999999999,0.011092,0.0023350000000000003,0.010232999999999999,0.0161
242,0.999967,-1.433562,0.0032630000000000003,0.11507300000000001,0.990598,-0.073893,0.103748,-0.057097,0.017547999999999998,0.002801,0.007555,0.015284
243,0.9882219999999999,-1.432005,-0.007499,0.11548499999999999,0.990384,-0.076087,0.110125,-0.052896000000000006,0.027201,0.0057469999999999995,0.011218,0.013786000000000001
244,0.977039,-1.4302489999999999,-0.017725,0.116067,0.990139,-0.078347,0.114354,-0.052945000000000006,0.035776,-0.003549,0.006397,0.014991999999999998
245,0.9652799999999999,-1.428342,-0.028574000000000002,0.11668900000000001,0.989871,-0.08077999999999999,0.12397000000000001,-0.049783,0.03584,-0.0063219999999999995,0.009534,0.006987999999999999
246,0.9535790000000001,-1.426417,-0.039445,0.117289,0.9895950000000001,-0.083242,0.12187,-0.045502,0.032615,-0.0063880000000000004,0.005903,0.006917
247,0.941534,-1.424479,-0.050885,0.117828,0.9893149999999999,-0.08577699999999999,0.130501,-0.029531,0.027313,-0.007461,0.006732999999999999,0.009514
248,0.928507,-1.422512,-0.063692,0.11825799999999999,0.9890260000000001,-0.08847000000000001,0.139345,-0.013658000000000002,0.020853999999999998,-0.008501,0.0008269999999999999,0.007873
249,0.91494,-1.420631,-0.077106,0.11852,0.9887459999999999,-0.0912,0.138297,-0.016821,0.013374,-0.005499,0.0019149999999999998,0.005842
250,0.901955,-1.418836,-0.089812,0.118719,0.988476,-0.093832,0.130795,-0.023190000000000002,0.014398,-0.005208,0.001834,0.003973
251,0.889393,-1.4171200000000002,-0.101974,0.118848,0.988215,-0.096384,0.127585,-0.028493,0.011177,-0.004803,0.00118,0.002389
252,0.8770049999999999,-1.415337,-0.11399000000000001,0.118998,0.987941,-0.098974,0.131867,-0.024250999999999998,0.01227,-0.004693999999999999,0.004155,0.00011200000000000001
253,0.864898,-1.413386,-0.125901,0.11925699999999999,0.9876370000000001,-0.10165700000000001,0.138292,-0.014703,0.016576,-0.002069,0.008091,0.0034969999999999997
254,0.853095,-1.41129,-0.137697,0.11960599999999999,0.9873059999999999,-0.10441700000000001,0.14258800000000002,-0.004082,0.020865,-0.002449,0.003112,0.008318
255,0.841391,-1.4090639999999999,-0.149618,0.12001500000000001,0.98695,-0.107275,0.14798,0.00656,0.018752,0.002254,0.000874,0.010229
256,0.8305950000000001,-1.406643,-0.160747,0.12061400000000001,0.986557,-0.110176,0.14899400000000002,0.010754000000000001,0.034776999999999995,0.004218,0.003952000000000001,0.0060810000000000005
257,0.8212209999999999,-1.404034,-0.17050099999999999,0.12145999999999998,0.9861270000000001,-0.11305499999999999,0.146822,0.012849000000000001,0.045442,0.002777,0.001666,0.004031
258,0.8131079999999999,-1.401407,-0.179021,0.12242,0.9856879999999999,-0.115817,0.145751,0.016031999999999998,0.049703,0.002046,7.6e-05,0.006305
259,0.805297,-1.398674,-0.187307,0.123454,0.985223,-0.11863599999999999,0.151071,0.016,0.052945000000000006,0.001943,0.003317,0.004821
260,0.798082,-1.3957629999999999,-0.194925,0.12464700000000001,0.984721,-0.121525,0.147837,0.015982,0.0604,0.002748,0.012395,0.001163
261,0.79195,-1.3928209999999999,-0.201549,0.125961,0.9842040000000001,-0.124322,0.14677,0.02129,0.065727,0.000366,0.017657,0.001092
262,0.785326,-1.389849,-0.20869200000000002,0.12720399999999998,0.9836739999999999,-0.127222,0.15426199999999998,0.019163,0.058303999999999995,-0.00492,0.006286,0.000834
263,0.778334,-1.3869479999999998,-0.216299,0.128314,0.9831469999999999,-0.13014,0.152779,0.031375,0.053861,-0.0052060000000000006,0.008948999999999999,-0.009035
264,0.7721210000000001,-1.384059,-0.223363,0.129485,0.982615,-0.13297,0.14746900000000002,0.037781,0.054884,-0.008467,0.012136,-0.008022
265,0.766237,-1.381247,-0.23020100000000002,0.130616,0.982089,-0.13572,0.148579,0.043121,0.050612,-0.016358,0.009670999999999999,-0.00428
266,0.759522,-1.378451,-0.237895,0.13159200000000001,0.981559,-0.13858399999999998,0.157138,0.040991,0.043197,-0.019867,0.001657,-0.012629999999999999
267,0.752627,-1.375649,-0.245891,0.13251300000000002,0.9810190000000001,-0.141496,0.15296600000000002,0.058066999999999994,0.038873000000000005,-0.017187,0.022002,-0.007811
268,0.747256,-1.3730040000000001,-0.253183,0.13351500000000002,0.980503,-0.144109,0.141394,0.103876,0.048347,-0.027252999999999996,0.017941,-0.015803
269,0.743517,-1.3702969999999999,-0.259496,0.134773,0.979967,-0.146562,0.14471900000000001,0.1305,0.047268,-0.031928,0.011137000000000001,-0.011992000000000001
270,0.739215,-1.367541,-0.266544,0.135961,0.9794149999999999,-0.149137,0.15113900000000002,0.130495,0.043039999999999995,-0.030843000000000002,0.014009,-0.010806
271,0.734626,-1.364898,-0.273943,0.137012,0.978878,-0.15168199999999998,0.144781,0.133739,0.036581999999999996,-0.019733,0.024968,-0.018224
272,0.729875,-1.362507,-0.281698,0.137851,0.9783860000000001,-0.154076,0.14169600000000002,0.147645,0.024791999999999998,-0.021396000000000002,0.005318,-0.020149
273,0.725171,-1.3602290000000001,-0.28935700000000003,0.138603,0.9779120000000001,-0.156391,0.135271,0.135975,0.018353,-0.021141,0.009819,-0.024395
274,0.7193149999999999,-1.358201,-0.29804200000000003,0.138992,0.9774860000000001,-0.158693,0.13318,0.131777,0.004457,-0.021103,0.002128,-0.02632
275,0.713737,-1.3564610000000001,-0.306398,0.139218,0.977118,-0.160751,0.11725899999999999,0.12978399999999998,-0.015948,-0.016644,-0.004141,-0.028305
276,0.707713,-1.355236,-0.315209,0.139026,0.976857,-0.162497,0.102414,0.129917,-0.036348,-0.016406,-0.004215999999999999,-0.029367
277,0.7011850000000001,-1.3545719999999999,-0.324585,0.13838,0.976715,-0.16389600000000001,0.07904800000000001,0.136458,-0.053611,-0.010328,-0.002075,-0.038329
278,0.6963600000000001,-1.3541,-0.332374,0.137883,0.976613,-0.164915,0.06194500000000001,0.137549,-0.045186000000000004,-0.007024,0.005595,-0.040163
279,0.692109,-1.35396,-0.339404,0.137267,0.976583,-0.165604,0.047014,0.130179,-0.053827,-0.008284,0.0024059999999999997,-0.040542
280,0.687718,-1.354017,-0.346482,0.13650299999999999,0.9765950000000001,-0.16616199999999998,0.038474,0.122777,-0.060286,-0.0065439999999999995,0.004987,-0.041129
281,0.683652,-1.354298,-0.353,0.135652,0.976656,-0.166501,0.02349,0.111116,-0.061444000000000006,-0.005342,0.007551,-0.036913999999999995
282,0.6799229999999999,-1.35474,-0.358956,0.134758,0.976751,-0.166669,0.014907,0.100493,-0.061491,-0.003471,0.007167,-0.037356
283,0.676666,-1.355249,-0.364213,0.133901,0.9768600000000001,-0.166718,0.0073620000000000005,0.08984099999999999,-0.05512,-0.002157,0.010018,-0.036316
284,0.6741,-1.355724,-0.368424,0.133183,0.9769610000000001,-0.166698,0.004037,0.072765,-0.04444,-0.004567,0.010328,-0.033406
285,0.672128,-1.356077,-0.371726,0.13264,0.977036,-0.166691,0.0017929999999999999,0.059942999999999996,-0.032688,-0.007181999999999999,0.008987,-0.030910000000000003
286,0.670875,-1.356344,-0.374089,0.132269,0.977093,-0.166653,0.0006450000000000001,0.050325,-0.024138,-0.013418000000000001,0.008853,-0.030857
287,0.670296,-1.356534,-0.375699,0.13205699999999998,0.9771340000000001,-0.16658399999999998,-0.000465,0.050289999999999994,-0.014532,-0.017447999999999998,0.017800999999999997,-0.032162
288,0.67005,-1.356653,-0.376911,0.131944,0.977159,-0.166526,-0.0015609999999999999,0.046024,-0.012398000000000001,-0.026613,0.015165999999999999,-0.031991000000000006
289,0.669625,-1.3568360000000002,-0.378344,0.131762,0.977198,-0.166441,-0.0014990000000000001,0.054568,-0.017749,-0.030017000000000002,0.008307,-0.032335
290,0.669099,-1.357073,-0.380179,0.13153099999999998,0.977248,-0.166329,0.000726,0.069495,-0.023094,-0.029206,0.001924,-0.031547000000000006
291,0.6681050000000001,-1.3573309999999998,-0.38266500000000003,0.13121,0.977303,-0.166262,0.002889,0.073758,-0.025221,-0.017929,0.010062999999999999,-0.034467000000000005
292,0.667361,-1.357676,-0.384994,0.130878,0.977376,-0.166095,-0.006693999999999999,0.078052,-0.025293,-0.014865,0.011745,-0.026318
293,0.667211,-1.358141,-0.386751,0.130572,0.977474,-0.165758,-0.013094999999999999,0.080197,-0.023204,-0.021258000000000003,0.0052840000000000005,-0.019209
294,0.667673,-1.3586040000000001,-0.387941,0.130368,0.9775719999999999,-0.16534300000000002,-0.015253000000000001,0.08230499999999999,-0.015745,-0.020916999999999998,0.010572,-0.011339
295,0.668457,-1.358758,-0.388944,0.130405,0.9776040000000001,-0.165123,0.009337999999999999,0.103486,-0.005986,-0.018817,0.017223,0.011512
296,0.6678109999999999,-1.357777,-0.392778,0.130892,0.977397,-0.165959,0.097175,0.195803,0.008395999999999999,-0.019243,0.005757,0.035848000000000005
297,0.665347,-1.3555549999999998,-0.400059,0.131823,0.976925,-0.16799,0.104749,0.21921300000000002,0.008419,-0.025789999999999997,0.008106,-0.046701
298,0.668808,-1.356027,-0.399007,0.132117,0.9770260000000001,-0.16717,-0.082537,0.075049,-0.007659,-0.018317,0.006129,-0.042181
299,0.673085,-1.3573979999999999,-0.395531,0.131995,0.977317,-0.16555599999999998,-0.058133000000000004,0.038769,-0.013852000000000001,-0.010337,0.005746,-0.013659000000000001
300,0.675271,-1.358216,-0.394016,0.131858,0.97749,-0.164643,-0.035768,0.035474,-0.00835,-0.00315,0.0061990000000000005,-0.0036
301,0.677878,-1.358886,-0.39209099999999997,0.131875,0.9776309999999999,-0.16378800000000002,-0.046498000000000005,0.034395,0.0043950000000000005,-0.007837,0.0065,-0.004943
302,0.680674,-1.359458,-0.38964499999999996,0.131982,0.977751,-0.162985,-0.072228,0.009970999999999999,0.007451,-0.002435,-0.001234,-0.016412
303,0.688447,-1.361276,-0.381792,0.132113,0.978131,-0.160579,-0.131991,0.002735,0.0038380000000000003,-0.0057090000000000005,0.012256,-0.019993
304,0.6947399999999999,-1.362884,-0.374859,0.13211199999999998,0.9784639999999999,-0.15853399999999998,-0.091614,-0.032563999999999996,0.005234,-0.006914,0.010351,-0.006231
305,0.699153,-1.363794,-0.369908,0.13223800000000002,0.978651,-0.157269,-0.058492999999999996,-0.011417,0.01612,-0.012121,0.01349,-0.00391
306,0.703952,-1.364325,-0.364898,0.132655,0.9787600000000001,-0.15623599999999999,-0.062842,-0.018902000000000002,0.026782,-0.014048,0.008971,-0.007247
307,0.7081930000000001,-1.364565,-0.35983899999999996,0.133164,0.9788100000000001,-0.155494,-0.029817000000000003,-0.016937999999999998,0.039827999999999995,-0.01445,0.013027,0.012946000000000001
308,0.713692,-1.364235,-0.354675,0.134228,0.978742,-0.155003,-0.023277000000000003,0.033030000000000004,0.059038,-0.015622,0.024127000000000003,-0.012797
309,0.721618,-1.364067,-0.34686999999999996,0.13556300000000002,0.978707,-0.15406,-0.050116,0.009632,0.072768,-0.012775,0.012046,-0.009453
310,0.730363,-1.363816,-0.338392,0.137069,0.978656,-0.153052,-0.049006,0.020277,0.07382999999999999,-0.004683,0.016492,-0.015802
311,0.739704,-1.363945,-0.32888,0.138406,0.9786819999999999,-0.15167,-0.082189,-0.007291,0.07042899999999999,0.006171,0.019273,-0.021394999999999997
312,0.7480979999999999,-1.364176,-0.319826,0.13952,0.9787299999999999,-0.150337,-0.056623,-0.029695999999999997,0.056749,0.005652,0.022292,-0.016671000000000002
313,0.752083,-1.363979,-0.314759,0.14025,0.9786889999999999,-0.149921,-0.018428,-0.056615,0.045273,0.002206,0.05874,0.004413
314,0.7533270000000001,-1.363604,-0.31166,0.14068699999999998,0.978612,-0.150014,-0.037895,-0.132113,0.028143,0.0032340000000000003,0.028956,-0.056285
315,0.754039,-1.363874,-0.307222,0.14061300000000002,0.978668,-0.149721,0.00032,-0.173797,0.029531,0.015040999999999999,0.00885,0.015749000000000003
316,0.750599,-1.362651,-0.307911,0.140914,0.978416,-0.151079,0.056046000000000006,-0.11117,0.037318000000000004,-0.002364,-0.009406999999999999,0.066195
317,0.7502449999999999,-1.361747,-0.30751799999999996,0.141464,0.9782290000000001,-0.151776,0.009684,0.012586,0.031494,-0.010345,-0.025820999999999997,0.070462
318,0.756058,-1.362075,-0.302807,0.142124,0.978297,-0.15071800000000002,-0.0732,0.07789199999999999,0.022286,0.013943,-0.037226,0.052284000000000004
319,0.766296,-1.362963,-0.29415,0.143056,0.9784799999999999,-0.148628,-0.099925,0.086426,0.042384,0.028316,-0.018352,-0.021491999999999997
320,0.777684,-1.3636700000000002,-0.282584,0.144253,0.978626,-0.14649600000000002,-0.100687,-0.057487,0.068201,0.046086,0.0009429999999999999,-0.034367
321,0.787693,-1.363884,-0.269681,0.145563,0.97867,-0.144896,-0.09067,-0.175875,0.09512799999999999,0.032614,-0.008501,-0.006242
322,0.7961050000000001,-1.3637780000000002,-0.256317,0.146851,0.978648,-0.143739,-0.086781,-0.25898499999999997,0.09633,0.010925,-0.0014140000000000001,0.013184999999999999
323,0.80255,-1.3639620000000001,-0.24401399999999998,0.147645,0.9786860000000001,-0.14266500000000001,-0.107037,-0.286487,0.06524500000000001,0.006515000000000001,0.005994,0.01974
324,0.808457,-1.364954,-0.232307,0.147783,0.9788889999999999,-0.14112,-0.135598,-0.26600999999999997,0.030836000000000002,0.004286,0.010094,0.031256
325,0.815267,-1.3666,-0.22055100000000002,0.147567,0.979224,-0.139005,-0.14593599999999998,-0.209445,0.0136,0.013459,-0.003715,0.041288
326,0.822516,-1.368184,-0.20929499999999998,0.14743299999999998,0.9795440000000001,-0.136875,-0.133043,-0.179701,0.023266,0.019911,-0.004752,0.023731
327,0.831634,-1.369633,-0.19631500000000002,0.147625,0.979835,-0.134568,-0.153447,-0.194604,0.038098,0.017872,0.004082,0.014588
328,0.842709,-1.371314,-0.18098399999999998,0.147876,0.9801690000000001,-0.131828,-0.17378,-0.21050300000000002,0.03584,0.005292,0.0070290000000000005,-0.001716
329,0.852958,-1.373359,-0.16555999999999998,0.147708,0.9805729999999999,-0.128986,-0.177076,-0.253017,0.014506999999999999,0.007259999999999999,-0.001492,0.00539
330,0.8622209999999999,-1.375627,-0.150891,0.147207,0.981015,-0.126165,-0.173746,-0.235938,0.002758,-0.004171,0.003513,0.014135
331,0.871302,-1.37786,-0.13678099999999999,0.14667,0.9814450000000001,-0.123412,-0.173684,-0.22421100000000002,0.000607,0.008283,0.0064540000000000005,0.029951
332,0.881342,-1.379792,-0.122776,0.14643599999999998,0.981814,-0.120725,-0.164996,-0.179542,0.011292,-0.0016300000000000002,0.013196000000000001,0.018293
333,0.892067,-1.381807,-0.10771700000000001,0.146182,0.982195,-0.117905,-0.179018,-0.21464299999999997,0.010171,-0.007784999999999999,0.002745,0.003846
334,0.90446,-1.384067,-0.090451,0.145886,0.982617,-0.114711,-0.19936099999999998,-0.22949099999999997,0.011116,-0.0076560000000000005,-0.000225,0.01353
335,0.91663,-1.386209,-0.073878,0.1456,0.9830120000000001,-0.11164600000000001,-0.172497,-0.192278,0.005915,-0.004975,0.013524000000000001,0.027051
336,0.9279,-1.388275,-0.058613,0.145223,0.983389,-0.10878,-0.17671199999999998,-0.186911,-0.000531,-0.00324,0.017374,0.019898
337,0.939729,-1.390509,-0.042497,0.144723,0.983792,-0.10575699999999999,-0.18749100000000002,-0.217741,-0.006976,-0.008828,0.01929,0.013136000000000002
338,0.9504450000000001,-1.392868,-0.026905000000000002,0.14396,0.9842120000000001,-0.102851,-0.174708,-0.22947399999999998,-0.014349,0.008475,-0.000692,0.025626
339,0.960094,-1.3947209999999999,-0.013134999999999999,0.143451,0.9845389999999999,-0.10041,-0.136138,-0.17641300000000001,0.002944,0.007047,0.004841,0.029151999999999997
340,0.969802,-1.395893,-0.000495,0.143467,0.984743,-0.09836,-0.115772,-0.10871199999999999,0.023234,-0.015354,0.012708,0.024981
341,0.981102,-1.39716,0.014163,0.143532,0.9849629999999999,-0.096039,-0.153424,-0.18631199999999998,0.014524,0.009193000000000002,0.017172999999999997,0.03415
342,0.9924629999999999,-1.398462,0.028536000000000002,0.143539,0.985187,-0.09370099999999999,-0.129641,-0.11821300000000001,0.013535,0.01181,0.001873,0.038586
343,1.003341,-1.399493,0.04174,0.14369300000000002,0.9853629999999999,-0.091587,-0.11788199999999999,-0.107623,0.018945,0.0028829999999999997,-0.005765,0.035389
344,1.0138129999999999,-1.4005940000000001,0.05536699999999999,0.143723,0.9855510000000001,-0.089504,-0.129891,-0.172546,0.014671,0.0015710000000000001,0.000579,0.033642
345,1.0245440000000001,-1.401843,0.069975,0.143622,0.9857610000000001,-0.08731699999999999,-0.136292,-0.17888900000000002,0.008225,0.003228,0.013552000000000002,0.048833999999999995
346,1.035308,-1.403247,0.084334,0.14336300000000002,0.9859959999999999,-0.08505900000000001,-0.137272,-0.16926,-0.001408,0.00596,0.020519,0.05596
347,1.046166,-1.404726,0.09824,0.143015,0.986242,-0.082767,-0.132852,-0.141552,-0.007821999999999999,-0.013041,0.010477,0.043124
348,1.056904,-1.406326,0.111943,0.142521,0.986505,-0.08045,-0.132919,-0.129773,-0.015887000000000002,-0.018696,0.0071010000000000005,0.044897
349,1.067389,-1.407797,0.12575,0.142086,0.9867450000000001,-0.078252,-0.139824,-0.22356700000000002,0.002345,-0.054074000000000004,-0.006581,0.011006
350,1.075744,-1.409335,0.138547,0.141399,0.986993,-0.07634099999999999,-0.105176,-0.147903,-0.034898,0.017537,0.011954000000000001,0.063874
351,1.083672,-1.410651,0.14786,0.140849,0.9872040000000001,-0.07460800000000001,-0.08659299999999999,-0.027676999999999997,-0.013558,0.016896,0.0086,0.061028
352,1.093158,-1.411505,0.157426,0.140801,0.98734,-0.072881,-0.080106,0.008452,0.0035329999999999997,0.003196,0.006267,0.051396000000000004
353,1.102076,-1.412288,0.166216,0.140757,0.9874639999999999,-0.071273,-0.075791,0.016967,0.001416,0.002676,0.005639,0.043991
354,1.111111,-1.4130200000000002,0.174766,0.140749,0.9875790000000001,-0.06967899999999999,-0.065002,0.034013,-0.008145,0.000227,0.015030000000000002,0.045906
355,1.117476,-1.413836,0.18073599999999998,0.140466,0.987707,-0.06842899999999999,-0.043703,0.007379000000000001,-0.026122000000000003,0.0048590000000000005,0.009989,0.033227
356,1.120947,-1.414717,0.18404,0.13991800000000001,0.987844,-0.067562,-0.036163,0.016966,-0.032491,0.019094,0.012674,0.051495000000000006
357,1.12494,-1.415627,0.187055,0.139375,0.987985,-0.066615,-0.039124,0.07448400000000001,-0.028312,0.02603,0.009618999999999999,0.06675199999999999
358,1.132168,-1.416485,0.192306,0.13908299999999998,0.988118,-0.06524500000000001,-0.056074,0.108602,-0.020997,0.014207,0.010311,0.04843
359,1.139192,-1.417345,0.197602,0.138763,0.9882489999999999,-0.06390900000000001,-0.045535,0.075559,-0.025154,0.021439,0.002031,0.042959
360,1.143599,-1.418153,0.200803,0.138319,0.988373,-0.062967,-0.027504,0.045694,-0.031399,0.023745,-0.000168,0.036951
361,1.1450209999999998,-1.4188209999999999,0.202041,0.13780599999999998,0.988474,-0.062497000000000004,-0.009626000000000001,-0.009772,-0.029066,0.032833,0.002447,0.040052
362,1.145715,-1.419403,0.20289300000000002,0.137325,0.988562,-0.062164,-0.014955000000000001,-0.0055049999999999995,-0.025905,0.032414,0.0057009999999999995,0.05629
363,1.14687,-1.420034,0.204151,0.136827,0.988657,-0.061749,-0.026695999999999998,-0.004407,-0.023851,0.032912000000000004,0.005606,0.055874
364,1.151391,-1.420642,0.208698,0.13655699999999998,0.988748,-0.060885,-0.040563,0.002956,-0.019773,0.024561000000000003,-0.000268,0.053073
365,1.156788,-1.4212850000000001,0.213804,0.1363,0.9888440000000001,-0.059891,-0.043657999999999995,0.026402999999999996,-0.019825,0.016883000000000002,-0.00305,0.04805
366,1.160556,-1.422136,0.21828899999999998,0.13575399999999999,0.9889700000000001,-0.059042,-0.02888,-0.030023,-0.041014,0.015430000000000001,0.026029000000000004,0.04392
367,1.161135,-1.4231260000000001,0.21905500000000003,0.134889,0.989116,-0.058573,-0.011647,-0.008718,-0.055876,0.005797,0.025486,0.046839
368,1.156986,-1.424208,0.21484,0.133665,0.989275,-0.058700999999999996,0.022622,0.009315,-0.066342,0.0017109999999999998,0.019911,0.053559
369,1.151657,-1.425196,0.20880900000000002,0.132459,0.989419,-0.059016,0.027048000000000003,0.046576,-0.064222,0.003314,0.011466,0.053278
370,1.1469770000000001,-1.4260110000000001,0.202544,0.131443,0.9895370000000001,-0.059302,0.031435000000000005,0.08061900000000001,-0.056758,0.009059999999999999,0.015880000000000002,0.038687
371,1.141601,-1.426603,0.194915,0.130588,0.9896219999999999,-0.059763,0.054045,0.136957,-0.045989999999999996,0.007718000000000001,0.022675999999999998,0.013621000000000001
372,1.134507,-1.4269120000000002,0.185338,0.129882,0.989667,-0.060558,0.06776599999999999,0.10600799999999999,-0.043718,0.003266,0.022281,0.027081
373,1.123695,-1.42692,0.172525,0.129212,0.989668,-0.061954999999999996,0.094337,0.086727,-0.040303,0.009842,0.010119,0.045292
374,1.11195,-1.426685,0.15873800000000002,0.128682,0.989634,-0.063571,0.098638,0.10584,-0.028547000000000003,0.016153999999999998,-0.0056560000000000004,0.05678
375,1.10291,-1.426148,0.14715599999999998,0.128575,0.989557,-0.06497,0.08477799999999999,0.12923900000000002,-0.007309,0.013956999999999999,-0.006662,0.053359000000000004
376,1.096981,-1.42546,0.13843699999999998,0.128794,0.9894569999999999,-0.06604199999999999,0.07198500000000001,0.143085,0.004334,0.015156999999999999,-0.005189,0.037051
377,1.09301,-1.424721,0.13152,0.12918,0.98935,-0.066889,0.064474,0.136707,0.007495,0.015275,0.014372999999999999,0.025981
378,1.0881379999999998,-1.424189,0.12461400000000002,0.12931800000000002,0.9892719999999999,-0.067762,0.061,0.0569,-0.011655,0.002167,0.024155000000000003,0.013151
379,1.079346,-1.424051,0.11544600000000001,0.128841,0.989252,-0.068962,0.076883,0.008993000000000001,-0.032848,0.000874,0.006979000000000001,0.033348
380,1.06733,-1.423826,0.10286600000000001,0.128196,0.9892190000000001,-0.070612,0.097264,0.029179000000000004,-0.037004,0.0037770000000000004,0.0068590000000000005,0.029917000000000003
381,1.054958,-1.423431,0.089544,0.12765,0.9891610000000001,-0.072384,0.100551,0.055769000000000006,-0.029538,0.004536999999999999,0.002034,0.04063
382,1.04342,-1.42276,0.07607699999999999,0.127379,0.9890629999999999,-0.074185,0.104996,0.10896199999999999,-0.015688,0.0025800000000000003,0.010860999999999999,0.034268
383,1.0335459999999999,-1.421901,0.063958,0.12737,0.988936,-0.075874,0.10489000000000001,0.092954,-0.008190000000000001,0.001186,0.008562,0.023384000000000002
384,1.022211,-1.420868,0.051133,0.127372,0.9887819999999999,-0.07784500000000001,0.117486,0.048163,-0.006977,-0.0029059999999999997,0.012653,0.015604
385,1.0106979999999999,-1.419865,0.038497,0.127306,0.9886309999999999,-0.079832,0.10478499999999999,0.070579,-0.007094,0.009474,0.000672,0.019727
386,1.001184,-1.418893,0.026927999999999997,0.127348,0.9884850000000001,-0.08155599999999999,0.10707699999999999,0.105725,-0.007123,0.008989,-0.001348,0.025175
387,0.9907889999999999,-1.4178979999999999,0.01454,0.127315,0.988334,-0.083414,0.103771,0.078056,-0.011384,-0.002559,0.001626,0.007104999999999999
388,0.9805709999999999,-1.4171479999999999,0.002741,0.12706900000000002,0.9882190000000001,-0.085121,0.09735,0.063208,-0.022091999999999997,-0.003351,0.008683,0.002327
389,0.968825,-1.4164219999999998,-0.010103000000000001,0.12665099999999999,0.988108,-0.087013,0.107981,0.048282,-0.028408,0.009076,0.008489,0.021508000000000003
390,0.957033,-1.415735,-0.023168,0.126168,0.988002,-0.08889,0.098432,0.057912,-0.030623,0.005804999999999999,0.0066879999999999995,0.015694
391,0.9464899999999999,-1.4152559999999998,-0.034908999999999996,0.125607,0.987928,-0.090491,0.08669600000000001,0.051587,-0.037106,0.0007059999999999999,0.004,0.019949
392,0.935074,-1.414847,-0.047506,0.12489000000000001,0.987864,-0.092158,0.098441,0.048371,-0.042361,-0.006314,-0.000743,0.015619999999999998
393,0.923782,-1.414424,-0.060001,0.124173,0.987799,-0.093813,0.08673,0.054799,-0.041382999999999996,-0.005658,-0.000799,0.012941999999999999
394,0.913573,-1.414104,-0.071324,0.123458,0.987749,-0.09526799999999999,0.07921399999999999,0.042051,-0.043556,-0.002532,0.005339,0.006874
395,0.9030549999999999,-1.413975,-0.082478,0.12255,0.9877290000000001,-0.09664099999999999,0.072726,0.014411000000000002,-0.052112,0.002877,0.009067,0.002815
396,0.8910620000000001,-1.413828,-0.094584,0.121496,0.987706,-0.098196,0.087538,-0.0144,-0.053038999999999996,0.0037479999999999996,0.00025499999999999996,0.00472
397,0.877533,-1.4133879999999999,-0.10759300000000001,0.12048900000000001,0.9876370000000001,-0.100107,0.0959,-0.044291000000000004,-0.044397000000000006,0.006296,0.005848,0.010309
398,0.8651059999999999,-1.412803,-0.11910699999999999,0.119675,0.9875450000000001,-0.10197,0.082973,-0.059211,-0.031649000000000004,0.005722,0.010136,0.012508
399,0.854195,-1.412333,-0.128686,0.118904,0.9874709999999999,-0.103574,0.071161,-0.078336,-0.033844,0.006996,0.007051000000000001,0.015241
400,0.843108,-1.411965,-0.13825,0.118019,0.9874129999999999,-0.105127,0.070094,-0.083637,-0.039186,0.013848,0.0043630000000000006,0.019495
401,0.8323649999999999,-1.411591,-0.14749500000000001,0.117154,0.9873540000000001,-0.106636,0.067951,-0.080456,-0.033864,0.012545,0.006696,0.018897999999999998
402,0.82295,-1.41107,-0.15532,0.11652,0.9872709999999999,-0.108082,0.064654,-0.08795700000000001,-0.01999,-4e-06,0.0052060000000000006,0.023213
403,0.81384,-1.410369,-0.16269,0.116033,0.987159,-0.109614,0.069931,-0.093331,-0.012469,-0.007421,0.004281,0.017985
404,0.805689,-1.40964,-0.16902799999999998,0.11565399999999999,0.987042,-0.111053,0.062434,-0.095453,-0.008246,-0.010704,0.01369,0.009872
405,0.798855,-1.408866,-0.17407999999999998,0.11543800000000001,0.9869180000000001,-0.112372,0.0571,-0.088007,-0.0008150000000000001,-0.013784000000000001,0.016332,0.008261
406,0.792313,-1.407979,-0.179041,0.11532200000000001,0.986775,-0.113738,0.06353500000000001,-0.07420700000000001,0.005622,-0.022885,0.01968,0.012268000000000001
407,0.7862560000000001,-1.406908,-0.183896,0.115381,0.9866,-0.115183,0.072103,-0.058292,0.014207,-0.030206999999999998,0.015138999999999998,0.012949
408,0.780389,-1.405562,-0.18873800000000002,0.115639,0.9863799999999999,-0.11680399999999999,0.08169,-0.050911,0.024947,-0.035622,0.013880000000000002,0.012357
409,0.774725,-1.403964,-0.19355799999999998,0.116077,0.986116,-0.11858099999999999,0.08809600000000001,-0.043502,0.031391,-0.034747,0.010024,0.0047350000000000005
410,0.769451,-1.4023809999999999,-0.198203,0.11653699999999999,0.9858520000000001,-0.120314,0.084963,-0.028576999999999998,0.03135,-0.032095,0.018741,0.00125
411,0.763564,-1.400992,-0.203875,0.116775,0.985618,-0.12198900000000001,0.085155,-0.0061259999999999995,0.011027,-0.03215,0.006692,0.0010789999999999999
412,0.756196,-1.399912,-0.211544,0.116605,0.9854350000000001,-0.123623,0.084303,0.017412,-0.013578999999999999,-0.026182,0.002084,-0.0028120000000000003
413,0.7486550000000001,-1.399192,-0.219646,0.116154,0.9853120000000001,-0.12501900000000002,0.066268,0.022869999999999998,-0.030802999999999997,-0.025730000000000003,0.002206,-0.001415
414,0.741582,-1.3991209999999998,-0.22720100000000001,0.11531400000000001,0.9853,-0.125889,0.03625,0.016434999999999998,-0.038392,-0.013645,0.009893,-0.016368
415,0.73621,-1.3994010000000001,-0.232825,0.114451,0.985348,-0.126303,0.017008000000000002,0.004797,-0.041717000000000004,-0.014399,0.0107,-0.017587000000000002
416,0.731374,-1.399774,-0.237598,0.113593,0.985411,-0.126581,0.013725999999999999,-0.012241,-0.040649,-0.013434,0.012071,-0.014456
417,0.725955,-1.400089,-0.242652,0.1127,0.9854649999999999,-0.12696300000000002,0.018984,-0.026121,-0.03739,-0.01457,0.00541,-0.005239
418,0.720536,-1.400207,-0.24744899999999997,0.11193299999999999,0.985485,-0.127484,0.022098,-0.036818000000000004,-0.028808999999999998,-0.010813,0.00713,-0.003558
419,0.7163649999999999,-1.400128,-0.250805,0.111451,0.9854719999999999,-0.12800899999999998,0.019844,-0.045406,-0.010654,-0.011613,0.009646,-0.0052770000000000004
420,0.7139850000000001,-1.3998,-0.25226,0.11135899999999999,0.985416,-0.128518,0.018667,-0.047622000000000005,0.011773,-0.017502,0.020673,-0.008933
421,0.713086,-1.399262,-0.252183,0.11159100000000001,0.985324,-0.129021,0.020744,-0.04768,0.024606,-0.023746,0.017667,-0.011528
422,0.71259,-1.398555,-0.251724,0.111983,0.985203,-0.129604,0.02418,-0.043253,0.029549000000000002,-0.025633999999999997,0.015072,-0.011921
423,0.712377,-1.397801,-0.25116900000000003,0.11244200000000001,0.985074,-0.130191,0.024204,-0.036866,0.030608999999999997,-0.021881,0.009571,-0.014386000000000001
424,0.7124189999999999,-1.397025,-0.250407,0.112948,0.9849399999999999,-0.13076500000000002,0.025261000000000002,-0.035817,0.033819999999999996,-0.018954,0.014388999999999999,-0.014605000000000002
425,0.7124010000000001,-1.396209,-0.24972600000000003,0.113471,0.984798,-0.131376,0.026327999999999997,-0.033699,0.035961,-0.017172999999999997,0.016819,-0.012576
426,0.712487,-1.395399,-0.24894899999999998,0.114005,0.984657,-0.131971,0.025294999999999998,-0.031543,0.030610000000000002,-0.020513999999999998,0.01693,-0.009692000000000001
427,0.711807,-1.394685,-0.249096,0.114375,0.984532,-0.132581,0.028562,-0.023007,0.024213,-0.019969,0.009623,-0.004107
428,0.710731,-1.394145,-0.24982100000000002,0.114579,0.9844379999999999,-0.133108,0.021186,-0.015472999999999999,0.011333,-0.02205,0.006620999999999999,-0.00413
429,0.709792,-1.393851,-0.250461,0.11464300000000001,0.9843860000000001,-0.133435,0.009484000000000001,-0.015402,0.003773,-0.021075999999999998,0.004353,-0.002078
430,0.7089439999999999,-1.393881,-0.250938,0.11451099999999999,0.984391,-0.13351,-0.006961,-0.021412999999999998,-0.000786,-0.018777000000000002,0.0075829999999999995,-0.0036659999999999996
431,0.708762,-1.3942350000000001,-0.25062,0.11425899999999999,0.984453,-0.133266,-0.021873,-0.023462,-0.008365000000000001,-0.020692,0.007658,0.000118
432,0.709396,-1.3947829999999999,-0.24958200000000003,0.11399200000000001,0.98455,-0.13278399999999999,-0.029298,-0.014909,-0.009496,-0.024896,0.011743,-0.000425
433,0.7103109999999999,-1.395411,-0.24841100000000002,0.11370999999999999,0.9846590000000001,-0.132211,-0.032489,-0.010645,-0.007388,-0.023882,0.016699000000000002,0.000893
434,0.7117319999999999,-1.395973,-0.24678200000000003,0.11353699999999999,0.984757,-0.13163,-0.029298,-0.006421,-0.0009609999999999999,-0.026699,0.015533000000000002,0.004494
435,0.713603,-1.396375,-0.244854,0.113523,0.984827,-0.131117,-0.025001,0.002078,0.001194,-0.026014,0.015158000000000001,0.005202
436,0.7152029999999999,-1.396678,-0.24352100000000002,0.11353699999999999,0.98488,-0.13071,-0.017461,0.021214,0.004427,-0.026699,0.013030000000000002,0.005832
437,0.717029,-1.396898,-0.242272,0.113633,0.9849180000000001,-0.130339,-0.015275,0.036107,0.007628,-0.026368,0.012305,0.002654
438,0.719668,-1.39707,-0.240479,0.11386500000000001,0.9849479999999999,-0.129912,-0.018428,0.048893,0.009726,-0.024327,0.016685,0.00099
439,0.722825,-1.3972,-0.23841500000000002,0.11419000000000001,0.9849700000000001,-0.129456,-0.014131,0.060575,0.015082,-0.026468000000000002,0.024643,0.004517
440,0.726114,-1.397159,-0.23633800000000002,0.11464200000000001,0.9849629999999999,-0.12911,-0.00774,0.06372699999999999,0.020464,-0.028811,0.023185,0.0024920000000000003
441,0.729965,-1.397065,-0.23385100000000003,0.115201,0.9849469999999999,-0.128737,-0.011959000000000001,0.077577,0.023621,-0.037717,0.023644,0.010832
442,0.734398,-1.397024,-0.23125199999999999,0.11579600000000001,0.9849399999999999,-0.128254,-0.013944,0.10636400000000001,0.019296999999999998,-0.043073,0.01619,0.019108
443,0.738977,-1.3970770000000001,-0.22916399999999998,0.116346,0.984949,-0.127682,-0.0127,0.139409,0.012853999999999999,-0.039731999999999996,0.012091,0.018597
444,0.743541,-1.397224,-0.227586,0.11682999999999999,0.984974,-0.12704300000000002,-0.0158,0.155425,0.006403,-0.036706,0.005016,0.015380000000000001
445,0.747908,-1.397504,-0.226338,0.11719500000000001,0.985022,-0.126329,-0.018977,0.15545699999999998,0.0010400000000000001,-0.027808999999999997,0.0044340000000000004,0.01381
446,0.751467,-1.39809,-0.22573000000000001,0.117248,0.985123,-0.125487,-0.02855,0.143845,-0.017172,-0.01596,0.011398,0.012251999999999999
447,0.753953,-1.399154,-0.225971,0.11684100000000001,0.9853059999999999,-0.124431,-0.041280000000000004,0.134405,-0.042886,-0.004476,0.014328,0.020518
448,0.755163,-1.400828,-0.227331,0.11586099999999999,0.98559,-0.12308699999999999,-0.05934,0.123926,-0.070773,0.004562,0.008078,0.021571
449,0.755617,-1.403055,-0.22919099999999998,0.114409,0.985964,-0.12143499999999999,-0.076391,0.11020999999999999,-0.089034,0.016191,0.008939,0.020391
450,0.756192,-1.405526,-0.23060100000000003,0.11280499999999999,0.986374,-0.119594,-0.082883,0.089992,-0.089054,0.017856,0.014618,0.018657
451,0.757297,-1.4078629999999999,-0.23107600000000003,0.111351,0.986756,-0.11779200000000001,-0.080888,0.070763,-0.077264,0.015877000000000002,0.014862,0.014505
452,0.760053,-1.41003,-0.229344,0.110197,0.9871049999999999,-0.11592999999999999,-0.089634,0.041957999999999995,-0.059128999999999994,0.013322,-0.002516,0.016092
453,0.7657619999999999,-1.412083,-0.224135,0.109449,0.987431,-0.11383399999999999,-0.107982,0.018491999999999998,-0.035726,0.011217,-0.012440999999999999,0.009845
454,0.774423,-1.414117,-0.215373,0.109023,0.987751,-0.11144200000000001,-0.12632000000000002,-0.01027,-0.019794,0.010591,0.0023,0.003761
455,0.7854760000000001,-1.416126,-0.20386400000000002,0.10884100000000001,0.9880620000000001,-0.108824,-0.132798,-0.013499,-0.005947999999999999,0.007201999999999999,0.006215999999999999,0.011625
456,0.797496,-1.417735,-0.191841,0.109,0.988309,-0.106394,-0.110302,0.020456000000000002,0.008052,-0.000938,0.004520000000000001,0.028666000000000004
457,0.8086300000000001,-1.418662,-0.18162,0.10951300000000001,0.98845,-0.104539,-0.078153,0.068217,0.024239,-0.008362,0.016082,0.032746
458,0.818782,-1.419057,-0.173073,0.11027999999999999,0.98851,-0.103153,-0.050342000000000005,0.091526,0.031881,-0.019155000000000002,0.008072,0.033267000000000005
459,0.82691,-1.419094,-0.166971,0.11108699999999999,0.9885149999999999,-0.102227,-0.027814,0.112778,0.025602,-0.00957,0.011058,0.031472
460,0.832965,-1.419089,-0.163651,0.111705,0.9885149999999999,-0.10155399999999999,-0.008346,0.15750799999999998,0.011793000000000001,-0.001033,0.009883,0.032264
461,0.836052,-1.418914,-0.164425,0.112149,0.9884879999999999,-0.101326,0.028234,0.210704,-0.0029739999999999996,0.0060609999999999995,0.013419,0.039177
462,0.8326020000000001,-1.418456,-0.172345,0.112133,0.988419,-0.102016,0.110545,0.214806,-0.034451,0.020939,0.00621,0.081127
463,0.806876,-1.416032,-0.200818,0.111204,0.9880479999999999,-0.106527,0.298867,0.067271,-0.066062,-0.007215000000000001,0.026372000000000003,0.010671
464,0.7801710000000001,-1.4133069999999999,-0.227992,0.11021500000000001,0.987624,-0.111373,0.178841,-0.019791,-0.034742,-0.015824,0.011796,-0.023178999999999998
465,0.778209,-1.4132930000000001,-0.229423,0.11000599999999999,0.9876219999999999,-0.111599,-0.074197,-0.023321,0.0019510000000000003,-0.010641,-0.009824,-0.03545
466,0.793983,-1.415291,-0.213387,0.11034400000000001,0.987933,-0.108466,-0.177964,0.002591,0.018369,-0.0012289999999999998,-1.8e-05,0.012747
467,0.81463,-1.417584,-0.192524,0.110911,0.9882860000000001,-0.104609,-0.187632,-0.001679,0.028988999999999997,-0.005991,0.002269,0.037897
468,0.8347479999999999,-1.4194719999999998,-0.172291,0.111607,0.9885719999999999,-0.101102,-0.16733299999999998,0.013130000000000001,0.037658,-0.00533,0.004775,0.040005
469,0.851785,-1.4209040000000002,-0.155621,0.112246,0.9887870000000001,-0.098251,-0.129849,0.033286,0.026143,0.0013859999999999999,0.021802000000000002,0.034393
470,0.8629290000000001,-1.421849,-0.144527,0.112622,0.988928,-0.096385,-0.070249,-0.012674,0.012731999999999999,0.015308,0.026468000000000002,0.017787
471,0.8660260000000001,-1.422245,-0.140376,0.112621,0.9889870000000001,-0.095782,-0.017107,-0.069272,0.001425,0.017262,0.032437,0.012423
472,0.864772,-1.422298,-0.139741,0.11245999999999999,0.988994,-0.095888,0.0051530000000000005,-0.10237,0.000554,-0.004886,0.020054,-0.004347
473,0.8630899999999999,-1.422334,-0.13941800000000001,0.11227000000000001,0.989,-0.096052,-0.002933,-0.09578099999999999,-0.000557,-0.014263,0.01747,-0.00374
474,0.8617290000000001,-1.422403,-0.13905499999999998,0.11208800000000001,0.9890100000000001,-0.096161,-0.003918,-0.078729,-0.0016539999999999999,-0.014828999999999998,0.014912,0.003052
475,0.861634,-1.422368,-0.137929,0.112106,0.9890049999999999,-0.096195,-0.0027649999999999997,-0.047887,0.010065000000000001,-0.016569999999999998,-0.001349,0.020130000000000002
476,0.862818,-1.422036,-0.13614,0.11247,0.988956,-0.096276,0.003669,-0.021353999999999998,0.029304000000000004,-0.017224,-0.002902,0.030160000000000003
477,0.865403,-1.42124,-0.133415,0.113318,0.9888370000000001,-0.096496,0.013276,0.004079999999999999,0.053908000000000005,-0.018515,-0.001609,0.031005
478,0.868815,-1.420079,-0.130106,0.114525,0.988664,-0.09685099999999999,0.026011000000000003,0.0039759999999999995,0.068952,-0.012352,-0.006333,0.035725
479,0.872334,-1.418655,-0.126839,0.115945,0.988449,-0.097355,0.027174,0.030583,0.074267,-0.017511000000000002,0.00969,0.041859
480,0.8790879999999999,-1.417546,-0.121528,0.11744500000000001,0.9882799999999999,-0.09726900000000001,-0.010869,0.102128,0.064296,-0.021024,0.009553,0.035761
481,0.8886299999999999,-1.41734,-0.114482,0.118523,0.9882489999999999,-0.09627100000000001,-0.050006999999999996,0.14394300000000002,0.030854000000000003,-0.01896,0.007906,0.019472999999999997
482,0.902043,-1.41829,-0.10442,0.11906800000000001,0.9883930000000001,-0.094091,-0.10836300000000001,0.187935,0.002616,-0.011127,0.000117,0.003667
483,0.9188700000000001,-1.420188,-0.091399,0.11914200000000001,0.9886799999999999,-0.090935,-0.142378,0.192409,-0.021128,0.0007769999999999999,-0.0022760000000000002,-0.003899
484,0.935702,-1.422392,-0.07794,0.118897,0.989008,-0.087621,-0.142484,0.16579000000000002,-0.024299,0.004928,0.0006309999999999999,0.000157
485,0.950174,-1.4244940000000001,-0.066077,0.11846,0.989317,-0.08468099999999999,-0.120247,0.121001,-0.031564,0.010553,0.012438,0.005823
486,0.961,-1.426072,-0.057179999999999995,0.11808699999999998,0.9895459999999999,-0.082497,-0.08417999999999999,0.084617,-0.021652,0.007035,0.012133,0.007317000000000001
487,0.968901,-1.426875,-0.050556,0.11807899999999999,0.989661,-0.081111,-0.0524,0.060962,0.005306,0.005258,0.016809,0.00938
488,0.9747549999999999,-1.426982,-0.045423000000000005,0.11846400000000001,0.989676,-0.080359,-0.022762,0.022453,0.019449,0.001134,0.009606,0.012229
489,0.977433,-1.426626,-0.04278,0.11897100000000001,0.989625,-0.080238,0.00055,-0.0053560000000000005,0.027125,-0.014006000000000001,0.002669,0.011970999999999999
490,0.980252,-1.425964,-0.039838,0.119743,0.9895299999999999,-0.08026900000000001,-0.000588,-0.0022329999999999997,0.046342,-0.015785,-0.000379,0.009315
491,0.986665,-1.4251790000000002,-0.033607,0.120904,0.989416,-0.079928,-0.025097,0.023343,0.065366,0.004569,0.011118000000000001,0.001956
492,0.99716,-1.424393,-0.023897,0.12239100000000001,0.989302,-0.079078,-0.04421,0.053199,0.074808,0.016479,0.004869,-0.003258
493,1.00939,-1.423516,-0.012575,0.124081,0.989174,-0.07803600000000001,-0.042148000000000005,0.048882999999999996,0.086578,0.015750999999999998,0.005425,0.006869
494,1.0199120000000002,-1.4225940000000001,-0.002745,0.125673,0.989038,-0.077204,-0.032556,0.035048,0.074912,0.014403000000000001,-0.003015,0.029016000000000004
495,1.0287190000000002,-1.422057,0.005501,0.126804,0.988959,-0.076369,-0.044167000000000005,0.029894999999999998,0.041723,0.01643,-0.005255,0.033675
496,1.037223,-1.422326,0.013724,0.127219,0.988999,-0.075152,-0.06970900000000001,0.00882,0.00632,0.021966,-0.0037840000000000005,0.029833
497,1.046337,-1.423355,0.02316,0.12701700000000002,0.98915,-0.073479,-0.093204,-0.024011,-0.021575,0.021573,0.000733,0.026238
498,1.055831,-1.4248120000000002,0.033676,0.12645,0.9893629999999999,-0.07155800000000001,-0.10614100000000001,-0.060159000000000004,-0.028029000000000002,0.023712,0.002855,0.025613
499,1.066006,-1.426334,0.045536,0.125852,0.989583,-0.069538,-0.110552,-0.08891900000000001,-0.024818,0.022418,0.005442,0.029361
500,1.077797,-1.427651,0.059378,0.12551099999999998,0.989772,-0.06743099999999999,-0.11599200000000001,-0.09429900000000001,-0.006689,0.016456000000000002,0.01038,0.035235
501,1.090184,-1.428848,0.074047,0.12528499999999998,0.989942,-0.065322,-0.11608800000000001,-0.115605,-0.006663,0.013174000000000002,0.012010999999999999,0.036315
502,1.101504,-1.430007,0.088025,0.124991,0.9901059999999999,-0.06337999999999999,-0.108677,-0.13477999999999998,-0.012996,0.00506,0.007148000000000001,0.045222000000000005
503,1.110717,-1.431232,0.100232,0.124481,0.9902770000000001,-0.061687,-0.099085,-0.145432,-0.021461,0.003692,0.006548999999999999,0.045558
504,1.119302,-1.432459,0.11183,0.12391300000000001,0.990447,-0.060085,-0.095846,-0.141165,-0.025717,0.0046429999999999996,0.008928,0.046612
505,1.127672,-1.433737,0.122754,0.12326400000000001,0.9906219999999999,-0.058502,-0.08932999999999999,-0.116682,-0.026771,0.007365999999999999,0.008431999999999999,0.042175
506,1.135528,-1.434765,0.132905,0.12279200000000001,0.990762,-0.0571,-0.074398,-0.10719000000000001,-0.015996,0.012645,0.006751000000000001,0.044756
507,1.142423,-1.435538,0.141845,0.122484,0.990866,-0.055933000000000004,-0.066911,-0.094467,-0.007415000000000001,0.016783000000000003,0.006494,0.047632
508,1.149857,-1.4361030000000001,0.151198,0.12238099999999999,0.990943,-0.05479,-0.060538999999999996,-0.093454,0.000106,0.01951,0.012109,0.046031
509,1.156382,-1.43662,0.159735,0.12226400000000001,0.9910120000000001,-0.053783000000000004,-0.058414999999999995,-0.098775,-0.003077,0.019017,0.01114,0.046168
510,1.162239,-1.437189,0.167674,0.122056,0.991088,-0.05284,-0.05948200000000001,-0.10301500000000001,-0.007352,0.018462,0.006944,0.042052
511,1.168505,-1.437808,0.176151,0.12181800000000001,0.9911700000000001,-0.051833000000000004,-0.058434,-0.111524,-0.011606,0.020318,0.0106,0.044036
512,1.173884,-1.438408,0.183912,0.121545,0.99125,-0.050946,-0.05313300000000001,-0.11793800000000002,-0.010493,0.01554,0.006659999999999999,0.048108
513,1.1785709999999998,-1.438986,0.191063,0.121249,0.991326,-0.050156,-0.052085,-0.12114200000000001,-0.009413,0.012692,0.006996,0.047867
514,1.1843629999999998,-1.439484,0.199349,0.121076,0.991391,-0.049264999999999996,-0.05530499999999999,-0.12327,-0.007297,0.006564,0.007373,0.049722
515,1.189424,-1.439997,0.206887,0.12085,0.991458,-0.048461000000000004,-0.053147,-0.11901199999999999,-0.008355,0.00148,0.008405,0.049972
516,1.1947020000000002,-1.440467,0.214471,0.12066700000000001,0.991519,-0.04765,-0.047775,-0.108386,-0.006195,0.002227,0.009152,0.050351
517,1.199489,-1.440878,0.221419,0.120512,0.9915719999999999,-0.046924,-0.041416,-0.106485,-0.007297,0.000429,0.013402,0.048511
518,1.203114,-1.44126,0.22698200000000002,0.120325,0.9916219999999999,-0.046349,-0.034938,-0.088403,-0.006207,-0.002802,0.014297999999999998,0.048027999999999994
519,1.206858,-1.441627,0.232314,0.12015799999999999,0.991669,-0.045769,-0.034871,-0.070306,-0.003025,-0.000941,0.016525,0.046715
520,1.2102709999999999,-1.442036,0.23709000000000002,0.11993399999999999,0.9917219999999999,-0.045215,-0.029479,-0.06602899999999999,-0.011539,-0.000198,0.017357,0.052142999999999995
521,1.211926,-1.442525,0.239998,0.119554,0.991785,-0.044846,-0.018739,-0.057515,-0.018952,-0.000733,0.011313,0.05368099999999999
522,1.2121979999999999,-1.443084,0.241352,0.119047,0.991856,-0.044619,-0.011212999999999999,-0.052185,-0.026383999999999998,0.002321,0.016947999999999998,0.04938
523,1.2122030000000001,-1.443691,0.24222399999999997,0.11848299999999999,0.991933,-0.044407,-0.009012000000000001,-0.037278,-0.026387999999999998,-0.002135,0.013636,0.048573000000000005
524,1.211114,-1.444256,0.24180300000000002,0.11790999999999999,0.9920040000000001,-0.044338999999999996,-0.002578,-0.033027,-0.029552999999999996,1e-05,0.009276999999999999,0.048123
525,1.209859,-1.444934,0.24091100000000001,0.11722300000000001,0.9920899999999999,-0.044249000000000004,-0.003515,-0.010627,-0.035997,0.0106,0.006232,0.04434
526,1.208992,-1.44569,0.239914,0.11648199999999999,0.9921840000000001,-0.044084,-0.002328,0.011757,-0.040291,0.015903,-0.001431,0.043184
527,1.206626,-1.446492,0.237531,0.11563299999999999,0.992284,-0.044076,0.007206000000000001,-0.009556,-0.046606,0.023176,-0.000356,0.041894
528,1.20271,-1.4473479999999999,0.23427800000000001,0.114667,0.99239,-0.044223,0.011276999999999999,-0.054308,-0.047589,0.012882,-0.001347,0.045398
529,1.19749,-1.448058,0.23043200000000003,0.113778,0.992477,-0.044564,0.011156999999999999,-0.07563500000000001,-0.042220999999999995,0.004797999999999999,-0.002121,0.051507000000000004
530,1.193254,-1.448736,0.227462,0.11296300000000001,0.99256,-0.044797000000000003,0.0059240000000000004,-0.053246,-0.042286000000000004,-7.900000000000001e-05,0.001428,0.054028999999999994
531,1.190294,-1.449532,0.225005,0.112095,0.992656,-0.044838,0.001872,-0.013781999999999999,-0.050911,-0.003071,0.011753,0.047538
532,1.186034,-1.450479,0.22089,0.11103099999999999,0.992771,-0.044961,0.014731999999999999,-0.010592,-0.060439,-0.010064,0.016858,0.047678
533,1.179425,-1.4514479999999998,0.21436100000000002,0.10984200000000001,0.992886,-0.045327,0.025434000000000002,-0.003173,-0.060374000000000004,-0.017006999999999998,0.014315999999999999,0.043939
534,1.17125,-1.45221,0.20590999999999998,0.108771,0.992977,-0.045929000000000005,0.040451999999999995,0.023372,-0.051757000000000004,-0.023429,0.019047,0.043366
535,1.161856,-1.452611,0.19561800000000001,0.10797000000000001,0.993024,-0.046791,0.058641,0.049881,-0.036709,-0.025313,0.024462,0.040611
536,1.151209,-1.452465,0.183636,0.107598,0.993007,-0.047997000000000005,0.081036,0.072075,-0.012012,-0.032967,0.021535,0.036248
537,1.1391360000000001,-1.451742,0.16955599999999998,0.10766400000000001,0.9929209999999999,-0.049593,0.10245399999999999,0.109208,0.007318000000000001,-0.038007,0.015562000000000001,0.040118
538,1.1263729999999998,-1.450577,0.154133,0.10806900000000001,0.9927819999999999,-0.051462,0.116381,0.135736,0.021268000000000002,-0.031546,0.012558,0.035608
539,1.113393,-1.449131,0.138195,0.10868299999999999,0.992608,-0.053496,0.123849,0.144198,0.029855,-0.025355000000000003,0.014518000000000001,0.033766000000000004
540,1.10007,-1.447415,0.121985,0.109482,0.992398,-0.055713,0.13335,0.13134300000000002,0.039552,-0.017457,0.012744,0.034533999999999995
541,1.086095,-1.445489,0.10541700000000001,0.11039000000000002,0.992159,-0.058132,0.139665,0.119573,0.047089,-0.014825,0.007215000000000001,0.035106
542,1.073084,-1.4434209999999998,0.08999299999999999,0.11143099999999999,0.991899,-0.060545,0.13958299999999998,0.109951,0.055647,-0.008145,0.007979,0.030119
543,1.0608440000000001,-1.441001,0.075552,0.112782,0.9915879999999999,-0.063078,0.14055,0.099248,0.06741699999999999,-0.006840000000000001,0.011036,0.03221
544,1.049615,-1.4384290000000002,0.062456,0.114281,0.991252,-0.065613,0.141492,0.08003500000000001,0.075994,-0.006645999999999999,0.013402,0.031402
545,1.039123,-1.435746,0.05049,0.11588299999999999,0.9908950000000001,-0.06815800000000001,0.139253,0.059789999999999996,0.079209,-0.0070420000000000005,0.00581,0.028332999999999997
546,1.029474,-1.4331459999999998,0.039613,0.11742999999999999,0.990541,-0.070602,0.129656,0.054523,0.07274,-0.006468000000000001,0.000624,0.023804
547,1.0205870000000001,-1.4308239999999999,0.029474,0.11875999999999999,0.9902200000000001,-0.07284600000000001,0.119083,0.061011,0.057701999999999996,-0.001999,-0.001344,0.017518000000000002
548,1.012882,-1.428896,0.020472999999999998,0.119815,0.989949,-0.07477,0.10418499999999999,0.056853999999999995,0.044785000000000005,0.001935,-0.001836,0.007159
549,1.00504,-1.427201,0.011518,0.12064100000000001,0.989708,-0.07660700000000001,0.098861,0.048393,0.034076999999999996,0.001444,-0.000755,0.007148999999999999
550,0.9970600000000001,-1.425743,0.002694,0.12123699999999998,0.989498,-0.07835,0.09135399999999999,0.030348000000000003,0.024433,0.00509,0.003498,0.004101
551,0.989168,-1.424504,-0.005744,0.121643,0.989318,-0.07998,0.088134,0.01761,0.015881,0.008301000000000001,0.013672,0.00805
552,0.980361,-1.423266,-0.014794999999999999,0.12195399999999999,0.989137,-0.081732,0.09128700000000001,0.004824,0.013783000000000002,0.010218000000000001,0.014586000000000002,0.010229
553,0.970884,-1.421959,-0.024427,0.122241,0.988944,-0.08361299999999999,0.101922,-0.001609,0.014934000000000001,0.012739,0.0037619999999999997,0.007976
554,0.961043,-1.420456,-0.034106,0.122629,0.98872,-0.085663,0.10393599999999999,-0.01976,0.023517,0.019186,-2.7000000000000002e-05,0.006912000000000001
555,0.952095,-1.4188020000000001,-0.042566,0.12319000000000001,0.9884709999999999,-0.08770499999999999,0.098467,-0.037898,0.035253,0.01832,-0.001395,0.01344
556,0.945149,-1.416987,-0.048543,0.12403099999999999,0.988195,-0.08960900000000001,0.087612,-0.06136900000000001,0.053367,0.00782,-0.006993000000000001,0.017190999999999998
557,0.9402950000000001,-1.414954,-0.052016,0.125218,0.9878809999999999,-0.091395,0.078933,-0.07526000000000001,0.071484,0.0033979999999999995,-0.006726,0.018885
558,0.9372020000000001,-1.412784,-0.053653,0.126663,0.987542,-0.093051,0.073585,-0.069949,0.079985,-0.005478,0.00611,0.01665
559,0.9350440000000001,-1.4106940000000001,-0.054805999999999994,0.128124,0.9872110000000001,-0.094551,0.07269,-0.039023,0.072462,-0.042904000000000005,-0.000303,0.020697999999999998
560,0.9327850000000001,-1.408747,-0.05680399999999999,0.129456,0.986899,-0.095986,0.06968099999999999,-0.0017059999999999998,0.067052,-0.047195999999999995,0.006097999999999999,0.01339
561,0.931415,-1.40688,-0.058322000000000006,0.130805,0.9865959999999999,-0.097264,0.06436599999999999,0.005757,0.07021000000000001,-0.037665,0.013847,-0.002986
562,0.9306840000000001,-1.405,-0.05903099999999999,0.132223,0.986287,-0.098469,0.063427,-0.0068579999999999995,0.075573,-0.032126,0.019786,-0.007137
563,0.928883,-1.403039,-0.060466,0.133595,0.9859620000000001,-0.099865,0.074019,-0.025001,0.074602,-0.030842,0.028610000000000003,-0.000217
564,0.924717,-1.401194,-0.063963,0.13463,0.9856520000000001,-0.101516,0.082578,-0.039863,0.054384,-0.034944,0.020725999999999998,0.003249
565,0.9186479999999999,-1.399729,-0.069187,0.13516,0.9854040000000001,-0.103209,0.07839700000000001,-0.047199,0.027658999999999996,-0.032835,0.023247999999999998,0.007856
566,0.910942,-1.398867,-0.076093,0.135033,0.9852559999999999,-0.104768,0.067925,-0.040621,-0.00981,-0.027275999999999998,0.013187,0.011537
567,0.902541,-1.398554,-0.084004,0.134392,0.985203,-0.106091,0.059572,-0.021331,-0.031258,-0.020546000000000002,-0.000752,0.008099
568,0.894393,-1.398498,-0.092086,0.13356700000000002,0.985193,-0.10721800000000001,0.054328999999999995,-0.004255,-0.034520999999999996,-0.009834,-0.002344,0.0034590000000000003
569,0.8876440000000001,-1.398328,-0.098868,0.132971,0.9851639999999999,-0.108224,0.049985,-0.004308,-0.01746,-0.006613,-0.006664,-0.0009369999999999999
570,0.882566,-1.397836,-0.10386400000000001,0.132795,0.98508,-0.109206,0.050553,-0.007614,0.002443,-0.003706,0.009229000000000001,-0.002382
571,0.878635,-1.3971120000000001,-0.107799,0.132916,0.9849549999999999,-0.11018399999999999,0.050553,0.000874,0.010976999999999999,-0.004222999999999999,0.008698000000000001,0.008957
572,0.875074,-1.396255,-0.111696,0.133172,0.984806,-0.111199,0.054893,0.022143,0.016322,-0.0049369999999999995,0.004116,0.009468
573,0.872423,-1.395285,-0.115,0.133609,0.9846370000000001,-0.112167,0.05064,0.03172,0.022688999999999997,0.002102,0.0028350000000000003,0.01213
574,0.8710209999999999,-1.394326,-0.117078,0.134175,0.984469,-0.11296300000000001,0.039937,0.030666000000000002,0.029025,0.00558,0.007337000000000001,0.013368000000000001
575,0.870658,-1.393478,-0.11784800000000001,0.134773,0.9843200000000001,-0.11355,0.029182,0.011529000000000001,0.028974,0.004265,0.003259,0.016184
576,0.8704459999999999,-1.392798,-0.117958,0.135261,0.9842,-0.11400999999999999,0.019469999999999998,-0.017183,0.024669999999999997,0.002785,0.0053479999999999995,0.009472
577,0.8705430000000001,-1.392218,-0.11723399999999999,0.13571,0.9840969999999999,-0.11436500000000001,0.011892,-0.039536,0.026782,0.002077,0.016574000000000002,0.0038
578,0.8706729999999999,-1.39173,-0.116069,0.13609200000000002,0.98401,-0.114658,0.008624,-0.057622,0.023578,-0.00299,0.01634,0.004764
579,0.870497,-1.391313,-0.11501600000000001,0.13638699999999998,0.983936,-0.11494700000000001,0.006490999999999999,-0.061858,0.019296,-0.002735,0.012844,0.0038929999999999998
580,0.8700899999999999,-1.390949,-0.114053,0.136614,0.9838709999999999,-0.11523399999999999,0.006448000000000001,-0.072506,0.018241,0.0008210000000000001,0.009034,-0.000733
581,0.8694940000000001,-1.390603,-0.112977,0.13680499999999998,0.983809,-0.115534,0.001027,-0.089541,0.020361,0.004857,0.004823,-0.006566
582,0.8695229999999999,-1.39038,-0.110909,0.136975,0.983769,-0.11567100000000001,-0.010795,-0.106552,0.022437000000000002,0.000262,0.006404000000000001,-0.004309
583,0.870183,-1.390284,-0.10785399999999999,0.137122,0.9837520000000001,-0.11564,-0.021535,-0.123555,0.021315999999999998,-0.010916,0.004682,-0.00672
584,0.87146,-1.390308,-0.103957,0.13725,0.983756,-0.115448,-0.031150999999999998,-0.127778,0.020186000000000003,-0.022427000000000002,0.002709,-0.000686
585,0.8734620000000001,-1.3904610000000002,-0.09951,0.137363,0.983784,-0.115075,-0.037471,-0.111768,0.017984,-0.031727,0.00404,0.000741
586,0.875966,-1.390719,-0.094948,0.137454,0.98383,-0.114567,-0.040557,-0.090435,0.013663,-0.031283,0.012629999999999999,0.00217
587,0.8781,-1.3911200000000001,-0.09115,0.13739500000000002,0.983902,-0.114021,-0.038308,-0.073364,0.005111,-0.029423,0.021241,-0.00013000000000000002
588,0.8800870000000001,-1.3916190000000002,-0.08790099999999999,0.137242,0.983991,-0.113435,-0.038193,-0.054164,-0.001322,-0.029026999999999997,0.021915,-0.0010220000000000001
589,0.8822780000000001,-1.3922139999999998,-0.084704,0.13703800000000002,0.9840959999999999,-0.11276199999999999,-0.041341,-0.044557,-0.003493,-0.031326,0.020908000000000003,-0.001999
590,0.8841700000000001,-1.392888,-0.081942,0.13674,0.984216,-0.11208299999999999,-0.040235,-0.03816,-0.00563,-0.034841000000000004,0.019995,-0.002419
591,0.8858229999999999,-1.393593,-0.079677,0.13638699999999998,0.984341,-0.111417,-0.035852999999999996,-0.020036,-0.0131,-0.038380000000000004,0.012211,0.002424
592,0.887244,-1.394319,-0.07819,0.135991,0.984468,-0.11077200000000001,-0.031432,0.009794,-0.01738,-0.036596,0.010771,0.0072109999999999995
593,0.888244,-1.395103,-0.077635,0.135502,0.984605,-0.110148,-0.029179000000000004,0.031113,-0.022733,-0.026417000000000003,0.00984,0.011256
594,0.8897229999999999,-1.395935,-0.076949,0.135028,0.984751,-0.10943199999999999,-0.03336,0.043937000000000004,-0.029188,-0.023822,0.010015999999999999,0.011379
595,0.891179,-1.396957,-0.076475,0.134405,0.984928,-0.10860299999999999,-0.03757,0.05143,-0.034568,-0.016668000000000002,0.005871,0.015219
596,0.8928020000000001,-1.39809,-0.075834,0.133711,0.985123,-0.10768399999999999,-0.042918,0.050374,-0.032468000000000004,-0.014861000000000001,0.0058590000000000005,0.01514
597,0.896073,-1.3992229999999999,-0.073612,0.133191,0.985317,-0.106549,-0.053573,0.057852,-0.028279000000000002,-0.01167,0.010731000000000001,0.012356
598,0.900127,-1.400469,-0.07077,0.13266,0.9855290000000001,-0.105245,-0.058849,0.06640900000000001,-0.0326,-0.013716999999999998,0.011937999999999999,0.016103
599,0.904116,-1.401774,-0.068116,0.13206600000000002,0.98575,-0.10391900000000001,-0.056673,0.071745,-0.036864,-0.013612,0.001784,0.023657
600,0.908417,-1.403032,-0.065262,0.13153199999999998,0.9859600000000001,-0.102585,-0.057735,0.077058,-0.032605,-0.014634999999999999,0.000886,0.021668
601,0.913493,-1.404326,-0.061786,0.13103800000000002,0.986176,-0.101134,-0.06303500000000001,0.085595,-0.031585,-0.019237,0.011840999999999999,0.023086000000000002
602,0.918959,-1.405594,-0.05812899999999999,0.130592,0.9863850000000001,-0.099656,-0.060849,0.09624400000000001,-0.032652,-0.023506,0.016513999999999997,0.023423
603,0.9235700000000001,-1.4068049999999999,-0.055553,0.13009500000000002,0.986584,-0.09833,-0.047984,0.107926,-0.034713,-0.026777,0.012348,0.024173
604,0.927558,-1.407884,-0.053926,0.129631,0.986759,-0.09717,-0.036182,0.12598199999999998,-0.031449,-0.024467,0.019191999999999997,0.023866
605,0.931285,-1.408649,-0.052926999999999995,0.129384,0.986883,-0.096234,-0.024408000000000003,0.145073,-0.020709,-0.023686000000000002,0.021052,0.024166
606,0.9342799999999999,-1.409145,-0.053072,0.129277,0.9869629999999999,-0.095554,-0.006194,0.166298,-0.016336,-0.023076,0.01821,0.028613999999999997
607,0.936109,-1.4094790000000001,-0.05500700000000001,0.129187,0.987016,-0.095123,0.008914,0.200351,-0.020547,-0.019033,0.010801,0.028045
608,0.93781,-1.409766,-0.057727999999999995,0.12912,0.9870629999999999,-0.094735,0.010125,0.230183,-0.022713999999999998,-0.015152,0.012831,0.026025
609,0.939999,-1.410181,-0.060369000000000006,0.128996,0.987129,-0.09421,0.004872,0.245128,-0.025974,-0.0038740000000000003,0.00692,0.023516
610,0.943011,-1.4106889999999999,-0.062408000000000005,0.12887200000000001,0.98721,-0.093526,-0.004672,0.254762,-0.029258,-4.2e-05,0.001376,0.025013999999999998
611,0.9467399999999999,-1.411305,-0.063854,0.128725,0.987308,-0.09268799999999999,-0.007844,0.25904299999999997,-0.031422000000000005,0.007826000000000001,-0.0035590000000000005,0.026694
612,0.9502870000000001,-1.411966,-0.06547,0.128521,0.9874129999999999,-0.091851,-0.007854,0.253729,-0.03462,0.020191999999999998,-0.0009019999999999999,0.024529
613,0.953759,-1.412718,-0.066942,0.12823199999999998,0.987532,-0.090974,-0.013236000000000001,0.23885100000000004,-0.038911,0.034503,0.006319,0.021958000000000002
614,0.957475,-1.413659,-0.067567,0.12780999999999998,0.9876790000000001,-0.089962,-0.026192,0.201624,-0.042158999999999995,0.041807,0.000938,0.020168000000000002
615,0.961512,-1.4147969999999999,-0.066985,0.127249,0.987857,-0.08880199999999999,-0.038104,0.156946,-0.047526,0.041467000000000004,-4.9e-05,0.015285
616,0.9653370000000001,-1.4161350000000001,-0.065776,0.126498,0.9880639999999999,-0.087559,-0.046783,0.11653,-0.05608,0.047819,-0.0027890000000000002,0.016179
617,0.9685219999999999,-1.4177309999999999,-0.064469,0.125473,0.988308,-0.08626,-0.0565,0.081448,-0.065717,0.056107000000000004,-0.007259999999999999,0.013003
618,0.9714200000000001,-1.419425,-0.06260700000000001,0.12433499999999999,0.9885649999999999,-0.084949,-0.056720000000000007,0.031385,-0.066723,0.067239,-0.006647,0.009158
619,0.97339,-1.42106,-0.060273,0.12316400000000001,0.9888100000000001,-0.08379299999999999,-0.059253,-0.050716000000000004,-0.064551,0.083638,-0.0050149999999999995,0.018928
620,0.974728,-1.4227299999999998,-0.056676,0.12190699999999999,0.989058,-0.0827,-0.07253,-0.148705,-0.057040999999999994,0.088496,-0.005385,0.029691000000000002
621,0.976209,-1.424409,-0.051004,0.120652,0.9893049999999999,-0.081587,-0.08686,-0.240312,-0.046341,0.086425,-0.004914,0.027525
622,0.979857,-1.425908,-0.041487,0.119716,0.9895219999999999,-0.08032,-0.102189,-0.31594,-0.034601,0.076176,-0.0036969999999999998,0.028806000000000002
623,0.9844219999999999,-1.427432,-0.029719,0.118824,0.989741,-0.078936,-0.115383,-0.377594,-0.025069,0.064831,-0.00117,0.034213
624,0.9893360000000001,-1.4290180000000001,-0.016446000000000002,0.117896,0.989966,-0.077488,-0.124196,-0.432983,-0.01865,0.064721,-0.003653,0.037479000000000005
625,0.9961040000000001,-1.4304569999999999,-0.00017900000000000001,0.11722,0.9901690000000001,-0.075913,-0.135138,-0.489422,-0.014381999999999999,0.050519999999999995,-0.00677,0.041169
626,1.003203,-1.43205,0.017425,0.116424,0.99039,-0.07422899999999999,-0.147089,-0.5330739999999999,-0.010136,0.035905,-0.004672,0.047236
627,1.0107899999999999,-1.433757,0.0364,0.115549,0.990625,-0.07244400000000001,-0.15903499999999998,-0.5767220000000001,-0.006959,0.029058999999999998,-0.000726,0.047145
628,1.020049,-1.435318,0.057658,0.11489200000000001,0.9908370000000001,-0.070559,-0.16127,-0.59378,-0.0016120000000000002,-0.0076230000000000004,0.008782,0.058734
629,1.0299200000000002,-1.4367729999999999,0.079359,0.114344,0.991032,-0.068678,-0.15373499999999998,-0.572526,0.004823,-0.047496,0.025675999999999997,0.065122
630,1.038565,-1.438069,0.099008,0.113824,0.9912049999999999,-0.06703300000000001,-0.135382,-0.520408,0.009156999999999998,-0.05755,0.025717,0.066285
631,1.046576,-1.439075,0.11658199999999999,0.11349200000000001,0.9913370000000001,-0.06561900000000001,-0.112772,-0.43799,0.011151000000000001,-0.076794,0.025294999999999998,0.06542
632,1.052562,-1.4398819999999999,0.13029000000000002,0.113185,0.9914430000000001,-0.064541,-0.085664,-0.344328,0.008015999999999999,-0.088588,0.030194,0.064251
633,1.049382,-1.439924,0.132218,0.112944,0.991448,-0.06488,0.076195,-0.174452,0.009997,-0.086379,0.016059,0.15512
634,1.048234,-1.4398440000000001,0.132413,0.11293800000000001,0.9914379999999999,-0.065049,-0.130436,-0.105522,0.0009880000000000002,-0.131768,0.041306999999999996,-0.058685
635,1.0540049999999999,-1.440998,0.14116800000000002,0.11231600000000001,0.9915879999999999,-0.06383,-0.029094,-0.131349,-0.021772,-0.090252,0.030614,0.076907
636,1.0514219999999999,-1.4417200000000001,0.139663,0.111528,0.9916809999999999,-0.063764,-0.009263,0.00495,-0.025013,-0.082139,0.022616,0.066175
637,1.047323,-1.441918,0.134904,0.111096,0.991707,-0.064123,0.047391,0.044108,-0.009712,-0.09386900000000001,0.032326,0.06484
638,1.0437670000000001,-1.441891,0.128746,0.11089,0.9917030000000001,-0.06453099999999999,0.027719999999999998,0.177337,-0.010020999999999999,-0.09502100000000001,0.02943,0.048143
639,1.036748,-1.441592,0.11791900000000001,0.11069200000000001,0.991665,-0.06546,0.093211,0.19637000000000002,-0.014756,-0.051976999999999995,0.030491000000000004,0.08569299999999999
640,1.0279610000000001,-1.440975,0.10412300000000001,0.11063900000000002,0.991585,-0.066747,0.093537,0.274113,-0.009512,-0.04353,0.020332,0.06277999999999999
641,1.02015,-1.440325,0.089934,0.11066400000000001,0.9915010000000001,-0.06794700000000001,0.102345,0.329498,-0.014863,-0.035316,0.005097,0.048721
642,1.010783,-1.439798,0.073666,0.11046600000000001,0.991432,-0.069259,0.107794,0.342314,-0.02766,-0.015175,0.008568000000000001,0.046004
643,1.000781,-1.4393770000000001,0.056701999999999995,0.11011900000000001,0.9913770000000001,-0.07058500000000001,0.107833,0.338104,-0.040473,-0.012996,0.006212,0.037153
644,0.990604,-1.43905,0.039809,0.10966600000000001,0.991334,-0.07188,0.104575,0.32321,-0.042613,-0.007417,0.003173,0.033061
645,0.9813360000000001,-1.438743,0.023948,0.109248,0.991294,-0.073062,0.093916,0.32962199999999997,-0.038423,0.00032599999999999996,0.002374,0.029635
646,0.97341,-1.438317,0.009398,0.10901400000000001,0.991237,-0.07416299999999999,0.090638,0.321077,-0.029889,-0.005239,0.001866,0.022771
647,0.96698,-1.437757,-0.00352,0.108992,0.9911629999999999,-0.075178,0.094843,0.315701,-0.021307,0.007921,0.005251,0.026044
648,0.9603649999999999,-1.43679,-0.016425,0.10928,0.991035,-0.076448,0.10854000000000001,0.298523,0.000175,0.018542,0.003045,0.025575999999999998
649,0.95309,-1.435278,-0.029386000000000002,0.109945,0.9908309999999999,-0.07811,0.12005,0.266452,0.018456999999999998,0.029626999999999997,0.005490999999999999,0.021165
650,0.9459930000000001,-1.4333690000000001,-0.04144,0.110926,0.9905719999999999,-0.079998,0.126183,0.22375100000000003,0.035646,0.030645,0.015715,0.012584999999999999
651,0.938951,-1.431306,-0.052402,0.11201199999999999,0.990287,-0.081987,0.123776,0.166221,0.038907,0.030139,0.02076,0.01616
652,0.9298049999999999,-1.4291909999999999,-0.064039,0.11294000000000001,0.989991,-0.084262,0.140573,0.088465,0.022033,0.024252000000000003,0.028625,0.024738
653,0.915062,-1.4272989999999999,-0.079846,0.113173,0.9897219999999999,-0.087063,0.147825,0.016099000000000002,-0.002393,0.009493000000000001,0.032861,0.024319
654,0.900011,-1.425956,-0.094212,0.11289,0.9895290000000001,-0.08958200000000001,0.104796,-0.075313,-0.015394999999999999,-0.015081,0.015949,0.028898000000000004
655,0.890242,-1.4252799999999999,-0.102176,0.112528,0.989431,-0.0911,0.049185,-0.101764,-0.012545,-0.028605000000000002,-0.010076,0.034429
656,0.8846790000000001,-1.425042,-0.10598800000000001,0.112202,0.989397,-0.091874,0.019403,-0.076114,-0.007445,-0.026447000000000002,-0.021761000000000003,0.037217
657,0.883805,-1.424936,-0.106137,0.112203,0.989381,-0.092039,0.003631,-0.015377000000000002,0.0019809999999999997,-0.023808000000000003,-0.01819,0.025922000000000004
658,0.884759,-1.424939,-0.105402,0.11228800000000001,0.989382,-0.09193,-0.00687,0.025128,0.0050609999999999995,-0.025557,-0.00168,0.021327000000000002
659,0.885864,-1.425034,-0.10504100000000001,0.11231700000000001,0.989395,-0.09174600000000001,-0.000349,0.043249,-0.0034630000000000004,-0.033933,0.0060420000000000005,0.021907
660,0.8851600000000001,-1.425188,-0.107046,0.11213499999999998,0.989418,-0.09172999999999999,0.015865,0.077333,-0.016212,-0.049986,0.015724000000000002,0.036386
661,0.8821450000000001,-1.425293,-0.11210999999999999,0.111776,0.989433,-0.092,0.033155000000000004,0.11035999999999999,-0.032157,-0.03829,0.019538999999999997,0.031438
662,0.875368,-1.425373,-0.121305,0.11108900000000001,0.989445,-0.092704,0.057822000000000005,0.117817,-0.053358,-0.024373,0.015804,0.028419
663,0.8640629999999999,-1.4255879999999999,-0.134945,0.10987000000000001,0.989476,-0.093814,0.075988,0.106108,-0.071376,-0.014884,0.016307,0.024463
664,0.850497,-1.4257799999999998,-0.150557,0.108444,0.989504,-0.09517,0.083379,0.083732,-0.076637,-0.0026550000000000002,0.013425999999999999,0.019853
665,0.836981,-1.42587,-0.165573,0.10708,0.989516,-0.096566,0.077891,0.054967999999999996,-0.071297,0.002722,0.012329999999999999,0.017769999999999998
666,0.824342,-1.425858,-0.179112,0.10585699999999999,0.9895149999999999,-0.09791699999999999,0.074504,0.026166000000000002,-0.058466,0.011742,0.002215,0.0044729999999999995
667,0.813608,-1.425583,-0.190248,0.105,0.989475,-0.099236,0.06791599999999999,0.007984999999999999,-0.034987,0.014247999999999999,-0.004688,0.001504
668,0.8055829999999999,-1.424915,-0.198374,0.10467699999999999,0.9893780000000001,-0.100534,0.06559,-0.00491,-0.005077,0.014081999999999999,-0.005598,-0.0009369999999999999
669,0.801555,-1.423964,-0.20253,0.10495,0.989239,-0.101612,0.04742,0.01316,0.02041,0.002991,-0.000607,0.00655
670,0.801509,-1.42299,-0.203021,0.10563900000000001,0.9890959999999999,-0.102288,0.030396,0.029907999999999997,0.034143,0.002821,0.007608,0.009835
671,0.804217,-1.422208,-0.201168,0.106473,0.988981,-0.10254,0.011414,0.050489,0.034059,-1.3000000000000001e-05,0.010393000000000001,0.004319
672,0.80705,-1.421642,-0.19925199999999998,0.10716800000000001,0.9888969999999999,-0.102625,0.010347,0.040944,0.02445,0.00065,0.016763999999999998,0.005396
673,0.807442,-1.421276,-0.19933299999999998,0.10747000000000001,0.988843,-0.102834,0.017796,0.014375,0.0021030000000000003,-0.005038,0.020281999999999998,0.01714
674,0.804511,-1.4210459999999998,-0.202442,0.107333,0.988808,-0.103307,0.033814,0.0026609999999999997,-0.012725,-0.018144999999999998,0.013374,0.018681
675,0.800666,-1.4208370000000001,-0.206416,0.107083,0.988777,-0.103862,0.024217,0.006943,-0.009593,-0.021024,0.013756,0.014934000000000001
676,0.7987270000000001,-1.420662,-0.208375,0.10700599999999999,0.988751,-0.104191,0.014518999999999999,-0.005841,-0.001098,-0.02409,0.011904999999999999,0.012546999999999999
677,0.798229,-1.420447,-0.20871399999999998,0.107107,0.988719,-0.104393,0.0070030000000000005,-0.007979,0.007398,-0.019507,0.009587,0.010888
678,0.798369,-1.42022,-0.20848200000000003,0.10728399999999999,0.988685,-0.10453599999999999,0.00806,-0.003747,0.013809,-0.012709999999999999,0.005975,0.010099
679,0.799144,-1.419869,-0.207537,0.10761300000000001,0.988632,-0.10469500000000001,0.009253,-0.011486,0.024118,-0.007913,0.014084000000000001,0.010029999999999999
680,0.79914,-1.419282,-0.207121,0.10803,0.9885440000000001,-0.105101,0.021979,-0.026452999999999997,0.026363,-0.007581999999999999,0.013928,0.011076
681,0.7979569999999999,-1.418564,-0.20754099999999998,0.10841500000000001,0.9884350000000001,-0.105725,0.033638,-0.043538,0.026466000000000003,-0.011276999999999999,0.005965,0.020321000000000002
682,0.7957380000000001,-1.417602,-0.208796,0.10886099999999999,0.988289,-0.10663299999999999,0.044263,-0.048918,0.03082,-0.017079,-0.005745,0.018009999999999998
683,0.7934220000000001,-1.4165370000000002,-0.210031,0.109365,0.9881260000000001,-0.107624,0.043129,-0.059584000000000005,0.035099,-0.022787,-0.00665,0.013615
684,0.792845,-1.415468,-0.20929299999999998,0.11005799999999999,0.9879610000000001,-0.108431,0.028102,-0.069162,0.045688,-0.022762,0.00209,0.012804
685,0.79438,-1.414556,-0.206308,0.11086800000000001,0.987819,-0.108894,0.009941,-0.070181,0.049836,-0.017927000000000002,0.011128,0.01374
686,0.7964140000000001,-1.413959,-0.202809,0.11151199999999999,0.987726,-0.109082,0.000383,-0.073292,0.036954,-0.019975,0.00852,0.012952000000000002
687,0.797161,-1.413613,-0.20031600000000002,0.111838,0.9876719999999999,-0.10923800000000002,-0.000644,-0.096198,0.023497999999999998,-0.015311000000000002,0.00389,0.01355
688,0.796075,-1.413367,-0.19918,0.111891,0.987634,-0.109527,0.0057090000000000005,-0.1143,0.016087999999999998,-0.012465,0.012336,0.014236000000000002
689,0.794592,-1.413071,-0.198345,0.111936,0.9875870000000001,-0.10989600000000001,0.005719,-0.110048,0.01822,-0.007993,0.016777,0.017855000000000003
690,0.7938930000000001,-1.412819,-0.19708,0.112036,0.987548,-0.110149,0.00048499999999999997,-0.08872000000000001,0.017087,-0.006537,0.015886,0.017726
691,0.79414,-1.412648,-0.19542400000000001,0.11218399999999999,0.9875209999999999,-0.11024,-0.005786,-0.059935,0.017006999999999998,-0.011156000000000001,0.019422,0.022853000000000002
692,0.7952020000000001,-1.412536,-0.193166,0.11238,0.987503,-0.110198,-0.007939,-0.063128,0.018064,-0.014907,0.016922,0.021697
693,0.796147,-1.412354,-0.19070499999999999,0.112613,0.987474,-0.11021800000000001,-0.005911,-0.08126599999999999,0.023441999999999998,-0.010577,0.013731,0.020465
694,0.796446,-1.412038,-0.188574,0.11286900000000001,0.987424,-0.110403,0.002552,-0.096214,0.024589,-0.0072629999999999995,0.012667,0.020727000000000002
695,0.7961689999999999,-1.411622,-0.18676600000000002,0.113131,0.987358,-0.11072,0.006762000000000001,-0.10689000000000001,0.026769,-0.00632,0.008154999999999999,0.022448
696,0.796203,-1.4111989999999999,-0.18455,0.11342999999999999,0.987291,-0.11100499999999999,0.000334,-0.10626300000000001,0.029363999999999998,-0.007199,0.008665,0.021909
697,0.7971630000000001,-1.410839,-0.18143399999999998,0.11379,0.9872340000000001,-0.111144,-0.006072,-0.10412300000000001,0.032521,-0.01116,0.009531,0.023543
698,0.798708,-1.410515,-0.17771900000000002,0.11419000000000001,0.987182,-0.11119000000000001,-0.010348999999999999,-0.10517699999999999,0.033561,-0.011009999999999999,0.011337999999999999,0.025389
699,0.800405,-1.41022,-0.173925,0.11458499999999999,0.987135,-0.111197,-0.010316,-0.099843,0.031418,-0.013465000000000001,0.007661,0.02474
700,0.802197,-1.4099549999999998,-0.170239,0.114972,0.987093,-0.11117300000000001,-0.008129,-0.089193,0.030351,-0.010892,0.011412,0.021253
701,0.803541,-1.4096549999999999,-0.167124,0.115335,0.9870450000000001,-0.111224,-0.004905,-0.086,0.028232999999999998,-0.009545999999999999,0.012192,0.023318000000000002
702,0.804281,-1.409374,-0.164632,0.115619,0.987,-0.11133299999999999,-0.0016899999999999999,-0.087059,0.023984000000000002,-0.01192,0.015411000000000001,0.019673
703,0.803998,-1.409238,-0.163154,0.115684,0.986978,-0.11145899999999999,-0.0026899999999999997,-0.084874,0.011155,-0.022438,0.002845,0.029931
704,0.803475,-1.409306,-0.162169,0.115578,0.9869889999999999,-0.111473,-0.011105,-0.068823,0.000394,-0.019951,0.007776999999999999,0.027260000000000003
705,0.8035180000000001,-1.409546,-0.160814,0.11541199999999999,0.9870270000000001,-0.111304,-0.015347999999999999,-0.064542,-0.000709,-0.012736,0.010531,0.025626
706,0.803629,-1.409758,-0.15956700000000001,0.115274,0.9870610000000001,-0.11114600000000001,-0.01209,-0.048587,0.002497,-0.011209,0.013183000000000002,0.027741000000000002
707,0.804085,-1.409904,-0.15833699999999998,0.115222,0.987085,-0.11099400000000001,-0.008827,-0.032628,0.004636,-0.008043999999999999,0.011313,0.026445
708,0.804603,-1.409926,-0.157177,0.115264,0.987088,-0.11092,-0.004579,-0.031599,0.010006000000000001,-0.011748999999999999,0.011142,0.022633
709,0.805036,-1.4098469999999999,-0.156013,0.115369,0.9870760000000001,-0.110925,-0.002483,-0.038007,0.012165,-0.012281,0.008347,0.023614
710,0.805789,-1.4097549999999999,-0.154525,0.11551800000000001,0.9870610000000001,-0.110901,-0.004598,-0.033738,0.012145,-0.011728,0.008545,0.025055
711,0.8067479999999999,-1.409625,-0.15293800000000002,0.115717,0.9870399999999999,-0.11087899999999999,-0.001397,-0.029505,0.016434999999999998,-0.011225,0.009237,0.027505
712,0.8076770000000001,-1.409384,-0.151449,0.115994,0.987001,-0.110937,0.000741,-0.025263999999999998,0.019649,-0.010723,0.009016,0.027792
713,0.808954,-1.409037,-0.149769,0.11638399999999999,0.9869450000000001,-0.111026,0.003966,-0.015705,0.023932,-0.009526999999999999,0.00924,0.024829
714,0.810409,-1.4086450000000001,-0.148011,0.116826,0.9868819999999999,-0.111124,0.005037,-0.012522,0.026072,-0.0071,0.014552,0.024561000000000003
715,0.811905,-1.4082219999999999,-0.146301,0.11729400000000001,0.986814,-0.11123499999999999,0.010372,-0.014662,0.023975,-0.010101,0.007678,0.023543
716,0.812413,-1.407773,-0.14546900000000001,0.117674,0.986741,-0.111482,0.010405,-0.01145,0.019699,-0.010267,0.010298999999999999,0.028808999999999998
717,0.813271,-1.407417,-0.144478,0.118024,0.986683,-0.111622,0.005109000000000001,-0.002909,0.019651,-0.009778,0.011881999999999998,0.026905000000000002
718,0.814639,-1.4071690000000001,-0.143062,0.118354,0.986643,-0.11162799999999999,-0.000206,-0.001812,0.016406999999999998,-0.011177,0.009664,0.027384
719,0.815476,-1.4069989999999999,-0.14211400000000002,0.11857000000000001,0.9866149999999999,-0.11164400000000001,0.004071,-0.007123999999999999,0.008967000000000001,-0.011728,0.008487,0.026668
720,0.815552,-1.406917,-0.14190999999999998,0.11863699999999999,0.9866020000000001,-0.11169000000000001,0.00199,-0.0017640000000000002,0.002536,-0.009521,0.0057079999999999995,0.029063
721,0.8158,-1.406986,-0.141798,0.11861500000000001,0.986613,-0.11161300000000002,-0.003258,0.012124,-0.00286,-0.011834,0.0053,0.024347999999999998
722,0.81671,-1.4071639999999999,-0.14119400000000001,0.11858800000000001,0.986642,-0.11138499999999998,-0.009208,0.016774,-0.0026320000000000002,-0.009366,0.010047,0.021557
723,0.817503,-1.407356,-0.140737,0.11853699999999999,0.9866729999999999,-0.11116,-0.006007,0.015702,-0.003676,-0.010047,0.009831999999999999,0.026291000000000002
724,0.818004,-1.407514,-0.140561,0.118479,0.986699,-0.11099500000000001,-0.0049310000000000005,0.016768,-0.004738,-0.010325,0.008037,0.027117000000000002
725,0.818562,-1.407686,-0.140368,0.11841700000000001,0.986727,-0.110812,-0.0038640000000000002,0.018886,-0.002597,-0.012444,0.012205,0.03023
726,0.819199,-1.407807,-0.14017000000000002,0.1184,0.9867469999999999,-0.11065499999999999,-0.005973,0.02422,-0.002618,-0.009682,0.015512,0.027266000000000002
727,0.819801,-1.40788,-0.140058,0.118414,0.986758,-0.110534,0.004652,0.015656,-0.001465,-0.017981,0.003293,0.026168
728,0.819715,-1.4079110000000001,-0.140476,0.11838199999999999,0.986763,-0.110524,0.001471,0.018867,-0.00256,-0.012898,0.011772,0.0304
729,0.8196829999999999,-1.4079760000000001,-0.141102,0.11833199999999999,0.9867739999999999,-0.11048399999999998,-0.001639,0.035936,-0.005808,-0.013503999999999999,0.011685,0.027156
730,0.820457,-1.408128,-0.14113499999999998,0.118308,0.986799,-0.11029100000000001,-0.002682,0.041266000000000004,-0.005822,-0.013937999999999999,0.01256,0.022537
731,0.820739,-1.4082430000000001,-0.141531,0.118256,0.986817,-0.110179,0.002595,0.029525,-0.0047020000000000005,-0.009278,0.014846000000000002,0.026302
732,0.820736,-1.408296,-0.142112,0.118218,0.986826,-0.110144,0.001519,0.027398000000000002,-0.004707,-0.010308,0.011984,0.025931
733,0.820867,-1.408392,-0.142498,0.118163,0.986841,-0.11006500000000001,-0.000625,0.025275,-0.004719,-0.009687999999999999,0.007223,0.027683
734,0.8210299999999999,-1.408498,-0.142887,0.118104,0.986858,-0.109973,0.00045599999999999997,0.028467000000000003,-0.004715,-0.013443,0.005253,0.028933999999999998
735,0.821477,-1.408571,-0.14305,0.1181,0.98687,-0.10987100000000001,0.000452,0.030585,-0.0015140000000000002,-0.013531,0.005287,0.027
736,0.822255,-1.408616,-0.14284000000000002,0.118153,0.986878,-0.109749,-0.0017059999999999998,0.027388,0.000612,-0.010440999999999999,0.008728,0.025689
737,0.8231870000000001,-1.408614,-0.142442,0.11825699999999999,0.986877,-0.109641,0.00040899999999999997,0.025241,0.0027660000000000002,-0.010971999999999999,0.0075379999999999996,0.027121
738,0.823635,-1.408592,-0.142458,0.118322,0.986874,-0.10960299999999999,0.0057280000000000005,0.020966,0.0017399999999999998,-0.010076,0.015034,0.025481
739,0.823829,-1.408536,-0.1427,0.11838499999999999,0.986865,-0.10961900000000001,0.0046619999999999995,0.022031,0.0028,-0.008675,0.013517,0.022613
740,0.824192,-1.408455,-0.142715,0.11848399999999999,0.9868520000000001,-0.10962999999999999,0.005704,0.017762,0.0038810000000000003,-0.00946,0.011867,0.023906
741,0.8244600000000001,-1.4083860000000001,-0.142789,0.11856300000000002,0.9868399999999999,-0.109644,0.004638000000000001,0.016704,0.002806,-0.012056,0.011923999999999999,0.026407
742,0.8248049999999999,-1.408323,-0.142817,0.118646,0.9868299999999999,-0.109645,0.00358,0.018838999999999998,0.002796,-0.012201,0.009415999999999999,0.024425
743,0.825349,-1.408313,-0.14266700000000002,0.11871300000000001,0.9868290000000001,-0.10958699999999999,0.00037999999999999997,0.01885,0.002774,-0.011154,0.009326000000000001,0.021361
744,0.825918,-1.408291,-0.142424,0.11879200000000001,0.986825,-0.109535,0.001423,0.013519999999999999,0.002788,-0.012408,0.009223,0.023582
745,0.8261790000000001,-1.408259,-0.142297,0.118843,0.98682,-0.109525,0.00458,0.004982,0.003889,-0.009346,0.007168000000000001,0.019971
746,0.826109,-1.408103,-0.142442,0.118949,0.9867950000000001,-0.10963800000000001,0.0056229999999999995,0.0017739999999999998,0.006037,-0.009452,0.007193000000000001,0.020085
747,0.826469,-1.4079840000000001,-0.14213,0.119075,0.986775,-0.109675,0.0024219999999999997,0.004968,0.009215000000000001,-0.009883,0.011058,0.025126
748,0.827241,-1.407901,-0.141519,0.11922,0.986762,-0.10963800000000001,-0.001807,0.011382999999999999,0.0070409999999999995,-0.011401,0.009958,0.025013
749,0.828469,-1.407828,-0.140517,0.119407,0.98675,-0.10954000000000001,-0.001835,0.007114,0.009183,-0.012931,0.012868000000000001,0.024166999999999998
750,0.829139,-1.407732,-0.13985899999999998,0.119551,0.986734,-0.109525,0.001332,-0.001415,0.008148,-0.010512,0.012990999999999999,0.026074
751,0.829715,-1.407656,-0.139233,0.11966900000000001,0.986722,-0.10950599999999999,0.001327,-0.003542,0.007081999999999999,-0.009898,0.010776,0.024805
752,0.8298540000000001,-1.407535,-0.139016,0.119773,0.9867020000000001,-0.10957,0.004527000000000001,-0.003553,0.007104000000000001,-0.010215,0.010353,0.024319
753,0.829968,-1.4074200000000001,-0.138803,0.119869,0.986684,-0.109633,0.004523,-0.005679,0.006039,-0.010372,0.009914,0.021178
754,0.8300770000000001,-1.407367,-0.138639,0.11991900000000001,0.986675,-0.10965499999999999,0.0024129999999999998,-0.002467,0.0038840000000000003,-0.013290999999999999,0.01154,0.02384
755,0.830158,-1.40733,-0.138493,0.119956,0.986669,-0.109671,0.002408,-0.004594,0.0028179999999999998,-0.012519,0.00976,0.024694999999999998
756,0.8305799999999999,-1.407304,-0.138031,0.120021,0.986665,-0.10963800000000001,-0.000718,-0.000118,0.004744,-0.014079,0.01213,0.024646
757,0.8312280000000001,-1.407278,-0.137383,0.120111,0.986661,-0.109577,-0.0017850000000000001,-0.00011499999999999999,0.004736,-0.01217,0.014072,0.027286
758,0.831708,-1.40726,-0.136882,0.120175,0.986658,-0.10953,-0.001775,-0.000106,0.0026,-0.012937,0.011084,0.027285000000000004
759,0.8321959999999999,-1.4073229999999999,-0.136381,0.120183,0.986668,-0.109429,-0.0017800000000000001,-0.0011710000000000002,0.002601,-0.013615,0.008892,0.025033
760,0.8325600000000001,-1.407327,-0.135871,0.12022000000000001,0.986669,-0.109383,0.00031099999999999997,-0.008643999999999999,0.004762,-0.012401,0.009196,0.026635000000000002
761,0.8325370000000001,-1.407226,-0.135649,0.12029100000000001,0.9866520000000001,-0.109453,0.0056159999999999995,-0.012933000000000002,0.006940999999999999,-0.011755,0.009625,0.02791
762,0.8324860000000001,-1.407058,-0.135472,0.12040799999999999,0.986625,-0.109571,0.005621,-0.009745,0.009073000000000001,-0.013047,0.009056999999999999,0.027555
763,0.8325370000000001,-1.4069399999999999,-0.13522,0.120499,0.986606,-0.109643,0.004442,-0.010222,0.007679000000000001,-0.016784999999999998,0.009351,0.023719999999999998
764,0.833018,-1.406876,-0.134507,0.120599,0.9865950000000001,-0.109627,-0.001974,-0.012334999999999999,0.008705,-0.012979,0.012428,0.024132
765,0.8335819999999999,-1.406785,-0.133671,0.120727,0.9865799999999999,-0.10962000000000001,0.000155,-0.013406999999999999,0.008722,-0.017547,0.013191,0.027192
766,0.8340489999999999,-1.406698,-0.132964,0.120841,0.9865659999999999,-0.10962100000000001,0.001251,-0.009141,0.006587000000000001,-0.01139,0.011572,0.028352
767,0.834725,-1.406652,-0.132276,0.12095,0.986558,-0.109569,-0.00615,0.00792,0.00865,-0.016,0.011961,0.024364
768,0.834608,-1.4064860000000001,-0.132226,0.121058,0.9865309999999999,-0.109694,0.011881000000000001,-0.015578999999999999,0.008806,-0.017177,0.014063999999999998,0.029294999999999998
769,0.8341209999999999,-1.406233,-0.132464,0.12119100000000001,0.98649,-0.109921,0.010833,-0.010253,0.009859999999999999,-0.01766,0.012579,0.028683999999999998
770,0.834016,-1.405995,-0.13236900000000001,0.121353,0.986451,-0.11009200000000001,0.009761,-0.011315,0.009854,-0.017593,0.008575,0.028701
771,0.833651,-1.405751,-0.132575,0.12149000000000001,0.986411,-0.110297,0.010764,-0.005881,0.00965,-0.014159999999999999,0.01008,0.027228
772,0.8329690000000001,-1.405506,-0.13309400000000002,0.12159400000000001,0.9863709999999999,-0.110543,0.01184,-0.005877,0.007520999999999999,-0.015347,0.012241,0.029213999999999997
773,0.8320219999999999,-1.405229,-0.133709,0.12169200000000001,0.986325,-0.11084300000000001,0.014979,-0.020797,0.006494,-0.014438,0.01247,0.031145999999999997
774,0.83149,-1.405157,-0.133996,0.12168599999999999,0.9863129999999999,-0.110955,0.001196,-0.0068790000000000006,0.001039,-0.014233,0.008987,0.027733999999999998
775,0.831519,-1.405222,-0.133845,0.12164100000000001,0.986324,-0.110909,-0.00412,-0.005782,-0.002204,-0.01425,0.007252,0.027641000000000002
776,0.831792,-1.4054,-0.133448,0.12154200000000001,0.986353,-0.110757,-0.007311,-0.0036409999999999997,-0.002229,-0.01235,0.01206,0.02839
777,0.832735,-1.405561,-0.13264600000000001,0.12153,0.9863799999999999,-0.110536,-0.003005,0.006989,-7.6e-05,-0.018716,0.008158,0.026445
778,0.83273,-1.405564,-0.132707,0.121526,0.9863799999999999,-0.110534,0.0033729999999999997,0.0027010000000000003,0.001042,-0.014669,0.011804,0.025633999999999997
