,attitude.roll,attitude.pitch,attitude.yaw,gravity.x,gravity.y,gravity.z,rotationRate.x,rotationRate.y,rotationRate.z,userAcceleration.x,userAcceleration.y,userAcceleration.z
0,0.149947,-1.3876959999999998,-2.169259,0.0272,0.983284,-0.180036,-0.042573,-0.331887,-0.148007,-0.056603999999999995,0.022316,-0.01874
1,0.12941,-1.388288,-2.183916,0.023422,0.983392,-0.179979,0.003445,-0.280991,-0.128523,-0.026672,0.014563999999999999,-0.012739
2,0.112499,-1.3890149999999999,-2.196656,0.020295,0.9835229999999999,-0.17963900000000002,-0.048433,-0.177537,-0.11406300000000001,0.022918,0.007259999999999999,-0.0032990000000000003
3,0.101815,-1.3903459999999999,-2.2048259999999997,0.018241,0.9837629999999999,-0.178544,-0.049519,-0.11919500000000001,-0.05112,0.036187000000000004,-0.002562,0.009293000000000001
4,0.097148,-1.391461,-2.20728,0.017302,0.9839629999999999,-0.177534,-0.053882000000000006,-0.105472,-0.015916,0.023912,-0.006072999999999999,0.0029739999999999996
5,0.093365,-1.392193,-2.20906,0.016562999999999998,0.984093,-0.17688199999999998,-0.021818999999999998,-0.101289,-0.024243999999999998,-0.022071,0.00425,-0.007918000000000001
6,0.086634,-1.392514,-2.2139290000000003,0.015344,0.98415,-0.176674,-0.012034999999999999,-0.094794,-0.058366999999999995,-0.029519999999999998,0.029522000000000003,-0.005226
7,0.0766,-1.393014,-2.222346,0.013533000000000002,0.984238,-0.17632899999999999,-0.022498,-0.074415,-0.084103,-0.025800999999999998,0.038176999999999996,-0.0002
8,0.06817999999999999,-1.393546,-2.2308380000000003,0.012012,0.984332,-0.175913,-0.022065,0.046974,-0.066093,0.015087,-0.008212,0.014918
9,0.066207,-1.394355,-2.234824,0.011613,0.984475,-0.175143,-0.042269,0.108643,-0.019312,0.021758,-0.00396,0.031329
10,0.06840700000000001,-1.3947100000000001,-2.234554,0.011974,0.9845370000000001,-0.174768,-0.0018620000000000002,0.10838199999999999,0.010881,0.016438,-0.00036,0.0095
11,0.061485000000000005,-1.392263,-2.244631,0.010912,0.9841049999999999,-0.177251,0.019938,0.202067,0.006631999999999999,-0.040362,-0.013234000000000001,-0.027873000000000002
12,0.064792,-1.391934,-2.245206,0.011519,0.9840469999999999,-0.177537,0.010212,0.15848900000000002,-0.009404000000000001,-0.063338,0.008293,-0.033187
13,0.031235000000000002,-1.3894600000000001,-2.279656,0.005632,0.983604,-0.180255,0.0054659999999999995,0.031785,-0.022132,-0.070604,0.015969,-0.035733
14,0.029505,-1.389167,-2.282689,0.0053289999999999995,0.9835510000000001,-0.180554,0.020689,0.09246599999999999,-0.025308,-0.039508999999999996,0.001984,-0.0054210000000000005
15,0.032152,-1.389918,-2.281835,0.005783,0.9836860000000001,-0.179801,-0.003038,0.057314,-0.005132,0.005234,0.006319,0.009772
16,0.033681,-1.390046,-2.280237,0.0060539999999999995,0.9837090000000001,-0.17966600000000002,-0.0056560000000000004,-0.021623,0.023793,0.010029000000000001,0.020899,0.007684000000000001
17,0.036254,-1.390167,-2.277268,0.006512,0.9837309999999999,-0.179531,-0.01201,-0.012009,0.022668,-0.002956,0.021595,0.011058
18,0.037423000000000005,-1.390584,-2.276033,0.006706,0.983806,-0.17911300000000002,-0.027874,-0.00015800000000000002,0.003314,-0.000206,0.034551,0.012197
19,0.037416000000000005,-1.391227,-2.27619,0.006681,0.9839209999999999,-0.178481,-0.037379,0.011632,-0.006381,0.00606,0.008496,0.007109000000000001
20,0.038885,-1.392464,-2.274923,0.006895999999999999,0.9841409999999999,-0.177255,-0.031002999999999996,0.007349,-0.0063289999999999996,0.005052,0.008184,-0.00225
21,0.038721,-1.393125,-2.2754659999999998,0.006842,0.984258,-0.17660599999999999,-0.033026,0.031856999999999996,-0.006375,-0.00115,-8.1e-05,-0.017713999999999997
22,0.039008999999999995,-1.3929610000000001,-2.276716,0.006899,0.9842290000000001,-0.176765,-0.028406999999999998,0.107481,-0.007506999999999999,0.0029739999999999996,0.010781,-0.0037310000000000004
23,0.048815,-1.392791,-2.270005,0.00864,0.9841989999999999,-0.17685499999999998,-0.024968999999999998,0.164973,-0.002204,0.01849,0.002328,-0.009866
24,0.05924600000000001,-1.393632,-2.262873,0.010435,0.984347,-0.175929,-0.032552,0.146865,0.004185,0.003404,0.00755,-0.00024900000000000004
25,0.051266,-1.395667,-2.273614,0.008928,0.9847040000000001,-0.174006,-0.037825,0.152248,-0.005490999999999999,-0.02437,0.026389,0.008464
26,0.040482,-1.396539,-2.2873349999999997,0.007017,0.984856,-0.173234,-0.025991000000000004,0.160779,-0.018256,-0.018659000000000002,0.01223,-0.005965
27,0.034249,-1.396951,-2.29698,0.0059229999999999994,0.984927,-0.172869,-0.037630000000000004,0.181059,-0.018374,-0.011904000000000001,-0.000918,-0.002775
28,0.038931,-1.398276,-2.295849,0.006681,0.9851549999999999,-0.171535,-0.037779,0.170321,0.003005,0.007418000000000001,0.0016920000000000001,0.0077930000000000004
29,0.051203,-1.3996540000000002,-2.286947,0.008716,0.985391,-0.170085,-0.029401,0.160611,0.026585,0.014523,-0.005212,0.012782
30,0.06589199999999999,-1.401318,-2.274784,0.011106,0.9856729999999999,-0.168302,-0.032978,0.091334,0.038408,0.014727,-0.0037240000000000003,0.01257
31,0.0713,-1.402505,-2.270515,0.011933,0.985872,-0.167073,-0.019253,0.055088,0.033207,-0.006821,0.013334,0.008671
32,0.07228899999999999,-1.403247,-2.270955,0.012045,0.9859959999999999,-0.166331,-0.009434999999999999,0.084959,0.014003,-0.006155,0.01646,0.00355
33,0.081079,-1.403518,-2.264035,0.013484999999999999,0.986042,-0.165952,-0.018924,0.0904,-0.0063560000000000005,0.019581,0.010037,-3.3e-05
34,0.086405,-1.404264,-2.260975,0.014305000000000002,0.986166,-0.16514500000000001,-0.031537,0.125629,-0.013962,0.022179,0.008768999999999999,0.005522999999999999
35,0.09719900000000001,-1.4057899999999999,-2.253068,0.015941,0.986417,-0.163483,-0.046458,0.137375,-0.007661,0.022161,0.00313,0.013535
36,0.113124,-1.406526,-2.23984,0.01846,0.9865379999999999,-0.162487,-0.025265,0.11807999999999999,0.004281,0.027576,0.009556,-0.011723
37,0.12163099999999999,-1.406037,-2.233938,0.0199,0.986458,-0.162803,-0.013434,0.143585,0.00968,0.030545,0.002968,-0.024636
38,0.137718,-1.4043450000000002,-2.221091,0.022746000000000002,0.9861790000000001,-0.164115,-0.036857,0.149002,0.0073950000000000005,0.024999,0.0009119999999999999,-0.017983000000000002
39,0.142052,-1.405098,-2.218956,0.023352,0.986303,-0.16328,-0.039307,0.088251,0.01707,0.020609,0.003244,-0.006977
40,0.15021400000000001,-1.405966,-2.212507,0.024555,0.9864459999999999,-0.16223800000000002,-0.022216999999999997,0.09458,0.018254,0.022167,0.003285,0.01438
41,0.16088,-1.406372,-2.2041619999999997,0.02622,0.986513,-0.161571,-0.008232,0.11904200000000001,0.016191,0.033442,0.010435999999999999,0.009685
42,0.166027,-1.406356,-2.201108,0.027054,0.98651,-0.16145,-0.006252000000000001,0.100861,0.032251999999999996,0.032608,0.010438,0.009564
43,0.18623499999999998,-1.405438,-2.183303,0.030477999999999998,0.986359,-0.161759,-0.023294,0.127469,0.053480999999999994,0.032067,-0.00010800000000000001,-0.011062
44,0.20115999999999998,-1.405748,-2.170687,0.032827999999999996,0.98641,-0.160987,-0.041637,0.098703,0.07048600000000001,0.020868,0.004816,-0.001306
45,0.213831,-1.405967,-2.1588540000000003,0.03482,0.9864459999999999,-0.160347,-0.021731,0.018733,0.071799,0.0123,0.005604,-0.0013050000000000002
46,0.21933000000000002,-1.405815,-2.1532880000000003,0.035733,0.9864209999999999,-0.1603,0.004951,0.005915999999999999,0.057044000000000004,-0.005063000000000001,-0.002031,0.0035159999999999996
47,0.22907800000000003,-1.4050209999999999,-2.143839,0.037472000000000005,0.986291,-0.160707,0.020997,0.011204,0.052882000000000005,0.016224000000000002,0.004966,-0.004683
48,0.240046,-1.404179,-2.132591,0.03943,0.986151,-0.161092,0.00375,-0.027089,0.053886,0.014875999999999999,0.012459999999999999,-0.0025280000000000003
49,0.247423,-1.404051,-2.124237,0.040648000000000004,0.98613,-0.160919,-0.009178,-0.055802,0.052766999999999994,0.012681999999999999,0.016357,0.005935
50,0.25644,-1.4042430000000001,-2.113911,0.042049,0.9861620000000001,-0.160364,-0.008139,-0.07174,0.042117,0.011097,0.012129000000000001,0.002893
51,0.260491,-1.404095,-2.108044,0.042736,0.986137,-0.160333,-0.001829,-0.098368,0.035788,0.0072510000000000005,0.01078,-0.001731
52,0.26225,-1.403993,-2.103792,0.043044,0.9861209999999999,-0.160354,-0.010520999999999999,-0.138797,0.030438,0.002686,0.012674,-0.0043490000000000004
53,0.26204299999999997,-1.403981,-2.100745,0.043014,0.9861190000000001,-0.160374,-0.010583,-0.165378,0.017654,0.004609,0.016796000000000002,-0.004665
54,0.26506,-1.4040350000000001,-2.094862,0.043483999999999995,0.9861280000000001,-0.160192,-0.015712,-0.131223,0.005829,0.017902,0.009661,0.001181
55,0.26793,-1.40434,-2.089441,0.043864,0.9861780000000001,-0.159777,-0.018928999999999998,-0.139711,0.00048300000000000003,0.030431,0.00842,0.005221
56,0.275507,-1.404357,-2.078838,0.045068000000000004,0.986181,-0.159423,-0.024385,-0.165261,0.001559,0.028402999999999998,0.010767,-0.00038199999999999996
57,0.280102,-1.405058,-2.071103,0.045609,0.986297,-0.158551,-0.023232,-0.15245,-0.005918,0.021682,0.010041,0.008618
58,0.28060999999999997,-1.405474,-2.0682720000000003,0.045576,0.9863649999999999,-0.158134,-0.01656,-0.09599500000000001,-0.010213,0.021532,0.001962,0.007087
59,0.2854,-1.4058549999999999,-2.062074,0.046228,0.9864280000000001,-0.157553,-0.013235,-0.079937,-0.027306999999999998,0.02793,-0.001778,0.005423
60,0.28941500000000003,-1.406225,-2.055885,0.046756,0.986489,-0.15701600000000002,-0.016737000000000002,-0.142787,-0.024036000000000002,0.012952000000000002,0.018287,0.001743
61,0.28793,-1.406514,-2.054273,0.046441,0.9865360000000001,-0.15681199999999998,-0.011542,-0.147173,0.0027140000000000003,0.009543000000000001,-0.004724,0.002164
62,0.288487,-1.406302,-2.051669,0.046588,0.9865010000000001,-0.156986,0.000549,-0.084299,-0.013300999999999999,0.030362,0.0035189999999999996,0.0031780000000000003
63,0.298041,-1.4061709999999998,-2.040317,0.048124,0.9864799999999999,-0.156658,0.015302000000000001,-0.12376300000000001,-0.013132,0.047198000000000004,0.014436000000000001,0.010020999999999999
64,0.298754,-1.405758,-2.036355,0.048356,0.9864120000000001,-0.157013,0.021351,-0.18351199999999998,0.005152,0.033691000000000006,0.005745,0.01001
65,0.299977,-1.405822,-2.031729,0.048529,0.9864229999999999,-0.156893,0.000106,-0.162131,0.00498,0.009241,0.00021099999999999998,0.009021
66,0.29953,-1.405946,-2.029134,0.048423,0.9864430000000001,-0.156798,0.0033710000000000003,-0.15571500000000002,-0.0035479999999999995,0.011041,0.008003,0.003249
67,0.299585,-1.405744,-2.025744,0.04849,0.98641,-0.156986,0.020338,-0.179205,-0.004463,0.016741,0.012766,0.003467
68,0.298806,-1.404906,-2.023102,0.048611,0.9862719999999999,-0.157814,0.024659,-0.16856300000000002,-0.005509,0.015552000000000002,-0.0008289999999999999,-0.004647
69,0.296635,-1.4046299999999998,-2.022288,0.048348,0.986226,-0.158179,0.019472,-0.145069,-0.015186000000000002,0.010612,0.003215,0.0052710000000000005
70,0.29499000000000003,-1.404691,-2.020997,0.04807,0.9862360000000001,-0.1582,0.027973,-0.16103800000000001,-0.024715,0.017085,0.013535,0.010388
71,0.2915,-1.4042379999999999,-2.021372,0.047646,0.9861610000000001,-0.158795,0.033348,-0.159956,-0.03322,0.015250999999999999,0.001327,0.006573999999999999
72,0.285713,-1.40503,-2.024252,0.046506,0.9862920000000001,-0.15831900000000002,-0.0006450000000000001,-0.149088,-0.056971,0.0036950000000000004,0.014119999999999999,0.025169999999999998
73,0.27426500000000004,-1.407036,-2.032624,0.044155,0.9866209999999999,-0.156936,-0.009134,-0.168103,-0.08905700000000001,-0.009914,0.023587,0.028442000000000002
74,0.25471900000000003,-1.408665,-2.048973,0.040674,0.986885,-0.15621400000000002,-0.007904000000000001,-0.155225,-0.113642,-0.024088,0.017784,0.010157
75,0.23259000000000002,-1.409918,-2.06904,0.036922,0.987087,-0.155871,-0.008575,-0.075292,-0.122303,-0.020458,0.008061,0.004443
76,0.21647199999999997,-1.410572,-2.0846310000000003,0.034267,0.987192,-0.155816,-0.012654,-0.018878,-0.107451,-0.002788,0.000128,-0.004005
77,0.20347300000000001,-1.411232,-2.097029,0.032107,0.987297,-0.15561,-0.017183,-0.056208,-0.089298,-0.002688,0.001015,-0.0038439999999999998
78,0.185872,-1.41161,-2.1132020000000002,0.029294,0.9873569999999999,-0.15578399999999998,0.0008699999999999999,-0.06908099999999999,-0.082753,-0.019574,-0.007178,-0.008523000000000001
79,0.17364200000000002,-1.411422,-2.125378,0.027419,0.9873270000000001,-0.156314,0.02476,0.037308,-0.068838,-0.017012,-0.009055,-0.00755
80,0.164614,-1.410877,-2.1361380000000003,0.026095,0.98724,-0.157086,0.035564,0.094683,-0.041066000000000005,-0.011812000000000001,-0.005612,-0.002811
81,0.158798,-1.409658,-2.143557,0.025371,0.9870450000000001,-0.158423,0.032129000000000005,0.07750499999999999,-0.004753,-0.011821,-0.013641,-0.011406999999999999
82,0.160304,-1.408974,-2.144367,0.025717,0.986935,-0.159051,0.015272999999999998,0.152022,0.022806,-0.015418000000000001,0.006564,-0.014655000000000001
83,0.156805,-1.408248,-2.1512849999999997,0.025272,0.9868180000000001,-0.159848,0.004686999999999999,0.188199,0.0419,-0.050266000000000005,0.028868,-0.022281
84,0.165003,-1.4080139999999999,-2.146576,0.026619999999999998,0.9867799999999999,-0.159863,0.005725,0.174377,0.034448,-0.05819,0.027472000000000003,-0.022113
85,0.170562,-1.4079190000000001,-2.144678,0.027524,0.986765,-0.159805,-0.001539,0.19054400000000002,0.001219,-0.06506100000000001,0.028814,-0.006653
86,0.16558399999999998,-1.408123,-2.153677,0.026695,0.986798,-0.159742,-0.009826999999999999,0.217315,-0.026655,-0.052162,0.010806999999999999,-0.011126
87,0.167042,-1.408391,-2.156841,0.026883999999999998,0.986841,-0.159442,-0.0065840000000000004,0.227952,-0.025578,-0.047789,0.000753,-0.017712000000000002
88,0.168324,-1.408464,-2.159697,0.027076,0.9868530000000001,-0.15933599999999998,0.002826,0.18849200000000002,-0.022257,-0.063148,-0.002646,-0.018154
89,0.155177,-1.4083139999999998,-2.1763689999999998,0.025002,0.9868290000000001,-0.159824,0.011398,0.191673,-0.026488,-0.090081,0.014438,-0.018429
90,0.15603399999999998,-1.408283,-2.180125,0.025144,0.9868239999999999,-0.159833,0.0031550000000000003,0.250318,-0.033030000000000004,-0.100034,0.02369,-0.005481000000000001
91,0.157471,-1.408253,-2.184558,0.025378,0.986819,-0.159826,0.008777,0.31103200000000003,-0.036273,-0.077716,0.030758999999999998,0.0012259999999999999
92,0.149928,-1.4087889999999998,-2.19862,0.024093,0.986906,-0.15949000000000002,0.00036,0.337692,-0.036377,-0.058105,0.040484,0.020208
93,0.153282,-1.4093149999999999,-2.201531,0.024548,0.9869899999999999,-0.158895,-0.0309,0.285526,-0.0173,-0.053051999999999995,0.050332999999999996,0.019308000000000002
94,0.146107,-1.4108559999999999,-2.213536,0.023186000000000002,0.987237,-0.15756199999999998,-0.051489,0.23346999999999998,-0.001429,-0.078331,0.022346,0.010467
95,0.151759,-1.412107,-2.2125790000000003,0.02389,0.9874350000000001,-0.15620799999999999,-0.06853,0.23886,-0.002623,-0.105295,0.009864,0.001179
96,0.157658,-1.413404,-2.211318,0.02461,0.9876389999999999,-0.154799,-0.061139,0.226034,0.001718,-0.094296,0.000291,-0.015733
97,0.1484,-1.413942,-2.2246810000000004,0.023097,0.9877239999999999,-0.154495,-0.036688,0.208889,0.005102000000000001,-0.068354,-0.009055,-0.033112
98,0.153409,-1.414348,-2.223645,0.023809,0.9877870000000001,-0.153981,-0.013269999999999999,0.196029,0.004213000000000001,-0.049566000000000006,0.001471,-0.0312
99,0.15407,-1.413857,-2.227395,0.023985,0.9877100000000001,-0.154445,0.007195999999999999,0.254483,0.0203,-0.025176,0.004874,-0.02068
100,0.166599,-1.413492,-2.221489,0.025977999999999998,0.9876530000000001,-0.15448800000000001,0.009699,0.386368,0.070355,-0.019036,0.00044500000000000003,-0.024635
101,0.182791,-1.4118629999999999,-2.2140779999999998,0.028769,0.987397,-0.155629,-0.004028,0.476721,0.131027,-0.026175,-0.007095999999999999,-0.044948
102,0.211727,-1.411299,-2.1942909999999998,0.033375999999999996,0.9873069999999999,-0.155276,0.00532,0.46373000000000003,0.174906,-0.042577,-0.000277,-0.059507000000000004
103,0.24124600000000002,-1.409842,-2.1730419999999997,0.038288,0.987075,-0.155619,0.047673,0.39433,0.177427,-0.05220399999999999,-0.001586,-0.09081
104,0.264761,-1.407994,-2.155782,0.042414,0.986777,-0.156436,0.056929999999999994,0.283645,0.143451,-0.030909,0.009714,-0.06539600000000001
105,0.281089,-1.406299,-2.143463,0.045426999999999995,0.9865010000000001,-0.15733,0.051207,0.159182,0.10511400000000001,0.030195999999999997,0.020824000000000002,0.021817
106,0.29180300000000003,-1.405008,-2.13427,0.047476,0.986289,-0.158053,0.029443,0.043227999999999996,0.083746,0.043543,0.022591999999999998,0.048755
107,0.301055,-1.404555,-2.1251740000000003,0.049069,0.9862139999999999,-0.15803399999999998,-0.021872,0.011483,0.074883,0.062763,0.02169,0.073135
108,0.312268,-1.405471,-2.114247,0.05056,0.9863649999999999,-0.156614,-0.097552,0.025601,0.073268,0.052101,0.025674000000000002,0.07166900000000001
109,0.326533,-1.40727,-2.100485,0.05222,0.9866590000000001,-0.154197,-0.127395,0.041645999999999996,0.08265299999999999,0.038294999999999996,0.013371000000000001,0.06589400000000001
110,0.343886,-1.409206,-2.084618,0.05424299999999999,0.986973,-0.151469,-0.138801,0.124971,0.089869,0.00519,-0.013431,0.033152
111,0.363781,-1.4113200000000001,-2.068405,0.056503,0.987311,-0.14840899999999999,-0.14257,0.22834699999999997,0.082233,-0.011566,-0.013066999999999999,0.001131
112,0.384654,-1.413116,-2.05242,0.058923,0.9875940000000001,-0.145554,-0.123259,0.25388299999999997,0.083393,-0.01951,-0.020980000000000002,-0.008499
113,0.404093,-1.4143700000000001,-2.036723,0.061253999999999996,0.98779,-0.143241,-0.090665,0.157851,0.094426,-0.047094,0.006548999999999999,-0.003594
114,0.42073699999999997,-1.415018,-2.021954,0.063368,0.987891,-0.141618,-0.069649,0.07897699999999999,0.08719600000000001,-0.053815999999999996,0.032815,-0.002364
115,0.43413999999999997,-1.4157870000000001,-2.009281,0.064941,0.98801,-0.140067,-0.0794,0.022645,0.063699,-0.039154,0.014462000000000001,-0.021081
116,0.44360200000000005,-1.416715,-1.9992849999999998,0.06587,0.9881530000000001,-0.13861800000000002,-0.066861,-0.054026,0.045725,0.002322,0.012976,-0.014169
117,0.451004,-1.417127,-1.9903119999999999,0.066716,0.988216,-0.13776,-0.04462,-0.07653,0.059796,0.045497,0.02335,0.003361
118,0.46146099999999995,-1.417702,-1.978291,0.0679,0.9883040000000001,-0.136546,-0.083036,-0.066855,0.071266,0.058549000000000004,0.025002,0.019252000000000002
119,0.49161800000000005,-1.4189969999999998,-1.9469169999999998,0.071383,0.9885010000000001,-0.13330899999999998,-0.106447,-0.062466999999999995,0.060429,0.057936,0.019022,0.037819
120,0.5032439999999999,-1.420415,-1.93445,0.072252,0.988714,-0.131242,-0.10505,-0.008066,0.041141000000000004,0.051528,0.002497,0.014375
121,0.515232,-1.4219709999999999,-1.923295,0.073061,0.9889459999999999,-0.129027,-0.11212000000000001,0.074012,0.034577,0.048475,-9e-06,-0.003023
122,0.529017,-1.423575,-1.911134,0.074032,0.989182,-0.126638,-0.115258,0.092115,0.038805,0.038852,-0.014543,-0.028727
123,0.542967,-1.425114,-1.899277,0.075005,0.9894069999999999,-0.12428900000000001,-0.10331199999999999,0.131519,0.03136,0.0017620000000000001,-0.017315,-0.017602
124,0.555636,-1.4262709999999998,-1.890198,0.07597000000000001,0.989574,-0.122357,-0.070913,0.210271,0.022940000000000002,0.00043099999999999996,-0.011913,-0.010074
125,0.566755,-1.4270129999999999,-1.883737,0.076931,0.9896809999999999,-0.12088499999999999,-0.051561,0.23792199999999997,0.017699,0.014118,-0.004162,-0.002391
126,0.581838,-1.427376,-1.872566,0.078548,0.989733,-0.11941099999999999,-0.058263999999999996,0.172956,0.019875999999999998,0.025013,0.002928,0.004573
127,0.5916560000000001,-1.428221,-1.865678,0.07925,0.9898530000000001,-0.11793900000000002,-0.063699,0.145299,0.014532,0.027897,0.010086,0.0089
128,0.612487,-1.429932,-1.8478450000000002,0.080716,0.9900950000000001,-0.11487699999999999,-0.058336,0.141072,0.0017629999999999998,0.024677,0.020022,0.048608
129,0.6200939999999999,-1.430667,-1.8427310000000001,0.081164,0.9901979999999999,-0.113668,-0.044577,0.129255,0.014693000000000001,0.022534000000000002,0.021444,0.054662
130,0.6304770000000001,-1.431262,-1.8360779999999999,0.081993,0.990281,-0.11234300000000001,-0.061205999999999997,0.23262399999999997,0.019786,0.006981,0.010055,0.032524000000000004
131,0.653382,-1.431819,-1.8181169999999998,0.084209,0.990358,-0.109997,-0.073977,0.2327,0.012227,0.031529,0.00897,0.008785
132,0.664559,-1.432703,-1.810461,0.084893,0.9904799999999999,-0.10835999999999998,-0.061567,0.147425,0.01456,0.022895,0.004804999999999999,0.007835
133,0.6721,-1.433444,-1.805512,0.085251,0.990582,-0.107143,-0.043397000000000005,0.135721,-0.004526,-0.002426,0.005985,0.009609
134,0.6830510000000001,-1.4348809999999999,-1.797853,0.085521,0.990778,-0.105099,-0.01854,0.177305,-0.035381,0.020863,0.011831999999999999,0.018459
135,0.694802,-1.435506,-1.7903380000000002,0.086353,0.9908620000000001,-0.10361,-0.006508,0.21997399999999998,-0.059912,0.033535,0.005949,0.021335
136,0.706464,-1.436455,-1.7835599999999998,0.08694500000000001,0.9909899999999999,-0.101881,-0.026619999999999998,0.23716700000000002,-0.079294,0.038238,0.0068590000000000005,0.021315
137,0.729391,-1.437714,-1.7656029999999998,0.08842699999999999,0.991158,-0.09893099999999999,-0.047889,0.24049600000000002,-0.093316,0.036161,0.024391,0.019615999999999998
138,0.748842,-1.439892,-1.751802,0.088864,0.9914440000000001,-0.095611,-0.0711,0.292808,-0.101011,0.026554,0.019008,0.016921000000000002
139,0.758509,-1.44231,-1.748818,0.088135,0.991757,-0.093007,-0.08039199999999999,0.351475,-0.111829,0.019272,0.008121,0.008595
140,0.7661600000000001,-1.4446290000000002,-1.748749,0.08724900000000001,0.992051,-0.090673,-0.06740800000000001,0.373874,-0.129922,0.012558,0.006682,-0.000239
141,0.760663,-1.447157,-1.7613849999999998,0.08502,0.992366,-0.089334,-0.061062,0.34833600000000003,-0.142664,-0.001936,0.008763,-0.016516
142,0.75166,-1.449929,-1.7777060000000002,0.082333,0.9927040000000001,-0.088085,-0.06300499999999999,0.379278,-0.153402,-0.009,0.006365,-0.019657
143,0.738146,-1.453453,-1.799219,0.078782,0.993123,-0.086602,-0.05859299999999999,0.399549,-0.165154,-0.015350999999999998,-0.0007070000000000001,0.002755
144,0.729881,-1.456438,-1.814876,0.076086,0.993468,-0.08504,-0.044982,0.340916,-0.166052,-0.010595,0.0049299999999999995,0.007051999999999999
145,0.7166680000000001,-1.459674,-1.834554,0.07284299999999999,0.9938319999999999,-0.08361299999999999,-0.048337,0.306838,-0.166035,-0.012739,0.010944,0.0004980000000000001
146,0.706569,-1.462682,-1.8508080000000002,0.07005399999999999,0.9941610000000001,-0.082071,-0.059049000000000004,0.298349,-0.16502999999999998,-0.011170000000000001,0.009852,0.0018399999999999998
147,0.695546,-1.465611,-1.867493,0.06727899999999999,0.9944729999999999,-0.080602,-0.047467,0.269525,-0.159571,-0.012561,0.006275,0.0074670000000000005
148,0.675602,-1.469273,-1.892843,0.06338099999999999,0.994851,-0.079086,-0.035735,0.269484,-0.159496,-0.016567,0.002982,0.004028
149,0.654913,-1.4730379999999998,-1.918907,0.059449,0.995225,-0.077409,-0.048575,0.255706,-0.165983,-0.014191,0.0054,0.010499
150,0.6370520000000001,-1.4761520000000001,-1.9415810000000002,0.056213,0.995525,-0.07596599999999999,-0.035918,0.22794699999999998,-0.161588,-0.00856,0.006673,0.008812
151,0.612316,-1.478803,-1.971196,0.0528,0.9957719999999999,-0.075174,-0.020935,0.250219,-0.149765,-0.011189,-0.002043,-0.00141
152,0.5864050000000001,-1.4814040000000002,-2.0020290000000003,0.049401,0.996007,-0.07435900000000001,-0.022113999999999998,0.228904,-0.146546,-0.012094,0.006221,0.003314
153,0.559707,-1.484961,-2.0325860000000002,0.045517,0.996318,-0.072649,-0.016003,0.16709200000000002,-0.145362,-0.016587,0.007527,0.01288
154,0.53177,-1.487069,-2.063709,0.042405,0.996497,-0.07208099999999999,-0.008612999999999999,0.156388,-0.13889,-0.016831,0.008020000000000001,0.007201000000000001
155,0.49821000000000004,-1.48925,-2.100462,0.038925,0.996677,-0.071555,-0.008625,0.151075,-0.142093,-0.012496,0.006039,0.005072
156,0.46751000000000004,-1.4912219999999998,-2.133852,0.035824,0.996836,-0.070961,0.005068,0.11585999999999999,-0.13875,-0.003796,0.001684,0.0046619999999999995
157,0.43601899999999993,-1.49222,-2.167535,0.033151,0.996915,-0.07115199999999999,0.018827,0.099798,-0.130089,-0.004968,-0.002148,0.000595
158,0.40251,-1.4929270000000001,-2.203076,0.030473,0.99697,-0.071573,0.025166,0.094416,-0.121494,-0.005967,0.000528,-0.000204
159,0.37191199999999996,-1.493383,-2.235522,0.028102999999999996,0.9970049999999999,-0.072048,0.031466,0.084755,-0.10862000000000001,-0.002286,0.003788,0.001385
160,0.345744,-1.49346,-2.263448,0.026182999999999998,0.9970110000000001,-0.072686,0.042101,0.085749,-0.10000099999999999,0.002184,0.000624,0.002633
161,0.321625,-1.493059,-2.289515,0.024548,0.99698,-0.073676,0.057052,0.096587,-0.09564199999999999,0.004489,0.002562,-0.001565
162,0.296254,-1.492809,-2.316745,0.022744,0.9969610000000001,-0.074514,0.055883,0.079525,-0.090287,-0.002908,0.001041,0.011312000000000001
163,0.271795,-1.492697,-2.342445,0.020945,0.9969520000000001,-0.075155,0.066366,0.048556999999999996,-0.08056100000000001,-0.004313,0.0053219999999999995,0.011572
164,0.243367,-1.492019,-2.371829,0.018963,0.996899,-0.076377,0.06740299999999999,0.042162,-0.08054800000000001,-0.010205,0.009144,0.0019140000000000001
165,0.20962199999999998,-1.491227,-2.4060669999999997,0.01654,0.996836,-0.07774500000000001,0.069392,0.007012999999999999,-0.08369800000000001,-0.015563999999999998,-0.001734,-0.000303
166,0.180423,-1.490202,-2.4352110000000002,0.014447,0.9967540000000001,-0.0792,0.078955,-0.004725,-0.086823,-0.015544999999999998,-0.003453,0.002723
167,0.148324,-1.488999,-2.467556,0.012075,0.996656,-0.080809,0.095072,0.018663,-0.08888099999999999,-0.010579,-0.0022559999999999998,0.00566
168,0.131071,-1.4877879999999999,-2.485519,0.010836,0.996557,-0.082202,0.10043200000000001,0.035646,-0.07818,0.014676,0.0020239999999999998,0.009555
169,0.116575,-1.485969,-2.5006779999999997,0.009854,0.9964040000000001,-0.08415,0.103493,0.023841,-0.058914,0.014697,-0.0008900000000000001,0.006834000000000001
170,0.10348800000000001,-1.4842309999999999,-2.51389,0.008931,0.9962559999999999,-0.085995,0.09689,-0.011329,-0.0493,-0.002919,0.004614,0.0035670000000000003
171,0.074051,-1.482337,-2.542711,0.006536,0.9960899999999999,-0.088103,0.101047,-0.04115,-0.054582000000000006,-0.027044,0.011143,-0.007188
172,0.050658999999999996,-1.480193,-2.5651990000000002,0.004582,0.995898,-0.090364,0.10641600000000001,-0.048566000000000005,-0.069494,-0.028675,0.009670999999999999,-0.008117000000000001
173,0.022916,-1.4777040000000001,-2.592101,0.00213,0.99567,-0.092934,0.10758,-0.038935000000000004,-0.08125299999999999,0.0057280000000000005,0.008526,0.0018390000000000001
174,0.006611,-1.475765,-2.607939,0.000627,0.9954879999999999,-0.094886,0.094831,-0.026111000000000002,-0.080289,0.009367,0.0045119999999999995,0.003181
175,-0.00823,-1.474057,-2.6219639999999997,-0.000795,0.995324,-0.096585,0.087185,-0.055951,-0.070689,0.008485,-0.0021149999999999997,0.004178
176,-0.026566000000000003,-1.471973,-2.639017,-0.002621,0.9951209999999999,-0.098628,0.08924800000000001,-0.070876,-0.06959,-0.014301,0.000591,-0.012777
177,-0.045313,-1.469681,-2.6562810000000003,-0.004572,0.994892,-0.100839,0.09881799999999999,-0.079427,-0.070582,-0.017385,0.005352,-0.014044999999999998
178,-0.065333,-1.4665489999999999,-2.674776,-0.006794,0.9945709999999999,-0.10383699999999998,0.10307100000000001,-0.076276,-0.063084,-0.014003999999999999,-0.003909,-0.021682
179,-0.076775,-1.4636280000000002,-2.684459,-0.008204000000000001,0.9942629999999999,-0.106648,0.10503699999999999,-0.098718,-0.047019,-0.000982,0.0034630000000000004,-0.013438999999999998
180,-0.084329,-1.461402,-2.6897330000000004,-0.009196,0.994022,-0.10878800000000001,0.108045,-0.126486,-0.032007,-9.7e-05,0.000667,-0.010582
181,-0.096461,-1.457825,-2.698609,-0.010856999999999999,0.993626,-0.11220699999999999,0.112046,-0.185098,-0.029772000000000003,-0.017051,-0.0015140000000000002,-0.026205000000000003
182,-0.111899,-1.453633,-2.709666,-0.013053,0.993144,-0.116165,0.128913,-0.240517,-0.038135,-0.022378,-0.001552,-0.035523
183,-0.121886,-1.450835,-2.714553,-0.01455,0.992813,-0.11878599999999999,0.13631400000000002,-0.26712800000000003,-0.049799,-0.019309,-0.001267,-0.041081
184,-0.132354,-1.447241,-2.719645,-0.016263999999999997,0.9923770000000001,-0.12216300000000001,0.138408,-0.276723,-0.049773000000000005,-0.00049,0.0034119999999999997,-0.030195999999999997
185,-0.131975,-1.4434200000000001,-2.713951,-0.016715999999999998,0.991899,-0.12592799999999998,0.1405,-0.26616100000000004,-0.028401999999999997,0.024253999999999998,0.002288,-0.01958
186,-0.131145,-1.440441,-2.708069,-0.016998,0.991516,-0.12887,0.118046,-0.248092,0.0013310000000000002,0.023209,0.002732,-0.01995
187,-0.124465,-1.437539,-2.696655,-0.016493999999999998,0.991134,-0.13183499999999998,0.105224,-0.224726,0.030057,0.011108,0.011566,-0.021072999999999998
188,-0.124473,-1.43404,-2.692093,-0.016926,0.990663,-0.135275,0.091311,-0.23215100000000002,0.034239,-0.018215000000000002,0.01544,-0.039941000000000004
189,-0.12461400000000002,-1.432202,-2.687264,-0.017171000000000002,0.990411,-0.13708,0.09769800000000001,-0.25765,0.011884,-0.044551,0.003775,-0.060247
190,-0.12945,-1.430173,-2.686418,-0.018093,0.990129,-0.138988,0.10407000000000001,-0.293772,-0.017936,-0.054310000000000004,0.0034630000000000004,-0.052113
191,-0.143758,-1.426723,-2.694472,-0.020569,0.9896389999999999,-0.142095,0.098651,-0.32354299999999997,-0.027555,-0.029724,0.004776,-0.040492
192,-0.15212,-1.4247610000000002,-2.695818,-0.022050999999999998,0.9893559999999999,-0.143836,0.094125,-0.372564,-0.018978000000000002,-0.004667,-0.003638,-0.037087
193,-0.15979100000000002,-1.422009,-2.695199,-0.023586000000000003,0.988952,-0.14635,0.090589,-0.43121099999999996,-0.001837,-0.0061530000000000005,-0.002852,-0.033856
194,-0.16600399999999998,-1.420315,-2.69275,-0.024772,0.988699,-0.14785299999999998,0.085259,-0.42057700000000003,0.007726,-0.008736,-0.005484,-0.021184
195,-0.169954,-1.418107,-2.688955,-0.025725,0.988366,-0.14990499999999998,0.073733,-0.36412,0.018255,-0.002519,-0.004082,-0.025342
196,-0.171624,-1.416847,-2.68348,-0.026188,0.988173,-0.151089,0.06938899999999999,-0.359929,0.039583999999999994,0.000233,0.003694,-0.019825
197,-0.168998,-1.414771,-2.673493,-0.026136000000000003,0.9878530000000001,-0.153179,0.07675599999999999,-0.36217,0.061002999999999995,0.002531,0.007036,-0.030857
198,-0.167717,-1.411758,-2.665296,-0.026437000000000002,0.9873799999999999,-0.156147,0.06625,-0.319556,0.069418,-0.011191,0.021653,-0.019925
199,-0.1654,-1.410496,-2.6571290000000003,-0.02628,0.9871790000000001,-0.157436,0.046208,-0.266235,0.072413,-0.015238999999999999,0.018161,-0.017735
200,-0.165302,-1.4088530000000001,-2.651779,-0.026532,0.986916,-0.159039,0.030244,-0.247052,0.084022,-0.022678,0.012489,-0.022463999999999998
201,-0.166223,-1.407627,-2.647652,-0.026877999999999996,0.986717,-0.160207,0.024909999999999998,-0.240673,0.091447,-0.031075,0.009041,-0.015193
202,-0.169151,-1.406436,-2.645175,-0.027545,0.9865229999999999,-0.16128599999999998,0.040820999999999996,-0.262036,0.09157699999999999,-0.034314,0.0045049999999999995,-0.012328
203,-0.170684,-1.404809,-2.641465,-0.028064999999999996,0.9862559999999999,-0.162825,0.052676,-0.234391,0.093753,-0.033016000000000004,-0.000782,-0.014588999999999998
204,-0.168767,-1.403385,-2.635163,-0.027988,0.9860190000000001,-0.16426300000000002,0.043265,-0.18963,0.096828,-0.02171,0.013248,-0.014112999999999999
205,-0.164213,-1.402955,-2.626594,-0.027308999999999996,0.9859479999999999,-0.16480699999999998,0.028319,-0.195953,0.092456,-0.011875,0.036956,-0.0006900000000000001
206,-0.16248900000000002,-1.40327,-2.620392,-0.026975,0.986,-0.164547,0.0197,-0.22570500000000002,0.08068,-0.020694,0.047233,0.0079
207,-0.167247,-1.4038700000000002,-2.620694,-0.027658999999999996,0.9861,-0.16383399999999998,-0.0035210000000000003,-0.189326,0.06016799999999999,-0.037832,0.040526,0.012969999999999999
208,-0.17429,-1.405275,-2.624748,-0.028572000000000004,0.986333,-0.16227,-0.035129,-0.11140599999999999,0.048088,-0.030677999999999997,0.034969,0.018883
209,-0.17693499999999998,-1.407324,-2.625098,-0.028645,0.986668,-0.16020399999999999,-0.065045,-0.120886,0.046819,-0.011653,0.008723999999999999,0.017092
210,-0.17719200000000002,-1.409189,-2.6218369999999998,-0.028362000000000002,0.9869700000000001,-0.158385,-0.077175,-0.203953,0.051113,-0.008457,-0.0037240000000000003,0.004988
211,-0.17733,-1.410584,-2.617061,-0.028141000000000003,0.987193,-0.157027,-0.050748,-0.260497,0.049234,-0.008877,0.006367,-0.005983
212,-0.177406,-1.411354,-2.611626,-0.028019,0.987316,-0.156276,-0.024215999999999998,-0.272161,0.06546,-0.0055049999999999995,-0.002254,0.0033369999999999997
213,-0.171018,-1.411944,-2.5996919999999997,-0.026920999999999997,0.987409,-0.155878,-0.012605,-0.27655599999999997,0.089049,0.014516,-0.004743,-0.002081
214,-0.16409,-1.412369,-2.586609,-0.025772000000000003,0.987477,-0.155647,0.001995,-0.32253000000000004,0.118052,0.030853,-0.007298000000000001,-0.009347
215,-0.154718,-1.412616,-2.569721,-0.024274,0.987516,-0.15564,0.012299,-0.383368,0.138498,0.045362,-0.0038729999999999997,-0.033462
216,-0.13765,-1.4119,-2.544913,-0.021711,0.987403,-0.15673199999999998,0.034755,-0.380218,0.131179,0.042845,0.034829,-0.047675
217,-0.12972899999999998,-1.411203,-2.529243,-0.020558,0.9872920000000001,-0.157581,0.058384000000000005,-0.36955,0.106762,0.045339,0.040128,-0.055142
218,-0.12011600000000001,-1.409131,-2.512725,-0.019288,0.9869610000000001,-0.159802,0.064199,-0.326704,0.043727999999999996,0.056504,0.046883,-0.06139
219,-0.125063,-1.40808,-2.511142,-0.020207,0.986791,-0.160734,0.045244,-0.32853699999999997,-0.014086000000000001,0.065877,0.041208999999999996,-0.049075
220,-0.125329,-1.4069909999999999,-2.505245,-0.020384,0.986614,-0.161794,-0.003468,-0.295152,-0.061461,0.078856,0.039738,-0.029398
221,-0.14102,-1.407485,-2.516687,-0.022852,0.9866940000000001,-0.160972,-0.051777,-0.171222,-0.10895899999999999,0.100122,0.065506,-0.012093000000000001
222,-0.146867,-1.409446,-2.5208880000000002,-0.02351,0.9870110000000001,-0.158921,-0.09375599999999999,-0.072836,-0.16705,0.09463099999999999,0.017612,0.016557
223,-0.174723,-1.4115149999999999,-2.5488560000000002,-0.027572000000000003,0.987342,-0.156194,-0.165569,0.03417,-0.224304,0.073196,-0.014823,0.05954500000000001
224,-0.207137,-1.414974,-2.584953,-0.031917,0.987884,-0.151875,-0.25954699999999997,0.223165,-0.25297600000000003,0.033275,-0.024124,0.061299
225,-0.241952,-1.419758,-2.6256060000000003,-0.036051,0.9886149999999999,-0.146083,-0.323367,0.275548,-0.243875,0.028574000000000002,-0.021727,0.060221000000000004
226,-0.278419,-1.424998,-2.666774,-0.039929,0.98939,-0.13968699999999998,-0.330305,0.18278599999999998,-0.217099,-0.014240000000000001,-0.016566,0.035561
227,-0.315085,-1.429894,-2.707302,-0.043521,0.9900899999999999,-0.133523,-0.305911,0.164536,-0.203019,-0.028272000000000002,0.000389,-0.000602
228,-0.351121,-1.4336280000000001,-2.745894,-0.047031,0.990607,-0.128396,-0.23389200000000002,0.06301799999999999,-0.186362,-0.006069,0.010186,-0.025138
229,-0.386895,-1.435861,-2.780582,-0.050759,0.9909100000000001,-0.124583,-0.16239,-0.15673099999999998,-0.172762,0.016594,0.002269,-0.011663
230,-0.420458,-1.437102,-2.809374,-0.054409000000000006,0.9910760000000001,-0.12168599999999999,-0.121473,-0.281627,-0.143475,0.003093,-0.017077000000000002,-0.00252
231,-0.45301,-1.438395,-2.8366580000000003,-0.05778,0.9912479999999999,-0.118699,-0.147102,-0.27413200000000004,-0.13084500000000002,0.009226,0.002954,0.02295
232,-0.48353,-1.440007,-2.86231,-0.060632000000000005,0.991459,-0.11546600000000001,-0.141676,-0.22950700000000002,-0.106295,0.01896,0.015147999999999998,0.035372
233,-0.511115,-1.441565,-2.8874779999999998,-0.063038,0.991661,-0.112402,-0.154826,-0.06966900000000001,-0.106591,0.038135,0.014686000000000001,0.001456
234,-0.528346,-1.444798,-2.9052029999999998,-0.063348,0.992073,-0.10853,-0.187379,0.047623,-0.10589200000000001,0.046228,0.017327000000000002,0.007929
235,-0.5594399999999999,-1.4469,-2.93855,-0.065585,0.9923350000000001,-0.10474000000000001,-0.20499299999999998,0.13409300000000002,-0.136036,0.045291000000000005,0.015524000000000001,0.00922
236,-0.596621,-1.448991,-2.9790240000000003,-0.068267,0.992591,-0.100513,-0.242166,0.14710399999999998,-0.160882,0.025512,0.037057,0.04726
237,-0.65681,-1.454768,-3.0404709999999997,-0.070687,0.993276,-0.091682,-0.356819,0.018692,-0.18287899999999999,0.035653,0.086253,0.097496
238,-0.728028,-1.458458,-3.1132869999999997,-0.07459299999999999,0.9936969999999999,-0.08368300000000001,-0.422365,0.114946,-0.220848,0.009941,0.048645999999999995,0.070423
239,-0.818823,-1.461393,3.073328,-0.079742,0.9940209999999999,-0.07458200000000001,-0.515041,0.299902,-0.306122,-0.017440999999999998,0.018033,0.011945
240,-0.9305479999999999,-1.463215,2.9554139999999998,-0.086108,0.9942190000000001,-0.06414500000000001,-0.558802,0.242743,-0.359765,-0.013837,0.005659,0.040631
241,-1.054942,-1.4628290000000002,2.8257470000000002,-0.093736,0.9941770000000001,-0.053154999999999994,-0.582253,0.195097,-0.412211,-0.018279,0.001459,0.042885
242,-1.185727,-1.460541,2.692726,-0.101975,0.993928,-0.041331,-0.6193609999999999,0.0056240000000000005,-0.4165,-0.028213,0.033858,0.07361799999999999
243,-1.322981,-1.456581,2.554293,-0.11048499999999999,0.9934850000000001,-0.027955,-0.716119,0.050816,-0.445008,-0.01627,-0.001572,0.0336
244,-1.470026,-1.450225,2.404541,-0.11966900000000001,0.99274,-0.0121,-0.860036,0.051417,-0.470583,0.002801,0.000729,0.034759
245,-1.620776,-1.4410180000000001,2.252541,-0.129253,0.991591,0.006465,-0.9743719999999999,-0.008823000000000001,-0.4916,0.034725,0.026964,0.063099
246,-1.75977,-1.4284540000000001,2.1116509999999997,-0.139336,0.989886,0.026649000000000003,-1.040187,0.042631,-0.514559,0.048989,0.001599,0.07737000000000001
247,-1.8794380000000002,-1.413281,1.9895150000000001,-0.149452,0.98762,0.04765,-1.088191,0.059779,-0.49889300000000003,0.063774,-0.006099,0.068744
248,-1.98335,-1.396814,1.882377,-0.158582,0.9849030000000001,0.06940700000000001,-1.141543,0.128922,-0.42778299999999997,0.10359000000000002,-0.006647,0.091405
249,-2.076591,-1.3797760000000001,1.7827979999999999,-0.166088,0.9818110000000001,0.091988,-1.211606,0.318338,-0.316352,0.150555,0.008912,0.12722
250,-2.161712,-1.362737,1.68533,-0.171535,0.978434,0.11508,-1.3067950000000002,0.662115,-0.157224,0.20667600000000003,0.04537,0.170473
251,-2.243375,-1.345942,1.583246,-0.174407,0.974827,0.138908,-1.421254,1.041974,0.052998,0.21964899999999998,0.06888999999999999,0.12746500000000002
252,-2.318652,-1.3301459999999998,1.477636,-0.174734,0.971183,0.162083,-1.433853,1.556677,0.286191,0.22653800000000002,0.067696,0.12469000000000001
253,-2.38617,-1.31561,1.372596,-0.173062,0.967616,0.18376099999999998,-1.41526,1.8021099999999999,0.431284,0.122021,0.051686,-0.021499
254,-2.4397130000000002,-1.301188,1.2791270000000001,-0.17197300000000001,0.963875,0.203396,-1.2892270000000001,1.8092259999999998,0.407587,0.025061,0.056739,-0.112133
255,-2.475111,-1.287766,1.206382,-0.17265,0.9602129999999999,0.219505,-1.0419260000000001,1.655389,0.302689,-0.162082,0.011756,-0.225196
256,-2.4913220000000003,-1.278059,1.158984,-0.174703,0.957458,0.22968200000000003,-0.6463949999999999,1.2867629999999999,0.23649,-0.23954299999999998,-0.019698,-0.281012
257,-2.506809,-1.274514,1.124707,-0.17313699999999999,0.9564290000000001,0.235091,-0.342873,0.5439109999999999,0.32822399999999996,-0.21831199999999998,0.001823,-0.259414
258,-2.534571,-1.274406,1.091988,-0.166604,0.9563969999999999,0.239892,-0.266658,0.009644,0.403148,-0.078025,-0.035148,-0.138696
259,-2.570402,-1.2748540000000002,1.058057,-0.157671,0.956528,0.245346,-0.24561,-0.249464,0.44635600000000003,-0.058637,-0.054108,-0.130737
260,-2.611732,-1.2761280000000002,1.0216459999999998,-0.146783,0.9568979999999999,0.25059899999999996,-0.20898000000000003,-0.34677600000000003,0.507626,-0.019003,-0.07816000000000001,-0.089299
261,-2.655421,-1.27807,0.9829680000000001,-0.13483,0.957461,0.255128,-0.173874,-0.320463,0.556975,0.009951999999999999,-0.109652,-0.017533
262,-2.7011,-1.2814649999999999,0.941203,-0.121652,0.958435,0.258076,-0.065174,-0.253046,0.65272,0.002207,-0.10481300000000002,-0.008732
263,-2.748866,-1.28798,0.895308,-0.106799,0.9602729999999999,0.257816,0.089462,-0.162208,0.756232,0.076663,-0.041908,0.034512
264,-2.801784,-1.296332,0.8449409999999999,-0.090337,0.96257,0.25553400000000004,0.157935,-0.289485,0.8241709999999999,0.10858599999999999,-0.022553,0.024404
265,-2.86642,-1.304294,0.7862279999999999,-0.07155800000000001,0.9646979999999999,0.25345100000000004,0.13131400000000001,-0.448388,0.891487,0.12806099999999998,-0.045158,0.037397
266,-2.937763,-1.311691,0.7213579999999999,-0.051864,0.966619,0.25091199999999997,0.177252,-0.41348,0.913127,0.066039,-0.047583,-0.012402
267,-3.011023,-1.3181969999999998,0.652845,-0.03254,0.968266,0.24779400000000001,0.17356,-0.300487,0.8980020000000001,0.008751,-0.014409,-0.034782
268,-3.082816,-1.32392,0.5832579999999999,-0.014355000000000001,0.9696809999999999,0.243954,0.231846,-0.171706,0.8768790000000001,-0.024340999999999998,0.003632,-0.032818
269,3.128245,-1.329672,0.51175,0.003187,0.9710700000000001,0.238773,0.278018,-0.121735,0.8611139999999999,-0.041014,0.004607,0.0032159999999999997
270,3.059311,-1.334601,0.442665,0.019233,0.9722350000000001,0.23321399999999998,0.291525,-0.069164,0.756456,-0.05177999999999999,-0.019797,0.029695
271,3.001627,-1.3393950000000001,0.384441,0.031994999999999996,0.9733459999999999,0.22709899999999997,0.32872399999999996,-0.050431000000000004,0.568684,-0.062100999999999996,-0.073337,0.056455
272,2.958158,-1.345034,0.341852,0.040832,0.9746239999999999,0.220094,0.370897,-0.146625,0.345844,-0.091079,-0.056791999999999995,0.059234
273,2.953793,-1.349482,0.34060300000000004,0.040983,0.9756100000000001,0.215653,0.367952,-0.25671700000000003,0.173959,-0.110883,0.008765,0.04509
274,2.930345,-1.355481,0.322384,0.044799,0.976909,0.208906,0.31050500000000003,-0.273347,0.12016700000000001,-0.12004000000000001,0.040669,0.05311799999999999
275,2.9115450000000003,-1.360233,0.307741,0.047659,0.9779129999999999,0.203504,0.23526100000000003,-0.191998,0.088559,-0.044562,0.12343499999999999,0.108233
276,2.899607,-1.363281,0.29781199999999997,0.049371,0.9785459999999999,0.200026,0.12828900000000001,-0.056179,0.049182,0.020285,0.201935,0.13731500000000002
277,2.900303,-1.364062,0.29684099999999997,0.049049,0.978706,0.199318,-0.007956,0.165157,-0.038579,0.034508,0.176826,0.12825699999999998
278,2.9104919999999996,-1.3588069999999999,0.302687,0.048193,0.977614,0.204812,-0.029749,0.245371,-0.099712,0.028299,-0.005797,0.060859
279,2.925036,-1.358658,0.31254,0.045241,0.977583,0.20563299999999998,-0.035088,0.249629,-0.094414,0.020662,-0.017195,0.051187
280,2.9379779999999998,-1.357845,0.320355,0.042737,0.977411,0.20698000000000003,-0.07139,0.2805,-0.05731900000000001,0.00867,-0.020562999999999998,0.049977999999999995
281,2.94949,-1.352762,0.32600100000000004,0.041299,0.976324,0.21233200000000002,-0.091825,0.29104800000000003,-0.013674,0.01612,-0.030005,0.040292
282,2.953665,-1.3510790000000001,0.32562800000000003,0.040719,0.975959,0.21411599999999997,-0.073354,0.183167,0.042141000000000005,0.045829,-0.020194,0.024959000000000002
283,2.935771,-1.3478569999999999,0.305881,0.045186000000000004,0.975252,0.21643099999999998,-0.05294600000000001,0.049644,0.11510899999999999,0.049617,-0.006624,0.015747
284,2.922683,-1.3466690000000001,0.293182,0.048266,0.974988,0.216952,-0.008933,-0.074296,0.168986,0.037808,0.0059689999999999995,-0.019045
285,2.893929,-1.3485040000000001,0.265977,0.054045,0.9753950000000001,0.21373899999999998,0.064554,-0.078921,0.196218,0.02733,0.003014,-0.040277
286,2.8735459999999997,-1.349477,0.24538800000000002,0.058138999999999996,0.9756090000000001,0.21167800000000003,0.125816,0.034794,0.210387,0.018628,0.047112,-0.050026999999999995
287,2.8483080000000003,-1.353168,0.217015,0.062421000000000004,0.9764120000000001,0.206695,0.15853299999999998,0.197638,0.21788600000000002,0.014667,0.089338,-0.024002000000000002
288,2.832464,-1.354926,0.19448900000000002,0.065165,0.9767899999999999,0.204044,0.152975,0.36604899999999996,0.198403,0.016607,0.087129,0.005413
289,2.816651,-1.3563,0.169855,0.067955,0.9770840000000001,0.201717,0.163969,0.436328,0.196257,0.020622,0.050855000000000004,0.016423
290,2.801879,-1.358691,0.146162,0.070148,0.97759,0.198487,0.22032100000000002,0.397764,0.200973,0.017666,0.0063880000000000004,-0.004136
291,2.776193,-1.3627639999999999,0.11343699999999998,0.073799,0.978439,0.1929,0.281572,0.27497,0.219721,0.013281999999999999,-0.028137,-0.025312
292,2.752141,-1.366503,0.084475,0.077028,0.9792049999999999,0.187684,0.270529,0.17388,0.20161300000000001,-0.002855,-0.041735,-0.036362
293,2.731125,-1.37047,0.060267999999999995,0.079404,0.980002,0.18245999999999998,0.208497,0.110295,0.172415,-0.017301,-0.035361000000000004,-0.022182
294,2.710593,-1.372276,0.03797,0.08239400000000001,0.980359,0.17918299999999998,0.153804,0.038086,0.162512,-0.046658,-0.011854,-0.009322
295,2.707627,-1.375624,0.033964,0.081545,0.9810139999999999,0.175959,0.160021,-0.015147,0.14978699999999998,-0.069841,0.013156999999999999,-0.000727
296,2.683763,-1.377474,0.010686,0.084918,0.9813709999999999,0.172335,0.19605999999999998,-0.053679,0.163975,-0.06267,0.028928,-0.008242
297,2.658182,-1.382163,-0.014657,0.087158,0.982261,0.16602999999999998,0.24954,-0.02298,0.16644,-0.022369,0.015709,-0.029983
298,2.627916,-1.3857629999999999,-0.046111,0.090404,0.98293,0.160235,0.325675,0.071529,0.175396,0.017933,-0.015614,-0.046542
299,2.576837,-1.390916,-0.100162,0.09575499999999999,0.983865,0.15113,0.347242,0.15971,0.216033,0.03486,-0.026636,-0.058082
300,2.537627,-1.39429,-0.144253,0.09972,0.9844629999999999,0.144528,0.359097,0.216009,0.245954,0.043834,-0.027874,-0.074154
301,2.493223,-1.397002,-0.19303399999999998,0.104425,0.984936,0.13783,0.358676,0.14985199999999999,0.273809,0.031682999999999996,-0.022609999999999998,-0.086927
302,2.444439,-1.399597,-0.244702,0.10937999999999999,0.985381,0.130613,0.383892,0.056049,0.26662800000000003,-0.0012259999999999999,-0.017654,-0.088926
303,2.3907380000000003,-1.402144,-0.298698,0.114521,0.9858120000000001,0.12271900000000001,0.412228,-0.064362,0.25095700000000004,-0.029636000000000003,-0.022006,-0.057472
304,2.3308560000000003,-1.4048559999999999,-0.356625,0.11972100000000001,0.9862639999999999,0.113803,0.445878,-0.180565,0.243864,-0.035142,-0.01965,-0.043155
305,2.268395,-1.407385,-0.41569399999999995,0.12468,0.986678,0.104505,0.43838599999999994,-0.212391,0.217146,-0.032532,-0.009002,-0.005354
306,2.222212,-1.409707,-0.459218,0.127549,0.9870530000000001,0.097249,0.39083,-0.14390899999999998,0.182538,-0.029557,0.034385,0.036495
307,2.172133,-1.411412,-0.508302,0.130869,0.987325,0.089789,0.354094,-0.045629,0.145836,-0.026392000000000002,0.046473,0.046426
308,2.1453580000000003,-1.412458,-0.536082,0.13235999999999998,0.987491,0.08569299999999999,0.306639,0.046288,0.1112,-0.013738,0.050717,0.056641
309,2.1135490000000003,-1.413504,-0.570258,0.134134,0.987655,0.08090599999999999,0.221717,0.122297,0.091282,-0.010217,0.047211,0.060756
310,2.093166,-1.4137389999999999,-0.593603,0.135553,0.987692,0.078039,0.126862,0.133324,0.07992300000000001,0.00202,0.042276,0.048456
311,2.092303,-1.412424,-0.59702,0.136747,0.9874850000000001,0.07857,0.038271,0.113445,0.066512,0.0034049999999999996,0.039309,0.033764999999999996
312,2.0928459999999998,-1.4111360000000002,-0.597402,0.13780599999999998,0.987281,0.079278,-0.069875,0.009493000000000001,0.048798,0.006878,0.039559,0.024572999999999998
313,2.103137,-1.409491,-0.586546,0.138382,0.9870190000000001,0.08151599999999999,-0.140342,-0.034719,0.014178,-0.017943999999999998,0.047741000000000006,0.017315
314,2.1271240000000002,-1.408965,-0.561842,0.136828,0.986934,0.085086,-0.179617,-0.02167,-0.018165999999999998,-0.023348,0.043141000000000006,0.008664
315,2.148275,-1.407518,-0.540343,0.136194,0.9867,0.08874,-0.18684,0.009343,-0.041757,-0.026835,0.033594,0.002584
316,2.1714990000000003,-1.406577,-0.517529,0.134863,0.9865459999999999,0.092404,-0.175836,0.048861,-0.07698200000000001,-0.037587999999999996,-5e-06,-0.011654000000000001
317,2.1993139999999998,-1.408603,-0.490305,0.130624,0.986875,0.094943,-0.166159,0.035099,-0.10681800000000001,-0.043542000000000004,-0.005659,-0.026493
318,2.224424,-1.408639,-0.46489899999999995,0.128171,0.9868809999999999,0.09817200000000001,-0.165246,-0.024457,-0.132372,-0.040508999999999996,0.000713,-0.037823
319,2.24637,-1.411527,-0.44105600000000006,0.123761,0.9873430000000001,0.099178,-0.152694,-0.104306,-0.154624,-0.026333,0.009269,-0.04156
320,2.269565,-1.412441,-0.414761,0.120736,0.9874879999999999,0.101441,-0.117627,-0.15229700000000002,-0.17140899999999998,-0.010537000000000001,0.016876,-0.039810000000000005
321,2.290375,-1.413748,-0.390433,0.117629,0.987693,0.10308099999999999,-0.096323,-0.164073,-0.175518,0.006669,0.0035329999999999997,-0.029502999999999998
322,2.302388,-1.4155520000000001,-0.374823,0.11505599999999999,0.987974,0.103295,-0.10589000000000001,-0.15340299999999998,-0.171324,0.005764,-0.011091,-0.026239
323,2.325741,-1.416317,-0.348483,0.112062,0.988092,0.10543599999999999,-0.136723,-0.11924900000000001,-0.160901,-0.008333,0.003333,-0.018231999999999998
324,2.349639,-1.417358,-0.322471,0.108779,0.988251,0.10736199999999999,-0.16536199999999998,-0.07019700000000001,-0.148347,-0.007293000000000001,0.011566,-0.018373
325,2.3752,-1.417729,-0.295538,0.105745,0.988308,0.10984200000000001,-0.172759,-0.043586,-0.136685,-0.004472,0.014103000000000001,-0.017922999999999998
326,2.40029,-1.4187610000000002,-0.268999,0.102267,0.9884649999999999,0.11170799999999999,-0.166486,-0.067069,-0.130206,-0.008868000000000001,0.00022799999999999999,-0.014586000000000002
327,2.42619,-1.4197879999999998,-0.240858,0.098674,0.98862,0.113553,-0.169955,-0.118229,-0.120558,-0.01591,-0.00513,-0.019635
328,2.451418,-1.4195209999999998,-0.21222800000000003,0.095946,0.9885799999999999,0.11620899999999999,-0.199026,-0.17565999999999998,-0.11855399999999999,-0.017103,-0.007698999999999999,-0.021481999999999998
329,2.47912,-1.42025,-0.179831,0.09224700000000001,0.9886889999999999,0.118254,-0.247309,-0.243648,-0.124154,-0.023674,0.00835,-0.02783
330,2.511445,-1.418783,-0.141401,0.089232,0.988468,0.12234500000000001,-0.291219,-0.304125,-0.146821,-0.028044,0.056041999999999995,-0.013611000000000002
331,2.546185,-1.415466,-0.099825,0.086767,0.9879600000000001,0.128085,-0.335955,-0.317697,-0.177026,-0.028401999999999997,0.057435,-0.009509
332,2.590732,-1.412124,-0.048451999999999995,0.082704,0.9874379999999999,0.134634,-0.37309000000000003,-0.313139,-0.21895599999999998,-0.026735000000000002,0.026692,0.012156
333,2.645352,-1.406833,0.012916,0.077717,0.9865879999999999,0.143541,-0.437877,-0.306282,-0.27924099999999996,-0.024250999999999998,0.002944,0.040847
334,2.701272,-1.401019,0.07586,0.072017,0.9856219999999999,0.152847,-0.53454,-0.303446,-0.371787,-0.016857,-0.002834,0.042786000000000005
335,2.769143,-1.393201,0.15096500000000002,0.064288,0.9842709999999999,0.164551,-0.667437,-0.313181,-0.48593400000000003,-0.015902,-0.0038179999999999998,0.061827999999999994
336,2.8487169999999997,-1.382342,0.238463,0.054086,0.982295,0.17936300000000002,-0.802427,-0.334541,-0.621446,-0.011926,-0.003062,0.07759500000000001
337,2.9349380000000003,-1.369129,0.333383,0.0411,0.979734,0.19604100000000002,-0.89564,-0.351653,-0.789786,-0.024605000000000002,-0.0037670000000000004,0.089268
338,3.02314,-1.3541530000000002,0.430699,0.025402,0.9766239999999999,0.213446,-0.888558,-0.34046,-0.9307559999999999,-0.032619999999999996,-0.001145,0.081842
339,3.104908,-1.338976,0.522409,0.008426000000000001,0.97325,0.229595,-0.797928,-0.387508,-0.9653139999999999,-0.014041999999999999,-0.018126,0.052189
340,-3.109282,-1.324134,0.601493,-0.007888,0.969733,0.24404099999999998,-0.718436,-0.422204,-0.882461,0.023147,-0.034902999999999997,0.036385
341,-3.0615669999999997,-1.309252,0.660136,-0.020669999999999997,0.965992,0.25774600000000003,-0.691546,-0.45488500000000004,-0.7252029999999999,0.063792,-0.011509,0.029699
342,-3.026805,-1.294857,0.7055899999999999,-0.031205,0.9621700000000001,0.270658,-0.617019,-0.448916,-0.684096,0.085618,0.005954999999999999,0.010516
343,-2.990848,-1.282294,0.753657,-0.042727,0.9586709999999999,0.28129,-0.46664399999999995,-0.559833,-0.7822479999999999,0.08871699999999999,-0.03582,-0.008005
344,-2.9558169999999997,-1.273809,0.803234,-0.054053,0.9562219999999999,0.287605,-0.19178699999999999,-0.639659,-0.77168,0.026435000000000004,-0.005797999999999999,-0.005974
345,-2.923269,-1.269998,0.8505969999999999,-0.06417300000000001,0.9551,0.28925,0.024431,-0.627999,-0.6783170000000001,-0.001852,0.001367,-0.018941
346,-2.896019,-1.269324,0.89112,-0.072187,0.9549,0.288018,0.142604,-0.545876,-0.538728,0.01521,-0.017141,-5.4000000000000005e-05
347,-2.875554,-1.271064,0.923689,-0.077628,0.955415,0.284877,0.24976199999999998,-0.5308649999999999,-0.389516,0.028404000000000002,-0.044512,0.027134
348,-2.86079,-1.275368,0.9503229999999999,-0.080685,0.956678,0.279746,0.375234,-0.531676,-0.295703,0.036648,-0.090543,0.044793
349,-2.8448729999999998,-1.282633,0.977766,-0.083094,0.958767,0.271773,0.511811,-0.50455,-0.271283,0.042688,-0.122082,0.068467
350,-2.824955,-1.292027,1.0085110000000002,-0.085681,0.9613950000000001,0.261494,0.6090439999999999,-0.46656099999999995,-0.265311,0.057665999999999995,-0.09992899999999999,0.075985
351,-2.801615,-1.3029600000000001,1.041087,-0.08825,0.9643459999999999,0.24949699999999997,0.713056,-0.326401,-0.241263,0.069024,0.037439,0.06828200000000001
352,-2.766665,-1.315059,1.079413,-0.09263500000000001,0.967477,0.235386,0.733942,0.029401999999999998,-0.259732,0.07974099999999999,0.048987,0.053249
353,-2.729651,-1.325797,1.116745,-0.097117,0.970137,0.22226500000000002,0.641798,-0.010944,-0.213321,0.16038,0.048143,0.050043000000000004
354,-2.696311,-1.3363129999999999,1.152663,-0.10007200000000001,0.972635,0.20968499999999998,0.673243,-0.062483000000000004,-0.139328,0.14871700000000002,0.058371000000000006,0.049456
355,-2.670067,-1.347683,1.179822,-0.10051,0.9752129999999999,0.197121,0.6292270000000001,0.006392,-0.009396999999999999,0.113876,0.074561,0.033866
356,-2.651164,-1.359529,1.200214,-0.09876900000000001,0.977766,0.18498199999999998,0.643166,-0.081548,0.125409,0.102828,0.069552,-0.007279000000000001
357,-2.636557,-1.374,1.216679,-0.094604,0.980698,0.17111800000000002,0.754784,-0.054712000000000004,0.24365900000000001,0.08167999999999999,0.056915,-0.025275
358,-2.626247,-1.390559,1.22743,-0.08834700000000001,0.983801,0.15598099999999998,0.773695,-0.006232,0.358028,0.069655,0.024973,-0.072378
359,-2.62535,-1.408503,1.229636,-0.079759,0.986859,0.140525,0.802632,-0.114329,0.45878199999999997,0.08824299999999999,0.025927999999999996,-0.075522
360,-2.63118,-1.427369,1.227848,-0.069829,0.989732,0.12471800000000001,0.812625,-0.250775,0.47291300000000003,0.06804400000000001,0.038176,-0.052864
361,-2.637648,-1.44551,1.2275989999999999,-0.060341,0.9921620000000001,0.109425,0.7793800000000001,-0.340998,0.420454,0.043937000000000004,0.048198000000000005,-0.026477999999999998
362,-2.6400259999999998,-1.462669,1.232516,-0.051886,0.99416,0.094625,0.7592439999999999,-0.36415,0.36693200000000004,-0.000833,0.04507,-0.008947
363,-2.631192,-1.4792370000000001,1.248518,-0.044667,0.9958110000000001,0.079779,0.7681,-0.350101,0.309292,-0.021738999999999998,-0.0029519999999999998,-0.014669999999999999
364,-2.598544,-1.49561,1.288357,-0.038816,0.997175,0.064309,0.804654,-0.353032,0.24225500000000003,-0.022357,-0.011839,-0.009026000000000001
365,-2.521203,-1.511448,1.372666,-0.034482,0.998239,0.048261,0.816836,-0.32190799999999997,0.173934,-0.008426000000000001,-0.017603,-0.028988999999999997
366,-2.373366,-1.525454,1.5266819999999999,-0.031495,0.998972,0.032596,0.772459,-0.283172,0.11589,0.009538,-0.029063,-0.031481999999999996
367,-2.129267,-1.536024,1.776498,-0.029485,0.999395,0.018423,0.6862159999999999,-0.273167,0.08643300000000001,0.024753999999999998,-0.022969999999999997,-0.025914999999999997
368,-1.781873,-1.5432489999999999,2.1288259999999997,-0.026933999999999996,0.9996209999999999,0.005771,0.599107,-0.207808,0.067585,0.058458,-0.007921,0.016995
369,-1.375565,-1.544556,2.538405,-0.025738,0.999656,-0.00509,0.5183939999999999,-0.131865,0.060515,0.079831,-0.017493,0.046228
370,-1.028243,-1.5425209999999998,2.888843,-0.024212,0.9996,-0.014597999999999998,0.456157,-0.177591,0.094322,0.089504,-0.019589,0.046122
371,-0.773357,-1.539433,-3.134284,-0.021905,0.999508,-0.022438999999999997,0.360468,-0.300992,0.134404,0.07908,-0.019497,0.01214
372,-0.588411,-1.5365309999999999,-2.9428389999999998,-0.019015,0.9994129999999999,-0.028497,0.286715,-0.306163,0.15953299999999998,0.052859,-0.004174000000000001,-0.00907
373,-0.44383999999999996,-1.533383,-2.7932919999999997,-0.016062,0.9993,-0.033780000000000004,0.26591,-0.198454,0.148567,0.030436,0.001875,-0.026309
374,-0.33061599999999997,-1.529331,-2.677166,-0.013456999999999998,0.9991399999999999,-0.039208,0.274872,-0.12701700000000002,0.12503699999999998,0.013578999999999999,0.042730000000000004,-0.023643
375,-0.25099499999999997,-1.5244959999999999,-2.594171,-0.011495,0.998928,-0.044834,0.297103,-0.195153,0.09537000000000001,0.000677,0.032032,0.018512
376,-0.188248,-1.51796,-2.526752,-0.009883,0.998604,-0.051878,0.389743,-0.241258,0.089667,-0.011128,0.020011,0.010542000000000001
377,-0.14546199999999998,-1.5103090000000001,-2.47808,-0.008762,0.9981709999999999,-0.059812,0.390565,-0.32848099999999997,0.056669000000000004,-0.039349,-0.027926,-0.03551
378,-0.133854,-1.503715,-2.458319,-0.008945999999999999,0.997751,-0.06643099999999999,0.29859,-0.441888,-0.007921,-0.028011,-0.010858,-0.006948
379,-0.144387,-1.49847,-2.459838,-0.010398000000000001,0.9973860000000001,-0.071511,0.24432399999999999,-0.455363,-0.05421599999999999,0.007315,0.020345,0.019463
380,-0.160521,-1.493692,-2.466313,-0.012312,0.997029,-0.076038,0.225985,-0.5064069999999999,-0.060688,0.044126,0.01617,0.040851
381,-0.142045,-1.491231,-2.437291,-0.011252,0.996836,-0.078681,0.2365,-0.538403,-0.060563,0.06272,0.014730000000000002,0.037376
382,-0.15746400000000002,-1.4865549999999998,-2.443006,-0.013194999999999998,0.9964540000000001,-0.083101,0.21773699999999999,-0.43608800000000003,-0.056552,0.061626,0.00762,0.016679
383,-0.12031800000000001,-1.4833889999999998,-2.399768,-0.010478,0.996182,-0.08666499999999999,0.195104,-0.245338,-0.053732,0.067775,0.006854000000000001,0.00857
384,-0.127466,-1.4796690000000001,-2.403131,-0.011568,0.995851,-0.090263,0.175021,-0.178257,-0.028321,0.063082,-0.005388,0.0021739999999999997
385,-0.131305,-1.476492,-2.402705,-0.012329000000000001,0.995557,-0.09335299999999999,0.149099,-0.23574299999999998,-0.015609,0.022277,-0.000546,0.011382999999999999
386,-0.13727899999999998,-1.473385,-2.403682,-0.013309999999999999,0.995259,-0.096342,0.160854,-0.24637699999999998,-0.030469,-0.008221,0.011729,0.014906
387,-0.14441400000000001,-1.469649,-2.406311,-0.014532,0.9948889999999999,-0.099924,0.19734300000000002,-0.209177,-0.040944,-0.008814,0.013274000000000001,-0.000143
388,-0.148532,-1.465329,-2.4064099999999997,-0.015578999999999999,0.9944430000000001,-0.10411300000000001,0.22181399999999998,-0.208261,-0.024751,-0.000824,0.002581,-0.013288
389,-0.148308,-1.460791,-2.401023,-0.016222,0.9939549999999999,-0.108579,0.23302199999999998,-0.295773,0.00535,-0.002973,-0.007917,-0.008716
390,-0.146171,-1.456033,-2.391867,-0.016679,0.9934219999999999,-0.113291,0.24860300000000002,-0.372596,0.022649000000000002,-0.003356,-0.007094,-0.0012109999999999998
391,-0.14338599999999999,-1.4511370000000001,-2.3810119999999997,-0.017058,0.992849,-0.118149,0.251578,-0.41524700000000003,0.030202,-0.004457,0.0012,0.006104
392,-0.141925,-1.446166,-2.3706669999999996,-0.017583,0.992244,-0.12305799999999999,0.258898,-0.451479,0.027094999999999998,0.009969,0.005452,0.013819999999999999
393,-0.127558,-1.442053,-2.347641,-0.016332,0.9917239999999999,-0.127344,0.248406,-0.416267,0.021641999999999998,0.029425,0.010778,0.010188
394,-0.112518,-1.439666,-2.3255060000000003,-0.014681,0.9914149999999999,-0.129929,0.22010300000000002,-0.30855,0.014905000000000002,0.035891,0.013682,0.030579000000000002
395,-0.075377,-1.440065,-2.2835900000000002,-0.009817,0.991467,-0.12998900000000002,0.201231,-0.23601999999999998,0.008289,0.021138999999999998,0.009342,0.015243000000000001
396,-0.070344,-1.436944,-2.274084,-0.00938,0.9910549999999999,-0.133123,0.175729,-0.216739,0.0038159999999999995,0.016079,0.008898999999999999,0.008062
397,-0.070612,-1.433575,-2.270468,-0.009651,0.9906,-0.13645,0.14925,-0.172974,0.004644,-0.005684000000000001,0.023301,-0.007089
398,-0.072848,-1.430244,-2.269895,-0.010196,0.990139,-0.139719,0.15163,-0.122897,0.000324,-0.004635,0.009373000000000001,-0.022359999999999998
399,-0.073271,-1.427242,-2.267769,-0.010473,0.989714,-0.142678,0.14941500000000002,-0.133572,0.0077989999999999995,-0.002833,-0.002165,-0.030586000000000002
400,-0.072238,-1.4241540000000001,-2.2639009999999997,-0.010546,0.989267,-0.14573599999999998,0.16001600000000002,-0.136852,0.019628,-0.021299000000000002,-0.011148,-0.019135
401,-0.077199,-1.420167,-2.266355,-0.011573,0.988677,-0.14961300000000002,0.152625,-0.115541,0.024886000000000002,-0.022256,0.0012519999999999999,-0.010787999999999999
402,-0.07569400000000001,-1.417114,-2.26208,-0.011576000000000001,0.9882139999999999,-0.152639,0.156749,-0.154941,0.017488,-0.021597,0.00257,-0.011988
403,-0.075507,-1.414035,-2.258161,-0.011777,0.9877379999999999,-0.155675,0.152304,-0.19858499999999998,0.01324,-0.028949000000000003,0.014215,-0.018366999999999998
404,-0.087552,-1.410146,-2.265917,-0.013987000000000001,0.987123,-0.159348,0.140574,-0.208092,0.00355,-0.034429,0.010939,-0.019012
405,-0.090452,-1.407545,-2.264376,-0.014681,0.9867040000000001,-0.161863,0.126628,-0.230393,-0.00186,-0.031019,0.006719,-0.019181999999999998
406,-0.10142799999999999,-1.403677,-2.270337,-0.016843,0.9860680000000001,-0.165487,0.134073,-0.250604,-0.015672,-0.022296,0.001557,-0.021830000000000002
407,-0.104848,-1.398606,-2.269412,-0.017932,0.9852120000000001,-0.1704,0.122607,-0.195161,-0.017957,0.005693999999999999,0.0033439999999999998,-0.027431
408,-0.101425,-1.3943780000000001,-2.262619,-0.017769999999999998,0.9844790000000001,-0.174603,0.11095999999999999,-0.168522,-0.009521,0.011331,0.009784000000000001,-0.023975
409,-0.101608,-1.391437,-2.259535,-0.018096,0.983958,-0.177479,0.108838,-0.158958,-0.002068,0.0083,0.008015999999999999,-0.018612
410,-0.097506,-1.387965,-2.252929,-0.0177,0.983333,-0.18095,0.10478699999999999,-0.10888800000000001,0.001049,0.014358000000000001,0.001591,-0.018313999999999997
411,-0.085882,-1.384691,-2.239834,-0.015872,0.9827319999999999,-0.184351,0.093123,-0.06953,0.025495,0.024416,0.008357,-0.020453
412,-0.076555,-1.3825,-2.229168,-0.014315999999999999,0.982325,-0.186637,0.087675,-0.061126,0.059634000000000006,0.022632,0.006567,-0.015388999999999998
413,-0.072225,-1.381124,-2.223537,-0.013605,0.982066,-0.18804500000000002,0.084483,-0.049435,0.069208,-0.012808000000000002,0.011998,0.005031
414,-0.074384,-1.379807,-2.224715,-0.014107,0.981817,-0.189305,0.091052,-0.025966000000000003,0.05533099999999999,-0.026756,0.019114,0.005116
415,-0.07359600000000001,-1.378334,-2.223568,-0.014063999999999998,0.9815360000000001,-0.19075899999999998,0.079442,-0.003426,0.048804,-0.034413,0.009431,0.0046630000000000005
416,-0.079751,-1.377106,-2.229364,-0.015334,0.981301,-0.191869,0.07625599999999999,-0.009768,0.039168,-0.031388,0.006141,0.002584
417,-0.08244299999999999,-1.375209,-2.231,-0.016004,0.980934,-0.193682,0.081386,-0.064081,0.030723,-0.036837,0.013558,-0.009947
418,-0.080731,-1.37373,-2.22802,-0.015788999999999997,0.9806450000000001,-0.195156,0.073,-0.042699,0.018887,-0.040514999999999995,0.023688,0.00349
419,-0.082174,-1.372809,-2.2296400000000003,-0.016145,0.9804649999999999,-0.19603199999999998,0.050017,0.043758,-0.003819,-0.016967,0.035969,0.004565
420,-0.082146,-1.372012,-2.230957,-0.016204,0.9803069999999999,-0.196812,0.031014999999999997,0.069469,-0.023213,-0.002092,0.033136,0.00771
421,-0.084746,-1.3720290000000002,-2.23508,-0.016714,0.980311,-0.196752,0.001295,0.081381,-0.045869,-0.011835,0.038305,0.009161
422,-0.092602,-1.373156,-2.2457830000000003,-0.018157,0.980533,-0.19551500000000002,-0.029072000000000004,0.176429,-0.079321,-0.008302,0.034879,0.009236
423,-0.095735,-1.3743,-2.253586,-0.018662,0.980757,-0.19434,-0.05541,0.241542,-0.089201,0.005769,0.022936,-0.008144
424,-0.099692,-1.3748790000000002,-2.262993,-0.019375,0.9808690000000001,-0.1937,-0.060622,0.274559,-0.082871,-0.0022170000000000002,0.01231,-0.020288999999999998
425,-0.10826500000000001,-1.374312,-2.277266,-0.021095,0.980759,-0.19408,-0.05307100000000001,0.279906,-0.094579,-0.023019,0.002502,-0.027280000000000002
426,-0.122477,-1.373731,-2.297377,-0.02392,0.9806450000000001,-0.194326,-0.049678,0.30764600000000003,-0.108484,-0.036978,0.009040000000000001,-0.020640000000000002
427,-0.135163,-1.374162,-2.316697,-0.026326,0.9807299999999999,-0.19358699999999998,-0.060225,0.333253,-0.10966500000000001,-0.026407999999999997,0.014815,-0.002183
428,-0.142298,-1.37531,-2.3306270000000002,-0.027547000000000002,0.9809530000000001,-0.192281,-0.054964,0.337415,-0.08934,-0.007624,0.004932,0.0065049999999999995
429,-0.143014,-1.376675,-2.338838,-0.027494,0.981218,-0.190935,-0.07196799999999999,0.38634,-0.055338,-0.000475,0.00215,0.004061
430,-0.13985,-1.378106,-2.343645,-0.026694,0.9814930000000001,-0.189631,-0.076427,0.388306,-0.010506999999999999,-0.007608,0.001204,-0.004492
431,-0.141227,-1.378611,-2.351652,-0.026885000000000003,0.9815889999999999,-0.189102,-0.059786,0.304044,0.001462,-0.040665,0.00216,-0.017516999999999998
432,-0.143257,-1.379011,-2.359182,-0.027213,0.981666,-0.188659,-0.037394,0.281671,-0.017586,-0.049523000000000005,0.018548,-0.0047009999999999994
433,-0.14013599999999998,-1.379604,-2.362458,-0.026543,0.981778,-0.188167,-0.038149,0.337124,-0.031549,-0.033348,0.013231999999999999,0.001048
434,-0.141067,-1.381312,-2.37016,-0.026482,0.982102,-0.18648199999999998,-0.05849,0.327585,-0.026341000000000003,-0.007972,0.020966,0.018406
435,-0.137102,-1.3826129999999999,-2.3722990000000004,-0.025568,0.9823459999999999,-0.18532,-0.073685,0.295578,-0.000768,-0.0065980000000000006,0.017349,0.017686
436,-0.13259200000000002,-1.384671,-2.374048,-0.024465,0.9827290000000001,-0.183428,-0.0982,0.326453,0.024657,-0.0153,0.012953000000000001,0.009509
437,-0.13231600000000002,-1.386582,-2.380112,-0.024166,0.983081,-0.181573,-0.11324100000000001,0.318984,0.040577999999999996,-0.041248,0.005109000000000001,-0.011191
438,-0.12276,-1.388694,-2.3762950000000003,-0.022175999999999998,0.9834649999999999,-0.179734,-0.088962,0.271984,0.05149,-0.059077,-0.015951,-0.026885000000000003
439,-0.11939300000000001,-1.389297,-2.377741,-0.0215,0.983574,-0.17921900000000002,-0.063536,0.242025,0.06238200000000001,-0.05426,-0.022072,-0.028804000000000003
440,-0.10736300000000001,-1.390548,-2.370079,-0.019209999999999998,0.983799,-0.178242,-0.047763,0.213117,0.084962,-0.028014999999999998,-0.016728,-0.019024
441,-0.092789,-1.391382,-2.35921,-0.016535,0.9839479999999999,-0.17768599999999998,-0.03198,0.18528,0.106473,-6e-06,-0.003159,-0.004412
442,-0.07612999999999999,-1.392095,-2.346526,-0.013519,0.984075,-0.17723699999999998,-0.026483,0.23421199999999998,0.11926700000000001,0.030212,0.022135,0.018393
443,-0.051044,-1.394111,-2.326895,-0.008968,0.984432,-0.175539,-0.042203,0.303489,0.12441500000000001,0.043468,0.037892,0.04355
444,-0.031085,-1.395171,-2.313584,-0.00543,0.984617,-0.17464000000000002,-0.051463999999999996,0.369608,0.114651,0.034788,0.040376,0.048083
445,-0.012101,-1.396579,-2.302561,-0.002097,0.9848629999999999,-0.173325,-0.082049,0.420959,0.08659800000000001,-0.005562,0.039597,0.042115
446,0.003973,-1.3988200000000002,-2.2949990000000002,0.0006799999999999999,0.9852489999999999,-0.171128,-0.127751,0.42976099999999995,0.056357000000000004,-0.03515,0.037182,0.048829000000000004
447,0.016401,-1.401689,-2.290616,0.0027600000000000003,0.985735,-0.16827999999999999,-0.149122,0.39161,0.025278,-0.055235,0.020429,0.04888
448,0.025253,-1.404843,-2.2891779999999997,0.004171,0.986261,-0.16514,-0.16409200000000002,0.35768,-0.0014880000000000002,-0.061147,-0.001413,0.041681
449,0.031796,-1.408331,-2.2891779999999997,0.005142,0.9868319999999999,-0.161669,-0.178172,0.307674,-0.004727,-0.047958,0.001068,0.029176999999999998
450,0.037891,-1.411662,-2.288425,0.0060030000000000005,0.9873649999999999,-0.15835,-0.155041,0.24044699999999997,0.004065999999999999,-0.045127,-0.0015710000000000001,0.0207
451,0.04389,-1.414319,-2.286167,0.0068379999999999995,0.9877819999999999,-0.15569000000000002,-0.12133800000000002,0.158243,0.019362,-0.040788,-0.003987,0.010304
452,0.045147,-1.41638,-2.286947,0.006940999999999999,0.988101,-0.153647,-0.106852,0.080336,0.041992,-0.014844999999999999,0.00198,0.000586
453,0.053225,-1.4186290000000001,-2.279806,0.008064,0.988445,-0.151366,-0.12203699999999999,0.034544,0.051559,0.017433,0.027256,0.028883999999999996
454,0.067299,-1.422503,-2.265751,0.009936,0.989025,-0.14741600000000002,-0.12866,-0.025042,0.039843,0.028165,0.023472,0.038071
455,0.070947,-1.4251280000000002,-2.2612509999999997,0.01029,0.989409,-0.144789,-0.14031400000000002,-0.034477,0.012,0.032404,-0.002516,0.045393
456,0.07245599999999999,-1.428228,-2.260141,0.010286,0.9898540000000001,-0.141713,-0.16221,0.059421,-0.007501000000000001,0.041243,-0.000139,0.038487
457,0.076645,-1.43175,-2.2579119999999997,0.010613,0.9903489999999999,-0.138192,-0.185523,0.113755,0.011493999999999999,0.038353,-0.006599,0.027870999999999996
458,0.085319,-1.435584,-2.251527,0.011487,0.990873,-0.13430999999999998,-0.197378,0.11262899999999999,0.03705,0.009341,0.001559,-0.004957
459,0.096776,-1.4392969999999998,-2.241509,0.012669,0.991366,-0.13050699999999998,-0.181768,0.04432,0.056475,-0.01595,0.010983,-0.032655
460,0.109367,-1.44221,-2.2284770000000003,0.013996000000000001,0.9917440000000001,-0.127466,-0.136402,-0.052844,0.07293999999999999,-0.014316999999999998,-0.012343000000000002,-0.064459
461,0.120645,-1.4444,-2.214175,0.015172,0.992023,-0.125144,-0.111516,-0.207418,0.078653,-0.005147,-0.020312,-0.083978
462,0.12842,-1.4459629999999999,-2.2001209999999998,0.015946000000000002,0.992218,-0.123484,-0.070618,-0.365222,0.07914,0.027481000000000002,-0.003418,-0.06802899999999999
463,0.134195,-1.44672,-2.1865099999999997,0.016558,0.9923120000000001,-0.122646,-0.042942,-0.381289,0.077218,0.063078,-0.004443,-0.038655
464,0.140396,-1.4475200000000001,-2.173742,0.017207,0.992411,-0.121755,-0.057398000000000005,-0.28107600000000005,0.070579,0.103673,0.015172999999999999,0.0017289999999999999
465,0.14938800000000002,-1.448742,-2.160307,0.018121,0.992561,-0.120396,-0.0815,-0.180868,0.073487,0.120078,0.027016000000000002,0.032749
466,0.16334,-1.450445,-2.1441220000000003,0.019524,0.992767,-0.11846300000000001,-0.10979900000000001,-0.051846,0.089148,0.116676,0.019242,0.039361
467,0.18262899999999999,-1.4527780000000001,-2.125524,0.021384,0.993044,-0.11578599999999999,-0.15073599999999998,0.094253,0.08547,0.094689,0.013731,0.032107
468,0.205961,-1.455897,-2.1054880000000002,0.023446,0.9934059999999999,-0.112224,-0.188611,0.20944899999999997,0.081853,0.072089,0.004991,0.017466
469,0.232607,-1.45939,-2.083417,0.025627999999999998,0.993801,-0.108182,-0.20125,0.247835,0.083852,0.056312,-0.001415,0.012463
470,0.260416,-1.462836,-2.060448,0.027744,0.9941780000000001,-0.104117,-0.19482,0.247838,0.077488,0.027188,-0.006004,-0.006875
471,0.287867,-1.4659799999999998,-2.037522,0.029704,0.9945120000000001,-0.10032,-0.175746,0.216887,0.07552400000000001,0.001363,-0.0047350000000000005,-0.009161
472,0.315779,-1.468377,-2.0131799999999997,0.031751,0.9947600000000001,-0.09718500000000001,-0.138717,0.164491,0.092941,0.0026420000000000003,0.002143,-0.009993
473,0.347551,-1.469949,-1.984264,0.03429,0.994919,-0.094657,-0.11552,0.13658,0.126254,0.017681,0.004928,-0.006051
474,0.385452,-1.470952,-1.9482080000000002,0.037476999999999996,0.9950200000000001,-0.092365,-0.10952100000000001,0.08315,0.162684,0.044768,-0.004678,0.004124
475,0.45415600000000006,-1.470772,-1.880783,0.043808,0.995002,-0.08973500000000001,-0.116129,0.059648,0.185112,0.053025,0.002526,0.005125
476,0.499061,-1.471068,-1.836668,0.047651,0.995031,-0.08741900000000001,-0.108733,0.045766,0.187317,0.045291000000000005,0.01005,-0.004256
477,0.542737,-1.469428,-1.7934880000000002,0.052266,0.9948670000000001,-0.086653,-0.07248500000000001,0.026516,0.174781,0.019298,0.003257,-0.022096
478,0.577519,-1.468422,-1.7586439999999999,0.055794,0.994764,-0.085622,-0.041704000000000005,-0.0034409999999999996,0.180375,0.018974,-0.002684,-0.024622
479,0.62244,-1.4649219999999998,-1.7133770000000001,0.061612,0.994401,-0.085858,-0.030099,-0.011027,0.202906,0.040866,-0.00203,-0.018313999999999997
480,0.659173,-1.46286,-1.676794,0.065979,0.994181,-0.085158,-0.038514,0.038977,0.226284,0.068848,-0.008829,-0.019853
481,0.716963,-1.457633,-1.62016,0.074201,0.993604,-0.085121,-0.050187,0.074084,0.248604,0.069217,-0.008542000000000001,-0.021202000000000002
482,0.756764,-1.454961,-1.581592,0.079351,0.9932989999999999,-0.084031,-0.044877,0.074045,0.25398200000000004,0.069208,0.0032530000000000002,-0.024154
483,0.796769,-1.449994,-1.542583,0.086176,0.992712,-0.084238,-0.029979000000000002,0.042125,0.23170300000000002,0.030858999999999998,0.009363,-0.016668000000000002
484,0.8250059999999999,-1.4473479999999999,-1.5145440000000001,0.090449,0.99239,-0.083554,-0.0385,0.017765,0.203901,0.012256999999999999,0.0042840000000000005,-0.013980000000000001
485,0.8505520000000001,-1.444907,-1.48969,0.094374,0.992086,-0.082813,-0.057405,0.065841,0.185547,-0.001509,-0.004079999999999999,-0.008312
486,0.87795,-1.4429239999999999,-1.4637360000000001,0.098121,0.991835,-0.081454,-0.060504999999999996,0.08291799999999999,0.18016300000000002,0.003747,0.000947,-0.008756
487,0.9052819999999999,-1.441107,-1.4375870000000002,0.101728,0.9916020000000001,-0.079854,-0.079709,0.060704999999999995,0.157625,0.001605,0.004614,0.00031
488,0.931803,-1.440313,-1.411923,0.10444200000000001,0.991499,-0.077598,-0.129698,0.052528,0.114558,-0.01266,0.018113999999999998,0.026786
489,0.965457,-1.442978,-1.379345,0.10482000000000001,0.991842,-0.072536,-0.186999,0.071048,0.061785,-0.029089999999999998,0.024454,0.036081999999999996
490,0.9984270000000001,-1.444884,-1.348179,0.105565,0.992084,-0.068017,-0.23452399999999998,0.130001,0.012240000000000001,-0.028493,0.034802,0.037591
491,1.0358049999999999,-1.447775,-1.3141200000000002,0.105565,0.992442,-0.062562,-0.265988,0.21335300000000001,-0.025475,-0.015691,0.042439,0.036729000000000005
492,1.088658,-1.4518959999999999,-1.266259,0.105098,0.9929399999999999,-0.055001,-0.29331999999999997,0.279599,-0.051387,0.004658,0.025874,0.029763
493,1.1377680000000001,-1.455807,-1.222975,0.104146,0.993396,-0.048146,-0.32614299999999996,0.316011,-0.070891,0.009395,0.017911,0.015477000000000001
494,1.195582,-1.459834,-1.171411,0.103031,0.99385,-0.040581,-0.35701,0.33315900000000004,-0.07006,0.018078,0.0018170000000000003,0.007836
495,1.262546,-1.463578,-1.111178,0.101969,0.994258,-0.032467,-0.383577,0.363054,-0.063875,0.023199,-0.002787,-0.007923000000000001
496,1.334396,-1.46565,-1.046408,0.102034,0.994477,-0.02458,-0.386731,0.38008000000000003,-0.056437,0.022066,-0.002152,-0.018816
497,1.410514,-1.468215,-0.977525,0.101089,0.994743,-0.016343,-0.368576,0.385339,-0.055249,0.020783000000000003,-0.004509,-0.013991
498,1.484221,-1.4694049999999999,-0.9109790000000001,0.100838,0.994864,-0.008752,-0.356973,0.36395900000000003,-0.046592,0.014457,-0.008551000000000001,-0.010062
499,1.5605229999999999,-1.470513,-0.841101,0.100111,0.994976,-0.0010279999999999998,-0.354002,0.327669,-0.03157,0.01256,-0.013515000000000001,-0.011819
500,1.638467,-1.4707729999999999,-0.769254,0.099628,0.995002,0.006751999999999999,-0.362628,0.321252,-0.017735,0.000729,-0.016624,-0.008506999999999999
501,1.709271,-1.470183,-0.7049449999999999,0.099482,0.994943,0.013863999999999998,-0.366725,0.361734,-0.01461,0.002691,-0.006051,-0.014016999999999998
502,1.781727,-1.469064,-0.639745,0.09930499999999999,0.9948299999999999,0.021263,-0.360187,0.387295,-0.018869,0.006774,-0.0010400000000000001,-0.019615
503,1.84234,-1.467018,-0.586158,0.09979600000000001,0.9946200000000001,0.027785,-0.33250599999999997,0.36804499999999996,-0.023989,0.016964,0.006067,-0.014525
504,1.903148,-1.465099,-0.5320560000000001,0.099727,0.994419,0.034421,-0.31443899999999997,0.339271,-0.036641,0.025457,-0.011418000000000001,-0.014112000000000001
505,1.964745,-1.463642,-0.47603900000000005,0.09875700000000001,0.9942639999999999,0.041051,-0.29984299999999997,0.262524,-0.037509,0.025892000000000002,-0.021105000000000002,-0.014211000000000001
506,2.0177400000000003,-1.461247,-0.42713,0.098591,0.9940049999999999,0.047254000000000004,-0.30437800000000004,0.20394600000000002,-0.036395,0.016964,-0.011797,-0.008054
507,2.0730470000000003,-1.458847,-0.375639,0.097919,0.99374,0.053779999999999994,-0.309808,0.213429,-0.0054659999999999995,-0.00047599999999999997,0.029514,-0.008675
508,2.119691,-1.455759,-0.333602,0.09792200000000001,0.99339,0.059888,-0.259565,0.260027,0.019393999999999998,0.017083,0.025622000000000002,-0.0027129999999999997
509,2.153267,-1.4522620000000002,-0.305046,0.09875700000000001,0.992983,0.065052,-0.211686,0.257623,0.046439,0.011931,0.021559000000000002,0.018811
510,2.179661,-1.449055,-0.283451,0.099618,0.992599,0.069457,-0.19155899999999998,0.24575300000000003,0.06689099999999999,-0.002771,0.005692,0.040269
511,2.215868,-1.444374,-0.252923,0.100749,0.9920190000000001,0.07581,-0.174268,0.323353,0.09361900000000001,-0.001827,0.004105,0.051769
512,2.237202,-1.440382,-0.23946900000000002,0.10222200000000001,0.991508,0.080389,-0.20688600000000001,0.44058400000000003,0.10926400000000001,0.007534999999999999,0.016121,0.061701
513,2.2661189999999998,-1.4356280000000001,-0.219698,0.103473,0.9908790000000001,0.08632999999999999,-0.278145,0.47498199999999996,0.09376699999999999,0.013456000000000001,0.024516999999999997,0.098897
514,2.30229,-1.430224,-0.19281199999999998,0.10426600000000001,0.990136,0.093591,-0.335712,0.46461199999999997,0.07308200000000001,0.0052,0.030188999999999997,0.109305
515,2.342499,-1.424579,-0.160378,0.104425,0.9893290000000001,0.101603,-0.380818,0.35946500000000003,0.033377,-0.023599000000000002,0.033864,0.149068
516,2.388889,-1.4181700000000002,-0.11901300000000001,0.103933,0.988375,0.11096199999999999,-0.495399,0.21624899999999997,-0.016378,-0.071371,0.047575,0.189225
517,2.4474099999999996,-1.409886,-0.06342300000000001,0.1025,0.987082,0.12314000000000001,-0.659716,0.158526,-0.071935,-0.09726699999999999,0.056589,0.203429
518,2.518309,-1.39943,0.00627,0.099539,0.985353,0.138464,-0.829218,0.087085,-0.174508,-0.080999,0.041152,0.20014400000000002
519,2.598778,-1.386585,0.08670499999999999,0.09461699999999999,0.983081,0.156842,-0.97931,0.061384,-0.277005,-0.048428,0.0009130000000000001,0.174869
520,2.678156,-1.371506,0.166658,0.088499,0.9802069999999999,0.177092,-1.0378479999999999,0.054286,-0.315861,-0.035901999999999996,-0.008116,0.135011
521,2.749669,-1.355841,0.237621,0.081475,0.976986,0.19713,-0.9871260000000001,0.139507,-0.35941300000000004,-0.008187,-0.005321,0.065962
522,2.812716,-1.341456,0.29858,0.073425,0.973817,0.215151,-0.852342,0.205139,-0.372442,-0.001006,-0.035355000000000004,0.011457
523,2.865647,-1.329373,0.347487,0.06514,0.970999,0.23004000000000002,-0.685561,0.297176,-0.35644000000000003,0.000701,-0.044424,-0.009290999999999999
524,2.9111380000000002,-1.319788,0.387827,0.056735,0.9686620000000001,0.24181399999999997,-0.524312,0.32645799999999997,-0.359624,-0.015597999999999999,-0.049030000000000004,-0.003625
525,2.955367,-1.313081,0.42675100000000005,0.047189999999999996,0.966975,0.25046599999999997,-0.364086,0.30167,-0.42683999999999994,-0.063914,-0.018183,0.01226
526,3.002318,-1.309421,0.469817,0.035874,0.9660350000000001,0.25590799999999997,-0.214275,0.24425500000000003,-0.583817,-0.077072,-0.018922,0.012861000000000001
527,3.06577,-1.308267,0.531988,0.019659,0.9657370000000001,0.258778,-0.069333,0.051574,-0.742799,-0.1332,-0.038567000000000004,0.012355
528,3.1250009999999997,-1.309345,0.595438,0.004288,0.966016,0.258447,0.060057000000000006,-0.229667,-0.8526290000000001,-0.182084,-0.062085,0.008368
529,-3.101459,-1.3116139999999998,0.661822,-0.010283,0.9666,0.256083,0.160474,-0.433504,-0.8473940000000001,-0.165483,-0.059785000000000005,0.009038
530,-3.05252,-1.314863,0.7237210000000001,-0.022519,0.9674280000000001,0.252144,0.24018499999999998,-0.607949,-0.715222,-0.12425599999999999,-0.051397000000000005,-0.010689
531,-3.02222,-1.318502,0.770354,-0.029727999999999997,0.968342,0.24785,0.22633499999999998,-0.828354,-0.46400399999999997,0.033421,-0.009877,-0.017884999999999998
532,-3.017573,-1.320576,0.795359,-0.030631,0.968858,0.245716,0.070425,-1.06751,-0.195595,0.093314,0.004027,-0.00038500000000000003
533,-3.0372529999999998,-1.318575,0.799002,-0.025991000000000004,0.96836,0.24819899999999998,-0.199944,-1.1909969999999999,0.017387,0.219732,0.009193999999999999,0.084016
534,-3.067889,-1.3121260000000001,0.790928,-0.018836000000000002,0.9667309999999999,0.255101,-0.38219000000000003,-1.08091,0.084339,0.236213,-0.006693999999999999,0.09371499999999999
535,-3.090036,-1.305419,0.787309,-0.013516,0.964994,0.261925,-0.278223,-0.844349,-0.023128,0.18201900000000001,-0.035595999999999996,0.071373
536,-3.100414,-1.30291,0.791155,-0.010897,0.964333,0.264469,-0.02203,-0.614985,-0.061155999999999995,0.11268800000000001,-0.045799,0.026820999999999998
537,-3.103813,-1.305742,0.796849,-0.009895000000000001,0.9650780000000001,0.261775,0.235254,-0.35165100000000005,-0.070379,0.0857,-0.037985000000000005,-0.005763
538,-3.10341,-1.3125069999999999,0.802488,-0.009751000000000001,0.966828,0.255241,0.390457,-0.219115,-0.049169,0.074036,-0.034881999999999996,-0.008842000000000001
539,-3.106046,-1.3210879999999998,0.8048770000000001,-0.008783,0.968985,0.24696500000000002,0.43901999999999997,-0.277036,0.007861,0.027841,-0.031912,0.017149
540,-3.1157150000000002,-1.329458,0.801365,-0.006184,0.9710190000000001,0.23892199999999997,0.400037,-0.32409699999999997,0.088834,-0.002193,-0.043086,0.026978
541,-3.133741,-1.336735,0.790033,-0.0018210000000000001,0.9727319999999999,0.231923,0.33653099999999997,-0.373182,0.164297,-0.003275,-0.044693000000000004,0.02563
542,3.1260830000000004,-1.343005,0.77479,0.0035020000000000003,0.974167,0.2258,0.31157199999999996,-0.459412,0.17171,0.022147999999999998,-0.045594,0.04013
543,3.102394,-1.349466,0.7603300000000001,0.008603,0.975606,0.21935900000000003,0.334072,-0.47319799999999995,0.136634,0.027682,-0.019124000000000002,0.07373099999999999
544,3.082932,-1.356023,0.749143,0.012495000000000001,0.977025,0.21276,0.33038,-0.397341,0.08416799999999999,0.037645,0.002834,0.086267
545,3.0696369999999997,-1.362655,0.742683,0.014856,0.978417,0.206107,0.340619,-0.318293,0.021113,0.07108099999999999,0.101478,0.06795599999999999
546,3.064921,-1.36992,0.7430100000000001,0.015283000000000001,0.979892,0.198942,0.385247,-0.20413,-0.062042999999999994,0.057501,0.109173,0.083346
547,3.0706900000000004,-1.379772,0.751584,0.013451,0.9818100000000001,0.189388,0.556817,-0.103156,-0.153909,0.041573,0.085786,0.073689
548,3.086868,-1.393804,0.7698010000000001,0.009631,0.9843780000000001,0.175807,0.7664350000000001,-0.081149,-0.24434,-0.024065,0.029508,0.011098
549,3.117553,-1.4111879999999999,0.802325,0.0038200000000000005,0.98729,0.158886,0.88526,-0.067412,-0.319372,-0.06719,0.03569,-0.011776
550,-3.122026,-1.427641,0.8475469999999999,-0.002791,0.989771,0.14264000000000002,0.752099,-0.051917,-0.349164,-0.075044,0.042944,-0.006455
551,-3.073684,-1.438979,0.8985790000000001,-0.008919,0.991325,0.131133,0.47927200000000003,-0.174733,-0.301774,-0.015648,0.009408,0.004563
552,-3.034459,-1.445557,0.9444290000000001,-0.013356999999999999,0.992168,0.124196,0.294554,-0.384191,-0.24190799999999998,0.055044,-0.006923,0.020565
553,-3.00642,-1.450097,0.981477,-0.016225999999999997,0.992725,0.119308,0.24488400000000002,-0.445025,-0.170606,0.07599500000000001,-0.014147999999999999,0.055985
554,-2.987708,-1.45526,1.008501,-0.017669999999999998,0.993333,0.113917,0.307824,-0.366735,-0.09015,0.104126,-0.017778,0.088018
555,-2.975175,-1.462265,1.026857,-0.017943,0.994116,0.106821,0.387036,-0.23733400000000002,-0.018191,0.114317,0.007532,0.027395
556,-2.969712,-1.470609,1.0353510000000001,-0.017107,0.994985,0.09854600000000001,0.43749,-0.09717999999999999,0.053551999999999995,0.09186,0.010920000000000001,0.0037340000000000003
557,-2.972479,-1.4802629999999999,1.0333729999999999,-0.015216999999999998,0.9959049999999999,0.08912,0.5037550000000001,-0.014546000000000002,0.110525,0.035297,0.025763,-0.022118000000000002
558,-2.979921,-1.492008,1.0251350000000001,-0.012669,0.996898,0.07768,0.617073,0.068022,0.143258,-0.017452000000000002,0.029591000000000003,-0.073697
559,-2.992471,-1.505725,1.0109,-0.009661,0.997884,0.064304,0.697063,0.07939199999999999,0.160893,-0.028913,0.028651,-0.104984
560,-3.011315,-1.520463,0.991475,-0.006536,0.998734,0.049885000000000006,0.729748,-0.013375999999999999,0.154831,-0.029138999999999998,0.063782,-0.079822
561,-3.03733,-1.53511,0.967133,-0.003713,0.9993629999999999,0.035487,0.711242,-0.126107,0.123868,-0.037028,0.05981,-0.021281
562,-3.061662,-1.549086,0.946468,-0.0017329999999999997,0.999764,0.021637,0.680107,-0.21848099999999998,0.07463099999999999,-0.056922,0.011588,0.005478
563,-3.064202,-1.56218,0.948916,-0.000666,0.9999629999999999,0.008592,0.6373939999999999,-0.262927,0.03807,-0.023748,-0.036782,0.009535
564,0.027864999999999997,-1.5673139999999999,-2.237482,9.7e-05,0.999994,-0.00349,0.582123,-0.21268299999999998,0.041892,0.002329,-0.047281000000000004,0.005748
565,0.091897,-1.5562340000000001,-2.169885,0.001336,0.9998940000000001,-0.0145,0.533119,-0.16258,0.075669,0.060584000000000006,-0.062028,-0.006618000000000001
566,0.12848199999999999,-1.545855,-2.129604,0.003195,0.9996889999999999,-0.024733,0.5050359999999999,-0.20629099999999997,0.108643,0.08201,-0.036524,-0.023241
567,0.15746,-1.535344,-2.095688,0.005558,0.9993719999999999,-0.035005,0.522794,-0.26398499999999997,0.135547,0.044354000000000005,-0.0007599999999999999,-0.037351999999999996
568,0.180089,-1.524023,-2.0674509999999997,0.008375,0.998906,-0.046,0.5588270000000001,-0.29184899999999997,0.161468,0.028551,-0.010762,-0.03185
569,0.19731300000000002,-1.512073,-2.043991,0.011505,0.998276,-0.05755,0.582102,-0.31863,0.178757,0.032761,-0.027604000000000004,-0.025838999999999997
570,0.213056,-1.499932,-2.022234,0.014972,0.99749,-0.069204,0.573653,-0.275022,0.203211,0.07002,-0.034416,-0.018381
571,0.233925,-1.4881280000000001,-1.9961970000000002,0.019141,0.996585,-0.080325,0.542637,-0.248457,0.246757,0.09513300000000001,-0.009875,-0.005475
572,0.259626,-1.47658,-1.964994,0.024151,0.9955649999999999,-0.090924,0.511319,-0.292187,0.28718699999999997,0.080341,-0.00527,0.010388
573,0.2817,-1.4658799999999998,-1.93534,0.029112,0.994501,-0.100596,0.45532,-0.416595,0.278409,0.038957,-0.001948,0.008037
574,0.293458,-1.455951,-1.91451,0.033148000000000004,0.9934129999999999,-0.109694,0.44258500000000006,-0.450442,0.229226,0.012568000000000001,0.031948000000000004,-0.014726
575,0.292117,-1.4466629999999998,-1.907455,0.035656,0.9923049999999999,-0.11856900000000001,0.422947,-0.38402600000000003,0.154227,-0.00613,0.044423000000000004,-0.001807
576,0.2859,-1.438717,-1.907618,0.037141,0.99129,-0.126349,0.350245,-0.243968,0.090515,0.006529999999999999,0.021619,0.04415
577,0.313692,-1.437282,-1.8773520000000001,0.041076,0.9911,-0.126621,0.24649000000000001,-0.09114900000000001,0.059690999999999994,0.033493,0.011921,0.064671
578,0.311661,-1.432864,-1.877891,0.042162,0.990502,-0.13087200000000002,0.199534,-0.084632,0.068969,0.028609,0.008429,0.049817
579,0.300338,-1.429582,-1.8866610000000001,0.041638999999999995,0.9900459999999999,-0.134445,0.200298,-0.148564,0.072255,-0.057645,0.009802,-0.008087
580,0.294091,-1.425585,-1.88958,0.041944999999999996,0.989475,-0.138489,0.19192599999999999,-0.172792,0.011339,-0.082182,0.015499,-0.01123
581,0.278851,-1.422559,-1.902238,0.040652999999999995,0.9890329999999999,-0.14199,0.15741,-0.106273,-0.07658200000000001,-0.087666,0.016735,0.014166999999999999
582,0.25704099999999996,-1.420301,-1.921625,0.038114999999999996,0.9886969999999999,-0.145002,0.139268,-0.151837,-0.12151500000000001,-0.043745,0.004925,0.031004000000000004
583,0.232357,-1.418341,-1.9430009999999998,0.03497,0.988401,-0.147784,0.134939,-0.182646,-0.138598,-0.022504,0.015550999999999999,0.030261
584,0.207578,-1.4163270000000001,-1.964531,0.031708,0.988093,-0.150553,0.130743,-0.16559100000000002,-0.13758099999999998,-0.007935,0.019231,0.021738
585,0.18546300000000002,-1.414562,-1.9843560000000002,0.028693,0.98782,-0.15293099999999998,0.107517,-0.101631,-0.128211,-0.00023500000000000002,0.0070680000000000005,0.009361
586,0.167756,-1.413041,-2.000542,0.026231,0.987582,-0.154897,0.09250900000000001,-0.088911,-0.09949,-0.002718,0.0019199999999999998,0.012256999999999999
587,0.153845,-1.411406,-2.0122400000000003,0.024321000000000002,0.987324,-0.156842,0.099641,-0.133797,-0.069472,-0.028624,0.001689,-0.007968000000000001
588,0.140276,-1.409438,-2.022814,0.022463,0.98701,-0.15908,0.113371,-0.16685999999999998,-0.071471,-0.042832999999999996,0.006093,-0.012169
589,0.12476500000000001,-1.407263,-2.034714,0.02026,0.986658,-0.16153900000000002,0.12393,-0.20625300000000002,-0.086301,-0.050227999999999995,0.011770000000000001,-0.015249
590,0.098812,-1.405563,-2.056289,0.016225999999999997,0.9863799999999999,-0.16368,0.128091,-0.22227600000000003,-0.07877999999999999,-0.018607,0.011942,0.004241
591,0.085863,-1.403146,-2.064894,0.01431,0.98598,-0.166252,0.126871,-0.226652,-0.048873,-0.006406,0.009962,0.00933
592,0.076423,-1.400528,-2.0695930000000002,0.012937,0.9855389999999999,-0.168952,0.136228,-0.250245,-0.017799000000000002,0.01433,0.003749,0.0058200000000000005
593,0.069638,-1.397674,-2.071343,0.011986,0.985052,-0.17184100000000002,0.130827,-0.248164,-0.0007480000000000001,-0.008568000000000001,-0.00144,-0.0059700000000000005
594,0.061499,-1.394279,-2.074705,0.010793,0.984461,-0.175271,0.13081600000000002,-0.229079,0.021659,-0.007802,-0.002405,-0.009512999999999999
595,0.057370000000000004,-1.39067,-2.074344,0.010272,0.983821,-0.178859,0.129719,-0.21106799999999998,0.047264,-0.006854000000000001,-0.00043799999999999997,-0.011601
596,0.056598,-1.387159,-2.070853,0.010329999999999999,0.983186,-0.182314,0.130742,-0.20156500000000002,0.06755499999999999,-0.005721,-0.0018780000000000001,-0.012112999999999999
597,0.057988,-1.383738,-2.06568,0.010778,0.982556,-0.185657,0.131902,-0.170719,0.078205,-0.006109000000000001,-0.0014759999999999999,-0.007687
598,0.056124,-1.3810360000000002,-2.0641,0.010581,0.98205,-0.188327,0.11810699999999999,-0.148325,0.084485,-0.019736,0.001364,-0.001813
599,0.042813,-1.379165,-2.0745419999999997,0.008152,0.9816950000000001,-0.19028599999999998,0.096939,-0.09929500000000001,0.096012,-0.026539,0.013087,0.001916
600,0.042279000000000004,-1.377817,-2.073013,0.008106,0.9814370000000001,-0.19161199999999998,0.07774500000000001,-0.091792,0.101204,-0.032947000000000004,0.021172,0.003654
601,0.03926,-1.376654,-2.072588,0.007572,0.9812129999999999,-0.192777,0.066607,-0.19509,0.10232000000000001,-0.050082999999999996,0.031879000000000005,-0.011676
602,0.020434,-1.37532,-2.086647,0.0039689999999999994,0.9809549999999999,-0.194194,0.050910000000000004,-0.18521700000000002,0.044499000000000004,-0.038972,0.033754,-0.003804
603,0.019729,-1.375254,-2.0858630000000002,0.003833,0.980942,-0.194261,0.026276,-0.017685,-0.005026,-0.000171,0.004928,0.014375
604,0.018181,-1.3753309999999999,-2.086375,0.0035310000000000003,0.980957,-0.194191,0.003325,-0.09766799999999999,0.036575,-0.011618,-0.017669999999999998,0.000466
605,0.014643000000000002,-1.3744459999999998,-2.085717,0.002857,0.980785,-0.19507,0.019563999999999998,-0.249131,0.071063,-0.048129000000000005,0.02132,-0.028883999999999996
606,0.015429,-1.37376,-2.079303,0.00302,0.980651,-0.19574,0.037652,-0.275762,0.0552,-0.055373,0.047089,-0.032287
607,0.014822,-1.3728420000000001,-2.0744759999999998,0.002915,0.9804709999999999,-0.196643,0.048417,-0.266165,0.043512,-0.053101,0.06468,-0.035352
608,0.003941,-1.371553,-2.0795049999999997,0.00078,0.980217,-0.197926,0.033393,-0.291657,0.038093,-0.048783999999999994,0.030068,-0.009929
609,0.000825,-1.3712719999999998,-2.076675,0.000164,0.9801610000000001,-0.198203,-0.001713,-0.285078,0.021816,-0.070964,0.021823,0.004981
610,-0.016618,-1.371907,-2.089039,-0.003283,0.9802870000000001,-0.197554,-0.020461,-0.20927600000000002,-0.004058,-0.064283,0.028686,0.002027
611,-0.021436,-1.372299,-2.0906580000000003,-0.004227000000000001,0.9803639999999999,-0.197151,-0.024325,-0.135694,-0.020203,-0.010695999999999999,0.038327999999999994,0.017707
612,-0.023306,-1.3744450000000001,-2.090698,-0.004546,0.980785,-0.19503900000000002,-0.04969,-0.07491,-0.014048,0.009840999999999999,0.047947000000000004,0.023438999999999998
613,-0.025325,-1.375764,-2.092218,-0.004907,0.9810409999999999,-0.193736,-0.075978,0.010404,-0.014341,0.006845,0.036308,0.026317
614,-0.025948000000000002,-1.3776709999999999,-2.0945110000000002,-0.00498,0.981409,-0.19186199999999998,-0.10744300000000001,0.121342,-0.024317,-0.004542,0.02918,0.026762
615,-0.02688,-1.381259,-2.098811,-0.005064,0.982092,-0.188336,-0.1231,0.180064,-0.04373,0.0021030000000000003,0.020380000000000002,0.014294999999999999
616,-0.029389,-1.383742,-2.1045119999999997,-0.005465,0.982556,-0.185885,-0.12651099999999998,0.125776,-0.051162,0.005388,0.012088,0.007083
617,-0.03348,-1.386297,-2.110056,-0.006141,0.983028,-0.183352,-0.11841800000000001,0.039413,-0.039245,-0.0017170000000000002,-0.010218999999999999,0.00458
618,-0.037238,-1.388477,-2.114219,-0.00675,0.983426,-0.18118499999999998,-0.103645,0.009507999999999999,-0.032694,0.007742,-0.007657,-0.00134
619,-0.035003,-1.390388,-2.111976,-0.006279,0.98377,-0.179322,-0.08035700000000001,-0.020443,-0.021807,0.024651,-0.001303,0.001679
620,-0.037069,-1.391713,-2.113205,-0.006601999999999999,0.984007,-0.178005,-0.061402,-0.053570000000000007,0.0008,0.057276,-0.00099,0.0049700000000000005
621,-0.021240000000000002,-1.392584,-2.096362,-0.0037649999999999997,0.9841620000000001,-0.17723,-0.06586,-0.060091,0.037106,0.061138,-0.008865999999999999,-0.010483
622,-0.015903999999999998,-1.393805,-2.09008,-0.0028,0.9843780000000001,-0.176046,-0.055167999999999995,-0.024031999999999998,0.06811299999999999,0.069618,-0.015246000000000001,-0.01066
623,0.009909999999999999,-1.394198,-2.064633,0.001741,0.984447,-0.175673,-0.044331,0.038679000000000005,0.09375499999999999,0.066222,-0.012554000000000001,-0.012574
624,0.022562,-1.3950930000000001,-2.053092,0.003944,0.984604,-0.174756,-0.04956,0.07168300000000001,0.10329,0.059869000000000006,-0.009231,0.004591
625,0.035936,-1.396007,-2.04121,0.006248,0.9847629999999999,-0.173789,-0.043033999999999996,0.097236,0.10116699999999999,0.05262000000000001,-0.00047999999999999996,0.013236000000000001
626,0.062683,-1.396852,-2.017071,0.010841,0.9849100000000001,-0.172728,-0.035352,0.153635,0.10970099999999999,0.04496,0.007751000000000001,0.006331
627,0.079858,-1.397507,-2.003332,0.013755000000000002,0.985023,-0.171874,-0.046944,0.196244,0.12024800000000001,0.041711,0.01017,0.016936
628,0.106994,-1.399657,-1.980476,0.018187000000000002,0.985391,-0.16933199999999998,-0.059637,0.23246599999999998,0.130798,0.025896,0.009481999999999999,0.031011
629,0.132938,-1.401728,-1.958994,0.022303,0.985742,-0.16677899999999998,-0.065028,0.22076700000000002,0.130777,0.0007379999999999999,0.015128,0.024842
630,0.151447,-1.402535,-1.943807,0.025266,0.985877,-0.165552,-0.053551999999999995,0.144104,0.111728,-0.010556,0.019082,0.016962
631,0.165096,-1.403191,-1.9316659999999999,0.027417,0.9859870000000001,-0.164553,-0.046386000000000004,0.051502,0.086259,-0.024365,0.01618,0.011248000000000001
632,0.169304,-1.40457,-1.927373,0.027880000000000002,0.986216,-0.163096,-0.05191799999999999,-0.015497,0.062802,-0.019884,0.019658000000000002,0.011119
633,0.175976,-1.4054309999999999,-1.9201169999999999,0.028819,0.986358,-0.16207,-0.052937,-0.020756,0.046778,0.000906,0.022782,0.020682
634,0.182555,-1.40629,-1.913879,0.02973,0.986499,-0.161044,-0.052587,0.052765,0.042414,0.030298000000000002,0.008313,0.028918
635,0.202812,-1.4081629999999998,-1.896211,0.032614,0.9868040000000001,-0.158598,-0.061641999999999995,0.17636500000000002,0.043265,0.042368,0.015378,0.025557
636,0.22647199999999998,-1.4102620000000001,-1.8773799999999998,0.035892,0.987142,-0.155764,-0.081471,0.268079,0.035537,0.042339999999999996,0.019953,0.026537
637,0.237862,-1.412097,-1.872151,0.037237,0.987434,-0.153585,-0.107721,0.33539,0.008562,0.032069,0.020347999999999998,0.028783
638,0.248152,-1.414518,-1.8692529999999998,0.038228,0.9878129999999999,-0.150875,-0.130847,0.38989,-0.014102000000000002,0.019465,0.024867,0.025478999999999998
639,0.26357800000000003,-1.417969,-1.861964,0.039662,0.988345,-0.146976,-0.138256,0.406948,-0.010969,0.009959,0.013227000000000001,0.003437
640,0.27564099999999997,-1.420643,-1.857504,0.040713,0.988748,-0.14394300000000002,-0.137453,0.360026,0.0008470000000000001,0.010846,-0.0021149999999999997,0.001182
641,0.29041,-1.422816,-1.849002,0.042219,0.9890709999999999,-0.141267,-0.12180899999999999,0.288564,0.009595000000000001,0.0031609999999999997,-0.006695,-0.003188
642,0.301383,-1.424713,-1.8431279999999999,0.043209,0.9893489999999999,-0.139003,-0.095363,0.24264699999999997,0.014112000000000001,-0.004315,-0.005966,-0.006154
643,0.310691,-1.426313,-1.8381900000000002,0.044017,0.9895799999999999,-0.137087,-0.079523,0.212738,0.020669999999999997,0.00041600000000000003,-0.008212,0.0051600000000000005
644,0.32586,-1.4275950000000002,-1.8268389999999999,0.045686000000000004,0.989764,-0.135202,-0.067971,0.173279,0.021872,0.010619,0.003766,0.0038090000000000003
645,0.334163,-1.428667,-1.821268,0.046458,0.989917,-0.13381500000000002,-0.061799,0.12106300000000002,0.020913,0.009175,0.007245000000000001,0.0014449999999999999
646,0.358346,-1.429886,-1.799653,0.049257,0.990089,-0.131523,-0.044695,0.136953,0.028497,0.028105,0.004983,0.011284
647,0.378021,-1.430124,-1.7836029999999998,0.051748,0.990122,-0.13030899999999998,-0.056163,0.206198,0.037946,0.034647000000000004,0.0014089999999999999,0.000488
648,0.403906,-1.4307299999999998,-1.762348,0.05486799999999999,0.990207,-0.128375,-0.077419,0.23287,0.046314999999999995,0.043933,0.004392,0.006533
649,0.43039499999999997,-1.431722,-1.740118,0.057839,0.990345,-0.12598399999999998,-0.07009299999999999,0.201952,0.04641,0.035255,0.00935,0.020697999999999998
650,0.44405100000000003,-1.4323569999999999,-1.7307669999999997,0.059284,0.990433,-0.12461400000000002,-0.050717,0.23599,0.042229,0.020855000000000002,0.000778,0.013149000000000001
651,0.457276,-1.4329379999999998,-1.722519,0.060673000000000005,0.9905129999999999,-0.123303,-0.051664,0.258382,0.037920999999999996,0.027859,0.011044,0.021619
652,0.489972,-1.4335959999999999,-1.695026,0.064364,0.990603,-0.120679,-0.038885,0.25619899999999995,0.040157,0.029248000000000003,0.003629,0.016568
653,0.516366,-1.433732,-1.674246,0.06746,0.9906209999999999,-0.11882000000000001,-0.05575499999999999,0.296756,0.03572,0.022872,-0.00205,0.0061189999999999994
654,0.536852,-1.4344270000000001,-1.659819,0.06952799999999999,0.9907159999999999,-0.11682200000000001,-0.06426699999999999,0.302113,0.035655,0.018027,0.0058200000000000005,0.00911
655,0.557291,-1.435457,-1.6451639999999998,0.07136100000000001,0.990856,-0.11451099999999999,-0.061112,0.288271,0.031424,0.003437,0.0073290000000000004,0.008783
656,0.572172,-1.437068,-1.636274,0.072193,0.991072,-0.112094,-0.0652,0.31709499999999996,0.019607,-0.001575,0.023638,0.004215
657,0.586871,-1.438166,-1.62846,0.07322999999999999,0.991217,-0.110115,-0.070262,0.360858,0.002424,0.004116,0.023294,0.0021899999999999997
658,0.601683,-1.439415,-1.620925,0.074152,0.991382,-0.107998,-0.07445299999999999,0.363063,-0.012562,0.009756,0.014828000000000001,0.001125
659,0.619129,-1.4409020000000001,-1.610855,0.075169,0.991576,-0.105486,-0.073268,0.373841,-0.029671,0.011013,0.002382,0.00783
660,0.635899,-1.442709,-1.60161,0.075863,0.991808,-0.10277,-0.081761,0.374971,-0.038275,0.011981,0.008253,0.009370999999999999
661,0.6500779999999999,-1.4445709999999998,-1.595069,0.076195,0.992044,-0.100214,-0.092373,0.390975,-0.035164,0.012,0.009146,0.004495
662,0.6675770000000001,-1.446194,-1.5852600000000001,0.07694,0.9922469999999999,-0.0976,-0.10420499999999999,0.375015,-0.029883,0.013728,0.00818,-0.002269
663,0.6842229999999999,-1.44755,-1.575872,0.077703,0.9924149999999999,-0.095263,-0.087245,0.35894299999999996,-0.021197,0.019358,0.001253,-0.005094
664,0.697427,-1.4477440000000001,-1.570203,0.078831,0.992439,-0.094081,-0.066856,0.391864,-0.013616999999999999,0.010525,-0.006217,-0.019734
665,0.70668,-1.447519,-1.568524,0.079843,0.992411,-0.09351799999999999,-0.057408,0.365164,-0.0049689999999999995,0.007498,-0.004725,-0.021854
666,0.718009,-1.4477149999999999,-1.563613,0.08076900000000001,0.9924350000000001,-0.09246,-0.051399,0.295827,0.013322,0.0012929999999999999,0.010739,-0.0024649999999999997
667,0.73096,-1.448175,-1.555858,0.08165499999999999,0.992491,-0.091067,-0.047434,0.24789699999999998,0.026170999999999996,-0.00038700000000000003,0.010942,-0.001661
668,0.7443569999999999,-1.448451,-1.547102,0.082683,0.992525,-0.089764,-0.045377,0.22978400000000002,0.025141,0.003346,0.009871,-0.0018800000000000002
669,0.756259,-1.44846,-1.539668,0.083739,0.992526,-0.088767,-0.036856,0.22549699999999998,0.024138,0.0019089999999999999,0.000653,-0.006067
670,0.7664949999999999,-1.4484219999999999,-1.533862,0.08466900000000001,0.9925219999999999,-0.08793200000000001,-0.021958000000000002,0.220106,0.027454000000000003,0.000612,-0.000868,-0.0037119999999999996
671,0.7774399999999999,-1.448438,-1.5270780000000002,0.085615,0.992524,-0.086988,-0.027382999999999998,0.209434,0.037043,-0.0057350000000000005,0.010345,0.00923
672,0.792079,-1.449054,-1.516712,0.08644500000000001,0.992598,-0.085297,-0.045493,0.21801199999999998,0.039041,-0.004841,0.016267,0.009812000000000001
673,0.806956,-1.4495209999999998,-1.505854,0.087369,0.992655,-0.08368099999999999,-0.053029,0.193575,0.029406,-0.002606,0.012472,0.006212
674,0.818625,-1.450132,-1.497585,0.087896,0.9927290000000001,-0.082241,-0.041404,0.159484,0.019916,-0.011587,0.015557,0.002315
675,0.822247,-1.450941,-1.496793,0.08760599999999999,0.992826,-0.081376,-0.032913,0.14244,0.012517,-0.016163999999999998,0.016802,-0.005843
676,0.82785,-1.451433,-1.4940879999999999,0.0877,0.992885,-0.080553,-0.033907,0.153118,0.007154000000000001,-0.012565999999999999,0.003743,-0.003965
677,0.834195,-1.452041,-1.49058,0.087762,0.992957,-0.079589,-0.033979,0.135017,0.00504,-0.012597,0.002343,0.004424
678,0.843675,-1.4536850000000001,-1.483285,0.087293,0.99315,-0.077669,-0.031017000000000003,0.088114,0.010459,-0.010114,0.006651000000000001,0.016283000000000002
679,0.8513709999999999,-1.454357,-1.476443,0.087386,0.9932290000000001,-0.076554,-0.032425999999999996,0.017789,0.015880000000000002,-0.009825,0.005718,0.016145
680,0.857858,-1.455347,-1.469702,0.087137,0.993343,-0.075343,-0.034710000000000005,-0.022653,0.008437,-0.009897,0.00594,0.008586
681,0.8586969999999999,-1.456046,-1.468422,0.086675,0.993423,-0.074817,-0.042101,-0.008765,0.005161,-0.005529,0.011627,-0.012692
682,0.863129,-1.456307,-1.464138,0.08680800000000001,0.993453,-0.074262,-0.045186000000000004,0.018934,0.007240000000000001,0.00058,0.006852,-0.015916999999999997
683,0.868663,-1.455945,-1.458833,0.087493,0.9934120000000001,-0.074014,-0.03673,0.0061,0.012657999999999999,0.014116,0.009854,-0.010870999999999999
684,0.881733,-1.455514,-1.445383,0.088783,0.9933620000000001,-0.073136,-0.031608,-0.037607,0.015958,0.010537000000000001,0.005203,0.009064000000000001
685,0.8883909999999999,-1.455678,-1.43757,0.089142,0.993381,-0.07244099999999999,-0.031714,-0.064226,0.012787,0.0074010000000000005,0.005764,0.007759
686,0.8928590000000001,-1.455867,-1.431873,0.089318,0.993403,-0.071923,-0.028464999999999997,-0.052523,0.013863,0.001152,0.000982,-0.0033020000000000002
687,0.8974129999999999,-1.455927,-1.426467,0.089598,0.99341,-0.071479,-0.025217,-0.036577,0.019207,0.005403,0.0007160000000000001,-0.004952000000000001
688,0.905863,-1.4552260000000001,-1.417035,0.09074600000000001,0.9933290000000001,-0.071149,-0.032809,-0.055759,0.027726,0.014097,-0.000715,-0.0032840000000000005
689,0.9131549999999999,-1.455196,-1.408291,0.09128700000000001,0.993326,-0.070504,-0.033991,-0.07283400000000001,0.036286,-0.00025299999999999997,0.004477,0.0018239999999999999
690,0.917851,-1.455123,-1.401979,0.091674,0.993317,-0.070118,-0.02336,-0.082454,0.035302999999999994,-0.009384,0.005035,-0.002651
691,0.918801,-1.45502,-1.3989610000000001,0.091822,0.9933049999999999,-0.07009299999999999,-0.010716,-0.11871300000000001,0.034369,-0.007197,0.0051990000000000005,-0.003057
692,0.918877,-1.4545649999999999,-1.3960350000000001,0.092187,0.993253,-0.070361,-0.008768999999999999,-0.15920499999999999,0.035502,-0.004907,0.0031609999999999997,-0.007017
693,0.920106,-1.4542469999999998,-1.3914549999999999,0.092524,0.993216,-0.070438,-0.010917,-0.163454,0.034424,-0.0047409999999999996,0.005304,0.000538
694,0.921824,-1.45387,-1.386503,0.092944,0.9931719999999999,-0.070505,-0.0077069999999999994,-0.154969,0.040844,-0.002947,0.010643000000000001,0.0063880000000000004
695,0.926264,-1.453449,-1.378718,0.09358999999999999,0.993123,-0.070344,-0.007812999999999999,-0.17522100000000002,0.044074,0.0023420000000000003,0.006252000000000001,0.008423
696,0.9302879999999999,-1.452978,-1.370858,0.094247,0.993067,-0.070246,-0.012197,-0.20183299999999998,0.04301,0.001532,-0.004161,0.009623
697,0.932449,-1.452418,-1.3644399999999999,0.094846,0.993001,-0.070373,-0.004787,-0.21358200000000002,0.044145,0.000797,-0.004644,2.9999999999999997e-05
698,0.931953,-1.451239,-1.36051,0.09575,0.9928620000000001,-0.071118,0.001558,-0.220021,0.050608,0.011961,0.006345,-0.012485
699,0.9317549999999999,-1.4498469999999999,-1.356027,0.096845,0.9926950000000001,-0.071961,0.006788,-0.241353,0.052809,0.015658000000000002,0.004437,-0.010955
700,0.9307059999999999,-1.44832,-1.3519219999999998,0.097986,0.992509,-0.072969,0.012042,-0.261604,0.050737,0.0185,0.00183,-0.013243000000000001
701,0.931515,-1.446184,-1.3459510000000001,0.099746,0.992246,-0.074154,0.021669,-0.26055500000000004,0.046534,0.024613,-0.00073,-0.003819
702,0.9331440000000001,-1.443866,-1.33902,0.101714,0.9919549999999999,-0.07536,0.026931999999999998,-0.27124699999999996,0.05193,0.030747000000000003,0.010227,-0.003543
703,0.931701,-1.442126,-1.335069,0.10299100000000001,0.991733,-0.076537,0.029046,-0.271271,0.056219000000000005,0.027563,0.010876,-0.0023510000000000002
704,0.929565,-1.439609,-1.331812,0.104827,0.9914069999999999,-0.078249,0.034416,-0.264894,0.055184000000000004,0.025422,0.007692,-0.011212999999999999
705,0.927675,-1.4370100000000001,-1.328335,0.106741,0.991064,-0.079992,0.036489,-0.273445,0.060555,0.026133,0.009012000000000001,-0.008966
706,0.926367,-1.435195,-1.324325,0.108073,0.99082,-0.081212,0.029093,-0.2585,0.05941799999999999,0.027776,0.010751,0.004521
707,0.931707,-1.4333,-1.3143559999999999,0.11001300000000001,0.990562,-0.081754,0.023977000000000002,-0.215844,0.052922000000000004,0.025867,0.005928,0.011090000000000001
708,0.933931,-1.432013,-1.308378,0.11121900000000001,0.9903850000000001,-0.08226699999999999,0.022053,-0.175331,0.046449000000000004,0.025149,0.008196,0.015265
709,0.940154,-1.431214,-1.298832,0.11236700000000001,0.990274,-0.082039,0.010372,-0.168871,0.039952,0.010695,0.022177000000000002,0.020577
710,0.9453219999999999,-1.431489,-1.290375,0.11257,0.9903120000000001,-0.081298,0.0029530000000000003,-0.163492,0.033483,-0.009054000000000001,0.024306,0.02568
711,0.9486120000000001,-1.433068,-1.2841989999999999,0.11156600000000001,0.9905299999999999,-0.08001599999999999,-0.00221,-0.131484,0.025923,-0.021263999999999998,0.008356,0.01863
712,0.9482229999999999,-1.433375,-1.2822770000000001,0.11128800000000001,0.9905729999999999,-0.07988200000000001,-0.0031190000000000002,-0.10799700000000001,0.014135,-0.020391,0.004194,0.014499000000000001
713,0.945055,-1.434172,-1.2832379999999999,0.110394,0.9906809999999999,-0.07977200000000001,0.001181,-0.112225,0.0024170000000000003,-0.017559,0.011348,0.005797
714,0.939651,-1.435175,-1.286345,0.10915899999999999,0.9908170000000001,-0.07978099999999999,-0.005193,-0.114299,-0.006175,-0.022213999999999998,0.014691,0.0036090000000000002
715,0.936185,-1.436185,-1.287598,0.108076,0.9909540000000001,-0.079566,-0.021134,-0.10676,-0.012707,-0.030302,0.00543,0.007651000000000001
716,0.9369049999999999,-1.436792,-1.284794,0.10764800000000001,0.991035,-0.07913099999999999,-0.039245999999999996,-0.10137,-0.012841,-0.043866,0.005868,0.0065450000000000005
717,0.938717,-1.4374129999999998,-1.280957,0.107295,0.991118,-0.078573,-0.036055000000000004,-0.099268,-0.008548,-0.044291000000000004,0.015383,-0.0017800000000000001
718,0.933484,-1.4385,-1.2839040000000002,0.10601700000000001,0.9912620000000001,-0.07849199999999999,-0.024447999999999998,-0.12276600000000001,-0.0030989999999999998,-0.039092,0.014063999999999998,-0.012175
719,0.92748,-1.439123,-1.2867030000000002,0.105049,0.991344,-0.07875599999999999,-0.023691999999999998,-0.17821900000000002,0.010860999999999999,-0.032615,0.0055439999999999994,-0.017282
720,0.908909,-1.440811,-1.301081,0.102248,0.9915639999999999,-0.079665,-0.022818,-0.20598400000000003,0.026916000000000002,-0.043868,0.002745,-0.011323
721,0.904718,-1.441182,-1.301059,0.101624,0.991612,-0.07986599999999999,-0.019729,-0.20389300000000002,0.047097,-0.045594,-0.004429,-0.008162
722,0.9016649999999999,-1.4413200000000002,-1.299778,0.101273,0.9916299999999999,-0.080091,-0.012347,-0.21885,0.051437000000000004,-0.036926,-0.0038060000000000004,-0.001285
723,0.897978,-1.441819,-1.298575,0.10059,0.9916940000000001,-0.08015499999999999,-0.011448,-0.25401599999999996,0.05362000000000001,-0.02483,0.00852,0.005539
724,0.8990870000000001,-1.441682,-1.292008,0.100785,0.991676,-0.08012799999999999,-0.011526,-0.27424299999999996,0.05044,-0.015427000000000001,0.012505,0.013005000000000001
725,0.899109,-1.441499,-1.286594,0.10092899999999999,0.9916530000000001,-0.080239,-0.002884,-0.26355,0.035487,-0.006508,-0.000808,0.011773
726,0.902385,-1.441446,-1.278083,0.101232,0.9916459999999999,-0.07994,0.004647999999999999,-0.265638,0.018452,0.008005,-0.001152,0.012161
727,0.9013479999999999,-1.4410450000000001,-1.273708,0.101462,0.9915940000000001,-0.080292,0.008886,-0.27310500000000004,0.017424000000000002,0.014047,0.008208,0.014527000000000002
728,0.9011299999999999,-1.440533,-1.268635,0.101842,0.9915280000000001,-0.08062899999999999,0.0036030000000000003,-0.259247,0.019507,0.020931,0.030292000000000003,0.011247
729,0.897956,-1.440185,-1.26686,0.101855,0.991482,-0.08116699999999999,-0.000593,-0.24006999999999998,0.022657,0.032056,0.026813,0.006002
730,0.895817,-1.439741,-1.264566,0.102024,0.991425,-0.08165900000000001,0.006995,-0.207098,0.029077,0.038341,-0.000259,0.006327
731,0.898731,-1.438401,-1.2580040000000001,0.103302,0.9912479999999999,-0.08219,0.023136,-0.172017,0.033421,0.033554,-0.004554,0.007864
732,0.8962530000000001,-1.437516,-1.257312,0.10378299999999999,0.991131,-0.082993,0.025347,-0.14861400000000002,0.039816000000000004,0.025490000000000002,0.019778999999999998,0.013580000000000002
733,0.894861,-1.436742,-1.256117,0.10426600000000001,0.991028,-0.083617,0.011679,-0.113373,0.030061,0.017789,0.02745,0.015899
734,0.901374,-1.436328,-1.24799,0.10513,0.990973,-0.083191,-0.0029620000000000002,-0.06955599999999999,0.0074719999999999995,0.013980000000000001,0.020059,0.002853
735,0.901862,-1.436217,-1.246413,0.10525699999999999,0.990958,-0.083208,-0.008119,-0.048159,-0.01075,0.012511,0.012277,-0.002455
736,0.9013399999999999,-1.436337,-1.246202,0.10512,0.990974,-0.083189,-0.018643,-0.029957,-0.024733,0.012419,0.010491,-0.007174
737,0.901194,-1.436642,-1.2459280000000001,0.104871,0.991015,-0.083017,-0.032392000000000004,-0.01707,-0.038731,0.015916999999999997,0.003462,-0.011176
738,0.902676,-1.437447,-1.244158,0.104368,0.991122,-0.082367,-0.042993,-0.011668000000000001,-0.048424,0.0057090000000000005,0.0075959999999999995,-0.000824
739,0.90302,-1.4388319999999999,-1.243967,0.10331800000000001,0.9913049999999999,-0.081481,-0.042802,0.020333,-0.059146000000000004,0.00328,0.012952000000000002,-0.001008
740,0.9002829999999999,-1.4399309999999998,-1.247493,0.102241,0.991449,-0.081086,-0.039432,0.050179,-0.066638,0.0073019999999999995,0.019262,-0.011458
741,0.8998360000000001,-1.4410610000000001,-1.248945,0.101327,0.9915959999999999,-0.08043600000000001,-0.046908,0.045952999999999994,-0.06882,0.01676,0.013622,-0.013543000000000001
742,0.9011459999999999,-1.442005,-1.248353,0.100699,0.991718,-0.079722,-0.059777,0.031083999999999997,-0.06888899999999999,0.026026,0.003689,-0.017065
743,0.9025549999999999,-1.4423110000000001,-1.247595,0.100573,0.991757,-0.07939199999999999,-0.065065,0.036446,-0.073201,0.021467,0.000171,-0.017258000000000003
744,0.904291,-1.443119,-1.246632,0.10008,0.9918600000000001,-0.078721,-0.072531,0.039655,-0.07005,0.014513999999999999,-0.008508,-0.012313
745,0.9086700000000001,-1.4446430000000001,-1.243096,0.099232,0.9920530000000001,-0.07735299999999999,-0.077855,0.04817,-0.063688,0.015804,-0.004749000000000001,-0.009698
746,0.9167719999999999,-1.4454049999999998,-1.236259,0.099256,0.992149,-0.076087,-0.063937,0.071507,-0.050798,0.021655,-0.001685,-0.004632
747,0.925984,-1.4456870000000002,-1.228594,0.099728,0.9921840000000001,-0.075001,-0.053311000000000004,0.07992,-0.032572000000000004,0.020328,-0.0036130000000000003,-0.003689
748,0.932858,-1.446191,-1.2232180000000001,0.09984,0.9922469999999999,-0.074016,-0.035285000000000004,0.07127,-0.01641,0.018462,-0.000227,-0.001332
749,0.936509,-1.446649,-1.220646,0.099744,0.9923040000000001,-0.073382,-0.000362,0.042249,0.018054,-0.014096000000000001,-0.008112000000000001,0.006640000000000001
750,0.9341299999999999,-1.44757,-1.223678,0.098833,0.992417,-0.073075,0.023007,0.031468,0.029976,-0.034792000000000003,9.1e-05,0.012208
751,0.935399,-1.4467649999999999,-1.2227270000000001,0.099569,0.992318,-0.073423,0.013266,0.006975,0.036349,-0.043142,0.008459999999999999,0.010099
752,0.9376030000000001,-1.446233,-1.2202879999999998,0.10015700000000001,0.992252,-0.073517,0.000392,-0.021691,0.023477,-0.053571,0.019986,0.010681
753,0.934255,-1.447323,-1.2227569999999999,0.09904,0.9923870000000001,-0.07320800000000001,-0.004991,-0.053545,0.002112,-0.041697000000000005,0.012511,0.010403
754,0.9315399999999999,-1.447567,-1.224082,0.098646,0.992417,-0.07333200000000001,0.001424,-0.075836,-0.023452,-0.02928,0.011825,0.014296000000000001
755,0.9267120000000001,-1.449014,-1.227494,0.097143,0.9925940000000001,-0.072946,-0.008059,-0.067208,-0.041692,-0.024343,0.012274,0.021524
756,0.925688,-1.451021,-1.227398,0.095476,0.992835,-0.07184700000000001,-0.017558,-0.049043,-0.047125,-0.02376,0.02253,0.033089999999999994
757,0.9231209999999999,-1.452015,-1.229344,0.09450399999999999,0.9929540000000001,-0.071497,-0.021706,-0.021335,-0.046120999999999995,-0.021689,0.017178,0.031488
758,0.9272889999999999,-1.454336,-1.225131,0.09295700000000001,0.993226,-0.069719,-0.018466999999999997,0.0052179999999999995,-0.029044,-0.013215000000000001,0.009261,0.021821
759,0.9290719999999999,-1.456007,-1.223568,0.091752,0.993419,-0.06856,-0.015327,0.010461,-0.010872,-0.010438,-0.000118,0.003038
760,0.928738,-1.456424,-1.2237879999999999,0.091397,0.993467,-0.068342,-0.014437,-0.017287,0.0009199999999999999,-0.0117,0.00159,-0.002291
761,0.926573,-1.456708,-1.224997,0.09102400000000001,0.993499,-0.068371,-0.006093,-0.060988,-3.6e-05,-0.01119,0.003999,-0.004994
762,0.92025,-1.457215,-1.2298959999999999,0.090188,0.993557,-0.068639,0.009857,-0.071701,0.001155,-0.014138999999999999,0.006611,0.000509
763,0.91448,-1.457561,-1.234145,0.089519,0.9935959999999999,-0.068949,0.014115,-0.081273,-0.006282,-0.018199,0.014353999999999999,0.003779
764,0.9093200000000001,-1.458101,-1.237509,0.088738,0.993657,-0.06907999999999999,0.0044740000000000005,-0.097189,-0.013808,-0.014153,0.016231,0.011904999999999999
765,0.9063110000000001,-1.4592459999999998,-1.2384600000000001,0.087634,0.993785,-0.068645,-0.002996,-0.10565,-0.022397,-0.009311,0.01093,0.012462
766,0.905709,-1.460061,-1.2373379999999998,0.08695599999999999,0.993875,-0.06819800000000001,-0.008145,-0.070452,-0.028888,-0.001491,0.006673999999999999,0.018226
767,0.9060549999999999,-1.460857,-1.23638,0.08635599999999999,0.9939629999999999,-0.06767999999999999,-0.006802,-0.011853,-0.032158,0.006325,0.0037939999999999996,0.013481
768,0.9135639999999999,-1.460867,-1.229136,0.086855,0.993964,-0.067024,-0.009855,0.019059,-0.034351,0.017805,0.002527,0.003486
769,0.914802,-1.461148,-1.2285409999999999,0.086716,0.9939950000000001,-0.066746,-0.007640000000000001,0.038222000000000006,-0.033291,0.020156,-0.00040300000000000004,0.000981
770,0.9176270000000001,-1.460917,-1.226703,0.087086,0.9939690000000001,-0.06663999999999999,0.004105,0.051983,-0.021473,0.016201,0.000919,-0.000377
771,0.920583,-1.460027,-1.224825,0.087988,0.993871,-0.06691799999999999,0.000848,0.048760000000000005,-0.011873,0.017252,0.03271,-0.008186
772,0.9221280000000001,-1.459893,-1.224241,0.088197,0.993856,-0.066863,-0.009794,0.048780000000000004,-0.011045999999999999,0.012953999999999999,0.024454,-0.007677
773,0.92443,-1.4597209999999998,-1.223049,0.088487,0.9938370000000001,-0.066762,-0.019328,0.058422,-0.016464,0.013732,0.015608000000000002,-0.010218999999999999
774,0.9251950000000001,-1.459082,-1.223549,0.089046,0.993766,-0.067077,-0.0063939999999999995,0.055310000000000005,-0.048412000000000004,0.016835,-0.030494,-0.0065769999999999995
775,0.92163,-1.459354,-1.227494,0.08859,0.9937969999999999,-0.06723,0.009308,-0.001248,-0.037547000000000004,0.015413999999999999,-0.021476,-0.002564
776,0.917667,-1.459168,-1.2316690000000001,0.088469,0.993776,-0.06769299999999999,0.025378,0.035891,-0.015047999999999999,6.2e-05,-1.7e-05,0.005315
777,0.9134979999999999,-1.45939,-1.237831,0.088012,0.993801,-0.067927,-0.006311,0.128592,0.007043000000000001,-0.016097999999999998,0.011097,-0.017537999999999998
778,0.9130309999999999,-1.459307,-1.2406540000000001,0.088045,0.993792,-0.068017,-0.009658,0.104067,0.015595,-0.017731999999999998,-0.0025039999999999997,-0.022588999999999998
779,0.908675,-1.459211,-1.246259,0.087823,0.9937809999999999,-0.068459,0.009331,0.044392,0.004052,-0.020531999999999998,0.0011380000000000001,-0.020439
780,0.906954,-1.459286,-1.248667,0.087647,0.9937889999999999,-0.068565,0.005121,0.032787000000000004,-0.020531999999999998,-0.017915,0.010971999999999999,-0.023369
781,0.9004469999999999,-1.45956,-1.255843,0.08698600000000001,0.99382,-0.068964,0.005195,0.036034,-0.033354,-0.003093,0.011857,-0.015463
782,0.8952690000000001,-1.4594790000000002,-1.2617969999999998,0.08669099999999999,0.9938110000000001,-0.069464,0.010492,0.035982,-0.024771,0.006312,0.002543,-0.005487
783,0.890901,-1.459314,-1.266584,0.086514,0.993792,-0.06994600000000001,0.027361,0.011340000000000001,-0.004325,0.00307,0.008176000000000001,-0.0034189999999999997
784,0.8868229999999999,-1.458975,-1.270799,0.086488,0.9937549999999999,-0.07051,0.029480000000000003,0.012381,-3.9e-05,-0.0010539999999999998,0.00266,0.000487
