,attitude.roll,attitude.pitch,attitude.yaw,gravity.x,gravity.y,gravity.z,rotationRate.x,rotationRate.y,rotationRate.z,userAcceleration.x,userAcceleration.y,userAcceleration.z
0,-1.5043879999999998,-1.184453,1.3737469999999998,-0.37596599999999997,0.926293,-0.025004,-0.076703,-0.022654,-0.050195,-0.009517,-0.005028,0.021846
1,-1.507574,-1.1838799999999998,1.370343,-0.37657399999999996,0.926077,-0.02384,-0.05531799999999999,0.007022,-0.030855,-0.0075959999999999995,-0.006795999999999999,0.024801
2,-1.509548,-1.183511,1.36786,-0.37696199999999996,0.9259379999999999,-0.023117,-0.041444,0.01971,-0.019024,-0.010306999999999998,-0.006169,0.020966
3,-1.511309,-1.183154,1.365622,-0.377332,0.925803,-0.022473,-0.035052,0.014374000000000001,-0.022178,-0.014650999999999999,-0.004599,0.009991
4,-1.513145,-1.182779,1.363558,-0.377719,0.9256610000000001,-0.0218,-0.034076,-0.0005650000000000001,-0.01681,-0.022458000000000002,0.002439,0.005
5,-1.515333,-1.182528,1.361459,-0.37799699999999997,0.925566,-0.020987000000000002,-0.03843,-0.014419999999999999,-0.011482,-0.022363,0.005098,0.004507
6,-1.518037,-1.182289,1.359012,-0.378275,0.9254760000000001,-0.019976,-0.039535,-0.020816,-0.009345000000000001,-0.019094999999999997,0.013215000000000001,0.005144
7,-1.520486,-1.182094,1.3567879999999999,-0.37850300000000003,0.9254020000000001,-0.019059,-0.039545,-0.020824000000000002,-0.007209,-0.013465000000000001,0.015821,0.00911
8,-1.522996,-1.1819819999999999,1.35474,-0.378653,0.925359,-0.018113999999999998,-0.039227,-0.039729,-0.005122,-0.009637,0.016383,0.009126
9,-1.526407,-1.181726,1.352233,-0.37895,0.925262,-0.016832,-0.051015,-0.057772000000000004,-0.011590999999999999,-0.004778,0.014556999999999999,0.007143000000000001
10,-1.530464,-1.1814129999999998,1.3491879999999998,-0.379305,0.925143,-0.015307,-0.05744,-0.06732,-0.015896,-0.0017980000000000001,0.013165000000000001,0.012315999999999999
11,-1.5344209999999998,-1.181068,1.3464209999999999,-0.379682,0.9250120000000001,-0.013817,-0.046733,-0.06414,-0.021166,-0.001253,0.011755,0.011284
12,-1.5375940000000001,-1.1805370000000002,1.344273,-0.380215,0.924811,-0.012629000000000001,-0.034931,-0.058816999999999994,-0.030705,-0.009037,0.009989,0.00123
13,-1.540239,-1.1798870000000001,1.342662,-0.380849,0.9245629999999999,-0.011641,-0.026358,-0.054568,-0.034923,-0.01942,0.008878,-0.007615
14,-1.542324,-1.179225,1.34131,-0.381484,0.9243100000000001,-0.010865000000000001,-0.024118,-0.030079,-0.033871,-0.021119,0.014303999999999999,-0.014724000000000001
15,-1.543784,-1.178604,1.340103,-0.382073,0.9240729999999999,-0.010323,-0.017636000000000002,-0.010931,-0.032782,-0.01139,0.022567,-0.01612
16,-1.544519,-1.1779620000000002,1.339534,-0.38267399999999996,0.9238280000000001,-0.010058,-0.008307,-0.013147999999999998,-0.03071,-0.001451,0.014388999999999999,-0.016309
17,-1.54567,-1.1774129999999998,1.338827,-0.383193,0.923617,-0.00963,-0.022286,-0.029112,-0.022241999999999998,0.004744,-0.004489,-0.0065439999999999995
18,-1.548155,-1.177007,1.3367,-0.38359,0.9234620000000001,-0.008687,-0.056429999999999994,-0.024753,-0.017145,0.002715,0.0025329999999999997,-0.000118
19,-1.551821,-1.176691,1.333097,-0.383911,0.9233399999999999,-0.007286,-0.081987,-0.015072,-0.018404,0.000259,0.020049,0.00161
20,-1.556002,-1.176348,1.328538,-0.384256,0.9232090000000001,-0.005685,-0.089331,0.010529,-0.020624,0.0007559999999999999,0.021356,-0.002036
21,-1.559398,-1.175973,1.3243200000000002,-0.38461999999999996,0.923064,-0.004384000000000001,-0.07963300000000001,0.029679,-0.022718000000000002,0.00495,0.021821,-0.013087
22,-1.562561,-1.17549,1.320175,-0.38507800000000003,0.9228790000000001,-0.003171,-0.082786,0.036098000000000005,-0.027020999999999996,0.002693,0.020938,-0.018573
23,-1.565713,-1.1749969999999998,1.315841,-0.38554099999999997,0.922689,-0.00196,-0.080609,0.046738999999999996,-0.025951,0.0023469999999999997,0.018168,-0.011178
24,-1.567739,-1.174511,1.312133,-0.385991,0.922501,-0.00118,-0.066372,0.08375,-0.029595,0.009205,0.016708,-0.0068
25,-1.568147,-1.173905,1.309516,-0.38655,0.9222670000000001,-0.001024,-0.045977,0.10500999999999999,-0.035889,0.010924,0.010259,-0.0068650000000000004
26,-1.567888,-1.173143,1.307575,-0.38725,0.9219719999999999,-0.001126,-0.040647,0.095438,-0.044386,0.009489000000000001,0.005106,-0.004686999999999999
27,-1.568116,-1.172233,1.3055350000000001,-0.388088,0.9216200000000001,-0.0010400000000000001,-0.042852999999999995,0.073101,-0.050782,0.00317,0.0017510000000000002,0.0025960000000000002
28,-1.568824,-1.171292,1.303539,-0.38895599999999997,0.9212540000000001,-0.000767,-0.03549,0.049638999999999996,-0.0507,-0.008047,-0.004811,0.012501
29,-1.5687209999999998,-1.170421,1.30263,-0.38976,0.9209149999999999,-0.0008089999999999999,-0.007795000000000001,0.047382,-0.043026,-0.013956999999999999,-0.011033,0.015335
30,-1.5671620000000002,-1.169802,1.303228,-0.390328,0.920673,-0.001418,0.020958,0.051477999999999996,-0.026807,-0.017723,-0.014011000000000001,0.014831
31,-1.564722,-1.1695360000000001,1.3047309999999999,-0.39056799999999997,0.9205700000000001,-0.002373,0.034741,0.051352999999999996,-0.007483,-0.01704,-0.010565999999999999,0.007254999999999999
32,-1.5619530000000001,-1.169545,1.3068520000000001,-0.39055100000000004,0.920573,-0.003454,0.047404,0.034207999999999995,0.006514,-0.017713,-0.007167,0.005682
33,-1.559294,-1.169722,1.309365,-0.390378,0.920642,-0.004490999999999999,0.056857000000000005,0.010701,0.016225,-0.014605000000000002,-0.003146,0.002553
34,-1.55649,-1.169993,1.312435,-0.39011399999999996,0.920748,-0.005582,0.071707,-0.001099,0.023821000000000002,-0.013771,0.004957,0.004543999999999999
35,-1.552743,-1.170515,1.316635,-0.389611,0.9209510000000001,-0.007034,0.089772,-0.008654,0.032503,-0.017828999999999998,0.004296,0.0061649999999999995
36,-1.5484799999999999,-1.1709610000000001,1.321606,-0.389165,0.921125,-0.008686,0.10466500000000001,-0.018293,0.032619,-0.016551,0.007311,0.008395999999999999
37,-1.543583,-1.171527,1.327348,-0.388596,0.9213450000000001,-0.010578,0.114281,-0.018313999999999997,0.029481999999999998,-0.01712,0.007091,0.010288
38,-1.538908,-1.171951,1.3329229999999999,-0.388152,0.92151,-0.012381999999999999,0.106769,-0.028936,0.028374,-0.006409999999999999,0.002852,0.007162999999999999
39,-1.535372,-1.172345,1.337695,-0.387741,0.9216629999999999,-0.013741,0.085351,-0.050154000000000004,0.025047,0.0036009999999999996,0.001936,0.009087
40,-1.5333860000000001,-1.172717,1.34123,-0.387372,0.9218069999999999,-0.014499000000000001,0.05966900000000001,-0.070292,0.021689,0.0024690000000000003,0.002311,0.010165
41,-1.532875,-1.17314,1.343388,-0.38697600000000004,0.9219709999999999,-0.014681999999999999,0.038311000000000005,-0.069719,0.032228,-0.002947,0.014934000000000001,0.010516
42,-1.532776,-1.173873,1.3447959999999999,-0.386299,0.9222549999999999,-0.014694,0.022327,-0.05267,0.044913999999999996,-0.0026780000000000003,0.026369,0.007065000000000001
43,-1.533202,-1.174907,1.345315,-0.385353,0.9226540000000001,-0.014494,0.0020570000000000002,-0.041989,0.055439999999999996,-0.000984,0.022887,0.00543
44,-1.534351,-1.1760620000000002,1.345112,-0.384305,0.923099,-0.014012,-0.0065260000000000006,-0.05049,0.057527999999999996,-0.000766,0.018353,0.002782
45,-1.535599,-1.17721,1.344935,-0.383262,0.9235399999999999,-0.013494999999999998,-0.001187,-0.052626,0.054363,-0.004372,0.010725,0.008689
46,-1.536202,-1.178245,1.345459,-0.382316,0.9239360000000001,-0.013231,0.018031000000000002,-0.054802,0.049158999999999994,-0.012886000000000002,0.0054009999999999996,0.009981
47,-1.53579,-1.1791690000000001,1.347034,-0.381457,0.9242889999999999,-0.013359000000000001,0.036206,-0.048466,0.047142,-0.013791,-0.001911,0.017799000000000002
48,-1.534359,-1.180161,1.3494979999999999,-0.380521,0.924668,-0.013871000000000001,0.051181,-0.034691,0.052570000000000006,-0.026965,-0.009522,0.012131999999999999
49,-1.532214,-1.181294,1.352328,-0.379444,0.925098,-0.014647,0.052262,-0.019828,0.064309,-0.031536,-0.010334000000000001,0.013625
50,-1.529971,-1.182778,1.354886,-0.378039,0.9256610000000001,-0.015441999999999999,0.04185,0.009226,0.084595,-0.035856,-0.009447,0.011551
51,-1.527706,-1.184626,1.356919,-0.376291,0.926358,-0.016225,0.033291,0.02515,0.10588,-0.043906,0.005954,0.004201
52,-1.5257399999999999,-1.186513,1.358395,-0.37451100000000004,0.927067,-0.016885,0.025924000000000003,0.036936000000000004,0.095131,-0.040727,0.002346,-0.008002
53,-1.522342,-1.188029,1.360971,-0.373046,0.9276340000000001,-0.018090000000000002,0.061284000000000005,0.050743,0.07506399999999999,-0.023759,0.0012289999999999998,-0.015052000000000001
54,-1.517328,-1.188928,1.365742,-0.37211700000000003,0.9279700000000001,-0.019915000000000002,0.103867,0.011255,0.056184000000000005,0.00316,0.007165,-0.020993
55,-1.512969,-1.1894959999999999,1.371029,-0.37149899999999997,0.928182,-0.021507,0.085539,-0.05039,0.036907,-0.006705,0.028452999999999996,-0.009575
56,-1.512545,-1.189965,1.373324,-0.371055,0.928356,-0.021639,0.020278,-0.100191,0.026900999999999998,-0.008675,0.023181999999999998,-0.003218
57,-1.513582,-1.190218,1.37415,-0.370843,0.92845,-0.021241,0.012949,-0.077761,0.018275,-0.002967,0.005251,0.015992
58,-1.512685,-1.1904709999999998,1.375841,-0.370589,0.928544,-0.02156,0.034617,-0.009637,0.012998,-0.008149,0.013763,0.015777
59,-1.510979,-1.19064,1.377334,-0.370396,0.9286059999999999,-0.022182,0.012361,0.020281,0.0096,-0.011104000000000001,0.026364999999999996,0.010448
60,-1.510411,-1.190882,1.3774950000000001,-0.370158,0.9286969999999999,-0.022379,0.002731,0.019228,0.014875,-0.019124000000000002,0.013915,0.000529
61,-1.510346,-1.191132,1.377675,-0.369925,0.928789,-0.022389,0.005802000000000001,-0.013789,0.010666,-0.028238,-0.0025039999999999997,0.002721
62,-1.50993,-1.19118,1.378494,-0.369872,0.9288069999999999,-0.022541,0.026092,-0.018087,0.0022670000000000004,-0.030839,-0.004155,0.002628
63,-1.508066,-1.191285,1.380809,-0.369732,0.928846,-0.023224,0.052945000000000006,-0.006573999999999999,0.012155,-0.032032,-0.002393,-0.001129
64,-1.505128,-1.191539,1.3839780000000002,-0.369427,0.92894,-0.024294999999999997,0.057198,0.000825,0.022857,-0.01157,0.000763,-0.000165
65,-1.502769,-1.191755,1.3866100000000001,-0.369169,0.9290200000000001,-0.025152,0.042256999999999996,-0.008676,0.014218999999999999,0.014844,0.005871,-0.0009400000000000001
66,-1.501851,-1.191755,1.3880299999999999,-0.369145,0.9290200000000001,-0.025491,0.019839,-0.022404,0.0033979999999999995,0.010045,0.015300999999999999,0.002863
67,-1.5019040000000001,-1.19174,1.3886120000000002,-0.369161,0.9290139999999999,-0.025473,0.0069689999999999995,-0.031968,0.008661,-0.007213,0.019701,0.009588
68,-1.501887,-1.191897,1.389165,-0.369015,0.9290719999999999,-0.025469,0.012347,-0.018155,0.012953999999999999,-0.004825,0.017171000000000002,0.0037560000000000002
69,-1.501018,-1.192086,1.390227,-0.368818,0.929142,-0.025776999999999998,0.022049000000000003,-0.001123,0.007659,-0.007495,0.013012000000000001,-0.006663
70,-1.499747,-1.192194,1.391643,-0.368684,0.929182,-0.026239,0.028729,-0.005425,0.0017530000000000002,-0.010772,0.011583,-0.012487999999999999
71,-1.49861,-1.192127,1.3932950000000002,-0.368716,0.929157,-0.026662,0.035044,-0.028866000000000003,-0.0024460000000000003,-0.017362,0.010143000000000001,-0.014155000000000001
72,-1.497714,-1.192121,1.395229,-0.368698,0.929155,-0.026993,0.037024,-0.054474,0.006147,-0.020173,0.0043619999999999996,-0.010116
73,-1.497077,-1.192307,1.397316,-0.368508,0.9292239999999999,-0.027216000000000004,0.036909,-0.06943099999999999,0.016847,-0.012519,0.001562,-0.000556
74,-1.496276,-1.192693,1.3996899999999999,-0.368129,0.929367,-0.027483999999999998,0.045396,-0.070564,0.026522000000000004,-0.012256999999999999,0.000519,-0.003125
75,-1.494895,-1.1931370000000001,1.402771,-0.36768,0.92953,-0.027961,0.056017,-0.07913200000000001,0.028744,-0.00671,0.004536,-0.000283
76,-1.493536,-1.193522,1.406131,-0.367285,0.9296719999999999,-0.028433,0.060203,-0.096195,0.029863,-0.002802,0.011382999999999999,-0.002542
77,-1.4921790000000001,-1.193978,1.409882,-0.366823,0.92984,-0.028898000000000004,0.07080399999999999,-0.11114600000000001,0.029956,-0.0017989999999999998,0.013702,-0.000933
78,-1.49027,-1.194425,1.414274,-0.366352,0.930005,-0.029564999999999998,0.08333600000000001,-0.10539100000000001,0.030989999999999997,-0.001385,0.018862999999999998,-0.006156
79,-1.48795,-1.194857,1.4189889999999998,-0.365883,0.930163,-0.030382,0.083374,-0.100052,0.027777999999999997,0.007026,0.024808,-0.010145999999999999
80,-1.485695,-1.195201,1.4235440000000001,-0.365494,0.9302889999999999,-0.031179000000000002,0.082336,-0.100022,0.021362,0.010178,0.0234,-0.009545999999999999
81,-1.4836719999999999,-1.195389,1.427846,-0.365255,0.930358,-0.031902999999999994,0.074907,-0.098901,0.013831,0.013326,0.021119,-0.008654
82,-1.482221,-1.1955040000000001,1.4315799999999999,-0.365101,0.9304,-0.032424,0.063171,-0.103104,0.009481,0.013005000000000001,0.018879,-0.004762
83,-1.481284,-1.1955770000000001,1.434857,-0.365003,0.930427,-0.032760000000000004,0.057837,-0.106269,0.0062439999999999996,0.00549,0.014884999999999999,-0.0010689999999999999
84,-1.480366,-1.195669,1.437949,-0.364885,0.9304610000000001,-0.033087,0.053636,-0.092401,0.005128,0.010164,0.007375,0.0020050000000000003
85,-1.4789709999999998,-1.195686,1.4410690000000002,-0.364823,0.930467,-0.033594,0.058029,-0.06577999999999999,0.004057,0.008561,0.007292,0.00355
86,-1.477027,-1.195733,1.4443549999999998,-0.364714,0.930484,-0.0343,0.058511,-0.052535000000000005,0.003244,0.010709999999999999,0.010327,-0.000796
87,-1.475775,-1.195717,1.447014,-0.364686,0.9304790000000001,-0.034758,0.042441,-0.068454,0.002084,0.009888,0.014224,0.002317
88,-1.476063,-1.1957200000000001,1.448408,-0.364693,0.93048,-0.034651999999999995,0.018908,-0.08222,0.0019379999999999998,0.007912,0.016434999999999998,0.007019
89,-1.476933,-1.195806,1.449236,-0.364645,0.9305110000000001,-0.034328,0.015721000000000002,-0.077952,0.002978,0.000769,0.013413,0.00526
90,-1.47738,-1.1959229999999998,1.4502469999999998,-0.364552,0.9305540000000001,-0.034154000000000004,0.018965,-0.06413200000000001,0.007256,-0.003032,0.009479000000000001,0.0016530000000000002
91,-1.477331,-1.196078,1.451663,-0.36440700000000004,0.9306110000000001,-0.034158999999999995,0.027489999999999997,-0.062049,0.011585999999999999,-0.003954999999999999,0.008919,0.002451
92,-1.476859,-1.19628,1.45353,-0.364205,0.930685,-0.034312999999999996,0.038159,-0.064208,0.009526999999999999,-0.0053479999999999995,0.012263,0.000302
93,-1.476128,-1.196402,1.455883,-0.364066,0.9307290000000001,-0.034569,0.045564999999999994,-0.080204,0.007462000000000001,-0.005959000000000001,0.014858000000000001,-0.000557
94,-1.475697,-1.196397,1.458312,-0.364056,0.9307270000000001,-0.034726,0.044681,-0.098858,0.002352,-0.007267,0.018827,-0.0036950000000000004
95,-1.4757870000000002,-1.196293,1.4605709999999998,-0.364154,0.93069,-0.034702,0.041437,-0.113739,-0.002993,-0.008343999999999999,0.015401,-0.004314
96,-1.476049,-1.196042,1.462806,-0.36439499999999997,0.9305979999999999,-0.034629,0.041466,-0.116896,-0.012603,-0.004104,0.015875,-0.00425
97,-1.4763389999999998,-1.1955930000000001,1.4650379999999998,-0.36482,0.930433,-0.034562999999999997,0.043633,-0.120057,-0.023266,0.002378,0.014466999999999999,-0.005919
98,-1.476896,-1.19487,1.467148,-0.36550900000000003,0.930168,-0.034422,0.041509,-0.131712,-0.037153,0.001678,0.014228999999999999,-0.003633
99,-1.478115,-1.193973,1.468987,-0.366381,0.9298379999999999,-0.034054,0.035026999999999996,-0.156165,-0.043576,0.003512,0.00992,-0.0028420000000000003
100,-1.480205,-1.193057,1.470352,-0.367299,0.929501,-0.033366,0.024276,-0.175298,-0.044695,-0.002848,0.007175,0.004832
101,-1.4827,-1.192201,1.471462,-0.368175,0.929185,-0.032519,0.025324,-0.175319,-0.040414,-0.003468,0.007232,0.005785
102,-1.484586,-1.191482,1.472935,-0.36890100000000003,0.928919,-0.031882,0.033063999999999996,-0.153606,-0.032523,-0.001338,0.007712,0.0036229999999999995
103,-1.485687,-1.19089,1.4747540000000001,-0.369483,0.9286989999999999,-0.031523,0.035265,-0.13233399999999998,-0.026125,0.006889,0.008801,0.001295
104,-1.4864469999999999,-1.190397,1.4766620000000001,-0.369963,0.928516,-0.03128,0.036341000000000005,-0.124902,-0.020786000000000002,0.010633,0.010112999999999999,0.0018149999999999998
105,-1.487442,-1.189974,1.478251,-0.370384,0.928359,-0.030945,0.027821,-0.12061500000000001,-0.019783000000000002,0.013267,0.015458000000000001,0.0026550000000000002
106,-1.488609,-1.189516,1.479334,-0.370843,0.9281889999999999,-0.030547,0.020463,-0.101393,-0.0252,0.016595,0.024738,0.003249
107,-1.489811,-1.188918,1.479909,-0.37143200000000004,0.927966,-0.030146,0.011015,-0.075759,-0.033845,0.018678999999999998,0.029523,0.00022400000000000002
108,-1.490453,-1.188187,1.480367,-0.372128,0.927694,-0.029962,0.011187,-0.043775,-0.040293999999999996,0.018673,0.036631,-0.001364
109,-1.491056,-1.187467,1.480412,-0.372812,0.927425,-0.029791,-0.0036630000000000005,-0.025608999999999996,-0.041489,0.016839,0.027974000000000002,5.2000000000000004e-05
110,-1.492415,-1.1867159999999999,1.479303,-0.373546,0.9271440000000001,-0.029338999999999997,-0.026014,-0.012752,-0.040594,0.015116999999999998,0.023006,-0.00023199999999999997
111,-1.494661,-1.1860190000000002,1.4770370000000002,-0.374256,0.926882,-0.028549,-0.049437,-0.00414,-0.042905,0.007037999999999999,0.017225,0.0037380000000000004
112,-1.497763,-1.1853360000000002,1.4735790000000002,-0.374974,0.926625,-0.027433999999999997,-0.06750199999999999,0.011903,-0.043051,0.006337,0.015742,-7.7e-05
113,-1.5010569999999999,-1.184717,1.46967,-0.375635,0.926392,-0.026239,-0.071769,0.017223,-0.037747,0.002817,0.012709999999999999,-0.0022489999999999997
114,-1.5042799999999998,-1.184252,1.465717,-0.376148,0.926217,-0.025057,-0.07497000000000001,0.024661000000000002,-0.030300999999999998,0.00043099999999999996,0.009299,-0.000654
115,-1.507549,-1.1838899999999999,1.46159,-0.37656300000000004,0.9260809999999999,-0.023847999999999998,-0.078175,0.028912,-0.024988,-0.002206,0.008276,-0.001725
116,-1.5108840000000001,-1.18356,1.457259,-0.376946,0.925956,-0.022611000000000003,-0.08029,0.036363,-0.021808,-0.002983,0.010399,0.00195
117,-1.513572,-1.183263,1.4534209999999999,-0.377281,0.925844,-0.021613,-0.067444,0.046967,-0.020663,0.0006940000000000001,0.015378999999999999,-0.000131
118,-1.515551,-1.182924,1.450145,-0.377637,0.925716,-0.020884,-0.059923000000000004,0.056537000000000004,-0.022759,0.001996,0.007770999999999999,-0.002752
119,-1.5174040000000002,-1.1826139999999998,1.446917,-0.377961,0.925599,-0.020199,-0.061024,0.05545,-0.016356,0.00022999999999999998,0.005767,-0.001941
120,-1.519526,-1.182379,1.443509,-0.37822100000000003,0.925509,-0.019408,-0.06533,0.048004000000000005,-0.015309,-0.006667,0.004926,-0.0034649999999999998
121,-1.521757,-1.182194,1.4400600000000001,-0.378434,0.9254399999999999,-0.018573,-0.065344,0.045869,-0.014237999999999999,-0.015975,0.007818,-0.003476
122,-1.524061,-1.181958,1.43661,-0.37869400000000003,0.92535,-0.017711,-0.062144000000000005,0.043736000000000004,-0.016349000000000002,-0.013487,0.008091,-0.00391
123,-1.525742,-1.181743,1.433906,-0.378922,0.925269,-0.017084000000000002,-0.045117000000000004,0.037272,-0.013016999999999999,-0.007797,0.006586,-0.00405
124,-1.5268329999999999,-1.181569,1.432061,-0.379102,0.9252020000000001,-0.016677,-0.033468,0.023361,-0.0075769999999999995,-0.009936,0.011428,0.00238
125,-1.528453,-1.181416,1.430022,-0.37927,0.9251450000000001,-0.016069,-0.045275,0.006362,-0.008706,-0.0078,0.012386,0.00757
126,-1.530719,-1.1812719999999999,1.427473,-0.37943899999999997,0.92509,-0.015215000000000001,-0.050614,0.006376,-0.007675,-0.000398,0.012440999999999999,0.003542
127,-1.532845,-1.181131,1.424847,-0.379601,0.9250360000000001,-0.014412999999999999,-0.049466,0.021299000000000002,-0.010891,-0.000236,0.012494,0.00274
128,-1.534799,-1.1809049999999999,1.42218,-0.379837,0.92495,-0.013678999999999998,-0.050499,0.026638,-0.013041,-0.004318,0.011726,0.003944
129,-1.536841,-1.180601,1.419462,-0.38014499999999996,0.9248350000000001,-0.012912999999999999,-0.050494,0.022397999999999998,-0.018377,-0.004789,0.00969,0.001225
130,-1.539088,-1.180213,1.4166590000000001,-0.38053200000000004,0.924687,-0.01207,-0.05159,0.012827000000000002,-0.021577000000000002,-0.008582,0.012981,-0.001281
131,-1.541469,-1.179824,1.413946,-0.380919,0.9245389999999999,-0.011175,-0.050566,0.002175,-0.022624000000000002,-0.0063490000000000005,0.011679,-0.001917
132,-1.543876,-1.179403,1.411405,-0.381335,0.924378,-0.010268000000000001,-0.047399000000000004,-0.006354,-0.02366,-0.005643,0.009748999999999999,-0.001344
133,-1.546414,-1.17896,1.408963,-0.381769,0.9242090000000001,-0.009309999999999999,-0.046385,-0.018076,-0.023637000000000002,-0.006063000000000001,0.009873,0.0008869999999999999
134,-1.549069,-1.178564,1.406549,-0.382159,0.924058,-0.008305,-0.045361,-0.023423,-0.019351,-0.004224,0.0083,-0.000134
135,-1.551693,-1.178283,1.4042780000000001,-0.382439,0.923951,-0.007306999999999999,-0.043285000000000004,-0.028787,-0.011852,-0.006111,0.009506,0.003187
136,-1.554324,-1.178134,1.402005,-0.38259499999999996,0.9238940000000001,-0.0063030000000000004,-0.04328,-0.022416,-0.006519,-0.005817,0.0106,0.004548
137,-1.556732,-1.1780329999999999,1.3997600000000001,-0.382703,0.923855,-0.005383,-0.041108,-0.012841,-0.005448,-0.005068,0.010014,0.002514
138,-1.558745,-1.1778950000000001,1.397751,-0.382841,0.923802,-0.004614,-0.037864999999999996,-0.005386,-0.007571,-0.001269,0.009822,0.00321
139,-1.560729,-1.177737,1.395732,-0.382996,0.923742,-0.003856,-0.039998,-0.00644,-0.008653000000000001,-0.0045320000000000004,0.009073999999999999,0.0052899999999999996
140,-1.562651,-1.177574,1.393656,-0.383153,0.9236790000000001,-0.003121,-0.038888,0.003144,-0.008657,-0.004069,0.008725,0.003365
141,-1.564303,-1.177459,1.391707,-0.383262,0.923635,-0.002489,-0.035673,0.009511,-0.005438,-0.007256,0.004359,0.0057079999999999995
142,-1.565677,-1.177409,1.38991,-0.383312,0.923616,-0.001962,-0.034592000000000005,0.015886,-0.002234,-0.007969,0.002684,0.002054
143,-1.56685,-1.177418,1.388227,-0.383305,0.9236200000000001,-0.001513,-0.031376999999999995,0.021193,-8.2e-05,-0.011196,0.003276,0.000185
144,-1.567871,-1.17739,1.38662,-0.383332,0.923609,-0.001121,-0.030281,0.02652,-0.001149,-0.014236000000000002,0.007176999999999999,-0.002388
145,-1.568604,-1.177391,1.3850790000000002,-0.383332,0.923609,-0.00084,-0.029162,0.039295,-9e-05,-0.014525,0.010366,-0.007673999999999999
146,-1.5696510000000001,-1.177394,1.383156,-0.38333,0.92361,-0.000439,-0.042003,0.03294,0.0019649999999999997,-0.010621,0.018666,-0.004917
147,-1.571353,-1.177419,1.380658,-0.383308,0.9236200000000001,0.000213,-0.050557,0.028707999999999997,0.001911,-0.005974,0.017146,-0.004745
148,-1.573452,-1.177358,1.377801,-0.383363,0.9235969999999999,0.001018,-0.056948,0.025556,-0.003471,-0.005019,0.013308,-0.0009720000000000001
149,-1.5758780000000001,-1.177162,1.374698,-0.38354099999999997,0.9235209999999999,0.0019489999999999998,-0.063354,0.018147,-0.009916,-0.004307,0.008715,-0.001003
150,-1.578509,-1.17693,1.371481,-0.38374899999999995,0.9234319999999999,0.00296,-0.058491999999999995,0.018518,-0.011309,-0.004954,0.013366,0.001297
151,-1.58066,-1.176657,1.368674,-0.383994,0.923327,0.003788,-0.053114,0.023843,-0.015552000000000002,-0.001413,0.011014,-0.0020629999999999997
152,-1.582481,-1.176252,1.36612,-0.38436,0.9231719999999999,0.004490999999999999,-0.047746,0.027037000000000002,-0.019791,0.001517,0.001526,-0.003057
153,-1.584847,-1.175783,1.363098,-0.384781,0.922991,0.005407,-0.069112,0.016475999999999998,-0.0242,-0.004379,0.004667,-0.00086
154,-1.587898,-1.175338,1.3594030000000001,-0.38517399999999996,0.9228200000000001,0.006587999999999999,-0.069117,0.019655000000000002,-0.019931,-0.005542,0.012437,0.001911
155,-1.590223,-1.175011,1.356374,-0.38545999999999997,0.922694,0.007489,-0.053114,0.025965,-0.013418000000000001,-0.006249,0.008748,-0.000302
156,-1.5919590000000001,-1.174863,1.3539139999999998,-0.385583,0.922637,0.008161,-0.046766,0.024835,-0.0026899999999999997,-0.003181,0.003907,0.0009019999999999999
157,-1.593728,-1.1749049999999999,1.351564,-0.385529,0.9226530000000001,0.008843,-0.043637,0.017332,0.005887,-0.00209,-1.4999999999999999e-05,0.006004
158,-1.595149,-1.175098,1.349681,-0.385339,0.9227280000000001,0.009386,-0.030887,0.012997,0.01346,-0.0020210000000000002,0.002581,0.010267
159,-1.596064,-1.1754120000000001,1.348493,-0.38504,0.922848,0.009731,-0.019195,0.008673,0.018888,-0.0028539999999999998,0.003711,0.011066
160,-1.596478,-1.17582,1.347874,-0.38465900000000003,0.923006,0.009881000000000001,-0.008555,0.006489,0.023237999999999998,-0.0043939999999999995,0.010740999999999999,0.007392
161,-1.596763,-1.176315,1.347474,-0.3842,0.9231959999999999,0.009979,-0.005383,0.0032689999999999998,0.026469,-0.007812999999999999,0.011298,0.005036
162,-1.596809,-1.176835,1.3473389999999998,-0.38371900000000003,0.9233959999999999,0.009984,0.002104,0.006443000000000001,0.025449,-0.0064329999999999995,0.013128,0.002803
163,-1.5963530000000001,-1.177295,1.34762,-0.3833,0.923572,0.009798000000000001,0.010687,0.011761,0.020161000000000002,-0.000367,0.019513,-0.005129
164,-1.595442,-1.177659,1.348322,-0.382972,0.9237120000000001,0.00944,0.014978,0.011767,0.01485,-0.00011499999999999999,0.019906999999999998,-0.004649
165,-1.594508,-1.1778,1.349068,-0.382851,0.923766,0.00908,0.013963999999999999,0.011818,0.003092,-0.001778,0.024492,-0.005097
166,-1.593913,-1.177767,1.349559,-0.382886,0.923753,0.008853,0.007562999999999999,0.0033520000000000004,-0.005488,0.0019199999999999998,0.021086,-0.00252
167,-1.593772,-1.177574,1.349672,-0.38306599999999996,0.9236790000000001,0.008803,-0.0009429999999999999,0.002346,-0.013022999999999998,0.0019320000000000001,0.015453999999999999,0.0010539999999999998
168,-1.593935,-1.1772280000000002,1.349446,-0.383383,0.9235469999999999,0.008873,-0.006254,0.002386,-0.018401,0.001532,0.013847,0.002236
169,-1.5943530000000001,-1.176896,1.3490389999999999,-0.383687,0.9234190000000001,0.009040000000000001,-0.009488,-0.005059,-0.018414,-0.000743,0.007794,0.0039759999999999995
170,-1.594863,-1.176566,1.348542,-0.38398699999999997,0.923292,0.009243000000000001,-0.010545,-0.0008029999999999999,-0.016291,-0.003144,0.00461,0.0024
171,-1.595367,-1.176309,1.347984,-0.38421900000000003,0.9231940000000001,0.009442,-0.010564,-0.00082,-0.012018000000000001,-0.0026829999999999996,0.002588,0.001971
172,-1.595964,-1.1761549999999998,1.347333,-0.384354,0.923135,0.009676,-0.011655,0.000223,-0.005618,-0.005233,0.0026620000000000003,0.001051
173,-1.596473,-1.176112,1.346759,-0.38439,0.923118,0.009872,-0.009531,0.00339,-0.000266,-0.007944,0.007409000000000001,0.00203
174,-1.596782,-1.176142,1.346278,-0.384357,0.9231299999999999,0.00999,-0.008454000000000001,0.0087,0.00294,-0.003704,0.011197,0.002461
175,-1.596852,-1.1762190000000001,1.345927,-0.384285,0.9231590000000001,0.010015000000000001,-0.006004,0.013887,0.005211,-0.00161,0.014249000000000001,-0.000662
176,-1.59694,-1.176311,1.345604,-0.3842,0.9231950000000001,0.010047,-0.006033,0.008556999999999999,0.006286,-9.300000000000001e-05,0.013831999999999999,0.001413
177,-1.596999,-1.176411,1.345356,-0.38410700000000003,0.923233,0.010067,-0.002822,0.008554,0.0041719999999999995,0.001417,0.011368000000000001,0.001042
178,-1.5969200000000001,-1.176483,1.345217,-0.38404099999999997,0.9232610000000001,0.010034999999999999,-0.001732,0.011755,0.002039,0.003136,0.011386,0.001302
179,-1.596786,-1.176516,1.3450799999999998,-0.384013,0.923273,0.009983,-0.004913,0.013905,-0.000123,0.0045579999999999996,0.014929,0.0015220000000000001
180,-1.597004,-1.176541,1.3444989999999999,-0.38398899999999997,0.923283,0.010066,-0.014509999999999999,0.016065,0.0008759999999999999,0.008256,0.011852,0.003163
181,-1.5975469999999998,-1.176555,1.343401,-0.383969,0.9232879999999999,0.010274,-0.022992,0.027813,0.000801,0.006741,0.010687,0.002513
182,-1.597944,-1.176579,1.342242,-0.383942,0.923298,0.010426000000000001,-0.020834000000000002,0.035253,0.002943,0.004929,0.009457,0.0035670000000000003
183,-1.598215,-1.176649,1.341297,-0.383875,0.923324,0.010528000000000001,-0.015534000000000001,0.026717,0.001923,-0.00234,0.011368000000000001,-0.0027
184,-1.598457,-1.1767040000000002,1.340552,-0.383822,0.9233450000000001,0.010620000000000001,-0.013419,0.021387,0.000877,-0.006024,0.011011,-0.001281
185,-1.598832,-1.176707,1.339621,-0.383815,0.9233459999999999,0.010763,-0.018725,0.026737,-0.000236,-0.00533,0.009285999999999999,0.0012
186,-1.599306,-1.1766889999999999,1.338447,-0.383825,0.9233399999999999,0.010946,-0.024025,0.033151,-0.001349,-0.005167000000000001,0.015778,-0.000814
187,-1.59998,-1.176592,1.336956,-0.38390799999999997,0.9233020000000001,0.011207,-0.029325999999999998,0.036383,-0.0056630000000000005,-0.003421,0.015844999999999998,6.9e-05
188,-1.600584,-1.176388,1.335518,-0.384089,0.9232239999999999,0.011445,-0.027173000000000003,0.03427,-0.012055,-0.002141,0.012887000000000001,-0.001725
189,-1.601418,-1.17605,1.333952,-0.384391,0.9230940000000001,0.011774,-0.032512,0.026858,-0.018491999999999998,-0.006051,0.013719,-0.006968000000000001
190,-1.6026209999999999,-1.1756209999999998,1.332124,-0.384773,0.9229290000000001,0.012249,-0.036775,0.024755000000000003,-0.021724,-0.009682,0.015119999999999998,-0.0057799999999999995
191,-1.603809,-1.1751459999999998,1.330247,-0.38519699999999996,0.922746,0.012721,-0.038885,0.027967000000000002,-0.023879,-0.008419,0.014037,-0.00825
192,-1.605241,-1.174595,1.328177,-0.38568600000000003,0.922534,0.01329,-0.043167000000000004,0.021603,-0.027105,-0.007640000000000001,0.009595000000000001,-0.005111
193,-1.6069440000000002,-1.174005,1.325925,-0.386207,0.922306,0.013966999999999999,-0.045324,0.016284,-0.027112999999999998,-0.007240000000000001,0.008847,-0.003163
194,-1.6084049999999999,-1.173459,1.323948,-0.38669000000000003,0.9220950000000001,0.01455,-0.035723000000000005,0.018372,-0.024913,-0.003996,0.010445999999999999,-0.0021899999999999997
195,-1.609715,-1.1729690000000002,1.3221829999999999,-0.387121,0.921905,0.015074,-0.036823,0.014102000000000002,-0.02171,0.001288,0.004136,0.001024
196,-1.611258,-1.172592,1.320166,-0.387446,0.921759,0.015685,-0.042172,0.017291,-0.015341999999999998,0.000239,0.006922,0.0016179999999999999
197,-1.612629,-1.172289,1.318162,-0.387704,0.9216409999999999,0.016228,-0.037870999999999995,0.027916000000000003,-0.012121,-0.000495,0.009725,0.001213
198,-1.613635,-1.172015,1.316329,-0.38794,0.921535,0.016628999999999998,-0.034105,0.036338,-0.011931,-0.000152,0.011266,-0.001737
199,-1.614317,-1.1718,1.3147389999999999,-0.388125,0.921451,0.016902,-0.029827999999999997,0.039514999999999995,-0.010836,-0.00010400000000000001,0.010570999999999999,-0.00088
200,-1.614919,-1.171573,1.313321,-0.388324,0.9213629999999999,0.017145,-0.027726999999999998,0.032050999999999996,-0.010812,-0.0016600000000000002,0.012841,-0.00596
201,-1.615683,-1.17135,1.311866,-0.388516,0.921277,0.017450999999999998,-0.02988,0.027797000000000002,-0.010822,-0.002078,0.014591,-0.006998999999999999
202,-1.616562,-1.171154,1.31029,-0.388681,0.9212,0.017800999999999997,-0.032024000000000004,0.027795999999999998,-0.0087,-0.002676,0.012104,-0.00686
203,-1.617579,-1.171,1.308627,-0.388804,0.92114,0.018203,-0.033119,0.024591,-0.005499,-0.002141,0.008851999999999999,-0.004195
204,-1.618575,-1.170883,1.307004,-0.388893,0.9210950000000001,0.018595,-0.032057,0.024583,-0.004424,-0.001823,0.012010999999999999,-0.006021
205,-1.619356,-1.1708,1.305511,-0.38895599999999997,0.921062,0.018903,-0.029899000000000002,0.032024000000000004,-0.002282,-2.1e-05,0.013156999999999999,-0.004224
206,-1.61995,-1.170787,1.304084,-0.38895599999999997,0.921057,0.019134,-0.027989,0.036124,0.002175,0.003092,0.012582,-0.003372
207,-1.620564,-1.170782,1.3026149999999999,-0.388949,0.921056,0.019372999999999998,-0.030117,0.036136,0.001092,0.006976,0.014232,-0.001795
208,-1.621147,-1.170771,1.301201,-0.388947,0.9210510000000001,0.0196,-0.027984,0.034006,-0.001027,0.0014199999999999998,0.012314,-0.001046
209,-1.621717,-1.170719,1.299811,-0.388984,0.9210309999999999,0.019825,-0.025831,0.037199,-0.002084,-0.00019099999999999998,0.01061,-0.002414
210,-1.621968,-1.170742,1.2986739999999999,-0.38895799999999997,0.92104,0.019921,-0.019438999999999998,0.040351,0.003297,-0.001072,0.011669,-0.003365
211,-1.621834,-1.170847,1.2979180000000001,-0.388864,0.9210809999999999,0.019864,-0.014115,0.040324,0.005471,-0.002539,0.010468,-0.002316
212,-1.621847,-1.171019,1.2970700000000002,-0.388706,0.921148,0.019861,-0.017339,0.039252999999999996,0.009723,-0.0028350000000000003,0.01208,-0.0037479999999999996
213,-1.621851,-1.171208,1.296166,-0.38853200000000004,0.921221,0.019854,-0.016253,0.042449,0.008657999999999999,-0.000872,0.011533,-0.003191
214,-1.621705,-1.171384,1.295419,-0.388373,0.9212899999999999,0.019788999999999998,-0.013453,0.041125999999999996,0.008777,0.001716,0.012121,-0.002287
215,-1.621583,-1.171486,1.294649,-0.388282,0.9213290000000001,0.019736,-0.015571999999999999,0.041145999999999995,0.005557,0.0041719999999999995,0.011944,0.002313
216,-1.621478,-1.1715389999999999,1.293914,-0.388236,0.92135,0.019693000000000002,-0.013429,0.040086000000000004,0.002369,8.3e-05,0.011984999999999999,0.00379
217,-1.6212030000000002,-1.17156,1.293269,-0.388221,0.921358,0.019584999999999998,-0.0102,0.044344999999999996,0.00024900000000000004,-0.000298,0.009656999999999999,0.0055
218,-1.620672,-1.1715440000000001,1.292846,-0.388246,0.9213520000000001,0.01938,-0.005918,0.046464,-0.000792,-0.0015710000000000001,0.008641,0.005507
219,-1.619966,-1.171574,1.292605,-0.388232,0.921364,0.019105,-0.005937,0.045386,0.002414,-0.005094,0.007744,0.004592000000000001
220,-1.619494,-1.171659,1.2921639999999999,-0.38816300000000004,0.9213969999999999,0.018917,-0.008085,0.043259,0.0034700000000000004,-0.005834000000000001,0.0074670000000000005,0.004139
221,-1.618899,-1.171798,1.291817,-0.388046,0.92145,0.018680000000000002,-0.005951,0.047496,0.007753,-0.004471,0.007352,0.0047420000000000006
222,-1.61799,-1.1720270000000002,1.2918180000000001,-0.387853,0.921539,0.018318,0.005399,0.044841000000000006,0.011163,-0.008128,0.005768,0.0032890000000000003
223,-1.6167340000000001,-1.172353,1.292308,-0.387575,0.921666,0.017817,0.014939,0.038386,0.018715,-0.006895999999999999,0.006297,0.001974
224,-1.615341,-1.172735,1.2930700000000002,-0.38724699999999995,0.9218139999999999,0.017261000000000002,0.015977,0.033052,0.019798,-0.005148,0.007125,0.000546
225,-1.614085,-1.173119,1.293735,-0.386915,0.9219629999999999,0.016759,0.013843000000000001,0.031998,0.018716,-0.0057090000000000005,0.008747,0.002711
226,-1.612901,-1.173492,1.2943049999999998,-0.38659099999999996,0.922107,0.016287,0.010642,0.03307,0.01976,-0.005438,0.01025,0.00236
227,-1.61179,-1.173865,1.294773,-0.386265,0.9222520000000001,0.015843,0.009585,0.034143,0.018683,-0.002224,0.010884,0.002727
228,-1.610519,-1.1742059999999999,1.295448,-0.385971,0.922383,0.015340000000000001,0.017048,0.030930000000000003,0.016603,0.00058,0.010539,0.004573
229,-1.609143,-1.174489,1.296319,-0.385731,0.922493,0.014799000000000001,0.017053,0.02669,0.011267000000000001,-0.000545,0.010979000000000001,0.0034969999999999997
230,-1.6078729999999999,-1.17467,1.297146,-0.38558200000000004,0.9225629999999999,0.014302,0.015809,0.025072999999999998,0.007279000000000001,-0.0044020000000000005,0.011489,0.003856
231,-1.6066129999999998,-1.1748120000000002,1.297931,-0.38547,0.922617,0.013812,0.015833,0.028276999999999997,0.005138,-0.004285,0.014456,0.0034909999999999997
232,-1.6051819999999999,-1.174885,1.298718,-0.385421,0.922645,0.013258,0.0159,0.038947,0.000852,-0.006226,0.010994,0.00435
233,-1.603397,-1.1748610000000002,1.299754,-0.385466,0.922636,0.012570999999999999,0.022338999999999998,0.044264,-0.002314,-0.0049299999999999995,0.01169,0.0041530000000000004
234,-1.6013540000000002,-1.17478,1.300985,-0.38556599999999996,0.9226049999999999,0.011786,0.026626,0.046388,-0.004424,-0.0017469999999999999,0.013430000000000001,-0.001333
235,-1.599045,-1.174666,1.3023879999999999,-0.385698,0.9225610000000001,0.010898,0.025606999999999998,0.054922000000000006,-0.0065780000000000005,0.003175,0.013444,0.003475
236,-1.596689,-1.174561,1.303749,-0.385818,0.9225209999999999,0.009992000000000001,0.025606999999999998,0.054922000000000006,-0.0065780000000000005,0.005065999999999999,0.014583,0.001467
237,-1.594631,-1.17442,1.304727,-0.385969,0.922466,0.009201,0.016034,0.058164,-0.009854,0.007352,0.018727,0.001999
238,-1.593118,-1.174186,1.305303,-0.386198,0.922376,0.008622,0.007326000000000001,0.044732,-0.016028999999999998,0.012312,0.021731,0.0019370000000000001
239,-1.5926120000000001,-1.173756,1.305177,-0.386598,0.9222100000000001,0.008435,-0.006601,0.022449,-0.025712,0.014100999999999999,0.024797,0.005588
240,-1.592867,-1.1731530000000001,1.304685,-0.387152,0.921976,0.008546,-0.010897,0.005462,-0.036402,0.012426000000000001,0.020406,0.01184
241,-1.593366,-1.172352,1.303993,-0.387887,0.921666,0.008756,-0.015112,0.009768,-0.043914999999999996,0.015008,0.019268,0.01549
242,-1.593979,-1.171465,1.3030620000000002,-0.388698,0.921321,0.009013,-0.020427,0.012987,-0.045024,0.014293,0.018407,0.013996999999999999
243,-1.594911,-1.170666,1.301887,-0.389425,0.92101,0.009393,-0.025833,0.00020899999999999998,-0.041841,0.016881999999999998,0.010920000000000001,0.0015480000000000001
244,-1.5970799999999998,-1.169933,1.299854,-0.390079,0.920725,0.010255,-0.046228,-0.022112,-0.036614,0.009906,0.013266,0.003692
245,-1.599977,-1.169255,1.297159,-0.390671,0.9204600000000001,0.011403,-0.054763,-0.016777,-0.031339,0.009659000000000001,0.013943,0.005504
246,-1.6027360000000002,-1.168727,1.294348,-0.39112399999999997,0.9202530000000001,0.012497,-0.054920000000000004,-0.0006190000000000001,-0.026929,0.008037,0.00565,0.014008000000000001
247,-1.6048209999999998,-1.168233,1.2917379999999998,-0.39155100000000004,0.92006,0.013328,-0.048402999999999995,0.027047,-0.024783000000000003,0.011912,0.008621,0.018472
248,-1.60601,-1.167761,1.289696,-0.39197,0.919875,0.013809,-0.038768000000000004,0.03447,-0.024725,0.012331,0.01317,0.016907
249,-1.607242,-1.167318,1.287758,-0.392359,0.919701,0.014306000000000001,-0.037764,0.023801,-0.021499,0.009134999999999999,0.00785,0.01757
250,-1.608534,-1.167019,1.285876,-0.392615,0.919583,0.014823,-0.034606,0.023752000000000002,-0.011863,0.009970999999999999,0.0076170000000000005,0.022149000000000002
251,-1.6094760000000001,-1.166935,1.284235,-0.392678,0.91955,0.015196000000000001,-0.027148000000000002,0.033266000000000004,-7.3e-05,0.007867,0.008779,0.020387
252,-1.610057,-1.1670530000000001,1.282792,-0.39255999999999996,0.9195969999999999,0.01542,-0.026086,0.040685,0.008471,0.007749,0.008931,0.015525
253,-1.610544,-1.167377,1.281307,-0.392255,0.919724,0.015599000000000002,-0.023966,0.047031,0.018091,0.006254,0.013671,0.013544999999999998
254,-1.610895,-1.167753,1.279924,-0.391904,0.9198719999999999,0.015722999999999997,-0.026525999999999997,0.045989,0.020253,0.004346,0.016438,0.012704
255,-1.6116540000000001,-1.168087,1.278292,-0.391585,0.920003,0.016008,-0.029751,0.033246,0.012768999999999999,0.003432,0.015544,0.013152
256,-1.612539,-1.168279,1.276767,-0.391394,0.9200780000000001,0.016347,-0.025507,0.0226,0.0074719999999999995,-0.003732,0.015744,0.011164
257,-1.613024,-1.168287,1.275783,-0.391379,0.9200809999999999,0.016537,-0.016915,0.024744,-0.003153,-0.0038689999999999996,0.014672999999999999,0.011387000000000001
258,-1.613005,-1.1681219999999999,1.275312,-0.391531,0.920016,0.016536000000000002,-0.006246,0.016218,-0.011614,-0.006403,0.010648000000000001,0.013738
259,-1.613077,-1.167834,1.275177,-0.39179400000000003,0.919904,0.016575,0.002236,-0.0008349999999999999,-0.016874,-0.007451999999999999,0.0049770000000000005,0.01379
260,-1.612395,-1.167432,1.2759639999999999,-0.392175,0.919746,0.016324,0.023602,-0.003006,-0.025266999999999998,-0.006964,0.008919,0.006731999999999999
261,-1.610875,-1.1668120000000002,1.277884,-0.39277,0.919502,0.01575,0.04492,-0.020073,-0.037915,-0.010917,0.012703,0.0009279999999999999
262,-1.609502,-1.165975,1.280406,-0.39355999999999997,0.9191729999999999,0.01524,0.049337,-0.063731,-0.047576,-0.012919,0.017107,0.000552
263,-1.608846,-1.1649200000000002,1.283072,-0.394538,0.9187569999999999,0.015019,0.053475,-0.10524000000000001,-0.060313,-0.013069999999999998,0.013418000000000001,0.004939
264,-1.608722,-1.163561,1.2861040000000001,-0.395787,0.918219,0.015018,0.059746,-0.14994000000000002,-0.076235,-0.012675,0.010537999999999999,0.005078
265,-1.609222,-1.161889,1.289326,-0.397313,0.9175559999999999,0.015274000000000001,0.06071699999999999,-0.186103,-0.091137,-0.022135,0.009323999999999999,0.018249
266,-1.610396,-1.159908,1.29262,-0.39910999999999996,0.916767,0.015813,0.063827,-0.22333000000000003,-0.10815899999999999,-0.022307,0.010662999999999999,0.018977
267,-1.6120290000000002,-1.157369,1.296229,-0.401409,0.9157489999999999,0.016561000000000003,0.068104,-0.259411,-0.146539,-0.023518,0.031318,0.012278
268,-1.615499,-1.153686,1.29934,-0.404715,0.9142629999999999,0.018104,0.044667,-0.329325,-0.224593,-0.015663999999999997,0.06150599999999999,-0.008079000000000001
269,-1.620706,-1.148385,1.301772,-0.409451,0.9121030000000001,0.020452,0.037146,-0.402555,-0.286509,-0.002247,0.053672000000000004,-0.007315
270,-1.628005,-1.142177,1.304263,-0.41493599999999997,0.90954,0.023763999999999997,0.033557,-0.526031,-0.325965,0.027806,0.023962,-0.013494999999999998
271,-1.637122,-1.135484,1.307159,-0.420766,0.9067379999999999,0.027949,0.043942,-0.610139,-0.347149,0.00913,-0.008041,-0.028513
272,-1.6454900000000001,-1.128587,1.31114,-0.42674300000000004,0.903809,0.031934,0.072901,-0.580395,-0.351258,-0.005721,-0.007384999999999999,-0.017194
273,-1.6510189999999998,-1.122204,1.3170389999999998,-0.432303,0.901059,0.034755,0.119968,-0.524215,-0.32215900000000003,-0.012186,-0.021618000000000002,-0.000697
274,-1.653184,-1.116433,1.325797,-0.43740200000000007,0.898541,0.036118,0.196796,-0.495824,-0.296022,-0.0038369999999999997,-0.022930000000000002,-0.004716
275,-1.652477,-1.111299,1.337899,-0.44201899999999994,0.8962760000000001,0.036185,0.263788,-0.5270239999999999,-0.277354,0.00252,-0.013066,-0.012015000000000001
276,-1.651185,-1.106415,1.352008,-0.44642299999999996,0.894099,0.035965,0.305041,-0.594328,-0.265229,0.001218,-0.009562000000000001,-0.013306
277,-1.650006,-1.1017620000000001,1.367507,-0.450608,0.8920049999999999,0.035767,0.346337,-0.654166,-0.25525,0.00412,-0.014533,-0.010667
278,-1.647564,-1.097628,1.385158,-0.454366,0.8901290000000001,0.034949,0.406085,-0.666042,-0.225688,0.001592,-0.026726,-0.0064150000000000006
279,-1.64375,-1.094334,1.4045239999999999,-0.45741800000000005,0.8886229999999999,0.03343,0.435722,-0.6748430000000001,-0.181673,-0.025293,-0.033581,-0.025236
280,-1.640769,-1.091961,1.423529,-0.45961899999999994,0.887532,0.032213,0.417202,-0.710134,-0.131551,-0.027793,-0.03568,-0.022753
281,-1.639935,-1.0903040000000002,1.440984,-0.461111,0.886768,0.031931,0.38276,-0.745296,-0.0997,-0.031061000000000002,-0.034274,-0.023768
282,-1.641043,-1.089267,1.457036,-0.46199399999999996,0.886287,0.032507,0.356844,-0.778375,-0.063519,-0.039593,-0.023219999999999998,-0.005209
283,-1.643188,-1.088883,1.4721739999999999,-0.462261,0.8861100000000001,0.033522,0.343907,-0.775266,-0.030498,-0.035435,-0.005693,0.008256
284,-1.6450490000000002,-1.089089,1.487016,-0.462016,0.8862049999999999,0.034369,0.34396,-0.734901,-0.0017079999999999999,-0.024068,0.005289,0.022333000000000002
285,-1.646189,-1.0896059999999999,1.5014459999999998,-0.46152,0.886445,0.034861,0.322872,-0.673067,0.004475,-0.005323,0.034651999999999995,0.040075
286,-1.647518,-1.090067,1.51414,-0.46106499999999995,0.886658,0.035443,0.277328,-0.601525,0.001929,0.018499,0.051224,0.056720000000000007
287,-1.6483459999999999,-1.090516,1.525388,-0.460638,0.8868659999999999,0.035794,0.252164,-0.503432,0.001628,0.035482,0.062628,0.057346
288,-1.648822,-1.090722,1.535173,-0.46043900000000004,0.8869610000000001,0.035999,0.207735,-0.43291199999999996,-0.01266,0.03655,0.059786,0.056088
289,-1.650354,-1.0904479999999999,1.542333,-0.46062600000000004,0.886834,0.036724,0.138782,-0.36866,-0.036725,0.027520999999999997,0.046165,0.057484
290,-1.6535060000000001,-1.089417,1.546371,-0.46141899999999997,0.886357,0.038251,0.064499,-0.316056,-0.07363099999999999,0.002114,0.024623,0.049991
291,-1.6577540000000002,-1.087758,1.548051,-0.462717,0.8855879999999999,0.040339,0.022146000000000002,-0.267877,-0.09748899999999999,-0.004141,0.007723000000000001,0.02854
292,-1.661534,-1.085701,1.5492110000000001,-0.46437399999999995,0.8846299999999999,0.042252,0.024567,-0.223066,-0.11675799999999999,-0.025601,0.007978,0.008544
293,-1.663517,-1.0833700000000002,1.551762,-0.46634200000000003,0.883541,0.043364,0.072729,-0.202939,-0.130334,-0.030393,0.012669,-0.010298
294,-1.6627009999999998,-1.0807,1.556949,-0.468724,0.882288,0.0432,0.13163699999999998,-0.177475,-0.155592,-0.020122,0.017508000000000003,-0.019014
295,-1.659819,-1.0777299999999999,1.564185,-0.471455,0.880885,0.042081,0.171173,-0.17331400000000002,-0.164936,-0.006267,0.009816,-0.015974000000000002
296,-1.656323,-1.0749360000000001,1.5722129999999999,-0.47405,0.87956,0.040643,0.178541,-0.176612,-0.145652,0.013677000000000002,-0.018155,-0.006189
297,-1.6528610000000001,-1.072708,1.579764,-0.47613900000000003,0.878497,0.039162,0.162528,-0.143674,-0.110555,0.026371,-0.028689999999999997,0.009468
298,-1.648926,-1.071249,1.586711,-0.477567,0.877799,0.037388,0.15726099999999998,-0.08948400000000001,-0.071137,0.015622,-0.008598,0.004177
299,-1.644365,-1.0705,1.593258,-0.47838800000000004,0.877441,0.035258,0.144506,-0.043774,-0.036032999999999996,0.009653,0.005006,-0.001261
300,-1.640508,-1.070489,1.597939,-0.478529,0.8774350000000001,0.033413,0.086992,0.008376999999999999,0.005229,0.007735,0.024817,-0.011975
301,-1.638332,-1.070919,1.599509,-0.478225,0.877641,0.032346,0.015656,0.057561,0.021759999999999998,0.011184,0.046507,-0.029202999999999996
302,-1.637585,-1.071094,1.5987930000000001,-0.478096,0.877725,0.031979,-0.031127999999999996,0.07059800000000001,-0.001016,0.0064010000000000004,0.044379,-0.028897000000000003
303,-1.6377760000000001,-1.070534,1.597049,-0.47858,0.8774569999999999,0.032103,-0.044848,0.064412,-0.040629000000000005,-0.008771,0.028014999999999998,-0.029845
304,-1.637821,-1.0695430000000001,1.595603,-0.479446,0.8769809999999999,0.032182999999999996,-0.036299,0.056968,-0.051241999999999996,-0.023118,0.026385000000000002,-0.029222
305,-1.6375549999999999,-1.068718,1.594487,-0.48017600000000005,0.876584,0.032104,-0.026712,0.07177599999999999,-0.033034,-0.021516999999999998,0.029757,-0.029143000000000002
306,-1.636348,-1.068475,1.593352,-0.48042799999999997,0.876467,0.031538,-0.037256,0.133462,0.000997,-0.008555,0.034299,-0.036162
307,-1.63496,-1.068885,1.590857,-0.480112,0.8766649999999999,0.030848,-0.07764299999999999,0.203766,0.036944,0.016031,0.045866000000000004,-0.031458
308,-1.634002,-1.06984,1.586417,-0.47930600000000007,0.877124,0.030335,-0.120179,0.263455,0.065412,0.022305000000000002,0.046002,-0.025193
309,-1.6331799999999999,-1.0711870000000001,1.580673,-0.47815,0.87777,0.029868000000000002,-0.14352,0.308214,0.081215,0.033143,0.029914,-0.020209
310,-1.632039,-1.072578,1.57444,-0.476965,0.8784350000000001,0.029247000000000002,-0.150806,0.339171,0.071511,0.020269,0.009701999999999999,-0.022243000000000002
311,-1.630935,-1.073648,1.567791,-0.476059,0.8789459999999999,0.028664,-0.157102,0.348837,0.05756699999999999,0.010193,0.000723,-0.022362
312,-1.629591,-1.07464,1.5612270000000001,-0.475225,0.8794190000000001,0.027973,-0.151705,0.359483,0.054387,-0.011423,-0.008539,-0.036716000000000006
313,-1.627882,-1.075709,1.554837,-0.47433400000000003,0.879927,0.027107,-0.153801,0.372257,0.058628999999999994,-0.028245,-0.001082,-0.047583999999999994
314,-1.626417,-1.076978,1.547693,-0.473258,0.8805290000000001,0.02635,-0.17831,0.397832,0.077653,-0.020013,0.003153,-0.048246
315,-1.625584,-1.078529,1.539142,-0.471915,0.8812639999999999,0.025881,-0.214525,0.42771800000000004,0.094453,0.008962999999999999,0.019798,-0.026338999999999998
316,-1.625812,-1.080164,1.5288899999999999,-0.47047,0.882035,0.025908999999999998,-0.251798,0.442763,0.094173,0.016978999999999998,0.025222,-0.019424
317,-1.6272229999999999,-1.081528,1.5171860000000001,-0.46923100000000006,0.882677,0.026505,-0.28479899999999997,0.444003,0.078986,0.021676,0.0296,-0.015961000000000003
318,-1.6293950000000001,-1.082452,1.5045819999999999,-0.468359,0.8831110000000001,0.027476,-0.307112,0.446284,0.06066799999999999,0.021459,0.005912,-0.006038
319,-1.631872,-1.0831309999999998,1.491473,-0.46769099999999997,0.8834290000000001,0.0286,-0.303821,0.454842,0.048929,0.010385,-0.004079999999999999,-0.008718
320,-1.634019,-1.083748,1.478893,-0.467084,0.883718,0.02957,-0.290009,0.44413199999999997,0.051176,-0.002414,-0.006215999999999999,-0.012938
321,-1.636423,-1.084708,1.466084,-0.46616499999999994,0.884167,0.030637,-0.307155,0.449429,0.073482,-0.03565,-0.001675,-0.023679
322,-1.6397830000000002,-1.086085,1.451901,-0.464845,0.8848090000000001,0.032119,-0.337071,0.46434899999999996,0.09782300000000001,-0.041227999999999994,-0.001738,-0.030197
323,-1.644018,-1.087768,1.436642,-0.46321899999999994,0.885592,0.033977999999999994,-0.352093,0.457959,0.110545,-0.047981,0.0026829999999999996,-0.038205
324,-1.6490189999999998,-1.089417,1.4213200000000001,-0.46158599999999994,0.886357,0.036180000000000004,-0.345927,0.404677,0.109588,-0.053489,-0.00533,-0.022646
325,-1.6544299999999998,-1.091016,1.406765,-0.459971,0.8870959999999999,0.038558999999999996,-0.321581,0.36304200000000003,0.11087999999999999,-0.050512,-0.005932,0.005340999999999999
326,-1.659185,-1.0927440000000002,1.392954,-0.458254,0.887893,0.04061,-0.303377,0.38638,0.119523,-0.05196900000000001,-0.0075060000000000005,0.005273
327,-1.662407,-1.0947440000000002,1.379988,-0.45635200000000004,0.888811,0.041924,-0.28621599999999997,0.42672,0.13988699999999998,-0.038521,-0.011797,-0.0062640000000000005
328,-1.6646020000000001,-1.097099,1.3677620000000001,-0.45417299999999994,0.8898879999999999,0.042729,-0.259583,0.42871400000000004,0.150753,-0.033375999999999996,-0.001857,-0.012425
329,-1.666626,-1.099534,1.356256,-0.451927,0.8909959999999999,0.043441,-0.2469,0.398855,0.147675,-0.037482999999999995,0.002895,-0.019363
330,-1.6694799999999999,-1.101826,1.344433,-0.44976800000000006,0.892034,0.044529,-0.263004,0.378662,0.149725,-0.032425,0.009272,-0.025776
331,-1.6732650000000002,-1.104161,1.3317,-0.44752299999999995,0.8930870000000001,0.046018,-0.277906,0.380866,0.144277,-0.029467,0.011927,-0.027372000000000004
332,-1.6770349999999998,-1.106207,1.318964,-0.445528,0.894006,0.047511000000000005,-0.26824699999999996,0.375579,0.126191,-0.027159,0.01995,-0.027079000000000002
333,-1.6795529999999999,-1.107812,1.307924,-0.44398000000000004,0.894724,0.048477,-0.214827,0.36379,0.097738,-0.029393,0.013129,-0.014053
334,-1.6792150000000001,-1.1089579999999999,1.300124,-0.44297700000000007,0.895235,0.048216,-0.141065,0.366848,0.068339,-0.027177,-0.004427,-0.001326
335,-1.6757119999999999,-1.109849,1.29579,-0.44235,0.895631,0.04658,-0.065241,0.368773,0.053911,-0.030215,-0.028383,0.0023239999999999997
336,-1.669482,-1.110898,1.294655,-0.441696,0.8960969999999999,0.043731,0.002932,0.352526,0.061885,-0.039108,-0.05826799999999999,0.003998
337,-1.660956,-1.112625,1.296608,-0.44051,0.896863,0.039824,0.079483,0.329742,0.09876900000000001,-0.044597000000000005,-0.082196,0.004518
338,-1.6496959999999998,-1.115256,1.302203,-0.438576,0.8980229999999999,0.034676,0.167711,0.297317,0.138951,-0.046638,-0.084486,0.0053939999999999995
339,-1.636111,-1.118624,1.311505,-0.435986,0.8995,0.028517,0.24415599999999998,0.24366999999999997,0.16839500000000002,-0.056094000000000005,-0.07279400000000001,0.0047469999999999995
340,-1.619926,-1.1227690000000001,1.324207,-0.432663,0.9013030000000001,0.021274,0.313267,0.238975,0.216954,-0.052674,-0.044706,-0.005725
341,-1.60133,-1.128025,1.3394,-0.428242,0.903568,0.013080000000000001,0.35036799999999996,0.247119,0.27915999999999996,-0.031978,-0.001102,-0.015231
342,-1.581818,-1.134249,1.355758,-0.422784,0.906217,0.00466,0.35751,0.22346100000000002,0.328378,-0.0018219999999999998,0.029437,-0.032385000000000004
343,-1.5634430000000001,-1.140885,1.371977,-0.416775,0.9090030000000001,-0.003065,0.331531,0.159558,0.347507,0.035427,0.051904,-0.035387
344,-1.547397,-1.147619,1.386837,-0.41054300000000005,0.911789,-0.009608,0.286536,0.111804,0.340844,0.033788,0.057830999999999994,-0.024862000000000002
345,-1.5328549999999999,-1.15381,1.400196,-0.404711,0.914314,-0.015363,0.250479,0.130159,0.310659,0.042391000000000005,0.06691799999999999,-0.008898999999999999
346,-1.518839,-1.1592149999999999,1.41209,-0.399516,0.9164889999999999,-0.020777,0.20925900000000003,0.167785,0.261184,0.063304,0.080505,0.007090000000000001
347,-1.507111,-1.1632850000000001,1.421337,-0.395518,0.91811,-0.025223,0.14657799999999999,0.151263,0.184924,0.068126,0.076931,0.013718000000000001
348,-1.5001950000000002,-1.166044,1.426348,-0.392807,0.9192,-0.027779,0.048441000000000005,0.090081,0.119155,0.076706,0.049901,0.012673
349,-1.50076,-1.167869,1.425218,-0.391148,0.919917,-0.027438999999999998,-0.074512,-0.019008,0.067161,0.043156,0.015203,0.021931
350,-1.508302,-1.1691610000000001,1.418764,-0.390156,0.920423,-0.024413999999999998,-0.152745,-0.110248,0.050759,0.029195,0.006456999999999999,0.020096
351,-1.518206,-1.170608,1.410865,-0.38905,0.9209879999999999,-0.020479,-0.150784,-0.133751,0.06575800000000001,0.0026969999999999997,-0.0016460000000000001,0.023104
352,-1.5263,-1.172588,1.404561,-0.38738,0.9217569999999999,-0.017249,-0.107004,-0.096734,0.094859,-0.009349,0.013453999999999999,0.012549
353,-1.530493,-1.174894,1.401319,-0.385323,0.9226489999999999,-0.015538,-0.042825,-0.037393,0.117664,-0.0073620000000000005,0.021366999999999997,0.006765
354,-1.531234,-1.177437,1.4007049999999999,-0.38298899999999997,0.9236270000000001,-0.01516,-0.008532,0.005064,0.126395,-0.001731,0.031389999999999994,0.005211
355,-1.531634,-1.179917,1.39996,-0.380704,0.924574,-0.014916999999999998,-0.023382,0.020047,0.121999,0.021405,0.02144,0.023614
356,-1.5322959999999999,-1.182195,1.398837,-0.378607,0.9254399999999999,-0.014584,-0.022267,0.016903,0.108124,0.033895999999999996,0.015753,0.02795
357,-1.532157,-1.18413,1.398808,-0.376815,0.926171,-0.014566999999999998,0.008687,0.001954,0.090199,0.0466,0.01525,0.034158999999999995
358,-1.531009,-1.185724,1.400043,-0.375324,0.9267709999999999,-0.014941,0.023699,0.003031,0.074279,0.042758,0.036989,0.033419
359,-1.529944,-1.187065,1.400892,-0.374066,0.9272739999999999,-0.01529,0.003563,0.024441,0.065566,0.03822,0.040026,0.034272000000000004
360,-1.5300129999999998,-1.188587,1.399791,-0.372656,0.9278430000000001,-0.015207,-0.036853,0.063951,0.07698300000000001,0.039191000000000004,0.040999,0.036294
361,-1.531001,-1.190481,1.396889,-0.37091399999999997,0.9285479999999999,-0.014768,-0.060242,0.098057,0.092799,0.042225,0.025034999999999998,0.030026999999999998
362,-1.531507,-1.192682,1.393982,-0.36887800000000004,0.9293620000000001,-0.014500999999999998,-0.049555,0.11819600000000001,0.10887100000000001,0.038892,0.013569999999999999,0.031987
363,-1.530455,-1.195027,1.392161,-0.366685,0.930225,-0.014801,-0.02915,0.150075,0.11110999999999999,0.02974,0.008465,0.026626
364,-1.5282850000000001,-1.197219,1.390736,-0.364615,0.9310280000000001,-0.01551,-0.029996,0.189532,0.101439,0.027884,0.007189,0.025443
365,-1.526181,-1.199123,1.388575,-0.362809,0.9317209999999999,-0.016197,-0.047927,0.21630300000000002,0.082052,0.020265000000000002,0.011745,0.015679
366,-1.524918,-1.200609,1.385282,-0.361404,0.9322600000000001,-0.016592,-0.060614,0.21645,0.056325,0.009337999999999999,0.011008,0.013632
367,-1.523899,-1.201543,1.382131,-0.360518,0.9325969999999999,-0.016919999999999998,-0.053199,0.18348599999999998,0.035055,-0.007035,0.011571,0.009672
368,-1.522606,-1.2022190000000001,1.380088,-0.35986599999999996,0.932841,-0.017355000000000002,-0.024513,0.15038800000000002,0.028888,-0.00984,0.0109,0.011176
369,-1.520276,-1.202812,1.379672,-0.359271,0.933055,-0.018165999999999998,0.008473,0.127914,0.025943,-0.036557,0.019643,0.004357
370,-1.516216,-1.203357,1.381545,-0.358686,0.93325,-0.019597,0.048923,0.10859400000000001,0.027319,-0.027529,0.03431,-0.00017900000000000001
371,-1.5104520000000001,-1.203743,1.385721,-0.358207,0.9333889999999999,-0.021641999999999998,0.08831,0.082915,0.021217,-0.016839,0.038488999999999995,-1e-05
372,-1.504281,-1.2039540000000002,1.390911,-0.35786999999999997,0.933464,-0.023839,0.091425,0.056302,0.013796000000000001,0.018194,0.035972000000000004,0.008245
373,-1.4995180000000001,-1.204023,1.395125,-0.357688,0.9334889999999999,-0.025539,0.06575299999999999,0.037233999999999996,0.009368000000000001,0.033621,0.030866,0.014903
374,-1.496376,-1.203976,1.3979,-0.357649,0.933472,-0.026666000000000002,0.039048,0.01926,-0.001478,0.038832,0.024474,0.017205
375,-1.495209,-1.203863,1.399044,-0.357723,0.9334319999999999,-0.027091000000000004,0.011242,-0.001923,-0.008054,0.050746,0.010445999999999999,0.015203999999999999
376,-1.495459,-1.203624,1.3989129999999999,-0.357953,0.9333459999999999,-0.027018,-0.004751,-0.009285,-0.017771000000000002,0.051038,0.019001,0.007838
377,-1.4965,-1.203155,1.398296,-0.358417,0.9331780000000001,-0.026677999999999997,-0.010143000000000001,-0.03266,-0.028461,0.048069,0.017872,0.007803
378,-1.498585,-1.20282,1.397006,-0.358783,0.933057,-0.025952999999999997,-0.026242,-0.046482,-0.021078,0.035861000000000004,0.004259000000000001,0.015211
379,-1.501371,-1.202726,1.394926,-0.358942,0.9330229999999999,-0.02496,-0.039068,-0.037971,-0.007291,0.023111000000000003,0.00046399999999999995,0.025981999999999998
380,-1.503596,-1.202917,1.392976,-0.358819,0.933092,-0.024149,-0.032595,-0.0039770000000000005,0.01087,0.02102,-7.8e-05,0.030344
381,-1.504466,-1.2035129999999998,1.391491,-0.358284,0.933306,-0.0238,-0.024974,0.043878,0.024749,0.017464,0.00131,0.026943
382,-1.5040639999999998,-1.204093,1.390475,-0.35773499999999997,0.933515,-0.023908000000000002,-0.017322999999999998,0.080088,0.020483,0.022499,0.014346000000000001,0.020063
383,-1.503052,-1.204399,1.389594,-0.357426,0.933624,-0.024250999999999998,-0.015040999999999999,0.09825,0.005521,0.029606,0.021561,0.013295
384,-1.502283,-1.2043469999999998,1.388325,-0.357455,0.9336049999999999,-0.024529,-0.02669,0.09942899999999999,-0.012722,0.033038,0.02541,0.012856
385,-1.502769,-1.204037,1.385694,-0.357754,0.933494,-0.024375,-0.05650499999999999,0.100645,-0.024682,0.028027,0.026436,0.014579
386,-1.505366,-1.203643,1.380673,-0.358183,0.9333530000000001,-0.023469,-0.10338,0.110418,-0.030363,0.025113999999999997,0.019589,0.023561000000000002
387,-1.509803,-1.203125,1.373198,-0.358767,0.933167,-0.021909,-0.145877,0.139372,-0.04138,0.015368000000000001,0.019149,0.024107
388,-1.515221,-1.202505,1.36389,-0.359458,0.932944,-0.019998,-0.1766,0.178929,-0.050191,8.3e-05,0.033960000000000004,0.005136
389,-1.521435,-1.20156,1.353084,-0.360456,0.9326030000000001,-0.017807,-0.199932,0.19717200000000001,-0.063196,-0.008822,0.039397,-0.005569
390,-1.528714,-1.200321,1.3412110000000002,-0.361729,0.932155,-0.015231,-0.214863,0.182374,-0.079304,-0.015544,0.044956,-0.016858
391,-1.536635,-1.1987729999999999,1.329208,-0.36328,0.931594,-0.012415,-0.210677,0.151518,-0.092054,-0.017335,0.045777,-0.017691
392,-1.544186,-1.1969610000000002,1.318174,-0.36504899999999996,0.930934,-0.009715999999999999,-0.188331,0.129107,-0.101483,-0.012819,0.037771,-0.007328
393,-1.550538,-1.195107,1.308663,-0.366829,0.9302549999999999,-0.007431999999999999,-0.16278399999999998,0.1226,-0.094887,-0.007469,0.018185,0.007645999999999999
394,-1.5558450000000001,-1.19335,1.300235,-0.36849699999999996,0.929609,-0.00551,-0.151058,0.128917,-0.086268,-0.009706999999999999,-0.000181,0.024049
395,-1.560584,-1.191811,1.2922200000000001,-0.36995,0.929041,-0.003778,-0.145733,0.1395,-0.073425,-0.012405,-0.020258,0.032846
396,-1.564259,-1.190677,1.2850110000000001,-0.371015,0.9286200000000001,-0.002426,-0.125496,0.156375,-0.048737,-0.011874,-0.032533,0.030989999999999997
397,-1.566393,-1.190141,1.279258,-0.37151799999999996,0.9284209999999999,-0.0016359999999999999,-0.093625,0.159327,-0.015403,-0.012286,-0.031708,0.02843
398,-1.566994,-1.190217,1.275377,-0.371448,0.92845,-0.0014119999999999998,-0.055419,0.143099,0.013727000000000001,-0.012828999999999998,-0.024732,0.022042
399,-1.566384,-1.1908100000000001,1.273405,-0.370896,0.9286700000000001,-0.001637,-0.023666999999999997,0.11093099999999999,0.038558999999999996,-0.013350999999999998,-0.010884,0.012623
400,-1.565178,-1.191635,1.272844,-0.370128,0.928975,-0.0020800000000000003,0.002806,0.07675499999999999,0.046313,-0.014485,0.001231,0.009785
401,-1.563077,-1.19255,1.2737290000000001,-0.369272,0.929314,-0.0028510000000000002,0.029391000000000004,0.059609,0.048658,-0.015509,0.007835,0.006131
402,-1.559582,-1.193499,1.276246,-0.36837800000000004,0.9296639999999999,-0.004131,0.058197000000000006,0.059508000000000005,0.048859,-0.015243000000000001,0.010491,0.005993
403,-1.554664,-1.194374,1.280134,-0.367539,0.9299860000000001,-0.0059299999999999995,0.080663,0.070096,0.045798,-0.001266,0.016028999999999998,0.0009710000000000001
404,-1.5490540000000002,-1.195144,1.284548,-0.36678299999999997,0.930268,-0.007976,0.07753,0.077593,0.038289,0.002434,0.019134,-0.003865
405,-1.544456,-1.19576,1.2878479999999999,-0.366169,0.930494,-0.009647,0.048744,0.074528,0.030614,0.011904999999999999,0.025789,-0.002255
406,-1.5414889999999999,-1.196212,1.289535,-0.365718,0.93066,-0.010721,0.022096,0.070399,0.020819,0.022502,0.034748,-0.000708
407,-1.53954,-1.196484,1.290173,-0.365444,0.930759,-0.011426,0.006141,0.069436,0.008958,0.023722999999999998,0.035015,-0.000308
408,-1.5383360000000001,-1.196508,1.289932,-0.36540700000000004,0.930768,-0.011865,-0.011914,0.07381599999999999,-0.00506,0.012731000000000001,0.032214,-0.001318
409,-1.537811,-1.1963,1.288812,-0.365595,0.930692,-0.012064,-0.025707,0.080299,-0.015847,0.005152,0.029666,0.000559
410,-1.537998,-1.195943,1.2868549999999999,-0.36593000000000003,0.9305610000000001,-0.012006000000000001,-0.04058,0.08465,-0.025571,-0.008186,0.013668000000000001,0.001233
411,-1.538615,-1.195417,1.2843040000000001,-0.366425,0.930369,-0.011796,-0.049063,0.08791,-0.03418,-0.014465,0.001913,-0.00044100000000000004
412,-1.539561,-1.194768,1.281474,-0.367039,0.9301299999999999,-0.011468,-0.052287,0.080473,-0.036329,-0.020350999999999998,-9.2e-05,0.0019010000000000001
413,-1.5409959999999998,-1.194113,1.278598,-0.367664,0.92989,-0.01096,-0.050297,0.049568,-0.035207,-0.02615,-0.0006450000000000001,0.005833
414,-1.542434,-1.193359,1.276093,-0.36838000000000004,0.9296120000000001,-0.010451,-0.039609,0.046364999999999996,-0.042606,-0.019239,-0.001084,0.005339
415,-1.54314,-1.192476,1.2742879999999999,-0.369207,0.9292870000000001,-0.010214,-0.027860000000000003,0.047398,-0.044662,-0.018747999999999997,0.007756,0.004736
416,-1.543816,-1.191655,1.272817,-0.369977,0.928983,-0.009984,-0.02586,0.026050999999999998,-0.036075,-0.015765,0.014650999999999999,0.0029809999999999997
417,-1.5448030000000001,-1.191003,1.271433,-0.37059200000000003,0.928741,-0.009635,-0.023827,0.0111,-0.028564,-0.014158,0.005142,-0.00036
418,-1.545808,-1.190521,1.27019,-0.37105,0.9285620000000001,-0.009274,-0.022818,0.004679,-0.022139,-0.015745,0.002514,-0.0013160000000000001
419,-1.5471110000000001,-1.1901629999999999,1.2688709999999999,-0.371393,0.92843,-0.008798,-0.025042,-0.009187,-0.015728,-0.017477,0.002707,0.001169
420,-1.548648,-1.189856,1.26754,-0.371692,0.928315,-0.008234,-0.02188,-0.015599000000000002,-0.013561000000000002,-0.02023,-0.0034340000000000004,0.0056549999999999994
421,-1.5497610000000002,-1.189603,1.266701,-0.371936,0.928221,-0.007825,-0.010164,-0.017779,-0.011340000000000001,-0.021252,-0.003478,0.006848000000000001
422,-1.550208,-1.189401,1.266649,-0.372127,0.9281459999999999,-0.007662,0.005801,-0.023174,-0.008017,-0.02071,-0.003387,0.006854000000000001
423,-1.5499530000000001,-1.189196,1.267451,-0.372315,0.9280700000000001,-0.007761,0.022861000000000003,-0.025363999999999998,-0.007895000000000001,-0.013977000000000002,-0.000915,0.00445
424,-1.548934,-1.189022,1.269102,-0.37246799999999997,0.928005,-0.008144,0.035654000000000005,-0.025417,-0.0056689999999999996,-0.013122,0.001057,-0.000263
425,-1.547402,-1.188915,1.27128,-0.372554,0.9279649999999999,-0.008717,0.043122,-0.02226,-0.002416,-0.010823000000000001,0.004164,-0.001033
426,-1.545699,-1.1889120000000002,1.273669,-0.372542,0.9279639999999999,-0.009352,0.04626,-0.026570999999999997,0.007225,-0.006975,0.009978,-0.006502
427,-1.544047,-1.189103,1.276118,-0.372349,0.928035,-0.009962,0.044069,-0.03192,0.014694,-0.004543,0.009404000000000001,-0.006883
428,-1.5430139999999999,-1.189434,1.278052,-0.37203,0.9281590000000001,-0.010339,0.030128,-0.041484,0.021018000000000002,-0.003778,0.011188,-0.004645000000000001
429,-1.5428549999999999,-1.189814,1.279291,-0.371676,0.9283,-0.010388,0.018335,-0.054225999999999996,0.020952000000000002,-0.005094,0.012267,-0.0041990000000000005
430,-1.543182,-1.190192,1.2801879999999999,-0.37133,0.9284399999999999,-0.010256999999999999,0.015115,-0.060598,0.018802000000000003,-0.006966,0.009655,-0.0017980000000000001
431,-1.543779,-1.190517,1.280982,-0.371035,0.9285610000000001,-0.010027,0.014013999999999999,-0.071234,0.015603,-0.007581,0.0067269999999999995,-0.00392
432,-1.5443280000000001,-1.19075,1.282062,-0.370825,0.9286469999999999,-0.009818,0.022516,-0.082965,0.011404000000000001,-0.010537999999999999,0.007540000000000001,-0.002939
433,-1.5448389999999999,-1.190956,1.2834370000000002,-0.370638,0.928724,-0.009623,0.02673,-0.093637,0.012516,-0.012083,0.011553,-0.005407
434,-1.5452860000000002,-1.191144,1.285091,-0.370467,0.928794,-0.009453,0.032041,-0.10216499999999999,0.009359000000000001,-0.013841,0.014078,-0.007774
435,-1.545489,-1.191251,1.2871139999999999,-0.370368,0.928833,-0.009375,0.041652,-0.10431199999999999,0.005156,-0.012688,0.013763,-0.006311
436,-1.545086,-1.1912770000000001,1.289709,-0.370339,0.928843,-0.009524,0.050225,-0.100063,0.000938,-0.003867,0.014883,-0.00572
437,-1.54484,-1.191179,1.29214,-0.370427,0.9288069999999999,-0.009617,0.039586,-0.10000099999999999,-0.005546,0.004231,0.019451,-0.0014759999999999999
438,-1.545277,-1.19097,1.2938,-0.37062399999999995,0.9287290000000001,-0.00946,0.024683,-0.09991900000000001,-0.013128,0.0074340000000000005,0.02197,0.00027400000000000005
439,-1.546448,-1.1906729999999999,1.294642,-0.37091,0.9286190000000001,-0.009033,0.009766,-0.097727,-0.015371000000000001,0.010345,0.019273,0.005615
440,-1.548251,-1.190268,1.294736,-0.371302,0.9284690000000001,-0.008373,-0.00085,-0.093399,-0.022928,0.009470000000000001,0.016035,0.005504
441,-1.550253,-1.189794,1.294565,-0.371758,0.928292,-0.007638,-0.002964,-0.091253,-0.025082,0.008462,0.015082,0.006357
442,-1.5520770000000002,-1.1893209999999999,1.294417,-0.372211,0.9281159999999999,-0.006968000000000001,0.000294,-0.079542,-0.026143,0.0007509999999999999,0.009581999999999999,0.006022
443,-1.553166,-1.188859,1.294765,-0.372647,0.9279440000000001,-0.006571,0.011009999999999999,-0.065743,-0.022881,0.003857,0.008747,0.00625
444,-1.553909,-1.188415,1.2953620000000001,-0.37306500000000004,0.9277790000000001,-0.006301,0.011009999999999999,-0.066804,-0.023948,0.002154,0.011964,1.4000000000000001e-05
445,-1.555056,-1.1879389999999999,1.2956219999999998,-0.373514,0.927601,-0.00588,0.001394,-0.072088,-0.026144999999999998,0.001275,0.013484999999999999,-0.000773
446,-1.556798,-1.187435,1.295404,-0.37399099999999996,0.9274129999999999,-0.005236,-0.007193000000000001,-0.08165499999999999,-0.024056,0.002775,0.013704,-0.001295
447,-1.559521,-1.187049,1.2944440000000002,-0.374361,0.927268,-0.004221,-0.02223,-0.097607,-0.017731,-0.0032170000000000002,0.019478,-0.003149
448,-1.563246,-1.186803,1.292719,-0.374602,0.927176,-0.0028280000000000002,-0.038324000000000004,-0.110364,-0.01035,-0.002839,0.022591999999999998,0.00040199999999999996
449,-1.5678889999999999,-1.186649,1.290036,-0.374753,0.927118,-0.00109,-0.057513,-0.104979,-0.008354,0.000638,0.025122,0.001807
450,-1.572858,-1.186345,1.2868760000000001,-0.375035,0.927005,0.000773,-0.058524,-0.10275999999999999,-0.021137,0.008336,0.022382,-0.004023
451,-1.5777370000000002,-1.1857229999999999,1.283841,-0.375602,0.9267709999999999,0.002607,-0.05954299999999999,-0.105896,-0.035026999999999996,0.010185,0.016909,-0.006848999999999999
452,-1.583281,-1.184928,1.280418,-0.376319,0.926472,0.004699,-0.069207,-0.127138,-0.042545,0.011512,0.014232,-0.006667
453,-1.5895270000000001,-1.184022,1.276741,-0.37712199999999996,0.9261299999999999,0.007064,-0.070346,-0.147357,-0.0468,0.000795,0.016878,-0.0030210000000000002
454,-1.5958780000000001,-1.183078,1.272992,-0.377943,0.925774,0.009481999999999999,-0.072451,-0.137775,-0.043622,-0.003114,0.014717,-0.001593
455,-1.601984,-1.1822979999999998,1.268985,-0.3786,0.925479,0.011811,-0.079823,-0.107956,-0.035166,-0.005495,0.018445,0.000472
456,-1.6073629999999999,-1.181497,1.26538,-0.37927,0.925175,0.013875,-0.060614999999999995,-0.122873,-0.051036,-0.0070209999999999995,0.010143000000000001,0.011958
457,-1.611323,-1.18103,1.262392,-0.37964499999999995,0.924998,0.015394,-0.050778,-0.043122,-0.023296,0.009618999999999999,0.018194,0.00345
458,-1.614385,-1.180503,1.260147,-0.38008400000000003,0.924797,0.016578,-0.044410000000000005,-0.053785,-0.026442,0.015841,0.006294,0.005761
459,-1.618074,-1.17995,1.257477,-0.380531,0.924587,0.018004,-0.055140999999999996,-0.065474,-0.024366,0.020759,0.007817000000000001,0.010606
460,-1.621999,-1.179406,1.254689,-0.38095999999999997,0.92438,0.019523,-0.051945000000000005,-0.068672,-0.026476,0.018731,0.007566,0.012505
461,-1.6255899999999999,-1.178815,1.252218,-0.381432,0.9241540000000001,0.020921000000000002,-0.048632,-0.061429,-0.027524,0.008416,0.009516,0.007781000000000001
462,-1.629073,-1.17828,1.249625,-0.381852,0.923949,0.022278,-0.050723000000000004,-0.04759,-0.023284,0.0034950000000000003,0.008897,0.005797999999999999
463,-1.6320379999999999,-1.177912,1.24712,-0.38212399999999996,0.923809,0.023431,-0.045317,-0.023142,-0.014731000000000001,0.002134,0.011662,0.003088
464,-1.634003,-1.177756,1.24526,-0.38222,0.9237489999999999,0.024191,-0.031419,-0.006188,-0.003974,0.002124,0.010592,0.003336
465,-1.6353360000000001,-1.177714,1.243853,-0.382227,0.923733,0.024703,-0.023931,0.0012289999999999998,-0.000726,0.006525,0.013798,0.006562
466,-1.636421,-1.177691,1.2427139999999999,-0.382222,0.923724,0.025119,-0.020755000000000003,-0.004108,-0.000697,0.010808,0.012326,0.009732
467,-1.6373149999999999,-1.177584,1.241867,-0.382298,0.923683,0.025468,-0.014,-0.00496,-0.005006,0.008504000000000001,0.009956999999999999,0.010223000000000001
468,-1.637856,-1.177457,1.241363,-0.382402,0.9236340000000001,0.025682,-0.008656,-0.0049700000000000005,-0.007104999999999999,0.005251,0.009639,0.010924
469,-1.6384470000000002,-1.177323,1.240845,-0.38251,0.923583,0.025917000000000003,-0.009732,-0.006036,-0.006043,0.005465,0.009248000000000001,0.009346
470,-1.639032,-1.17726,1.2403620000000002,-0.38255300000000003,0.923559,0.026144,-0.00868,-0.006053,-0.0028309999999999997,0.004914,0.011744,0.009317
471,-1.639641,-1.177224,1.239833,-0.38256999999999997,0.9235450000000001,0.02638,-0.009742,-0.003922999999999999,-0.001773,0.0016190000000000002,0.015481,0.010272
472,-1.640291,-1.177167,1.239239,-0.382606,0.923523,0.026632,-0.011876000000000001,-0.003915,-0.0017870000000000002,0.003166,0.01683,0.008494
473,-1.640997,-1.17711,1.238553,-0.38264000000000004,0.923501,0.026906,-0.014005000000000002,-0.002843,-0.0018039999999999998,0.001537,0.014913999999999998,0.008204000000000001
474,-1.641503,-1.177071,1.2380120000000001,-0.38266300000000003,0.923486,0.027101999999999998,-0.007575,0.001405,-0.003901,0.001667,0.013219999999999999,0.007551
475,-1.641702,-1.17698,1.2376790000000002,-0.382742,0.923451,0.027183999999999996,-0.005393,0.007135,-0.004893,0.0016079999999999998,0.010875,0.007133
476,-1.641714,-1.176851,1.23745,-0.38286,0.9234020000000001,0.027197000000000002,-0.003235,0.010332,-0.007018000000000001,0.0025960000000000002,0.009322,0.004419
477,-1.641715,-1.176688,1.2373290000000001,-0.38301,0.9233389999999999,0.027208,-0.0011300000000000001,0.00075,-0.010196,-9.300000000000001e-05,0.008057,0.0050030000000000005
478,-1.641852,-1.1764219999999999,1.237271,-0.383251,0.9232370000000001,0.027277999999999997,-0.001135,-0.0045590000000000006,-0.014462000000000001,-0.001576,0.009441,0.007939
479,-1.6419560000000002,-1.176164,1.237249,-0.383486,0.9231379999999999,0.027335,-5.7999999999999994e-05,-0.00031099999999999997,-0.012323,-0.0016920000000000001,0.00893,0.00596
480,-1.641631,-1.17594,1.237491,-0.383701,0.9230520000000001,0.027225,0.007443000000000001,0.008181,-0.011214,-0.001401,0.011152,0.004407
481,-1.640857,-1.175764,1.238071,-0.383884,0.922984,0.026938999999999998,0.012797,0.014546000000000002,-0.009048,-0.00048499999999999997,0.010503,0.0023120000000000003
482,-1.6400150000000002,-1.175638,1.238695,-0.384023,0.9229360000000001,0.026624000000000002,0.012778,0.013468,-0.005842,-0.003672,0.008415,0.000323
483,-1.639432,-1.175557,1.239109,-0.38411300000000004,0.9229040000000001,0.026405,0.005281,0.010284999999999999,-0.002686,-0.005596,0.008431000000000001,0.002297
484,-1.639207,-1.175545,1.239239,-0.384131,0.9229,0.02632,0.002042,0.003896,-0.0005639999999999999,-0.00358,0.011274,0.0036490000000000003
485,-1.6389650000000002,-1.175598,1.239391,-0.384088,0.9229200000000001,0.026223000000000003,0.004171,0.006007,0.002653,-0.005026,0.011268,0.0050420000000000005
486,-1.6386189999999998,-1.175675,1.2395909999999999,-0.384027,0.92295,0.026086,0.005243,0.008129,0.0037259999999999997,-0.001471,0.012231,0.004645000000000001
487,-1.638202,-1.175766,1.2398280000000002,-0.383954,0.922985,0.02592,0.005252000000000001,0.01026,0.0037240000000000003,-0.000125,0.017322999999999998,0.002553
488,-1.63773,-1.175833,1.2401520000000001,-0.383904,0.923011,0.025735,0.007370999999999999,0.005995,0.002676,0.002358,0.014352,0.003669
489,-1.637421,-1.175894,1.240435,-0.383856,0.923034,0.025612,0.004157,0.0006889999999999999,0.000524,0.005026,0.013871000000000001,0.007164
490,-1.637289,-1.175922,1.24058,-0.383834,0.9230450000000001,0.02556,0.004152,-0.000377,0.000525,0.002364,0.012868000000000001,0.006437999999999999
491,-1.637102,-1.175922,1.240821,-0.383839,0.9230450000000001,0.025488,0.004142,-0.003568,-0.000539,0.002369,0.012304,0.007135
492,-1.637,-1.1758959999999998,1.2410450000000002,-0.383865,0.923035,0.025450999999999998,0.004137,-0.005693999999999999,-0.001605,0.0038909999999999995,0.013595,0.005647
493,-1.637016,-1.1758680000000001,1.24115,-0.383889,0.923024,0.025458,0.002018,-0.0035520000000000005,-0.002691,0.004358,0.011378000000000001,0.006082
494,-1.6369360000000002,-1.175841,1.2413049999999999,-0.383918,0.9230139999999999,0.025429,0.004147,-0.003564,-0.0016079999999999998,0.001593,0.013205000000000001,0.002311
495,-1.6368719999999999,-1.175781,1.241508,-0.383974,0.922991,0.025408,0.004137,-0.008877,-0.004804999999999999,0.003282,0.01277,0.004102000000000001
496,-1.636933,-1.175655,1.24165,-0.384088,0.922942,0.025439,0.004152,-0.008865000000000001,-0.00801,0.004755,0.011018,0.008405
497,-1.636836,-1.1754790000000002,1.241898,-0.384253,0.922875,0.025412999999999998,0.004171,-0.004604,-0.008015000000000001,0.002081,0.010567,0.00573
498,-1.636594,-1.175303,1.242225,-0.384422,0.9228069999999999,0.025331,0.0073950000000000005,-0.00141,-0.010133,0.00193,0.010528000000000001,0.00386
499,-1.636187,-1.17513,1.242717,-0.384592,0.92274,0.025185,0.009524,-0.002483,-0.010117000000000001,0.0021609999999999997,0.009389,0.005364
500,-1.635786,-1.174975,1.243227,-0.384745,0.92268,0.02504,0.008437,-0.002444,-0.009040000000000001,0.00149,0.011005,0.003647
501,-1.635464,-1.174833,1.243666,-0.384884,0.922625,0.024924,0.008427,-0.003514,-0.007970999999999999,0.002652,0.010662999999999999,0.006082
502,-1.635162,-1.174666,1.244052,-0.38504499999999997,0.9225610000000001,0.024818,0.0063030000000000004,-0.002437,-0.009055,0.001515,0.01059,0.006737000000000001
503,-1.634785,-1.174518,1.244451,-0.38519200000000003,0.9225040000000001,0.024682,0.008451,0.001813,-0.007977,0.0019219999999999999,0.011807,0.01078
504,-1.634123,-1.174404,1.245099,-0.385313,0.9224600000000001,0.024433,0.012719,0.00392,-0.005814,0.002852,0.01034,0.008114
505,-1.63342,-1.174341,1.245763,-0.385388,0.922436,0.024166,0.012709,0.004972,-0.0026100000000000003,0.0023469999999999997,0.009174,0.007755
506,-1.63279,-1.17429,1.246321,-0.38545100000000004,0.922416,0.023926,0.010579999999999999,0.006045,-0.002627,0.002547,0.011392,0.010695999999999999
507,-1.632242,-1.174264,1.246797,-0.38548899999999997,0.922406,0.023716,0.009504,0.00604,-0.0004980000000000001,0.000921,0.014438,0.009517
508,-1.631758,-1.174231,1.247197,-0.38553000000000004,0.922393,0.023532,0.006308,0.004995,-0.0026550000000000002,0.001405,0.014053999999999999,0.007795000000000001
509,-1.631413,-1.174158,1.24752,-0.385606,0.922365,0.023403,0.007370000000000001,0.000743,-0.005847,-0.000411,0.012267,0.009236
510,-1.631143,-1.174057,1.247861,-0.385705,0.922326,0.023304,0.0073560000000000006,-0.003514,-0.0069099999999999995,0.0032890000000000003,0.013434999999999999,0.009349
511,-1.631025,-1.173918,1.248122,-0.385835,0.922272,0.023267,0.003093,-0.004556,-0.009075,0.00139,0.011962,0.010348
512,-1.630953,-1.173748,1.248349,-0.385993,0.922206,0.023247999999999998,0.00415,-0.006690000000000001,-0.009065,-0.002221,0.010898999999999999,0.011084
513,-1.630806,-1.173633,1.248579,-0.386102,0.922162,0.023198,0.003098,-0.000308,-0.005875,-0.001486,0.012729,0.008678
514,-1.630498,-1.1735719999999998,1.248718,-0.38616500000000004,0.9221379999999999,0.023082,0.003146,0.013528,-0.002688,-0.000874,0.015468,0.00742
515,-1.630326,-1.173517,1.2486629999999999,-0.38622,0.922117,0.023019,-0.005404,0.009301,-0.003811,0.0006309999999999999,0.016237,0.004157
516,-1.630863,-1.17345,1.248016,-0.38627,0.922091,0.02323,-0.015044,0.002934,-0.0017329999999999997,0.001947,0.018201,0.005136
517,-1.631235,-1.173409,1.247384,-0.3863,0.922075,0.023375999999999997,-0.010747,0.011433,0.00042199999999999996,0.002907,0.018599,0.004044
518,-1.63195,-1.1734959999999999,1.2467270000000001,-0.386202,0.9221090000000001,0.023647,-0.010886,-0.013094,0.006862,0.001025,0.019007,0.008029999999999999
519,-1.6320370000000002,-1.173663,1.246493,-0.386047,0.9221739999999999,0.023672,-8.4e-05,0.017758000000000003,0.007965999999999999,0.001632,0.010565999999999999,0.000178
520,-1.6316620000000002,-1.173837,1.246489,-0.385895,0.922241,0.023517,0.000983,0.017754,0.007974,0.001129,0.010575,0.00134
521,-1.631424,-1.173985,1.246413,-0.385764,0.922298,0.023417,-0.002227,0.014573,0.006887000000000001,0.001761,0.0062450000000000006,0.004034
522,-1.631684,-1.174102,1.246024,-0.385651,0.922343,0.02351,-0.006547,-0.00031299999999999996,0.0036710000000000002,-0.001221,0.005117,0.010654
523,-1.631892,-1.174142,1.245886,-0.38560900000000004,0.922359,0.023587999999999998,0.0019879999999999997,-0.004586,-0.000537,-0.001675,0.005208,0.012575
524,-1.6316629999999999,-1.1740899999999999,1.246383,-0.385662,0.9223389999999999,0.023503,0.012628,-0.015259,-0.004722,-0.0037579999999999996,0.003168,0.013408000000000002
525,-1.6311120000000001,-1.173985,1.247447,-0.38577100000000003,0.922298,0.023296,0.025396000000000002,-0.023822,-0.00569,-0.0087,-0.000667,0.013553999999999998
526,-1.63005,-1.173935,1.249175,-0.385842,0.9222790000000001,0.022889,0.040304,-0.027083,-0.0023769999999999998,-0.01226,0.00039,0.009459
527,-1.628452,-1.174045,1.25158,-0.385776,0.922321,0.022267,0.050905,-0.032485,0.007318000000000001,-0.011212,-0.00014099999999999998,0.009531999999999999
528,-1.626451,-1.174349,1.25443,-0.38553899999999997,0.9224389999999999,0.021478999999999998,0.05940700000000001,-0.031483,0.015922,-0.011113,0.000901,0.008076999999999999
529,-1.624016,-1.174825,1.257833,-0.385152,0.9226219999999999,0.020516999999999997,0.071099,-0.034746,0.022417,-0.009714,0.0041659999999999996,0.005148
530,-1.6213110000000002,-1.175333,1.261577,-0.384739,0.922818,0.019452,0.076421,-0.038931,0.022522,-0.010601000000000001,0.007326999999999999,0.004306
531,-1.618532,-1.175838,1.2654020000000001,-0.384327,0.923012,0.018359999999999998,0.075364,-0.037857,0.021445,-0.008114,0.009986,0.004681
532,-1.616017,-1.1762620000000001,1.269104,-0.383981,0.923176,0.017376,0.071072,-0.048474,0.016087999999999998,-0.006522,0.009472,0.002171
533,-1.61386,-1.1765649999999999,1.272676,-0.383739,0.923292,0.016536000000000002,0.068905,-0.061228,0.010748,-0.00855,0.010912,0.003133
534,-1.611896,-1.176767,1.276283,-0.383583,0.92337,0.015774,0.071015,-0.070806,0.006502,-0.006569,0.010148,0.002796
535,-1.6099139999999998,-1.176916,1.280006,-0.383474,0.923427,0.015008,0.072077,-0.07399700000000001,0.004377000000000001,-0.001535,0.013127000000000002,0.005423
536,-1.608064,-1.177027,1.2836370000000001,-0.383399,0.9234690000000001,0.014294999999999999,0.068881,-0.075043,0.0022199999999999998,-0.001565,0.014107,0.0036340000000000005
537,-1.60646,-1.177107,1.28702,-0.383348,0.9235,0.013677000000000002,0.063532,-0.07822,0.002187,0.000688,0.012596,0.008814
538,-1.605278,-1.177185,1.290068,-0.38329,0.92353,0.013222,0.056155,-0.082077,0.0013460000000000002,3.5e-05,0.011666,0.011482
539,-1.604518,-1.177229,1.2926799999999998,-0.38326,0.9235469999999999,0.012929,0.048692,-0.083107,-0.0008410000000000001,0.001256,0.011344,0.009837
540,-1.603872,-1.1772479999999999,1.295142,-0.38325,0.9235540000000001,0.012681,0.046563,-0.080973,0.00021,0.0017350000000000002,0.012588,0.009399
541,-1.6032520000000001,-1.177288,1.2975809999999999,-0.383222,0.9235700000000001,0.012442,0.047625,-0.080981,0.001285,0.000608,0.014372999999999999,0.009668000000000001
542,-1.602567,-1.1773639999999999,1.300099,-0.38316100000000003,0.923599,0.012177,0.049758,-0.07886699999999999,0.0034340000000000004,0.000975,0.013290999999999999,0.011595999999999999
543,-1.601774,-1.177537,1.302562,-0.38301199999999996,0.923665,0.011869,0.047633999999999996,-0.071424,0.008751,0.002137,0.011576999999999999,0.010928
544,-1.601004,-1.177797,1.304889,-0.382781,0.923765,0.011566,0.044429,-0.067173,0.014063999999999998,0.004455,0.011904000000000001,0.0121
545,-1.600368,-1.178134,1.306984,-0.38247800000000004,0.9238940000000001,0.011314,0.040171,-0.06290499999999999,0.016165000000000002,0.005067,0.012142,0.013848
546,-1.5998729999999999,-1.178497,1.3088440000000001,-0.382148,0.924033,0.011115,0.036989,-0.058401,0.017449,0.0074069999999999995,0.017648,0.013071000000000001
547,-1.599345,-1.178886,1.310609,-0.381795,0.9241809999999999,0.010903,0.033812,-0.050942,0.019553,0.005224,0.019514,0.011375
548,-1.598687,-1.1793360000000002,1.312202,-0.381387,0.9243530000000001,0.01064,0.031741000000000005,-0.033902999999999996,0.022722,0.005776,0.018183,0.011409
549,-1.5978569999999999,-1.1798600000000001,1.313711,-0.38090999999999997,0.9245530000000001,0.01031,0.029641000000000004,-0.023255,0.025898,0.013203999999999999,0.013725999999999999,0.015019
550,-1.5969950000000002,-1.180449,1.314981,-0.380375,0.9247770000000001,0.009968000000000001,0.02435,-0.010466,0.029049000000000002,0.01366,0.014005000000000002,0.016262000000000002
551,-1.595991,-1.181081,1.316091,-0.379799,0.925017,0.009571,0.021211,0.005515,0.031143,0.011941,0.016038,0.015179
552,-1.594983,-1.181726,1.316919,-0.379213,0.925262,0.009174,0.014858000000000001,0.015128999999999998,0.030019,0.011446,0.018662,0.012723
553,-1.594275,-1.182285,1.317285,-0.378702,0.925474,0.008893,0.005304,0.02051,0.024604,0.008768000000000001,0.017962,0.012103000000000001
554,-1.593651,-1.182811,1.317333,-0.37822100000000003,0.925673,0.008646,7.2e-05,0.034477999999999995,0.025762,0.011095,0.015596,0.012061
555,-1.593063,-1.1833559999999999,1.317035,-0.377722,0.9258790000000001,0.008412000000000001,-0.006261999999999999,0.049414,0.025698000000000002,0.015631,0.016168000000000002,0.014293
556,-1.592511,-1.183886,1.316411,-0.377236,0.9260790000000001,0.008193,-0.01261,0.06115399999999999,0.025639,0.014886000000000002,0.013603,0.016648
557,-1.5921020000000001,-1.1843620000000001,1.315439,-0.376799,0.926259,0.008029000000000001,-0.020035,0.068646,0.023441,0.011793999999999999,0.015804,0.013928
558,-1.591941,-1.1848319999999999,1.314098,-0.376366,0.926436,0.007959,-0.025351,0.071864,0.022331,0.008445999999999999,0.015489,0.013312000000000001
559,-1.5920370000000001,-1.1852559999999999,1.312427,-0.375973,0.9265950000000001,0.007987000000000001,-0.031737,0.07296,0.020149,0.007107,0.015604,0.013055
560,-1.5923180000000001,-1.185646,1.310537,-0.37561,0.926742,0.008085,-0.033866,0.07297200000000001,0.019066,0.00418,0.014115,0.016375
561,-1.592674,-1.186057,1.3086659999999999,-0.375226,0.9268959999999999,0.00821,-0.032823000000000005,0.067642,0.01908,0.0031100000000000004,0.012999,0.013944999999999999
562,-1.592937,-1.1864370000000002,1.306918,-0.374872,0.927039,0.008301000000000001,-0.029947,0.067905,0.019135,0.0039,0.012719,0.016097999999999998
563,-1.592961,-1.186784,1.30542,-0.37455,0.927169,0.008303,-0.023527,0.070022,0.01704,0.001351,0.011796,0.017652
564,-1.59254,-1.18705,1.30436,-0.374308,0.927268,0.008140000000000001,-0.013896,0.07001399999999999,0.010698000000000001,-0.000524,0.00895,0.014397
565,-1.591813,-1.187215,1.3038,-0.374161,0.9273299999999999,0.007865,-0.00539,0.059348000000000005,0.006499,-0.001174,0.007408,0.009805
566,-1.5908639999999998,-1.187319,1.30376,-0.37407199999999996,0.927369,0.007508,0.003087,0.044413,0.0044399999999999995,-0.001263,0.007369,0.010162000000000001
567,-1.589987,-1.187451,1.303882,-0.37395500000000004,0.9274190000000001,0.007178,0.004101,0.035875,0.007663,-0.004982,0.005565,0.009348
568,-1.5892190000000002,-1.187647,1.303974,-0.373779,0.927492,0.006887000000000001,0.0008960000000000001,0.038004,0.010843,-0.005722,0.01248,0.007533
569,-1.5885129999999998,-1.187914,1.3037969999999999,-0.37353600000000003,0.927592,0.006619,-0.0033280000000000002,0.050789,0.014002,-0.004393,0.016454,0.003544
570,-1.587776,-1.188218,1.303191,-0.373259,0.9277049999999999,0.006339,-0.013803,0.069752,0.015957,-0.001466,0.018141,0.000543
571,-1.587399,-1.188468,1.302049,-0.37303000000000003,0.927798,0.006194,-0.025515,0.070876,0.0116,0.00279,0.020703,0.001146
572,-1.5877809999999999,-1.188569,1.3002200000000002,-0.372934,0.9278360000000001,0.006335,-0.038313,0.062437,0.0019079999999999998,0.002038,0.017385,0.0010960000000000002
573,-1.588743,-1.1885059999999998,1.297955,-0.37298600000000004,0.9278129999999999,0.006693999999999999,-0.04258,0.055025,-0.0055899999999999995,-0.000198,0.013685,0.0030859999999999998
574,-1.589772,-1.1883350000000001,1.295752,-0.373138,0.9277489999999999,0.0070810000000000005,-0.040461000000000004,0.047577,-0.009839,-0.002625,0.014313999999999999,0.00392
575,-1.590782,-1.188092,1.293714,-0.373356,0.927658,0.007462999999999999,-0.039408,0.042256,-0.011961,-0.006435,0.013503999999999999,0.003539
576,-1.5919379999999999,-1.187828,1.291618,-0.373592,0.927559,0.007899,-0.042628,0.038006,-0.011978,-0.0061990000000000005,0.012855000000000002,0.002629
577,-1.593361,-1.187538,1.2893,-0.37385,0.927451,0.008437,-0.044766,0.034825999999999996,-0.014125,-0.006445,0.007592,0.005937
578,-1.5947870000000002,-1.1872260000000001,1.287032,-0.374126,0.927335,0.008976999999999999,-0.040602,0.034032,-0.015286000000000001,-0.003865,0.0076939999999999995,0.008723
579,-1.596025,-1.186931,1.2850030000000001,-0.374388,0.9272239999999999,0.009447,-0.035287,0.031875,-0.013109,-0.0012380000000000002,0.005546,0.011915
580,-1.597146,-1.186657,1.283146,-0.37463,0.9271219999999999,0.009873999999999999,-0.034229,0.030801,-0.012032,0.002224,0.0038929999999999998,0.008681
581,-1.598278,-1.186485,1.281309,-0.374778,0.927057,0.010302,-0.034272000000000004,0.02758,-0.005619,0.004661,0.003607,0.006573999999999999
582,-1.599291,-1.1864649999999999,1.279532,-0.374786,0.927049,0.010681999999999999,-0.032148,0.03393,0.002933,0.004212,0.006483,0.007369
583,-1.6002299999999998,-1.186605,1.2777379999999998,-0.37464699999999995,0.9271020000000001,0.01103,-0.034296,0.038169,0.01039,0.002989,0.013816,0.005953
584,-1.601156,-1.186831,1.27585,-0.374427,0.9271860000000001,0.011371,-0.036411,0.043498,0.011437000000000001,0.002937,0.014769,0.005475
585,-1.601998,-1.187052,1.273939,-0.374213,0.927269,0.01168,-0.035311,0.048829000000000004,0.009301,0.00434,0.018257,0.002495
586,-1.602743,-1.187173,1.272033,-0.374092,0.927315,0.011955,-0.036324,0.05205,0.005746,0.002097,0.019615,-0.000267
587,-1.6035760000000001,-1.187229,1.270044,-0.37403000000000003,0.927336,0.012265,-0.037386,0.048875,0.00147,0.0026309999999999997,0.016482,-0.000363
588,-1.604659,-1.187201,1.267909,-0.37404299999999996,0.927325,0.012671,-0.039524000000000004,0.043573,-0.002811,0.0022010000000000003,0.013334,0.003946
589,-1.6057709999999998,-1.187114,1.265834,-0.374109,0.927293,0.013090000000000001,-0.037415,0.038238999999999995,-0.0027890000000000002,0.00046699999999999997,0.012725,0.0066099999999999996
590,-1.606726,-1.18707,1.263966,-0.374137,0.927276,0.013449000000000001,-0.035276,0.039297000000000006,-0.0027760000000000003,-0.001748,0.010651,0.003153
591,-1.6074680000000001,-1.1870209999999999,1.262317,-0.374172,0.927258,0.013728,-0.02888,0.039271,-0.001663,-0.000446,0.010822,0.006017
592,-1.6079299999999999,-1.1870100000000001,1.260899,-0.374176,0.9272540000000001,0.013900999999999998,-0.025674000000000002,0.043508,0.001559,-0.000839,0.00811,0.005478
593,-1.608316,-1.187062,1.259575,-0.37412199999999995,0.9272729999999999,0.014044,-0.024627,0.041365,0.0037049999999999995,0.001732,0.009983,0.003046
594,-1.608659,-1.187128,1.258368,-0.37405700000000003,0.927298,0.014169999999999999,-0.02195,0.037176,0.004321,-0.000226,0.012354,0.004645000000000001
595,-1.6088770000000001,-1.1872129999999999,1.25732,-0.373975,0.9273290000000001,0.014247999999999999,-0.017683,0.038222000000000006,0.005417,0.0009429999999999999,0.011696,0.005375
596,-1.6089719999999998,-1.187309,1.256426,-0.373884,0.927366,0.014280000000000001,-0.015559,0.036084,0.005435,0.001829,0.014421999999999999,0.002245
597,-1.609007,-1.187401,1.255592,-0.373798,0.9274,0.01429,-0.014491999999999998,0.03608,0.005442,0.0009960000000000001,0.014922,0.002418
598,-1.6091520000000001,-1.187466,1.254768,-0.373735,0.927424,0.014341999999999999,-0.01665,0.027579000000000003,0.002234,-0.0007610000000000001,0.013538999999999999,0.003083
599,-1.6096629999999998,-1.187474,1.253676,-0.373721,0.927427,0.014533,-0.020922,0.024406,7.099999999999999e-05,-0.001295,0.011248000000000001,0.009073000000000001
600,-1.610101,-1.187437,1.252631,-0.373749,0.9274129999999999,0.014698,-0.017697,0.027599000000000002,-0.0020469999999999998,-0.0014039999999999999,0.010697,0.006939
601,-1.6102290000000001,-1.187394,1.251882,-0.373787,0.9273969999999999,0.014747,-0.011301,0.027573,-0.0009339999999999999,-0.002373,0.008928,0.00747
602,-1.610394,-1.187338,1.251196,-0.373835,0.927376,0.014811000000000001,-0.013627,0.019543,-0.004595,-0.0017289999999999999,0.012718,0.002493
603,-1.610955,-1.1872120000000002,1.250342,-0.37394499999999997,0.9273290000000001,0.015025,-0.015804,0.008902,-0.005665,-0.003558,0.011147,0.005666
604,-1.611474,-1.187095,1.249599,-0.374046,0.927285,0.015224000000000001,-0.012613,0.007821,-0.004573,-0.004739,0.012244,0.0027660000000000002
605,-1.612039,-1.186968,1.248845,-0.374155,0.9272379999999999,0.01544,-0.013680000000000001,0.005703,-0.006714,-0.001837,0.010551999999999999,0.006319
606,-1.6126120000000002,-1.1868290000000001,1.24817,-0.374274,0.9271860000000001,0.01566,-0.011565,0.001434,-0.006693999999999999,-0.0010609999999999999,0.010055,0.008327
607,-1.613167,-1.186666,1.247577,-0.37441599999999997,0.927125,0.015874,-0.011565,0.000373,-0.007761,-0.004658,0.009216,0.010616
608,-1.613456,-1.186517,1.247257,-0.37454899999999997,0.927069,0.015988,-0.003031,0.001405,-0.006634,-0.001855,0.007883,0.007937999999999999
609,-1.613383,-1.186401,1.2473459999999998,-0.374657,0.927025,0.015965,0.004414,-0.003948,-0.006576,-0.0029519999999999998,0.010154,0.006923
610,-1.6133899999999999,-1.1863059999999999,1.247571,-0.374745,0.92699,0.015971,0.0024809999999999997,-0.014499000000000001,-0.004707,-0.000956,0.010860999999999999,0.004231
611,-1.6138569999999999,-1.186217,1.2475379999999998,-0.374821,0.926956,0.01615,-0.003963,-0.025125,-0.005807,-0.0020870000000000003,0.013763,0.001397
612,-1.614934,-1.186124,1.247008,-0.374889,0.9269209999999999,0.016558,-0.012536,-0.031495,-0.003722,0.000256,0.015080000000000001,0.005476
613,-1.616452,-1.18602,1.246169,-0.37495900000000004,0.926883,0.017131,-0.018976,-0.039994999999999996,-0.0037560000000000002,0.003805,0.013425,0.009053
614,-1.618608,-1.18591,1.24481,-0.375023,0.926841,0.017943999999999998,-0.029673,-0.04741,-0.004889,0.005028,0.014991999999999998,0.012482
615,-1.621134,-1.1857440000000001,1.243177,-0.375131,0.9267790000000001,0.018899000000000003,-0.030744999999999998,-0.05165499999999999,-0.008095999999999999,0.00718,0.016016,0.011984
616,-1.6236620000000002,-1.185499,1.241554,-0.375309,0.926687,0.019859,-0.030711000000000002,-0.050564,-0.014506999999999999,0.006351,0.017466,0.010948000000000001
617,-1.626032,-1.1851639999999999,1.24009,-0.375571,0.9265610000000001,0.020766,-0.028562999999999998,-0.050558,-0.017696,0.007483,0.01779,0.008836
618,-1.628371,-1.18475,1.238682,-0.37590500000000004,0.9264049999999999,0.021667,-0.027482,-0.05161,-0.02196,0.007725,0.015184,0.010255
619,-1.630587,-1.184288,1.237401,-0.376283,0.9262309999999999,0.022525,-0.022129,-0.04949,-0.024062,0.008485,0.012825999999999999,0.011533
620,-1.632321,-1.1838090000000001,1.2364549999999999,-0.376686,0.92605,0.023205,-0.017813,-0.037791000000000005,-0.022979,0.004296,0.012320000000000001,0.013645
621,-1.633576,-1.1833770000000001,1.235734,-0.37705500000000003,0.9258870000000001,0.023703000000000002,-0.013503,-0.025036000000000003,-0.01976,0.006312,0.010514,0.012476000000000001
622,-1.634343,-1.183034,1.235266,-0.377354,0.9257569999999999,0.024012000000000002,-0.0070680000000000005,-0.013356999999999999,-0.015456999999999999,0.005619,0.011696999999999999,0.012075
623,-1.634757,-1.182771,1.235079,-0.377587,0.925658,0.024184,-0.003867,-0.011245999999999999,-0.013300999999999999,0.0037920000000000002,0.011491,0.0074329999999999995
624,-1.635216,-1.182561,1.234888,-0.377769,0.925579,0.02437,-0.003896,-0.014455,-0.010093000000000001,0.003639,0.011082,0.008772
625,-1.635867,-1.1823569999999999,1.2345059999999999,-0.377942,0.925501,0.024628,-0.007092,-0.01444,-0.011183,0.0005610000000000001,0.012808000000000002,0.006271
626,-1.6365399999999999,-1.182137,1.234024,-0.378127,0.9254180000000001,0.024895,-0.010278,-0.010172,-0.010143000000000001,0.00093,0.013028,0.005363000000000001
627,-1.6373719999999998,-1.181897,1.233371,-0.378328,0.925327,0.025225,-0.014541,-0.012274,-0.013375,0.00016999999999999999,0.01138,0.006513
628,-1.6384919999999998,-1.1815790000000002,1.2324620000000002,-0.378594,0.925206,0.025668,-0.017731999999999998,-0.014377000000000001,-0.017667,0.0014119999999999998,0.013286000000000001,0.00784
629,-1.6398099999999998,-1.181144,1.231442,-0.37896199999999997,0.925041,0.026195,-0.022009,-0.020736,-0.021962,0.000834,0.014168,0.0075120000000000004
630,-1.641288,-1.18065,1.230321,-0.379378,0.924853,0.026787000000000002,-0.021999,-0.021789,-0.025165,-0.001511,0.014783000000000001,0.006599
631,-1.642584,-1.180087,1.22933,-0.379863,0.924639,0.027316000000000003,-0.018765,-0.016465,-0.027286,-0.001332,0.012815,0.008251999999999999
632,-1.6434970000000002,-1.179538,1.228615,-0.380345,0.92443,0.0277,-0.014005000000000002,-0.010901000000000001,-0.026262999999999998,-0.00114,0.012124,0.007547
633,-1.644406,-1.179,1.227861,-0.380815,0.924225,0.028082,-0.016144,-0.010898,-0.02521,0.001253,0.012024,0.00535
634,-1.645389,-1.1784649999999999,1.227052,-0.381279,0.9240200000000001,0.028494,-0.015066999999999999,-0.009831999999999999,-0.026272000000000004,0.001366,0.014563,0.006586
635,-1.645952,-1.177908,1.226624,-0.381777,0.9238069999999999,0.028747,-0.00758,-0.007719,-0.028359,0.004793,0.009207,0.006531
636,-1.646575,-1.177365,1.2261540000000002,-0.382259,0.923599,0.029022000000000003,-0.014001,-0.010897,-0.027331,0.007259000000000001,0.008468999999999999,0.009048
637,-1.6473790000000001,-1.176871,1.2255969999999998,-0.382691,0.9234100000000001,0.029365,-0.008709,-0.016259,-0.023015,0.007737000000000001,0.012381,0.012475
638,-1.6477950000000001,-1.176448,1.22556,-0.38306799999999996,0.9232469999999999,0.029554,0.0008640000000000001,-0.020562,-0.020806,0.001477,0.012681,0.009341
639,-1.6480810000000001,-1.176107,1.225698,-0.383374,0.9231159999999999,0.029688,0.0008439999999999999,-0.020579,-0.016533000000000003,0.000164,0.010249,0.009481
640,-1.648457,-1.175815,1.225683,-0.383631,0.923004,0.029852999999999998,-0.001285,-0.017385,-0.014416,0.0017640000000000002,0.010255,0.00686
641,-1.648898,-1.175584,1.225657,-0.38383,0.9229149999999999,0.030039,-0.00066,-0.024763999999999998,-0.011224,0.000407,0.010648000000000001,0.00971
642,-1.6495490000000002,-1.175399,1.22559,-0.383981,0.9228430000000001,0.030302,-0.0017649999999999999,-0.031160000000000004,-0.009087,-0.001212,0.011651,0.013719
643,-1.650194,-1.175249,1.2256799999999999,-0.38409899999999997,0.9227860000000001,0.030561,0.003522,-0.03971,-0.006903,6.500000000000001e-05,0.012135,0.010851999999999999
644,-1.650785,-1.1751280000000002,1.2259520000000002,-0.38419200000000003,0.922739,0.030797,0.008846,-0.041859,-0.006862999999999999,0.001639,0.009634,0.011775
645,-1.651141,-1.175024,1.226523,-0.384276,0.9226989999999999,0.030941000000000003,0.012028,-0.046131,-0.006834999999999999,0.004027,0.011184,0.007847
646,-1.651621,-1.1749,1.227141,-0.384375,0.922651,0.031135000000000003,0.013061000000000001,-0.054653,-0.007886,0.001364,0.011873,0.010689
647,-1.6518669999999998,-1.174772,1.227926,-0.384486,0.922602,0.031239,0.016309999999999998,-0.045072,-0.008943000000000001,-0.000417,0.015050999999999998,0.005809
648,-1.6520540000000001,-1.174608,1.2287379999999999,-0.38463,0.9225389999999999,0.031323000000000004,0.016905,-0.046502999999999996,-0.01102,0.002031,0.018852,0.005786
649,-1.652149,-1.174377,1.229631,-0.38484,0.922449,0.031376999999999995,0.016929,-0.044358999999999996,-0.014228,0.001478,0.014135,0.006923
650,-1.652023,-1.1741540000000001,1.230491,-0.385049,0.9223629999999999,0.031345,0.018067,-0.026262,-0.012106,-0.001441,0.014542,0.005932
651,-1.651441,-1.173973,1.231549,-0.385233,0.922293,0.031135000000000003,0.022373,-0.016694,-0.01102,-0.001974,0.011117,0.007515999999999999
652,-1.650643,-1.173859,1.232734,-0.385362,0.922249,0.030835,0.022359,-0.015646,-0.006749,-0.007857,0.007225,0.00783
653,-1.650094,-1.173763,1.23373,-0.385467,0.922212,0.030631,0.019129,-0.020965,-0.005696,-0.011078,0.00479,0.012277
654,-1.649487,-1.1737030000000002,1.2349649999999999,-0.385542,0.9221889999999999,0.030400999999999997,0.026563999999999997,-0.028448,-0.005635,-0.011309,-0.006936,0.010140999999999999
655,-1.6486509999999999,-1.1736209999999998,1.2365959999999998,-0.38564299999999996,0.922157,0.030085,0.03507,-0.036991,-0.007701,-0.01284,-0.006615,0.011968000000000001
656,-1.6473759999999997,-1.173559,1.238848,-0.385737,0.922133,0.029598000000000003,0.051637,-0.040103,-0.005232,-0.011358,-0.002806,0.012912999999999999
657,-1.6451630000000002,-1.173642,1.242024,-0.385725,0.9221659999999999,0.028738,0.06656799999999999,-0.031671,0.004476,-0.004809000000000001,0.0037840000000000005,0.014109
658,-1.642584,-1.173885,1.2454399999999999,-0.385574,0.9222600000000001,0.027726999999999998,0.06763,-0.027435,0.009819,0.000793,0.009366,0.017332
659,-1.639989,-1.174159,1.248794,-0.385393,0.922365,0.026708999999999997,0.065511,-0.024232,0.0098,0.004335,0.012159,0.018884
660,-1.637877,-1.174402,1.2516639999999999,-0.385225,0.922459,0.02588,0.051637,-0.026310000000000004,0.008637,0.007951999999999999,0.017116,0.020507
661,-1.636577,-1.174613,1.253698,-0.38506399999999996,0.9225409999999999,0.025366,0.03671,-0.02731,0.00533,0.008690999999999999,0.014532,0.022073
662,-1.635553,-1.174758,1.255372,-0.384957,0.9225969999999999,0.024964,0.031389999999999994,-0.025156,0.004222,0.009484000000000001,0.014063999999999998,0.024063
663,-1.634844,-1.17486,1.256833,-0.38488,0.922636,0.024684,0.030285000000000003,-0.035797,0.002091,0.002648,0.014284,0.020985
664,-1.634285,-1.174958,1.258424,-0.384804,0.922674,0.024464,0.033964999999999995,-0.049374,0.0024760000000000003,-0.0071790000000000005,0.010554000000000001,0.016689
665,-1.633642,-1.175073,1.260262,-0.384714,0.922718,0.024209,0.038202999999999994,-0.054720000000000005,0.0035810000000000004,-0.014502000000000001,0.010189,0.014975
666,-1.6329129999999998,-1.175241,1.262251,-0.384577,0.922783,0.023919,0.041389999999999996,-0.055804999999999993,0.005741,-0.020345,0.006035,0.007743000000000001
667,-1.632292,-1.175443,1.264316,-0.384405,0.922861,0.023669,0.043447,-0.070734,0.007911,-0.010048999999999999,0.010443000000000001,0.009793000000000001
668,-1.631772,-1.1756360000000001,1.266627,-0.38424,0.9229350000000001,0.023458,0.047666,-0.08458500000000001,0.0047539999999999995,-0.004691,0.010064,0.008509000000000001
669,-1.631255,-1.175766,1.269217,-0.38413200000000003,0.922985,0.023252000000000002,0.0508,-0.10057100000000001,0.003728,0.004936,0.018391,0.007372
670,-1.631699,-1.175737,1.271384,-0.38414699999999996,0.922974,0.023424,0.038963,-0.13351,-0.006995,0.003929,0.015534000000000001,0.012647
671,-1.6320860000000001,-1.175794,1.273655,-0.384085,0.9229959999999999,0.023569999999999997,0.050723000000000004,-0.11443199999999999,0.00695,0.000708,0.020730000000000002,0.010152
672,-1.6308479999999999,-1.176051,1.276899,-0.383875,0.9230950000000001,0.02308,0.070578,-0.071522,0.007509999999999999,0.0008179999999999999,0.003007,-0.001809
673,-1.629273,-1.176097,1.280174,-0.383869,0.923112,0.022473,0.054599,-0.084177,-0.010745000000000001,-0.008587000000000001,0.004698,-0.0072900000000000005
674,-1.6292959999999999,-1.175791,1.2825030000000002,-0.38415,0.9229950000000001,0.022498,0.042748,-0.12031199999999999,-0.021463999999999997,-0.0027370000000000003,0.006662,-0.005836
675,-1.629501,-1.175411,1.2850629999999998,-0.384495,0.922848,0.022597,0.05338300000000001,-0.129928,-0.023514,0.005482,0.015033000000000001,0.002152
676,-1.629378,-1.174971,1.288075,-0.384903,0.9226790000000001,0.022574,0.057651,-0.133126,-0.026683999999999996,-0.004181,0.0183,0.001993
677,-1.629059,-1.1745,1.291205,-0.385344,0.9224969999999999,0.022477,0.059827,-0.125668,-0.028814999999999997,0.010222,0.016193,-0.000733
678,-1.627985,-1.173958,1.294934,-0.385866,0.9222879999999999,0.022091,0.076955,-0.11718900000000002,-0.032979,0.011583,0.021148,-0.0074730000000000005
679,-1.627255,-1.173355,1.298907,-0.386438,0.922054,0.021841,0.073562,-0.162971,-0.036149,0.005761,0.018238,-0.009084
680,-1.62714,-1.172764,1.302751,-0.38698499999999997,0.921826,0.021827000000000003,0.07134700000000001,-0.175768,-0.030807,0.006308,0.018466999999999997,-0.009071
681,-1.627592,-1.172283,1.306235,-0.387419,0.921639,0.022027,0.06275499999999999,-0.1864,-0.028717000000000003,0.014234,0.023306999999999998,-0.001748
682,-1.62836,-1.1718540000000002,1.309641,-0.387798,0.921472,0.022348,0.064778,-0.204542,-0.022269999999999998,0.018306,0.014578,0.009375
683,-1.629474,-1.171624,1.31285,-0.387986,0.921383,0.022792,0.058339,-0.201371,-0.010569,0.01735,0.010227,0.017598
684,-1.630694,-1.1716440000000001,1.315676,-0.387939,0.921391,0.023264,0.05198099999999999,-0.181151,4.3e-05,0.010117000000000001,0.00201,0.031514999999999994
685,-1.6311309999999999,-1.1720540000000002,1.318449,-0.387552,0.92155,0.023411,0.055287,-0.13014,0.027775,0.006784,0.006444,0.025814
686,-1.6308989999999999,-1.172957,1.320918,-0.386725,0.9219,0.023271,0.047929,-0.084393,0.049029,-5.5e-05,0.005208,0.023787
687,-1.630309,-1.1741489999999999,1.322807,-0.385642,0.9223610000000001,0.022978,0.034204000000000005,-0.042838,0.058494000000000004,-0.001291,0.004640999999999999,0.021074000000000002
688,-1.6303729999999999,-1.175457,1.3232059999999999,-0.384436,0.922866,0.022930000000000002,0.00018899999999999999,-0.006534000000000001,0.066756,0.003439,0.016434,0.022922
689,-1.631052,-1.176806,1.3220610000000002,-0.383178,0.923384,0.023117,-0.023115,0.034016000000000005,0.069745,0.011443,0.025117,0.023758
690,-1.631464,-1.1780620000000002,1.3201690000000001,-0.38201,0.923866,0.023204,-0.037763,0.089496,0.061026,0.019903999999999998,0.034813,0.011769
691,-1.631925,-1.179051,1.317107,-0.381087,0.9242440000000001,0.023325,-0.0663,0.13439700000000002,0.045814,0.032057,0.043743000000000004,0.005164
692,-1.633242,-1.1795200000000001,1.312453,-0.38062399999999996,0.924423,0.023799,-0.09808,0.15699000000000002,0.01779,0.03753,0.049683,-0.000148
693,-1.635807,-1.179238,1.3062040000000001,-0.380823,0.924316,0.024791999999999998,-0.132019,0.16153299999999998,-0.023046,0.026605,0.052247,-0.003796
694,-1.6395389999999999,-1.1781110000000001,1.298527,-0.381767,0.9238850000000001,0.026285000000000003,-0.158474,0.17455,-0.058499,0.013252000000000002,0.047550999999999996,-0.006281
695,-1.643618,-1.176628,1.289936,-0.383023,0.923316,0.027942,-0.175405,0.200197,-0.06399099999999999,-0.001377,0.034326,-0.005176
696,-1.6472360000000001,-1.1750459999999998,1.281279,-0.384374,0.922708,0.029439,-0.167765,0.228971,-0.073588,0.013921000000000001,0.0016239999999999998,-0.0063219999999999995
697,-1.6504349999999999,-1.173325,1.272986,-0.385861,0.9220430000000001,0.030794,-0.16354000000000002,0.21724699999999997,-0.07568,0.010052,-0.014113999999999998,0.011167
698,-1.652926,-1.1718959999999998,1.26563,-0.38709499999999997,0.9214889999999999,0.031863999999999996,-0.143438,0.20747800000000002,-0.047753,-0.021535,-0.010966,0.014766999999999999
699,-1.6556799999999998,-1.171153,1.258457,-0.387689,0.9212,0.032987999999999996,-0.135152,0.183885,-0.015619,-0.024405,-0.034695,0.035204
700,-1.6565560000000001,-1.171042,1.2534610000000002,-0.387762,0.921157,0.033336000000000005,-0.071246,0.18781099999999998,0.012596,-0.027598,-0.035276999999999996,0.034642
701,-1.6541970000000001,-1.171527,1.2520440000000002,-0.387395,0.9213450000000001,0.032383999999999996,0.000109,0.181085,0.034468,-0.019556999999999998,-0.032261,0.021922
702,-1.649661,-1.1725729999999999,1.253233,-0.38657600000000003,0.921751,0.030551,0.040576,0.16505,0.060594,-0.013189,-0.016966,0.005185
703,-1.644836,-1.173974,1.255351,-0.38543099999999997,0.9222940000000001,0.028589999999999997,0.048895999999999995,0.130877,0.07458300000000001,-0.007879,0.00628,0.0012259999999999999
704,-1.641088,-1.175446,1.257012,-0.384179,0.9228620000000001,0.027049,0.032763,0.100048,0.072373,0.00123,0.020665,0.003148
705,-1.6386,-1.176735,1.257895,-0.38305700000000004,0.923357,0.026012999999999998,0.020975,0.0767,0.060570000000000006,0.00557,0.030057,0.003254
706,-1.636226,-1.177767,1.258984,-0.382168,0.923753,0.025041,0.029514999999999996,0.063943,0.04676,0.009120999999999999,0.033461000000000005,-0.0075239999999999994
707,-1.633599,-1.178566,1.260669,-0.381497,0.924059,0.023991,0.036968,0.044806,0.030813,0.005825,0.03517,-0.008198
708,-1.631141,-1.1789399999999999,1.2628629999999998,-0.381209,0.9242020000000001,0.023032,0.044355,0.004389,0.008484,-0.001374,0.031349,-0.007895000000000001
709,-1.629873,-1.178943,1.264773,-0.381236,0.9242030000000001,0.022548,0.030361000000000003,-0.040235,-0.008648999999999999,-0.011448999999999999,0.019477,0.009923000000000001
710,-1.629787,-1.178683,1.2659719999999999,-0.38147800000000004,0.9241030000000001,0.02253,0.018611000000000003,-0.050817,-0.016194999999999998,-0.013527,0.014953,0.017143000000000002
711,-1.6292389999999999,-1.178284,1.2672700000000001,-0.381858,0.923951,0.022341999999999997,0.026251999999999998,-0.019921,-0.023658000000000002,-0.018486000000000002,0.003997,0.023541
712,-1.627558,-1.177909,1.269211,-0.382241,0.9238069999999999,0.02172,0.038054000000000004,-0.002926,-0.021461,-0.006065,0.0024010000000000004,0.009149
713,-1.626011,-1.177605,1.2710110000000001,-0.38255500000000003,0.923691,0.021144,0.0284,-0.008244,-0.015113,-0.00067,0.001434,0.008945999999999999
714,-1.6253959999999998,-1.1772610000000001,1.2721129999999998,-0.382884,0.923559,0.020926,0.014454,-0.028423,-0.018389,0.005915999999999999,0.007364,0.0046630000000000005
715,-1.626169,-1.176818,1.272277,-0.383276,0.9233889999999999,0.021245,-0.003788,-0.05497899999999999,-0.021687,0.014913,0.019053999999999998,0.006389
716,-1.627941,-1.176331,1.2717180000000001,-0.383687,0.9232020000000001,0.02195,-0.014495,-0.065585,-0.023885,0.020284,0.018982,0.005547
717,-1.630164,-1.175808,1.270629,-0.384119,0.9230010000000001,0.022831,-0.027245,-0.054884,-0.025056000000000002,0.021723,0.022082,0.004772
718,-1.6326049999999999,-1.17529,1.268846,-0.38454,0.922801,0.023798,-0.041013,-0.031404,-0.024114,0.022922,0.029164,-0.000468
719,-1.635364,-1.174871,1.266314,-0.384859,0.92264,0.024884,-0.054849,-0.01541,-0.015685,0.030581,0.027967000000000002,-0.005582
720,-1.6382780000000001,-1.174584,1.263167,-0.385049,0.922529,0.026023,-0.06543099999999999,0.009106999999999999,-0.010449,0.026467,0.020174,0.0018850000000000002
721,-1.6408349999999998,-1.1744649999999999,1.259798,-0.38509,0.922484,0.027014999999999997,-0.064426,0.038114999999999996,0.00018600000000000002,0.020419999999999997,0.016619,0.011420999999999999
722,-1.642598,-1.1744139999999998,1.2566549999999999,-0.385089,0.922464,0.027698,-0.058967,0.06791599999999999,0.002322,0.021258000000000003,0.013663,0.013715
723,-1.6433650000000002,-1.1744450000000002,1.25397,-0.385038,0.9224760000000001,0.027991000000000002,-0.04605,0.093437,0.002379,0.020871999999999998,0.006327,0.023523
724,-1.642955,-1.17455,1.252133,-0.384952,0.922516,0.027826,-0.026779,0.11358900000000001,0.007829000000000001,0.01485,-0.002625,0.022086
725,-1.6415419999999998,-1.174766,1.251053,-0.384791,0.922599,0.027268,-0.017172,0.120986,0.014296000000000001,0.012843,-0.0008470000000000001,0.0186
726,-1.6401119999999998,-1.175135,1.250019,-0.38448899999999997,0.9227420000000001,0.026694,-0.019349,0.118834,0.021761000000000003,0.00128,0.00044500000000000003,0.018579
727,-1.638913,-1.175714,1.248642,-0.38398699999999997,0.9229649999999999,0.026197,-0.026813,0.131596,0.033443,-0.010131999999999999,0.014611,0.011493000000000001
728,-1.63791,-1.176419,1.246639,-0.383364,0.9232360000000001,0.025768,-0.0385,0.147595,0.038682,-0.009748,0.02377,0.012974000000000001
729,-1.6373799999999998,-1.177074,1.244047,-0.382774,0.9234870000000001,0.025524,-0.049136,0.144177,0.032268,0.010291,0.032018,0.012241
730,-1.637359,-1.177449,1.241212,-0.38242800000000005,0.923631,0.025493000000000002,-0.054479999999999994,0.125089,0.015163999999999999,0.013807,0.034743,0.008213
731,-1.637449,-1.177446,1.2383899999999999,-0.382427,0.92363,0.025528,-0.052254999999999996,0.12728399999999998,-0.002983,0.020397,0.034545,0.005265
732,-1.637408,-1.177075,1.23568,-0.38277100000000003,0.9234879999999999,0.025535,-0.054312,0.12523800000000002,-0.022223,0.030079,0.031255,0.00132
733,-1.6377959999999998,-1.176352,1.232819,-0.383427,0.9232100000000001,0.025727999999999997,-0.05860800000000001,0.10506800000000001,-0.036114,0.026035000000000003,0.029060000000000002,-0.000398
734,-1.639088,-1.1754950000000002,1.2295049999999998,-0.384182,0.9228799999999999,0.026277,-0.069387,0.0753,-0.041492,0.022472,0.025484,-0.0017109999999999998
735,-1.640528,-1.174677,1.2264709999999999,-0.384896,0.922565,0.026882999999999997,-0.05127,0.077341,-0.034959,0.015755,0.004315,0.011188
736,-1.6395669999999998,-1.174346,1.224967,-0.38522399999999996,0.9224379999999999,0.026534,-0.021268000000000002,0.137829,-0.002781,0.015229,-0.000181,0.0010539999999999998
737,-1.63762,-1.1747809999999999,1.223739,-0.384875,0.9226059999999999,0.025757,-0.026083,0.159907,0.033397,0.017352,0.006899,-0.001068
738,-1.636686,-1.175922,1.221391,-0.383849,0.9230450000000001,0.025328,-0.050822000000000006,0.15450899999999998,0.072755,0.02394,0.016607,0.00905
739,-1.63678,-1.177661,1.217498,-0.38224600000000003,0.9237120000000001,0.025259,-0.077451,0.190715,0.099228,0.033246,0.030679,0.008631
740,-1.637122,-1.179567,1.212428,-0.38047800000000004,0.924441,0.025273,-0.096472,0.231262,0.09904299999999999,0.042923,0.037381,0.014949
741,-1.63792,-1.181125,1.2065110000000001,-0.379021,0.925034,0.025478999999999998,-0.11347,0.225019,0.0765,0.053779999999999994,0.03305,0.016131
742,-1.640065,-1.1820950000000001,1.199675,-0.37806999999999996,0.9254020000000001,0.02623,-0.131554,0.20390899999999998,0.043286,0.050921,0.026762,0.015411000000000001
743,-1.642193,-1.182451,1.192688,-0.377685,0.925537,0.027012,-0.124918,0.22956,0.016594,0.037201,0.022934,0.022229
744,-1.642754,-1.182477,1.186521,-0.377645,0.9255469999999999,0.027221,-0.110775,0.276439,0.002745,0.029133999999999997,0.020452,0.0233
745,-1.642941,-1.182337,1.1801709999999999,-0.377769,0.925494,0.027301,-0.131012,0.2776,-0.003807,0.013068999999999999,0.026349,0.027554000000000002
746,-1.6441569999999999,-1.182139,1.172383,-0.377918,0.9254190000000001,0.027774,-0.15112,0.31813400000000003,0.00027400000000000005,0.003421,0.010768999999999999,0.045377
747,-1.644049,-1.182016,1.164972,-0.37803400000000004,0.925372,0.027741000000000002,-0.12529400000000002,0.36598600000000003,-0.000675,-0.005038,0.002484,0.049651
748,-1.64126,-1.181894,1.159961,-0.378222,0.925326,0.026695,-0.07729,0.365814,0.000728,-0.022916,0.001066,0.050392
749,-1.637068,-1.181886,1.156907,-0.378337,0.925323,0.02511,-0.04539,0.343327,0.002048,-0.030139999999999997,-0.0037990000000000003,0.060842999999999994
750,-1.631825,-1.181889,1.155253,-0.37846199999999997,0.9253239999999999,0.023126,-0.018718000000000002,0.342173,0.001168,-0.036592,-0.00496,0.071463
751,-1.625217,-1.181901,1.15507,-0.378596,0.925328,0.020624,0.004685,0.32505500000000004,-0.0007830000000000001,-0.023778,-0.0038350000000000003,0.056326999999999995
752,-1.619162,-1.181735,1.155074,-0.378867,0.925266,0.018338,0.003518,0.2942,-0.009298,-0.022347,0.008251999999999999,0.06653099999999999
753,-1.613167,-1.181454,1.155253,-0.379229,0.9251590000000001,0.016078,0.008929000000000001,0.291132,-0.014769999999999998,-0.022137999999999998,0.015683000000000002,0.06853200000000001
754,-1.606878,-1.181002,1.155912,-0.379741,0.9249870000000001,0.013708000000000001,0.021726,0.279411,-0.025348,-0.028339999999999997,0.005372,0.043588999999999996
755,-1.6010659999999999,-1.180291,1.156735,-0.380471,0.924717,0.01152,0.010952,0.23691500000000001,-0.044597000000000005,-0.027061,0.006405,0.033035
756,-1.5962100000000001,-1.179058,1.157717,-0.381662,0.9242469999999999,0.009701999999999999,0.028911000000000003,0.16879,-0.073226,-0.008276,0.0006490000000000001,0.024386
757,-1.591077,-1.176925,1.1608180000000001,-0.383678,0.92343,0.007781999999999999,0.088521,0.085703,-0.126114,-0.017186,6.2e-05,0.047682999999999996
758,-1.583985,-1.173942,1.167994,-0.386477,0.9222809999999999,0.005097,0.162919,-0.012421,-0.16072,-0.011366,0.008139,0.060958000000000005
759,-1.576311,-1.170315,1.177333,-0.389847,0.9208729999999999,0.00215,0.184165,-0.064566,-0.192552,-0.010467,0.029870999999999998,0.041261
760,-1.572147,-1.166421,1.184984,-0.393434,0.9193479999999999,0.000531,0.12708,-0.19217,-0.200264,0.005235,0.046014,0.011904000000000001
761,-1.572202,-1.161983,1.189136,-0.39751,0.917593,0.000559,0.060035000000000005,-0.190725,-0.237054,0.032581,0.024378,-0.024179
762,-1.576518,-1.156493,1.189557,-0.402536,0.9153969999999999,0.002303,-0.022223,-0.271173,-0.294141,0.041696,0.028344,-0.047164
763,-1.586149,-1.150108,1.18608,-0.408331,0.912808,0.006268999999999999,-0.09386599999999999,-0.34321599999999997,-0.330869,0.031347,0.018619,-0.042950999999999996
764,-1.597032,-1.143316,1.182159,-0.414426,0.910013,0.010875,-0.074778,-0.38051999999999997,-0.342438,0.025143000000000002,-0.006357,-0.02827
765,-1.605597,-1.1369120000000001,1.181474,-0.420133,0.9073399999999999,0.014627000000000001,0.007102,-0.405449,-0.306583,0.017041999999999998,-0.034857,-0.013330000000000002
766,-1.611313,-1.1316700000000002,1.184305,-0.424791,0.905123,0.01722,0.054751,-0.42821800000000004,-0.24853699999999998,-0.031157,-0.051927999999999995,-0.029427999999999996
767,-1.6188069999999999,-1.12751,1.18634,-0.428407,0.9033469999999999,0.020584,0.012588,-0.493288,-0.189996,-0.055845000000000006,-0.05625499999999999,-0.047149
768,-1.630113,-1.124469,1.185784,-0.430889,0.9020379999999999,0.025588999999999997,-0.040297,-0.571099,-0.132582,-0.09454800000000001,-0.07635499999999999,-0.079788
769,-1.643688,-1.122466,1.184092,-0.432303,0.901172,0.031567000000000005,-0.039662,-0.611805,-0.07697799999999999,-0.094736,-0.041582999999999995,-0.069302
770,-1.655491,-1.121537,1.1841110000000001,-0.432734,0.900769,0.036738,0.022183,-0.573855,-0.030661,-0.077184,-0.019635,-0.060023
771,-1.663023,-1.1213790000000001,1.187937,-0.432587,0.9007,0.040010000000000004,0.11719600000000001,-0.536996,-0.006543000000000001,-0.021087,0.025768,-0.018785
772,-1.6656630000000001,-1.12124,1.196389,-0.432604,0.90064,0.041163,0.20383199999999999,-0.508455,-0.026271,0.079881,0.06396,0.07321699999999999
773,-1.6660700000000002,-1.119891,1.207139,-0.433796,0.9000530000000001,0.041455,0.230954,-0.514514,-0.13289600000000001,0.166507,0.16688699999999998,0.116138
774,-1.6663689999999998,-1.116107,1.217265,-0.437171,0.8983979999999999,0.041908999999999995,0.18651500000000001,-0.514029,-0.21545999999999998,0.108161,0.042719,0.06325399999999999
775,-1.671764,-1.1108120000000001,1.224477,-0.441665,0.896059,0.044746,0.092521,-0.651729,-0.33024000000000003,0.093078,0.068388,0.048104
776,-1.683732,-1.103385,1.22714,-0.44769799999999993,0.8927379999999999,0.050776999999999996,-0.019594999999999998,-0.7341810000000001,-0.392874,-0.04481,0.09548200000000001,0.020603
777,-1.696207,-1.096173,1.227652,-0.45340600000000003,0.889465,0.057162,-0.023355,-0.563954,-0.335435,-0.105798,0.107743,0.017179
778,-1.7016630000000001,-1.090703,1.2298559999999998,-0.457905,0.8869520000000001,0.060269,0.049122000000000006,-0.250322,-0.24239499999999997,-0.10343499999999999,0.09251000000000001,0.017337
779,-1.698736,-1.087369,1.235272,-0.46101000000000003,0.8854069999999999,0.059305,0.127621,-0.018744999999999998,-0.147072,-0.038745999999999996,0.02452,0.017172
780,-1.692302,-1.085633,1.241407,-0.46290699999999996,0.884599,0.056524,0.124589,0.080088,-0.085263,0.007478,-0.023499000000000003,0.028497
781,-1.685972,-1.08427,1.2467,-0.464454,0.883962,0.053732,0.109624,0.07481,-0.08429199999999999,0.02529,-0.051946000000000006,0.0348
782,-1.6804560000000002,-1.082667,1.251715,-0.46615,0.8832120000000001,0.051324,0.106313,0.042893,-0.091752,0.017725,-0.100695,0.024848
783,-1.67638,-1.080926,1.255965,-0.46788500000000005,0.882394,0.049585000000000004,0.077306,-0.0038689999999999996,-0.09403099999999999,-0.022334,-0.09223200000000001,-0.0037170000000000003
784,-1.67482,-1.07933,1.258631,-0.46936000000000005,0.881642,0.049002,0.044979000000000005,-0.061337,-0.080296,-0.057617999999999996,-0.07219400000000001,-0.021672999999999998
785,-1.6757689999999998,-1.078209,1.259974,-0.470296,0.8811120000000001,0.049551,0.017819,-0.133827,-0.044074,-0.086497,-0.063653,-0.033819
786,-1.6797919999999997,-1.077899,1.2595319999999999,-0.470365,0.880966,0.051472000000000004,-0.027545999999999998,-0.20313,0.010178,-0.112078,-0.062637,-0.035114
787,-1.686582,-1.078899,1.2568979999999998,-0.469129,0.8814379999999999,0.054563,-0.069637,-0.231001,0.090036,-0.12691,-0.06642100000000001,-0.013364
788,-1.694625,-1.08142,1.253074,-0.46646800000000005,0.882626,0.058059000000000006,-0.067849,-0.23237600000000003,0.165894,-0.12192599999999999,-0.059552,-0.005248
789,-1.7009310000000002,-1.0853620000000002,1.25108,-0.462638,0.884473,0.060547000000000004,0.010820999999999999,-0.230777,0.230535,-0.080087,-0.042279000000000004,-0.03685
