,attitude.roll,attitude.pitch,attitude.yaw,gravity.x,gravity.y,gravity.z,rotationRate.x,rotationRate.y,rotationRate.z,userAcceleration.x,userAcceleration.y,userAcceleration.z
0,-1.478522,-1.299252,-2.701546,-0.267052,0.963358,-0.024712,-0.147287,0.185952,0.068923,0.027138,0.009984999999999999,0.07914
1,-1.4862959999999998,-1.301252,-2.714079,-0.265315,0.963892,-0.022473,-0.173815,0.233918,0.084699,0.024378999999999998,0.0010279999999999998,0.10180299999999999
2,-1.49494,-1.303502,-2.727616,-0.263335,0.9644889999999999,-0.020013999999999997,-0.16961400000000001,0.222173,0.087948,0.005614,0.010043999999999999,0.093302
3,-1.5029629999999998,-1.305624,-2.740519,-0.261446,0.965047,-0.017762,-0.14713800000000002,0.23170700000000002,0.081684,0.001299,0.012506999999999999,0.083222
4,-1.5080790000000002,-1.307566,-2.751096,-0.259662,0.9655540000000001,-0.016307,-0.11173499999999999,0.277382,0.084009,0.005909,0.007178,0.079386
5,-1.510134,-1.309639,-2.75965,-0.257696,0.9660920000000001,-0.015652000000000003,-0.085862,0.353923,0.10118300000000001,0.026998,0.005267,0.075039
6,-1.5097530000000001,-1.3121399999999999,-2.7667650000000004,-0.255278,0.966734,-0.015602000000000001,-0.069922,0.363361,0.12478299999999999,0.021544,0.005525,0.072167
7,-1.508673,-1.3146879999999999,-2.7724189999999997,-0.252801,0.967383,-0.015725,-0.049862000000000004,0.313236,0.12178299999999999,0.0151,0.010369,0.070046
8,-1.507375,-1.317166,-2.777103,-0.25038699999999997,0.968008,-0.015901,-0.029658999999999998,0.29825100000000004,0.12194300000000001,0.041968,0.01977,0.069597
9,-1.503226,-1.3197,-2.77877,-0.24786999999999998,0.968641,-0.016774,-0.012675,0.276895,0.119953,0.03916,0.020175,0.06650299999999999
10,-1.49994,-1.322065,-2.780079,-0.24552800000000002,0.969225,-0.017426,-0.001208,0.201284,0.10410699999999999,0.036132,0.01721,0.061326
11,-1.49809,-1.3239020000000001,-2.7810580000000003,-0.24371900000000002,0.969676,-0.017751,0.015597999999999999,0.112927,0.074427,0.023077,0.004613,0.050237000000000004
12,-1.49453,-1.3251030000000001,-2.778913,-0.242493,0.9699690000000001,-0.01853,0.040011,0.057558000000000005,0.046895,0.020462,0.0009630000000000001,0.049338
13,-1.490707,-1.325958,-2.775461,-0.241594,0.970176,-0.019391,0.06227100000000001,0.008546,0.030021,0.022371000000000002,-0.006691,0.047939999999999997
14,-1.4875530000000001,-1.326571,-2.771623,-0.240938,0.970325,-0.020103,0.066385,-0.037229000000000005,0.018358000000000003,0.028658,-0.004337,0.060203
15,-1.484224,-1.326824,-2.767097,-0.24062600000000003,0.9703860000000001,-0.020884,0.055659,-0.057402,0.010832,0.026895999999999996,-0.002872,0.064951
16,-1.484342,-1.327014,-2.76575,-0.240446,0.970432,-0.020839,0.030054,-0.071105,-0.0032159999999999997,0.011045000000000001,0.00227,0.07484
17,-1.485801,-1.326741,-2.765232,-0.24074,0.970366,-0.020511,0.006459,-0.118879,-0.023615999999999998,0.012758,-0.00125,0.07280299999999999
18,-1.489487,-1.326116,-2.765578,-0.24141700000000002,0.9702149999999999,-0.019673,0.008329000000000001,-0.19233,-0.038464,0.018838,0.00010700000000000001,0.059636
19,-1.494158,-1.325768,-2.766291,-0.241844,0.9701299999999999,-0.018571,0.024274,-0.187132,-0.0202,0.026054,0.0049369999999999995,0.043397000000000005
20,-1.495215,-1.32511,-2.763374,-0.242502,0.9699709999999999,-0.018364,0.075551,-0.192557,-0.040131,0.009699,0.015274000000000001,0.045265
21,-1.492226,-1.324077,-2.7558700000000003,-0.243443,0.969719,-0.019167,0.119148,-0.231033,-0.046186000000000005,0.014393000000000001,0.015236000000000001,0.050508
22,-1.488746,-1.3231959999999998,-2.746542,-0.244227,0.9695030000000001,-0.020084,0.14869000000000002,-0.297214,-0.038418,0.021448,0.010782,0.057377
23,-1.483026,-1.322481,-2.734115,-0.24479800000000002,0.9693280000000001,-0.021541,0.167754,-0.31650300000000003,-0.026508999999999998,0.01735,0.008639,0.055523
24,-1.476227,-1.3216629999999998,-2.7209060000000003,-0.245435,0.969126,-0.023280000000000002,0.18183,-0.281355,-0.037138,0.008497,0.0016989999999999998,0.048014999999999995
25,-1.4678579999999999,-1.320582,-2.707229,-0.24627399999999997,0.968859,-0.025441,0.199254,-0.21637800000000001,-0.050987,0.01431,-0.002535,0.045079
26,-1.456727,-1.319225,-2.6917709999999997,-0.24728200000000003,0.9685229999999999,-0.02833,0.21653000000000003,-0.173814,-0.054125,0.019544,0.004561,0.061045
27,-1.4440899999999999,-1.317666,-2.67524,-0.248403,0.968133,-0.031644,0.22297399999999998,-0.167432,-0.057293,0.018575,0.004325,0.071255
28,-1.434032,-1.316182,-2.6609220000000002,-0.24949699999999997,0.9677610000000001,-0.034337,0.20894200000000002,-0.196176,-0.049877,0.007981,-0.0077540000000000005,0.075566
29,-1.422234,-1.314216,-2.643881,-0.25095500000000004,0.9672629999999999,-0.037558999999999995,0.241862,-0.253722,-0.073074,0.013162,0.000327,0.0765
30,-1.410793,-1.312102,-2.626455,-0.25252800000000003,0.966725,-0.040754000000000005,0.243904,-0.271847,-0.0709,0.018443,-0.004353,0.07610800000000001
31,-1.4008450000000001,-1.310219,-2.610561,-0.253905,0.966241,-0.043572,0.241823,-0.255878,-0.066662,0.014021,-0.002573,0.068016
32,-1.39147,-1.3083360000000002,-2.5958490000000003,-0.255274,0.9657549999999999,-0.046275,0.200321,-0.22062600000000002,-0.055247000000000004,0.022288,0.024755000000000003,0.06421900000000001
33,-1.380019,-1.30626,-2.5794040000000003,-0.256696,0.9652139999999999,-0.049575,0.275088,-0.21232199999999998,-0.06541699999999999,0.00073,0.007885,0.07333300000000001
34,-1.3658569999999999,-1.304101,-2.560767,-0.258008,0.9646469999999999,-0.053628999999999996,0.28484299999999996,-0.174023,-0.061125,0.009534,-0.000795,0.078012
35,-1.349653,-1.301942,-2.541471,-0.259137,0.964076,-0.058259000000000005,0.278916,-0.060052,-0.052766999999999994,0.0036899999999999997,0.013447999999999998,0.09459
36,-1.331619,-1.299892,-2.522564,-0.259964,0.9635290000000001,-0.063391,0.32516,0.006959,-0.067485,-0.015015,-0.038007,0.09375599999999999
37,-1.3093219999999999,-1.296909,-2.499784,-0.261262,0.962727,-0.069914,0.356306,0.055840999999999995,-0.064125,-0.008711,-0.003788,0.10865599999999999
38,-1.286693,-1.294178,-2.479133,-0.26213600000000004,0.9619850000000001,-0.076544,0.32703699999999997,0.198656,-0.055966999999999996,-0.008387,0.019858,0.124655
39,-1.26271,-1.291674,-2.45948,-0.262519,0.961298,-0.083539,0.324153,0.280646,-0.044342,-0.038293,-0.046991000000000005,0.12991
40,-1.236505,-1.288402,-2.438561,-0.26321100000000003,0.960391,-0.09142,0.361815,0.3434,-0.052704999999999995,-0.059024,-0.003604,0.103093
41,-1.2088649999999999,-1.285361,-2.417288,-0.263315,0.9595389999999999,-0.09969299999999999,0.406532,0.342102,-0.033163,-0.054068,0.017832,0.042778
42,-1.177157,-1.281558,-2.391096,-0.26339,0.958461,-0.10939000000000002,0.43750900000000004,0.34415,-0.039358,-0.073692,3.5e-05,0.054474
43,-1.1477600000000001,-1.2773889999999999,-2.36616,-0.263703,0.9572639999999999,-0.118724,0.44770299999999996,0.2482,-0.02955,-0.06304900000000001,0.028957,0.00175
44,-1.119872,-1.272825,-2.342246,-0.264221,0.9559340000000001,-0.127934,0.438346,0.285586,-0.046755,-0.023118,0.013686000000000002,-0.036266
45,-1.091582,-1.268349,-2.319666,-0.264291,0.9546100000000001,-0.137329,0.403489,0.384694,-0.025761000000000003,-0.00759,0.007258,-0.074402
46,-1.0615649999999999,-1.264931,-2.297903,-0.262898,0.9535870000000001,-0.146789,0.35152,0.50292,0.023931,-0.001644,0.018550999999999998,-0.11619600000000001
47,-1.0333,-1.2623030000000002,-2.2795400000000003,-0.260795,0.952792,-0.155442,0.278204,0.560736,0.014799000000000001,-0.027489,0.01286,-0.145125
48,-1.008751,-1.259731,-2.265707,-0.258975,0.952008,-0.163103,0.23139099999999999,0.568442,-0.006903,-0.05148,0.020053,-0.169356
49,-0.987346,-1.257031,-2.254408,-0.25756799999999996,0.9511780000000001,-0.170024,0.213024,0.49615299999999996,-0.028303,-0.061127,0.035043,-0.166494
50,-0.970676,-1.253692,-2.245048,-0.257319,0.950142,-0.176087,0.20920100000000003,0.308873,-0.07722799999999999,-0.071508,0.044014,-0.10379000000000001
51,-0.95896,-1.249233,-2.237041,-0.258704,0.948743,-0.18152100000000002,0.227958,0.163053,-0.123911,-0.07058099999999999,0.046192000000000004,-0.055189
52,-0.948304,-1.244975,-2.230276,-0.260035,0.9473879999999999,-0.186621,0.171717,0.264314,-0.090251,-0.030614999999999996,-0.007828,-0.026621
53,-0.937183,-1.242649,-2.226354,-0.25971900000000003,0.946641,-0.190806,0.06009400000000001,0.41572200000000004,-0.0282,0.000731,-0.07454,-0.0033009999999999997
54,-0.9285530000000001,-1.242404,-2.2263610000000003,-0.258248,0.9465620000000001,-0.193179,-0.025351,0.428667,0.005370000000000001,-0.010139,-0.065611,-0.011059999999999999
55,-0.9228780000000001,-1.24316,-2.228791,-0.256577,0.9468059999999999,-0.194209,-0.074738,0.380816,0.026451,-0.021286000000000003,-0.047773,-0.034367
56,-0.918646,-1.244753,-2.2318290000000003,-0.25455300000000003,0.947317,-0.194378,-0.096373,0.34243,0.054123000000000004,-0.007242,-0.043829,-0.039235
57,-0.9144479999999999,-1.2468,-2.234008,-0.252198,0.9479709999999999,-0.194261,-0.087063,0.294392,0.071341,0.013307,-0.044788,-0.027816000000000004
58,-0.910294,-1.24865,-2.235065,-0.250004,0.948558,-0.194231,-0.063849,0.23361300000000002,0.067304,0.01659,-0.033092,-0.016768
59,-0.9066719999999999,-1.249839,-2.235268,-0.24841,0.948934,-0.194439,-0.029914999999999997,0.16328399999999998,0.043062,-0.0036799999999999997,-0.012685,-0.028049
60,-0.903114,-1.250149,-2.234197,-0.24748499999999998,0.949032,-0.195139,0.010477,0.10783800000000002,0.020982,-0.009183,0.008915000000000001,-0.06423
61,-0.898466,-1.2499120000000001,-2.2313680000000002,-0.24675,0.9489569999999999,-0.196426,0.050994,0.099187,0.018072,0.000397,0.019122,-0.070435
62,-0.8919600000000001,-1.2494120000000002,-2.2272689999999997,-0.245835,0.948799,-0.198325,0.068284,0.153435,0.023464,0.00232,0.022300999999999998,-0.06552999999999999
63,-0.883806,-1.2488299999999999,-2.222654,-0.24463800000000002,0.948615,-0.200674,0.062084,0.205625,0.030831,0.0064329999999999995,0.011438,-0.048548
64,-0.8755700000000001,-1.2485680000000001,-2.2185580000000003,-0.243167,0.9485319999999999,-0.20284000000000002,0.040756,0.213135,0.036014,0.003635,0.004547,-0.033473
65,-0.868556,-1.248515,-2.215239,-0.241777,0.948515,-0.204574,0.026753,0.174868,0.027419,-0.0007610000000000001,0.001009,-0.02974
66,-0.863408,-1.248398,-2.212829,-0.24080500000000002,0.948478,-0.205887,0.025499,0.118473,0.012528000000000001,-0.0008789999999999999,-0.0020210000000000002,-0.02362
67,-0.859848,-1.248026,-2.21087,-0.240337,0.9483600000000001,-0.206973,0.026336000000000002,0.055665,0.0008640000000000001,0.009120999999999999,-0.018093,-0.015759
68,-0.858567,-1.247717,-2.209962,-0.240294,0.948262,-0.207473,0.011174,0.002467,-0.002379,0.01013,-0.015966,-0.016893000000000002
69,-0.859239,-1.247711,-2.210143,-0.240438,0.94826,-0.207315,-0.012503,-0.043257,-0.002486,0.00797,-0.013736000000000002,-0.018469
70,-0.8611219999999999,-1.247658,-2.210632,-0.240866,0.9482430000000001,-0.206895,-0.006274,-0.087995,-0.008794,-0.001459,-0.006334,-0.033003
71,-0.863243,-1.24725,-2.210763,-0.241598,0.9481139999999999,-0.20663499999999999,0.018249,-0.10400899999999999,-0.021421,-0.0049689999999999995,-0.001657,-0.038254
72,-0.8643270000000001,-1.246476,-2.209869,-0.24237899999999998,0.947868,-0.206848,0.042845,-0.09025,-0.020199,-0.003196,0.000405,-0.037903
73,-0.8634870000000001,-1.245495,-2.207309,-0.24291100000000002,0.9475540000000001,-0.207655,0.06313400000000001,-0.076511,-0.010461,-0.0029850000000000002,-0.006179,-0.023500999999999998
74,-0.8617819999999999,-1.2443549999999999,-2.203933,-0.243375,0.94719,-0.208771,0.078027,-0.08190700000000001,-0.006077,-0.006456999999999999,-0.0038,-0.015762
75,-0.860001,-1.24326,-2.199934,-0.243788,0.946838,-0.20988,0.079974,-0.114971,0.002525,-0.009889,0.008896,-0.012975
76,-0.859087,-1.24225,-2.19602,-0.244321,0.9465120000000001,-0.21072800000000003,0.06698,-0.156476,0.003556,-0.016299,0.020269,-0.01614
77,-0.859757,-1.241517,-2.193192,-0.24498699999999998,0.946276,-0.211017,0.044504,-0.173438,0.002352,-0.005501,0.015347999999999999,-0.010144
78,-0.861941,-1.2412450000000002,-2.191831,-0.245642,0.9461879999999999,-0.210648,0.012479,-0.173343,0.0064010000000000004,-0.000131,0.009637999999999999,-0.008636
79,-0.8648170000000001,-1.2412459999999998,-2.191392,-0.246246,0.9461879999999999,-0.20994000000000002,-0.0024,-0.16156900000000002,0.005214,-0.007828,0.001993,-0.0036829999999999996
80,-0.868346,-1.241293,-2.191536,-0.24695100000000003,0.946203,-0.20904099999999998,-0.007781999999999999,-0.176447,0.000923,-0.0053219999999999995,-0.007986,-0.006779
81,-0.872676,-1.241449,-2.192085,-0.247741,0.946254,-0.207875,-0.015336,-0.197717,-0.001239,-0.003968,-0.010112000000000001,-0.011409
82,-0.8777940000000001,-1.24171,-2.193003,-0.248612,0.9463379999999999,-0.206447,-0.023991,-0.22325799999999998,-0.000199,-0.0019370000000000001,-0.011829000000000001,-0.0076950000000000005
83,-0.8836370000000001,-1.2420309999999999,-2.194314,-0.249579,0.946442,-0.204798,-0.031497000000000004,-0.23069299999999998,0.000826,-0.00834,-0.012268000000000001,-0.001761
84,-0.889983,-1.242516,-2.196243,-0.25051599999999996,0.9465979999999999,-0.20291900000000002,-0.046395,-0.222119,0.000711,-0.009616,-0.012912999999999999,-0.001884
85,-0.896857,-1.2432159999999999,-2.1989349999999996,-0.251386,0.946824,-0.20077899999999999,-0.065565,-0.213534,0.0016350000000000002,-0.008715,-0.009034,-0.014416
86,-0.904307,-1.244181,-2.202527,-0.252156,0.947134,-0.19833499999999998,-0.085768,-0.19748800000000002,0.002541,-0.008937,-0.002157,-0.019988
87,-0.912602,-1.245306,-2.2072119999999997,-0.25295,0.9474940000000001,-0.19558499999999998,-0.101719,-0.19102,-0.00292,-0.012004,-0.000732,-0.022158
88,-0.921852,-1.246531,-2.2129529999999997,-0.253822,0.9478850000000001,-0.19253399999999998,-0.118779,-0.192012,-0.006242,-0.009819,-0.003107,-0.021775
89,-0.9318219999999999,-1.247868,-2.219451,-0.254711,0.94831,-0.189237,-0.129462,-0.19411,-0.005246,-0.008579999999999999,-0.000724,-0.028612000000000002
90,-0.941809,-1.249399,-2.226105,-0.255412,0.948795,-0.185829,-0.13688699999999998,-0.177069,0.0021579999999999998,-0.010503,-0.001255,-0.032982
91,-0.951312,-1.25102,-2.232627,-0.255914,0.949306,-0.1825,-0.135791,-0.162193,0.010692,-0.017935,0.004613,-0.037226
92,-0.960039,-1.252734,-2.238711,-0.256164,0.949843,-0.179327,-0.131471,-0.138819,0.022443,-0.021866,-0.001006,-0.032541
93,-0.9673870000000001,-1.25458,-2.244023,-0.25603000000000004,0.950419,-0.17644400000000002,-0.12389700000000001,-0.10267799999999999,0.035268,-0.019497999999999998,-0.013026,-0.027398000000000002
94,-0.9730489999999999,-1.256533,-2.248327,-0.25549,0.951024,-0.17394600000000002,-0.113133,-0.067617,0.049186,-0.020388999999999997,-0.01296,-0.024967
95,-0.9773649999999999,-1.258549,-2.251847,-0.254648,0.9516450000000001,-0.171769,-0.107698,-0.035716000000000005,0.058797,-0.028631999999999998,-0.002579,-0.026213999999999998
96,-0.9813370000000001,-1.2606190000000002,-2.255768,-0.253689,0.9522790000000001,-0.16965999999999998,-0.121399,-0.000505,0.05651900000000001,-0.032626999999999996,0.008536,-0.029254000000000002
97,-0.9860610000000001,-1.2628409999999999,-2.2610930000000002,-0.25272100000000003,0.9529549999999999,-0.167291,-0.144726,0.02623,0.050981,-0.027721,0.011446,-0.036627999999999994
98,-0.99185,-1.265218,-2.268006,-0.251788,0.953673,-0.16458399999999998,-0.170235,0.045502999999999995,0.048642000000000005,-0.009916,0.000947,-0.039425999999999996
99,-0.998974,-1.267963,-2.276627,-0.250751,0.9544950000000001,-0.161369,-0.194725,0.057302,0.049524,-0.0057799999999999995,-0.002225,-0.041436
100,-1.007413,-1.270866,-2.2867290000000002,-0.24975999999999998,0.955357,-0.15776700000000002,-0.218191,0.05951,0.050425,-0.008404,-6.500000000000001e-05,-0.031961
101,-1.0164739999999999,-1.273937,-2.297564,-0.24868200000000001,0.95626,-0.153951,-0.229908,0.07017899999999999,0.056739,-0.008535,0.0009550000000000001,-0.027186000000000002
102,-1.025307,-1.2774530000000002,-2.308837,-0.247156,0.957282,-0.150003,-0.240423,0.11809700000000001,0.070491,-0.008015999999999999,0.01043,-0.028418000000000002
103,-1.033405,-1.2810979999999998,-2.32043,-0.245363,0.9583299999999999,-0.146209,-0.250919,0.160728,0.07463600000000001,-0.013518,0.02783,-0.028718
104,-1.041483,-1.284891,-2.332707,-0.243396,0.959407,-0.14238499999999998,-0.247565,0.196927,0.076749,-0.017758000000000003,0.022680000000000002,-0.030741
105,-1.048403,-1.2884149999999999,-2.344384,-0.241443,0.9603950000000001,-0.139009,-0.227156,0.219261,0.06831799999999999,-0.014157,0.019540000000000002,-0.029173
106,-1.0540040000000002,-1.2915020000000001,-2.3549130000000003,-0.239639,0.96125,-0.136189,-0.200431,0.22451999999999997,0.062088,-0.018906,0.018196,-0.01852
107,-1.058586,-1.294289,-2.364404,-0.237923,0.962015,-0.133775,-0.180108,0.231923,0.057948,-0.018883,0.016608,-0.004561
108,-1.062106,-1.296929,-2.373405,-0.236172,0.9627319999999999,-0.131699,-0.17139100000000002,0.272373,0.057957,-0.023303,0.011389,0.002183
109,-1.064344,-1.299455,-2.3820959999999998,-0.234339,0.963412,-0.12999000000000002,-0.169012,0.32563000000000003,0.056839,-0.024313,0.004453,0.025498
110,-1.065504,-1.302022,-2.390818,-0.23232399999999997,0.964097,-0.12852,-0.16129000000000002,0.38312399999999996,0.057888,-0.025824,0.00685,0.033947000000000005
111,-1.0647719999999998,-1.304446,-2.398637,-0.230185,0.9647379999999999,-0.127557,-0.144014,0.429932,0.05901699999999999,-0.02276,0.007277,0.044702
112,-1.062189,-1.3066959999999999,-2.4052439999999997,-0.227958,0.9653280000000001,-0.127094,-0.123628,0.460732,0.064461,-0.018655,0.0034990000000000004,0.066013
113,-1.058151,-1.308812,-2.4109529999999997,-0.225661,0.965878,-0.12701099999999999,-0.108563,0.48519799999999996,0.060262,-0.023408,0.000553,0.07391
114,-1.053547,-1.310605,-2.416212,-0.22356900000000002,0.966341,-0.127192,-0.096741,0.486295,0.042183,-0.023913,0.002196,0.077952
115,-1.0493540000000001,-1.312165,-2.421868,-0.22172600000000003,0.966741,-0.127377,-0.086024,0.489483,0.034776,-0.019455,0.006175,0.08480499999999999
116,-1.0441770000000001,-1.313451,-2.4269119999999997,-0.219989,0.9670690000000001,-0.127898,-0.071978,0.518239,0.024155000000000003,-0.015714,0.011141,0.08673
117,-1.037367,-1.314475,-2.4310080000000003,-0.21825999999999998,0.9673290000000001,-0.12889,-0.060070000000000005,0.551243,0.018855,-0.01874,0.010103000000000001,0.089491
118,-1.030777,-1.3153920000000001,-2.435667,-0.21664499999999998,0.967561,-0.129869,-0.049339,0.561871,0.015712,-0.008483,0.004515,0.10133500000000001
119,-1.023098,-1.3160040000000002,-2.4392840000000002,-0.215135,0.967716,-0.13122,-0.037531,0.565077,0.002972,-0.009871,0.0044670000000000005,0.11931800000000001
120,-1.014681,-1.31627,-2.442154,-0.21380500000000002,0.967783,-0.13289,-0.026829000000000002,0.556581,-0.012966,-0.011384,0.008688,0.124483
121,-1.007763,-1.316235,-2.4461150000000003,-0.21290900000000001,0.967774,-0.134385,-0.012994,0.534222,-0.027795999999999998,0.006365999999999999,0.006439,0.127289
122,-1.000427,-1.315949,-2.449121,-0.21215100000000003,0.9677020000000001,-0.13609300000000002,-0.00245,0.504366,-0.02982,0.018441,0.009349,0.117401
123,-0.9928319999999999,-1.315642,-2.4512150000000004,-0.21136100000000002,0.9676239999999999,-0.137863,0.01339,0.47445699999999996,-0.023262,0.031276,0.009426,0.10766600000000001
124,-0.9840690000000001,-1.315317,-2.451603,-0.210407,0.967542,-0.13988399999999998,0.031388,0.457294,-0.009228,0.034839,0.010409,0.10198099999999999
125,-0.9740260000000001,-1.31512,-2.45045,-0.20914899999999997,0.967492,-0.142097,0.0494,0.441205,0.002669,0.040768,0.0129,0.09590900000000001
126,-0.960794,-1.3146209999999998,-2.445257,-0.20764499999999997,0.967366,-0.145128,0.10361300000000001,0.41219300000000003,0.01804,0.040531,0.01855,0.08188
127,-0.945356,-1.313925,-2.437675,-0.20592600000000003,0.96719,-0.14871099999999998,0.128084,0.401437,0.022498,0.036798000000000004,0.016957,0.081679
128,-0.9290309999999999,-1.313073,-2.4287520000000002,-0.204131,0.966973,-0.15254500000000001,0.138638,0.380078,0.026872000000000004,0.040694,0.012138,0.073322
129,-0.912617,-1.311983,-2.419203,-0.202433,0.966694,-0.15652,0.139585,0.349198,0.022645,0.041835000000000004,0.009731,0.065501
130,-0.8975620000000001,-1.3111629999999999,-2.410627,-0.200675,0.966484,-0.160044,0.13628800000000002,0.325782,0.020516,0.040045,0.005882,0.041682
131,-0.884016,-1.3100459999999998,-2.402252,-0.199323,0.966197,-0.163432,0.132795,0.25656799999999996,0.016307,0.040570999999999996,0.012059,0.033748
132,-0.871612,-1.308802,-2.394017,-0.198201,0.965875,-0.166666,0.142172,0.196918,0.006834999999999999,0.037433999999999995,0.015738,0.014597
133,-0.860024,-1.307123,-2.385161,-0.197485,0.9654389999999999,-0.170009,0.160045,0.130838,-0.000433,0.04244,0.019592,0.005443
134,-0.8484459999999999,-1.305082,-2.37532,-0.196983,0.9649049999999999,-0.17358800000000002,0.183334,0.089215,-0.001285,0.03971,0.019272,-0.007061
135,-0.8363360000000001,-1.3026200000000001,-2.364127,-0.196629,0.964256,-0.177552,0.21197600000000003,0.050774,-0.003172,0.034229,0.02398,-0.016692
136,-0.82386,-1.2995780000000001,-2.351685,-0.19655,0.9634450000000001,-0.181983,0.242781,0.010228000000000001,-0.013587,0.025438,0.029733999999999997,-0.030418999999999998
137,-0.811052,-1.2959049999999999,-2.338161,-0.196768,0.962455,-0.186922,0.274652,-0.028199000000000002,-0.021861000000000002,0.017736000000000002,0.029213999999999997,-0.040037
138,-0.798355,-1.291682,-2.3239799999999997,-0.19728800000000002,0.9613,-0.192241,0.293746,-0.057011,-0.025963999999999997,0.016975,0.027652999999999997,-0.049657
139,-0.7863020000000001,-1.287601,-2.3100419999999997,-0.197732,0.960168,-0.197375,0.273355,-0.068718,-0.011136,0.027429000000000002,0.023597,-0.06519900000000001
140,-0.773733,-1.283942,-2.29617,-0.19769,0.959139,-0.20235699999999998,0.264864,-0.029393,0.018664,0.018933000000000002,0.030485,-0.063238
141,-0.759369,-1.2806469999999999,-2.2803720000000003,-0.196939,0.958201,-0.20746799999999999,0.28165999999999997,-0.046671,0.062601,0.020455,0.029043,-0.062262
142,-0.742713,-1.277349,-2.261393,-0.19559300000000002,0.957252,-0.213046,0.321832,-0.102313,0.089658,0.007084999999999999,0.02079,-0.051023
143,-0.724448,-1.273465,-2.2393669999999997,-0.194132,0.9561219999999999,-0.21936599999999998,0.37161500000000003,-0.161163,0.111446,-0.006979000000000001,0.018244,-0.025294
144,-0.704788,-1.269348,-2.215534,-0.192331,0.954907,-0.22613699999999998,0.388651,-0.141094,0.13931300000000002,-0.021933,0.026614,-0.014006000000000001
145,-0.68271,-1.265415,-2.190139,-0.18966,0.953732,-0.23324,0.388733,-0.09009299999999999,0.17236300000000002,-0.04621,0.022403,-0.01267
146,-0.66008,-1.26167,-2.164892,-0.186522,0.9526,-0.240292,0.377069,-0.062402,0.183996,-0.07128999999999999,0.007909999999999999,-0.011646
147,-0.6389859999999999,-1.257991,-2.141836,-0.183502,0.9514739999999999,-0.246984,0.34533200000000003,-0.030222000000000002,0.15596,-0.07524199999999999,0.004581,-0.008494
148,-0.620753,-1.254899,-2.122353,-0.180679,0.950518,-0.252681,0.267585,-0.004366,0.151111,-0.066163,-0.001086,-0.000874
149,-0.606273,-1.253668,-2.107488,-0.177668,0.9501350000000001,-0.256233,0.132165,0.032246,0.170414,-0.032781,-0.039811,0.022422
150,-0.5962430000000001,-1.2546540000000002,-2.0974150000000003,-0.17456300000000002,0.950442,-0.257226,0.0051270000000000005,0.024128999999999998,0.179151,-0.023435,-0.065966,0.025949
151,-0.589913,-1.257187,-2.091025,-0.171592,0.951226,-0.256325,-0.08024099999999999,0.014861000000000001,0.173226,-0.015816999999999998,-0.030816000000000003,0.007317000000000001
152,-0.58541,-1.260985,-2.0865270000000002,-0.168438,0.952391,-0.25408200000000003,-0.138904,0.001286,0.15574200000000002,-0.018969999999999997,-0.031981,0.005072999999999999
153,-0.584862,-1.264748,-2.085556,-0.166318,0.9535319999999999,-0.251183,-0.146276,-0.026188999999999997,0.10658699999999999,-0.030474,-0.027170999999999997,-0.017615000000000002
154,-0.587408,-1.267447,-2.087191,-0.16552999999999998,0.954341,-0.248615,-0.10878299999999999,-0.060135,0.038526,-0.052182000000000006,-0.015285,-0.032742
155,-0.592132,-1.268609,-2.090476,-0.16608299999999998,0.9546879999999999,-0.24690900000000002,-0.05522899999999999,-0.084537,-0.032639,-0.05751900000000001,-0.007209,-0.030892000000000003
156,-0.5982850000000001,-1.268134,-2.095138,-0.167854,0.9545459999999999,-0.246257,0.000493,-0.081331,-0.08352899999999999,-0.060691999999999996,0.0016,-0.0277
157,-0.604306,-1.266277,-2.099951,-0.17034000000000002,0.953991,-0.24669899999999997,0.03802,-0.061136,-0.104657,-0.015237,-0.001446,-0.016057
158,-0.609194,-1.264242,-2.104158,-0.172655,0.9533790000000001,-0.247455,0.043474,-0.03134,-0.101452,-0.005095000000000001,0.000173,-0.013897
159,-0.613045,-1.262667,-2.107976,-0.17447000000000001,0.9529030000000001,-0.248016,0.015778999999999998,0.0038079999999999998,-0.076054,0.007859,0.00361,-0.012938999999999999
160,-0.6161979999999999,-1.261943,-2.111805,-0.17565,0.952683,-0.24802800000000003,-0.023684999999999998,0.041088,-0.041124,0.022924,0.002426,-0.017505
161,-0.617587,-1.262285,-2.1146689999999997,-0.175806,0.952787,-0.24751900000000002,-0.050318,0.08153400000000001,-0.009316,0.021249,0.007525,-0.019083000000000003
162,-0.617208,-1.263159,-2.116323,-0.175229,0.953052,-0.246905,-0.050318,0.104876,0.014155000000000001,0.012112000000000001,0.00958,-0.020429
163,-0.614926,-1.264075,-2.116161,-0.17416099999999998,0.9533290000000001,-0.24659,-0.028005000000000002,0.101534,0.031407,-0.003604,0.002589,-0.019584999999999998
164,-0.6111949999999999,-1.264614,-2.114213,-0.17294400000000001,0.953491,-0.24681599999999998,0.004986,0.08755299999999999,0.035927999999999995,-0.022384,0.009734999999999999,-0.014613
165,-0.60698,-1.264543,-2.111389,-0.171941,0.95347,-0.24759899999999999,0.035892,0.067255,0.023351,-0.034724,0.018164,-0.009298
166,-0.603093,-1.2638770000000001,-2.108764,-0.17133800000000002,0.953269,-0.24879,0.053072,0.072599,0.0042369999999999994,-0.043857,0.020395,-0.0024920000000000003
167,-0.599526,-1.262886,-2.106902,-0.170982,0.9529690000000001,-0.250178,0.052182000000000006,0.100346,-0.007556,-0.034661000000000004,0.011814,0.0027719999999999997
168,-0.596575,-1.262106,-2.1061509999999997,-0.17065999999999998,0.952732,-0.251296,0.026664,0.116428,-0.010959,-0.017405,0.004207,0.004637
169,-0.5948359999999999,-1.261833,-2.106718,-0.17036800000000002,0.952649,-0.251807,-0.0075049999999999995,0.112277,-0.009056,0.00035499999999999996,-0.005063000000000001,0.010077
170,-0.594294,-1.262181,-2.108498,-0.170045,0.9527549999999999,-0.25162399999999996,-0.041638999999999995,0.113462,-0.009295999999999999,0.007539,-0.0019649999999999997,0.009772
171,-0.595246,-1.262959,-2.1118419999999998,-0.16986800000000002,0.952991,-0.250847,-0.070426,0.116763,-0.010569,0.017494,-0.005558,0.0102
172,-0.5967939999999999,-1.264224,-2.115793,-0.169578,0.9533739999999999,-0.249586,-0.09394,0.10831800000000001,-0.009655,0.021568,-0.006367,0.005186
173,-0.599155,-1.265849,-2.120303,-0.169293,0.9538629999999999,-0.24790399999999999,-0.110019,0.090269,-0.010812,0.025342,0.0004980000000000001,-0.000173
174,-0.6022350000000001,-1.2676450000000001,-2.125207,-0.16908499999999999,0.9544,-0.245969,-0.115416,0.074317,-0.012966,0.021349,0.004248,-0.0027649999999999997
175,-0.605721,-1.269368,-2.130274,-0.169004,0.9549129999999999,-0.244025,-0.110125,0.06258899999999999,-0.01505,0.020413999999999998,0.006711,-0.003686
176,-0.6089220000000001,-1.270992,-2.1348130000000003,-0.168896,0.9553940000000001,-0.242209,-0.102729,0.051889,-0.009644,0.025631,0.00562,-0.001169
177,-0.611478,-1.272565,-2.13853,-0.168651,0.955858,-0.24054499999999998,-0.092113,0.0465,-0.003153,0.024745,0.006453,0.000692
178,-0.613294,-1.273903,-2.141426,-0.168351,0.95625,-0.239191,-0.071871,0.044281,0.0012640000000000001,0.019500999999999998,0.012149,0.004374
179,-0.614165,-1.274969,-2.143351,-0.167972,0.9565610000000001,-0.238211,-0.053734000000000004,0.049523000000000005,0.006725,0.016284,0.015576,0.006064
180,-0.614179,-1.275841,-2.1444509999999997,-0.167494,0.956815,-0.237527,-0.03986,0.050539999999999995,0.0068200000000000005,0.013975,0.016512,0.001443
181,-0.613811,-1.276515,-2.145111,-0.167035,0.9570110000000001,-0.23706100000000002,-0.031330000000000004,0.048383999999999996,0.005815,0.01051,0.019185,-0.00122
182,-0.613583,-1.2769979999999999,-2.145716,-0.166715,0.957151,-0.236722,-0.021766999999999998,0.033462,-0.000509,0.008939,0.016924,0.0009429999999999999
183,-0.613725,-1.277316,-2.146415,-0.166573,0.9572430000000001,-0.23644899999999996,-0.015404,0.020674,-0.004721,0.014488999999999998,0.014588999999999998,0.009429
184,-0.613997,-1.277513,-2.1470540000000002,-0.16652899999999998,0.9573,-0.23625,-0.011175,0.012137,-0.00468,0.017023,0.005377000000000001,0.012098000000000001
185,-0.614408,-1.277648,-2.147647,-0.166552,0.9573389999999999,-0.236076,-0.008018,0.001477,-0.005713,0.014849000000000001,0.0019809999999999997,0.017906000000000002
186,-0.614929,-1.2777459999999998,-2.148095,-0.166621,0.957367,-0.235913,-0.005940999999999999,-0.009192,-0.0035479999999999995,0.013529,0.000976,0.026624000000000002
187,-0.615454,-1.2778479999999999,-2.148405,-0.166688,0.9573969999999999,-0.235746,-0.005956,-0.012387,-0.003544,0.008256,0.000489,0.030591000000000004
188,-0.615926,-1.278045,-2.148765,-0.166691,0.9574530000000001,-0.235513,-0.011237,-0.0017120000000000002,-0.0046630000000000005,0.001179,-0.000361,0.03573
189,-0.6163890000000001,-1.278257,-2.149476,-0.166682,0.957515,-0.235271,-0.015409,0.019608,-0.00472,0.000148,-0.001628,0.039057999999999995
190,-0.616911,-1.278535,-2.1507110000000003,-0.166651,0.9575950000000001,-0.23496599999999998,-0.019547,0.040958,-0.012253,-0.0068260000000000005,-0.000808,0.038508999999999995
191,-0.6180720000000001,-1.2788469999999998,-2.152952,-0.166751,0.957685,-0.234529,-0.029029000000000003,0.052769,-0.02729,-0.0068790000000000006,-0.0033079999999999997,0.033632
192,-0.620746,-1.2792,-2.1567990000000004,-0.167181,0.957786,-0.23380700000000001,-0.05354299999999999,0.04545,-0.04027,-0.003901,-0.0005110000000000001,0.027752999999999996
193,-0.626034,-1.279947,-2.1629400000000003,-0.167995,0.958001,-0.23234000000000002,-0.086663,0.020058000000000003,-0.055424,0.007717,-0.001153,0.009454
194,-0.6334989999999999,-1.280934,-2.170886,-0.169164,0.958283,-0.230317,-0.114435,0.003149,-0.065211,0.016241,-0.003068,0.0034340000000000004
195,-0.642749,-1.282342,-2.180413,-0.170478,0.958685,-0.227661,-0.143289,-0.008464,-0.066466,0.012229,0.000696,-0.005188
196,-0.65295,-1.2840610000000001,-2.1908950000000003,-0.17179,0.9591719999999999,-0.22460100000000002,-0.159272,-0.005208,-0.06765,0.010062,0.008739,-0.016107
197,-0.6635489999999999,-1.2859120000000002,-2.201843,-0.173067,0.959694,-0.221367,-0.169955,-0.008366,-0.06772,0.0041670000000000006,0.020729,-0.02845
198,-0.674554,-1.2876809999999999,-2.213011,-0.174431,0.96019,-0.218123,-0.16253,-0.021163,-0.070857,0.0025109999999999998,0.024444999999999998,-0.036119
199,-0.685318,-1.289075,-2.223415,-0.175921,0.960578,-0.21519499999999997,-0.138122,-0.052132000000000005,-0.072783,0.002719,0.033868,-0.044539999999999996
200,-0.695331,-1.290023,-2.2324,-0.177483,0.960841,-0.212723,-0.10414100000000001,-0.077856,-0.062898,0.006234,0.03069,-0.047317000000000005
201,-0.7031,-1.290502,-2.238738,-0.178832,0.960974,-0.210986,-0.063696,-0.08551,-0.048719,0.009184000000000001,0.026972000000000003,-0.038679000000000005
202,-0.7081770000000001,-1.290545,-2.242363,-0.179873,0.960986,-0.21004299999999998,-0.023193000000000002,-0.077198,-0.031355,0.00577,0.025449,-0.031962
203,-0.71045,-1.290263,-2.243252,-0.180527,0.960908,-0.209839,0.011965,-0.06887599999999999,-0.011893,0.004715,0.027526,-0.01686
204,-0.710155,-1.289785,-2.241533,-0.180765,0.960775,-0.21024099999999998,0.040675,-0.070123,0.008606,-0.004202,0.025019,0.0020050000000000003
205,-0.707607,-1.289184,-2.237452,-0.180604,0.960609,-0.21114000000000002,0.06726900000000001,-0.069223,0.02695,-0.015776,0.018945,0.028919999999999998
206,-0.703483,-1.2882959999999999,-2.231795,-0.180283,0.960362,-0.212533,0.091826,-0.061864999999999996,0.030317,-0.029586,0.011974,0.048652999999999995
207,-0.698767,-1.2871290000000002,-2.2257759999999998,-0.179999,0.9600360000000001,-0.214238,0.09832300000000001,-0.049069999999999996,0.0218,-0.033532,0.006029,0.055272
208,-0.694684,-1.285878,-2.220714,-0.179892,0.959685,-0.215894,0.089918,-0.033010000000000005,0.008902,-0.035394999999999996,-0.000288,0.054166
209,-0.691807,-1.284706,-2.21717,-0.179988,0.959355,-0.217277,0.07295399999999999,-0.020124,-0.0019149999999999998,-0.030751,-0.003986,0.050926
210,-0.690526,-1.283819,-2.215562,-0.180252,0.9591040000000001,-0.218164,0.044244,-0.005084,-0.008544,-0.026810000000000004,-0.008985,0.047785
211,-0.690846,-1.2833459999999999,-2.215824,-0.180611,0.9589700000000001,-0.21845599999999998,0.012291,0.000379,-0.015184,-0.017708,-0.009720999999999999,0.046947
212,-0.692581,-1.283213,-2.217589,-0.181071,0.958932,-0.218241,-0.011161,0.000478,-0.019621,-0.00826,-0.006769,0.047113
213,-0.6952,-1.2832540000000001,-2.220227,-0.181617,0.958944,-0.217736,-0.020762,-0.003732,-0.023955,-0.005852,-0.001256,0.040353
214,-0.698047,-1.283297,-2.223002,-0.18220999999999998,0.9589559999999999,-0.217187,-0.018647999999999998,-0.009062,-0.025002,-0.007304000000000001,0.010251999999999999,0.031365
215,-0.700681,-1.28324,-2.225526,-0.182817,0.95894,-0.216748,-0.007965,-0.005903,-0.024931000000000002,-0.009581000000000001,0.022857,0.013959000000000001
216,-0.701911,-1.28295,-2.226832,-0.183263,0.958857,-0.21673499999999998,0.008081,0.006811,-0.021631,-0.011409,0.028173,0.009613
217,-0.7019489999999999,-1.2823879999999999,-2.2271229999999997,-0.183619,0.9586979999999999,-0.21714,0.033729,0.01737,-0.020397,-0.017171000000000002,0.039242,0.00161
218,-0.700792,-1.2813370000000002,-2.226285,-0.18401700000000001,0.958398,-0.21812199999999998,0.065773,0.019413999999999997,-0.026585,-0.013111000000000001,0.031897,-0.00162
219,-0.698095,-1.279695,-2.2239459999999998,-0.18444000000000002,0.9579280000000001,-0.219823,0.096736,0.024633000000000002,-0.026375,-0.006814,0.026736000000000003,0.002813
220,-0.694253,-1.277618,-2.220425,-0.184866,0.9573299999999999,-0.222059,0.12339800000000001,0.020287,-0.028319999999999998,0.005392,0.013678000000000001,0.007764
221,-0.689792,-1.275245,-2.2159709999999997,-0.185318,0.956642,-0.22463200000000003,0.141439,0.0031620000000000003,-0.023899,0.018601,0.012107999999999999,0.005562
222,-0.6852060000000001,-1.272716,-2.210901,-0.185817,0.955902,-0.22735300000000003,0.14665799999999998,-0.021362,-0.022763,0.01939,0.012955000000000001,0.008251999999999999
223,-0.681195,-1.270206,-2.206093,-0.186414,0.9551620000000001,-0.22995900000000002,0.141281,-0.033052,-0.024922,0.013502000000000002,0.002983,0.009455
224,-0.677863,-1.2678459999999998,-2.2017130000000003,-0.18706,0.9544600000000001,-0.23233499999999999,0.133746,-0.047939999999999997,-0.024956,0.016725999999999998,-0.011101,0.009541
225,-0.67497,-1.265563,-2.1975279999999997,-0.187748,0.9537770000000001,-0.234575,0.127297,-0.057509000000000005,-0.02392,0.020085,-0.010523999999999999,0.012163
226,-0.672451,-1.263291,-2.193488,-0.188506,0.953092,-0.236742,0.128301,-0.07348400000000001,-0.026029000000000004,0.016158000000000002,-0.005826,0.011583
227,-0.670312,-1.2610620000000001,-2.189562,-0.18931900000000002,0.952414,-0.23880900000000002,0.12826300000000002,-0.085189,-0.029219,0.011569,0.002893,0.00596
228,-0.668743,-1.258729,-2.185881,-0.190321,0.951701,-0.240848,0.129248,-0.106485,-0.032389999999999995,0.015516,0.005758,-0.0014
229,-0.667662,-1.2563030000000002,-2.1820619999999997,-0.19149000000000002,0.950953,-0.242867,0.13655799999999998,-0.141665,-0.032293,0.024863999999999997,0.008687,-0.011618999999999999
230,-0.666549,-1.253866,-2.177612,-0.192652,0.950197,-0.24490100000000004,0.14515999999999998,-0.16106700000000002,-0.020386,0.03007,0.018096,-0.017184
231,-0.664429,-1.2515040000000002,-2.1722069999999998,-0.193517,0.949458,-0.24707600000000002,0.148351,-0.141989,0.000977,0.026737999999999998,0.018285,-0.016305
232,-0.660505,-1.2493809999999999,-2.16552,-0.19378299999999998,0.948789,-0.249426,0.152667,-0.10907,0.023397,0.01524,0.01517,-0.018625
233,-0.654759,-1.2474,-2.1574299999999997,-0.193491,0.9481620000000001,-0.25202600000000003,0.161192,-0.091071,0.04373,0.002527,0.018666,-0.0163
234,-0.647833,-1.245544,-2.14838,-0.192803,0.94757,-0.254763,0.15904400000000002,-0.078345,0.059722000000000004,-0.002815,0.016419,-0.019361
235,-0.640515,-1.2439129999999998,-2.1392580000000003,-0.191857,0.947048,-0.25740599999999997,0.1495,-0.061284000000000005,0.06390599999999999,-0.006523,0.015324,-0.006418000000000001
236,-0.633389,-1.2422790000000001,-2.130383,-0.190933,0.946522,-0.26001399999999997,0.14946600000000002,-0.069802,0.062849,0.001373,0.006023,0.00385
237,-0.626513,-1.240538,-2.1214630000000003,-0.190107,0.945959,-0.262655,0.157915,-0.085823,0.066133,0.007993,0.003046,0.004446
238,-0.619794,-1.238682,-2.11222,-0.189358,0.945355,-0.265357,0.163189,-0.109857,0.070954,0.000225,0.008762,0.016822
239,-0.613368,-1.2370430000000001,-2.1030740000000003,-0.18854100000000001,0.9448200000000001,-0.267835,0.145043,-0.10662,0.076164,-0.010678,0.011998,0.017301
240,-0.607691,-1.235851,-2.09505,-0.18766,0.944428,-0.269826,0.114204,-0.088385,0.071652,-0.020454,0.0010220000000000001,0.018285
241,-0.603206,-1.23511,-2.088466,-0.186845,0.944184,-0.271241,0.083313,-0.086112,0.062888,-0.024107,-0.0074010000000000005,0.020967
242,-0.600009,-1.234607,-2.0832490000000004,-0.186245,0.944019,-0.272228,0.063091,-0.085999,0.052064,-0.029194,-0.009326000000000001,0.023983
243,-0.59812,-1.234221,-2.0793779999999997,-0.185935,0.943891,-0.27288,0.048212,-0.088017,0.037008,-0.029412,-0.014646000000000001,0.031608
244,-0.597616,-1.233868,-2.076849,-0.18598399999999998,0.943775,-0.273248,0.036496,-0.094325,0.026251999999999998,-0.02889,-0.006488,0.029748
245,-0.597739,-1.233624,-2.074952,-0.186147,0.943694,-0.273415,0.024828,-0.08892,0.016549,-0.027888,-0.005293,0.028298
246,-0.5983850000000001,-1.233417,-2.074005,-0.186434,0.943625,-0.273457,0.015369999999999998,-0.065416,0.007906999999999999,-0.026289,0.000802,0.028033999999999996
247,-0.599544,-1.233408,-2.0740369999999997,-0.186756,0.943622,-0.273248,-0.000547,-0.049369,0.004571,-0.010983,-0.000843,0.017434
248,-0.6008939999999999,-1.233568,-2.0744580000000004,-0.187039,0.9436760000000001,-0.27287,-0.011172,-0.046110000000000005,-0.001917,-0.012637,0.0005690000000000001,0.013897999999999999
249,-0.602887,-1.233668,-2.07547,-0.187529,0.943708,-0.272419,-0.009029,-0.051414,-0.009373000000000001,-0.015000999999999999,0.000872,0.011753
250,-0.60515,-1.233566,-2.0766720000000003,-0.1882,0.943675,-0.272074,0.0016489999999999999,-0.055687,-0.015702,-0.011049,0.005086,0.014536000000000002
251,-0.606731,-1.233176,-2.077171,-0.18884,0.9435459999999999,-0.27207800000000004,0.018733,-0.055734000000000006,-0.018787,-0.014407,0.006299,0.013425999999999999
252,-0.608052,-1.232575,-2.0774619999999997,-0.189523,0.9433459999999999,-0.272294,0.025172999999999997,-0.047234,-0.018753,-0.011313,0.006314999999999999,0.013383
253,-0.608813,-1.231994,-2.077467,-0.19004400000000002,0.943153,-0.272599,0.026277999999999996,-0.030226999999999997,-0.010221,-0.011647,0.008858,0.008744
254,-0.608611,-1.231626,-2.076863,-0.190187,0.943031,-0.272923,0.018834,-0.010020999999999999,0.004656,-0.010801999999999999,0.006478,0.009495
255,-0.607869,-1.231567,-2.076095,-0.19001700000000002,0.943011,-0.27310999999999996,0.009271,0.010206,0.016313,-0.004258,-0.000522,0.014381999999999999
256,-0.606626,-1.231763,-2.075169,-0.189572,0.943077,-0.273194,-0.002427,0.025135,0.022622,-0.006504,0.002755,0.014573
257,-0.605237,-1.232176,-2.074289,-0.18897,0.943214,-0.27313699999999996,-0.009890000000000001,0.028348,0.024702,-0.007151,0.005639,0.010884
258,-0.604093,-1.2326110000000001,-2.073561,-0.188425,0.943358,-0.273015,-0.00778,0.020893000000000002,0.02259,-0.010015999999999999,0.007005,0.004461
259,-0.602958,-1.232892,-2.072709,-0.18796400000000002,0.9434520000000001,-0.27301,0.00075,0.016614,0.01945,-0.015756,0.010879,0.0064849999999999994
260,-0.601846,-1.232982,-2.07187,-0.187612,0.9434809999999999,-0.273149,0.008265999999999999,0.018753,0.010954,-0.015726,0.012085,0.006104999999999999
261,-0.600927,-1.2328780000000001,-2.071397,-0.187417,0.9434469999999999,-0.273402,0.009429,0.032626999999999996,0.003467,-0.00872,0.006687,0.004954999999999999
262,-0.599885,-1.232824,-2.071114,-0.187161,0.9434290000000001,-0.27364,0.0022559999999999998,0.041063,0.004734,-0.008426000000000001,0.002799,0.002461
263,-0.599124,-1.232961,-2.071124,-0.18688,0.9434739999999999,-0.273675,-0.008442,0.036831,0.006801000000000001,8.2e-05,0.005804999999999999,0.003839
264,-0.598867,-1.233344,-2.071441,-0.186606,0.943601,-0.273425,-0.022383,0.024083,0.009925,0.003714,0.0059689999999999995,0.003757
265,-0.598839,-1.2339280000000001,-2.0718650000000003,-0.186288,0.943794,-0.272976,-0.028817000000000002,0.019832,0.013090000000000001,-0.004737,0.002693,0.0045130000000000005
266,-0.59875,-1.2345469999999998,-2.072146,-0.185934,0.943999,-0.272509,-0.027783999999999996,0.015553999999999998,0.016307,-0.0012460000000000001,0.005082,0.0033439999999999998
267,-0.598587,-1.235183,-2.072175,-0.185551,0.944209,-0.272043,-0.024627,0.007017,0.017409,-0.003032,0.011541,0.006784999999999999
268,-0.598539,-1.2357870000000002,-2.072184,-0.18521700000000002,0.944407,-0.271581,-0.024641,0.0016989999999999998,0.015279,-0.008219,0.009664,0.008047
269,-0.598774,-1.236337,-2.072375,-0.184988,0.9445879999999999,-0.271109,-0.024651,-0.004676,0.011014,-0.006189,0.005439,0.011648
270,-0.599565,-1.236942,-2.0730310000000003,-0.18488,0.944786,-0.270491,-0.035319,-0.008882,0.006672,0.001377,-0.0015949999999999998,0.013044
271,-0.600711,-1.237711,-2.0741549999999997,-0.184779,0.9450379999999999,-0.269679,-0.045954,-0.0013880000000000001,0.006587999999999999,0.005992,-0.003632,0.011958
272,-0.602201,-1.238645,-2.075809,-0.18467999999999998,0.945343,-0.268675,-0.054451,0.007164,0.006518,0.005176,-0.000641,0.004653
273,-0.603563,-1.239714,-2.077396,-0.184472,0.945691,-0.26759099999999997,-0.059814,0.005035,0.010756,0.00155,0.0017420000000000003,0.003721
274,-0.605103,-1.240815,-2.078958,-0.184292,0.946048,-0.26645,-0.05773300000000001,-0.006690000000000001,0.010786,-0.0032689999999999998,0.01167,-0.000609
275,-0.606995,-1.2418120000000001,-2.080691,-0.184257,0.946371,-0.265326,-0.055594000000000005,-0.014121000000000002,0.002264,-0.00013000000000000002,0.011744,-0.00245
276,-0.6088779999999999,-1.242668,-2.082336,-0.184293,0.9466469999999999,-0.264314,-0.047069,-0.017342,0.00126,-0.000125,0.014061,-0.00389
277,-0.610375,-1.243365,-2.0835630000000003,-0.18431,0.9468719999999999,-0.263497,-0.035352999999999996,-0.0174,0.005614,-0.000947,0.012067,-0.001884
278,-0.611269,-1.243983,-2.084156,-0.18420999999999998,0.9470700000000001,-0.262853,-0.027904,-0.015321000000000001,0.012073,0.004675,0.0015689999999999999,0.004629
279,-0.611371,-1.244578,-2.08402,-0.18391300000000002,0.947261,-0.262372,-0.02047,-0.011133,0.02387,0.008864,0.004674,0.005215999999999999
280,-0.6105119999999999,-1.245196,-2.0828729999999998,-0.183352,0.947459,-0.26205,-0.013073,-0.014406,0.036745,0.006487000000000001,0.011266,0.003856
281,-0.60919,-1.245919,-2.081039,-0.182613,0.9476899999999999,-0.261731,-0.015308,-0.026158999999999998,0.047425999999999996,-0.00539,0.012972999999999998,-0.003467
282,-0.608126,-1.246893,-2.079214,-0.181807,0.948,-0.261167,-0.028176999999999997,-0.034662,0.053757000000000006,-0.002702,0.021634999999999998,-0.0057399999999999994
283,-0.60764,-1.248167,-2.077872,-0.180991,0.9484049999999999,-0.260264,-0.046343,-0.044173000000000004,0.050437,-0.016046,0.019399,-0.002813
284,-0.608332,-1.249508,-2.077505,-0.180444,0.948829,-0.25909499999999996,-0.054877999999999996,-0.056875999999999996,0.037575,-0.020209,0.003136,-0.001174
285,-0.609965,-1.250791,-2.077819,-0.180169,0.949234,-0.257802,-0.055997000000000005,-0.074956,0.031181,-0.021093999999999998,0.001541,-0.010981999999999999
286,-0.612429,-1.252174,-2.078448,-0.180048,0.9496680000000001,-0.256281,-0.065752,-0.10688900000000001,0.033291,-0.021307,0.006768000000000001,-0.022237
287,-0.615992,-1.253747,-2.079382,-0.180096,0.950159,-0.254418,-0.078761,-0.150528,0.035392,-0.019763,0.008459,-0.020392
288,-0.621092,-1.255459,-2.08107,-0.180445,0.950692,-0.252173,-0.090616,-0.18454600000000002,0.027875,-0.014563,0.010413,-0.022088999999999998
289,-0.6270399999999999,-1.257299,-2.083129,-0.18091400000000002,0.951261,-0.249678,-0.09608,-0.20904499999999998,0.032141,-0.014612,0.010592,-0.025286000000000003
290,-0.6330439999999999,-1.2591459999999999,-2.084777,-0.181369,0.951829,-0.247169,-0.08872200000000001,-0.22720700000000002,0.038625,-0.009976,0.02008,-0.033608
291,-0.638841,-1.260837,-2.08583,-0.18184,0.9523459999999999,-0.244821,-0.07493899999999999,-0.247491,0.037679000000000004,-0.019316999999999997,0.023438,-0.034491
292,-0.644547,-1.262229,-2.0864580000000004,-0.182436,0.9527700000000001,-0.24271900000000002,-0.057898000000000005,-0.257125,0.034606,-0.025677999999999996,0.022252,-0.02521
293,-0.649602,-1.26328,-2.08625,-0.183055,0.9530879999999999,-0.24099600000000002,-0.030208,-0.267875,0.034813,-0.023869,0.020728,-0.029161000000000003
294,-0.6537109999999999,-1.263837,-2.0845700000000003,-0.18372,0.953257,-0.23981999999999998,0.0037549999999999997,-0.303165,0.039369,-0.015040000000000001,0.02033,-0.040132999999999995
295,-0.6569510000000001,-1.263731,-2.081081,-0.184558,0.953225,-0.239304,0.05371,-0.34382399999999996,0.040838,-0.011364,0.027381,-0.039383
296,-0.658338,-1.26281,-2.0750040000000003,-0.185427,0.952946,-0.239742,0.11655399999999999,-0.36111,0.04664,-0.016386,0.025432,-0.037465
297,-0.656663,-1.260607,-2.0659680000000002,-0.186307,0.952276,-0.241715,0.205262,-0.337937,0.035480000000000005,-0.035098000000000004,0.034129,-0.029708
298,-0.651863,-1.256572,-2.0542990000000003,-0.187475,0.9510360000000001,-0.24566,0.304749,-0.304093,0.010494,-0.073145,0.058179999999999996,-0.036383
299,-0.644225,-1.250644,-2.040257,-0.188977,0.9491879999999999,-0.251589,0.405278,-0.274518,-0.013411000000000001,-0.076099,0.06515599999999999,-0.038969
300,-0.634417,-1.2427059999999999,-2.024454,-0.190961,0.946659,-0.259492,0.504808,-0.241696,-0.049076999999999996,-0.072116,0.074581,-0.048354
301,-0.623212,-1.233015,-2.007945,-0.193388,0.943492,-0.269054,0.5711930000000001,-0.217311,-0.077487,-0.038286,0.065877,-0.039967
302,-0.613451,-1.222141,-1.9924970000000002,-0.196649,0.939833,-0.279304,0.604314,-0.252397,-0.123144,-0.017797999999999998,0.066316,-0.032678
303,-0.6066699999999999,-1.2101389999999999,-1.979625,-0.201168,0.935665,-0.289879,0.627943,-0.275681,-0.181701,0.036892,0.048756,-0.005882
304,-0.602937,-1.19766,-1.9685869999999999,-0.20669099999999999,0.9311889999999999,-0.300224,0.622192,-0.373645,-0.18695699999999998,0.133663,-0.051733,0.043373
305,-0.600658,-1.185913,-1.9562080000000002,-0.21217600000000003,0.926842,-0.309699,0.605206,-0.513454,-0.107848,0.159701,-0.078789,0.065208
306,-0.598517,-1.1765219999999998,-1.9407290000000001,-0.216408,0.923275,-0.317331,0.515295,-0.675628,0.032737,0.181206,-0.142621,0.08591599999999999
307,-0.599873,-1.171613,-1.9248189999999998,-0.219394,0.9213790000000001,-0.320775,0.274942,-0.8691180000000001,0.143469,0.18317,-0.18044200000000002,0.100774
308,-0.610391,-1.172411,-1.9157830000000002,-0.222334,0.921689,-0.317847,-0.060666,-0.970349,0.175438,0.14291199999999998,-0.180035,0.093436
309,-0.629814,-1.1790209999999999,-1.915386,-0.224872,0.924233,-0.30853800000000003,-0.376764,-1.0002870000000001,0.21065599999999998,0.1095,-0.126274,0.069372
310,-0.6560189999999999,-1.19018,-1.921935,-0.22657199999999997,0.928436,-0.29434699999999997,-0.592462,-1.011375,0.240142,0.076731,-0.07521,0.054905999999999996
311,-0.687863,-1.203062,-1.934135,-0.228214,0.9331440000000001,-0.27771799999999996,-0.663822,-1.017385,0.20653600000000003,-0.011318,-0.058221,0.047524000000000004
312,-0.724305,-1.215597,-1.9523990000000002,-0.23041,0.937577,-0.26043499999999997,-0.692999,-0.9307219999999999,0.137855,-0.074689,-0.04802,0.036955
313,-0.760191,-1.2280719999999998,-1.9738799999999999,-0.231526,0.941843,-0.24350300000000002,-0.714492,-0.704901,0.160917,-0.098552,-0.033441000000000005,0.034457999999999996
314,-0.7952279999999999,-1.240217,-1.996619,-0.231727,0.9458549999999999,-0.227215,-0.689824,-0.662316,0.15672,-0.10320399999999999,-0.003258,0.030788999999999997
315,-0.8317549999999999,-1.252156,-2.0220830000000003,-0.231504,0.9496620000000001,-0.21097800000000003,-0.7172029999999999,-0.585508,0.153226,-0.070421,-0.010514,0.001627
316,-0.8703569999999999,-1.264581,-2.050536,-0.23043200000000003,0.9534809999999999,-0.19426300000000002,-0.754854,-0.597325,0.210662,-0.005225,0.026621,-0.100002
317,-0.910797,-1.278398,-2.078906,-0.22766399999999998,0.9575549999999999,-0.17669100000000001,-0.7387819999999999,-0.7213470000000001,0.309209,0.057803,0.352763,-0.382498
318,-0.94557,-1.289878,-2.095342,-0.22473800000000002,0.960801,-0.162222,-0.381119,-1.134874,0.315442,0.027884,0.49558900000000006,-0.46245699999999995
319,-0.964118,-1.295216,-2.087683,-0.22349000000000002,0.962268,-0.15509900000000001,0.169708,-1.142874,0.240252,0.185388,0.12374600000000001,0.076486
320,-0.940786,-1.292824,-2.052016,-0.221671,0.961614,-0.161627,0.5406920000000001,-0.333192,0.16702999999999998,0.037939999999999995,-0.197972,0.19689
321,-0.931592,-1.292843,-2.0266330000000004,-0.22016100000000002,0.961619,-0.16364700000000001,0.075637,-1.163932,0.259918,-0.23886999999999997,-0.308131,0.036191
322,-0.9690639999999999,-1.297393,-2.032269,-0.22252600000000003,0.962857,-0.152805,-0.296083,-1.7295040000000002,0.02731,-0.153053,-0.17165899999999998,0.107807
323,-1.025703,-1.300198,-2.057322,-0.22850700000000002,0.9636110000000001,-0.138561,-0.387429,-1.5082440000000001,-0.080434,-0.019143,0.035748,0.061458000000000006
324,-1.075353,-1.3030700000000002,-2.083154,-0.23266599999999998,0.964375,-0.12573199999999998,-0.324854,-1.060206,-0.023955,0.0007019999999999999,0.10290099999999999,0.056
325,-1.106981,-1.305461,-2.098566,-0.234461,0.9650049999999999,-0.117279,-0.19564600000000001,-0.744483,0.029954,-0.029608,0.089271,0.079941
326,-1.133471,-1.308297,-2.111599,-0.23500300000000002,0.965744,-0.10986800000000001,-0.243679,-0.707201,0.0723,-0.039747000000000005,0.057616999999999995,0.059712
327,-1.165233,-1.312639,-2.127463,-0.23451599999999997,0.9668620000000001,-0.10069299999999999,-0.274543,-0.858641,0.141713,-0.038312,0.005565,0.031403
328,-1.194402,-1.316933,-2.14094,-0.233487,0.967949,-0.092283,-0.21850100000000003,-0.752232,0.12274000000000002,-0.048221,-0.029549000000000002,0.0074140000000000005
329,-1.219741,-1.319936,-2.152515,-0.23301799999999998,0.968699,-0.085337,-0.170032,-0.706368,0.06640399999999999,-0.046157,-0.022807,-0.011479999999999999
330,-1.242972,-1.321366,-2.161095,-0.23362399999999997,0.969053,-0.079455,-0.098605,-0.7692640000000001,0.015709,-0.032199,-0.003675,0.031069
331,-1.264583,-1.321783,-2.167574,-0.2349,0.9691559999999999,-0.074266,-0.086639,-0.746819,-0.013078999999999999,-0.025079,0.010718,0.072724
332,-1.289169,-1.322252,-2.178287,-0.236217,0.9692719999999999,-0.068342,-0.16751,-0.6943590000000001,-0.00837,0.008265999999999999,0.012937,0.033506
333,-1.317085,-1.3229799999999998,-2.194284,-0.23735,0.96945,-0.06154400000000001,-0.20862399999999998,-0.588735,-0.013065,0.016219,0.014986000000000001,0.016241
334,-1.345029,-1.32358,-2.2105029999999997,-0.23840799999999998,0.9695969999999999,-0.054758,-0.189636,-0.644166,-0.020339,0.002919,0.032524000000000004,0.010462
335,-1.373002,-1.3232,-2.2248419999999998,-0.240208,0.969504,-0.048141,-0.161147,-0.747466,-0.053122,-0.006313,0.015618,0.001037
336,-1.402447,-1.322749,-2.238511,-0.241952,0.9693940000000001,-0.041122000000000006,-0.155086,-0.8316100000000001,-0.061517999999999996,0.043038,-0.012393000000000001,0.0037990000000000003
337,-1.43262,-1.321823,-2.251818,-0.243971,0.969166,-0.033927,-0.1509,-0.867771,-0.07960199999999999,0.06796100000000001,-0.042301,0.016914
338,-1.461093,-1.320034,-2.263023,-0.24656199999999998,0.968724,-0.027157999999999998,-0.12852,-0.9007620000000001,-0.107177,0.038294999999999996,0.006328,0.017544999999999998
339,-1.491228,-1.3189389999999999,-2.274534,-0.248325,0.9684510000000001,-0.019801,-0.140797,-0.963802,-0.049498,0.032261,0.017907,0.002833
340,-1.5211540000000001,-1.318398,-2.286066,-0.24933000000000002,0.968316,-0.012387,-0.14391099999999998,-0.9297620000000001,-0.034609,0.050752,-0.0022670000000000004,-0.010546999999999999
341,-1.550547,-1.3179299999999998,-2.297731,-0.25003800000000004,0.968199,-0.005064,-0.14593499999999998,-0.882972,-0.01225,0.049980000000000004,0.005342,0.003355
342,-1.580315,-1.3175430000000001,-2.310213,-0.25045100000000003,0.968103,0.002384,-0.16835799999999998,-0.9062530000000001,-0.031605,0.044213,-0.004571,0.014919
343,-1.612571,-1.316639,-2.3243970000000003,-0.251119,0.967875,0.010496,-0.16733900000000002,-0.930702,-0.045453,0.04247,0.00855,0.0217
344,-1.6429740000000002,-1.314617,-2.33731,-0.252636,0.9673649999999999,0.018267,-0.177543,-0.893117,-0.111803,0.044384,0.000866,0.037291000000000005
345,-1.6748669999999999,-1.3119299999999998,-2.3515740000000003,-0.25450900000000004,0.9666809999999999,0.026583,-0.19156600000000001,-0.92079,-0.105456,0.061943,0.001779,0.034147000000000004
346,-1.708464,-1.309028,-2.3672619999999998,-0.256251,0.965934,0.035502,-0.22036599999999998,-0.936601,-0.122728,0.094294,-0.010047,0.041906
347,-1.739459,-1.306303,-2.380462,-0.257623,0.965225,0.043868,-0.170123,-0.8910629999999999,-0.09893500000000001,0.099237,0.007659999999999999,0.04361
348,-1.764376,-1.304611,-2.388936,-0.25805300000000003,0.964781,0.050587,-0.095198,-0.781824,-0.043004,0.119503,-0.007765,0.046382
349,-1.780688,-1.304541,-2.391738,-0.257259,0.9647629999999999,0.054804,-0.006298,-0.64283,0.019396,0.056865,-0.016582,0.07645199999999999
350,-1.793266,-1.305292,-2.3911290000000003,-0.255843,0.96496,0.057875,0.027654,-0.672824,0.031422000000000005,0.008787999999999999,-0.026697000000000002,0.098665
351,-1.804386,-1.305814,-2.388471,-0.25469200000000003,0.965097,0.0606,0.045868,-0.685551,0.001655,-0.018882,-0.00062,0.09940399999999999
352,-1.8151709999999999,-1.305879,-2.384928,-0.25396199999999997,0.9651139999999999,0.063327,0.043585000000000006,-0.744031,-0.023923,-0.00295,0.028248000000000002,0.05564500000000001
353,-1.832986,-1.305626,-2.385708,-0.253029,0.9650479999999999,0.067905,-0.051089999999999997,-0.894008,0.001245,0.017678,0.065638,0.034405
354,-1.853477,-1.306071,-2.390607,-0.251171,0.9651639999999999,0.07295499999999999,-0.011988,-0.6749569999999999,0.066399,0.122204,0.063431,-0.003924
355,-1.8607310000000001,-1.308712,-2.387861,-0.248191,0.965852,0.074046,0.120027,-0.42219399999999996,0.144978,0.093894,0.043639,-0.022715
356,-1.8611950000000002,-1.31254,-2.3799490000000003,-0.244612,0.9668370000000001,0.073102,0.172323,-0.405384,0.15814,0.054534000000000006,0.029089,0.001163
357,-1.861464,-1.316447,-2.3701630000000002,-0.24097,0.967827,0.07208400000000001,0.16847,-0.565102,0.14336300000000002,0.07532,0.020163999999999998,0.030318
358,-1.8686169999999998,-1.320185,-2.362771,-0.236986,0.9687610000000001,0.07274299999999999,0.12150699999999999,-0.803574,0.146545,0.09466799999999999,0.026966000000000004,0.050700999999999996
359,-1.8791209999999998,-1.32399,-2.356839,-0.232694,0.969698,0.07410900000000001,0.12688,-0.780217,0.16150799999999998,0.12293699999999999,-0.0034649999999999998,0.086368
360,-1.893475,-1.328072,-2.355897,-0.22785,0.9706870000000001,0.076185,0.032833,-0.780033,0.19717,0.091146,0.001603,0.046099
361,-1.913643,-1.331828,-2.359063,-0.22282800000000003,0.971583,0.079537,0.047467,-0.877966,0.166419,0.070378,0.00469,0.07245599999999999
362,-1.92405,-1.335283,-2.353007,-0.21883699999999998,0.9723950000000001,0.080689,0.174157,-0.755679,0.1116,0.035701,0.031023000000000002,0.102782
363,-1.928864,-1.3386719999999999,-2.344075,-0.21535500000000002,0.9731799999999999,0.080585,0.126566,-0.644796,0.12928499999999998,0.00364,0.015040000000000001,0.08207300000000001
364,-1.942409,-1.341605,-2.344789,-0.211581,0.97385,0.082457,0.00915,-0.6400899999999999,0.12948900000000002,-0.030499000000000002,-0.027576999999999997,0.012712000000000001
365,-1.958884,-1.343532,-2.349158,-0.208456,0.9742860000000001,0.085221,9.9e-05,-0.571663,0.07485900000000001,-0.04217,-0.038038,-0.001954
366,-1.968702,-1.344315,-2.349061,-0.206905,0.974463,0.08696799999999999,0.035039,-0.455421,0.012997,-0.010609,-0.015234000000000001,-0.010001999999999999
367,-1.9741520000000001,-1.344718,-2.346818,-0.20606799999999997,0.9745530000000001,0.08794,0.030275,-0.33181900000000003,0.0096,0.008558,-0.0030559999999999997,0.004497
368,-1.9813459999999998,-1.34523,-2.347004,-0.204973,0.9746670000000001,0.08922200000000001,-0.0021190000000000002,-0.38616300000000003,0.04149,0.041658,0.024325,0.020596
369,-1.9936080000000003,-1.345909,-2.3512020000000002,-0.203258,0.9748190000000001,0.091456,-0.037541000000000005,-0.407452,0.067976,0.01028,0.025562,0.005438
370,-2.004882,-1.346806,-2.35508,-0.20142000000000002,0.9750190000000001,0.093373,-0.004123,-0.34678400000000004,0.052108,-0.006495999999999999,0.017687,-0.013875
371,-2.008925,-1.347603,-2.353868,-0.200337,0.975196,0.09385700000000001,0.050073,-0.193427,0.015971,-0.021235,0.008477,-0.041000999999999996
372,-2.005929,-1.348326,-2.3497470000000003,-0.199978,0.975355,0.092959,0.04898,0.032438,0.010333,0.010846,0.018846,-0.027895999999999997
373,-2.004053,-1.349016,-2.350374,-0.199541,0.975507,0.092302,-0.008190000000000001,0.16883900000000002,0.048214,0.023928,0.026537,-0.04857
374,-2.000844,-1.350571,-2.351393,-0.198456,0.9758479999999999,0.091028,0.05055,0.217496,0.083814,0.036789999999999996,0.027142000000000003,-0.046075
375,-1.9921229999999999,-1.352891,-2.3451869999999997,-0.197176,0.976352,0.088367,0.133099,0.05534,0.070711,0.008028,0.020687,-0.032444
376,-1.983999,-1.354929,-2.335418,-0.19606400000000002,0.976791,0.085963,0.12075,-0.113864,0.037727,-0.004024,0.004914,0.0055130000000000005
377,-1.9789759999999998,-1.35632,-2.327356,-0.195247,0.977088,0.084438,0.100316,-0.16910999999999998,0.018427000000000002,-0.00205,-0.001456,0.013752
378,-1.971775,-1.3574959999999998,-2.315856,-0.19479200000000002,0.9773379999999999,0.08258099999999999,0.147201,-0.20646,-0.005767,0.007047,0.004581,0.011428
379,-1.9611619999999998,-1.358851,-2.301182,-0.194433,0.9776239999999999,0.080006,0.173964,-0.176764,0.003996,0.005804,0.006629,0.011576999999999999
380,-1.94865,-1.360399,-2.2846439999999997,-0.194012,0.9779479999999999,0.07700800000000001,0.19522899999999999,-0.190696,0.006299,-0.003147,0.009723,0.029544
381,-1.937395,-1.361721,-2.267621,-0.193659,0.978223,0.07435599999999999,0.200964,-0.352583,-0.00734,-0.012106,0.011462,0.027542
382,-1.926384,-1.362873,-2.245982,-0.193409,0.978462,0.071827,0.244952,-0.5603640000000001,-0.032404,-0.007,-0.015632,0.039288
383,-1.913402,-1.3639370000000002,-2.2208490000000003,-0.19334400000000002,0.9786809999999999,0.06896000000000001,0.268313,-0.591313,-0.038611,0.019593,-0.006848000000000001,0.043054
384,-1.898989,-1.364984,-2.193438,-0.193348,0.9788950000000001,0.065836,0.30120399999999997,-0.640397,-0.046863999999999996,0.016728,-0.019392,0.055746000000000004
385,-1.882321,-1.366165,-2.16252,-0.19331900000000002,0.979136,0.06225,0.332874,-0.7055279999999999,-0.036945,-0.001475,0.007986,0.084448
386,-1.866205,-1.367505,-2.131391,-0.19304100000000002,0.9794069999999999,0.058745000000000006,0.316717,-0.731072,-0.028480000000000002,0.002734,0.009805,0.07470800000000001
387,-1.8524909999999999,-1.368758,-2.1015650000000003,-0.192651,0.9796600000000001,0.055751,0.312143,-0.7960520000000001,-0.025224,-0.007056000000000001,0.001023,0.065282
388,-1.840498,-1.3695620000000002,-2.072309,-0.192548,0.9798209999999999,0.053227,0.294906,-0.85874,-0.050901,-0.034365,-0.011925,0.065227
389,-1.829822,-1.37113,-2.044741,-0.191619,0.980133,0.050775,0.278931,-0.767412,0.034328,-0.050263999999999996,-0.0015710000000000001,0.064704
390,-1.8182650000000002,-1.3736,-2.01895,-0.189845,0.98062,0.047964,0.290027,-0.637628,0.069491,-0.005925,0.018633,0.054041
391,-1.8061639999999999,-1.3769639999999999,-1.996582,-0.1872,0.981273,0.044893,0.234188,-0.40232199999999996,0.147848,0.037557,0.014683000000000002,0.092177
392,-1.8046419999999999,-1.381475,-1.988093,-0.182956,0.982132,0.043581,0.051677999999999995,-0.335971,0.229809,0.052767999999999995,0.00119,0.095472
393,-1.832065,-1.386552,-2.004584,-0.176871,0.983075,0.047292,-0.129602,-0.6851729999999999,0.334744,0.03945,-0.007901,0.113032
394,-1.8742159999999999,-1.3929120000000002,-2.030214,-0.168749,0.9842200000000001,0.052833000000000005,-0.10955899999999999,-0.9537709999999999,0.354456,-0.031201999999999997,-0.009718000000000001,0.108346
395,-1.90488,-1.398565,-2.039765,-0.16178800000000002,0.9852049999999999,0.056156,0.106803,-1.070365,0.28668299999999997,-0.167801,-0.025519,0.067761
396,-1.905196,-1.4048,-2.020236,-0.155961,0.9862540000000001,0.054188,0.37258800000000003,-0.8803,0.21138400000000002,-0.221877,-0.021533,0.014353999999999999
397,-1.877518,-1.411443,-1.9767599999999999,-0.151148,0.9873299999999999,0.047871,0.455513,-0.730295,0.189338,-0.153097,-0.028651,0.030239
398,-1.8413540000000002,-1.417303,-1.9260150000000003,-0.147199,0.988243,0.040826999999999995,0.46760799999999997,-0.668479,0.171183,-0.077533,-0.026848,0.046133
399,-1.8005229999999999,-1.42296,-1.871432,-0.143293,0.989092,0.033510000000000005,0.478224,-0.660075,0.19154300000000002,-0.033083999999999995,-0.005647999999999999,0.024443
400,-1.759139,-1.428923,-1.816442,-0.138755,0.9899530000000001,0.026447000000000002,0.441859,-0.641992,0.22972199999999998,-0.010934000000000001,0.0065379999999999995,-0.024891
401,-1.7168880000000002,-1.4353129999999998,-1.7621080000000002,-0.133482,0.990836,0.019641,0.418652,-0.5430020000000001,0.270025,-0.019533000000000002,0.011132,-0.052996
402,-1.66904,-1.44136,-1.7021709999999999,-0.128297,0.991635,0.012645,0.452557,-0.6186619999999999,0.246858,-0.016890000000000002,0.039722,-0.07258200000000001
403,-1.608959,-1.446659,-1.627451,-0.12356800000000001,0.9923049999999999,0.004718,0.520323,-0.746676,0.233609,-0.004469,0.06928,-0.066913
404,-1.528291,-1.4514690000000001,-1.53098,-0.118773,0.9928889999999999,-0.005052,0.6215890000000001,-0.747107,0.25354499999999996,0.025405,0.066346,-0.033583999999999996
405,-1.426949,-1.455719,-1.414044,-0.113471,0.9933860000000001,-0.016436000000000003,0.676979,-0.734646,0.285962,0.0176,0.06919,-0.016111
406,-1.317326,-1.4595770000000001,-1.289113,-0.107279,0.993821,-0.02779,0.617938,-0.74007,0.36140100000000003,-0.00038700000000000003,0.09310800000000001,-0.084759
407,-1.210231,-1.463746,-1.16583,-0.099812,0.994276,-0.037634,0.56301,-0.7986949999999999,0.41770799999999997,-0.013347999999999999,0.140612,-0.11451199999999999
408,-1.092799,-1.466504,-1.030218,-0.092277,0.994566,-0.047806,0.6350720000000001,-0.9288209999999999,0.395945,-0.027275,0.163103,-0.14518699999999998
409,-0.9437610000000001,-1.463737,-0.862241,-0.08639,0.994275,-0.062597,0.9848610000000001,-0.794471,0.327714,0.06041900000000001,0.17143599999999998,-0.091029
410,-0.7617149999999999,-1.453009,-0.6666569999999999,-0.081,0.9930709999999999,-0.08492999999999999,1.215282,-0.571533,0.320492,0.16838699999999998,0.163438,-0.11174
411,-0.6183029999999999,-1.438585,-0.508644,-0.076338,0.991273,-0.10731500000000001,1.1401459999999999,-0.738254,0.25395100000000004,0.14843599999999998,0.081863,-0.04895
412,-0.534032,-1.422947,-0.406607,-0.074925,0.9890899999999999,-0.126703,0.9822120000000001,-0.872484,0.125901,0.12337200000000001,-0.027893,0.08223899999999999
413,-0.490428,-1.408935,-0.3468,-0.07585700000000001,0.9869290000000001,-0.14207,0.748672,-0.716778,0.018316,0.124731,-0.05892000000000001,0.10313
414,-0.47069300000000003,-1.398,-0.314763,-0.077931,0.985108,-0.153156,0.525777,-0.50702,-0.029443,0.140477,-0.056122000000000005,0.057926
415,-0.462042,-1.390559,-0.299007,-0.079871,0.983801,-0.160385,0.31998000000000004,-0.26864899999999997,-0.054687,0.150092,-0.061575,0.04567
416,-0.462243,-1.386293,-0.295108,-0.081775,0.9830270000000001,-0.164127,0.155193,-0.143325,-0.075261,0.11038599999999998,-0.112376,0.043048
417,-0.471358,-1.383268,-0.301201,-0.084619,0.982468,-0.166024,0.089033,-0.215254,-0.145065,-0.023444,-0.150238,0.044625
418,-0.494521,-1.380019,-0.317521,-0.089956,0.981857,-0.166829,0.081153,-0.439467,-0.27836,-0.075099,-0.166641,0.040639
419,-0.534665,-1.3724450000000001,-0.347098,-0.100367,0.9803930000000001,-0.169482,0.252344,-0.580738,-0.529084,-0.11006700000000001,-0.176026,0.007693000000000001
420,-0.5821109999999999,-1.359443,-0.383212,-0.11529500000000001,0.977748,-0.17516900000000002,0.429029,-0.6274569999999999,-0.72007,-0.092438,-0.125606,-0.071764
421,-0.62655,-1.341397,-0.41452,-0.133292,0.9738030000000001,-0.184145,0.602966,-0.735192,-0.835153,-0.070397,-0.060503999999999995,-0.129194
422,-0.670138,-1.320856,-0.44221099999999997,-0.153587,0.9689270000000001,-0.193805,0.622704,-0.920351,-0.902076,-0.032937,0.014943999999999999,-0.136441
423,-0.713496,-1.300052,-0.465434,-0.175003,0.963572,-0.20216900000000002,0.595198,-1.084394,-0.8806930000000001,0.004089,0.037237,-0.10016900000000001
424,-0.752041,-1.280426,-0.483696,-0.195549,0.9581379999999999,-0.20905,0.534416,-1.014129,-0.8171149999999999,0.042533999999999995,0.044944,-0.055263
425,-0.78467,-1.262956,-0.498654,-0.214063,0.95299,-0.214375,0.431299,-0.854289,-0.74006,0.043684,0.0323,0.032704000000000004
426,-0.814652,-1.247558,-0.512686,-0.23104299999999997,0.948212,-0.217906,0.34374499999999997,-0.8254,-0.695843,0.016276,0.018509,0.037212
427,-0.8465719999999999,-1.2335639999999999,-0.529389,-0.247797,0.943674,-0.21919299999999997,0.22976300000000002,-0.781347,-0.691354,0.010126000000000001,0.011724,0.022981
428,-0.878267,-1.22076,-0.547879,-0.263898,0.9393600000000001,-0.21892899999999998,0.148099,-0.6617970000000001,-0.6803279999999999,0.00028700000000000004,0.026155,-0.004383
429,-0.9075040000000001,-1.209824,-0.567628,-0.278265,0.9355540000000001,-0.21743400000000002,0.027181,-0.44642299999999996,-0.622696,0.008383,0.027763999999999997,0.007824
430,-0.9350649999999999,-1.201143,-0.5896279999999999,-0.290675,0.9324530000000001,-0.214498,-0.085681,-0.32169000000000003,-0.5488689999999999,0.022959999999999998,0.040631,0.013021000000000001
431,-0.960923,-1.1943110000000001,-0.612085,-0.30133899999999997,0.9299629999999999,-0.21055500000000002,-0.15578699999999998,-0.20233900000000002,-0.498237,-0.0033640000000000002,-0.026276,0.03456
432,-0.986244,-1.1887299999999998,-0.6356930000000001,-0.310898,0.9278959999999999,-0.205719,-0.229386,-0.173422,-0.47315,-0.010131999999999999,-0.033639999999999996,0.037551999999999995
433,-1.013153,-1.183949,-0.6607850000000001,-0.32008200000000003,0.9261030000000001,-0.199626,-0.28928899999999996,-0.182902,-0.44791899999999996,0.010511,-0.05092,0.002238
434,-1.041611,-1.180281,-0.6876359999999999,-0.328563,0.9247129999999999,-0.192151,-0.381274,-0.18703499999999998,-0.400487,0.010905,-0.063354,-0.0255
435,-1.073005,-1.178367,-0.71565,-0.335986,0.923983,-0.182588,-0.421821,-0.337453,-0.311915,0.022341,-0.054049,-0.055785
436,-1.104623,-1.177792,-0.7419,-0.342064,0.9237629999999999,-0.17211400000000002,-0.448992,-0.362206,-0.22554699999999997,0.048607,-0.08280499999999999,-0.019018
437,-1.134548,-1.179303,-0.7687430000000001,-0.34579499999999996,0.9243399999999999,-0.161211,-0.524351,-0.166371,-0.116297,0.059296,-0.100366,0.018603
438,-1.1624729999999999,-1.183023,-0.798874,-0.347002,0.925753,-0.150127,-0.656922,0.082008,-0.043834,0.06155599999999999,-0.09137200000000001,0.016093
439,-1.1913690000000001,-1.18921,-0.8332950000000001,-0.345867,0.928075,-0.137914,-0.745644,0.17447100000000001,0.08681900000000001,0.053585,-0.044255,0.009434999999999999
440,-1.222709,-1.197915,-0.871841,-0.342409,0.9312819999999999,-0.124247,-0.8695200000000001,0.261799,0.200141,0.046342,-0.00457,-0.015096
441,-1.252905,-1.207123,-0.909911,-0.337843,0.9345959999999999,-0.111168,-0.756447,0.267757,0.210538,-0.043016000000000006,0.02332,-0.062599
442,-1.278672,-1.215169,-0.944199,-0.333381,0.937428,-0.100257,-0.6771590000000001,0.33674899999999997,0.204594,-0.073159,0.07285599999999999,-0.064889
443,-1.304405,-1.22325,-0.9784010000000001,-0.328529,0.940211,-0.089648,-0.6870390000000001,0.311071,0.240877,-0.031639999999999995,0.06487000000000001,-0.046705
444,-1.3326129999999998,-1.2319440000000002,-1.014458,-0.322969,0.9431370000000001,-0.078414,-0.707712,0.26516100000000004,0.284589,0.001741,0.059305,-0.037170999999999996
445,-1.361212,-1.240315,-1.049275,-0.317343,0.945886,-0.06750199999999999,-0.6216510000000001,0.17542,0.274623,0.00379,0.08457,-0.053623000000000004
446,-1.388113,-1.246773,-1.0799459999999999,-0.313029,0.9479620000000001,-0.05782999999999999,-0.49799099999999996,0.063496,0.184831,-0.016531,0.101171,-0.074433
447,-1.412764,-1.250297,-1.1062809999999998,-0.31105700000000003,0.9490780000000001,-0.049571,-0.426233,-0.00441,0.055096000000000006,-0.048135000000000004,0.11774000000000001,-0.07492599999999999
448,-1.440051,-1.25146,-1.133775,-0.311199,0.9494440000000001,-0.040921,-0.455067,-0.091338,-0.026179,0.001827,0.06650199999999999,-0.010775
449,-1.47425,-1.252542,-1.1661059999999999,-0.311392,0.949783,-0.030157999999999997,-0.531672,-0.23401,0.021539,0.058691999999999994,0.038468,-0.011758
450,-1.507228,-1.25489,-1.196036,-0.30999,0.950515,-0.019732,-0.42189099999999996,-0.17188900000000001,0.108752,0.054206,0.016709,0.0027489999999999997
451,-1.5246870000000001,-1.258391,-1.215536,-0.30695900000000004,0.9515969999999999,-0.014163999999999998,-0.248741,0.22025300000000003,0.194917,0.10951099999999998,0.039049,0.047245
452,-1.524548,-1.263557,-1.2249809999999999,-0.30204200000000003,0.9531719999999999,-0.013978999999999998,-0.10679300000000001,0.552852,0.27987199999999995,0.098291,0.06494,0.05176
453,-1.51742,-1.2694379999999998,-1.2270530000000002,-0.29633200000000004,0.9549340000000001,-0.015832,-0.018159,0.341586,0.28823899999999997,0.027197000000000002,0.050681,0.049477999999999994
454,-1.514701,-1.274629,-1.226821,-0.291333,0.956462,-0.01636,-0.019478,-0.005472,0.234195,0.002897,0.039342,0.014894999999999999
455,-1.525134,-1.279175,-1.233226,-0.287141,0.957779,-0.013121,-0.175452,-0.304211,0.218533,-0.012785,0.034652999999999996,-0.03673
456,-1.545399,-1.2836290000000001,-1.250111,-0.28307899999999997,0.95905,-0.0071909999999999995,-0.237127,-0.058832,0.1804,-0.011278,0.029262,-0.10338900000000001
457,-1.545981,-1.2859690000000001,-1.2552,-0.28084000000000003,0.9597100000000001,-0.006971,0.058494000000000004,0.33257800000000004,0.077278,0.047853,0.050254,-0.046435000000000004
458,-1.52416,-1.286206,-1.2415040000000002,-0.28039400000000003,0.959777,-0.013086000000000002,0.23871399999999998,0.456967,-0.016694,0.065795,0.023774,0.028406
459,-1.502362,-1.285086,-1.226128,-0.281116,0.959462,-0.019268,0.170706,0.252782,-0.044681,0.128437,-0.026326,0.169659
460,-1.499231,-1.284514,-1.2235200000000002,-0.28160300000000005,0.9593,-0.020187,-0.05400800000000001,-0.100239,-0.012684,0.169984,-0.029827,0.174805
461,-1.515209,-1.285212,-1.236205,-0.281221,0.9594969999999999,-0.015649,-0.24779600000000002,-0.19248099999999999,0.045901,0.182603,-0.044657,0.161385
462,-1.536555,-1.287079,-1.255456,-0.279699,0.9600219999999999,-0.009581000000000001,-0.280835,-0.128675,0.102204,0.145071,0.007996,0.076323
463,-1.558331,-1.289641,-1.275457,-0.277381,0.960735,-0.0034579999999999997,-0.273391,-0.11386800000000001,0.12253399999999999,0.107733,0.000583,0.052225
464,-1.580442,-1.2926389999999999,-1.297087,-0.274508,0.961563,0.002648,-0.287986,-0.0074129999999999995,0.153274,0.07083400000000001,-0.015899,0.066932
465,-1.605959,-1.2955459999999999,-1.3227520000000001,-0.271555,0.962357,0.009553,-0.370542,-0.11146700000000001,0.138944,0.012338,0.058151,0.062423
466,-1.6355600000000001,-1.2972540000000001,-1.351119,-0.269511,0.9628200000000001,0.017478999999999998,-0.368108,-0.106867,0.06094,-0.006795000000000001,-0.0058649999999999996,0.090889
467,-1.666873,-1.296914,-1.379618,-0.269158,0.962728,0.025939999999999998,-0.390881,-0.267328,-0.018062,-0.009345000000000001,0.030329000000000002,0.062027
468,-1.7007279999999998,-1.295377,-1.40781,-0.269592,0.962311,0.035227,-0.38151399999999996,-0.342902,-0.041401,-0.019013,0.028076,0.07172200000000001
469,-1.73236,-1.293621,-1.432517,-0.27001,0.961832,0.044007,-0.296644,-0.45184799999999997,-0.042805,-0.006494,0.008764,0.052199
470,-1.758231,-1.291592,-1.448874,-0.27069899999999997,0.961275,0.051341,-0.195436,-0.512808,-0.070862,0.008476000000000001,0.011793000000000001,0.085103
471,-1.7785380000000002,-1.289295,-1.46072,-0.27176,0.9606389999999999,0.057282000000000007,-0.18848399999999998,-0.383959,-0.064569,0.009538,0.012429,0.079162
472,-1.796943,-1.2882719999999999,-1.475729,-0.27161799999999997,0.960355,0.062495,-0.232377,-0.107127,0.008477,-0.00571,0.010318,0.087652
473,-1.8166419999999999,-1.2874729999999999,-1.494583,-0.27107800000000004,0.960132,0.06801900000000001,-0.25688099999999997,-0.06563300000000001,0.042436,-0.031641,0.071561,0.002507
474,-1.834856,-1.287739,-1.513093,-0.269547,0.960206,0.072878,-0.24175300000000002,0.018305000000000002,0.084095,-0.030853,0.075683,-0.045732999999999996
475,-1.845925,-1.2882639999999999,-1.526852,-0.268239,0.960353,0.07572000000000001,-0.123727,0.15748299999999998,0.075127,-0.019908000000000002,0.067937,-0.066992
476,-1.847364,-1.289421,-1.5314969999999999,-0.267061,0.960674,0.075803,0.020218,0.148419,0.085758,0.027116,0.007969,-0.09402200000000001
477,-1.837418,-1.29162,-1.524499,-0.265763,0.961283,0.072586,0.16645,0.14691099999999999,0.06969,0.040223,0.019430000000000003,-0.025666
478,-1.826138,-1.293456,-1.513451,-0.264858,0.9617870000000001,0.06913899999999999,0.15077100000000002,-0.055288,0.032451,0.051586,-0.003764,0.023147
479,-1.8220040000000002,-1.2940969999999998,-1.504942,-0.264544,0.9619620000000001,0.06788999999999999,0.103019,-0.28396,-0.016727000000000002,0.072879,-0.019976,0.050151999999999995
480,-1.8217580000000002,-1.293934,-1.49768,-0.26471300000000003,0.961918,0.067864,0.07295,-0.352995,-0.042486,0.10431300000000002,-0.010975,0.045479
481,-1.823452,-1.2932649999999999,-1.49199,-0.265221,0.961735,0.068473,0.049422,-0.38161100000000003,-0.058637,0.102974,0.026057999999999998,0.034142
482,-1.831116,-1.292357,-1.4896770000000001,-0.265532,0.9614860000000001,0.070728,0.012376999999999999,-0.552992,-0.058676,0.097868,-0.007948,0.025998
483,-1.840818,-1.291204,-1.487681,-0.265901,0.961168,0.07359600000000001,0.018706,-0.578542,-0.068213,0.10298299999999999,-0.028124,0.034069999999999996
484,-1.850212,-1.290096,-1.485678,-0.266219,0.9608620000000001,0.07638400000000001,-0.000455,-0.5688880000000001,-0.06836,0.116943,0.046111,0.030122000000000003
485,-1.8611990000000003,-1.289037,-1.485425,-0.266339,0.960568,0.079596,-0.0024920000000000003,-0.533782,-0.054532000000000004,0.13785999999999998,0.059207,0.013132
486,-1.868482,-1.288889,-1.483364,-0.265888,0.960527,0.081575,0.046895,-0.41272200000000003,-0.001999,0.167027,0.076568,-0.00374
487,-1.8711209999999998,-1.290308,-1.479017,-0.26437,0.9609200000000001,0.081873,0.10256300000000002,-0.303462,0.065548,0.171825,0.085878,-0.021692
488,-1.869225,-1.292876,-1.471627,-0.262165,0.961628,0.08064600000000001,0.160428,-0.227046,0.08615,0.13776,0.072994,-0.00719
489,-1.862191,-1.295639,-1.460818,-0.26018,0.962382,0.07803600000000001,0.19183699999999998,-0.134429,0.0745,0.11766199999999999,0.043095,0.001508
490,-1.8516279999999998,-1.298363,-1.447908,-0.258469,0.9631190000000001,0.074557,0.21461,-0.07157999999999999,0.055351,0.084427,0.030991,-0.007128
491,-1.8379470000000002,-1.300704,-1.4323270000000001,-0.25729,0.9637459999999999,0.07041900000000001,0.23917199999999997,-0.073766,0.048048,0.077252,0.020278,0.000245
492,-1.824012,-1.302885,-1.4162370000000002,-0.256211,0.964326,0.0663,0.229594,-0.077955,0.038372,0.062913,0.011687000000000001,0.0242
493,-1.81086,-1.304611,-1.40129,-0.255444,0.964781,0.062529,0.204205,-0.049027,0.018930000000000002,0.05556900000000001,0.003831,0.038606
494,-1.799246,-1.305567,-1.388809,-0.255254,0.965033,0.059349,0.14582,-0.010366,-0.008232999999999999,0.050329,-0.003073,0.037758
495,-1.792154,-1.305636,-1.380639,-0.255604,0.96505,0.057522000000000004,0.091338,-0.06329,-0.045933999999999996,0.046589,0.0008,0.022723
496,-1.7880080000000003,-1.304769,-1.374008,-0.256656,0.964823,0.056642,0.072995,-0.14086300000000002,-0.07800900000000001,0.057025,-0.0020239999999999998,0.003127
497,-1.7876169999999998,-1.303116,-1.369042,-0.258235,0.9643870000000001,0.056885000000000005,0.036209,-0.282306,-0.105859,0.074488,0.003341,-0.014953999999999999
498,-1.792634,-1.3011190000000001,-1.3660809999999999,-0.259826,0.963857,0.058603999999999996,0.016335,-0.443047,-0.11754200000000001,0.100586,0.033,-0.020731
499,-1.799942,-1.2989680000000001,-1.363852,-0.261409,0.963282,0.060972000000000005,0.004407,-0.480311,-0.11223599999999999,0.106273,0.03713,-0.020307
500,-1.8092130000000002,-1.297142,-1.363412,-0.262542,0.9627899999999999,0.063808,-0.028808999999999998,-0.47713999999999995,-0.077221,0.10513299999999999,0.046091,-0.027797000000000002
501,-1.817627,-1.296297,-1.363324,-0.262786,0.9625610000000001,0.066214,0.011986,-0.38156599999999996,-0.037534,0.07289,0.069849,-0.027777
502,-1.818443,-1.296578,-1.3585,-0.26247,0.9626370000000001,0.066362,0.08730800000000001,-0.199824,0.002283,0.044895,0.036019999999999996,-0.011156000000000001
503,-1.8127959999999999,-1.297452,-1.350647,-0.262023,0.962874,0.064677,0.123143,-0.048727,0.01409,0.034972,0.014009,-0.002513
504,-1.803869,-1.298594,-1.340798,-0.26152,0.963181,0.062081,0.141423,-0.027442,0.003508,0.017181000000000002,-0.012879,0.018882
505,-1.7949009999999999,-1.299044,-1.330781,-0.26164299999999996,0.963302,0.059637,0.12338199999999999,-0.041087,-0.031851,0.009415,-0.026031,0.034891000000000005
506,-1.7893430000000001,-1.2984120000000001,-1.3232549999999998,-0.26256399999999996,0.963132,0.058314,0.072034,-0.11211900000000001,-0.072712,6.7e-05,-0.018247,0.045002999999999994
507,-1.786332,-1.2968309999999998,-1.31736,-0.264226,0.962706,0.057849,0.053926,-0.141738,-0.10912000000000001,0.004598,-0.01782,0.049878
508,-1.7854860000000001,-1.294538,-1.313123,-0.266433,0.962083,0.058096,0.029383,-0.169242,-0.135961,0.023773,-0.021272,0.054467999999999996
509,-1.785448,-1.2919530000000001,-1.309279,-0.268865,0.961375,0.058615,0.027163,-0.185227,-0.132752,0.037847000000000006,-0.01269,0.05834299999999999
510,-1.787591,-1.289768,-1.307878,-0.27079000000000003,0.9607709999999999,0.059642999999999995,-0.022997999999999998,-0.15748199999999998,-0.101091,0.028191,-0.004289,0.059512999999999996
511,-1.792518,-1.28808,-1.3103770000000001,-0.272075,0.9603010000000001,0.061333000000000006,-0.05177999999999999,-0.11385899999999999,-0.06289199999999999,0.011775,-0.007039,0.05474
512,-1.797763,-1.287092,-1.3133780000000002,-0.272673,0.960025,0.062973,-0.040212,-0.11617100000000001,-0.027556999999999998,-0.008867,-0.002643,0.051743
513,-1.802729,-1.286622,-1.3163989999999999,-0.27279499999999995,0.959893,0.064429,-0.049737,-0.08848400000000001,-0.016977000000000003,-0.024003999999999998,0.007682,0.046075
514,-1.807609,-1.28604,-1.320922,-0.273019,0.95973,0.06589099999999999,-0.056667999999999996,0.028730000000000002,-0.019312,-0.039954,-0.010222,0.049618
515,-1.807997,-1.285164,-1.323456,-0.273811,0.959484,0.066194,-0.028287,0.141671,-0.049168,-0.033394,-0.010478,0.033949
516,-1.803663,-1.283772,-1.322881,-0.275395,0.959091,0.065315,0.012718,0.210907,-0.08315399999999999,-0.016552,-0.000839,0.026406
517,-1.796172,-1.2819209999999999,-1.319307,-0.277606,0.958565,0.06364700000000001,0.04904,0.195969,-0.108518,0.004627,0.005379,0.015058000000000002
518,-1.786716,-1.279832,-1.313292,-0.28015100000000004,0.957968,0.061448,0.07992,0.186362,-0.12007899999999999,0.027725,0.008936,0.022826
519,-1.77495,-1.277828,-1.304873,-0.282735,0.957391,0.058537,0.11303599999999998,0.189468,-0.12626099999999998,0.028858999999999996,0.008674,0.032085
520,-1.7619779999999998,-1.275727,-1.295323,-0.28544400000000003,0.956782,0.055246,0.12802,0.195824,-0.130438,0.021559000000000002,0.010717,0.037145
521,-1.747136,-1.2736,-1.284362,-0.28823699999999997,0.956161,0.051361000000000004,0.15064,0.237317,-0.136742,0.016097,0.01529,0.036469
522,-1.729275,-1.2713809999999999,-1.271667,-0.291204,0.955509,0.04654,0.183068,0.321399,-0.14623699999999998,0.015782,0.014003999999999999,0.036468
523,-1.707491,-1.269007,-1.256764,-0.29439499999999996,0.9548059999999999,0.040494999999999996,0.218725,0.40973999999999994,-0.157852,0.015403,0.011212,0.040392000000000004
524,-1.6828900000000002,-1.26636,-1.240791,-0.297815,0.954016,0.033524,0.229839,0.498162,-0.16857,0.003992,0.009973000000000001,0.055527
525,-1.656939,-1.263479,-1.224746,-0.301322,0.953149,0.026021,0.234375,0.5556800000000001,-0.170748,0.0064150000000000006,0.008354,0.074779
526,-1.631124,-1.260508,-1.2093639999999999,-0.304719,0.9522450000000001,0.018405,0.222611,0.553574,-0.166555,0.01996,0.010737,0.08936799999999999
527,-1.608103,-1.2576040000000002,-1.196498,-0.307825,0.951355,0.011489,0.17764000000000002,0.5355479999999999,-0.14868599999999998,0.032343000000000004,0.004059,0.09596299999999999
528,-1.5892899999999999,-1.255032,-1.188023,-0.31043200000000004,0.950559,0.005742000000000001,0.11356600000000001,0.548449,-0.122445,0.034935,-0.0043159999999999995,0.094707
529,-1.574545,-1.253097,-1.184218,-0.312324,0.9499569999999999,0.0011710000000000002,0.041985,0.563463,-0.085576,0.033576,-0.005529,0.072422
530,-1.563415,-1.251639,-1.184065,-0.313703,0.9495,-0.002316,0.005573,0.548612,-0.069788,0.026532,0.000359,0.021419999999999998
531,-1.553598,-1.250548,-1.185686,-0.314701,0.9491569999999999,-0.005413,-0.024175,0.598695,-0.047628,0.011204,0.006074,-0.018772
532,-1.5436459999999999,-1.2498340000000001,-1.189039,-0.315309,0.948932,-0.008563,-0.037636,0.695657,-0.041436,-0.014906,0.03703,-0.08128099999999999
533,-1.528816,-1.248989,-1.189322,-0.315949,0.948665,-0.013271999999999999,0.035399,0.8008770000000001,-0.044266,-0.040924,0.040744999999999996,-0.140674
534,-1.505827,-1.24797,-1.18355,-0.316525,0.948343,-0.020594,0.131949,0.9166639999999999,-0.045876,-0.042667000000000004,0.048026,-0.134985
535,-1.476306,-1.246667,-1.1717520000000001,-0.31701,0.9479280000000001,-0.030044,0.22683299999999998,0.890808,-0.055863,-0.059378,0.039529,-0.092576
536,-1.445191,-1.244818,-1.155459,-0.317662,0.9473379999999999,-0.040111,0.278356,0.706403,-0.072358,-0.061702,0.045857,-0.06329800000000001
537,-1.418882,-1.2423309999999999,-1.1399540000000001,-0.318826,0.9465379999999999,-0.04881,0.23707199999999998,0.514904,-0.099106,-0.048499,0.052638,-0.06346399999999999
538,-1.397384,-1.239715,-1.1275110000000002,-0.32014000000000004,0.945692,-0.05608,0.210267,0.49577899999999997,-0.088587,-0.02419,0.046664,-0.09337999999999999
539,-1.3745049999999999,-1.2376530000000001,-1.115507,-0.320687,0.945019,-0.063769,0.21176999999999999,0.635155,-0.046026,-0.021415,0.041111,-0.09475499999999999
540,-1.34854,-1.236608,-1.103593,-0.319887,0.944677,-0.072291,0.19408399999999998,0.796891,0.0156,-0.06671,-0.017873,-0.071096
541,-1.320463,-1.2369809999999999,-1.0928129999999998,-0.31739,0.9447989999999999,-0.08115599999999999,0.145281,0.9352360000000001,0.093062,-0.070656,0.003275,-0.022665
542,-1.2924950000000002,-1.23959,-1.085146,-0.312626,0.945651,-0.089322,0.038887,1.104568,0.19678800000000002,-0.080776,0.004697,0.051618
543,-1.266373,-1.244438,-1.083043,-0.305809,0.947216,-0.096082,-0.080237,1.250667,0.26093,-0.088692,0.005116,0.07992300000000001
544,-1.243312,-1.249831,-1.085577,-0.29867,0.948931,-0.101463,-0.149319,1.271303,0.221965,-0.08469199999999999,0.002134,0.06767999999999999
545,-1.226996,-1.253218,-1.093397,-0.29394699999999996,0.949994,-0.10523800000000001,-0.18127200000000002,1.1091280000000001,0.046761000000000004,-0.055647,0.021044,0.016569999999999998
546,-1.217489,-1.254051,-1.1046200000000002,-0.292191,0.950254,-0.107754,-0.165413,0.9795020000000001,-0.051238,-0.032898000000000004,-0.0048200000000000005,-0.012698000000000001
547,-1.211716,-1.251982,-1.116101,-0.293404,0.949608,-0.11012999999999999,-0.10920999999999999,0.757252,-0.19797599999999999,-0.029579,-0.038368,-0.010079000000000001
548,-1.211193,-1.251935,-1.129604,-0.293387,0.949593,-0.110299,-0.299703,0.656704,0.07001399999999999,0.106315,-0.025994,0.08228400000000001
549,-1.217763,-1.259882,-1.153162,-0.287015,0.9520540000000001,-0.10575599999999999,-0.5591619999999999,0.87705,0.336043,0.18441400000000002,-0.075986,0.09278600000000001
550,-1.2264329999999999,-1.271955,-1.182499,-0.277079,0.955678,-0.099375,-0.6456350000000001,0.9568760000000001,0.42827200000000004,0.159174,-0.052617,0.057153999999999996
551,-1.2448,-1.2835379999999998,-1.216567,-0.26835,0.959024,-0.090718,-0.6525270000000001,0.5406569999999999,0.35825500000000005,0.15876099999999999,-0.03808,0.015706
552,-1.272943,-1.2934809999999999,-1.252508,-0.261664,0.961794,-0.080327,-0.601377,0.220111,0.28852,0.101172,-0.011217,-0.002208
553,-1.299719,-1.30144,-1.2841690000000001,-0.256335,0.963942,-0.07124,-0.472249,0.18574200000000002,0.246738,0.050341000000000004,-0.022185,-0.016452
554,-1.319668,-1.306676,-1.3101639999999999,-0.252812,0.9653219999999999,-0.06485700000000001,-0.339841,0.29668,0.094765,-0.013713,-0.038992,-0.078713
555,-1.330655,-1.3072409999999999,-1.3281610000000001,-0.252979,0.96547,-0.061946,-0.15651600000000002,0.301079,-0.09837699999999999,-0.016384,0.036712,-0.155949
556,-1.329672,-1.3034270000000001,-1.331844,-0.25649299999999997,0.964469,-0.063074,0.07510900000000001,0.169869,-0.25361999999999996,-0.046119,0.034676,-0.1742
557,-1.320393,-1.297441,-1.3241610000000001,-0.26148699999999997,0.9628700000000001,-0.066881,0.20497800000000002,0.076851,-0.281435,-0.060289999999999996,-0.011073000000000001,-0.093931
558,-1.310341,-1.2916450000000002,-1.314571,-0.26619,0.96129,-0.07094199999999999,0.178731,0.0031609999999999997,-0.21209,-0.092208,0.039641,-0.034983999999999994
559,-1.3039120000000002,-1.287251,-1.307827,-0.269802,0.9600700000000001,-0.073766,0.097554,0.008664,-0.18595799999999998,-0.045353,-0.013338,0.024159
560,-1.303995,-1.283987,-1.309515,-0.272831,0.959151,-0.07457000000000001,-0.041898000000000005,0.126135,-0.137945,0.049412,0.007370999999999999,0.054123000000000004
561,-1.305568,-1.283344,-1.31702,-0.273544,0.9589690000000001,-0.07430199999999999,-0.14057999999999998,0.376295,-0.007562999999999999,0.096481,-0.008468999999999999,0.08358
562,-1.307541,-1.285662,-1.329569,-0.271542,0.959624,-0.073184,-0.230942,0.563634,0.108002,0.092191,0.004503,0.075503
563,-1.309668,-1.289617,-1.3446120000000001,-0.26802800000000004,0.960729,-0.071625,-0.26068,0.64025,0.154698,0.023735,0.014766,0.002472
564,-1.312641,-1.29386,-1.361029,-0.264295,0.9618979999999999,-0.069786,-0.274554,0.622257,0.137532,0.033598,-0.0023940000000000003,-0.035407999999999995
565,-1.318713,-1.297677,-1.378191,-0.261156,0.9629340000000001,-0.067264,-0.23565500000000003,0.449725,0.09316,0.022417,-0.027906,-0.107358
566,-1.320806,-1.2992700000000001,-1.385111,-0.25981,0.963363,-0.066338,-0.034408999999999995,0.066821,0.036304,0.041365,0.026979000000000003,-0.15435
567,-1.31897,-1.298875,-1.380125,-0.260056,0.9632569999999999,-0.066909,0.126695,-0.24980500000000003,-0.04335,0.029693999999999998,-0.006027,-0.113968
568,-1.3150959999999998,-1.296386,-1.3693389999999999,-0.262114,0.962585,-0.068523,0.177799,-0.334958,-0.104841,0.030119999999999997,-0.036682,-0.077351
569,-1.3136940000000001,-1.293758,-1.361832,-0.264465,0.9618700000000001,-0.069533,0.071372,-0.269547,-0.11210899999999999,0.085617,-0.03296,0.027343
570,-1.3180049999999999,-1.2913290000000002,-1.3611950000000002,-0.267023,0.961202,-0.068977,0.017130000000000003,-0.243743,-0.124271,0.109705,0.004282,0.022819
571,-1.323425,-1.2893,-1.361769,-0.269283,0.960641,-0.068006,-0.011886,-0.252318,-0.086007,0.126797,0.079765,0.021817
572,-1.332333,-1.2893,-1.367017,-0.269879,0.960641,-0.065604,-0.12703499999999998,-0.131958,0.01772,0.05064,0.106742,0.029136000000000002
573,-1.345576,-1.291435,-1.3802,-0.26872399999999996,0.961232,-0.061567,-0.23654299999999998,0.0013880000000000001,0.065923,-0.018095,0.051448,0.023328
574,-1.361477,-1.293556,-1.395836,-0.26767399999999997,0.961814,-0.056862,-0.219694,-0.082687,0.030897000000000004,-0.023464,-0.033270999999999995,0.026909
575,-1.3786370000000001,-1.294145,-1.410207,-0.26805300000000004,0.961976,-0.052153,-0.183675,-0.222031,-0.051994000000000005,-0.020871999999999998,-0.053727,0.030012
576,-1.396579,-1.293318,-1.42251,-0.269729,0.961749,-0.047473,-0.14890499999999998,-0.353045,-0.085767,-0.00705,-0.028277999999999998,0.018588
577,-1.41468,-1.292129,-1.432879,-0.271673,0.9614229999999999,-0.042761,-0.11513399999999999,-0.428824,-0.079024,0.007696,-0.01817,-0.000559
578,-1.430142,-1.290749,-1.4394120000000001,-0.27361599999999997,0.961042,-0.038741000000000005,-0.050256999999999996,-0.48546300000000003,-0.090249,-0.007756,0.016191999999999998,-0.020005000000000002
579,-1.442839,-1.288383,-1.440116,-0.276341,0.9603860000000001,-0.035554,0.039682999999999996,-0.6848479999999999,-0.123548,-0.010875,0.10615799999999999,-0.050399
580,-1.454605,-1.28589,-1.435837,-0.279118,0.9596879999999999,-0.032577999999999996,0.091265,-0.825701,-0.10912100000000001,-0.001415,0.106245,-0.028457
581,-1.463853,-1.283751,-1.4297739999999999,-0.281447,0.9590850000000001,-0.030213999999999998,0.10037,-0.680928,-0.091083,0.005141,0.090125,-0.008986
582,-1.4668729999999999,-1.282015,-1.421948,-0.283193,0.958592,-0.029537,0.12799100000000002,-0.44357299999999994,-0.064488,0.029424000000000002,0.031261000000000004,0.042552
583,-1.46576,-1.280735,-1.412888,-0.28438,0.958226,-0.029981,0.136703,-0.389334,-0.049542,0.041171,-0.001577,0.105084
584,-1.4662819999999999,-1.279621,-1.403257,-0.285457,0.957907,-0.029944,0.14231300000000002,-0.550271,-0.034341,0.048549,-0.0031190000000000002,0.11606400000000001
585,-1.471471,-1.27931,-1.396256,-0.285904,0.9578180000000001,-0.028491000000000002,0.054428,-0.591703,0.013168000000000001,0.036759,-0.035699,0.10896600000000001
586,-1.484738,-1.280218,-1.398579,-0.285391,0.9580780000000001,-0.024621,-0.075682,-0.54346,0.049585000000000004,-0.017603,-0.030023,0.055810000000000005
587,-1.5028059999999999,-1.281339,-1.405618,-0.284717,0.958399,-0.019388,-0.10673599999999998,-0.5742229999999999,0.044066,-0.023449,-0.024897,0.022562
588,-1.5205600000000001,-1.282141,-1.412618,-0.284248,0.958627,-0.014292,-0.063716,-0.518893,0.022931,-0.0252,-0.025232,-0.007879
589,-1.531404,-1.282434,-1.414517,-0.28410599999999997,0.9587110000000001,-0.011198,0.008272,-0.420018,0.009420999999999999,-0.0037049999999999995,-0.023347,-0.006335
590,-1.536889,-1.2825090000000001,-1.41058,-0.284092,0.9587319999999999,-0.009637,0.096438,-0.512976,0.0026780000000000003,0.003498,-0.015373,-0.006843000000000001
591,-1.53942,-1.282521,-1.401145,-0.284104,0.958736,-0.008917,0.149378,-0.595218,0.010631,0.013932,-0.000545,0.031637
592,-1.541093,-1.282933,-1.390749,-0.283724,0.9588530000000001,-0.00843,0.139796,-0.564398,0.03723,0.024156999999999998,0.005869,0.062965
593,-1.543868,-1.284042,-1.38206,-0.282682,0.959167,-0.007614,0.108713,-0.559113,0.074394,0.011640000000000001,0.026795,0.063034
594,-1.548559,-1.285834,-1.375424,-0.280996,0.959672,-0.00625,0.078803,-0.539944,0.101934,-0.009394,0.053282,0.049936
595,-1.553915,-1.288102,-1.3706129999999999,-0.27884899999999996,0.960307,-0.0047079999999999995,0.064106,-0.46647,0.12203399999999999,-0.02947,0.059285000000000004,0.030663
596,-1.556574,-1.290448,-1.364849,-0.27660799999999997,0.960959,-0.003934,0.10080599999999999,-0.385581,0.108299,-0.047779,0.0505,0.002439
597,-1.554088,-1.29231,-1.354578,-0.274808,0.9614729999999999,-0.004592000000000001,0.166211,-0.33777399999999996,0.08412599999999999,-0.049136,0.031859,0.007155
598,-1.547228,-1.293614,-1.342834,-0.273517,0.96183,-0.006448000000000001,0.153329,-0.13844,0.063484,-0.049542,0.020866,0.03547
599,-1.538961,-1.294656,-1.333682,-0.27245199999999997,0.9621149999999999,-0.008676999999999999,0.109293,0.021553,0.051221,-0.029230000000000003,0.013044,0.053339
600,-1.531675,-1.295455,-1.326571,-0.27161199999999996,0.962332,-0.010631,0.090032,0.00141,0.043635,0.002248,0.014612,0.052639
601,-1.526373,-1.296353,-1.320255,-0.27068600000000004,0.962576,-0.012033,0.080123,-0.056123,0.054322,0.021709,0.0036710000000000002,0.0655
602,-1.523533,-1.2975709999999998,-1.315602,-0.269479,0.9629059999999999,-0.012745999999999999,0.047853,-0.09550299999999999,0.073375,0.029061,-0.004164999999999999,0.068593
603,-1.524684,-1.2990899999999999,-1.314581,-0.268031,0.9633139999999999,-0.012368,-0.00238,-0.107079,0.081584,0.022807,-0.020503999999999998,0.0561
604,-1.528129,-1.300757,-1.316,-0.266466,0.9637600000000001,-0.011376,-0.021544999999999998,-0.096368,0.08357300000000001,0.021974,-0.036101999999999995,0.046487
605,-1.531922,-1.3024870000000002,-1.318198,-0.264839,0.9642200000000001,-0.010301000000000001,-0.021445,-0.07399800000000001,0.08354500000000001,0.011940000000000001,-0.040514,0.059525
606,-1.535444,-1.304202,-1.320192,-0.26322,0.964674,-0.009309,-0.031104000000000003,-0.086747,0.083494,0.003988,-0.036817,0.063127
607,-1.540424,-1.3058379999999998,-1.32304,-0.261684,0.965103,-0.00795,-0.036596,-0.126126,0.079233,-0.008244,-0.01825,0.057388999999999996
608,-1.5464870000000002,-1.307356,-1.326382,-0.260261,0.9655,-0.006328,-0.040897,-0.140995,0.071745,-0.02311,-0.005051,0.055292999999999995
609,-1.552195,-1.308648,-1.329508,-0.259044,0.965836,-0.0048189999999999995,-0.038663,-0.130303,0.059996,-0.021153,-0.003632,0.059201
610,-1.557516,-1.3097809999999999,-1.332383,-0.257972,0.9661280000000001,-0.003426,-0.033270999999999995,-0.12284400000000001,0.054683,-0.016336,-0.006335,0.060738
611,-1.5633110000000001,-1.310892,-1.336044,-0.256911,0.9664149999999999,-0.001923,-0.047059,-0.099381,0.059898,-0.0069900000000000006,-0.016631,0.075913
612,-1.569943,-1.311949,-1.3414139999999999,-0.255895,0.966686,-0.000218,-0.07775800000000001,-0.055558,0.050013,-0.014704,-0.025356,0.074361
613,-1.5785120000000001,-1.312613,-1.349156,-0.255245,0.9668549999999999,0.00197,-0.105406,-0.059624,0.025256,-0.013279,-0.034009,0.067549
614,-1.589688,-1.312825,-1.3591440000000001,-0.255,0.966909,0.004818,-0.12570499999999998,-0.07761599999999999,0.013387,0.016658000000000003,-0.043066,0.049244
615,-1.602141,-1.313104,-1.3704290000000001,-0.25464899999999996,0.966981,0.007984,-0.146013,-0.073335,0.026059,0.03242,-0.046265,0.059978
616,-1.6169040000000001,-1.313655,-1.384158,-0.253972,0.9671209999999999,0.011718000000000001,-0.186636,-0.078571,0.0386,0.029287,-0.042789,0.066193
617,-1.635553,-1.314131,-1.4015229999999999,-0.25325,0.967242,0.016423,-0.229397,-0.101841,0.034058,0.004074,-0.026369999999999998,0.082149
618,-1.658064,-1.314086,-1.421864,-0.252859,0.9672299999999999,0.022123,-0.268005,-0.17191199999999998,0.008241,-0.008417000000000001,0.018548,0.06140399999999999
619,-1.683768,-1.313489,-1.443529,-0.252781,0.9670790000000001,0.028679000000000003,-0.276933,-0.274088,-0.006645,0.003147,0.025719,0.038627
620,-1.712359,-1.312565,-1.466681,-0.252741,0.966843,0.036019999999999996,-0.305925,-0.320837,-0.012129000000000001,0.018305000000000002,0.044174,0.008826
621,-1.742391,-1.311531,-1.492071,-0.252531,0.9665790000000001,0.043762999999999996,-0.330171,-0.22492199999999998,0.00571,0.010984,0.043218,0.028151
622,-1.771155,-1.310231,-1.519313,-0.252398,0.9662440000000001,0.051258000000000005,-0.361371,-0.055394000000000006,-0.004339,-0.013807,0.002307,0.052837999999999996
623,-1.7975310000000002,-1.308222,-1.547672,-0.252849,0.965725,0.058333,-0.386094,0.10993499999999999,-0.035702,-0.020741,-0.018475,0.056290999999999994
624,-1.821125,-1.305085,-1.57538,-0.254336,0.9649059999999999,0.065032,-0.389916,0.15703,-0.088132,-0.02702,-0.044069,0.072603
625,-1.843922,-1.300997,-1.600168,-0.256585,0.963824,0.071876,-0.34576,-0.028321,-0.128179,0.039376,-0.016727000000000002,0.048546
626,-1.8640919999999999,-1.297246,-1.616727,-0.258544,0.9628180000000001,0.078082,-0.20955300000000002,-0.31971700000000003,-0.102285,0.075682,0.019955,0.036863
627,-1.8807009999999997,-1.29562,-1.625561,-0.258702,0.962377,0.082842,-0.103701,-0.408894,-0.004222999999999999,0.098866,0.082865,0.040402999999999994
628,-1.895413,-1.2959690000000001,-1.633653,-0.257137,0.9624719999999999,0.08653200000000001,-0.094128,-0.32089,0.090803,0.017696,0.101889,0.009614
629,-1.913146,-1.297402,-1.644897,-0.254264,0.96286,0.090615,-0.1361,-0.370936,0.121552,-0.019875999999999998,0.096024,-0.022454
630,-1.935684,-1.298333,-1.659462,-0.251319,0.963111,0.096002,-0.181119,-0.444176,0.094626,-0.044915,0.042825,-0.094949
631,-1.9555580000000001,-1.2989,-1.673286,-0.248856,0.9632629999999999,0.100773,-0.14048,-0.188638,0.091378,-0.040619,0.010705,-0.109668
632,-1.9600790000000001,-1.299657,-1.6818009999999999,-0.24772199999999997,0.9634659999999999,0.10162,-0.050174,0.41939899999999997,0.072001,-0.0021100000000000003,0.011006,-0.120754
633,-1.945155,-1.301569,-1.679573,-0.247496,0.9639770000000001,0.097238,0.128071,0.682928,0.082523,0.055601,0.010633,-0.119546
634,-1.9184459999999999,-1.304575,-1.664146,-0.247279,0.964772,0.08960599999999999,0.29594000000000004,0.50135,0.057222,0.044183999999999994,0.009899,-0.049811
635,-1.892182,-1.307177,-1.6438259999999998,-0.247164,0.9654530000000001,0.082288,0.235198,0.250276,0.02721,0.046343,-0.012893,0.063465
636,-1.883329,-1.308302,-1.637456,-0.246848,0.9657459999999999,0.079762,0.014533,0.058210000000000005,0.031256,0.046744,-0.014391,0.102626
637,-1.8876509999999997,-1.308851,-1.6399419999999998,-0.245997,0.965888,0.080663,-0.042017,-0.182338,0.029032,0.043741,-0.004569,0.070536
638,-1.895471,-1.308875,-1.6431740000000001,-0.245338,0.965894,0.082577,-0.049658,-0.24506399999999998,0.00449,0.015632,0.0009480000000000001,0.030048000000000002
639,-1.9038490000000001,-1.3087360000000001,-1.647687,-0.24476399999999998,0.965858,0.084673,-0.054676,-0.164128,0.015034,-0.001772,0.007973000000000001,0.023725
640,-1.910834,-1.3088309999999999,-1.652636,-0.244079,0.965883,0.08635,-0.043705,-0.085383,0.026760000000000003,0.001373,0.018629,0.015837999999999998
641,-1.915602,-1.309185,-1.655974,-0.24334299999999998,0.965974,0.087398,-0.018034,-0.068436,0.029054000000000003,0.003124,0.02217,0.008657
642,-1.9176849999999999,-1.309767,-1.6573790000000002,-0.24263200000000001,0.966125,0.087713,0.001424,-0.0078,0.033385000000000005,0.010485,0.020859,0.002558
643,-1.91704,-1.310571,-1.6576790000000001,-0.241957,0.966332,0.087293,0.020982,0.081572,0.044088999999999996,0.0343,0.026938999999999998,-0.019757
644,-1.9133349999999998,-1.311777,-1.656409,-0.241182,0.966642,0.086004,0.047894,0.144291,0.053811000000000005,0.041948,0.026324,-0.024388999999999997
645,-1.9075080000000002,-1.313216,-1.653493,-0.240366,0.967009,0.084138,0.066025,0.145285,0.056073000000000005,0.040735,0.016618,-0.01999
646,-1.9012950000000002,-1.314708,-1.649752,-0.23951799999999998,0.9673879999999999,0.082174,0.071273,0.121847,0.051866999999999996,0.032853,0.017597,-0.003668
647,-1.8949060000000002,-1.31616,-1.645536,-0.238706,0.9677549999999999,0.080195,0.07234,0.117599,0.047607,0.026151999999999998,0.012744,0.006581999999999999
648,-1.8882759999999998,-1.3175290000000002,-1.64133,-0.237973,0.9680989999999999,0.078197,0.066035,0.133622,0.042201,0.019483,0.013728,0.008702
649,-1.881657,-1.318738,-1.637605,-0.23737199999999997,0.9684010000000001,0.076262,0.059767999999999995,0.16135,0.039985,0.015493,0.008451,0.017168
650,-1.8743419999999997,-1.3199370000000001,-1.633721,-0.236816,0.968699,0.07417699999999999,0.067346,0.184764,0.038939999999999995,0.015441999999999999,0.010808,0.027767
651,-1.8658970000000001,-1.3210950000000001,-1.628703,-0.236362,0.968986,0.071848,0.081192,0.173023,0.032642000000000004,0.019794,0.006249,0.032293
652,-1.8575700000000002,-1.322194,-1.62323,-0.235932,0.9692569999999999,0.069577,0.079981,0.136825,0.028406999999999998,0.014832,-0.006489,0.047138
653,-1.8511990000000003,-1.3230680000000001,-1.618818,-0.23555500000000001,0.9694719999999999,0.067838,0.059485,0.08364500000000001,0.025128,0.017202000000000002,-0.013966,0.058292
654,-1.847289,-1.3237139999999998,-1.615801,-0.235215,0.9696299999999999,0.066745,0.037947,0.02943,0.015433,0.021882,-0.015529,0.054898
655,-1.8458299999999999,-1.32409,-1.614351,-0.234963,0.969722,0.066303,0.016456000000000002,-0.008828,0.011059000000000001,0.02285,-0.018092,0.052410000000000005
656,-1.84736,-1.324192,-1.6153629999999999,-0.23476599999999997,0.9697469999999999,0.066636,-0.011373999999999999,-0.033214999999999995,0.006623,0.030497000000000003,-0.016378,0.04779
657,-1.850868,-1.324069,-1.617903,-0.23464699999999997,0.969717,0.067492,-0.03816,-0.066116,-0.001,0.029263,-0.016027,0.046369
658,-1.857086,-1.32354,-1.622212,-0.234713,0.9695870000000001,0.069094,-0.061818,-0.12243299999999999,-0.016048,0.026706,-0.018614,0.04556
659,-1.865884,-1.322673,-1.627912,-0.23490100000000003,0.969375,0.07140099999999999,-0.08339500000000001,-0.18623199999999998,-0.026799,0.03112,-0.019316999999999997,0.047251
660,-1.877084,-1.3215430000000001,-1.634934,-0.23513,0.969097,0.074357,-0.1028,-0.23515,-0.031145,0.033058,-0.008860999999999999,0.045867000000000005
661,-1.889741,-1.320217,-1.643148,-0.235389,0.9687690000000001,0.07773,-0.118755,-0.22762399999999997,-0.034470999999999995,0.023841,0.007534000000000001,0.037611
662,-1.902648,-1.318834,-1.652102,-0.23563299999999998,0.968425,0.081198,-0.127194,-0.200984,-0.029223000000000002,0.014762,0.020405,0.018167
663,-1.9150919999999998,-1.3174860000000002,-1.661211,-0.23583400000000002,0.968088,0.084565,-0.12277300000000001,-0.163727,-0.026035000000000003,0.008768000000000001,0.028158,-0.014756
664,-1.9251479999999999,-1.3163340000000001,-1.669114,-0.23601799999999998,0.967799,0.08731900000000001,-0.09790399999999999,-0.086066,-0.021688,0.006922,0.039617,-0.036461
665,-1.9295779999999998,-1.315549,-1.673473,-0.236339,0.967601,0.08863,-0.039743,0.038360000000000005,-0.019305000000000003,0.008037,0.03568,-0.040535
666,-1.9281840000000001,-1.3151700000000002,-1.67346,-0.23680700000000002,0.967505,0.088429,0.008424,0.07334600000000001,-0.019013,0.018179,0.024513999999999998,-0.038197
667,-1.9248319999999999,-1.315046,-1.6710740000000002,-0.237215,0.967474,0.087677,0.029594,0.037048000000000005,-0.01775,0.026475,0.017939,-0.008422
668,-1.9217229999999998,-1.3150190000000002,-1.668093,-0.23751,0.967467,0.086947,0.03366,-0.003464,-0.013397,0.029319,0.016267,0.0016600000000000002
669,-1.919043,-1.315099,-1.6651240000000003,-0.23767,0.9674870000000001,0.086284,0.032555,-0.008799,-0.010193,0.027923000000000003,0.009686,0.016758000000000002
670,-1.9166990000000002,-1.315243,-1.662506,-0.23774099999999998,0.9675239999999999,0.08567999999999999,0.023908000000000002,-0.017283,-0.0059960000000000005,0.02128,-0.001551,0.024687
671,-1.9165889999999999,-1.315223,-1.661643,-0.237769,0.967518,0.085661,0.001384,-0.044897,-0.007186,0.015403,-0.0009199999999999999,0.025484
672,-1.917859,-1.315004,-1.6620009999999998,-0.23786,0.967463,0.086035,-0.013538,-0.048014999999999995,-0.013696000000000002,0.010015999999999999,-0.006175,0.020151
673,-1.9200169999999999,-1.3146229999999999,-1.6632040000000001,-0.23801999999999998,0.967367,0.086674,-0.018872,-0.051179,-0.016934,0.010039,0.002055,0.008723999999999999
674,-1.921747,-1.314167,-1.663948,-0.238285,0.967251,0.087238,-0.013522999999999999,-0.050124,-0.019034,0.011509,0.0045509999999999995,0.004407
675,-1.923123,-1.313731,-1.664409,-0.23856100000000002,0.96714,0.087711,-0.009212999999999999,-0.041613,-0.020083,0.015522999999999999,0.011131,0.004681
676,-1.9240009999999999,-1.3133,-1.66468,-0.23887399999999998,0.967031,0.088064,-0.009117,-0.020308,-0.02011,0.018781,0.016246,0.009073000000000001
677,-1.92422,-1.312898,-1.6647560000000001,-0.23922,0.9669280000000001,0.088252,-0.007968000000000001,-0.002202,-0.020125,0.015038,0.012029999999999999,0.008976999999999999
678,-1.9243720000000002,-1.312469,-1.6646610000000002,-0.23959699999999998,0.9668190000000001,0.08843200000000001,-0.004849,-0.022444,-0.022213999999999998,0.0172,0.01011,0.004509
679,-1.9245900000000002,-1.312084,-1.664204,-0.239927,0.96672,0.088613,0.00148,-0.038446,-0.022149000000000002,0.015013,0.005371,0.004572
680,-1.9247759999999998,-1.311708,-1.6635630000000001,-0.24025100000000002,0.9666239999999999,0.088784,-0.000654,-0.039499,-0.023231,0.014452000000000001,0.00324,0.008079000000000001
681,-1.9252529999999999,-1.311242,-1.663273,-0.24063099999999998,0.966505,0.089054,-0.007031,-0.035212,-0.024349000000000003,0.014846999999999999,0.0037560000000000002,0.010235
682,-1.925992,-1.3107309999999999,-1.663345,-0.241029,0.9663729999999999,0.089404,-0.011279,-0.033058,-0.026518,0.019944,0.000927,0.012631
683,-1.9270650000000002,-1.31019,-1.663641,-0.24142399999999997,0.966234,0.08984600000000001,-0.013471,-0.044772,-0.02545,0.022002,0.007887,0.009764
684,-1.9280990000000002,-1.309708,-1.6636549999999999,-0.241767,0.96611,0.090258,-0.003917,-0.053337,-0.023236,0.019004,0.018616,0.0034460000000000003
685,-1.9281529999999998,-1.3094,-1.6625830000000001,-0.242042,0.9660299999999999,0.090375,0.016325,-0.056616,-0.019885,0.020331000000000002,0.022907,-0.012205
686,-1.926538,-1.3093540000000001,-1.6597529999999998,-0.24223000000000003,0.966018,0.09,0.045149,-0.047151,-0.014355000000000001,0.018658,0.023697,-0.023747
687,-1.922063,-1.309682,-1.65493,-0.24233200000000002,0.966103,0.088806,0.0774,0.015553999999999998,-0.005664,0.020316999999999998,0.023094,-0.023743
688,-1.9145919999999998,-1.310378,-1.64811,-0.24235500000000001,0.966282,0.086766,0.10421,0.058025,0.006219,0.022506,0.023952,-0.021366999999999997
689,-1.9050150000000001,-1.311377,-1.6397959999999998,-0.242261,0.9665389999999999,0.084124,0.12456700000000001,0.083494,0.012738,0.022244999999999997,0.019011,-0.011004
690,-1.893973,-1.3125360000000001,-1.630196,-0.24211300000000002,0.966836,0.081088,0.137374,0.086637,0.01496,0.025972000000000002,0.011298,0.0027129999999999997
691,-1.882211,-1.313767,-1.619736,-0.24191700000000002,0.9671489999999999,0.07787000000000001,0.14799,0.078065,0.018249,0.024037,0.011443,0.013972
692,-1.870596,-1.3151469999999998,-1.608917,-0.24153000000000002,0.967499,0.074661,0.154223,0.048185000000000006,0.025809,0.014296000000000001,0.026779,0.0103
693,-1.8578580000000002,-1.31673,-1.5967879999999999,-0.240992,0.9678979999999999,0.071145,0.179847,0.059784000000000004,0.03345,0.004435000000000001,0.054288,-0.006951000000000001
694,-1.841289,-1.318638,-1.581697,-0.24035900000000002,0.968376,0.066649,0.22598600000000002,0.126701,0.042233,-0.001478,0.066704,-0.010863
695,-1.819405,-1.321026,-1.56303,-0.239517,0.9689690000000001,0.060804,0.27545,0.23191399999999998,0.061671000000000004,-0.005463,0.09636900000000001,-0.008939
696,-1.791693,-1.323823,-1.540715,-0.238465,0.969657,0.05355,0.310069,0.348931,0.07244600000000001,-0.012985,0.073648,0.03135
697,-1.760896,-1.326342,-1.517202,-0.2376,0.9702700000000001,0.04572,0.297592,0.40656,0.057329,-0.023631,0.058249,0.064449
698,-1.7339310000000001,-1.328126,-1.495564,-0.237037,0.9707,0.039016,0.257347,0.20866500000000002,0.030595999999999998,-0.026986000000000003,0.014515,0.117112
699,-1.7152939999999999,-1.329136,-1.4775200000000002,-0.23675300000000002,0.970942,0.03445,0.196668,-0.020073,0.009101,-0.027957,0.002843,0.117802
700,-1.70354,-1.329545,-1.463555,-0.23674800000000001,0.97104,0.031613,0.158978,-0.11680499999999999,-0.010265999999999999,-0.011833,-0.013124,0.092014
701,-1.69268,-1.329567,-1.450367,-0.23705700000000002,0.971045,0.029037,0.166709,-0.068851,-0.020956,0.002209,-0.062384,0.071427
702,-1.6784009999999998,-1.329583,-1.435673,-0.237433,0.9710489999999999,0.025648,0.186378,0.0429,-0.012416,0.012106,-0.074336,0.074831
703,-1.661491,-1.329805,-1.420196,-0.237619,0.971102,0.02161,0.186646,0.11528699999999999,0.000312,0.01455,-0.084948,0.08012000000000001
704,-1.6473349999999998,-1.330094,-1.407801,-0.237623,0.9711709999999999,0.018223,0.152353,0.09405,0.012918,0.019285,-0.098994,0.085384
705,-1.635974,-1.330568,-1.3971209999999998,-0.237354,0.971284,0.015491999999999999,0.12435,0.024013,0.019184,0.020008,-0.085862,0.082591
706,-1.627389,-1.331113,-1.3881379999999999,-0.236948,0.971413,0.013424,0.103878,-0.016413,0.023365,0.013880000000000002,-0.076836,0.074253
707,-1.619856,-1.33166,-1.380192,-0.236511,0.971543,0.011612,0.092224,-0.00038500000000000003,0.021127,0.012115,-0.076722,0.06315599999999999
708,-1.612054,-1.332076,-1.372374,-0.23619099999999998,0.971641,0.00975,0.095496,0.009217,0.014728,0.021652,-0.075661,0.056107000000000004
709,-1.604386,-1.3325280000000002,-1.364206,-0.23581799999999997,0.971748,0.007923999999999999,0.095286,-0.029167000000000002,0.023322,0.028925,-0.036933999999999995,0.05405700000000001
710,-1.599349,-1.333083,-1.358299,-0.235317,0.971879,0.0067209999999999995,0.048324,-0.030081,0.026199,0.012095999999999999,-0.005677000000000001,0.076409
711,-1.600273,-1.333476,-1.358903,-0.234929,0.9719709999999999,0.006927,-0.039062,-0.020141,0.013826,-0.014003,-0.002199,0.101411
712,-1.609257,-1.33328,-1.366064,-0.235046,0.971925,0.009045000000000001,-0.100372,-0.164668,-0.0206,-0.028319999999999998,-0.0015119999999999999,0.11210999999999999
713,-1.6237620000000001,-1.332358,-1.37555,-0.23578600000000002,0.971708,0.0125,-0.115836,-0.310442,-0.049364,-0.016975999999999998,-0.013013999999999998,0.11283499999999999
714,-1.641244,-1.331124,-1.386472,-0.236727,0.971416,0.016704,-0.140536,-0.347636,-0.050557,0.00519,-0.030422,0.101689
715,-1.661814,-1.329908,-1.4010850000000001,-0.23751,0.971126,0.021677000000000002,-0.194726,-0.28889499999999996,-0.041395999999999995,0.005561,-0.045528,0.096273
716,-1.6861979999999999,-1.32856,-1.421733,-0.23821199999999998,0.9708040000000001,0.027613,-0.269941,-0.167203,-0.038873000000000005,-0.018212,-0.049921,0.087866
717,-1.713313,-1.326742,-1.446993,-0.23912399999999998,0.970366,0.034312,-0.324049,-0.122182,-0.061741,-0.020016,-0.069258,0.07205700000000001
718,-1.7412009999999998,-1.3239299999999998,-1.473017,-0.24076199999999998,0.969683,0.041429,-0.33673600000000004,-0.140072,-0.10560399999999999,-0.017569,-0.095827,0.058333
719,-1.771352,-1.320173,-1.499939,-0.242971,0.968758,0.049393,-0.362796,-0.262403,-0.126994,0.012806999999999999,0.029075,0.058273
720,-1.8087389999999999,-1.3157780000000001,-1.5297969999999999,-0.24508899999999997,0.967659,0.059442999999999996,-0.446062,-0.519871,-0.13685999999999998,0.00365,0.10436300000000001,0.06281
721,-1.8569790000000002,-1.310346,-1.567037,-0.24697600000000003,0.966274,0.072675,-0.57467,-0.644081,-0.132258,-0.018618,0.12549200000000002,0.107348
722,-1.913382,-1.303806,-1.61185,-0.248435,0.964569,0.088604,-0.684241,-0.655838,-0.125568,-0.020791,0.056442,0.059223000000000005
723,-1.9655650000000002,-1.2968819999999999,-1.6524009999999998,-0.24963400000000002,0.9627190000000001,0.10400799999999999,-0.570014,-0.6476850000000001,-0.132258,-0.023666,0.081653,-0.038181
724,-2.002959,-1.290824,-1.679497,-0.250863,0.9610629999999999,0.11570799999999999,-0.405061,-0.485342,-0.114222,0.008385,0.20435699999999998,-0.135133
725,-2.028616,-1.287097,-1.701165,-0.25102399999999997,0.9600270000000001,0.123688,-0.326904,-0.05789400000000001,0.016099000000000002,0.06595,0.194972,-0.224885
726,-2.038582,-1.287419,-1.7198930000000001,-0.24950300000000003,0.960117,0.12604400000000002,-0.11933900000000001,0.744872,0.215209,0.03884,0.128949,-0.22882800000000003
727,-2.009199,-1.293964,-1.7156200000000001,-0.247402,0.9619260000000001,0.11598900000000001,0.398946,1.453419,0.263855,-0.025273,0.008106,-0.20784699999999998
728,-1.9439330000000001,-1.302201,-1.6742270000000001,-0.247052,0.964145,0.096715,0.814146,1.068163,0.07710499999999999,-0.026736000000000003,-0.07293999999999999,-0.103871
729,-1.863889,-1.307539,-1.605667,-0.24906399999999998,0.9655469999999999,0.075164,0.975626,0.49415699999999996,-0.106902,-0.036275,-0.101641,0.010881
730,-1.7924330000000002,-1.30846,-1.5387170000000001,-0.25292600000000004,0.9657870000000001,0.056994,0.682826,0.319687,-0.17815799999999998,0.019208000000000003,-0.083722,0.155302
731,-1.763198,-1.3071760000000001,-1.513664,-0.255703,0.9654530000000001,0.049814,0.130276,0.178566,-0.105993,0.070599,-0.021437,0.177786
732,-1.761147,-1.305575,-1.5105,-0.257322,0.9650350000000001,0.049582,-0.01983,-0.190694,-0.07345299999999999,0.115674,-0.004173,0.107965
733,-1.775161,-1.304431,-1.517622,-0.257682,0.964734,0.053407,-0.14918199999999998,-0.42590900000000004,-0.014235,0.096259,-0.004239,0.050445
734,-1.798577,-1.304064,-1.5319049999999999,-0.256705,0.9646370000000001,0.059504999999999995,-0.202062,-0.505838,0.039978,0.07006,0.032311,0.017979
735,-1.825718,-1.304351,-1.5495649999999999,-0.254727,0.9647129999999999,0.06638,-0.21819899999999998,-0.49317,0.082577,0.01199,0.032281,-0.0038950000000000005
736,-1.8521150000000002,-1.304746,-1.567332,-0.25251999999999997,0.964817,0.072974,-0.20827600000000002,-0.43562399999999996,0.068686,-0.03639,0.019466999999999998,-0.035039999999999995
737,-1.8731529999999998,-1.30455,-1.582122,-0.251109,0.964765,0.07832599999999999,-0.163519,-0.253442,0.024968,-0.05662999999999999,0.024966,-0.045764
738,-1.8821139999999998,-1.304259,-1.5898780000000001,-0.250663,0.9646889999999999,0.08065900000000001,-0.0597,0.029672000000000004,-0.002443,-0.06188300000000001,0.03467,-0.059159
739,-1.875648,-1.304514,-1.585709,-0.250944,0.964756,0.078962,0.137178,0.155756,-0.002298,-0.002398,0.047543,-0.10444400000000001
740,-1.851266,-1.306243,-1.564243,-0.251191,0.965209,0.072359,0.381734,0.206048,-0.0038590000000000005,0.006669,0.043412,-0.093187
741,-1.8102900000000002,-1.30827,-1.527161,-0.252042,0.9657370000000001,0.06154400000000001,0.541209,0.284463,-0.038096,0.002653,0.009253,0.0051979999999999995
742,-1.767598,-1.309807,-1.490739,-0.252983,0.9661350000000001,0.05044,0.375273,0.42871899999999996,-0.005257,0.042945,-0.018656,0.100133
743,-1.74448,-1.311038,-1.4738360000000001,-0.25290799999999997,0.9664520000000001,0.044373,0.154435,0.22695,0.027642,0.027475,-0.026389,0.07343999999999999
744,-1.7367439999999998,-1.31198,-1.466404,-0.252347,0.966694,0.042265,0.071026,-0.05611,0.024217,0.022732,-0.027118,0.066103
745,-1.7360650000000002,-1.312481,-1.464689,-0.251898,0.966822,0.042013999999999996,0.010401,-0.019658000000000002,0.018406,0.011191,-0.011911,0.037042
746,-1.7356580000000001,-1.312741,-1.464811,-0.25166700000000003,0.966888,0.04187,0.007532,0.045369,0.009757,0.0065650000000000005,-0.009597,0.032303
747,-1.7350349999999999,-1.312735,-1.4647629999999998,-0.251698,0.966887,0.041714,0.007479,0.015614,-0.008365000000000001,-0.00053,-0.005490999999999999,0.033634
748,-1.736488,-1.312349,-1.46586,-0.252006,0.9667879999999999,0.042142,-0.019365,-0.034312999999999996,-0.020239,0.011131,-0.0067659999999999994,0.052295
749,-1.7404819999999999,-1.311784,-1.4687780000000001,-0.25237600000000004,0.966643,0.04324,-0.047251999999999995,-0.06724,-0.020392,0.021984,-0.006972,0.057010000000000005
750,-1.745871,-1.311289,-1.472949,-0.25261,0.966517,0.044683,-0.059021000000000004,-0.067229,-0.012996,0.022553,-0.005671,0.052027
751,-1.752393,-1.3108360000000001,-1.478189,-0.252744,0.9664,0.046409,-0.069776,-0.08,-0.006645999999999999,0.015958,0.007690000000000001,0.03106
752,-1.759885,-1.310514,-1.483949,-0.252693,0.966317,0.048359,-0.07203899999999999,-0.101328,0.000843,0.01339,0.015691999999999998,0.014568000000000001
753,-1.767094,-1.310318,-1.48916,-0.252523,0.966267,0.050216000000000004,-0.059289999999999995,-0.11096800000000001,0.003081,0.014759999999999999,0.015377000000000002,0.002656
754,-1.772884,-1.310238,-1.493119,-0.252301,0.9662459999999999,0.051692999999999996,-0.035694,-0.081231,0.005344,0.016034,0.011323,-0.013561000000000002
755,-1.7753889999999999,-1.31029,-1.494653,-0.25212199999999996,0.96626,0.052314,-0.004549,-0.034472,0.00657,0.018616,0.018115,-0.014213
756,-1.774952,-1.31054,-1.493744,-0.25190799999999997,0.966324,0.05215499999999999,0.024322999999999997,-0.016475999999999998,0.009953,0.018890999999999998,0.015472,0.0010220000000000001
757,-1.772677,-1.31091,-1.491254,-0.251675,0.966419,0.05151,0.039322,-0.00268,0.01004,0.020474000000000003,0.013165000000000001,0.008898999999999999
758,-1.769971,-1.311409,-1.488205,-0.251341,0.9665469999999999,0.050733,0.043474,-0.020834000000000002,0.01757,0.018889,0.015553999999999998,0.01317
759,-1.767133,-1.312078,-1.484679,-0.250849,0.9667190000000001,0.049894,0.052999,-0.031546,0.024059999999999998,0.018885,0.01082,0.020449000000000002
760,-1.763871,-1.3128959999999998,-1.480504,-0.250235,0.9669280000000001,0.048923,0.062519,-0.043323,0.030551,0.017766999999999998,0.009818,0.028667
761,-1.760784,-1.313839,-1.476175,-0.24949000000000002,0.967168,0.047979,0.063476,-0.062523,0.035923000000000004,0.012704,0.00854,0.034251
762,-1.758587,-1.314818,-1.4722469999999999,-0.24866300000000002,0.9674159999999999,0.047252999999999996,0.057998,-0.09233999999999999,0.038060000000000004,0.011175,0.008582,0.036639
763,-1.757307,-1.315805,-1.468587,-0.247784,0.967665,0.046758,0.055729999999999995,-0.12215999999999999,0.038082,0.006634,0.010209000000000001,0.039760000000000004
764,-1.7561240000000002,-1.316761,-1.464816,-0.246927,0.9679059999999999,0.046294,0.056811,-0.118968,0.038085,0.002878,0.015065,0.046754000000000004
765,-1.754788,-1.31769,-1.461424,-0.24610300000000002,0.968139,0.045799,0.048458,-0.079519,0.036907999999999996,-0.002097,0.006012,0.055275
766,-1.754003,-1.318468,-1.459533,-0.24539699999999998,0.968334,0.045468,0.025203,-0.036805000000000004,0.03135,-0.004801,-0.007106,0.057529
767,-1.7538040000000001,-1.3190030000000001,-1.458898,-0.244898,0.968467,0.045325,0.014693000000000001,-0.010102,0.022697,-0.001074,-0.016654,0.061013
768,-1.7537669999999999,-1.319373,-1.458862,-0.244547,0.9685590000000001,0.045251,0.0009050000000000001,0.002751,0.017243,-0.000265,-0.023842,0.061438
769,-1.754388,-1.319632,-1.45946,-0.244273,0.9686239999999999,0.045357,-0.003386,-0.006804999999999999,0.012952000000000002,-0.0016530000000000002,-0.025539,0.060951
770,-1.755637,-1.319703,-1.460533,-0.244148,0.968641,0.04565,0.0009289999999999999,-0.004654999999999999,0.0044340000000000004,-0.005959000000000001,-0.012709,0.060964
771,-1.755681,-1.31969,-1.460727,-0.244158,0.9686379999999999,0.045663,-0.00109,0.014553,-0.002014,-0.001615,-0.008876,0.062064
772,-1.7563529999999998,-1.319553,-1.4618309999999999,-0.244259,0.9686040000000001,0.045850999999999996,-0.014993000000000001,0.023112,-0.003214,0.006206000000000001,-0.014150999999999999,0.07374700000000001
773,-1.758889,-1.319307,-1.4643950000000001,-0.244376,0.968543,0.046515,-0.031207,-0.023704,-0.0032670000000000004,0.007499,-0.011161,0.09478099999999999
774,-1.76456,-1.319025,-1.468852,-0.244376,0.9684729999999999,0.047952999999999996,-0.068854,-0.089628,-0.001309,0.003897,-0.007383,0.09715800000000001
775,-1.774307,-1.3185719999999999,-1.476477,-0.244325,0.96836,0.050421,-0.10956700000000001,-0.129958,-0.0036780000000000003,-0.002043,-0.005057,0.093439
776,-1.7875009999999998,-1.317815,-1.486982,-0.24435500000000002,0.9681709999999999,0.053798,-0.129957,-0.162885,-0.010188,0.00055,-0.012833,0.052204999999999994
777,-1.801712,-1.316853,-1.497735,-0.244473,0.967929,0.057477999999999994,-0.143951,-0.199021,-0.018785,0.004437,-0.010242,0.04471
778,-1.816689,-1.3157729999999999,-1.509407,-0.24459899999999998,0.967657,0.061387,-0.15448499999999998,-0.163851,-0.013563,0.009843000000000001,-0.0017760000000000002,0.036558999999999994
779,-1.8314290000000002,-1.314768,-1.522151,-0.24460900000000002,0.967403,0.065237,-0.153165,-0.094664,-0.0008230000000000001,0.010234,0.025547,0.009562000000000001
