,attitude.roll,attitude.pitch,attitude.yaw,gravity.x,gravity.y,gravity.z,rotationRate.x,rotationRate.y,rotationRate.z,userAcceleration.x,userAcceleration.y,userAcceleration.z
0,0.584155,-0.470141,0.201654,0.491658,0.45301199999999997,-0.743671,0.21902600000000003,0.085714,0.020394,-0.014516,0.014792,-0.003643
1,0.584631,-0.46588999999999997,0.198878,0.49307,0.449218,-0.7450359999999999,0.259471,0.043047,-0.000633,-0.014081999999999999,-0.02008,0.002254
2,0.583809,-0.46229,0.195544,0.493346,0.445999,-0.746786,0.226489,0.031572,-0.032895,-0.019301,-0.024994,0.018346
3,0.583654,-0.459513,0.192355,0.493911,0.443511,-0.747893,0.174448,0.06909900000000001,-0.048262,-0.010223000000000001,-0.023681,0.027250999999999997
4,0.584256,-0.457776,0.190342,0.49478500000000003,0.441954,-0.748237,0.09952799999999999,0.076574,0.012094,0.058895,-0.027556,0.035651
5,0.584986,-0.457287,0.190501,0.49545,0.44151599999999996,-0.748055,-0.016072,-0.005057,0.013528,0.09057899999999999,0.0034460000000000003,0.027458999999999997
6,0.5847399999999999,-0.457643,0.191187,0.49518,0.44183500000000003,-0.748046,-0.039672000000000006,-0.019944999999999997,0.027268999999999998,0.054762,0.009047,0.040649
7,0.5862350000000001,-0.45762299999999995,0.193197,0.496302,0.441817,-0.747312,-0.063526,0.062367,0.102729,0.054723,0.005097,0.0008060000000000001
8,0.591733,-0.457733,0.198016,0.500376,0.441916,-0.744532,-0.187033,0.217927,0.20207999999999998,0.079915,-0.01525,0.010172
9,0.6017899999999999,-0.45973100000000006,0.20657399999999998,0.507338,0.44370699999999996,-0.738733,-0.357582,0.337488,0.28726199999999996,0.086564,-0.005337,0.013330000000000002
10,0.6141800000000001,-0.462841,0.218043,0.515654,0.446492,-0.731259,-0.434651,0.329043,0.334804,0.052187,-0.001698,0.008435
11,0.624757,-0.46587700000000004,0.229437,0.522564,0.44920699999999997,-0.724661,-0.399794,0.230996,0.314877,0.028004,-0.007465,-0.004587
12,0.633488,-0.46824499999999997,0.239389,0.5282399999999999,0.451321,-0.719212,-0.342016,0.211846,0.258689,-0.020809,-0.032711000000000004,-0.017544
13,0.64203,-0.470473,0.24759299999999998,0.5337609999999999,0.453308,-0.713866,-0.294714,0.213063,0.17997,-0.058221,-0.035766,-0.036226
14,0.648518,-0.47283800000000004,0.253556,0.537732,0.45541499999999996,-0.709531,-0.24659499999999998,0.15782100000000002,0.10026,-0.032818,0.016265,-0.004092
15,0.652366,-0.47578000000000004,0.257821,0.539642,0.458032,-0.706389,-0.237152,0.062155999999999996,0.039560000000000005,-0.014251,0.040060000000000005,0.002242
16,0.655421,-0.4789,0.261932,0.540924,0.46080299999999996,-0.703601,-0.253131,0.09088099999999999,0.062912,0.004303,0.063596,-0.000516
17,0.659219,-0.481125,0.266428,0.542963,0.46277700000000005,-0.700729,-0.22436399999999998,0.130003,0.111133,0.034887,0.046409,-0.002121
18,0.664354,-0.48267899999999997,0.27129699999999995,0.54611,0.464154,-0.697365,-0.201835,0.172476,0.126191,0.019091,0.013477000000000001,0.010094
19,0.669421,-0.48426099999999994,0.275926,0.54918,0.465555,-0.694012,-0.154013,0.115908,0.111643,-0.014527000000000002,-0.004144,0.010403
20,0.672029,-0.48564300000000005,0.27934000000000003,0.5505869999999999,0.46677700000000005,-0.6920729999999999,-0.143536,0.034003,0.072296,-0.008992,-0.000667,-0.020222
21,0.674427,-0.48749799999999993,0.282546,0.551704,0.468416,-0.6900729999999999,-0.146564,0.044778,0.044488,-0.00695,0.0024850000000000002,-0.019659
22,0.6762319999999999,-0.48930799999999997,0.284683,0.552417,0.47001499999999996,-0.6884140000000001,-0.10913800000000001,0.020321000000000002,0.000983,-0.001666,0.005739,-0.005815
23,0.6768029999999999,-0.49084099999999997,0.285313,0.552358,0.471368,-0.6875359999999999,-0.06412799999999999,0.02671,-0.037166000000000005,0.005305,0.006324000000000001,0.0065049999999999995
24,0.677419,-0.49218,0.285107,0.552385,0.47254799999999997,-0.686703,-0.051148,0.049104,-0.054196,0.005171,0.005678,-0.011844
25,0.677974,-0.493675,0.284815,0.552322,0.473865,-0.685846,-0.057574,0.041678,-0.056367999999999994,0.00042800000000000005,0.006314,-0.013922
26,0.679329,-0.495463,0.28473699999999996,0.552718,0.47543900000000006,-0.6844359999999999,-0.07761900000000001,0.083328,-0.065107,0.00010800000000000001,-0.0008449999999999999,-0.012555
27,0.681255,-0.49781099999999995,0.284587,0.553331,0.47750299999999996,-0.682501,-0.089129,0.11115499999999999,-0.087656,0.005706,-0.0028179999999999998,-0.01063
28,0.683502,-0.5004649999999999,0.284177,0.55406,0.47983400000000004,-0.680271,-0.094319,0.122973,-0.108003,0.005938000000000001,0.0038090000000000003,-0.00938
29,0.685938,-0.50338,0.283466,0.554828,0.482389,-0.677834,-0.096285,0.146471,-0.12193399999999999,-0.010759999999999999,0.004519,-0.00074
30,0.6881970000000001,-0.506215,0.28237199999999996,0.5554859999999999,0.484871,-0.67552,-0.072752,0.154933,-0.127122,-0.021276,-0.013434999999999999,0.015211
31,0.689552,-0.5087189999999999,0.280577,0.5556270000000001,0.487059,-0.6738270000000001,-0.03667,0.083548,-0.15562,-0.004372999999999999,-0.029585000000000004,0.018905
32,0.688596,-0.510726,0.27769099999999997,0.5543600000000001,0.48881099999999994,-0.673602,0.017284,-0.023147,-0.160448,0.025245,-0.023601,0.023425
33,0.685443,-0.511722,0.274564,0.551926,0.489679,-0.6749689999999999,0.06796100000000001,-0.09913,-0.11726700000000001,0.10398900000000001,0.035283999999999996,0.05915499999999999
34,0.682411,-0.510981,0.271993,0.5501050000000001,0.489033,-0.676922,0.107153,-0.075116,-0.02943,0.08997100000000001,0.089687,0.018169
35,0.681736,-0.5090939999999999,0.27114299999999997,0.5502279999999999,0.487387,-0.6780079999999999,0.084811,0.024752,0.056812,0.06265599999999999,0.057000999999999996,-0.002977
36,0.683483,-0.506993,0.27169099999999996,0.5520579999999999,0.485551,-0.677838,0.062488,0.059914999999999996,0.073702,-0.018503,-0.028092000000000002,0.013637999999999999
37,0.684658,-0.5055350000000001,0.27193,0.553301,0.484275,-0.677737,0.07624199999999999,-0.007078,0.032224,-0.027070999999999998,-0.039878,0.013659000000000001
38,0.683528,-0.504495,0.27108499999999996,0.552852,0.483365,-0.678751,0.068698,-0.064415,-0.008348000000000001,-0.018184,-0.030300999999999998,0.00532
39,0.68234,-0.5042409999999999,0.270279,0.5521229999999999,0.48314300000000004,-0.679503,0.034707,-0.042943,-0.020363,0.013642,0.001141,-0.020158000000000002
40,0.6820609999999999,-0.5043449999999999,0.269893,0.551901,0.483235,-0.679618,-0.009867,0.015777,-0.014341,0.030817,0.007122,-0.019356
41,0.6828270000000001,-0.504772,0.270084,0.552291,0.483608,-0.679035,-0.030083999999999996,0.039237,-0.002762,0.034867,0.005954999999999999,-0.007534000000000001
42,0.6835439999999999,-0.5048699999999999,0.270602,0.5527489999999999,0.48369399999999996,-0.678602,-0.020703,0.012482,0.019771,0.039506,0.002375,0.023832
43,0.68381,-0.504696,0.271511,0.552982,0.483541,-0.678521,-0.023086000000000002,-0.019562,0.043296,0.033535,-0.007909999999999999,0.008324
44,0.683793,-0.5044930000000001,0.272832,0.553033,0.483363,-0.678606,-0.033894,-0.044051,0.049661000000000004,0.028556,-0.013087,0.000231
45,0.683556,-0.504624,0.274244,0.552832,0.48347799999999996,-0.678688,-0.045629,-0.057803,0.035710000000000006,0.014641999999999999,-0.016529,0.008491
46,0.683076,-0.504966,0.275484,0.552401,0.483778,-0.678825,-0.041333,-0.06415900000000001,0.022930000000000002,-0.000964,-0.012662999999999999,0.021309
47,0.682492,-0.505358,0.276471,0.551886,0.48412,-0.6790010000000001,-0.041256,-0.058785000000000004,0.011173,-0.013708000000000001,-0.006963,0.018341
48,0.681551,-0.505885,0.277393,0.551086,0.48458100000000004,-0.679321,-0.053083000000000005,-0.086411,0.0036479999999999998,-0.020141,-0.008736,-0.0034939999999999997
49,0.679996,-0.506675,0.278229,0.549788,0.48527299999999995,-0.67988,-0.058450999999999996,-0.10446,-0.0070480000000000004,-0.019835,0.002124,-0.0016079999999999998
50,0.678461,-0.507591,0.27882199999999996,0.5484640000000001,0.486073,-0.680376,-0.048744,-0.086362,-0.012345,-0.013628,0.014369,0.001757
51,0.677293,-0.508488,0.27928400000000003,0.547396,0.486857,-0.6806760000000001,-0.045433,-0.060811000000000004,-0.011286,-0.0057090000000000005,0.015508000000000001,-0.001849
52,0.676247,-0.509211,0.279654,0.546463,0.48748800000000003,-0.680974,-0.033721,-0.065118,-0.010131,0.002105,0.027739999999999997,0.003819
53,0.675132,-0.5098159999999999,0.279988,0.545519,0.488016,-0.681353,-0.034793,-0.057691,-0.001602,0.0034460000000000003,0.027792,-0.00305
54,0.674578,-0.510412,0.280611,0.544959,0.488537,-0.681427,-0.047499,-0.026792000000000003,0.007884,0.000909,0.024585,-0.0030670000000000003
55,0.674035,-0.510969,0.281095,0.54442,0.489022,-0.6815100000000001,-0.016599000000000003,-0.040727,0.0027760000000000003,0.003462,0.021169999999999998,0.009681
56,0.6742130000000001,-0.511547,0.281711,0.544365,0.48952700000000005,-0.681192,-0.037759,0.000884,0.004712,-0.004783,0.004079999999999999,0.000666
57,0.6740470000000001,-0.512011,0.282006,0.5441090000000001,0.489932,-0.6811050000000001,-0.014384000000000001,-0.028991000000000003,-0.003633,-0.009777,0.006314999999999999,0.005248
58,0.673035,-0.512372,0.281922,0.5433100000000001,0.490246,-0.6815180000000001,0.002576,-0.06628400000000001,-0.016285,-0.002721,0.010655,0.007079
59,0.671235,-0.51244,0.281396,0.542062,0.490305,-0.6824680000000001,0.018763,-0.08312,-0.018241,-0.003472,0.007559000000000001,0.0116
60,0.669724,-0.5126310000000001,0.281087,0.540972,0.490472,-0.683213,-0.00677,-0.06493,-0.016306,-0.005312,0.0037600000000000003,0.007661
61,0.6687029999999999,-0.513193,0.281018,0.540103,0.490962,-0.683549,-0.015199,-0.047830000000000004,-0.022796,0.026243,0.008320999999999999,-0.010101
62,0.667784,-0.513625,0.280857,0.539343,0.491338,-0.683878,-0.014079,-0.027627999999999996,-0.014268000000000001,0.015740999999999998,0.012431000000000001,0.000986
63,0.6671159999999999,-0.513633,0.280545,0.538883,0.491345,-0.684235,0.009401000000000001,-0.012846999999999999,-0.0013050000000000002,0.006618000000000001,0.014681999999999999,0.004838
64,0.6676529999999999,-0.5139199999999999,0.28112800000000004,0.5391640000000001,0.491594,-0.6838350000000001,-0.040698000000000005,0.010708,0.012202,-0.002954,0.003507,-0.004686999999999999
65,0.6673680000000001,-0.514139,0.281502,0.538902,0.491785,-0.683904,-0.014169999999999999,-0.030892000000000003,0.002827,0.010704,0.011037,0.010228000000000001
66,0.666932,-0.5143979999999999,0.281699,0.538525,0.492011,-0.6840390000000001,-0.011989,-0.027674,-0.00464,0.004229999999999999,0.000634,0.016482
67,0.666274,-0.514648,0.28168899999999997,0.537998,0.49222899999999997,-0.684297,-0.00243,-0.042599,-0.009895000000000001,0.00584,-8.7e-05,0.010438
68,0.665172,-0.514807,0.281476,0.537196,0.492367,-0.6848270000000001,-0.001373,-0.047917,-0.013085,0.009893,0.010166,-0.003207
69,0.664213,-0.5149100000000001,0.28118899999999997,0.536508,0.492457,-0.6853020000000001,0.009329,-0.041558,-0.014087,0.015036,0.008764,0.004852
70,0.663697,-0.514953,0.281051,0.536141,0.492494,-0.685562,-0.002349,-0.014941,-0.00031600000000000004,0.005531,0.0017079999999999999,0.008957
71,0.663763,-0.5152100000000001,0.281481,0.536108,0.49271800000000004,-0.685427,-0.027982,-0.013816,0.006981,0.015038999999999999,0.006275,0.003146
72,0.6636310000000001,-0.5155069999999999,0.282022,0.535928,0.492976,-0.685383,-0.023763,-0.023423,0.008091,0.018347,0.003896,0.0069310000000000005
73,0.663566,-0.51578,0.282558,0.535801,0.493213,-0.685311,-0.023729,-0.013844,0.010216,0.011791,0.001645,0.0056700000000000006
74,0.663994,-0.5160680000000001,0.28325500000000003,0.5360060000000001,0.493464,-0.684971,-0.032192,0.00747,0.01547,0.00797,-0.001032,-0.000118
75,0.664672,-0.516464,0.284084,0.53635,0.49380799999999997,-0.684453,-0.043923000000000004,0.009637,0.016454,0.0062829999999999995,0.00195,0.004185
76,0.665413,-0.516901,0.285208,0.536724,0.49418900000000004,-0.6838850000000001,-0.0472,3.1e-05,0.023921,0.0070079999999999995,0.008985,0.000978
77,0.665999,-0.517274,0.286391,0.537011,0.49451300000000004,-0.683426,-0.044043,-0.006384,0.027156,0.004905,0.004007,0.01036
78,0.6664640000000001,-0.517618,0.287484,0.537223,0.494812,-0.683042,-0.04509,-0.0021190000000000002,0.027143,0.004831,0.005631000000000001,0.009168
79,0.667239,-0.5180560000000001,0.28873499999999996,0.537618,0.495192,-0.682455,-0.050377,0.008551999999999999,0.027092,0.005351,-0.000808,-0.004129
80,0.6680470000000001,-0.51852,0.289862,0.538027,0.495595,-0.68184,-0.044999000000000004,0.011755,0.020717,0.008024,-0.004278,0.005403
81,0.668564,-0.5189600000000001,0.29068,0.538244,0.495978,-0.681391,-0.032211000000000004,-0.002096,0.010140999999999999,0.008997,0.005457,0.006144
82,0.6686529999999999,-0.519328,0.291213,0.538191,0.49629700000000004,-0.6812,-0.027953,-0.010607,0.003773,0.008165,0.0036420000000000003,0.0027329999999999998
83,0.668605,-0.519695,0.291628,0.538046,0.496615,-0.681083,-0.0205,-0.022317,-0.004706,0.020121,0.0029579999999999997,0.002372
84,0.668964,-0.520093,0.292219,0.538168,0.496961,-0.6807340000000001,-0.020495,-0.012764,0.0038280000000000002,0.044764,0.010957999999999999,0.015314
85,0.667618,-0.519969,0.291528,0.537289,0.496853,-0.681507,0.02329,-0.037282,-0.030018,0.019062,0.038044,0.014835
86,0.666362,-0.519566,0.29086,0.536557,0.496504,-0.682338,0.025265,-0.046979,-0.0043549999999999995,0.019672,0.0033130000000000004,0.018504
87,0.665614,-0.519352,0.290707,0.536112,0.49631800000000004,-0.682823,-0.006654,-0.01496,0.0082,-0.002405,0.003041,0.001381
88,0.6653640000000001,-0.519447,0.291154,0.5359119999999999,0.4964,-0.68292,-0.011037,-0.036268,0.01247,0.001152,-0.003831,-0.004046
89,0.665093,-0.519688,0.291613,0.5356529999999999,0.496609,-0.682971,-0.022686,-0.02554,0.003829,0.001273,-0.004222999999999999,-0.01962
90,0.665428,-0.520097,0.29218,0.535756,0.496964,-0.682632,-0.022581,0.005323,0.011267000000000001,-0.0019579999999999997,-0.0045780000000000005,0.000808
91,0.6656350000000001,-0.520224,0.292819,0.535858,0.49707399999999996,-0.682471,-0.017409,-0.020305,0.022019,0.008072,-0.0023539999999999998,0.016914
92,0.665077,-0.5200779999999999,0.29307300000000003,0.535522,0.49694799999999995,-0.6828270000000001,-0.0035210000000000003,-0.022458000000000002,0.015709,0.027114999999999997,0.006135,0.020367
93,0.665463,-0.520256,0.293716,0.535732,0.49710200000000004,-0.682551,-0.04387,0.027721,0.02284,0.008732,0.018721,-0.012228
94,0.665607,-0.520355,0.29443400000000003,0.5358,0.497188,-0.682435,-0.016362,-0.024569,0.022031,0.015104,0.014866999999999998,0.013963
95,0.665773,-0.520429,0.295279,0.53589,0.497252,-0.6823170000000001,-0.03517,0.000207,0.028325,0.003035,0.004014,0.010519
96,0.666876,-0.5207510000000001,0.29643600000000003,0.536543,0.49753100000000006,-0.6816,-0.042484,0.032199,0.026097000000000002,-0.0034920000000000003,-0.004291,0.004568
97,0.667986,-0.5210560000000001,0.297408,0.537205,0.49779700000000005,-0.680884,-0.030802,0.015135,0.020859,0.009075,0.000342,-0.003945000000000001
98,0.668403,-0.521285,0.298111,0.5374180000000001,0.49799499999999997,-0.680571,-0.019143,-0.008316,0.014561000000000001,0.01794,0.006934,0.002822
99,0.6686340000000001,-0.521382,0.298577,0.537546,0.498079,-0.680409,-0.023313999999999998,0.013004,0.014505,0.019705,0.0057810000000000005,0.013203
100,0.669146,-0.5214489999999999,0.299122,0.5378729999999999,0.498137,-0.680108,-0.025443,0.020443,0.02089,0.012282,0.010362,0.00628
101,0.669748,-0.5216890000000001,0.29998,0.538208,0.498345,-0.67969,-0.029807,-0.004031,0.017686,0.015762,0.0053170000000000005,0.003527
102,0.669687,-0.5218729999999999,0.300602,0.5381100000000001,0.49850500000000003,-0.679651,-0.021344,-0.025344,0.012431000000000001,0.010764,0.002868,0.005853
103,0.6699109999999999,-0.522224,0.301192,0.538154,0.498809,-0.679393,-0.027687,0.0029739999999999996,0.002869,0.015969,-0.002364,0.003779
104,0.670589,-0.522708,0.301786,0.538464,0.499229,-0.678838,-0.042555,0.026427999999999997,0.011281,0.003971,0.0029690000000000003,0.006536
105,0.670879,-0.523046,0.302297,0.538556,0.499521,-0.678551,-0.022391,-0.000262,0.008251,0.024066,0.011648,0.007896
106,0.671148,-0.523371,0.30296999999999996,0.5386380000000001,0.499803,-0.6782779999999999,-0.023490999999999998,-0.005593,0.010387,0.026075,0.00386,0.00886
107,0.672074,-0.523821,0.303975,0.539125,0.500192,-0.677603,-0.043709,0.014684000000000001,0.018765,0.003218,-0.002466,0.005057
108,0.672028,-0.523968,0.304344,0.539048,0.500319,-0.677571,-0.003278,-0.025874,0.003076,0.014907,0.00047400000000000003,0.011859999999999999
109,0.671338,-0.5241020000000001,0.30441,0.538539,0.500436,-0.67789,-0.00402,-0.049065,-0.010781,0.017034,0.000281,0.003436
110,0.670126,-0.5242399999999999,0.304081,0.537674,0.500555,-0.678488,0.009854,-0.056536,-0.019219999999999998,0.021515,0.005472,0.009329
111,0.668617,-0.5241399999999999,0.30340300000000003,0.5366810000000001,0.5004689999999999,-0.679338,0.030086,-0.06512899999999999,-0.019068,0.018068,0.019871,0.015535
112,0.666851,-0.52377,0.302736,0.535594,0.5001479999999999,-0.68043,0.033320999999999996,-0.08215599999999999,-0.011565,0.010518000000000001,0.015340000000000001,0.018336
113,0.6648850000000001,-0.523325,0.302152,0.5343939999999999,0.499763,-0.681657,0.030087,-0.08641900000000001,-0.008378,0.01152,0.012597,0.008897
114,0.663625,-0.52313,0.301958,0.533594,0.499594,-0.682407,0.0014349999999999999,-0.04162,0.0020469999999999998,0.00611,0.007043000000000001,-0.00195
115,0.664355,-0.523562,0.302858,0.533959,0.499968,-0.681847,-0.043176,0.016006,0.015548,0.003242,0.0034950000000000003,-0.022835
116,0.66484,-0.5237850000000001,0.303435,0.5342210000000001,0.500161,-0.6815,-0.018653,0.009541,0.012523000000000001,0.007558,0.0032270000000000003,-0.005268
117,0.66523,-0.523946,0.303912,0.534436,0.500301,-0.681228,-0.004841,-0.009656999999999999,0.006235,0.003116,-0.003872,0.0025329999999999997
118,0.665421,-0.5240020000000001,0.30419,0.53455,0.5003489999999999,-0.681104,-0.014361,0.012731000000000001,0.010413,-0.004963,0.002489,0.005246
119,0.666283,-0.5241640000000001,0.3048,0.535086,0.50049,-0.680579,-0.027121,0.032973,0.020980000000000002,0.000131,0.010298,0.006156
120,0.667046,-0.524262,0.305575,0.535575,0.500574,-0.680133,-0.022093,0.008942,0.021987,0.007393,0.012838999999999998,0.004061
121,0.66737,-0.524347,0.306057,0.5357689999999999,0.5006470000000001,-0.679926,-0.012443000000000001,0.002585,0.004971,0.01341,0.006737999999999999,0.006952
122,0.667573,-0.524514,0.306078,0.535855,0.500793,-0.679751,-0.002731,0.015382,-0.0067280000000000005,0.018512,0.005326,0.010348
123,0.667955,-0.52468,0.30590100000000003,0.536064,0.5009359999999999,-0.679481,0.003722,0.020711,-0.013099000000000001,0.025567,0.009058,0.012702
124,0.6678850000000001,-0.524623,0.305517,0.536033,0.500887,-0.679541,0.01319,0.000399,-0.003393,0.028847,0.008665,0.015219
125,0.667728,-0.524516,0.305183,0.53596,0.500794,-0.679667,0.018515,-0.004933,-0.006554000000000001,0.019429,0.007781999999999999,0.01385
126,0.6669930000000001,-0.524273,0.304627,0.535536,0.500584,-0.6801560000000001,0.036536,-0.041173,-0.017064,0.021379,0.008801,0.012034999999999999
127,0.665674,-0.523858,0.303716,0.534766,0.500225,-0.681026,0.047186,-0.049714999999999995,-0.021251,0.021432,0.000889,0.009898
128,0.665506,-0.523746,0.303289,0.534686,0.500127,-0.68116,0.001268,0.025415,-0.006964,-0.005939,-0.008733,0.002601
129,0.666363,-0.5237539999999999,0.303317,0.5352680000000001,0.500135,-0.6806979999999999,0.0012720000000000001,0.03709,0.003704,0.0041,0.009982,-0.0008820000000000001
130,0.66671,-0.52365,0.303437,0.535536,0.500045,-0.680553,0.0010710000000000001,-0.004468,0.006959999999999999,0.000582,0.010804000000000001,-0.001454
131,0.666447,-0.52368,0.30349299999999996,0.5353479999999999,0.50007,-0.680682,-2e-05,-0.023584,-0.0069099999999999995,0.01345,-0.002069,-0.0023469999999999997
132,0.6663279999999999,-0.523886,0.303268,0.535203,0.5002489999999999,-0.680665,-0.0019379999999999998,0.013751,-0.017653,0.021682,0.002132,0.000657
133,0.6667270000000001,-0.5240739999999999,0.30286799999999997,0.535416,0.500412,-0.680377,0.003507,0.040355,-0.015512999999999999,0.006271,0.0043950000000000005,0.008258
134,0.6670689999999999,-0.524135,0.302664,0.53563,0.500464,-0.6801699999999999,0.005439,0.005156,-0.00584,-0.0036479999999999998,-0.0034549999999999997,0.01063
135,0.667929,-0.524478,0.303316,0.5361090000000001,0.500761,-0.679574,-0.06066799999999999,0.043617,0.023559,-0.019538,-0.008864,-0.0037450000000000005
136,0.66883,-0.524854,0.30465,0.536604,0.501087,-0.6789430000000001,-0.052636,0.017147,0.043598000000000005,-0.040174,-0.0051,-0.0071530000000000005
137,0.6711590000000001,-0.525994,0.30657199999999996,0.537828,0.5020720000000001,-0.677244,-0.040733,0.003462,-0.007576,0.064986,0.018893,0.010466
138,0.6694260000000001,-0.5253800000000001,0.305284,0.536845,0.501542,-0.678416,0.067958,-0.039474,-0.020649,0.037084,0.045105,0.037624
139,0.668148,-0.524547,0.303755,0.5362359999999999,0.500821,-0.67943,0.073374,-0.026688,-0.025968,0.025043,0.016086000000000003,0.020769
140,0.666528,-0.5236609999999999,0.30240900000000004,0.535409,0.500054,-0.680646,0.061451,-0.054399,-0.012129000000000001,0.025001,0.020194,0.01811
141,0.665628,-0.523223,0.302029,0.534932,0.49967399999999995,-0.6813,0.007127,-0.013813999999999998,0.008804000000000001,0.01115,0.006124,-0.002751
142,0.6659189999999999,-0.523046,0.30236,0.535184,0.499521,-0.681214,0.008204000000000001,-1.6e-05,0.020544,0.00809,0.002707,-0.0007469999999999999
143,0.665983,-0.522443,0.302508,0.5354140000000001,0.49899899999999997,-0.681416,0.029512,-0.006481999999999999,0.020701,0.016161000000000002,0.0008640000000000001,0.013859999999999999
144,0.666132,-0.521733,0.302637,0.535734,0.498383,-0.681615,0.019500999999999998,0.019566,0.03105,0.008532,0.004775,0.011587
145,0.6683279999999999,-0.5217229999999999,0.304017,0.537233,0.498375,-0.680441,-0.049754,0.067635,0.058277999999999996,-0.008454999999999999,-0.002647,-0.009745
146,0.669755,-0.521496,0.305789,0.538273,0.49817799999999995,-0.679762,-0.020250999999999998,-0.004946,0.068191,0.02058,-0.000742,0.007245999999999999
147,0.669709,-0.520891,0.306963,0.538429,0.49765299999999996,-0.680024,-0.018127,-0.021938,0.053273,0.028633,-0.003237,0.011094
148,0.671602,-0.521591,0.30885100000000004,0.539499,0.49826000000000004,-0.67873,-0.098686,0.075361,0.033357,0.018363,-0.00978,-0.011822
149,0.674247,-0.522532,0.310533,0.540999,0.499076,-0.676934,-0.07509,0.100854,0.031353,0.024263,0.016061000000000002,0.020302
150,0.677182,-0.523179,0.312679,0.5427810000000001,0.49963599999999997,-0.675091,-0.086023,0.07201,0.061224,0.00472,0.000791,0.022656
151,0.678251,-0.5235380000000001,0.314523,0.5433899999999999,0.49994799999999995,-0.674371,-0.034149,-0.049485,0.029695,0.043799,0.005836,0.024194
152,0.677032,-0.5234989999999999,0.314741,0.542579,0.499914,-0.675048,-0.0041670000000000006,-0.060101999999999996,-0.005333,0.038811,0.012217,0.006866
153,0.676295,-0.5236460000000001,0.314598,0.542036,0.500041,-0.6753899999999999,-0.004543,-0.011718000000000001,-0.0056159999999999995,0.012773,0.012548,0.011801
154,0.6769029999999999,-0.524027,0.315046,0.542327,0.500371,-0.674912,-0.023684999999999998,0.013869,0.005968,0.013047,0.012081,0.010194
155,0.6776310000000001,-0.5243439999999999,0.315626,0.542719,0.500645,-0.674393,-0.031143,0.016026,0.005913,0.008826,0.007273999999999999,0.004609
156,0.678147,-0.524834,0.316158,0.542913,0.501069,-0.673922,-0.017331,-0.009538,-0.006776000000000001,0.014521000000000001,-0.000489,0.006045
157,0.678426,-0.525308,0.316379,0.542952,0.501479,-0.673586,-0.035348000000000004,0.019278999999999998,-0.004803,-0.00045599999999999997,0.008531,-0.0076879999999999995
158,0.678988,-0.525683,0.316558,0.543212,0.501804,-0.673134,-0.009724,0.02345,-0.004629,0.016053,0.011959000000000001,0.010902
159,0.679347,-0.525807,0.316605,0.5434140000000001,0.501911,-0.672891,-0.0034049999999999996,0.007441,-0.002428,0.006162,0.005398,0.008783
160,0.67884,-0.5257729999999999,0.316337,0.543084,0.5018819999999999,-0.67318,0.019093000000000002,-0.034934,-0.01406,0.01287,0.009608,0.009453
161,0.678184,-0.525791,0.315917,0.542637,0.501897,-0.673528,0.006396,-0.011453,-0.014178999999999999,0.00436,-0.000967,0.000646
162,0.678003,-0.525812,0.315591,0.542508,0.501916,-0.673618,0.028762,-0.018993,-0.012944999999999998,0.000308,0.0006940000000000001,0.006275
163,0.677216,-0.525354,0.31503000000000003,0.542122,0.5015189999999999,-0.6742239999999999,0.026527,-0.027563,0.0009369999999999999,0.000328,0.0060490000000000006,0.005828
164,0.6764439999999999,-0.5251060000000001,0.314848,0.541679,0.501305,-0.67474,0.016859,-0.044565,-0.001245,0.005547,0.004646,0.0006519999999999999
165,0.6755680000000001,-0.524896,0.314498,0.541154,0.501123,-0.675296,0.016974,-0.027487,-0.009812000000000001,0.011138,0.003653,-0.000699
166,0.6754939999999999,-0.524947,0.314213,0.541088,0.501167,-0.675316,0.001191,0.021572,-0.009984999999999999,0.010716,0.002983,0.002281
167,0.676825,-0.5255380000000001,0.31448400000000004,0.5418,0.501679,-0.6743640000000001,-0.039139,0.06858500000000001,-0.010327,0.001489,-0.002075,-0.000547
168,0.678172,-0.526371,0.314783,0.542446,0.5023989999999999,-0.673308,-0.039187,0.049444,-0.018848,0.012166,0.0014609999999999998,0.007232
169,0.67869,-0.5271140000000001,0.314794,0.54256,0.503041,-0.672737,-0.023163,0.009032,-0.026192,0.022443,0.005336,0.022269999999999998
170,0.678145,-0.527512,0.314311,0.542067,0.5033850000000001,-0.672876,0.011895000000000001,-0.03048,-0.032306,0.033326,0.020876,0.016703
171,0.676613,-0.527366,0.313199,0.541083,0.503259,-0.673763,0.045915,-0.057231,-0.032034,0.028756999999999998,0.020163,0.013775
172,0.674751,-0.52682,0.31191199999999997,0.539998,0.502787,-0.674984,0.060788999999999996,-0.063704,-0.024444,0.023509,0.018009999999999998,0.008099
173,0.6727029999999999,-0.5259590000000001,0.310471,0.5388850000000001,0.502042,-0.676427,0.087388,-0.079776,-0.024238,0.020655,0.018571999999999998,0.010731999999999998
174,0.670132,-0.524706,0.30862399999999995,0.5375340000000001,0.500959,-0.6783020000000001,0.105501,-0.08516599999999999,-0.024104,0.020541,0.014376,0.019321
175,0.667845,-0.5235,0.306879,0.536355,0.499914,-0.6800039999999999,0.099133,-0.075565,-0.022025,0.019263,0.012415,0.01379
176,0.665237,-0.522167,0.305042,0.53499,0.49876000000000004,-0.681924,0.103274,-0.09145299999999999,-0.019947,0.021284,0.011890999999999999,0.019906
177,0.662808,-0.520915,0.30353600000000003,0.533716,0.497674,-0.683713,0.086204,-0.0776,-0.006197,0.011923,-0.000848,0.012296
178,0.661017,-0.520065,0.302571,0.532751,0.496936,-0.685002,0.054222,-0.073223,-0.007495,0.000712,-0.00246,-0.001201
179,0.659463,-0.519428,0.301848,0.531879,0.496384,-0.686079,0.042564,-0.054015999999999995,-0.005464,0.001766,-0.000259,-0.0014210000000000002
180,0.658954,-0.51918,0.301612,0.531605,0.49616899999999997,-0.686447,0.014959,-0.020908000000000003,-0.002495,0.002513,0.000749,-0.002305
181,0.658586,-0.518926,0.30122899999999997,0.5314300000000001,0.49594799999999994,-0.686742,0.02248,-0.015583000000000001,-0.008858,0.006214,-0.00047999999999999996,0.0021260000000000003
182,0.658509,-0.518813,0.301073,0.531411,0.495849,-0.6868270000000001,-0.004139,0.008961,0.003743,-0.004052,-0.00235,0.00022799999999999999
183,0.658717,-0.51894,0.30134099999999997,0.531515,0.49596,-0.686667,-0.006339,-0.009129,0.000546,0.0198,0.006495999999999999,0.0048579999999999995
184,0.658725,-0.519072,0.301473,0.5314810000000001,0.49607399999999996,-0.686611,-0.016531999999999998,0.012026,0.002134,0.00485,0.001576,0.0011710000000000002
185,0.6591199999999999,-0.519368,0.301663,0.531662,0.496331,-0.686285,-0.006901999999999999,0.010957,-0.005275,0.014312,0.011344,0.010443000000000001
186,0.658633,-0.5192260000000001,0.301164,0.531371,0.496208,-0.6866,0.038863,-0.024315,-0.015593000000000001,0.02559,0.019707,0.02034
187,0.6577810000000001,-0.518832,0.300508,0.5309050000000001,0.495866,-0.687207,0.031342,-0.031762,-0.011363,0.016428,0.009597,0.009442
188,0.65667,-0.518333,0.299656,0.530292,0.495432,-0.687992,0.051622,-0.031825,-0.013356999999999999,0.020367,0.016697999999999998,0.013522999999999999
189,0.655492,-0.5175890000000001,0.298588,0.529706,0.49478599999999995,-0.688908,0.0601,-0.048882,-0.017549000000000002,0.026004000000000003,0.014369,0.011204
190,0.654089,-0.516883,0.297531,0.5289510000000001,0.494173,-0.689928,0.060079999999999995,-0.051021,-0.01541,0.01591,0.007245999999999999,0.016558
191,0.652687,-0.5161789999999999,0.296489,0.528195,0.49356000000000005,-0.690945,0.054737,-0.055255,-0.017579,0.018665,0.005417,0.004864
192,0.651177,-0.515705,0.295621,0.527293,0.493148,-0.691928,0.039182,-0.058584000000000004,-0.014792,0.01354,0.002656,0.004581
193,0.6499199999999999,-0.515297,0.29498,0.526544,0.49279300000000004,-0.692751,0.032805,-0.045808,-0.007376000000000001,0.011007,0.002904,0.009767
194,0.649073,-0.514891,0.294537,0.5260779999999999,0.49244,-0.693355,0.028599,-0.026639,-0.002089,0.010253,0.002219,0.005718
195,0.648597,-0.514494,0.294217,0.525866,0.492095,-0.693761,0.023323,-0.006411,0.005326,0.011594,0.006273,0.00675
196,0.6481899999999999,-0.5141720000000001,0.293954,0.52568,0.49181400000000003,-0.694102,0.021146,-0.023418,-0.0021449999999999998,0.011842,0.0078049999999999994,0.004922999999999999
197,0.647834,-0.514026,0.293865,0.525476,0.491687,-0.694346,0.004105,-0.014844,-0.000138,0.00585,-0.00336,0.0063880000000000004
198,0.64766,-0.514093,0.293887,0.525335,0.491745,-0.694411,-0.0022719999999999997,-0.014801,-0.005524,0.013987000000000001,0.003372,0.006698000000000001
199,0.647062,-0.514066,0.293548,0.524928,0.49172200000000005,-0.694736,0.010535,-0.018024000000000002,-0.009703,0.015356,0.005104,0.011035
200,0.646776,-0.514147,0.293356,0.524705,0.491792,-0.694854,0.0033909999999999995,-0.010620000000000001,-0.009863,0.014205,0.01158,0.009308
201,0.646475,-0.514173,0.293081,0.5244880000000001,0.49181499999999995,-0.695002,0.009787,-0.012768999999999999,-0.010884,0.019366,0.012931,0.009531
202,0.645962,-0.513993,0.292678,0.524184,0.491659,-0.695342,0.017221,-0.016007,-0.006555,0.01056,0.008341,0.013854
203,0.6454,-0.513871,0.29238000000000003,0.52383,0.49155200000000004,-0.695684,0.021436,-0.033045,-0.011845,0.018452,0.004054,0.006124
204,0.6448550000000001,-0.5138189999999999,0.292013,0.523466,0.49150600000000005,-0.69599,0.007668,-0.009565,-0.010903,0.011918999999999999,0.0036409999999999997,0.004263
205,0.645142,-0.514009,0.29197399999999996,0.523609,0.491672,-0.695765,-0.012487999999999999,0.023499000000000003,-0.0036090000000000002,0.00082,0.006893000000000001,0.003184
206,0.646249,-0.514415,0.292554,0.524259,0.492026,-0.695026,-0.041274,0.044837,0.013253999999999998,0.005556,0.005304,0.002124
207,0.6472060000000001,-0.5148729999999999,0.29325999999999997,0.524788,0.492425,-0.694343,-0.038112,0.03312,0.010087,0.005058,0.009925,0.010505
208,0.648242,-0.515447,0.29399400000000003,0.5253359999999999,0.492924,-0.693574,-0.032057999999999996,0.019738,-0.000348,0.012078,0.0052759999999999994,0.0008710000000000001
209,0.648404,-0.51563,0.293875,0.525395,0.493083,-0.6934170000000001,0.011678000000000001,0.012154,-0.006442,0.011211,0.011998,0.004193
210,0.648536,-0.515572,0.293621,0.5255029999999999,0.493033,-0.6933699999999999,0.02018,0.002545,-0.008506999999999999,0.025994999999999997,0.012216,0.016155000000000003
211,0.648243,-0.515321,0.293164,0.525375,0.49281400000000003,-0.693623,0.021199000000000003,-0.008112000000000001,-0.008486,0.022705,0.012878,0.022938
212,0.647849,-0.515261,0.292806,0.52512,0.492762,-0.693854,0.00732,-0.013377000000000002,-0.011781,0.018963,0.0030269999999999997,0.016363
213,0.64778,-0.5155029999999999,0.29275,0.525,0.492972,-0.6937949999999999,-0.0075829999999999995,-0.0026850000000000003,-0.008694,0.013574000000000001,0.005731,0.007393
214,0.6482939999999999,-0.515937,0.293038,0.525227,0.49335,-0.693354,-0.025643,0.020789,-0.002441,0.004619,0.002576,-0.000814
215,0.649033,-0.5163770000000001,0.293433,0.525608,0.493733,-0.692793,-0.028843,0.026105,0.0028710000000000003,-9.499999999999999e-05,0.008999,0.002089
216,0.649907,-0.516759,0.29393400000000003,0.526099,0.494065,-0.692183,-0.02412,0.027843,0.004190999999999999,0.005197,0.007904000000000001,0.001006
217,0.650413,-0.516969,0.294229,0.526386,0.49424799999999997,-0.6918340000000001,-0.010318,0.010758,0.002173,0.009715999999999999,0.008316,0.006698999999999999
218,0.6501859999999999,-0.516864,0.29399699999999995,0.526261,0.49415699999999996,-0.691994,0.019487,-0.010626,-0.004001,0.02156,0.011276000000000001,0.015908000000000002
219,0.6500630000000001,-0.516612,0.29377,0.526251,0.493937,-0.692159,0.002499,0.018154,0.006525,0.019906999999999998,0.008489,0.022725
220,0.6509010000000001,-0.516713,0.294259,0.5268,0.494025,-0.691678,-0.031606999999999996,0.039523,0.020146999999999998,0.010019,0.005746,0.012813999999999999
221,0.651962,-0.517088,0.295175,0.5274220000000001,0.49435100000000004,-0.690971,-0.037028,0.019306,0.019066999999999997,0.007704000000000001,0.009861,0.004173
222,0.652347,-0.5174449999999999,0.295687,0.52758,0.49466099999999996,-0.690628,-0.016772,-0.006242,-0.003192,0.012871,0.003355,-0.000168
223,0.651962,-0.5176229999999999,0.295231,0.527261,0.494816,-0.690761,0.021726,-0.013722,-0.030687,0.01937,0.0037649999999999997,0.001598
224,0.651306,-0.517471,0.294153,0.526854,0.494684,-0.691166,0.044430000000000004,-0.010855,-0.033464999999999995,0.027422000000000002,0.012534,0.022007
225,0.650209,-0.517124,0.292891,0.526199,0.494382,-0.69188,0.046458,-0.032175999999999996,-0.031287,0.032212,0.016222999999999998,0.026933
226,0.649228,-0.516913,0.292107,0.525583,0.494199,-0.692479,0.013371000000000001,-0.01722,-0.013377000000000002,0.029425,0.01665,0.025304
227,0.648849,-0.5169060000000001,0.291956,0.5253220000000001,0.49419300000000005,-0.692681,-0.0015890000000000001,-0.008701,0.000394,0.017356,0.012673,0.011086
228,0.6488970000000001,-0.516879,0.292105,0.525364,0.49416899999999997,-0.692667,0.0016170000000000002,-0.0023420000000000003,0.005749,0.000759,0.005388,0.006311
229,0.648512,-0.516674,0.291898,0.525158,0.49399099999999996,-0.69295,0.032465,-0.035422,-0.006811,0.006,0.009,0.0005059999999999999
230,0.64799,-0.516323,0.2915,0.5249010000000001,0.49368599999999996,-0.693362,0.032503,-0.025838999999999997,-0.005755,-0.003173,0.003995,-0.002652
231,0.647228,-0.5157619999999999,0.290923,0.52454,0.49319799999999997,-0.693983,0.04421,-0.029088,-0.0024649999999999997,0.014980000000000002,0.01167,0.007734
232,0.646419,-0.5151479999999999,0.290369,0.5241600000000001,0.49266400000000005,-0.6946479999999999,0.037025999999999996,-0.026133,0.003078,0.01153,0.005688,0.017830000000000002
233,0.6461140000000001,-0.514822,0.29034099999999996,0.524045,0.49238000000000004,-0.694936,0.00081,-0.0047350000000000005,0.011343,0.00542,-0.000361,0.010686
234,0.646547,-0.514951,0.290854,0.524308,0.492492,-0.694659,-0.02899,0.016653,0.016449000000000002,0.004028,-0.0025629999999999997,0.000704
235,0.6474949999999999,-0.5154850000000001,0.29175300000000004,0.5248079999999999,0.492957,-0.693951,-0.047064,0.027382,0.013104,0.00098,0.000421,-0.0030399999999999997
236,0.64844,-0.516043,0.29239499999999996,0.525297,0.493443,-0.693236,-0.028856,0.031626,0.001475,0.006335,0.007061,-0.000215
237,0.649225,-0.516361,0.292558,0.525746,0.49371899999999996,-0.6926979999999999,-0.008551999999999999,0.031585,-0.00586,0.015621000000000001,0.013224000000000001,0.008799
238,0.6495449999999999,-0.5163840000000001,0.292414,0.525961,0.49373900000000004,-0.692521,0.008440999999999999,0.015543000000000001,-0.004653,0.028482999999999998,0.02062,0.020340999999999998
239,0.649612,-0.5161979999999999,0.29209,0.526062,0.49357700000000004,-0.692559,0.016966,0.01126,-0.006723999999999999,0.029755,0.020003,0.023614
240,0.649841,-0.51618,0.29192399999999996,0.526227,0.49356099999999997,-0.692445,-0.0027010000000000003,0.018253,-0.005579,0.021762,0.01065,0.021242
241,0.650406,-0.516463,0.29196300000000003,0.526533,0.49380799999999997,-0.692037,-0.014383000000000002,0.027889999999999998,-0.007809,0.01253,0.004285,0.011831
242,0.650857,-0.516809,0.29197,0.526741,0.494108,-0.6916640000000001,-0.013345,0.019372999999999998,-0.009927,0.010826,0.006166,0.009733
243,0.651596,-0.517299,0.29221199999999997,0.527105,0.49453400000000003,-0.691082,-0.021861000000000002,0.026847000000000003,-0.006792,0.004724,0.004703,0.0039020000000000005
244,0.6524939999999999,-0.5177,0.292584,0.527605,0.494883,-0.69045,-0.022941999999999997,0.032143,0.0017399999999999998,0.007765,0.010625,0.005193
245,0.65359,-0.51802,0.293158,0.528266,0.49516000000000004,-0.689746,-0.034668,0.045985000000000005,0.013391,0.002801,0.009921,0.002475
246,0.655279,-0.518574,0.294249,0.529263,0.495642,-0.688635,-0.059182000000000005,0.063069,0.024947999999999998,0.001361,0.006998000000000001,0.000357
247,0.657412,-0.51939,0.295739,0.530483,0.49635,-0.687184,-0.079419,0.073779,0.027998000000000002,0.002949,0.001361,0.006184
248,0.659634,-0.5203720000000001,0.297295,0.53171,0.49720299999999995,-0.6856180000000001,-0.077519,0.07087,0.021796,0.010084000000000001,0.006795000000000001,0.009669
249,0.661381,-0.521227,0.298462,0.532645,0.49794399999999994,-0.684353,-0.048742,0.048463,0.006002,0.022241,0.010357,0.01617
250,0.662451,-0.521868,0.298985,0.533181,0.4985,-0.68353,-0.035926,0.039943,-0.005647999999999999,0.021247,0.010686,0.014356
251,0.663357,-0.522429,0.299313,0.5336270000000001,0.498987,-0.6828270000000001,-0.029552999999999996,0.030345999999999998,-0.008796,0.014057,0.012747,0.006587999999999999
252,0.66363,-0.522679,0.29925300000000005,0.533737,0.49920299999999995,-0.682582,-0.0019199999999999998,0.006813,-0.008573,0.019104,0.018466,0.011775
253,0.66365,-0.522584,0.29905,0.53378,0.499121,-0.682609,0.016173,0.0035280000000000003,-0.0020329999999999997,0.013369999999999998,0.009867,0.014166999999999999
254,0.663601,-0.522359,0.298745,0.533816,0.49892600000000004,-0.682724,0.017255,0.001415,-0.007364,0.013897999999999999,0.010962000000000001,0.015472
255,0.663363,-0.522266,0.298365,0.533682,0.498846,-0.682887,0.015102,-0.007081999999999999,-0.011641,0.017618,0.015619999999999998,0.007076000000000001
256,0.663155,-0.522225,0.297979,0.533552,0.49881000000000003,-0.6830149999999999,0.015000999999999999,-0.002739,-0.010434,0.014803,0.012726000000000001,0.011155
257,0.6630119999999999,-0.522184,0.297659,0.533467,0.498774,-0.683107,0.009667,-0.0016600000000000002,-0.009404000000000001,0.014200999999999998,0.00617,0.011918999999999999
258,0.6628890000000001,-0.5222220000000001,0.297425,0.5333720000000001,0.49880699999999994,-0.683158,0.0032700000000000003,-0.001633,-0.010517,0.015991,0.0032380000000000004,0.0075439999999999995
259,0.662828,-0.522385,0.297177,0.53328,0.49894799999999995,-0.683126,0.000123,0.004790999999999999,-0.015888,0.017623,0.002334,0.007176999999999999
260,0.6629079999999999,-0.5225989999999999,0.29689499999999996,0.5332680000000001,0.499134,-0.682999,0.0022660000000000002,0.006914,-0.015875999999999998,0.016078,0.009807999999999999,0.011216
261,0.662921,-0.5227229999999999,0.296608,0.5332399999999999,0.499242,-0.6829430000000001,0.004366,0.003694,-0.011584,0.012293,0.010844,0.014119999999999999
262,0.662866,-0.522741,0.29644000000000004,0.533196,0.49925699999999995,-0.682966,0.00218,-0.0016510000000000001,-0.005183,0.00811,0.011897,0.013944
263,0.662784,-0.52278,0.29644499999999996,0.5331279999999999,0.499291,-0.682994,-0.003198,-0.008036,-0.002008,0.0043619999999999996,0.006996,0.005321
264,0.662737,-0.522893,0.296513,0.533061,0.499389,-0.682974,-0.00426,-0.004845,0.000117,0.001973,0.006821,0.00257
265,0.662751,-0.522953,0.29659,0.533053,0.49943999999999994,-0.682944,-0.004511,-0.00035499999999999996,0.00134,0.002363,0.008631999999999999,0.000571
266,0.6629689999999999,-0.5230239999999999,0.296717,0.53318,0.49950200000000006,-0.6827989999999999,-0.001286,0.007081999999999999,0.00349,0.0032890000000000003,0.010690999999999999,0.001998
267,0.663207,-0.523011,0.29680300000000004,0.533347,0.49949099999999996,-0.6826770000000001,-0.002329,0.012412000000000001,0.003476,0.007684000000000001,0.007925,0.006437999999999999
268,0.66341,-0.522985,0.29687399999999997,0.533493,0.49946899999999994,-0.682579,-0.00021899999999999998,0.007078,0.0034969999999999997,0.005463,0.00662,0.008003
269,0.663775,-0.522943,0.297035,0.533755,0.499432,-0.682401,-0.003401,0.018777000000000002,0.010937,-0.000796,0.0027199999999999998,0.012998
270,0.664024,-0.522964,0.297244,0.533918,0.49945,-0.6822600000000001,-0.006659,0.001761,0.006664,0.016588,0.014649,0.00046699999999999997
271,0.6643100000000001,-0.5231359999999999,0.297563,0.5340600000000001,0.49959899999999996,-0.68204,-0.014088,0.01031,0.006601,0.009046,0.007923999999999999,0.000628
272,0.664719,-0.523317,0.29775999999999997,0.534284,0.49975600000000003,-0.68175,-0.008814,0.014603,-0.000749,0.016574000000000002,0.010604,0.010012
273,0.665249,-0.523422,0.29788600000000004,0.534612,0.49984700000000004,-0.681426,0.000817,0.027326999999999997,0.005712,0.008204000000000001,0.018876,0.020674
274,0.6658390000000001,-0.523323,0.297921,0.535045,0.49976099999999996,-0.681149,0.0018739999999999998,0.02201,0.0025210000000000002,0.01415,0.002009,0.022335
275,0.6658109999999999,-0.5234449999999999,0.297824,0.534988,0.499867,-0.6811159999999999,-0.002484,-0.012009,-0.011353,0.033051,0.024638999999999998,0.004922
276,0.6656350000000001,-0.52361,0.297653,0.534817,0.5000100000000001,-0.681145,0.0039840000000000006,0.0028829999999999997,-0.011326000000000001,0.024311000000000003,0.012532999999999999,0.01722
277,0.66579,-0.52362,0.29740900000000003,0.53492,0.5000180000000001,-0.6810579999999999,0.007208,0.012442,-0.007043000000000001,0.018318,0.007581,0.019819
278,0.665862,-0.523605,0.297248,0.534974,0.500005,-0.681026,0.004998,-0.010961,-0.013438,0.013305,0.007776999999999999,0.019115
279,0.665403,-0.5236930000000001,0.296956,0.534633,0.5000819999999999,-0.681237,0.007084,-0.02056,-0.012343000000000002,0.018086,0.016306,0.006325
280,0.665151,-0.5236890000000001,0.296664,0.534463,0.500078,-0.681373,0.01169,-0.001832,-0.008054,0.009925,0.010298,0.01316
281,0.665108,-0.523575,0.296448,0.534469,0.499979,-0.681441,0.00848,0.002415,-0.0016719999999999999,0.010712000000000001,0.012273000000000001,0.009016
282,0.665161,-0.523511,0.29646300000000003,0.534525,0.499924,-0.681437,0.002036,-0.0018449999999999999,0.003629,0.004614,0.008438,0.004222
283,0.665215,-0.523435,0.296533,0.5345850000000001,0.49985799999999997,-0.681439,0.00417,-0.000791,0.004711,0.003013,0.012059,0.002651
284,0.665287,-0.523262,0.296579,0.534688,0.499708,-0.6814680000000001,0.006308,0.0034490000000000002,0.007925,0.0023,0.01108,0.00143
285,0.665533,-0.523137,0.296704,0.5348930000000001,0.4996,-0.6813859999999999,0.004203,0.009849,0.007902,0.005832,0.00896,0.004399
286,0.665794,-0.522946,0.29675300000000004,0.535131,0.499434,-0.681321,0.008471,0.009834,0.007932,0.006220000000000001,0.007585,0.009339
287,0.665946,-0.522742,0.29671,0.535297,0.499258,-0.68132,0.011681,0.007709000000000001,0.0036850000000000003,0.0075650000000000005,0.009303,0.006744
288,0.666013,-0.522566,0.29662,0.535397,0.499105,-0.681353,0.012036,0.006117,0.0026379999999999997,0.011005,0.01005,0.007678
289,0.666085,-0.522379,0.29652,0.535504,0.498943,-0.681388,0.009902,0.005063000000000001,0.001556,0.010989,0.007343000000000001,0.010627
290,0.666142,-0.522255,0.29635300000000003,0.5355810000000001,0.49883599999999995,-0.6814060000000001,0.009926,0.006145,-0.002718,0.015643,0.007603,0.010629000000000001
291,0.666209,-0.5221520000000001,0.296137,0.535658,0.498746,-0.6814100000000001,0.011002,0.0072109999999999995,-0.0037799999999999995,0.012787999999999999,0.0066549999999999995,0.012419
292,0.666204,-0.5220819999999999,0.29593400000000003,0.5356770000000001,0.49868599999999996,-0.681441,0.008845,0.0018920000000000002,-0.003788,0.01573,0.006562999999999999,0.009367
293,0.666225,-0.522087,0.29581799999999997,0.5356890000000001,0.49868999999999997,-0.681427,0.00352,0.0029809999999999997,-0.004895,0.014207,0.005918,0.010559
294,0.666319,-0.5221560000000001,0.29570799999999997,0.535732,0.49875,-0.68135,0.001415,0.007258,-0.007051999999999999,0.013737000000000001,0.010589,0.011306
295,0.666427,-0.522242,0.295596,0.535779,0.498825,-0.681258,0.000339,0.005131,-0.007056000000000001,0.016834000000000002,0.011124,0.01123
296,0.666455,-0.522295,0.29546500000000003,0.535782,0.49887,-0.681222,0.002448,0.000858,-0.005968,0.014388999999999999,0.012955000000000001,0.014001
297,0.666381,-0.522284,0.29536100000000004,0.5357350000000001,0.49886099999999994,-0.681267,0.006875,-0.0048649999999999995,-0.002624,0.01346,0.010554000000000001,0.014961000000000002
298,0.666165,-0.522209,0.295211,0.53561,0.498796,-0.681412,0.010066,-0.009129,-0.004732,0.017338,0.009978,0.012589
299,0.665999,-0.522117,0.29503,0.5355260000000001,0.498716,-0.681537,0.010081,-0.004872,-0.003669,0.013852000000000001,0.010622,0.010074
300,0.66586,-0.522026,0.29486,0.535459,0.498637,-0.681647,0.010081,-0.003811,-0.0026030000000000003,0.008822,0.010167,0.008520999999999999
301,0.665763,-0.521914,0.294759,0.535428,0.49854,-0.681742,0.007928,-0.003821,0.001655,0.002643,0.008020999999999999,0.005213000000000001
302,0.66573,-0.521831,0.294717,0.535431,0.498468,-0.681793,0.0026079999999999996,-0.001667,0.000547,0.000671,0.003622,-9.2e-05
303,0.665779,-0.521879,0.294715,0.535449,0.49851,-0.6817479999999999,-0.001626,0.0026219999999999998,-0.002693,-0.00020099999999999998,0.005686,-9.1e-05
304,0.66595,-0.521918,0.294712,0.535554,0.498544,-0.6816409999999999,0.0017620000000000001,0.007609,-0.0015710000000000001,0.004454,0.011054000000000001,0.003418
305,0.666026,-0.521884,0.294613,0.535616,0.498514,-0.681614,0.008149,0.004391,-0.0015220000000000001,0.015287,0.010367,0.011112
306,0.666004,-0.5218079999999999,0.294425,0.535625,0.498449,-0.681655,0.010302,0.0044009999999999995,-0.0057799999999999995,0.01711,0.011668000000000001,0.014129
307,0.665867,-0.521778,0.294104,0.53554,0.49842200000000003,-0.6817409999999999,0.012454999999999999,0.002288,-0.012172,0.020612000000000002,0.012457,0.013680000000000001
308,0.665693,-0.521822,0.293705,0.535408,0.49846,-0.681817,0.011382999999999999,-0.000895,-0.014312,0.019173,0.011183,0.01635
309,0.665441,-0.521872,0.29336100000000004,0.5352210000000001,0.498504,-0.6819310000000001,0.007072,-0.007285,-0.011129,0.009777,0.008286,0.009385
310,0.665211,-0.5219060000000001,0.29315399999999997,0.535054,0.498533,-0.682042,0.001714,-0.007287,-0.005825,0.004802000000000001,0.009706999999999999,0.008046
311,0.665272,-0.52198,0.293245,0.5350729999999999,0.49859799999999993,-0.68198,-0.005763,0.000157,0.0037270000000000003,-0.0018239999999999999,0.008223000000000001,-0.000653
312,0.665608,-0.522019,0.293563,0.5352899999999999,0.49863199999999996,-0.6817840000000001,-0.008860999999999999,0.010525,0.011234000000000001,-0.00288,0.008020999999999999,-0.004556
313,0.666131,-0.522019,0.294012,0.535647,0.49863100000000005,-0.681504,-0.011047,0.0073019999999999995,0.019769,-0.001467,0.01057,-0.0026850000000000003
314,0.6666989999999999,-0.522033,0.294456,0.536029,0.498643,-0.681195,-0.009918000000000001,0.017963999999999997,0.016558,0.011014,0.009566,0.005261
315,0.667355,-0.521949,0.29485900000000004,0.536502,0.49856999999999996,-0.680876,-0.005607,0.026475,0.015509,0.010541,0.009639,0.004942
316,0.667975,-0.5218229999999999,0.295223,0.536963,0.498461,-0.680592,-0.003522,0.017937,0.017671,0.012643999999999999,0.014509000000000001,0.022389
317,0.6682640000000001,-0.521626,0.295482,0.53722,0.498291,-0.6805140000000001,0.003899,0.004076,0.014536000000000002,0.02113,0.014403999999999998,0.013368999999999999
318,0.668283,-0.52142,0.295521,0.537296,0.498112,-0.680584,0.010319,-0.0022960000000000003,0.003907,0.022198,0.013316999999999999,0.013591999999999998
319,0.66813,-0.521238,0.295234,0.537248,0.497954,-0.6807380000000001,0.017844,-0.00121,-0.0077930000000000004,0.020444999999999998,0.014695,0.011502
320,0.66795,-0.5210560000000001,0.294746,0.5371819999999999,0.49779700000000005,-0.680906,0.027445999999999998,-0.001429,-0.013047999999999999,0.018436,0.009894,0.013944
321,0.6675270000000001,-0.52084,0.294135,0.536961,0.497609,-0.681217,0.024207,-0.011001,-0.014127,0.014278,0.008739,0.010761
322,0.6670550000000001,-0.520753,0.29362699999999997,0.536666,0.497533,-0.681505,0.016725,-0.014171000000000001,-0.014175,0.012773,0.006342,0.00902
323,0.666693,-0.520766,0.293256,0.536415,0.49754499999999996,-0.6816939999999999,0.008199,-0.009888,-0.012103000000000001,0.011101,0.003172,0.0036079999999999997
324,0.666583,-0.520854,0.293064,0.536313,0.497621,-0.681718,0.001827,0.000769,-0.007889,0.007815,0.0030039999999999997,0.007295
325,0.66667,-0.520981,0.292998,0.536333,0.49773100000000003,-0.6816220000000001,-0.003498,0.00398,-0.006862,0.008436,0.0073349999999999995,0.0072299999999999994
326,0.66682,-0.521108,0.292979,0.536396,0.497841,-0.681492,-0.004579,0.003971,-0.003665,0.0037340000000000003,0.005241,0.007908
327,0.6668390000000001,-0.521169,0.292959,0.5363899999999999,0.49789399999999995,-0.681458,-0.002455,0.0018329999999999998,-0.003647,0.00815,0.010055,0.0034340000000000004
328,0.666916,-0.521238,0.29291799999999996,0.5364220000000001,0.497954,-0.681389,-0.001474,0.004849,-0.003607,0.00998,0.010087,0.009575
329,0.667014,-0.5212899999999999,0.292838,0.5364720000000001,0.49799899999999997,-0.6813170000000001,0.000669,0.00485,-0.0057280000000000005,0.008357999999999999,0.008959,0.0099
330,0.667036,-0.5213760000000001,0.29272,0.536461,0.49807399999999996,-0.681271,0.000669,0.002728,-0.007862000000000001,0.008461,0.010440000000000001,0.009732
331,0.666998,-0.521504,0.292586,0.536396,0.49818500000000004,-0.681241,0.00065,-0.002594,-0.008924,0.008892,0.012953999999999999,0.006756999999999999
332,0.666797,-0.521604,0.29239,0.5362279999999999,0.49827200000000005,-0.6813100000000001,0.002774,-0.006854000000000001,-0.011040000000000001,0.008786,0.011753,0.007513
333,0.666658,-0.5216810000000001,0.29220100000000004,0.5361090000000001,0.498338,-0.681355,0.00385,-0.002605,-0.008901000000000001,0.007638,0.009382999999999999,0.0071909999999999995
334,0.666623,-0.521729,0.292026,0.536071,0.49838000000000005,-0.681354,0.0049310000000000005,0.002709,-0.006764,0.008088,0.013841999999999998,0.006321
335,0.666676,-0.52167,0.29188600000000003,0.536125,0.498328,-0.68135,0.007056000000000001,0.005876,-0.0014119999999999998,0.010308,0.011895000000000001,0.009078
336,0.666752,-0.5215930000000001,0.29181,0.5362,0.498262,-0.681339,0.004771,0.004712,0.000763,0.011498999999999999,0.011717,0.010333
337,0.6667850000000001,-0.521524,0.291742,0.5362439999999999,0.49820200000000003,-0.681348,0.005824,0.00045099999999999996,-0.000292,0.014766,0.011807999999999999,0.010678
338,0.666693,-0.5214310000000001,0.291618,0.5362100000000001,0.498122,-0.681434,0.009015,-0.002751,-0.001334,0.015548,0.013963,0.012487999999999999
339,0.6665449999999999,-0.521335,0.291482,0.536139,0.49803800000000004,-0.681551,0.009,-0.004886,-0.000263,0.010751,0.009622,0.011949
340,0.666378,-0.52123,0.29138800000000004,0.536058,0.49794700000000003,-0.6816810000000001,0.0057810000000000005,-0.007014,0.001854,0.006987999999999999,0.007790000000000001,0.009089
341,0.666343,-0.5212289999999999,0.291429,0.536034,0.497946,-0.681701,-0.001673,-0.002731,0.0028640000000000002,0.002388,0.004602,0.003631
342,0.666505,-0.521295,0.291616,0.5361239999999999,0.498003,-0.681588,-0.010184,0.005808,0.005999,-0.00344,0.006513,0.001153
343,0.666945,-0.5213800000000001,0.291997,0.5363979999999999,0.49807799999999997,-0.681318,-0.013375,0.014315999999999999,0.012375,-0.0022489999999999997,0.006606999999999999,0.000288
344,0.667503,-0.521468,0.292468,0.536751,0.49815299999999996,-0.6809850000000001,-0.015503999999999999,0.017511000000000002,0.014491999999999998,0.002358,0.010849,0.002762
345,0.668104,-0.521529,0.292923,0.537141,0.49820699999999996,-0.680638,-0.013484000000000001,0.018499,0.012439,0.008468,0.0093,0.009175
346,0.6685840000000001,-0.521572,0.29323499999999997,0.537454,0.49824399999999996,-0.680363,-0.007083,0.015294,0.009284,0.018103,0.010454000000000001,0.012028
347,0.668866,-0.521605,0.293378,0.537636,0.49827200000000005,-0.680199,-0.001744,0.007853,0.000785,0.021553,0.014087,0.016304
348,0.668876,-0.5215989999999999,0.29331,0.5376449999999999,0.498267,-0.680196,0.0067670000000000004,-0.001748,-0.0034159999999999998,0.023497,0.014032,0.019872
349,0.6686449999999999,-0.521512,0.29304,0.537515,0.498192,-0.680354,0.014240000000000001,-0.006013,-0.0087,0.028205,0.015694,0.019328
350,0.6683060000000001,-0.521389,0.292636,0.5373220000000001,0.49808500000000006,-0.680585,0.01957,-0.009219,-0.010795,0.024125999999999998,0.012886000000000002,0.017453
351,0.6679109999999999,-0.5211939999999999,0.292167,0.5371130000000001,0.49791599999999997,-0.680873,0.022761,-0.0103,-0.009703,0.021008000000000002,0.013757,0.019389
352,0.667467,-0.521039,0.291752,0.536858,0.49778199999999995,-0.681172,0.016215,-0.016796000000000002,-0.009761,0.015144,0.008551000000000001,0.013218
353,0.667079,-0.521005,0.291433,0.536605,0.49775200000000003,-0.681393,0.008776,-0.011439,-0.010888,0.009828,0.005742000000000001,0.008389
354,0.6668470000000001,-0.5210279999999999,0.291216,0.536439,0.49777200000000005,-0.681509,0.0045130000000000005,-0.007176,-0.007719,0.007613,0.006439,0.007895000000000001
355,0.6666569999999999,-0.5210359999999999,0.291091,0.536308,0.49777899999999997,-0.681608,0.002356,-0.00719,-0.002393,0.003655,0.009362,0.007047
356,0.6667270000000001,-0.521089,0.291172,0.536339,0.497825,-0.681549,-0.004031,0.001334,0.002893,0.001274,0.008782,0.0046689999999999995
357,0.666966,-0.5211439999999999,0.29138400000000003,0.536485,0.49787299999999995,-0.6814,-0.009351,0.008792,0.0071189999999999995,0.001189,0.010611,0.00365
358,0.667319,-0.521246,0.29165599999999997,0.536694,0.497961,-0.681171,-0.011470000000000001,0.010934000000000001,0.006033,0.00124,0.007242,0.002566
359,0.66764,-0.521409,0.29189899999999996,0.536862,0.49810299999999996,-0.680934,-0.011461,0.009882,0.00283,0.001605,0.006689,0.003093
360,0.667926,-0.521594,0.292079,0.537,0.498263,-0.680709,-0.010384000000000001,0.008826,-0.000366,0.001971,0.009626000000000001,0.004683
361,0.6681590000000001,-0.52172,0.29220999999999997,0.5371199999999999,0.49837200000000004,-0.680534,-0.006274,0.008731000000000001,0.001872,0.002996,0.012783,0.0034560000000000003
362,0.668341,-0.521745,0.29231,0.5372359999999999,0.49839300000000003,-0.680426,-0.000964,0.005508,0.0040490000000000005,0.007838,0.017522,0.004828
363,0.6684720000000001,-0.521667,0.292337,0.537349,0.49832600000000005,-0.6803859999999999,0.005447,0.006555,0.003025,0.009755,0.017772,0.009457
364,0.668509,-0.5214479999999999,0.292272,0.537442,0.498137,-0.6804520000000001,0.012881,0.002255,0.006287,0.014591,0.016572999999999997,0.010713
365,0.668489,-0.521173,0.292133,0.537513,0.49789799999999995,-0.68057,0.016092,0.001191,0.003106,0.018044,0.013302000000000001,0.015714
366,0.6684720000000001,-0.5209189999999999,0.29201,0.5375800000000001,0.49767700000000004,-0.680679,0.010772,0.0054670000000000005,0.004131,0.021258000000000003,0.010028,0.016753
367,0.668141,-0.520755,0.292065,0.537405,0.49753500000000006,-0.680921,0.0074129999999999995,-0.026493,0.007353,0.013238999999999999,0.005425,0.017667
368,0.667485,-0.520736,0.292099,0.536964,0.497518,-0.681281,-0.004484,-0.04245,-0.0022129999999999997,0.0051649999999999995,0.00091,0.014288999999999998
369,0.666353,-0.52079,0.291986,0.536176,0.497565,-0.681867,0.007232,-0.048875,-0.004259000000000001,0.027193000000000002,0.013451,0.01846
370,0.6657270000000001,-0.520755,0.292243,0.53576,0.49753500000000006,-0.6822159999999999,-0.015196000000000001,-0.037146,0.012661,0.015906,0.016381,0.017818
371,0.6653789999999999,-0.520791,0.29220799999999997,0.535511,0.497566,-0.682388,0.002104,-0.006233,-0.007554000000000001,0.027218,0.008766,0.018706999999999998
372,0.6657109999999999,-0.520878,0.292103,0.5357109999999999,0.49764200000000003,-0.682176,-0.0019379999999999998,0.045972000000000006,-0.0055130000000000005,0.028009,0.015465000000000001,0.01285
373,0.666669,-0.521026,0.292236,0.5363180000000001,0.49777,-0.681605,0.001076,0.00972,-0.00010400000000000001,-0.0072959999999999995,0.010469,0.00735
374,0.666431,-0.5210060000000001,0.29232800000000003,0.5361630000000001,0.497753,-0.6817409999999999,-0.0033450000000000003,-0.017987,0.0063100000000000005,-0.012558,0.005818,0.016319999999999998
375,0.6661,-0.521005,0.292529,0.535938,0.49775200000000003,-0.681918,-0.0033740000000000003,-0.026501,0.004184,0.009656,0.00797,0.003513
376,0.66543,-0.521045,0.292469,0.535468,0.49778599999999995,-0.682262,0.004012,-0.037187,-0.00853,0.005654,0.0027170000000000002,0.010112000000000001
377,0.664633,-0.520931,0.292056,0.534959,0.497688,-0.682733,0.029641000000000004,-0.033011,-0.009425,0.013563999999999998,0.019066,0.01072
378,0.663813,-0.5204989999999999,0.291526,0.5345310000000001,0.497313,-0.683341,0.028564,-0.024528,0.001239,0.001067,0.013947999999999999,0.01052
379,0.663258,-0.520068,0.29134099999999996,0.534284,0.496939,-0.683806,0.022119999999999997,-0.025605000000000003,0.009741,0.002123,0.016321000000000002,0.007398999999999999
380,0.6625909999999999,-0.519601,0.291142,0.533971,0.49653400000000003,-0.684345,0.026373,-0.034121,0.004441,0.002956,0.005847,0.006336
381,0.66189,-0.519328,0.29088600000000003,0.533574,0.49629700000000004,-0.684826,0.016843,-0.023413,-0.000981,0.002666,0.004314,0.005337
382,0.661,-0.5190600000000001,0.290408,0.533046,0.49606400000000006,-0.6854060000000001,0.024311000000000003,-0.028744,-0.006263,0.008259,0.009475,0.011883
383,0.659752,-0.518698,0.28968499999999997,0.532301,0.49575,-0.686212,0.043438,-0.056465999999999995,-0.016776,0.014758000000000002,0.009728,0.016581
384,0.657587,-0.51804,0.288479,0.531013,0.49517799999999995,-0.687621,0.0646,-0.077876,-0.020838,0.011391,0.010147,0.022384
385,0.655917,-0.517505,0.28753,0.530025,0.49471400000000004,-0.688717,0.033766000000000004,-0.046905,-0.013616,0.009556,0.009666,0.007687
386,0.6552399999999999,-0.51748,0.287254,0.529566,0.494691,-0.689086,-0.003464,-0.014846999999999999,-0.006439,0.013982,0.014968,0.000731
387,0.6557149999999999,-0.517714,0.287524,0.5298229999999999,0.494895,-0.688742,-0.020390000000000002,0.028842000000000003,0.005137,0.013802000000000002,0.0169,0.005972
388,0.656687,-0.517948,0.288011,0.530421,0.495098,-0.688135,-0.019332,0.033074,0.011548000000000001,0.014622999999999999,0.016025,0.010004
389,0.6573180000000001,-0.518047,0.288369,0.530825,0.49518500000000004,-0.687761,-0.007664,0.014936000000000001,0.008448,0.012403,0.010948999999999999,0.012284999999999999
390,0.657556,-0.518004,0.2885,0.5310020000000001,0.495147,-0.687652,0.0029760000000000003,0.005324000000000001,0.00533,0.006915999999999999,0.009170999999999999,0.011459
391,0.657586,-0.517895,0.288527,0.5310560000000001,0.49505200000000005,-0.687679,0.006129,-0.00534,0.005365999999999999,0.004711,0.010548,0.012629999999999999
392,0.657515,-0.517803,0.288596,0.531035,0.494972,-0.687753,0.000794,-0.005321,0.0053289999999999995,0.007814,0.011025,0.006966
393,0.657619,-0.5178520000000001,0.28873699999999997,0.531091,0.495015,-0.687678,-0.005612,0.003213,0.001041,0.006644,0.011409,0.001948
394,0.657787,-0.517949,0.28879099999999996,0.5311779999999999,0.49509899999999996,-0.687551,-0.001306,0.007476000000000001,-0.003207,0.008907,0.013766,0.006139
395,0.657832,-0.5179699999999999,0.288666,0.5312020000000001,0.495118,-0.687519,0.0072239999999999995,0.002137,-0.0074140000000000005,0.014406,0.01242,0.009509
396,0.657623,-0.5179560000000001,0.288346,0.5310630000000001,0.495105,-0.687635,0.012544,-0.00426,-0.010573,0.01778,0.012738,0.014463
397,0.657309,-0.517907,0.28797399999999995,0.530862,0.49506300000000003,-0.687821,0.011453,-0.010643999999999999,-0.011641,0.016929,0.010812,0.017411000000000003
398,0.65683,-0.517872,0.287597,0.530543,0.495033,-0.6880890000000001,0.013543000000000001,-0.020239,-0.011614,0.016087999999999998,0.013787,0.017374
399,0.656277,-0.517903,0.28725,0.530153,0.495059,-0.6883699999999999,0.006085,-0.019143,-0.012736,0.013746000000000001,0.012342,0.016083
400,0.655848,-0.518029,0.287,0.52982,0.49516899999999997,-0.6885479999999999,-0.0014349999999999999,-0.012713,-0.010675,0.0060539999999999995,0.0086,0.006266
401,0.6553720000000001,-0.518174,0.286663,0.5294479999999999,0.495295,-0.688743,0.0103,-0.021242,-0.019128,0.014009,0.01853,0.008262
402,0.6550199999999999,-0.518145,0.28629899999999997,0.5292140000000001,0.49526899999999996,-0.688941,0.010334000000000001,-0.002114,-0.007402,0.007422,0.016267,0.007148000000000001
403,0.6552279999999999,-0.518125,0.2863,0.5293640000000001,0.495252,-0.688839,-0.004588,0.012805,0.004225,0.001093,0.010379000000000001,0.004726
404,0.655744,-0.518183,0.286595,0.529701,0.495302,-0.688543,-0.012051000000000001,0.01814,0.008439,0.000618,0.012922,0.003622
405,0.6564439999999999,-0.51842,0.287056,0.530111,0.495508,-0.688079,-0.024825,0.024577,0.008341,-0.0040490000000000005,0.007223,0.007170999999999999
406,0.657094,-0.5187189999999999,0.287475,0.530468,0.49576800000000004,-0.687616,-0.0195,0.018184,0.0041140000000000005,0.000309,0.009328,0.006083
407,0.65751,-0.518958,0.28771599999999997,0.530682,0.495975,-0.6873020000000001,-0.013085,0.018174,0.0009539999999999999,0.0059700000000000005,0.009091,0.008408
408,0.657926,-0.5191899999999999,0.287898,0.5308970000000001,0.49617700000000003,-0.686991,-0.012013,0.017113,-0.001173,0.007081999999999999,0.010461,0.0072120000000000005
409,0.658284,-0.519379,0.287973,0.531086,0.496341,-0.6867260000000001,-0.007809999999999999,0.016187,-0.003296,0.012997,0.010647,0.008122
410,0.658764,-0.519652,0.288034,0.5313329999999999,0.49657799999999996,-0.6863640000000001,-0.013096,0.024736,-0.005481000000000001,0.012475,0.010029000000000001,0.010598
411,0.659361,-0.519994,0.288139,0.531638,0.496875,-0.685912,-0.018402,0.030086,-0.006593000000000001,0.011926,0.012265,0.010421
412,0.659917,-0.520285,0.288234,0.531931,0.49712700000000004,-0.685503,-0.008862,0.017265,-0.005441,0.013281,0.012333,0.012972
413,0.6601779999999999,-0.520438,0.288288,0.5320630000000001,0.49726000000000004,-0.685303,-0.00892,0.008726000000000001,-0.001158,0.010738,0.013359999999999999,0.018203999999999998
414,0.660242,-0.52049,0.288274,0.532091,0.497305,-0.685249,0.003849,-0.000898,-0.003193,0.017622,0.016107,0.019400999999999998
415,0.6600060000000001,-0.520389,0.288091,0.53196,0.49721800000000005,-0.6854140000000001,0.011284,-0.008381,-0.0031309999999999997,0.023659,0.016697999999999998,0.011541
416,0.659764,-0.5202720000000001,0.287896,0.53183,0.497116,-0.685589,0.012062999999999999,-0.005795000000000001,-0.0031030000000000003,0.017425,0.014588,0.015652000000000003
417,0.659669,-0.520109,0.287748,0.531814,0.496975,-0.685704,0.012048999999999999,-0.003686,0.002235,0.015732,0.014805,0.012882
418,0.659741,-0.520046,0.28781599999999996,0.531883,0.49692,-0.6856899999999999,0.000299,-0.003658,0.005357,0.008643999999999999,0.008726000000000001,0.010458
419,0.659605,-0.5200130000000001,0.28788,0.5318,0.49689099999999997,-0.685775,-0.000787,-0.011098,0.0021550000000000002,0.006622,0.009044,0.011642
420,0.659647,-0.520094,0.288017,0.5318039999999999,0.496961,-0.685721,-0.008197,0.0017109999999999998,0.0020870000000000003,0.010478,0.005572,0.006263
421,0.65993,-0.520335,0.288193,0.531924,0.49717100000000003,-0.685476,-0.015603,0.012403,-0.001184,0.007673,0.011679,0.004156
422,0.6604,-0.520623,0.288391,0.532159,0.49742,-0.685113,-0.01556,0.020929,-0.002262,0.0026620000000000003,0.012544,0.0068909999999999996
423,0.660827,-0.520827,0.288466,0.532389,0.49759799999999993,-0.684805,-0.003848,0.012379000000000001,-0.005374,0.005911,0.013099000000000001,0.009314
424,0.660601,-0.5208729999999999,0.288208,0.53222,0.497638,-0.684908,0.00993,-0.016398,-0.013787,0.015571000000000002,0.014263999999999999,0.013216
425,0.659615,-0.520757,0.287463,0.53158,0.497537,-0.6854779999999999,0.030994,-0.034164,-0.026418,0.027487,0.018302000000000002,0.013893
426,0.658664,-0.520618,0.286491,0.5309699999999999,0.49741599999999997,-0.686038,0.033208999999999995,-0.018184,-0.028558999999999998,0.016607,0.01325,0.017199000000000002
427,0.657658,-0.52037,0.285393,0.530355,0.49720200000000003,-0.686669,0.04384,-0.029927,-0.031674,0.016687999999999998,0.01586,0.020043000000000002
428,0.656138,-0.520037,0.2842,0.529411,0.496913,-0.687606,0.046906,-0.05658200000000001,-0.028414,0.013694999999999999,0.013906,0.015609
429,0.6546109999999999,-0.5196770000000001,0.28325,0.52847,0.4966,-0.688555,0.038327999999999994,-0.054469000000000004,-0.016725999999999998,0.000384,0.007993,0.007036
430,0.653659,-0.519382,0.282771,0.527904,0.49634399999999995,-0.689174,0.019181999999999998,-0.028887,-0.004074,-0.0019030000000000002,0.009668000000000001,-0.0024460000000000003
431,0.653149,-0.519047,0.282567,0.5276529999999999,0.49605299999999997,-0.689575,0.022383,-0.02041,0.004483,0.002514,0.015727,-0.001968
432,0.6528930000000001,-0.518595,0.282545,0.527613,0.49566000000000004,-0.6898880000000001,0.016798,-0.010554000000000001,0.018402,-0.010706,0.012549,0.003182
433,0.65266,-0.518157,0.28282199999999996,0.527583,0.49528,-0.690184,0.008181,-0.022268,0.024766,-0.008601000000000001,0.009496,0.004591
434,0.652602,-0.517983,0.28334299999999996,0.527596,0.495129,-0.690283,-0.014165,-0.010467,0.023527,-0.003532,0.005344,-0.0019320000000000001
435,0.652921,-0.518097,0.283987,0.527782,0.495228,-0.69007,-0.022576,0.008771,0.014898,0.0011949999999999999,0.0033840000000000003,-0.000192
436,0.653646,-0.518375,0.284446,0.528198,0.49546899999999994,-0.689578,-0.020303,0.031169,0.006339,0.010758,0.007581999999999999,0.007861
437,0.6542319999999999,-0.518554,0.284655,0.5285479999999999,0.49562399999999995,-0.6891970000000001,-0.005405,0.017289,0.00112,0.012299,0.013484999999999999,0.018313999999999997
438,0.654263,-0.518572,0.28463,0.528564,0.495641,-0.689174,0.0030440000000000003,-0.006159,-0.003064,0.017013999999999998,0.016338,0.018931
439,0.6540239999999999,-0.518608,0.28451,0.528388,0.495672,-0.689286,-0.000152,-0.007205,-0.005222,0.018136000000000003,0.016169,0.014222
440,0.6538010000000001,-0.518568,0.284219,0.528247,0.495637,-0.68942,0.016956,-0.0040479999999999995,-0.010447,0.026258,0.021178,0.013775999999999998
441,0.653255,-0.51826,0.283514,0.527963,0.49536899999999995,-0.689829,0.040310000000000006,-0.016771,-0.016606,0.03266,0.021415,0.019968
442,0.652375,-0.517788,0.28262,0.527497,0.49495900000000004,-0.690479,0.043458,-0.026378,-0.014436000000000001,0.031218,0.025152,0.024569999999999998
443,0.6515449999999999,-0.517351,0.282022,0.5270560000000001,0.494579,-0.6910890000000001,0.03165,-0.030645,-0.002762,0.024,0.017551,0.014131999999999999
444,0.651025,-0.516938,0.28180900000000003,0.52682,0.49422,-0.691526,0.013552000000000002,-0.009327,0.009903,0.024236,0.017911,0.014569
445,0.65157,-0.5168659999999999,0.282244,0.5272180000000001,0.494158,-0.6912659999999999,-0.013024,0.020559,0.018225,-0.008618,0.000319,-0.0025050000000000003
446,0.652443,-0.517007,0.282814,0.527779,0.494281,-0.69075,-0.016181,0.023791999999999997,0.011789,-0.006829000000000001,0.001371,-0.002075
447,0.6529050000000001,-0.517087,0.283112,0.528075,0.49435,-0.690475,-0.006622,0.0078049999999999994,0.0054670000000000005,-0.005247,0.004338,0.000182
448,0.652942,-0.5170560000000001,0.283177,0.528109,0.49432299999999996,-0.690467,0.00507,-0.003945000000000001,0.0034270000000000004,-0.002597,0.009614,0.0034560000000000003
449,0.6528609999999999,-0.516896,0.283157,0.528101,0.494184,-0.690573,0.00935,-0.000826,0.0056619999999999995,0.023062,0.020724,0.01377
450,0.6525770000000001,-0.5165649999999999,0.283006,0.528004,0.493896,-0.6908529999999999,0.019961000000000003,-0.012586,0.0068189999999999995,0.026118000000000002,0.024597,0.013241
451,0.652231,-0.516193,0.282804,0.527877,0.493573,-0.691182,0.021052,-0.010445999999999999,0.003619,0.012422,0.012027,0.010182
452,0.651961,-0.515947,0.282481,0.527764,0.493359,-0.69142,0.022181,-0.008272,-0.008126000000000001,0.008766,0.007388,0.014678
453,0.651297,-0.515699,0.281796,0.527378,0.49314300000000005,-0.691868,0.029644999999999998,-0.018913,-0.017674000000000002,0.016094,0.009787,0.016118
454,0.6507109999999999,-0.5155310000000001,0.281096,0.5270229999999999,0.492997,-0.692243,0.029682999999999998,-0.012513,-0.019819,0.008102,0.015777,0.012586
455,0.650278,-0.515258,0.280457,0.526805,0.492759,-0.692578,0.033922,-0.012553,-0.013380000000000001,0.013172999999999999,0.018029,0.013318
456,0.649887,-0.5148689999999999,0.279931,0.52665,0.492421,-0.692937,0.028554000000000003,-0.012564,-0.00594,0.006019,0.017269,0.010182
457,0.649587,-0.514572,0.279544,0.5265310000000001,0.492162,-0.693211,0.022167,-0.005132,-0.002702,0.00533,0.010034999999999999,0.00536
458,0.649752,-0.5143310000000001,0.279355,0.526717,0.49195200000000006,-0.6932189999999999,0.013709,0.016186000000000002,0.001484,0.0033280000000000002,0.006735,0.0030329999999999997
459,0.650027,-0.5141979999999999,0.279303,0.526947,0.49183699999999997,-0.693126,0.0040880000000000005,0.013019,0.002489,0.000717,0.007126,0.0033829999999999997
460,0.650296,-0.514243,0.27934499999999995,0.52712,0.491875,-0.692967,-0.003375,0.010928,-0.0007650000000000001,0.007884,0.009940000000000001,0.0061530000000000005
461,0.650515,-0.5142909999999999,0.279335,0.527257,0.491918,-0.692832,0.00195,0.007717,-0.0017920000000000002,0.009929,0.010676,0.01525
462,0.650782,-0.514339,0.27933800000000003,0.527428,0.49196000000000006,-0.6926720000000001,-0.002299,0.013054,-0.0007599999999999999,0.012473999999999999,0.015502000000000002,0.015365
463,0.650822,-0.514366,0.279223,0.527447,0.491983,-0.692641,0.007254999999999999,-0.003998,-0.0070810000000000005,0.022861000000000003,0.01766,0.015853
464,0.6501979999999999,-0.514224,0.278663,0.527057,0.491859,-0.693026,0.030427999999999997,-0.025083,-0.019531,0.024197,0.015343,0.020922
465,0.649057,-0.513738,0.277573,0.526411,0.491436,-0.693817,0.060275999999999996,-0.035819,-0.02465,0.019167,0.017963999999999997,0.020355
466,0.647783,-0.513021,0.27637,0.5257390000000001,0.49081199999999997,-0.694768,0.062337000000000004,-0.0465,-0.019280000000000002,0.012789,0.017321,0.009082999999999999
467,0.645987,-0.5122869999999999,0.27524499999999996,0.5247069999999999,0.49017200000000005,-0.6959989999999999,0.05795,-0.070995,-0.017143000000000002,0.007901,0.014574,0.004012
468,0.644345,-0.511714,0.27437,0.523732,0.48967299999999997,-0.697083,0.037699,-0.062419,-0.013022999999999998,-0.001973,0.009152,0.000779
469,0.643171,-0.511366,0.273783,0.523016,0.48936899999999994,-0.6978340000000001,0.031389,-0.037913,-0.008825,0.0037630000000000003,0.013744,0.0076939999999999995
470,0.642066,-0.510989,0.273045,0.522354,0.48904,-0.6985600000000001,0.043124,-0.051747,-0.022612,0.016372,0.007481,0.006909
471,0.640613,-0.5105770000000001,0.272042,0.52146,0.48868100000000003,-0.699479,0.029313,-0.032549,-0.016324,0.009515000000000001,0.015393,0.008865999999999999
472,0.6405029999999999,-0.5105029999999999,0.271831,0.521404,0.488616,-0.699566,-0.0006190000000000001,0.014556999999999999,-0.000499,0.001957,0.012223000000000001,0.015056
473,0.640613,-0.510476,0.271926,0.521489,0.48859300000000006,-0.699519,0.007743000000000001,-0.019578,0.0038759999999999997,0.019022999999999998,0.018975,0.012156
474,0.6399729999999999,-0.510216,0.271934,0.521117,0.48836599999999997,-0.699954,0.00337,-0.03345,0.013477000000000001,-0.00772,0.000998,-0.007459
475,0.640278,-0.510401,0.272565,0.5212760000000001,0.48852700000000004,-0.699723,-0.03695,0.023121,0.020600999999999998,-0.016577,0.0014939999999999999,-0.00859
476,0.64189,-0.510949,0.273683,0.5222439999999999,0.48900600000000005,-0.698667,-0.050685,0.056179999999999994,0.023666999999999997,-0.005123,0.01165,-0.000918
477,0.643232,-0.511374,0.274595,0.5230560000000001,0.48937600000000003,-0.697799,-0.045332,0.057239,0.020498,-0.016128,-0.004772,-0.0061189999999999994
478,0.64559,-0.512402,0.275982,0.524397,0.49027200000000004,-0.696162,-0.091015,0.09576599999999999,0.015857,0.007647,0.011559,-0.006704000000000001
479,0.6480020000000001,-0.513547,0.27729899999999996,0.5257350000000001,0.49126899999999996,-0.694447,-0.070764,0.088251,0.012803,0.015326,0.018557,0.022572
480,0.649375,-0.514035,0.277863,0.526544,0.491695,-0.693533,-0.012523000000000001,0.035026,-0.000582,0.023871,0.028294,0.028235000000000003
481,0.649167,-0.5138590000000001,0.277575,0.526451,0.49154200000000003,-0.693712,0.02462,-0.015147,-0.006668,0.027594999999999998,0.027761,0.023591
482,0.648716,-0.5135850000000001,0.27716799999999997,0.52622,0.491303,-0.694056,0.018215000000000002,-0.014066999999999998,-0.004577,0.036494,0.026184,0.020564
483,0.6479699999999999,-0.513135,0.276584,0.525835,0.490911,-0.694625,0.038456,-0.022652000000000002,-0.006561,0.030149000000000002,0.014719,0.013319999999999999
484,0.647058,-0.5125109999999999,0.275859,0.525386,0.490367,-0.695349,0.056491999999999994,-0.044025,-0.00534,0.012563,0.014211000000000001,0.011281999999999999
485,0.646382,-0.5119779999999999,0.27537399999999995,0.5250729999999999,0.489903,-0.695912,0.017186,0.000824,0.0018059999999999999,-0.001407,-0.0032240000000000003,0.006000999999999999
486,0.646497,-0.5118189999999999,0.275429,0.5252,0.48976400000000003,-0.695914,0.005393,-0.00343,0.010275,0.002495,0.01048,0.009757
487,0.647242,-0.511926,0.27618000000000004,0.525687,0.489857,-0.69548,-0.038296,0.024356,0.025957,0.012597,0.010921,0.000259
488,0.648154,-0.5121600000000001,0.277064,0.526252,0.49006099999999997,-0.694909,-0.028675,0.026462,0.023885,0.014947,0.013708000000000001,0.01127
489,0.648863,-0.512238,0.27768699999999996,0.526721,0.49013,-0.694505,-0.010936,0.009594,0.012334999999999999,0.018887,0.011763,0.02025
490,0.6487189999999999,-0.5121359999999999,0.277712,0.526652,0.49004,-0.694621,0.009272,-0.017058,-0.000309,0.020513,0.013973,0.018397999999999998
491,0.6479239999999999,-0.511955,0.277379,0.526153,0.489882,-0.6951109999999999,0.016693,-0.035163,-0.007711,0.019547,0.016877,0.022
492,0.6469630000000001,-0.511835,0.277018,0.52552,0.489778,-0.695662,0.015587,-0.046865,-0.010909,0.017647,0.015486000000000002,0.008681
493,0.64575,-0.511777,0.276593,0.524692,0.489727,-0.696322,0.011329,-0.048963,-0.015209,0.013194999999999998,0.009815,0.000552
494,0.644969,-0.511879,0.27621599999999996,0.524119,0.489816,-0.696692,0.002934,-0.018040999999999998,-0.015307,0.001592,0.009299,-0.002908
495,0.6447350000000001,-0.5120640000000001,0.27605999999999997,0.5239010000000001,0.48997700000000005,-0.696742,0.002948,-0.012723,-0.013177000000000001,0.011072,0.012830000000000001,-0.001179
496,0.6443979999999999,-0.512517,0.275857,0.523533,0.49037200000000003,-0.6967409999999999,-0.037896,0.000368,-0.024072,0.018353,-0.002747,-0.037023
497,0.645366,-0.5142479999999999,0.276291,0.523696,0.49188000000000004,-0.695555,-0.088775,0.051770000000000004,-0.046925,0.023805,0.026461000000000002,0.014875999999999999
498,0.6462180000000001,-0.5157010000000001,0.27620300000000003,0.523857,0.493145,-0.694537,-0.034442,0.03984,-0.04119,0.018744999999999998,0.024662,0.025851
499,0.646602,-0.516526,0.275901,0.523878,0.493863,-0.6940109999999999,-0.027107999999999997,0.016353,-0.034699,0.014833,0.015735,0.01797
500,0.647252,-0.517725,0.276016,0.523972,0.49490500000000004,-0.693198,-0.072863,0.044206,-0.033986,0.011505,0.015502000000000002,0.004553
501,0.648882,-0.519436,0.276661,0.5245890000000001,0.49638999999999994,-0.691667,-0.08236900000000001,0.069789,-0.029812,0.010888,0.014015999999999999,0.003022
502,0.65072,-0.521049,0.27726,0.525373,0.49778999999999995,-0.690063,-0.079106,0.089992,-0.023406,0.027726999999999998,0.018872,0.008881
503,0.653982,-0.522705,0.278433,0.52712,0.499226,-0.6876899999999999,-0.103452,0.14542,-0.010828,0.024501,0.019131,0.024574000000000002
504,0.658173,-0.524409,0.279956,0.5294760000000001,0.5007020000000001,-0.684802,-0.11405799999999999,0.17203800000000002,0.001882,0.008809,0.017838,0.027833999999999998
505,0.662751,-0.52612,0.282181,0.5320779999999999,0.502182,-0.6816939999999999,-0.13406099999999999,0.16814500000000002,0.036108999999999995,-0.046283,-0.020462,0.020378
506,0.6674100000000001,-0.528346,0.28525500000000004,0.534554,0.504105,-0.6783279999999999,-0.18750899999999998,0.143835,0.034698,-0.060525,-0.034196,-0.00525
507,0.668253,-0.529881,0.28629899999999997,0.534646,0.50543,-0.677269,-0.033303,-0.033267000000000005,-0.032364,0.0185,0.030504000000000003,-0.003105
508,0.66918,-0.530998,0.28652,0.5349229999999999,0.5063949999999999,-0.67633,-0.046722,0.077527,-0.021917,0.002538,0.032987999999999996,0.01242
509,0.671367,-0.531908,0.28681799999999996,0.536114,0.507179,-0.674797,-0.038176999999999996,0.089176,-0.012258,-0.009059999999999999,0.017113,0.023155000000000002
510,0.6726310000000001,-0.532065,0.287089,0.536917,0.507314,-0.674057,-0.012841,0.052774,0.011466,0.003625,0.028331,0.011978
511,0.673424,-0.532148,0.287485,0.537425,0.507386,-0.6735979999999999,-0.001269,0.015453,0.010526,0.00797,0.026945999999999998,-0.005174
512,0.6742060000000001,-0.532148,0.28768699999999997,0.5379510000000001,0.5073850000000001,-0.6731779999999999,0.006142,0.036756,0.00843,0.030331999999999998,0.025863999999999998,0.017294
513,0.675146,-0.531605,0.287548,0.538756,0.5069170000000001,-0.672887,0.02758,0.066479,0.01602,0.027406,0.019725,0.021596
514,0.676469,-0.5313899999999999,0.2876,0.539714,0.506732,-0.672258,0.004065999999999999,0.046363,0.0051990000000000005,0.013188,0.002606,0.011339
515,0.676467,-0.531488,0.287194,0.539682,0.506817,-0.672221,0.013548,-0.007888,-0.022438999999999997,0.012351,0.006611,0.017297999999999997
516,0.675593,-0.531593,0.2862,0.539061,0.506907,-0.67265,0.033785,-0.03027,-0.037224,0.015031999999999998,0.029592,0.02284
517,0.674268,-0.5313859999999999,0.28496900000000003,0.538234,0.506729,-0.673446,0.046539,-0.038845,-0.034988,0.020344,0.00705,0.020522
518,0.672921,-0.531147,0.28369099999999997,0.537403,0.506522,-0.674265,0.034871,-0.02389,-0.035088,0.025937,-0.010657999999999999,0.010172
519,0.67227,-0.5315409999999999,0.28278200000000003,0.5368390000000001,0.506862,-0.674458,-0.002349,-0.0056159999999999995,-0.043917000000000005,0.019939,-0.010372,0.004903
520,0.67175,-0.532308,0.282103,0.536246,0.507523,-0.674433,-0.008929000000000001,-0.016273,-0.047197,0.018899000000000003,-0.000123,0.0029850000000000002
521,0.671243,-0.532958,0.281328,0.5356989999999999,0.508083,-0.674446,-0.000371,-0.018403,-0.054612,0.024406,0.009373000000000001,-6.8e-05
522,0.67135,-0.533774,0.280575,0.535513,0.508786,-0.674064,-0.032089,0.043502,-0.057049,0.026345999999999998,0.013293000000000001,0.003379
523,0.6746310000000001,-0.535233,0.28075500000000003,0.537257,0.510041,-0.671723,-0.066581,0.23099699999999998,-0.028687999999999998,-0.003139,-0.008256,-0.003356
524,0.677109,-0.536679,0.281008,0.538457,0.511285,-0.669814,-0.027951,0.025335,-0.046314999999999995,-0.01914,-0.012551,0.003783
525,0.674532,-0.537157,0.279823,0.5365770000000001,0.511695,-0.671009,0.009809,-0.130281,-0.057602,-0.050401999999999995,-0.003822,0.007601999999999999
526,0.6716989999999999,-0.537579,0.278751,0.534539,0.512058,-0.672357,0.02264,-0.113324,-0.046852,-0.03573,0.006862999999999999,0.013483000000000002
527,0.668632,-0.536953,0.277165,0.532673,0.51152,-0.674244,0.090852,-0.113622,-0.03142,0.012706,0.016113,0.041493
528,0.666521,-0.5359689999999999,0.275611,0.53156,0.510674,-0.675763,0.047337,-0.035664,-0.013616,0.019008,0.009437000000000001,-0.021152
529,0.666559,-0.536064,0.276113,0.531556,0.510756,-0.675705,-0.040227,-0.006784,0.032737,-0.010956,0.023821000000000002,-0.023072
530,0.666471,-0.535902,0.277565,0.531547,0.510616,-0.675817,-0.016087,-0.06133400000000001,0.067159,-0.045845,0.023044,0.023778
531,0.665189,-0.534578,0.278673,0.531097,0.509478,-0.677029,0.0519,-0.11063900000000002,0.08372,-0.061554,0.020536000000000002,0.045406
532,0.662852,-0.532239,0.27884899999999996,0.530246,0.507464,-0.6792050000000001,0.10416600000000001,-0.127806,0.06915199999999999,-0.037920999999999996,0.021452000000000002,0.010214
533,0.659879,-0.5298729999999999,0.278125,0.528958,0.505424,-0.681725,0.11495999999999999,-0.12773299999999999,0.041454000000000005,0.017366999999999997,0.025246,-0.025001
534,0.6574270000000001,-0.527909,0.277283,0.52789,0.503728,-0.683805,0.091762,-0.07223500000000001,0.03588,0.058367999999999996,0.034052,-0.01755
535,0.65727,-0.526472,0.277194,0.528224,0.502486,-0.6844600000000001,0.047356,0.037562,0.055725,0.059422,0.033219,0.007901
536,0.659308,-0.525519,0.278096,0.5299119999999999,0.5016619999999999,-0.68376,-0.001504,0.097342,0.067057,0.040369999999999996,0.021043,0.018874000000000002
537,0.6618539999999999,-0.525161,0.27970700000000004,0.5317609999999999,0.5013529999999999,-0.68255,-0.037868,0.07510700000000001,0.064696,0.019646,0.009984999999999999,0.01745
538,0.6635909999999999,-0.5251439999999999,0.28129,0.5329510000000001,0.501337,-0.681633,-0.039055,0.030442,0.046585,0.016869,0.006490000000000001,0.016013999999999997
539,0.664321,-0.525243,0.282289,0.5334180000000001,0.501424,-0.681204,-0.021682,-0.0016940000000000002,0.019109,0.014022,0.010829,0.007055
540,0.664188,-0.525339,0.28249,0.5332979999999999,0.5015069999999999,-0.681237,-0.000302,-0.016584,-0.005292,0.018323,0.013615,0.002663
541,0.663669,-0.525354,0.282002,0.532939,0.50152,-0.681508,0.021136000000000002,-0.011264,-0.02224,0.020146,0.015158000000000001,0.001866
542,0.663068,-0.525235,0.281107,0.532567,0.501417,-0.681875,0.033991,-0.007018000000000001,-0.029633,0.015650999999999998,0.012881,0.005499
543,0.662347,-0.525051,0.280064,0.5321319999999999,0.501257,-0.682331,0.033972,-0.011279,-0.029627999999999998,0.012546,0.012308,0.006672
544,0.661697,-0.524927,0.279221,0.531726,0.50115,-0.682726,0.023265,-0.013397999999999998,-0.023291,0.008801,0.005762,0.010119
545,0.661374,-0.524937,0.278738,0.531502,0.501158,-0.682895,0.007272,-0.001662,-0.013803999999999999,0.009773,0.00995,0.011569
546,0.66137,-0.525054,0.278577,0.531464,0.50126,-0.68285,-0.003432,0.006691,-0.006215,0.008681999999999999,0.010642,0.012211
547,0.661621,-0.525258,0.278674,0.531573,0.501436,-0.682636,-0.010905,0.009895999999999999,-0.001999,0.00958,0.01486,0.009037
548,0.661922,-0.5254489999999999,0.278886,0.5317189999999999,0.501602,-0.6824,-0.013063,0.0077599999999999995,0.001194,0.009892,0.014771000000000001,0.010312
549,0.6621020000000001,-0.5255770000000001,0.279107,0.531803,0.5017119999999999,-0.682254,-0.008839,0.001341,0.004436,0.00845,0.012234,0.007953
550,0.662148,-0.52566,0.279302,0.531808,0.501784,-0.682197,-0.006723999999999999,-0.003989,0.003389,0.009604000000000001,0.012407,0.00727
551,0.662211,-0.5257310000000001,0.279458,0.531829,0.501846,-0.682135,-0.005643,-0.000797,0.003393,0.005311,0.010376,0.004645000000000001
552,0.662365,-0.5258189999999999,0.279633,0.531907,0.501921,-0.682018,-0.007756999999999999,0.003472,0.0033729999999999997,-0.000336,0.01027,0.005169
553,0.662485,-0.525942,0.27982399999999996,0.5319510000000001,0.502028,-0.681906,-0.008839,-0.000781,0.002302,0.001893,0.009812999999999999,0.0008449999999999999
554,0.662507,-0.526112,0.279923,0.531913,0.502175,-0.6818270000000001,-0.007137,-0.00277,-0.002535,0.002785,0.010444,0.004382
555,0.662483,-0.526254,0.27989400000000003,0.531853,0.502297,-0.681783,-0.0039030000000000002,0.001492,-0.005722,0.005912,0.010473999999999999,0.006185
556,0.6624899999999999,-0.526361,0.27978400000000003,0.531824,0.502391,-0.681737,-0.0006929999999999999,0.0036119999999999998,-0.005703,0.0022789999999999998,0.010549,0.005971
557,0.66247,-0.526466,0.27968699999999996,0.531779,0.5024810000000001,-0.681706,-0.0017739999999999998,0.00042,-0.005706,0.0024010000000000004,0.014762,0.005742000000000001
558,0.662409,-0.526528,0.279611,0.531718,0.5025350000000001,-0.681714,0.00034500000000000004,-0.0017230000000000001,-0.00462,0.0040939999999999995,0.012465,0.007245000000000001
559,0.6623399999999999,-0.526546,0.279537,0.5316649999999999,0.502551,-0.681743,0.0035259999999999996,-0.0028120000000000003,-0.001392,0.00404,0.013013,0.0073349999999999995
560,0.662258,-0.526509,0.279476,0.531621,0.502518,-0.681802,0.004593,-0.001754,-0.00031800000000000003,0.004954999999999999,0.011337,0.0053950000000000005
561,0.662203,-0.52644,0.27939400000000003,0.531605,0.502459,-0.681858,0.004603,0.001437,0.000746,0.007045999999999999,0.011839,0.0061070000000000004
562,0.662276,-0.5264300000000001,0.279396,0.531658,0.50245,-0.681823,0.001686,0.00227,0.002309,0.0076950000000000005,0.012076,0.009796
563,0.662292,-0.526399,0.279369,0.531678,0.502423,-0.6818270000000001,0.003825,0.001206,0.00018899999999999999,0.01068,0.011219,0.010837000000000001
564,0.662299,-0.5264,0.279382,0.531682,0.502424,-0.681823,-0.00044699999999999997,0.000156,0.00016,0.011225,0.010714,0.011382
565,0.662357,-0.526479,0.27942,0.531698,0.502492,-0.681761,-0.003638,0.000175,-0.001998,0.010828,0.012294,0.010237000000000001
566,0.662342,-0.5265270000000001,0.279424,0.531672,0.502534,-0.68175,-0.000452,-0.001971,-0.0009050000000000001,0.009023,0.012176000000000001,0.009555
567,0.662409,-0.526591,0.279472,0.531699,0.5025890000000001,-0.681689,-0.0047,0.004427,0.001193,0.007698999999999999,0.011907,0.010073
568,0.662633,-0.5267350000000001,0.279644,0.5318069999999999,0.502714,-0.681513,-0.011097,0.005515,0.001147,0.006142,0.014376,0.006967
569,0.6628,-0.5268729999999999,0.27980900000000003,0.531878,0.502833,-0.681369,-0.008981999999999999,0.001247,0.001168,0.006376,0.011082999999999999,0.006214
570,0.66282,-0.526976,0.279902,0.53186,0.502922,-0.681318,-0.004724,-0.0030210000000000002,-0.0009339999999999999,0.004838,0.012459,0.00633
571,0.662804,-0.527099,0.279955,0.53181,0.5030279999999999,-0.6812779999999999,-0.004945000000000001,-0.001766,-0.0010960000000000002,0.002949,0.011544,0.005359
572,0.66284,-0.527235,0.280035,0.5317930000000001,0.503146,-0.6812050000000001,-0.007069,0.00037200000000000004,-0.001114,0.004584,0.014234,0.007514
573,0.662883,-0.527309,0.280078,0.531799,0.50321,-0.6811520000000001,0.000394,0.000342,6e-06,0.006943,0.014322999999999999,0.005279
574,0.662845,-0.527285,0.280008,0.5317810000000001,0.503189,-0.681182,0.004671,0.001397,-0.001033,0.004978,0.013321000000000001,0.007125
575,0.662898,-0.527313,0.279986,0.531809,0.503213,-0.681143,-0.002787,0.003553,-0.001088,-0.000421,0.011588,0.003363
576,0.662921,-0.527381,0.279998,0.531803,0.503272,-0.681103,-0.000668,-0.000711,-0.002136,-0.000538,0.011362,0.007672
577,0.662828,-0.527385,0.279918,0.531738,0.503275,-0.6811510000000001,0.005714,-0.006056000000000001,-0.003153,0.003036,0.011389,0.00801
578,0.662617,-0.527356,0.279785,0.5316029999999999,0.50325,-0.681275,0.005714,-0.007117,-0.004220000000000001,0.006940000000000001,0.013581000000000001,0.002137
579,0.662454,-0.527363,0.27965500000000004,0.53149,0.503256,-0.681359,0.004411,-0.0037979999999999997,-0.0032530000000000002,0.009739,0.012231,0.004494
580,0.662406,-0.527385,0.279582,0.531451,0.503275,-0.681376,0.002292,0.000466,-0.002205,0.010175,0.013097,0.009791
581,0.662351,-0.527378,0.27948,0.531416,0.503269,-0.681408,0.004425999999999999,-0.000602,-0.003257,0.008623,0.011639,0.010479
582,0.662261,-0.527362,0.27937199999999995,0.531359,0.503256,-0.681462,0.0044210000000000005,-0.001667,-0.003256,0.008787,0.014062999999999999,0.008015000000000001
583,0.662181,-0.527346,0.27929499999999996,0.5313100000000001,0.503242,-0.681511,0.0033439999999999998,-0.0016719999999999999,-0.001127,0.0067150000000000005,0.012948,0.007439
584,0.662104,-0.527291,0.279242,0.531274,0.5031939999999999,-0.681574,0.005468,-0.0027489999999999997,-4.2e-05,0.005057,0.01475,0.007486
585,0.6620560000000001,-0.527213,0.27924299999999996,0.531265,0.503127,-0.6816300000000001,0.0033200000000000005,-0.002754,0.003147,0.005737,0.013153999999999999,0.007252
586,0.6620090000000001,-0.5271279999999999,0.279258,0.5312600000000001,0.503054,-0.681689,0.004378,-0.0038280000000000002,0.004224,0.003942,0.012068,0.008761
587,0.6619520000000001,-0.527022,0.279264,0.531254,0.502962,-0.681761,0.005325,-0.002676,0.004171,0.006893000000000001,0.012388,0.008772
588,0.661967,-0.526948,0.27929499999999996,0.531287,0.502898,-0.681783,0.002144,0.000535,0.003076,0.008203,0.011019,0.008519
589,0.662025,-0.526953,0.279344,0.531325,0.5029020000000001,-0.68175,-0.001047,0.001616,0.001984,0.005784,0.010617,0.008944
590,0.6621199999999999,-0.5269699999999999,0.279413,0.531384,0.5029170000000001,-0.681692,-0.001042,0.003742,0.00305,0.005984000000000001,0.013669,0.006215999999999999
591,0.662242,-0.5270060000000001,0.279507,0.531457,0.502948,-0.681613,-0.003181,0.002684,0.003036,0.006141,0.012998,0.007114
592,0.662334,-0.527044,0.27960100000000004,0.531507,0.502981,-0.681549,-0.003191,-0.0005070000000000001,0.001972,0.005358,0.012766,0.009323
593,0.662373,-0.5270779999999999,0.279672,0.531524,0.5030100000000001,-0.681515,-0.002124,-0.0005110000000000001,0.00198,0.006043,0.012309,0.007595
594,0.662396,-0.5271,0.27972199999999997,0.531532,0.503029,-0.6814939999999999,1e-05,-0.000519,0.001995,0.006661,0.01519,0.007743000000000001
595,0.662446,-0.527088,0.279789,0.53157,0.503019,-0.6814720000000001,-7.900000000000001e-05,0.000601,0.004109000000000001,0.006302,0.013384,0.0060420000000000005
596,0.6624770000000001,-0.527067,0.27984899999999996,0.5315979999999999,0.503001,-0.6814640000000001,0.000983,-0.000468,0.004118,0.0049770000000000005,0.011587,0.006842
597,0.662469,-0.52705,0.279873,0.5315979999999999,0.5029859999999999,-0.681476,-7.900000000000001e-05,-0.002582,0.000908,0.003314,0.013082,0.006488
598,0.6624,-0.527015,0.27984499999999995,0.531561,0.5029560000000001,-0.6815260000000001,0.004183,-0.004723,-0.000127,0.00268,0.012562,0.002876
599,0.662301,-0.526965,0.27979899999999996,0.53151,0.502913,-0.6815979999999999,0.00525,-0.0036659999999999996,0.000947,0.004211,0.011918999999999999,0.0042
600,0.662257,-0.526917,0.27974699999999997,0.5314939999999999,0.502871,-0.6816409999999999,0.004203,-0.000462,-0.000133,0.005691,0.012265999999999999,0.0063170000000000006
601,0.6622520000000001,-0.526836,0.279724,0.531516,0.502801,-0.681675,0.005265,0.000591,0.00201,0.0061270000000000005,0.014411000000000002,0.006459
602,0.662288,-0.52678,0.27973899999999996,0.531558,0.502753,-0.681678,0.003107,0.0016920000000000001,0.003052,0.004896,0.011041,0.007469
603,0.662333,-0.5266810000000001,0.279725,0.531619,0.502667,-0.6816939999999999,0.005251,0.002754,0.001998,0.002561,0.011371,0.008965
604,0.6623399999999999,-0.526613,0.279681,0.531645,0.5026079999999999,-0.681717,0.005241,-0.000437,0.000933,0.0025039999999999997,0.01056,0.00589
605,0.662261,-0.526576,0.279645,0.5316029999999999,0.502576,-0.681774,0.000959,-0.004679,-0.00015900000000000002,0.005873,0.012209999999999999,0.004452
606,0.6621560000000001,-0.52655,0.279616,0.531539,0.502553,-0.68184,0.004164999999999999,-0.003625,-0.000138,0.0075239999999999994,0.013819,0.00609
607,0.66213,-0.526546,0.279596,0.531522,0.50255,-0.681855,0.002045,0.0006389999999999999,0.00091,0.009158,0.012891999999999999,0.010347
608,0.6621819999999999,-0.5265380000000001,0.279592,0.53156,0.502544,-0.6818310000000001,0.0009880000000000002,0.0038350000000000003,0.001966,0.007090000000000001,0.013249,0.00875
609,0.6622640000000001,-0.526547,0.279631,0.531613,0.502551,-0.6817840000000001,-0.001146,0.002781,0.0008849999999999999,0.006,0.014523,0.007666
610,0.6622979999999999,-0.526571,0.27965300000000004,0.531629,0.502572,-0.681756,-8.9e-05,-0.000383,-0.000162,0.0056630000000000005,0.012107,0.007455
611,0.662271,-0.526569,0.279645,0.531611,0.50257,-0.681771,0.0009630000000000001,-0.002522,0.000917,0.00385,0.014931,0.009774
612,0.6622,-0.526543,0.279633,0.531571,0.502548,-0.681819,0.003083,-0.005725,0.000935,0.005951,0.012406,0.00671
613,0.662117,-0.526508,0.279659,0.531525,0.502517,-0.681878,0.002001,-0.005734,0.0041329999999999995,0.008499,0.011536,0.007882
614,0.6621020000000001,-0.526489,0.27972600000000003,0.531521,0.502501,-0.6818930000000001,-0.00010800000000000001,-0.0004,0.004111,0.007908,0.010408,0.006951000000000001
615,0.662188,-0.52649,0.279791,0.531579,0.502502,-0.681847,-0.0011560000000000001,0.002803,0.003031,0.003211,0.011170000000000001,0.007393
616,0.6622680000000001,-0.526551,0.27986700000000003,0.531615,0.502554,-0.68178,-0.004352,0.000697,-0.000193,0.002732,0.010995999999999999,0.007951999999999999
617,0.662304,-0.526654,0.279931,0.5316069999999999,0.502644,-0.68172,-0.004352,-0.000364,-0.00126,0.005379999999999999,0.012661,0.00545
618,0.6623439999999999,-0.5267109999999999,0.279971,0.531618,0.502692,-0.6816760000000001,-0.002248,0.001805,-0.000162,0.005873,0.014031,0.00617
619,0.662416,-0.526763,0.280027,0.531651,0.502738,-0.681617,-0.003315,0.0028699999999999997,0.000898,0.00639,0.012643000000000001,0.006812
620,0.662456,-0.5267930000000001,0.280037,0.531668,0.502764,-0.681584,-0.00011499999999999999,0.001797,-0.000147,0.0042049999999999995,0.013624,0.00591
621,0.6624399999999999,-0.526809,0.280024,0.531652,0.502777,-0.6815869999999999,0.0009429999999999999,-0.000337,-0.000136,0.005365,0.013672,0.0058969999999999995
622,0.6623939999999999,-0.526813,0.279981,0.53162,0.502781,-0.681609,0.0020050000000000003,-0.002467,-0.0011949999999999999,0.003811,0.015133,0.004211
623,0.662343,-0.5267850000000001,0.27994,0.531594,0.5027560000000001,-0.6816479999999999,0.004129,-0.003544,-0.00011,0.0020670000000000003,0.014303,0.004997
624,0.662284,-0.526738,0.27991,0.531568,0.5027159999999999,-0.6816979999999999,0.0052,-0.0014210000000000002,0.0009630000000000001,0.004168,0.01239,0.0035670000000000003
625,0.662241,-0.526687,0.279875,0.531555,0.502672,-0.68174,0.0041340000000000005,-0.001418,0.0009550000000000001,0.005295,0.013471,0.006431999999999999
626,0.6622170000000001,-0.526667,0.279857,0.5315439999999999,0.502655,-0.681761,0.002014,0.000725,-0.00013000000000000002,0.00526,0.014359,0.008726000000000001
627,0.6622170000000001,-0.5266569999999999,0.279864,0.531547,0.5026470000000001,-0.681765,0.0009119999999999999,-0.00031299999999999996,0.001989,0.007866,0.012551,0.005495
628,0.662257,-0.526647,0.279875,0.531578,0.502637,-0.6817479999999999,-0.000145,0.0018210000000000001,0.001979,0.005929,0.013734999999999999,0.008834999999999999
629,0.662341,-0.5266529999999999,0.279925,0.531633,0.5026430000000001,-0.681701,-0.001212,0.002886,0.003039,0.008086,0.014477,0.008498
630,0.662452,-0.526659,0.280019,0.5317069999999999,0.502648,-0.681639,-0.001212,0.003947,0.004106,0.007127,0.012611,0.007735
631,0.662576,-0.526655,0.280124,0.5317930000000001,0.502644,-0.681575,-0.00336,0.001819,0.005162,0.00373,0.013561000000000002,0.009303
632,0.662625,-0.526666,0.280271,0.5318229999999999,0.502654,-0.681545,-0.0023079999999999997,-0.002441,0.004106,0.006004,0.01407,0.007564
633,0.662666,-0.526704,0.280398,0.5318390000000001,0.502687,-0.681508,-0.00336,-0.000303,0.0030280000000000003,0.009909000000000001,0.014601,0.004338
634,0.6627770000000001,-0.526741,0.280494,0.531903,0.5027189999999999,-0.681434,-0.003379,0.003988,0.002996,0.007236,0.011701000000000001,0.009879
635,0.662953,-0.5268109999999999,0.28060999999999997,0.5320010000000001,0.50278,-0.6813130000000001,-0.0055119999999999995,0.005056000000000001,0.0040479999999999995,0.004788000000000001,0.011212999999999999,0.010338
636,0.663223,-0.526889,0.2808,0.532161,0.502847,-0.681138,-0.008703,0.00932,0.006157,0.005177,0.012168,0.0073560000000000006
637,0.66354,-0.5269560000000001,0.281012,0.532357,0.502904,-0.6809430000000001,-0.00656,0.010381999999999999,0.005102000000000001,0.0054399999999999995,0.012705,0.006443000000000001
638,0.66385,-0.526972,0.28124099999999996,0.532562,0.502918,-0.680772,-0.00445,0.008232,0.008324,0.004105,0.014523,0.009507
639,0.664058,-0.526943,0.281447,0.532713,0.502893,-0.680672,-0.003407,0.003961999999999999,0.009405,0.003831,0.015982,0.008919
640,0.664226,-0.5269,0.28167600000000004,0.532841,0.502857,-0.680599,-0.0034119999999999997,0.002897,0.009406999999999999,0.005657,0.014355000000000001,0.0061
641,0.664463,-0.5268649999999999,0.281912,0.533012,0.502826,-0.680487,-0.0033880000000000004,0.008223999999999999,0.0094,0.004128,0.010525,0.003409
642,0.66483,-0.526838,0.282192,0.53327,0.502803,-0.680303,-0.007645999999999999,0.010369,0.009368000000000001,0.005411,0.010395999999999999,0.006917
643,0.665198,-0.526938,0.282504,0.5334899999999999,0.502889,-0.680066,-0.011961,0.010415,0.008244,0.0052060000000000006,0.010264,0.006421
644,0.665549,-0.52705,0.28281,0.533694,0.5029859999999999,-0.6798350000000001,-0.011956,0.009358,0.006109000000000001,0.004514,0.012304,0.005106
645,0.665921,-0.527145,0.283118,0.533917,0.5030680000000001,-0.679599,-0.010889,0.010416,0.007183,0.0064730000000000005,0.012343000000000002,0.007983
646,0.666215,-0.527252,0.283393,0.534084,0.50316,-0.679399,-0.009837,0.006155,0.0061270000000000005,0.005391,0.014691999999999998,0.008119
647,0.66642,-0.527331,0.283611,0.534199,0.503229,-0.679258,-0.006645999999999999,0.001891,0.004019,0.002514,0.014303999999999999,0.006163
648,0.6663899999999999,-0.5273979999999999,0.2837,0.534158,0.503286,-0.679248,-0.002393,-0.006624,-0.001282,0.003059,0.01185,0.0059689999999999995
649,0.666095,-0.5274310000000001,0.283582,0.5339470000000001,0.503315,-0.679393,0.004004,-0.013016999999999999,-0.00657,0.000859,0.011273,0.004192
650,0.665666,-0.527412,0.283273,0.5336609999999999,0.5032989999999999,-0.679629,0.012537999999999999,-0.013,-0.011881999999999998,0.0,0.013928,0.000338
651,0.665208,-0.527366,0.282871,0.5333640000000001,0.503259,-0.679892,0.013609999999999999,-0.011937999999999999,-0.011876000000000001,0.0022649999999999997,0.013557,0.0026609999999999997
652,0.6647810000000001,-0.527269,0.282467,0.533104,0.503175,-0.680158,0.015744,-0.009824,-0.009727,0.002068,0.014952000000000002,0.0055049999999999995
653,0.664357,-0.5271600000000001,0.282085,0.532849,0.503081,-0.680427,0.016796000000000002,-0.011962,-0.008648999999999999,0.000217,0.015443,0.003074
654,0.664028,-0.526976,0.281763,0.532682,0.502922,-0.680675,0.017873,-0.006652,-0.005443,0.00133,0.015206,0.0032
655,0.663771,-0.52671,0.281391,0.532589,0.502692,-0.680917,0.021088,-0.0013460000000000002,-0.0032909999999999997,0.001484,0.013878999999999999,0.003885
656,0.663601,-0.52646,0.28110300000000005,0.532551,0.502476,-0.681107,0.015734,-0.002405,-0.000123,0.00584,0.010967,0.010346
657,0.663335,-0.5262819999999999,0.280848,0.5324260000000001,0.502322,-0.681319,0.012523999999999999,-0.008768999999999999,-0.00441,0.006561,0.010251999999999999,0.010192
658,0.663077,-0.526208,0.28060100000000004,0.532273,0.502258,-0.681485,0.010393000000000001,-0.003411,-0.004455,0.007049,0.012253,0.008497
659,0.662945,-0.526123,0.280422,0.532208,0.502184,-0.6815899999999999,0.006125,-0.001274,-0.0023510000000000002,0.00809,0.012586,0.007762000000000001
660,0.66289,-0.5261319999999999,0.280343,0.532168,0.502192,-0.681615,-0.00028,-0.002317,-0.0023940000000000003,0.008618,0.013753,0.007696
661,0.66287,-0.526225,0.28034899999999996,0.532126,0.502273,-0.681589,-0.003476,-0.00124,-0.002418,0.01069,0.01059,0.011118000000000001
662,0.662931,-0.52633,0.280417,0.532135,0.502364,-0.681515,-0.005596,0.0030239999999999998,-0.00137,0.011169,0.01404,0.010876
663,0.663099,-0.526456,0.280547,0.532211,0.502472,-0.681376,-0.009858,0.006226,0.000733,0.011505,0.012938999999999999,0.00944
664,0.663388,-0.526628,0.28076799999999996,0.532354,0.502621,-0.681154,-0.012001999999999999,0.008347,0.004988,0.007868,0.013340000000000001,0.008394
665,0.663673,-0.526783,0.281047,0.5325,0.5027550000000001,-0.68094,-0.012020999999999999,0.005147,0.00606,0.00528,0.015006,0.008364
666,0.6638390000000001,-0.52686,0.281271,0.532589,0.502822,-0.680822,-0.005638000000000001,0.000863,0.006065,0.005649,0.014847999999999998,0.0071010000000000005
667,0.6639010000000001,-0.526881,0.281431,0.532625,0.50284,-0.6807810000000001,-0.002456,-0.0034100000000000003,0.006092,0.0035840000000000004,0.014357,0.0033060000000000003
668,0.663928,-0.526831,0.281558,0.532659,0.502797,-0.680786,-0.00031299999999999996,-0.001286,0.006104999999999999,0.0032600000000000003,0.013377000000000002,0.004455
669,0.663979,-0.526792,0.281644,0.532706,0.502763,-0.680774,-0.000299,-0.001274,0.0029,0.001596,0.01158,0.00339
670,0.6639550000000001,-0.526806,0.281671,0.5326850000000001,0.502775,-0.680782,0.0018399999999999998,-0.003399,-0.00028700000000000004,-0.000916,0.012941999999999999,0.000743
671,0.663858,-0.526817,0.281599,0.532616,0.502785,-0.680828,0.003988,-0.002333,-0.0024100000000000002,-0.002648,0.013115,0.002621
672,0.663756,-0.526816,0.281494,0.532547,0.502784,-0.680883,0.002926,-0.002325,-0.0034850000000000003,0.001434,0.013588999999999999,0.0057280000000000005
673,0.663642,-0.526798,0.281389,0.532475,0.502768,-0.680952,0.00505,-0.0034020000000000005,-0.0024010000000000004,0.003582,0.014719,0.0047740000000000005
674,0.6635310000000001,-0.526751,0.281248,0.532414,0.502727,-0.681029,0.007203,-0.00020899999999999998,-0.0034579999999999997,0.003307,0.015643999999999998,0.005217
675,0.663421,-0.526666,0.281091,0.532365,0.502654,-0.681121,0.008317,-0.001358,-0.0014199999999999998,0.00302,0.013062,0.0046229999999999995
676,0.663315,-0.5266029999999999,0.280956,0.532312,0.502599,-0.681203,0.005107,-0.002416,-0.000373,0.003744,0.012553,0.008565000000000001
677,0.6632359999999999,-0.526576,0.280878,0.532267,0.502576,-0.681255,0.002978,-0.001343,-0.000389,0.006094,0.015078,0.008282
678,0.663221,-0.526568,0.280864,0.532259,0.5025689999999999,-0.681267,0.0008439999999999999,0.000786,0.00173,0.005232,0.013056,0.008217
679,0.663265,-0.526568,0.280905,0.532289,0.5025689999999999,-0.681243,-0.0012900000000000001,0.000793,0.001715,0.0076430000000000005,0.012858000000000001,0.008437
680,0.663373,-0.5265850000000001,0.280981,0.532357,0.502584,-0.681179,-0.0034189999999999997,0.003988,0.003833,0.004371,0.013789,0.007488
681,0.663486,-0.526595,0.28108099999999997,0.532431,0.5025930000000001,-0.6811149999999999,-0.003428,0.0018579999999999998,0.0038350000000000003,0.003915,0.014191999999999998,0.009423
682,0.663586,-0.526612,0.281206,0.5324939999999999,0.502607,-0.681055,-0.002284,0.000722,0.00374,0.005958,0.01372,0.008995999999999999
683,0.663661,-0.5266109999999999,0.28126599999999996,0.532546,0.502607,-0.6810149999999999,0.0009310000000000001,0.0017850000000000001,0.0016239999999999998,0.006028,0.014254,0.0075829999999999995
684,0.663726,-0.5266,0.281314,0.532593,0.5025970000000001,-0.6809850000000001,-0.001212,0.000723,0.002679,0.00418,0.012020999999999999,0.006836
685,0.663771,-0.526623,0.281408,0.532617,0.502617,-0.680952,-0.001227,-0.002473,0.0026829999999999996,0.0033640000000000002,0.015358000000000002,0.004759
686,0.663691,-0.526644,0.281416,0.532556,0.502635,-0.680986,0.000917,-0.004594,-0.001572,0.0035159999999999996,0.015903999999999998,0.005037
687,0.663593,-0.5266489999999999,0.28134699999999996,0.532488,0.5026390000000001,-0.681036,0.00307,-0.001401,-0.00263,0.005827000000000001,0.012879,0.004507
688,0.663597,-0.526647,0.281294,0.5324909999999999,0.502637,-0.6810350000000001,0.0009449999999999999,0.002859,-0.000513,0.004222,0.014697,0.0068709999999999995
689,0.663651,-0.526694,0.281303,0.532513,0.502678,-0.680987,-0.001188,0.002866,-0.000528,0.003009,0.015097999999999999,0.007937
690,0.6636920000000001,-0.526701,0.281341,0.532539,0.502684,-0.680963,0.000917,-0.00035,0.002695,0.0014880000000000002,0.014450999999999999,0.004327
691,0.663683,-0.5266430000000001,0.28132399999999996,0.53255,0.502634,-0.680991,0.005107,-0.000322,0.000576,0.002682,0.013326,0.006659
692,0.663597,-0.5265380000000001,0.281262,0.532524,0.502544,-0.681078,0.007217,-0.004595,0.0016640000000000001,0.003624,0.013112,0.0057090000000000005
693,0.6634680000000001,-0.526404,0.281197,0.532478,0.5024270000000001,-0.6812,0.007217,-0.0035340000000000002,0.002731,0.003944,0.013152,0.007067
694,0.663474,-0.526332,0.281196,0.532504,0.502365,-0.681225,0.001902,0.001807,0.0037549999999999997,0.003949,0.010925,0.004239
695,0.6635439999999999,-0.5263140000000001,0.281238,0.532558,0.5023489999999999,-0.681195,-0.00022200000000000003,0.002884,0.002671,0.003819,0.011307,0.007092
696,0.663642,-0.526349,0.28129899999999997,0.532614,0.502379,-0.681129,-0.0034130000000000002,0.003965,0.0015789999999999999,0.004282,0.012544,0.007377
697,0.663783,-0.526442,0.28137,0.5326810000000001,0.50246,-0.681017,-0.0044659999999999995,0.0050420000000000005,-0.000566,0.0032530000000000002,0.012143000000000001,0.008623
698,0.663855,-0.5265310000000001,0.281416,0.5327029999999999,0.502537,-0.6809430000000001,-0.00345,0.0008,-0.0016300000000000002,0.004117,0.016628,0.007770999999999999
699,0.663878,-0.52663,0.281413,0.532687,0.5026229999999999,-0.680892,-0.0034460000000000003,-0.00025699999999999996,-0.0037649999999999997,0.005841,0.015000999999999999,0.005111
700,0.663895,-0.526771,0.28139000000000003,0.532656,0.502744,-0.6808270000000001,-0.00556,0.00295,-0.004852,0.007109000000000001,0.014757,0.005565
701,0.663937,-0.526935,0.281356,0.532633,0.5028859999999999,-0.68074,-0.004497999999999999,0.0018809999999999999,-0.004843,0.004079,0.011136,0.004638000000000001
702,0.663918,-0.527112,0.28131999999999996,0.532565,0.503039,-0.6806800000000001,-0.006631999999999999,-0.000233,-0.006992,0.005902,0.012265,0.004838
703,0.663935,-0.527356,0.281327,0.532501,0.50325,-0.680574,-0.009828,0.0019039999999999999,-0.005949,0.005692,0.011551,0.00168
704,0.664082,-0.527518,0.281385,0.532551,0.50339,-0.680431,-0.003431,0.007183,0.000499,0.000164,0.018216,0.006664
705,0.6642710000000001,-0.527475,0.281472,0.5326930000000001,0.5033529999999999,-0.680348,0.002941,0.006074,0.005886,-0.0011070000000000001,0.017048,0.010105
706,0.664358,-0.527316,0.281563,0.532801,0.503216,-0.680365,0.0050100000000000006,-0.000305,0.006965000000000001,0.001348,0.014819999999999998,0.008215
707,0.664285,-0.527155,0.281577,0.532801,0.503077,-0.680467,0.006058,-0.006692,0.004843999999999999,0.002797,0.011114,0.008287000000000001
708,0.664057,-0.527053,0.281486,0.532678,0.502988,-0.680629,0.007134000000000001,-0.00987,-0.00048600000000000005,0.007895000000000001,0.009509,0.007869
709,0.663896,-0.527068,0.281379,0.532563,0.5030020000000001,-0.680709,0.000776,-0.003443,-0.003743,0.010588,0.008824,0.008147
710,0.663876,-0.527193,0.281303,0.532511,0.503109,-0.68067,-0.003462,0.001902,-0.004848,0.008336,0.012012,0.007788
711,0.663875,-0.5273439999999999,0.28126,0.532464,0.5032399999999999,-0.68061,-0.003472,-0.001289,-0.005912,0.0069489999999999994,0.01356,0.008934000000000001
712,0.663771,-0.527464,0.28119,0.532356,0.503343,-0.680619,-0.0013570000000000001,-0.006619,-0.006958,0.005593,0.01454,0.005554
713,0.663587,-0.527537,0.281062,0.532208,0.5034069999999999,-0.680687,0.0029100000000000003,-0.005573,-0.005862,0.004611,0.013424,0.003975
714,0.663428,-0.527543,0.28091900000000003,0.532098,0.503412,-0.68077,0.005000999999999999,-0.00451,-0.0037240000000000003,0.001975,0.016867,0.004485
715,0.663295,-0.527508,0.280841,0.532018,0.503382,-0.680854,0.003915,-0.004523,0.000541,0.002054,0.018393,0.0019140000000000001
716,0.663201,-0.52746,0.280852,0.5319689999999999,0.50334,-0.680923,0.000715,-0.0034509999999999996,0.001586,0.00392,0.017044999999999998,0.003036
717,0.663213,-0.527425,0.280886,0.531988,0.50331,-0.6809310000000001,-0.000328,0.00294,0.002639,0.004023,0.014985,0.0064010000000000004
718,0.663295,-0.527453,0.280963,0.532036,0.5033340000000001,-0.680876,-0.002462,0.004009,0.003691,0.003914,0.013022999999999998,0.005385
719,0.663445,-0.527467,0.281074,0.532133,0.503346,-0.680791,-0.001395,0.005065999999999999,0.004765,0.000261,0.014934000000000001,0.004872
720,0.6635850000000001,-0.5273939999999999,0.281169,0.532251,0.503283,-0.6807449999999999,0.00392,0.002908,0.006940999999999999,0.001486,0.013349000000000001,0.007497
721,0.663659,-0.52727,0.281237,0.5323399999999999,0.5031760000000001,-0.680755,0.0039109999999999995,0.000778,0.006944,-0.000724,0.012844999999999999,0.005431
722,0.663632,-0.527134,0.281263,0.5323640000000001,0.503059,-0.680823,0.006039,-0.0024170000000000003,0.0048259999999999996,-0.000366,0.017159,0.00405
723,0.663597,-0.526978,0.28125,0.532388,0.5029239999999999,-0.6809029999999999,0.007087,-0.00028700000000000004,0.005884,0.000357,0.009831999999999999,0.005809
724,0.663622,-0.526838,0.281267,0.5324479999999999,0.5028020000000001,-0.680946,0.0039,0.001859,0.00479,0.002754,0.011724,0.00782
725,0.6637,-0.5267970000000001,0.281303,0.532514,0.502768,-0.68092,0.0017809999999999998,0.00294,0.0026379999999999997,0.005389,0.013315,0.005582
726,0.663792,-0.52678,0.28136500000000003,0.532582,0.502753,-0.680878,-0.00035299999999999996,0.002948,0.002623,0.004085,0.013193,0.009598
727,0.663862,-0.526737,0.28145,0.532643,0.5027159999999999,-0.680858,0.001743,-0.0023989999999999997,0.005849,0.00854,0.012665000000000001,0.008891
728,0.663894,-0.526673,0.281567,0.5326850000000001,0.50266,-0.680867,0.000681,-0.002391,0.0047729999999999995,0.008284999999999999,0.013285,0.0061530000000000005
729,0.663938,-0.5266489999999999,0.281643,0.532722,0.5026390000000001,-0.6808529999999999,0.000714,0.001883,0.0015630000000000002,0.011361,0.015747,0.0076040000000000005
730,0.6639970000000001,-0.526559,0.281602,0.53279,0.5025609999999999,-0.6808569999999999,0.007102,0.005053,0.002649,0.008668,0.017733000000000002,0.011087999999999999
731,0.664037,-0.5264270000000001,0.281582,0.5328579999999999,0.502447,-0.680888,0.006000999999999999,-0.0013390000000000001,0.003718,0.004556,0.018563999999999997,0.008402
732,0.663882,-0.526291,0.281571,0.532795,0.50233,-0.681024,0.005958,-0.010927,0.00373,0.002971,0.012639,0.007775
733,0.663724,-0.5262100000000001,0.281569,0.532712,0.502259,-0.68114,0.003848,-0.0077150000000000005,0.001574,0.0039700000000000004,0.012664,0.005023
734,0.663639,-0.5261640000000001,0.281522,0.532669,0.502219,-0.681204,0.00281,-0.002381,0.000492,0.001343,0.012825999999999999,0.000814
735,0.663652,-0.5261170000000001,0.281496,0.532692,0.5021800000000001,-0.681215,0.0028239999999999997,0.001876,0.0015550000000000002,0.001625,0.012240000000000001,0.004945000000000001
736,0.6637069999999999,-0.5261239999999999,0.281523,0.5327270000000001,0.502186,-0.681183,-0.000381,0.000822,0.001534,0.000384,0.014279,0.003296
737,0.663763,-0.52615,0.281571,0.532758,0.502208,-0.681143,-0.001443,0.001891,0.001525,0.001559,0.015263999999999998,0.003195
738,0.663902,-0.526176,0.28167800000000004,0.532844,0.5022310000000001,-0.681059,-0.003558,0.004005,0.003646,0.001046,0.014538999999999998,0.004011
739,0.6640189999999999,-0.526191,0.281783,0.5329189999999999,0.502243,-0.68099,-0.002491,0.002941,0.002587,0.001215,0.014403999999999998,0.004416
740,0.664081,-0.526203,0.28183800000000003,0.532957,0.502254,-0.6809529999999999,0.001772,0.000799,0.001551,0.0016190000000000002,0.015233000000000002,0.0043170000000000005
741,0.664081,-0.5261399999999999,0.281841,0.532978,0.502199,-0.680978,0.0038909999999999995,-0.001343,0.002637,0.002133,0.014952000000000002,0.005425
742,0.664063,-0.526053,0.28183800000000003,0.532992,0.502124,-0.681022,0.003896,0.0018440000000000002,0.004769,0.00604,0.017422999999999998,0.004935
743,0.664246,-0.526008,0.281898,0.53313,0.502085,-0.680942,0.000715,0.006117,0.0047409999999999996,0.003582,0.018286,0.008442
744,0.664388,-0.525931,0.282034,0.533251,0.502019,-0.680897,-0.0014529999999999999,0.00185,0.007936,0.002607,0.015911,0.006168
745,0.664423,-0.525943,0.282157,0.533271,0.502029,-0.680873,-0.0014529999999999999,-0.0034549999999999997,0.002602,0.002846,0.012055,0.001094
746,0.664425,-0.52596,0.282166,0.533267,0.5020439999999999,-0.6808649999999999,0.001782,0.000825,-0.000559,0.010556,0.010652,0.010256999999999999
747,0.664517,-0.525944,0.28213499999999997,0.533335,0.502029,-0.680823,-0.000328,0.00722,0.00048600000000000005,0.010046,0.010986,0.007666
748,0.664587,-0.526008,0.282174,0.533363,0.502085,-0.68076,-0.004614,0.001913,-0.000605,0.007897,0.012853,0.010869
749,0.66467,-0.526146,0.282238,0.533377,0.502204,-0.680661,-0.0046,0.002987,-0.0027429999999999998,0.005442,0.015954,0.008923
750,0.664678,-0.526223,0.282219,0.533358,0.502271,-0.6806260000000001,-0.000342,-0.00022,-0.0037770000000000004,0.004743,0.016681,0.007209999999999999
751,0.6645810000000001,-0.526216,0.28213499999999997,0.5332939999999999,0.502265,-0.6806810000000001,0.0039020000000000005,-0.0045,-0.0026739999999999997,0.001374,0.015802,0.007891
752,0.664442,-0.526189,0.282028,0.533208,0.5022409999999999,-0.680766,0.004964,-0.004508,-0.001598,0.0035810000000000004,0.014086000000000001,0.005640999999999999
753,0.664351,-0.526129,0.281945,0.5331640000000001,0.5021899999999999,-0.680838,0.004968,-0.002382,-0.000533,0.00364,0.014015000000000001,0.004218
754,0.664358,-0.526101,0.281933,0.5331779999999999,0.502165,-0.680845,0.000691,0.002963,0.002624,0.002604,0.013016999999999999,0.002348
755,0.664442,-0.526133,0.281974,0.533225,0.502193,-0.6807880000000001,-0.0025,0.004044,0.001532,0.000405,0.013615,0.003176
756,0.664532,-0.526208,0.282032,0.533263,0.502258,-0.68071,-0.0035670000000000003,0.002987,0.000458,0.000321,0.012299,0.003998
757,0.664558,-0.5263,0.282052,0.5332520000000001,0.502337,-0.68066,-0.001433,0.000857,-0.001661,0.003201,0.015241,0.003735
758,0.664551,-0.526365,0.282034,0.533227,0.502394,-0.680638,-0.001433,-0.000204,-0.002728,0.0021579999999999998,0.015184999999999999,0.005345
759,0.664565,-0.5263869999999999,0.281997,0.53323,0.502413,-0.6806220000000001,0.0007059999999999999,0.0019149999999999998,-0.0016469999999999998,0.003192,0.0137,0.005069
760,0.664616,-0.526433,0.281994,0.533251,0.5024529999999999,-0.6805760000000001,-0.000361,0.00298,-0.000588,0.002699,0.014256,0.005161
761,0.664678,-0.526453,0.282008,0.533287,0.5024689999999999,-0.6805359999999999,0.000701,0.001911,-0.000579,0.0031969999999999998,0.013781,0.006235
762,0.664728,-0.526442,0.282034,0.533324,0.50246,-0.680513,-0.00041799999999999997,0.001913,0.001492,0.002137,0.014065000000000001,0.007188
763,0.6647460000000001,-0.526446,0.282018,0.533335,0.502464,-0.680502,0.001716,0.0008439999999999999,0.00044,0.004293,0.014625999999999998,0.006063000000000001
764,0.66473,-0.526461,0.281991,0.53332,0.5024770000000001,-0.680504,0.000644,-0.0012779999999999998,-0.000633,0.0033009999999999997,0.013224000000000001,0.007056999999999999
765,0.66474,-0.526488,0.28197300000000003,0.5333180000000001,0.5025,-0.680488,0.000664,0.002983,-0.000638,0.006233,0.014834,0.007148000000000001
766,0.664808,-0.526539,0.281984,0.5333479999999999,0.502544,-0.6804319999999999,-0.002537,0.004055,0.00040599999999999995,0.004158,0.014103000000000001,0.007901
767,0.664883,-0.526575,0.281998,0.533388,0.502575,-0.6803779999999999,-0.00147,0.00299,-0.000653,0.004575,0.014163999999999998,0.006763
768,0.664936,-0.526636,0.282011,0.533406,0.502628,-0.680325,-0.001475,0.001925,-0.0006519999999999999,0.0011099999999999999,0.015393,0.007611
769,0.664948,-0.526667,0.282009,0.533404,0.502655,-0.680307,-0.00041799999999999997,-0.00020899999999999998,-0.000642,0.002943,0.012466,0.006723000000000001
770,0.6649470000000001,-0.5267029999999999,0.282003,0.533392,0.502686,-0.680293,-0.000413,-0.000205,-0.0017100000000000001,0.005167000000000001,0.011764,0.003703
771,0.664991,-0.5267689999999999,0.281991,0.533401,0.502743,-0.680244,-0.001518,0.003006,-0.0017879999999999999,0.001129,0.014453,0.006293
772,0.665063,-0.526822,0.282001,0.533434,0.502789,-0.680184,-0.000465,0.001928,0.000357,-0.001147,0.014408,0.007348
773,0.6650689999999999,-0.526877,0.282038,0.533421,0.502836,-0.6801590000000001,-0.003675,-0.0012519999999999999,-0.000729,0.001232,0.013550999999999999,0.003676
774,0.665031,-0.526962,0.282044,0.533369,0.502909,-0.680146,-0.0036659999999999996,-0.0012439999999999999,-0.002866,0.006808,0.013616,0.003083
775,0.665047,-0.527045,0.281996,0.533354,0.5029819999999999,-0.680104,0.000621,0.003002,-0.002841,0.004137,0.014886000000000002,0.008306000000000001
776,0.665114,-0.527118,0.281958,0.533377,0.5030439999999999,-0.68004,-0.00044100000000000004,0.004071,-0.00285,0.005045,0.013281999999999999,0.009584
777,0.665144,-0.5272060000000001,0.281951,0.53337,0.50312,-0.6799890000000001,-0.0036609999999999998,0.0019440000000000002,-0.000733,0.002198,0.015922,0.009167
778,0.665155,-0.527241,0.281974,0.533366,0.503151,-0.6799689999999999,0.0005549999999999999,-0.000229,0.000294,0.000585,0.013786000000000001,0.005804999999999999
779,0.665138,-0.527239,0.282015,0.533356,0.503149,-0.679979,0.001598,-0.003437,0.002441,0.00047300000000000006,0.014918,0.004625
780,0.6651,-0.527189,0.28203,0.533345,0.503106,-0.6800189999999999,0.0026739999999999997,-0.0023710000000000003,0.001379,0.0025440000000000003,0.013846,0.002407
781,0.665099,-0.5271239999999999,0.282042,0.533365,0.50305,-0.680045,0.0016170000000000002,0.0018850000000000002,0.003503,0.004599,0.014803,0.00373
782,0.6652359999999999,-0.527113,0.282118,0.533461,0.503041,-0.679976,-0.0026260000000000003,0.007227,0.0034659999999999995,0.0039380000000000005,0.014003,0.0070030000000000005
783,0.665383,-0.527121,0.2822,0.533559,0.503047,-0.679895,-0.0015689999999999999,0.004031,0.0024100000000000002,0.002589,0.014211000000000001,0.006876
784,0.6653680000000001,-0.527158,0.282215,0.533537,0.5030789999999999,-0.6798890000000001,-0.000526,-0.003421,0.00029,0.0039840000000000006,0.014133000000000001,0.008242
785,0.665263,-0.527196,0.282173,0.533454,0.503112,-0.679929,0.00055,-0.004477,-0.0029059999999999997,0.0019320000000000001,0.015381,0.008268000000000001
786,0.665195,-0.5272,0.282147,0.533407,0.503116,-0.679964,0.0026550000000000002,-0.001312,0.000264,0.0024519999999999998,0.014554,0.007859999999999999
787,0.665177,-0.5271979999999999,0.28214,0.533395,0.5031140000000001,-0.679974,0.000517,-0.00237,0.000251,0.0017920000000000002,0.015624,0.0045899999999999995
788,0.665165,-0.52718,0.282167,0.533392,0.503099,-0.679988,0.000521,-0.000244,0.0013160000000000001,0.001123,0.01335,0.003261
789,0.665142,-0.527162,0.28215300000000004,0.533382,0.503083,-0.6800069999999999,0.00266,-0.00024700000000000004,0.000263,0.0024,0.015394999999999999,0.0032649999999999997
790,0.6651590000000001,-0.5271060000000001,0.282158,0.533411,0.503034,-0.68002,0.001583,0.0008089999999999999,0.0034590000000000003,0.00324,0.014497999999999999,0.0040409999999999995
791,0.665181,-0.527097,0.282186,0.533429,0.503026,-0.680013,0.000512,-0.0013130000000000001,0.002386,0.001468,0.014322999999999999,0.006291
792,0.6651779999999999,-0.527075,0.28221199999999996,0.533434,0.503007,-0.6800229999999999,0.001588,-0.000248,0.001324,0.000746,0.012526,0.005905
793,0.665164,-0.527075,0.282236,0.533424,0.503008,-0.68003,-0.000545,-0.001301,0.000242,0.00013000000000000002,0.013456999999999998,0.003684
794,0.665155,-0.527096,0.282222,0.533411,0.503026,-0.680027,-0.000545,0.000811,-0.000849,0.0038350000000000003,0.015224000000000001,0.007053
795,0.665188,-0.527099,0.28221399999999996,0.533433,0.5030279999999999,-0.680008,-0.000554,0.001864,0.0023539999999999998,0.003752,0.014458000000000002,0.0036009999999999996
796,0.665231,-0.527076,0.282223,0.533469,0.503009,-0.679994,0.000517,0.001864,0.0012929999999999999,0.002252,0.016706,0.004762
797,0.665254,-0.527049,0.28224499999999997,0.533493,0.502985,-0.679992,0.0026420000000000003,-0.00027400000000000005,0.0013109999999999999,0.001037,0.016089,0.002945
798,0.665246,-0.526994,0.28227199999999997,0.533505,0.502937,-0.680018,0.001565,-0.00134,0.002373,0.0017579999999999998,0.013663999999999999,0.005854
799,0.665257,-0.526934,0.282287,0.5335310000000001,0.5028859999999999,-0.680036,0.003704,-0.00028199999999999997,0.0023870000000000002,0.001946,0.015181,0.007444
800,0.6653100000000001,-0.526866,0.282331,0.5335880000000001,0.502827,-0.6800350000000001,0.002627,0.0007740000000000001,0.005582,0.002133,0.015224000000000001,0.006252000000000001
801,0.665299,-0.526818,0.282384,0.533596,0.502785,-0.68006,-0.0005780000000000001,-0.002402,0.003428,0.0036049999999999997,0.013999000000000001,0.001684
802,0.665299,-0.526805,0.282443,0.5335989999999999,0.5027739999999999,-0.6800649999999999,-0.000566,-0.0013599999999999999,0.00128,0.006409000000000001,0.013980000000000001,0.0069689999999999995
803,0.6653600000000001,-0.526805,0.282456,0.5336420000000001,0.5027739999999999,-0.680032,0.001596,0.003963,0.00022,0.0037579999999999996,0.013918999999999999,0.009561
