,attitude.roll,attitude.pitch,attitude.yaw,gravity.x,gravity.y,gravity.z,rotationRate.x,rotationRate.y,rotationRate.z,userAcceleration.x,userAcceleration.y,userAcceleration.z
0,0.6543180000000001,-1.1237,-1.1116489999999999,0.263129,0.9017069999999999,-0.343044,0.910841,0.45133599999999996,0.796991,-0.006034,0.054470000000000005,0.10165
1,0.6640729999999999,-1.1013819999999999,-1.110277,0.27879899999999996,0.891834,-0.356224,0.845266,0.404329,0.621405,-0.004309,-0.10595999999999998,0.062339
2,0.663673,-1.081066,-1.120091,0.28976,0.88246,-0.37053400000000003,0.997576,0.405585,0.441938,-0.0077469999999999995,-0.040769,0.022862999999999998
3,0.6651189999999999,-1.058267,-1.125364,0.302636,0.8715069999999999,-0.385848,0.968565,0.242326,0.800867,-0.071649,0.037734,-0.017121
4,0.673396,-1.031929,-1.120873,0.320027,0.85829,-0.40113899999999997,0.96886,0.204501,0.9355129999999999,0.034877,-0.06825099999999999,0.016571000000000002
5,0.680621,-1.004285,-1.1157709999999998,0.33772199999999997,0.8437790000000001,-0.41710200000000003,0.990554,0.100875,0.9902770000000001,-0.034378,0.019288999999999997,-0.014325
6,0.687822,-0.9769260000000001,-1.109333,0.355244,0.828781,-0.43233900000000003,0.922151,0.08933200000000001,1.005837,0.004604,0.048157,-0.025730000000000003
7,0.6961930000000001,-0.950307,-1.100882,0.37287,0.8135939999999999,-0.446122,0.8469959999999999,0.046727,1.068394,0.005029,0.103001,-0.066024
8,0.704883,-0.923161,-1.089348,0.390903,0.797513,-0.45952299999999996,0.789321,-0.096255,1.177133,0.037183,0.135669,-0.11841900000000001
9,0.711396,-0.896109,-1.0742,0.407827,0.780903,-0.47313999999999995,0.696008,-0.357269,1.263342,0.047053,0.139675,-0.11784800000000001
10,0.714905,-0.8687530000000001,-1.056476,0.423334,0.763525,-0.487659,0.6645449999999999,-0.6142810000000001,1.36066,0.012518000000000001,0.172755,-0.12727
11,0.714126,-0.839772,-1.036525,0.43726800000000005,0.744491,-0.504504,0.659431,-0.897136,1.5041280000000001,-0.0015220000000000001,0.155869,-0.11648299999999999
12,0.7119439999999999,-0.808841,-1.013832,0.450999,0.723487,-0.522646,0.673519,-0.934017,1.65703,0.044438,0.164864,-0.061246
13,0.711695,-0.777447,-0.989925,0.465479,0.701462,-0.539698,0.6177229999999999,-0.813261,1.610552,0.240378,0.021896000000000002,-0.113103
14,0.7114659999999999,-0.748538,-0.970096,0.4784,0.6805680000000001,-0.554936,0.653555,-0.643177,1.403349,0.244088,-0.000987,-0.127452
15,0.706713,-0.7211989999999999,-0.956757,0.48766000000000004,0.660285,-0.571144,0.750071,-0.754475,1.180907,0.233593,-0.134879,-0.11646199999999998
16,0.696221,-0.6952619999999999,-0.9513030000000001,0.49246,0.640587,-0.589174,0.915449,-0.616267,0.841123,0.277239,-0.127571,-0.074751
17,0.684381,-0.672948,-0.953738,0.49436499999999994,0.623294,-0.605889,0.904329,-0.483162,0.598388,0.047047000000000005,0.048337,-0.06665700000000001
18,0.673782,-0.651733,-0.95678,0.49605600000000005,0.6065649999999999,-0.621291,0.905904,-0.411627,0.556647,-0.046318,-0.006712,-0.10020599999999999
19,0.663358,-0.631494,-0.960443,0.497012,0.5903520000000001,-0.635971,0.863618,-0.40370500000000004,0.477293,-0.0889,-0.086964,-0.103256
20,0.653795,-0.613243,-0.964097,0.497378,0.575523,-0.649141,0.771275,-0.342482,0.431704,-0.095583,-0.11333399999999999,-0.103163
21,0.646597,-0.596554,-0.9657610000000001,0.498411,0.5617949999999999,-0.660279,0.687046,-0.295456,0.46630699999999997,-0.074476,-0.148221,-0.088515
22,0.640777,-0.578896,-0.966505,0.500413,0.5471,-0.671017,0.7424029999999999,-0.26074400000000003,0.528606,-0.062928,-0.070186,-0.11883900000000001
23,0.63639,-0.561643,-0.9657540000000001,0.503,0.5325770000000001,-0.680697,0.604821,-0.243248,0.5351,-0.07824099999999999,-0.050308,-0.12692
24,0.6318050000000001,-0.54764,-0.9634590000000001,0.504229,0.520674,-0.688947,0.422378,-0.30840100000000004,0.469816,-0.083742,0.042970999999999995,-0.112765
25,0.626498,-0.536992,-0.959434,0.503787,0.511554,-0.6960649999999999,0.252579,-0.371618,0.44200500000000004,-0.06907999999999999,0.083631,-0.07180299999999999
26,0.620293,-0.52791,-0.9551059999999999,0.502138,0.503729,-0.702929,0.238734,-0.402317,0.40562800000000004,-0.076616,0.11118499999999999,-0.031383999999999995
27,0.613324,-0.520515,-0.950227,0.49935799999999997,0.497327,-0.709438,0.137166,-0.45202200000000003,0.402846,-0.060851,0.041094,0.001629
28,0.60553,-0.513652,-0.945361,0.495745,0.491361,-0.7160989999999999,0.14672000000000002,-0.476501,0.38905700000000004,-0.031313,0.061694000000000006,0.002231
29,0.5976670000000001,-0.508121,-0.9392520000000001,0.49162100000000003,0.48653599999999997,-0.72221,0.043105000000000004,-0.512329,0.380902,-0.00366,0.078695,0.026683999999999996
30,0.588878,-0.504337,-0.934845,0.486274,0.483227,-0.728029,0.141841,-0.521701,0.241666,0.008995999999999999,0.126774,0.03232
31,0.577091,-0.49787700000000007,-0.936002,0.47935200000000006,0.47756099999999996,-0.7363109999999999,0.437721,-0.5372680000000001,0.148681,-0.023755000000000002,0.094613,0.073591
32,0.56647,-0.489094,-0.9386200000000001,0.473738,0.469826,-0.744871,0.506,-0.500372,0.186499,-0.08521799999999999,-0.011589,0.043637999999999996
33,0.5575640000000001,-0.478716,-0.940528,0.46963999999999995,0.46063999999999994,-0.753158,0.533194,-0.34933800000000004,0.221746,-0.078877,-0.053475,0.026412
34,0.551655,-0.467735,-0.9436379999999999,0.467804,0.450866,-0.760182,0.605412,-0.235404,0.171898,-0.041337,-0.062072,-0.01408
35,0.546929,-0.458765,-0.946526,0.466291,0.442841,-0.765808,0.4714,-0.160298,0.153775,0.007859999999999999,-0.013581000000000001,-0.035462
36,0.540117,-0.451143,-0.9494739999999999,0.462786,0.43599499999999997,-0.771839,0.377531,-0.244837,0.064565,0.043287,-0.008062,-0.017575
37,0.5340739999999999,-0.444693,-0.9529540000000001,0.459535,0.43018100000000004,-0.777026,0.360772,-0.20206,0.037687,0.032042,0.016916999999999998,-0.006711
38,0.529072,-0.43823100000000004,-0.9561790000000001,0.45703699999999997,0.424338,-0.781698,0.324648,-0.15617799999999998,0.050195,0.0050149999999999995,0.002068,0.007176999999999999
39,0.52508,-0.431936,-0.9578979999999999,0.455242,0.41863,-0.785812,0.293268,-0.195719,0.108779,-0.012981999999999999,-0.01122,-0.024643
40,0.519896,-0.42558500000000005,-0.9581959999999999,0.452474,0.412854,-0.790453,0.284411,-0.2225,0.153616,0.016581,-0.03497,-0.023222
41,0.5171479999999999,-0.420021,-0.957908,0.45142899999999997,0.407779,-0.793679,0.229361,-0.14765699999999998,0.13284,-0.0041329999999999995,-0.039249,-0.033607
42,0.514209,-0.415417,-0.957542,0.450013,0.403572,-0.796628,0.184472,-0.174098,0.12401400000000001,-0.019731,-0.039329,-0.020877
43,0.510626,-0.411131,-0.957509,0.44799700000000003,0.399646,-0.799737,0.219716,-0.19328499999999998,0.096511,-0.018522999999999998,0.003918,-0.020347
44,0.506051,-0.405914,-0.9581719999999999,0.44533900000000004,0.394859,-0.8035909999999999,0.245196,-0.213644,0.10419300000000001,-0.02206,0.005272,-0.010801999999999999
45,0.502526,-0.399726,-0.958886,0.443672,0.389166,-0.8072819999999999,0.274318,-0.132827,0.114975,-0.037605,-0.001486,-0.016693
46,0.49976400000000004,-0.39429699999999995,-0.9591620000000001,0.442446,0.38415900000000003,-0.810346,0.204967,-0.14744300000000002,0.100622,-0.005389,-0.018452,-0.023928
47,0.49728,-0.390344,-0.959685,0.44115299999999996,0.38050700000000004,-0.812771,0.180851,-0.075895,0.07793,-0.0040950000000000005,-0.017973,-0.025883
48,0.49546999999999997,-0.387413,-0.959725,0.440209,0.377794,-0.814546,0.132766,-0.093833,0.076549,-0.0037770000000000004,0.028181,0.000429
49,0.49214399999999997,-0.384131,-0.9604459999999999,0.43808100000000005,0.374754,-0.817094,0.18819,-0.136514,0.046012,-0.014299000000000001,0.06942899999999999,0.016465
50,0.48914399999999997,-0.380159,-0.9616899999999999,0.436324,0.371068,-0.8197120000000001,0.183033,-0.094958,0.048059,-0.019286,0.057291999999999996,-0.0072840000000000005
51,0.48793400000000003,-0.377227,-0.9620879999999999,0.43583999999999995,0.368344,-0.821197,0.096977,-0.011578,0.050556,-0.023288,0.0172,0.004654
52,0.488175,-0.376182,-0.962068,0.43621800000000005,0.367372,-0.8214309999999999,0.051332,0.001519,0.011764,-0.022797,0.030958999999999997,-0.005122
53,0.487568,-0.37595500000000004,-0.9630690000000001,0.435758,0.367161,-0.8217700000000001,0.059996,-0.017494,-0.036220999999999996,-0.02812,0.034542,-0.023262
54,0.48649899999999996,-0.376279,-0.9645889999999999,0.434824,0.367463,-0.8221299999999999,0.036674,-0.010914,-0.063098,-0.01948,0.010147,-0.011839
55,0.48594,-0.37658400000000003,-0.966203,0.434312,0.367746,-0.822274,0.032598,0.039138,-0.055713,-0.02147,-0.038613999999999996,-0.030342
56,0.486674,-0.376794,-0.9673450000000001,0.43488000000000004,0.36794099999999996,-0.821887,0.010284999999999999,0.071128,-0.044159,-0.016499,-0.054037,-0.024412
57,0.48727,-0.377779,-0.9684290000000001,0.4352,0.368857,-0.821306,-0.019496,0.07874,-0.057196000000000004,0.005000999999999999,-0.058539,-0.025952999999999997
58,0.487907,-0.378793,-0.969557,0.435546,0.3698,-0.8206979999999999,-0.030188,0.063901,-0.06686399999999999,-0.007614,-0.053546,-0.037029
59,0.48833699999999997,-0.380203,-0.9705469999999999,0.435655,0.371109,-0.82005,-0.057955999999999994,0.05124,-0.073451,-0.012742,-0.045075,-0.031269
60,0.488675,-0.381278,-0.9713930000000001,0.43574399999999996,0.372107,-0.81955,-0.06961,0.07575599999999999,-0.06715499999999999,-0.027129,-0.064322,-0.00296
61,0.49034399999999995,-0.382429,-0.9720219999999999,0.436909,0.373176,-0.818443,-0.071585,0.119406,-0.058678999999999995,-0.023213,-0.060003999999999995,-0.00454
62,0.4932,-0.384404,-0.9718040000000001,0.438895,0.37500700000000003,-0.816541,-0.121627,0.166354,-0.034519,-0.00788,-0.058173,0.015653
63,0.49676099999999995,-0.386444,-0.970369,0.441435,0.376897,-0.814299,-0.190194,0.175886,0.038697,0.007006,0.002238,0.014006000000000001
64,0.501897,-0.389623,-0.966274,0.445033,0.37984,-0.810966,-0.27265900000000004,0.198173,0.131028,-0.008662000000000001,0.015622,0.040382
65,0.50844,-0.39398,-0.959733,0.44951899999999995,0.383866,-0.806584,-0.41876599999999997,0.252842,0.17266600000000001,0.001332,-0.007539,0.007054
66,0.517676,-0.399529,-0.9496610000000001,0.455888,0.38898499999999997,-0.800534,-0.559956,0.29439,0.29447199999999996,-0.045091,-0.016762,-0.042453
67,0.5278689999999999,-0.40734000000000004,-0.936959,0.46248,0.39616799999999996,-0.793197,-0.669251,0.225383,0.33011599999999997,-0.094453,0.016338,-0.05859400000000001
68,0.537994,-0.41553599999999996,-0.922018,0.468808,0.40368000000000004,-0.785659,-0.720853,0.229456,0.42161800000000005,-0.049115,-0.019052,-0.067902
69,0.549838,-0.42365200000000003,-0.904551,0.47635200000000005,0.411092,-0.7772319999999999,-0.797945,0.24433200000000002,0.497972,-0.040027,-0.013616,-0.078359
70,0.561821,-0.43091999999999997,-0.885453,0.48402700000000004,0.417707,-0.7689189999999999,-0.79188,0.25992600000000005,0.5887939999999999,-0.053363,0.060091,-0.07345700000000001
71,0.5743119999999999,-0.437659,-0.864886,0.49205299999999996,0.423821,-0.760433,-0.8251299999999999,0.25245700000000004,0.620618,-0.07727300000000001,0.055854999999999995,-0.070149
72,0.588251,-0.444825,-0.8430989999999999,0.5009060000000001,0.4303,-0.750955,-0.861614,0.23542,0.650295,-0.07521699999999999,0.031447,-0.054007000000000006
73,0.600993,-0.451412,-0.8205969999999999,0.5088199999999999,0.436237,-0.742157,-0.845975,0.170319,0.666511,0.008178,0.014493,0.005829
74,0.613171,-0.457243,-0.7977529999999999,0.5163479999999999,0.44147600000000004,-0.733813,-0.8368479999999999,0.09241100000000001,0.694448,0.062708,-0.019861,0.023089
75,0.624367,-0.463046,-0.774463,0.5230239999999999,0.446675,-0.725896,-0.8509760000000001,0.024325,0.683754,0.06900099999999999,-0.008976999999999999,0.025243
76,0.634533,-0.469077,-0.7509,0.5287689999999999,0.452063,-0.718359,-0.8811030000000001,-0.041579000000000005,0.674014,0.066827,0.049279,0.0029809999999999997
77,0.6436029999999999,-0.47593199999999997,-0.727162,0.533391,0.458167,-0.7110380000000001,-0.915233,-0.10405,0.608695,0.06483,0.048272,0.009317
78,0.65136,-0.483684,-0.704915,0.536722,0.46504399999999996,-0.704033,-0.890508,-0.140044,0.530933,0.061637,0.0446,0.041664
79,0.657818,-0.49096599999999996,-0.684234,0.539172,0.47147799999999995,-0.697854,-0.808388,-0.177492,0.500576,0.056591999999999996,0.02193,0.060601
80,0.662266,-0.49736400000000003,-0.666208,0.540405,0.47711000000000003,-0.693056,-0.696056,-0.24338800000000002,0.36578099999999997,0.07191499999999999,-0.018111000000000002,0.048616
81,0.6641239999999999,-0.503758,-0.652069,0.5398,0.48272,-0.689634,-0.5984149999999999,-0.23898899999999998,0.246817,0.05182899999999999,0.019584,0.025465
82,0.66605,-0.510783,-0.640999,0.5390189999999999,0.48886,-0.68591,-0.555696,-0.129924,0.108107,0.056638,0.014924000000000002,-0.003254
83,0.67043,-0.518358,-0.631293,0.539701,0.495454,-0.6806220000000001,-0.556178,0.025506,0.13354100000000002,0.07019299999999999,0.069655,0.028293000000000002
84,0.673716,-0.525297,-0.6233029999999999,0.5397770000000001,0.50147,-0.676141,-0.41400699999999996,-0.105246,-0.058646000000000004,0.191104,-0.039526,0.089898
85,0.669021,-0.532724,-0.625693,0.5342720000000001,0.507882,-0.6757270000000001,-0.100064,-0.24837199999999998,-0.501718,0.169296,-0.023750999999999998,0.10576600000000001
86,0.656391,-0.539354,-0.637177,0.523629,0.5135810000000001,-0.679739,0.10686400000000001,-0.377515,-0.619748,0.00022,0.077941,0.075735
87,0.642633,-0.544081,-0.6509,0.512767,0.517632,-0.6849270000000001,0.2212,-0.349105,-0.630737,-0.028499,0.074684,0.07764299999999999
88,0.628908,-0.5471199999999999,-0.666788,0.502391,0.52023,-0.690625,0.325146,-0.320411,-0.703755,-0.009913,0.060275999999999996,0.078793
89,0.613444,-0.549532,-0.6853,0.49092700000000006,0.522289,-0.697283,0.40306,-0.380069,-0.770432,0.016306,0.080388,0.044344
90,0.593152,-0.551161,-0.7068479999999999,0.47620200000000007,0.523676,-0.706394,0.521065,-0.531516,-0.828166,0.033686,0.15570599999999998,0.028095
91,0.5704899999999999,-0.551246,-0.730531,0.460049,0.523749,-0.716966,0.6012810000000001,-0.500848,-0.841532,0.025059,0.199899,0.028000999999999998
92,0.548215,-0.548981,-0.75507,0.444583,0.521818,-0.728046,0.7270800000000001,-0.486515,-0.80542,0.004255,0.23123400000000002,0.031299
93,0.5281020000000001,-0.543169,-0.778788,0.431371,0.5168520000000001,-0.7394470000000001,0.815601,-0.354224,-0.665034,-0.011602,0.22373400000000002,0.044699
94,0.5112300000000001,-0.536617,-0.802171,0.420483,0.511231,-0.7495569999999999,0.760939,-0.212193,-0.705122,0.049777999999999996,0.14773499999999998,-0.004761
95,0.49601999999999996,-0.532137,-0.8244030000000001,0.41011899999999996,0.507376,-0.757872,0.6022489999999999,-0.203967,-0.759652,0.076331,0.084024,0.000197
96,0.48179099999999997,-0.531212,-0.846033,0.399512,0.506579,-0.764046,0.402159,-0.140241,-0.804929,0.064554,0.012739,0.039695999999999995
97,0.46891099999999997,-0.531564,-0.8640530000000001,0.389558,0.5068819999999999,-0.7689699999999999,0.313775,-0.160895,-0.6249899999999999,-0.070939,-0.064743,0.06560099999999999
98,0.459316,-0.533226,-0.880041,0.381787,0.508314,-0.7719159999999999,0.21608400000000003,-0.063592,-0.631138,-0.121549,-0.080991,0.057880999999999995
99,0.451875,-0.534712,-0.893619,0.375703,0.5095930000000001,-0.774055,0.16781600000000002,0.002128,-0.507646,-0.258302,-0.08779400000000001,0.058799000000000004
100,0.447421,-0.536027,-0.9044209999999999,0.371961,0.510724,-0.775116,0.134705,0.08390700000000001,-0.41718299999999997,-0.18128699999999998,-0.09271,0.027587999999999998
101,0.445676,-0.536484,-0.913234,0.370508,0.511117,-0.7755529999999999,0.150578,0.16755499999999998,-0.303948,-0.14699700000000002,-0.10855899999999999,0.00677
102,0.44584700000000005,-0.535312,-0.9186110000000001,0.370898,0.510109,-0.776029,0.159082,0.116678,-0.10940699999999999,-0.106143,-0.139931,-0.071535
103,0.445367,-0.532273,-0.920848,0.371192,0.5074930000000001,-0.7776029999999999,0.18776600000000002,-0.016047,0.023423,-0.112174,-0.128663,-0.086426
104,0.44402200000000003,-0.528338,-0.9212319999999999,0.371001,0.504099,-0.779898,0.17763199999999998,-0.069537,0.08858200000000001,-0.13355899999999998,-0.08993,-0.083474
105,0.443737,-0.524963,-0.919969,0.371506,0.501181,-0.781537,0.092283,-0.025737,0.131727,-0.184479,-0.017905,-0.039783
106,0.445625,-0.522883,-0.917691,0.37343000000000004,0.49938,-0.781772,0.046873000000000005,0.08518099999999999,0.138745,-0.178438,0.005777,-0.002514
107,0.450733,-0.519671,-0.9151540000000001,0.37811500000000003,0.496595,-0.781295,0.111436,0.280672,0.212653,-0.164873,0.009448,0.005065
108,0.458086,-0.514232,-0.9104969999999999,0.385038,0.49186599999999997,-0.7809050000000001,0.13636500000000001,0.28634699999999996,0.369849,0.033602,0.02472,0.012304
109,0.46532299999999993,-0.507347,-0.905018,0.39219,0.48586,-0.7811060000000001,0.23847600000000002,0.21993600000000002,0.372782,0.13964000000000001,0.087748,-0.005775
110,0.47001899999999996,-0.499433,-0.9010370000000001,0.397582,0.47892799999999996,-0.782659,0.27871,0.08583500000000001,0.30700500000000003,0.132722,0.09614500000000001,0.019338
111,0.472261,-0.492278,-0.898552,0.400885,0.472635,-0.7847970000000001,0.259746,0.058529,0.225723,0.037652,0.045706000000000004,0.113014
112,0.474944,-0.485755,-0.897133,0.404391,0.466876,-0.7864439999999999,0.271913,0.134203,0.20541500000000001,-0.027605,0.04707,0.097143
113,0.47907299999999997,-0.47851400000000005,-0.895559,0.409182,0.46046000000000004,-0.787747,0.298657,0.187224,0.24292199999999997,-0.024447,0.053913,0.06094
114,0.483706,-0.470558,-0.893452,0.41451800000000005,0.453384,-0.789061,0.33983800000000003,0.129405,0.280671,0.06216699999999999,0.040848,-0.01996
115,0.486058,-0.461359,-0.891589,0.418303,0.445165,-0.791738,0.41834,0.021572,0.272812,0.13531600000000002,0.073237,-0.088145
116,0.48491599999999996,-0.452329,-0.891071,0.419256,0.437062,-0.7957390000000001,0.397662,-0.11240599999999999,0.229042,0.091792,0.039135,-0.016486
117,0.48317200000000005,-0.44355500000000003,-0.890289,0.419633,0.42915299999999995,-0.799834,0.375263,-0.090042,0.250221,0.073943,0.021973,-0.0018620000000000002
118,0.48307,-0.43489399999999995,-0.888705,0.42126099999999994,0.42131499999999994,-0.803139,0.363671,-0.028335000000000003,0.279971,0.034351,0.0033380000000000003,0.01725
119,0.484177,-0.42630100000000004,-0.8857079999999999,0.42382,0.41350600000000004,-0.805846,0.308873,-0.046527,0.347978,0.003258,-0.014153,0.021651
120,0.48543500000000006,-0.41766899999999996,-0.881235,0.426483,0.405631,-0.8084399999999999,0.288502,-0.028508999999999996,0.388405,0.026657,-0.008459999999999999,0.029692000000000003
121,0.487328,-0.409425,-0.876358,0.42956400000000006,0.398082,-0.810558,0.252243,-0.023063999999999998,0.390281,0.009431,-0.030787000000000002,0.031338
122,0.48981,-0.401897,-0.8711059999999999,0.432972,0.391165,-0.8121109999999999,0.20992800000000003,0.045308,0.378148,0.014202000000000001,-0.022497,0.011681
123,0.49370200000000003,-0.39577399999999996,-0.8669450000000001,0.43725600000000003,0.385523,-0.812513,0.188468,0.147022,0.268909,0.007049,0.013356999999999999,-0.034654000000000004
124,0.497443,-0.389987,-0.8647739999999999,0.44135,0.380176,-0.812819,0.22600900000000002,0.131155,0.20830300000000002,-0.040776,0.034359,-0.0365
125,0.500397,-0.38456,-0.8629700000000001,0.444733,0.375151,-0.8133100000000001,0.193821,0.085482,0.202795,-0.045823,0.01735,-0.0455
126,0.502484,-0.379183,-0.861276,0.44739399999999996,0.370161,-0.814136,0.19178800000000001,0.096189,0.19101700000000002,-0.013022,0.013521,-0.046505
127,0.505761,-0.37546999999999997,-0.859524,0.45072299999999993,0.366709,-0.813863,0.098341,0.141467,0.137963,0.007773,0.013906,-0.068172
128,0.507821,-0.37299899999999997,-0.858714,0.452837,0.36440900000000004,-0.8137220000000001,0.08551,0.104351,0.10694300000000001,-0.017122,0.053849,-0.024809
129,0.510273,-0.371194,-0.8569260000000001,0.45515100000000003,0.362729,-0.813182,0.022224,0.039547000000000006,0.11726600000000001,-0.044904,0.057116999999999994,-0.046575
130,0.510976,-0.369653,-0.8558620000000001,0.455996,0.361292,-0.813348,0.06730599999999999,0.03645,0.053492,-0.015216,0.049033,-0.032981
131,0.510997,-0.36757,-0.855872,0.45638100000000004,0.359349,-0.8139930000000001,0.100216,0.002238,0.055902,-0.030080000000000003,0.042919,-0.0037560000000000002
132,0.511017,-0.36527800000000005,-0.8558469999999999,0.456798,0.357209,-0.8147,0.092805,0.023535,0.06436900000000001,-0.019252000000000002,-0.006287,0.016162
133,0.5122260000000001,-0.363506,-0.855068,0.458092,0.355554,-0.8146979999999999,0.048102,0.07153,0.088564,-0.012825,-0.011696999999999999,0.025177
134,0.513783,-0.362823,-0.8532120000000001,0.45947899999999997,0.35491500000000004,-0.814195,-0.011886,0.035448,0.106351,-0.01583,0.0051920000000000004,0.008256
135,0.514459,-0.362188,-0.851794,0.46013999999999994,0.354321,-0.81408,0.013709,0.007764,0.080928,-0.005413,0.034152999999999996,0.003457
136,0.513872,-0.361001,-0.8511489999999999,0.45986899999999997,0.35320999999999997,-0.814716,0.05851699999999999,-0.03165,0.041767,0.010667,0.027725,-0.001873
137,0.5135350000000001,-0.359419,-0.8516360000000001,0.45986800000000005,0.35173000000000004,-0.8153560000000001,0.072726,0.020593,0.018299,0.0035259999999999996,0.0077670000000000005,-0.014844
138,0.514509,-0.358616,-0.851756,0.460801,0.350978,-0.815154,0.034487000000000004,0.060134,0.020117,0.004806,-0.014476,-0.001939
139,0.516161,-0.35828699999999997,-0.8515530000000001,0.462204,0.350671,-0.814492,0.002639,0.095399,0.01985,0.008026,-0.013543000000000001,0.004052
140,0.518282,-0.359008,-0.850684,0.463805,0.35134499999999996,-0.81329,-0.09249299999999999,0.067983,0.032039,-0.008971,0.055667999999999995,0.002102
141,0.519868,-0.359978,-0.849841,0.464925,0.352254,-0.812257,-0.022959999999999998,0.075334,-0.001668,-0.004674,-0.006993000000000001,-0.007156
142,0.5213720000000001,-0.360025,-0.849978,0.466138,0.352298,-0.811542,0.00053,0.069964,-0.011111,-0.01431,0.024319999999999998,-0.008236
143,0.522336,-0.359894,-0.850319,0.46694300000000005,0.352175,-0.811132,0.016485,0.056072000000000004,-0.014186,-0.016107,0.01814,0.005117
144,0.522914,-0.360363,-0.850035,0.467329,0.352614,-0.810719,-0.037036,0.044430000000000004,0.013228,-0.007261,0.032472,0.0045060000000000005
145,0.524112,-0.36037800000000003,-0.8502569999999999,0.46829799999999994,0.352628,-0.810154,0.014356,0.06245,-0.008868000000000001,-0.011678000000000001,0.04465,5e-05
146,0.525004,-0.36033699999999996,-0.850736,0.469027,0.35259,-0.8097489999999999,0.019728,0.059283,-0.020577,-0.011262999999999999,0.038524,-0.003636
147,0.525748,-0.360047,-0.851514,0.469681,0.35231799999999996,-0.809488,0.04319,0.059191999999999995,-0.018277,0.0032649999999999997,0.035255,-0.0031190000000000002
148,0.526399,-0.359698,-0.8523780000000001,0.47026899999999994,0.351992,-0.809288,0.05062,0.05276599999999999,-0.01608,-0.002954,0.024031,0.008614
149,0.527051,-0.358844,-0.853358,0.470948,0.351192,-0.809241,0.07942,0.053722000000000006,-0.013744,-0.002411,0.029164,0.014152000000000001
150,0.5267310000000001,-0.35733400000000004,-0.8550040000000001,0.470955,0.34977800000000003,-0.8098489999999999,0.143202,-0.016733,-0.032436,-0.008812,0.029204,0.006732999999999999
151,0.524736,-0.35523299999999997,-0.857208,0.469706,0.34780900000000003,-0.8114210000000001,0.149315,-0.075366,-0.026976999999999998,0.023199,0.038528,-0.010081
152,0.5223,-0.352693,-0.859079,0.468167,0.345427,-0.813326,0.162892,-0.109626,0.00414,0.011814,0.033968,-0.008863
153,0.519984,-0.350035,-0.860294,0.466736,0.342931,-0.8152020000000001,0.13842100000000002,-0.068102,0.030622000000000003,-0.018006,0.028819,0.026872000000000004
154,0.51917,-0.34805,-0.860941,0.466409,0.341066,-0.816171,0.10774600000000001,-0.011526,0.028198,-0.004999,0.071898,0.0008939999999999999
155,0.519546,-0.346235,-0.861368,0.46702299999999997,0.339359,-0.8165319999999999,0.09614500000000001,0.021525,0.03128,-0.0066040000000000005,0.066845,-0.016491
156,0.519257,-0.344402,-0.8619620000000001,0.467095,0.337634,-0.8172050000000001,0.121553,-0.026483999999999997,0.027246,-0.004982,-0.01961,-0.015390000000000001
157,0.518189,-0.342482,-0.86288,0.466542,0.335826,-0.8182649999999999,0.11301800000000001,-0.040247000000000005,0.013316999999999999,0.0027719999999999997,-0.006007,0.007352
158,0.5173270000000001,-0.340814,-0.8636440000000001,0.466113,0.334254,-0.819153,0.08959500000000001,-0.022085,0.020608,0.002408,0.005345,0.014908000000000001
159,0.517146,-0.339886,-0.8637469999999999,0.46611800000000003,0.33338,-0.819507,0.039553,0.018497,0.038366000000000004,-0.015083000000000001,0.012856999999999999,0.012652
160,0.517941,-0.338956,-0.863382,0.466923,0.332502,-0.8194049999999999,0.029019,0.044118,0.033986,-0.016956,0.022493,-0.002357
161,0.518588,-0.33823600000000004,-0.8634440000000001,0.467571,0.331823,-0.81931,0.031243,0.031459,0.0009029999999999999,-0.013347999999999999,0.025827,-0.008616
162,0.519238,-0.337893,-0.863883,0.46816,0.3315,-0.819105,0.027067,0.041104,-0.00982,-0.006901999999999999,0.029661,-0.009554
163,0.520126,-0.33753299999999997,-0.8643870000000001,0.468947,0.33116,-0.818792,0.031426,0.061329999999999996,-0.009816,-0.005293,0.025453,-0.006723999999999999
164,0.521211,-0.337142,-0.8649979999999999,0.46989899999999996,0.330791,-0.818395,0.041069999999999995,0.070883,-0.009761,-0.002843,0.025562,-0.00042199999999999996
165,0.5219699999999999,-0.336493,-0.865766,0.470627,0.330179,-0.818224,0.060173000000000004,0.054812,-0.0031969999999999998,-0.006072999999999999,0.025885000000000002,0.013537
166,0.522524,-0.335392,-0.866458,0.471261,0.329139,-0.818278,0.072851,0.039802,0.009729,-0.009576000000000001,0.026818,0.008326
167,0.523153,-0.334011,-0.867182,0.47200299999999995,0.327835,-0.8183739999999999,0.086802,0.051497,0.0034020000000000005,-0.010058,0.029404000000000003,0.004898
168,0.523687,-0.332602,-0.868367,0.47267,0.326504,-0.818522,0.100709,0.039812,-0.016782,-0.008452,0.023121,-0.007803
169,0.523317,-0.331208,-0.8701049999999999,0.47259399999999996,0.32518600000000003,-0.81909,0.119798,-0.0070420000000000005,-0.037953,0.003129,0.00329,0.004103
170,0.5225609999999999,-0.329475,-0.872184,0.47225600000000006,0.323546,-0.819934,0.132672,0.007831,-0.03895,0.001759,0.010087,0.006762000000000001
171,0.522467,-0.327918,-0.8744129999999999,0.472429,0.32207199999999997,-0.820414,0.12646300000000002,0.045159,-0.044383,-0.039171,0.00265,-0.019049
172,0.522593,-0.32664699999999997,-0.8762479999999999,0.472736,0.320869,-0.820708,0.090103,0.038843,-0.031810000000000005,0.020931,-0.0019760000000000003,-0.008439
173,0.523274,-0.325121,-0.877559,0.47353900000000004,0.319423,-0.820809,0.10282899999999999,0.052523,-0.0007599999999999999,0.028612000000000002,0.000599,-0.015356999999999999
174,0.524366,-0.32342,-0.877925,0.474707,0.317811,-0.8207610000000001,0.070588,0.054549,0.053491,0.011286,0.024641999999999997,-0.009836
175,0.525334,-0.321794,-0.8768229999999999,0.475759,0.316269,-0.8207469999999999,0.044667,0.020405,0.089674,-0.010579999999999999,0.021774,-0.004189
176,0.5262180000000001,-0.320148,-0.875343,0.476746,0.314707,-0.820775,0.02851,-0.0008960000000000001,0.102407,-0.019226,0.004339,-0.001475
177,0.526019,-0.318502,-0.873866,0.476842,0.313144,-0.8213159999999999,0.04845,-0.073409,0.103707,-0.0071920000000000005,-0.0061530000000000005,0.014157
178,0.5242319999999999,-0.31640100000000004,-0.8731459999999999,0.47570100000000004,0.311148,-0.822735,0.07513099999999999,-0.097897,0.07721900000000001,-0.005334,0.052239999999999995,-0.001544
179,0.5228229999999999,-0.315311,-0.872474,0.474711,0.310112,-0.8236979999999999,0.025286000000000003,-0.06350499999999999,0.04478,-0.013651,0.047356,0.013487
180,0.52217,-0.314758,-0.872401,0.474258,0.309587,-0.8241569999999999,0.034267,0.000522,0.00951,-0.009704,0.051664999999999996,0.004622
181,0.522523,-0.314215,-0.873006,0.47463299999999997,0.30906999999999996,-0.824134,0.032449,0.040067,-0.021532,-0.012322,0.073986,0.011314
182,0.523095,-0.314837,-0.873589,0.475008,0.309662,-0.8236959999999999,-0.017684000000000002,0.031763,-0.032554,-0.028368,0.092224,0.029965
183,0.522896,-0.316038,-0.8735930000000001,0.47465799999999997,0.31080399999999997,-0.823468,-0.060679,-0.026728,-0.01996,-0.021716,0.085421,0.019025
184,0.522594,-0.31697,-0.8732,0.47426499999999994,0.311688,-0.8233600000000001,-0.028731,-0.017342,0.0026829999999999996,-0.028738999999999997,0.07435900000000001,0.003475
185,0.521898,-0.317363,-0.8729870000000001,0.47363,0.312062,-0.823584,0.009470000000000001,-0.051612,0.014745,-0.006222999999999999,0.028804000000000003,-0.036432
186,0.520199,-0.31701,-0.8730620000000001,0.472285,0.311727,-0.824483,0.041289,-0.090086,0.018221,0.037908,-0.047216,-0.014597999999999998
187,0.519299,-0.31657399999999997,-0.8731190000000001,0.47161099999999995,0.311312,-0.825025,0.026712,-0.0112,0.01695,0.045861,-0.06322,-0.008471
188,0.519393,-0.316474,-0.8730870000000001,0.471703,0.311217,-0.825008,0.023603,0.005868,0.013701,-0.002984,-0.005263,0.018108000000000003
189,0.51885,-0.316675,-0.873215,0.471224,0.311408,-0.82521,-0.016933,-0.018389,-0.012188,-0.001422,0.010888,0.028120999999999997
190,0.519117,-0.317273,-0.8731559999999999,0.47135200000000005,0.311977,-0.8249219999999999,-0.034821,0.034946,-0.014518000000000001,-0.0020829999999999998,0.016453,0.026307
191,0.5205609999999999,-0.317668,-0.872919,0.47248199999999996,0.312352,-0.824134,-0.037916000000000005,0.058392999999999994,-0.014569,-0.002068,0.029307999999999997,-0.008905
192,0.521323,-0.318035,-0.8729520000000001,0.47305200000000003,0.312701,-0.823674,-0.005068,0.009271,-0.013209,-0.011214,0.027494,-0.021495
193,0.520717,-0.31819200000000003,-0.873449,0.47252799999999995,0.31285,-0.823918,0.015073,-0.033355,-0.0269,-0.010721,0.014634000000000001,-0.014888
194,0.520456,-0.318348,-0.8738450000000001,0.472289,0.312998,-0.8239989999999999,0.002395,0.011363,-0.009955,0.000825,0.011373000000000001,-0.008962999999999999
195,0.521,-0.318686,-0.873534,0.472685,0.313319,-0.82365,-0.030739999999999996,0.019911,0.012236,0.0074329999999999995,0.009603,-0.011479000000000001
196,0.521021,-0.319369,-0.8729629999999999,0.472596,0.313967,-0.8234540000000001,-0.039419,-0.016261,0.007948,0.002426,0.012891,-0.0033280000000000002
197,0.520456,-0.32016999999999995,-0.872583,0.472005,0.314728,-0.8235030000000001,-0.045863,-0.038557999999999995,-0.004887,0.002239,0.020523,0.010606
198,0.519999,-0.32101599999999997,-0.872505,0.471496,0.315531,-0.8234870000000001,-0.031836,-0.019368,-0.020837,-0.008179,0.022894,-0.00032
199,0.519385,-0.321842,-0.8726200000000001,0.470861,0.316314,-0.82355,-0.03297,-0.042766000000000005,-0.02936,0.006037,0.026382999999999997,0.000155
200,0.518432,-0.322552,-0.8731620000000001,0.46996400000000005,0.316988,-0.8238030000000001,-0.002978,-0.035337,-0.048388,-0.005136,0.023496,-0.004536
201,0.5174350000000001,-0.323171,-0.874022,0.469046,0.317575,-0.8241,-0.006188,-0.037456,-0.048408,-0.006613,0.034918,-0.000668
202,0.516482,-0.323864,-0.874724,0.46815100000000004,0.318232,-0.824355,-0.00835,-0.032169,-0.036679,-0.018139,0.035588999999999996,-0.001328
203,0.515359,-0.324556,-0.8751559999999999,0.467117,0.318888,-0.8246889999999999,-0.013688999999999998,-0.031094,-0.034582,0.01468,0.036596,0.025967
204,0.514576,-0.325048,-0.875921,0.466393,0.319355,-0.824917,0.0023469999999999997,-0.030059,-0.04088,-0.004052,0.02702,0.0017519999999999999
205,0.513686,-0.325544,-0.876791,0.465581,0.319824,-0.8251940000000001,0.006634,-0.030057,-0.045123,0.001963,0.028549,0.003676
206,0.512642,-0.325943,-0.877577,0.464657,0.320202,-0.825569,0.0033369999999999997,-0.040741,-0.03445,0.007984,0.02808,0.003013
207,0.511789,-0.326321,-0.878092,0.46389300000000006,0.32056100000000004,-0.825859,0.007547,-0.037624,-0.018402,0.00044699999999999997,0.02708,0.003136
208,0.511029,-0.32635,-0.878283,0.463261,0.320588,-0.826203,0.005361,-0.029175,0.0018679999999999999,-0.001667,0.019806,0.000535
209,0.51059,-0.32621300000000003,-0.878159,0.46291899999999997,0.32045799999999997,-0.8264450000000001,0.009604000000000001,-0.026029000000000004,0.010440000000000001,-0.0010199999999999999,0.022178,0.001784
210,0.5102479999999999,-0.32603200000000004,-0.878085,0.46266499999999994,0.320287,-0.8266540000000001,0.013905,-0.018587,0.010459999999999999,-0.0035590000000000005,0.021342,-0.001883
211,0.510084,-0.32589,-0.877908,0.462552,0.320152,-0.8267700000000001,0.004303,-0.013248,0.015728,-0.012463,0.019295,-0.0048189999999999995
212,0.510053,-0.32592899999999997,-0.8774700000000001,0.46252,0.320189,-0.826773,-0.014881,-0.0036149999999999997,0.020922,-0.0153,0.017671,0.00292
213,0.510161,-0.326074,-0.876994,0.46258699999999997,0.320326,-0.8266819999999999,-0.009507999999999999,-0.00041600000000000003,0.015615,-0.009889,0.014711000000000002,0.003974
214,0.510292,-0.32608200000000004,-0.876748,0.46269399999999994,0.320334,-0.8266190000000001,-0.000925,0.0038399999999999997,0.00926,-0.007997,0.016412,0.001088
215,0.510408,-0.325917,-0.876726,0.462815,0.320178,-0.8266120000000001,0.016202,0.013381,0.006163,-0.003953,0.016904,0.004606
216,0.5107010000000001,-0.325565,-0.8769530000000001,0.46311199999999997,0.319844,-0.826575,0.022685,0.021919,-0.0034170000000000003,-0.00573,0.018474,0.006979000000000001
217,0.511026,-0.325366,-0.8773700000000001,0.463412,0.319655,-0.8264799999999999,0.020632,0.032609,-0.010923,-0.005328,0.018723,0.002032
218,0.5116350000000001,-0.325295,-0.8778309999999999,0.46392700000000003,0.319588,-0.826217,0.013246,0.045439,-0.016332,-0.008634999999999999,0.022772999999999998,-0.002762
219,0.512444,-0.325342,-0.8782760000000001,0.464588,0.319633,-0.8258280000000001,0.011122,0.047577,-0.016349000000000002,-0.005741,0.027032,0.000572
220,0.513077,-0.325364,-0.878742,0.465107,0.319654,-0.825528,0.015336,0.035845,-0.016305,-0.007725,0.028216,0.0019649999999999997
221,0.513491,-0.325342,-0.8791700000000001,0.46545200000000003,0.319633,-0.825341,0.014197999999999999,0.024113,-0.012025,-0.009062,0.023247999999999998,0.00025299999999999997
222,0.513602,-0.325328,-0.879475,0.465545,0.31961999999999996,-0.8252940000000001,0.008758,0.003879,-0.008832,-0.008834999999999999,0.021521000000000002,-0.0001
223,0.513422,-0.325457,-0.8796579999999999,0.46537700000000004,0.319741,-0.825342,0.0012369999999999998,-0.006751999999999999,-0.007803,-0.0008539999999999999,0.018943,-0.003684
224,0.513138,-0.32564699999999996,-0.87977,0.465113,0.319922,-0.82542,-0.0009400000000000001,-0.013147999999999998,-0.004605,-0.001017,0.022424,0.00053
225,0.512885,-0.32571300000000003,-0.879856,0.46489300000000006,0.31998499999999996,-0.82552,0.0012230000000000001,-0.005703,-0.003532,-0.0007509999999999999,0.022972,0.0017280000000000002
226,0.512838,-0.325872,-0.879941,0.46483,0.320135,-0.8254969999999999,0.001266,0.0038840000000000003,-0.003544,-0.003282,0.024515000000000002,0.00011899999999999999
227,0.512736,-0.326004,-0.8800950000000001,0.464725,0.32026,-0.825508,0.001247,-0.006743000000000001,-0.009939,-0.003085,0.024038999999999998,-0.003105
228,0.5123449999999999,-0.326236,-0.880318,0.46436499999999997,0.32048000000000004,-0.825625,-0.002002,-0.020567,-0.013149000000000001,-0.0004980000000000001,0.022171,0.0018789999999999998
229,0.511845,-0.326417,-0.880561,0.463924,0.320651,-0.825807,0.0033229999999999996,-0.020595,-0.010975,0.00063,0.022611000000000003,0.004899000000000001
230,0.511436,-0.326464,-0.8807799999999999,0.463579,0.320696,-0.825983,0.008667,-0.0153,-0.00774,-0.0002,0.024366,0.005335
231,0.511019,-0.326443,-0.881074,0.46323800000000004,0.320676,-0.826182,0.011872,-0.017429,-0.010920000000000001,-0.002972,0.025851,0.003016
232,0.510468,-0.326482,-0.8813559999999999,0.46277700000000005,0.320713,-0.826426,0.007562,-0.027001,-0.010938,-0.004357,0.023617,-0.004919
233,0.509897,-0.32653899999999997,-0.8816280000000001,0.46229499999999996,0.320767,-0.826674,0.006499,-0.024871,-0.00988,0.003647,0.028064,-0.002046
234,0.509425,-0.326497,-0.8818459999999999,0.461912,0.320727,-0.8269040000000001,0.016106,-0.018534000000000002,-0.004479,-0.000563,0.024625,0.00328
235,0.509095,-0.326218,-0.882085,0.461683,0.32046199999999997,-0.8271350000000001,0.026670999999999997,-0.012167,0.000932,-0.002759,0.03136,0.006456
236,0.508893,-0.325669,-0.8823790000000001,0.46160100000000004,0.319942,-0.827382,0.037382,0.000567,0.004196,-0.0061259999999999995,0.032398,0.002949
237,0.508891,-0.32501399999999997,-0.88264,0.46170100000000003,0.319323,-0.827565,0.03843,0.000546,0.008476000000000001,-0.009385,0.0352,-0.0016129999999999999
238,0.5086470000000001,-0.324391,-0.882815,0.46159700000000004,0.318732,-0.827851,0.034081,-0.014366,0.011669,-0.006548999999999999,0.031305,-0.001616
239,0.508357,-0.323759,-0.882913,0.461454,0.318133,-0.828161,0.037277,-0.011198,0.01596,-0.004408,0.02635,0.0053159999999999995
240,0.508278,-0.32307600000000003,-0.882978,0.46149399999999996,0.317485,-0.8283870000000001,0.037325,0.001576,0.018081,-0.004738,0.020101,0.0016359999999999999
241,0.508318,-0.322461,-0.8829799999999999,0.46162299999999995,0.31690100000000004,-0.8285389999999999,0.033072000000000004,0.006909,0.020181,-0.004072999999999999,0.012933000000000002,-0.0031260000000000003
242,0.508447,-0.321777,-0.8829799999999999,0.46183500000000005,0.316253,-0.8286680000000001,0.031277,0.007339,0.015975,-0.006101,0.015198,-0.000143
243,0.5084890000000001,-0.321256,-0.8830180000000001,0.46195,0.315758,-0.828793,0.029129000000000002,0.0020280000000000003,0.01383,-0.0071920000000000005,0.016151,0.00813
244,0.508556,-0.320803,-0.883123,0.462075,0.31532899999999997,-0.828887,0.027052999999999997,0.009514,0.008465,-0.009027,0.010355,-0.002778
245,0.5086689999999999,-0.32045999999999997,-0.883208,0.462221,0.31500300000000003,-0.8289290000000001,0.013174000000000002,0.003188,0.004103,-0.006151,0.011779000000000001,-0.008671
246,0.5084960000000001,-0.320546,-0.883275,0.46206499999999995,0.31508400000000003,-0.8289860000000001,-0.002853,-0.011632,-0.005604,0.005602,0.014215,-0.013512999999999999
247,0.5080399999999999,-0.320797,-0.883401,0.46164799999999995,0.315323,-0.8291270000000001,-0.0050149999999999995,-0.023321,-0.010945,0.003088,0.018936,-0.003087
248,0.507571,-0.32097800000000004,-0.8835639999999999,0.46123100000000006,0.315494,-0.8292940000000001,-0.000729,-0.016953,-0.008787,-0.00043099999999999996,0.022351,0.001367
249,0.5072979999999999,-0.32096399999999997,-0.883761,0.46100699999999994,0.315481,-0.8294229999999999,0.008912,-0.004220000000000001,-0.004463,-0.0024809999999999997,0.031091000000000004,0.0077069999999999994
250,0.507151,-0.320803,-0.8840110000000001,0.46091000000000004,0.31532899999999997,-0.829536,0.015801,-0.002975,-0.006540000000000001,-0.00223,0.035623,0.008659
251,0.5069739999999999,-0.320554,-0.884358,0.460801,0.31509299999999996,-0.829686,0.023269,-0.004062,-0.007555,-0.00022999999999999998,0.035661,0.008992
252,0.5068520000000001,-0.32031,-0.884706,0.460737,0.314861,-0.829809,0.024322,-0.003018,-0.003276,-0.002607,0.037174,0.0035909999999999996
253,0.50674,-0.32000100000000004,-0.884922,0.460692,0.314567,-0.829946,0.02214,-0.005175,0.005258,-0.007857,0.035775,0.001989
254,0.50661,-0.319615,-0.884951,0.460642,0.314201,-0.8301120000000001,0.017830000000000002,-0.00732,0.012708,-0.006968000000000001,0.034584,8e-05
255,0.506444,-0.319261,-0.884851,0.460559,0.313865,-0.830285,0.020982,-0.01374,0.017011000000000002,-0.0059229999999999994,0.025033,0.0009699999999999999
256,0.50632,-0.318922,-0.884769,0.460508,0.31354299999999996,-0.830435,0.023149,-0.007352,0.01595,-0.005704,0.013788,-0.002618
257,0.5062270000000001,-0.31848200000000004,-0.8846780000000001,0.46049700000000005,0.313125,-0.830599,0.017825,-0.005203,0.01591,-0.002367,0.00972,-0.0040869999999999995
258,0.5061720000000001,-0.318223,-0.8845940000000001,0.46048999999999995,0.31288,-0.8306950000000001,0.012519,-0.003036,0.011597,-0.002177,0.008959,-0.004586
259,0.506007,-0.31809699999999996,-0.8845719999999999,0.460372,0.312759,-0.8308059999999999,0.009903,-0.008334999999999999,0.006358,-0.001907,0.019607,-0.002202
260,0.505892,-0.318002,-0.8845120000000001,0.46029200000000003,0.31266900000000003,-0.8308840000000001,0.000325,-0.004036,0.0052179999999999995,-0.0017809999999999998,0.01924,-0.000537
261,0.50595,-0.31802800000000003,-0.884416,0.46033599999999997,0.312694,-0.83085,-0.0017469999999999999,0.007698,0.003052,-0.004953,0.017643,0.002725
262,0.506046,-0.31805500000000003,-0.88444,0.46041099999999996,0.31272,-0.830799,0.0025399999999999997,0.0055780000000000005,-0.003325,-0.001518,0.024484,0.001377
263,0.506115,-0.318079,-0.8846280000000001,0.46046499999999996,0.312742,-0.8307610000000001,0.00576,0.006645,-0.006508,-0.002366,0.032381,0.006633
264,0.505997,-0.318094,-0.8848090000000001,0.46036499999999997,0.312756,-0.8308110000000001,0.005688,-0.009334,-0.006488,-0.007393,0.032977,0.008973
265,0.505743,-0.318182,-0.8849469999999999,0.46013999999999994,0.31284,-0.8309040000000001,0.0014060000000000001,-0.010393000000000001,-0.004381,-0.002148,0.023388,0.001818
266,0.505425,-0.318308,-0.8850469999999999,0.45985699999999996,0.31296,-0.831016,0.000315,-0.017837000000000002,-0.006515000000000001,0.000455,0.026106,-0.003152
267,0.505026,-0.318394,-0.885117,0.459513,0.313042,-0.831175,-0.002255,-0.020878,-0.002095,0.000647,0.02613,-0.0038009999999999997
268,0.504642,-0.318567,-0.8850459999999999,0.459167,0.313206,-0.831305,-0.00016,-0.025164,0.002198,-0.001709,0.028286000000000002,0.0032409999999999995
269,0.504441,-0.31855300000000003,-0.884968,0.459002,0.313193,-0.8314,0.002041,-0.006013,0.006462000000000001,-0.005481000000000001,0.024133,0.006815000000000001
270,0.504454,-0.31853000000000004,-0.884884,0.459016,0.313171,-0.8314010000000001,0.004213000000000001,0.00144,0.005399,-0.005586,0.026001999999999997,0.003184
271,0.504424,-0.31848899999999997,-0.8848440000000001,0.45899700000000004,0.313132,-0.831426,0.0031219999999999998,-0.004943,0.004332,-0.002027,0.025598,2.1e-05
272,0.504268,-0.318542,-0.884782,0.45886000000000005,0.313182,-0.831483,-0.001165,-0.010251,0.00324,-0.003568,0.021809000000000002,0.004609
273,0.5041,-0.318659,-0.8846729999999999,0.45870200000000005,0.313294,-0.831528,-0.005437,-0.009179000000000001,0.005346,-0.002785,0.021057,-0.000839
274,0.503965,-0.318785,-0.884544,0.458571,0.313413,-0.8315549999999999,-0.004952000000000001,-0.009011,0.004302,-0.002486,0.022021000000000002,-0.00159
275,0.503779,-0.318891,-0.884418,0.458401,0.313514,-0.8316110000000001,-0.003904,-0.013275,0.004315,-0.00256,0.023049,-0.00037400000000000004
276,0.503467,-0.31895100000000004,-0.884346,0.458132,0.313571,-0.8317379999999999,0.0014199999999999998,-0.017547,0.002221,-0.002855,0.021497,0.007245000000000001
277,0.503135,-0.318936,-0.8843549999999999,0.457858,0.31355700000000003,-0.831894,0.005716,-0.012231,0.001176,-0.00307,0.021069,0.000199
278,0.502967,-0.318884,-0.8843989999999999,0.457726,0.31350700000000004,-0.8319850000000001,0.008951,-0.004785,0.001189,-0.002968,0.026855,0.005249
279,0.502839,-0.318592,-0.8845,0.457664,0.31323,-0.832124,0.01959,-0.005909,0.006606,-0.007011,0.028765,0.009538
280,0.502695,-0.318359,-0.8845379999999999,0.457579,0.313008,-0.832254,0.014261000000000001,-0.005886,0.0055,-0.010756,0.032359,-0.00318
281,0.5024270000000001,-0.318301,-0.884547,0.45736499999999997,0.312954,-0.832392,0.000344,-0.021795,8.2e-05,-0.004636,0.030491000000000004,-0.008870000000000001
282,0.501791,-0.318479,-0.8845350000000001,0.456809,0.31312199999999996,-0.832634,-0.004529999999999999,-0.037597000000000005,-0.0009960000000000001,0.001291,0.02605,0.0019920000000000003
283,0.5012260000000001,-0.31845999999999997,-0.8844559999999999,0.456341,0.313105,-0.8328969999999999,0.0051,-0.022751,0.007598000000000001,0.0016059999999999998,0.021734,0.007519
284,0.5008600000000001,-0.318409,-0.884443,0.45604399999999995,0.313056,-0.8330780000000001,0.008362999999999999,-0.011035,0.00547,-0.0027660000000000002,0.015374,0.009867
285,0.500641,-0.318465,-0.884494,0.45585299999999995,0.313109,-0.8331629999999999,0.002019,-0.00884,-0.00526,-0.0033079999999999997,0.01294,0.010104
286,0.500529,-0.318585,-0.884724,0.455741,0.31322300000000003,-0.833181,0.004239,0.003961,-0.01167,0.001382,0.012125,-0.00474
287,0.500793,-0.318757,-0.884926,0.45593599999999995,0.31338699999999997,-0.8330129999999999,-0.003152,0.021032,-0.011743,-0.003573,0.006132,-0.00915
288,0.501165,-0.319116,-0.8849950000000001,0.456192,0.313728,-0.8327450000000001,-0.017044999999999998,0.015754,-0.011834,-0.0028989999999999997,0.005166,-0.012562
289,0.5013340000000001,-0.3197,-0.8850879999999999,0.456244,0.314282,-0.832507,-0.020255000000000002,0.006207,-0.019321,-0.0004940000000000001,0.017276,-0.011715999999999999
290,0.5013890000000001,-0.320263,-0.8852190000000001,0.456204,0.314817,-0.832327,-0.019757,0.003169,-0.017236,-0.000195,0.024875,-0.008905
291,0.5012310000000001,-0.320817,-0.8853040000000001,0.45598900000000003,0.315342,-0.8322459999999999,-0.023015,-0.007481,-0.015109000000000001,-0.005046,0.034404000000000004,-0.004333
292,0.501162,-0.321315,-0.88531,0.45585600000000004,0.315815,-0.832139,-0.020862000000000002,0.001016,-0.010832,-0.005065999999999999,0.035793,0.004457
293,0.501297,-0.321523,-0.885389,0.455937,0.316012,-0.8320200000000001,0.00159,0.016896,-0.005354,-0.005024,0.042509,0.012929
294,0.501626,-0.321417,-0.8855459999999999,0.456226,0.31591199999999997,-0.8319,0.015459,0.021091,-0.00099,-0.00742,0.046668,0.01087
295,0.5019520000000001,-0.321146,-0.885797,0.45653900000000003,0.315654,-0.8318260000000001,0.029314,0.02103,0.0023120000000000003,-0.007198,0.043843,0.010003
296,0.502333,-0.320596,-0.8860110000000001,0.45693999999999996,0.315132,-0.8318040000000001,0.036752999999999994,0.022039,0.00984,-0.004593,0.037482999999999995,0.005220000000000001
297,0.502816,-0.319853,-0.8860709999999999,0.45745399999999997,0.314427,-0.831788,0.036725,0.025197,0.01945,-0.003948,0.029079,0.003159
298,0.503275,-0.319293,-0.886014,0.457921,0.313896,-0.8317319999999999,0.031347,0.01775,0.021558,0.001186,0.014931,-0.002497
299,0.503587,-0.318664,-0.885913,0.458275,0.313298,-0.8317620000000001,0.027711000000000003,0.011526999999999999,0.020422,0.002022,0.011989,-0.001017
300,0.503842,-0.318157,-0.885806,0.458564,0.312817,-0.831784,0.02451,0.012598999999999999,0.021466,-0.007881,0.00716,0.008511
301,0.504312,-0.31783,-0.885592,0.459005,0.312506,-0.831658,0.008574,0.025447,0.019202,-0.011068000000000001,-0.003439,-0.003593
302,0.504912,-0.317922,-0.88534,0.45948900000000004,0.312594,-0.831357,-0.016982,0.021335,0.004072999999999999,-0.004137,-0.005404,-0.012851
303,0.505272,-0.318483,-0.8851709999999999,0.459704,0.313126,-0.8310379999999999,-0.031909,0.008662999999999999,-0.01097,0.000608,-0.0038759999999999997,-0.016634
304,0.5053770000000001,-0.31931,-0.8850709999999999,0.459665,0.313911,-0.8307629999999999,-0.039376999999999995,0.0033840000000000003,-0.016356,0.003271,0.005577,-0.008333
305,0.505473,-0.32011999999999996,-0.885092,0.45962200000000003,0.31468,-0.8304959999999999,-0.033976,0.012974000000000001,-0.021672,-0.002026,0.012026,-0.0022370000000000003
306,0.50574,-0.320838,-0.885274,0.45973400000000003,0.315362,-0.830176,-0.026723,0.021691,-0.025966000000000003,-0.0033740000000000003,0.025565,0.003546
307,0.5059670000000001,-0.32148499999999997,-0.8856120000000001,0.459823,0.31597600000000003,-0.829892,-0.019255,0.015299,-0.032314999999999997,-0.00473,0.038683999999999996,0.009443
308,0.506102,-0.32210500000000003,-0.8860540000000001,0.45983999999999997,0.316564,-0.829659,-0.017121,0.014231,-0.033367,-0.006502,0.040782,0.010856999999999999
309,0.506316,-0.32262199999999996,-0.886501,0.459938,0.31705500000000003,-0.829417,-0.009643,0.020579,-0.02905,-0.006934999999999999,0.046425,0.012279
310,0.506628,-0.32302,-0.8868739999999999,0.460136,0.317432,-0.8291629999999999,-0.003271,0.022653,-0.020463,-0.007162999999999999,0.046429000000000005,0.007859
311,0.506935,-0.323255,-0.8872040000000001,0.460354,0.317654,-0.8289569999999999,0.0062829999999999995,0.019393999999999998,-0.012913999999999998,-0.008679000000000001,0.040362,0.002419
312,0.507171,-0.323196,-0.887438,0.460559,0.317598,-0.828865,0.013688999999999998,0.015068999999999999,-0.003243,-0.005054,0.038649,0.0020210000000000002
313,0.507533,-0.32304099999999997,-0.887503,0.460883,0.31745100000000004,-0.828741,0.01366,0.020347999999999998,0.008501,-0.005027,0.032173,0.002691
314,0.508128,-0.322795,-0.887396,0.46141400000000005,0.317218,-0.828535,0.013446000000000001,0.031239,0.016956,-0.009098,0.016858,0.000562
315,0.508781,-0.322575,-0.887344,0.46198900000000004,0.31700900000000004,-0.8282940000000001,0.017747,0.031254000000000004,0.009507999999999999,-0.002761,0.010704,-0.006026
316,0.509351,-0.322354,-0.887453,0.462495,0.3168,-0.828092,0.013522999999999999,0.032368,0.000932,0.00125,0.009082,-0.008517
317,0.509849,-0.322296,-0.88754,0.462916,0.316745,-0.8278770000000001,0.003892,0.023888,-0.001261,-0.0018260000000000001,0.008847,-0.005604
318,0.510278,-0.322282,-0.887525,0.46327399999999996,0.316732,-0.8276819999999999,-0.00038500000000000003,0.026017000000000002,0.002979,-0.001253,0.0067079999999999996,-0.00296
319,0.510858,-0.322326,-0.887509,0.463747,0.316773,-0.827401,0.003954,0.038798,-0.000212,-0.001497,0.007934,0.004556
320,0.51153,-0.322267,-0.8876069999999999,0.464312,0.316718,-0.8271059999999999,0.0039299999999999995,0.032411,-0.0012720000000000001,0.001127,0.018731,0.006548999999999999
321,0.5119779999999999,-0.322366,-0.8878209999999999,0.464667,0.316811,-0.8268709999999999,-0.000323,0.022889,-0.014108,-0.004446,0.022315,0.000958
322,0.512088,-0.32266300000000003,-0.8881389999999999,0.464712,0.31709299999999996,-0.826737,-0.006861,0.0061070000000000004,-0.021585,-0.002889,0.022186,0.002931
323,0.512048,-0.32305900000000004,-0.8884540000000001,0.464617,0.317468,-0.8266469999999999,-0.011162,-0.00027400000000000005,-0.020538999999999998,-0.001085,0.023688,0.001894
324,0.511912,-0.323415,-0.888735,0.464449,0.317806,-0.8266110000000001,-0.002666,-0.005643,-0.017268000000000002,0.001234,0.024387,0.003247
325,0.511634,-0.32359099999999996,-0.889069,0.464193,0.317973,-0.826691,0.00585,-0.007812,-0.015068999999999999,-0.000936,0.026508999999999998,-1.4999999999999999e-05
326,0.51141,-0.32361100000000004,-0.889393,0.46400399999999997,0.317992,-0.8267899999999999,0.011184,-0.0035859999999999998,-0.010764,-0.00209,0.031068000000000002,0.000877
327,0.511352,-0.32350500000000004,-0.889699,0.46397200000000005,0.317891,-0.8268459999999999,0.015456999999999999,0.0017079999999999999,-0.006468000000000001,-0.005522,0.035624,0.001941
328,0.511257,-0.323374,-0.889905,0.46391400000000005,0.317768,-0.8269270000000001,0.013280000000000002,-0.003628,-0.002204,-0.006761,0.032132,0.002937
329,0.511121,-0.323175,-0.890034,0.46383199999999997,0.317579,-0.827045,0.016447,-0.005790999999999999,0.0031620000000000003,-0.0032,0.032076,0.0051909999999999994
330,0.5110140000000001,-0.322889,-0.890117,0.463789,0.317308,-0.8271729999999999,0.020709,-0.0036880000000000003,0.0063939999999999995,-0.005201,0.02484,-0.0007379999999999999
331,0.510985,-0.322542,-0.8901899999999999,0.463818,0.31697800000000004,-0.827283,0.021638,0.002676,0.00854,-0.004147,0.022789,0.000348
332,0.511099,-0.322176,-0.8903049999999999,0.46396899999999996,0.316631,-0.8273309999999999,0.022747999999999997,0.010138,0.006402,-0.0043289999999999995,0.020099000000000002,-0.000672
333,0.5112909999999999,-0.321858,-0.890432,0.46417700000000006,0.31632899999999997,-0.8273299999999999,0.019571,0.012293,0.003172,-0.003179,0.016221,-0.002428
334,0.511526,-0.32159499999999996,-0.890548,0.464412,0.316081,-0.8272930000000001,0.016375,0.014430000000000002,0.004215,-0.00146,0.014898,-0.0017620000000000001
335,0.511782,-0.321359,-0.890674,0.464661,0.31585599999999997,-0.827239,0.015328,0.015512,0.0010019999999999999,-0.0019379999999999998,0.015122,-0.0017100000000000001
336,0.512105,-0.32124400000000003,-0.890763,0.464946,0.315747,-0.8271209999999999,0.005755,0.020876,-0.00014,-0.000331,0.013171,-0.002606
337,0.512493,-0.32128,-0.8908719999999999,0.465261,0.315781,-0.8269299999999999,0.004721,0.023031,-0.005490999999999999,-0.0026149999999999997,0.01741,0.0044659999999999995
338,0.512861,-0.321305,-0.891074,0.465562,0.315805,-0.826752,0.005745,0.021781000000000002,-0.008673,-0.001374,0.017721999999999998,-0.0026089999999999998
339,0.513201,-0.321265,-0.8912559999999999,0.46584899999999996,0.315767,-0.8266049999999999,0.005712,0.018568,-0.004396,0.000429,0.027677999999999998,-0.001978
340,0.513432,-0.321339,-0.891352,0.46602899999999997,0.315838,-0.826477,-0.002852,0.010085,-0.006581999999999999,-0.002802,0.025105000000000002,0.002212
341,0.513529,-0.32159,-0.8914350000000001,0.46606899999999996,0.316075,-0.826363,-0.004995,0.0058390000000000004,-0.008728,-0.009557,0.022365,0.007653
342,0.513651,-0.32177,-0.8916200000000001,0.46614300000000003,0.316246,-0.826256,0.00038700000000000003,0.012229,-0.012971000000000002,-0.002947,0.021126,0.009285999999999999
343,0.513807,-0.321917,-0.8918290000000001,0.46624799999999994,0.316386,-0.8261430000000001,0.0014060000000000001,0.005817,-0.008683,-0.002167,0.020528,0.003481
344,0.513513,-0.322079,-0.891933,0.46598,0.316539,-0.8262360000000001,-0.0019379999999999998,-0.021886000000000003,-0.004398,-0.001335,0.019643,-0.0024690000000000003
345,0.512904,-0.322139,-0.892033,0.465467,0.31659699999999996,-0.8265030000000001,0.005490999999999999,-0.029373000000000003,-0.003268,-0.00041,0.017662999999999998,1e-05
346,0.512346,-0.32205700000000004,-0.8921459999999999,0.46501899999999996,0.31651799999999997,-0.826785,0.010842000000000001,-0.024432,0.0011970000000000001,-0.009422,0.019831,-0.002805
347,0.5119130000000001,-0.32195799999999997,-0.892216,0.46467700000000006,0.316424,-0.8270129999999999,0.008728,-0.018040999999999998,0.00331,-0.009858,0.023481000000000002,-0.007673
348,0.511533,-0.32184,-0.892266,0.46438,0.316312,-0.8272229999999999,0.006613,-0.018017,-0.000977,-0.010675,0.025271000000000002,-0.004412
349,0.511213,-0.321796,-0.892331,0.46412200000000003,0.31627,-0.827383,0.005566,-0.013752,-0.00099,-0.00761,0.030974,0.000174
350,0.510947,-0.321746,-0.892367,0.46391000000000004,0.316224,-0.82752,0.002365,-0.011618999999999999,0.001121,-0.007489,0.0325,0.0016539999999999999
351,0.510682,-0.321769,-0.8923549999999999,0.463687,0.316245,-0.8276370000000001,0.0012980000000000001,-0.009493000000000001,0.0032479999999999996,-0.005954,0.025689,0.005951
352,0.5104920000000001,-0.321808,-0.892332,0.463524,0.316282,-0.827714,0.001322,-0.00735,4e-05,-0.003304,0.020434,0.006944
353,0.510283,-0.32183,-0.8923770000000001,0.463348,0.316303,-0.8278049999999999,0.001322,-0.010533,-0.00316,-0.000182,0.019207,0.004029
354,0.5099520000000001,-0.321878,-0.892474,0.463066,0.316348,-0.827945,0.004499,-0.014809000000000001,-0.002064,0.005882,0.019727,0.001911
355,0.509628,-0.321883,-0.8925290000000001,0.462797,0.316353,-0.828094,0.007634,-0.015341999999999998,0.003438,0.004656,0.01577,-0.001801
356,0.50935,-0.32172399999999995,-0.892501,0.462591,0.316202,-0.828266,0.010811,-0.016434999999999998,0.007735,0.002878,0.015295,0.0005690000000000001
357,0.5090439999999999,-0.32143499999999997,-0.892475,0.462383,0.31592800000000004,-0.8284870000000001,0.017207,-0.016462,0.008848,0.000294,0.018575,0.000484
358,0.508798,-0.32105700000000004,-0.8924850000000001,0.462237,0.31556999999999996,-0.8287049999999999,0.020427,-0.012212,0.008865000000000001,-0.006670000000000001,0.020916999999999998,0.001603
359,0.508606,-0.320689,-0.8925270000000001,0.462134,0.31522100000000003,-0.828896,0.016188,-0.007927,0.006693000000000001,-0.00733,0.022029,-0.000801
360,0.508487,-0.320411,-0.8925280000000001,0.462078,0.314956,-0.8290270000000001,0.012987,-0.006855,0.007737999999999999,-0.010112999999999999,0.025086,-0.0019510000000000003
361,0.5083880000000001,-0.320214,-0.8924709999999999,0.46202600000000005,0.314769,-0.8291270000000001,0.008715,-0.006845,0.008776,-0.009831999999999999,0.027134,-0.001256
362,0.508306,-0.320036,-0.8924059999999999,0.46198599999999995,0.314601,-0.8292139999999999,0.006591,-0.005768,0.007691,-0.010188,0.026708,-0.002329
363,0.5081859999999999,-0.31990100000000005,-0.8923629999999999,0.46190600000000004,0.314472,-0.829306,0.007553,-0.005051,0.006814,-0.011162,0.023754,-0.001596
364,0.508061,-0.319825,-0.892335,0.461815,0.3144,-0.829385,0.005429,-0.003974,0.00573,-0.008018,0.019798,-0.0018989999999999999
365,0.507946,-0.31969899999999996,-0.892308,0.46173800000000004,0.314281,-0.8294729999999999,0.0065,-0.003973,0.0046689999999999995,-0.00695,0.020314,-0.003032
366,0.5079199999999999,-0.319633,-0.892267,0.46172700000000005,0.314218,-0.8295030000000001,0.004381,0.001352,0.006784,-0.0020399999999999997,0.020253999999999998,-0.001964
367,0.507968,-0.319629,-0.892208,0.461767,0.314215,-0.8294819999999999,0.000133,0.004567,0.005682,7.099999999999999e-05,0.01127,-1.7e-05
368,0.507995,-0.31964499999999996,-0.8921479999999999,0.461787,0.31423,-0.829465,0.002271,0.001381,0.001428,0.002538,0.016947,0.0027890000000000002
369,0.5080210000000001,-0.319589,-0.892192,0.461818,0.314176,-0.829468,0.006568000000000001,0.005635,-0.000684,0.003057,0.014376,0.001877
370,0.5080210000000001,-0.319554,-0.8922059999999999,0.461823,0.314143,-0.829478,0.003088,-0.00325,0.0036880000000000003,-0.002839,0.020421,0.000651
371,0.507944,-0.31954,-0.892124,0.461761,0.31413,-0.8295170000000001,-0.0012029999999999999,-0.00644,0.005797999999999999,-0.002945,0.016009,-0.00011899999999999999
372,0.507833,-0.319529,-0.8920459999999999,0.461671,0.314119,-0.829571,-0.000131,-0.006439,0.004738,-0.002076,0.017439,-0.000553
373,0.507704,-0.319529,-0.891958,0.46156400000000003,0.31411999999999995,-0.8296309999999999,0.000916,-0.010704,0.00475,-0.008179,0.023649,0.00262
374,0.507617,-0.31951799999999997,-0.891834,0.46149300000000004,0.314109,-0.829674,-0.001198,-0.004313,0.006864,-0.011206,0.019066999999999997,0.004204
375,0.507653,-0.31958600000000004,-0.891706,0.461513,0.314173,-0.8296389999999999,-0.004351,0.001045,0.0014939999999999999,-0.010631,0.022192,-0.00108
376,0.507637,-0.319752,-0.8916350000000001,0.461474,0.314332,-0.829601,-0.007561,-0.004257,-0.001726,-0.006456999999999999,0.022827,-0.006337
377,0.507456,-0.31996199999999997,-0.891609,0.461292,0.314531,-0.829627,-0.006518,-0.010648000000000001,-0.002779,-0.006152,0.020201,-0.005106
378,0.5072399999999999,-0.320133,-0.8915959999999999,0.46108699999999997,0.314693,-0.829679,-0.004547,-0.007706,-0.0015710000000000001,-0.005154,0.019322,-0.001193
379,0.507123,-0.320262,-0.891601,0.46097,0.314815,-0.8296979999999999,-0.0023989999999999997,-0.0034560000000000003,-0.000493,-0.004839,0.020146,-0.000381
380,0.5070279999999999,-0.320349,-0.8916209999999999,0.46087700000000004,0.314898,-0.829717,-0.00026000000000000003,-0.0034590000000000003,-0.001546,-0.001008,0.024045,0.003408
381,0.506941,-0.320396,-0.891655,0.46079799999999993,0.314942,-0.8297450000000001,0.000811,-0.002398,-0.0015400000000000001,0.000872,0.02246,0.001009
382,0.506879,-0.320427,-0.891668,0.460742,0.314972,-0.829765,0.000802,-0.0024059999999999997,0.000596,0.003415,0.021774,0.004432
383,0.5067729999999999,-0.32042600000000004,-0.891634,0.460654,0.314971,-0.8298139999999999,0.0018399999999999998,-0.007741,0.001679,-0.00228,0.021211,0.0018260000000000001
384,0.506644,-0.320412,-0.891601,0.460549,0.314958,-0.8298770000000001,0.002902,-0.0066879999999999995,0.003821,-0.00277,0.020842,0.0007599999999999999
385,0.506544,-0.320349,-0.891543,0.460476,0.314898,-0.82994,0.003964,-0.006696,0.004897,-0.0030329999999999997,0.019239,-0.0014039999999999999
386,0.506404,-0.320291,-0.891495,0.460369,0.314843,-0.8300209999999999,0.003959000000000001,-0.008822,0.003831,-0.005640999999999999,0.018715,0.00011100000000000001
387,0.506278,-0.320229,-0.891446,0.46027399999999996,0.314784,-0.830096,0.003795,-0.007761,0.0049759999999999995,-0.005913,0.018803999999999998,-0.001539
388,0.506104,-0.320162,-0.891408,0.460139,0.31472100000000003,-0.8301940000000001,0.003785,-0.009891,0.004979,-0.005549,0.017950999999999998,-0.001913
389,0.5059520000000001,-0.320117,-0.8913770000000001,0.46002,0.314677,-0.830277,0.001675,-0.005618,0.00389,-0.00601,0.020711,-0.000793
390,0.505896,-0.320129,-0.891339,0.459971,0.314689,-0.830299,0.000637,-0.0013449999999999998,0.001741,-0.006129,0.021493,-0.001564
391,0.505879,-0.320177,-0.891334,0.45995,0.314734,-0.8302940000000001,-0.00041500000000000006,0.000794,0.000663,-0.005436,0.019601,-0.001295
392,0.505909,-0.320221,-0.8913780000000001,0.45996899999999996,0.314776,-0.830268,0.000685,0.005064,-0.0025399999999999997,-0.00486,0.023175,-0.0018859999999999999
393,0.506039,-0.320291,-0.891402,0.46006499999999995,0.314842,-0.830189,-0.003568,0.010395999999999999,-0.00044,-0.005613,0.023413999999999997,0.001438
394,0.506302,-0.320376,-0.891392,0.460271,0.314924,-0.830044,-0.002704,0.016905,0.00061,-0.006963,0.014315000000000001,0.000866
395,0.506575,-0.32053400000000004,-0.89139,0.460474,0.315073,-0.829875,-0.002689,0.013734999999999999,-0.005795000000000001,-0.00387,0.015661,-0.0023239999999999997
396,0.506791,-0.320679,-0.8915360000000001,0.46063000000000004,0.315211,-0.829736,-0.000536,0.014805,-0.008986,-0.000532,0.018269999999999998,0.00039
397,0.506992,-0.320785,-0.89164,0.46078100000000005,0.315312,-0.829614,-0.001656,0.008395999999999999,-0.0036450000000000002,0.000279,0.021755,0.002054
398,0.507113,-0.32095500000000005,-0.891619,0.460855,0.315473,-0.8295110000000001,-0.004876,0.00839,0.000606,-0.00123,0.019563999999999998,0.000867
399,0.507307,-0.321103,-0.891544,0.46099300000000004,0.315614,-0.8293809999999999,-0.008067,0.009470999999999999,-0.00048600000000000005,-0.001795,0.019163999999999997,0.001058
400,0.507544,-0.321232,-0.891511,0.46116999999999997,0.315736,-0.8292360000000001,-0.004847,0.011599,-0.0026030000000000003,-0.0015300000000000001,0.019865999999999998,0.00105
401,0.5077729999999999,-0.321482,-0.891489,0.461322,0.315973,-0.829061,-0.00911,0.011618,-0.003701,-0.006992,0.019445,-0.002695
402,0.5080520000000001,-0.321756,-0.891437,0.46151099999999995,0.316233,-0.828857,-0.011423,0.014938,-0.004856,-0.004449,0.021749,-0.002274
403,0.508378,-0.322061,-0.891408,0.46173400000000003,0.316523,-0.828622,-0.010352,0.016,-0.00485,-0.00246,0.022345,0.001336
404,0.508622,-0.322308,-0.891459,0.461898,0.316756,-0.828442,-0.005017,0.013859,-0.006945999999999999,-0.003249,0.023271,0.0033380000000000003
405,0.508848,-0.32250999999999996,-0.8915549999999999,0.462054,0.316948,-0.8282809999999999,-0.005012,0.014924000000000002,-0.006948,-0.005587,0.020544999999999997,0.0026739999999999997
406,0.5091359999999999,-0.322741,-0.891645,0.462258,0.31716700000000003,-0.828084,-0.007137,0.016000999999999998,-0.008032,-0.004082,0.023684,-0.000194
407,0.509404,-0.322988,-0.8917290000000001,0.462441,0.317402,-0.8278909999999999,-0.006079,0.013866999999999999,-0.008022,-0.00364,0.021786,-0.001027
408,0.509634,-0.323203,-0.8917790000000001,0.46259799999999995,0.317605,-0.8277260000000001,-0.007165,0.011732,-0.00589,-0.0043,0.021322999999999998,-0.0006129999999999999
409,0.50989,-0.323452,-0.891814,0.462771,0.317841,-0.8275379999999999,-0.008213,0.014936000000000001,-0.0069700000000000005,-0.003848,0.019972999999999998,0.002175
410,0.510232,-0.32373,-0.891834,0.46301099999999995,0.318105,-0.8273020000000001,-0.010443000000000001,0.019327,-0.005995,-0.006072,0.017802000000000002,-0.0009599999999999999
411,0.510667,-0.324088,-0.8918,0.463315,0.318445,-0.827002,-0.015763,0.022541,-0.006036,-0.005521,0.019949,0.0008449999999999999
412,0.511182,-0.324464,-0.8917700000000001,0.463682,0.318801,-0.826659,-0.015734,0.026811,-0.008178,-0.0036149999999999997,0.019929,-0.000597
413,0.5116390000000001,-0.324868,-0.8917379999999999,0.46399700000000005,0.319184,-0.826334,-0.01684,0.020413999999999998,-0.0060409999999999995,-0.0034560000000000003,0.020996,0.0012460000000000001
414,0.511969,-0.325231,-0.891699,0.464213,0.31952800000000003,-0.8260799999999999,-0.016859,0.016153,-0.006035,-0.003062,0.02175,0.000412
415,0.512279,-0.325619,-0.891616,0.464408,0.319895,-0.8258280000000001,-0.016863999999999997,0.01721,-0.0039,-0.002448,0.019445,6.8e-05
416,0.512594,-0.325992,-0.891534,0.46461,0.320249,-0.825577,-0.015802,0.015080000000000001,-0.004958,-0.001689,0.017825,0.002869
417,0.5128560000000001,-0.32632,-0.8915290000000001,0.464775,0.32055900000000004,-0.825364,-0.011539,0.011878,-0.007061,-0.002357,0.018583000000000002,0.000795
418,0.513072,-0.326629,-0.89154,0.464904,0.320853,-0.825177,-0.009481,0.012006000000000001,-0.0060420000000000005,-0.004958,0.021143000000000002,-0.000308
419,0.513285,-0.326781,-0.8915700000000001,0.465056,0.320996,-0.8250360000000001,-0.004156,0.011979,-0.003868,-0.005278,0.021427,0.001718
420,0.513614,-0.326981,-0.8915129999999999,0.465296,0.321186,-0.8248270000000001,-0.010553,0.017311,0.00035299999999999996,-0.004831,0.020047,0.005323
421,0.5139819999999999,-0.327229,-0.891415,0.46556000000000003,0.32142,-0.8245870000000001,-0.010537999999999999,0.017324000000000003,-0.0028510000000000002,-0.007339,0.015066999999999999,0.000154
422,0.514259,-0.327441,-0.891459,0.46575500000000003,0.321621,-0.824398,-0.003065,0.014119,-0.0070680000000000005,-0.000576,0.019962,-0.000965
423,0.514444,-0.327611,-0.891581,0.46588100000000005,0.321782,-0.824264,-0.00307,0.011992000000000001,-0.008133,0.003418,0.022441,-0.000824
424,0.514608,-0.32776500000000003,-0.891619,0.465992,0.321927,-0.8241450000000001,-0.005257,0.004526,-0.0038659999999999996,-0.005115,0.022875,-0.0038740000000000003
425,0.514659,-0.327957,-0.891592,0.466003,0.32211,-0.824067,-0.008467,0.004529,-0.0017519999999999999,-0.00534,0.017734,-0.002517
426,0.514803,-0.32810900000000004,-0.8915129999999999,0.46609700000000004,0.322253,-0.823958,-0.005336,0.006723000000000001,0.003553,-0.005862,0.018857,0.002989
427,0.5149779999999999,-0.328137,-0.8914559999999999,0.466237,0.32228,-0.823868,0.003204,0.006697,0.0025440000000000003,-0.007543000000000001,0.022706,0.0033420000000000004
428,0.515037,-0.328117,-0.891495,0.466289,0.322261,-0.823846,0.006404000000000001,0.005625,0.0015,-0.006297,0.024327,0.001275
429,0.515041,-0.328043,-0.891602,0.466304,0.322191,-0.823865,0.006409000000000001,0.001385,-0.003836,-0.004589,0.021818,0.002271
430,0.515013,-0.327993,-0.8917120000000001,0.466289,0.322144,-0.823892,0.004261,0.000319,-0.001713,-0.00088,0.020812999999999998,0.002466
431,0.514948,-0.328017,-0.891755,0.466232,0.322167,-0.823915,0.0042369999999999994,-0.002885,0.00042699999999999997,-0.0032340000000000003,0.01931,0.00016999999999999999
432,0.5148590000000001,-0.327891,-0.891768,0.466178,0.32204699999999997,-0.8239920000000001,0.007423000000000001,-0.0039700000000000004,0.002588,-0.003181,0.019430000000000003,0.00024700000000000004
433,0.514736,-0.327843,-0.891805,0.466084,0.322002,-0.8240629999999999,0.005294,-0.003958,0.001504,-0.002919,0.019826,0.0016300000000000002
434,0.514628,-0.327787,-0.891803,0.466004,0.321949,-0.8241290000000001,0.002089,-0.005013,0.001483,-0.0026100000000000003,0.01936,-0.000547
435,0.5144850000000001,-0.327764,-0.891814,0.46588999999999997,0.321927,-0.824202,0.003172,-0.007206999999999999,0.00041900000000000005,-0.002282,0.019732,-0.001024
436,0.514306,-0.327714,-0.891848,0.465751,0.32188,-0.8243,0.005296,-0.008284,0.001504,-0.001838,0.017796,-0.000942
437,0.514147,-0.32766799999999996,-0.8918860000000001,0.46562700000000007,0.321836,-0.8243870000000001,0.005311,-0.006149,0.000433,-0.004064,0.019107,-0.000534
438,0.5140100000000001,-0.327613,-0.8918879999999999,0.46552299999999996,0.321784,-0.824466,0.004234,-0.007215000000000001,0.001495,-0.0036090000000000002,0.020776,-0.0014470000000000002
439,0.513839,-0.32756599999999997,-0.891892,0.46538900000000005,0.321739,-0.824559,0.004229,-0.00828,0.0014960000000000002,-0.0029100000000000003,0.020149,-0.001064
440,0.513667,-0.32754099999999997,-0.891899,0.465251,0.321716,-0.8246459999999999,0.0031620000000000003,-0.008276,0.001489,-0.004298,0.020295,-0.000138
441,0.513478,-0.327533,-0.891914,0.46509700000000004,0.321708,-0.824736,0.0021,-0.009329,-0.000654,-0.005273,0.018761,-0.0021379999999999997
442,0.513241,-0.327488,-0.8919590000000001,0.464908,0.321666,-0.824859,0.006464,-0.010629000000000001,0.000512,-0.002444,0.02097,-0.000947
443,0.512981,-0.327419,-0.892028,0.464704,0.3216,-0.8249989999999999,0.006464,-0.010629000000000001,0.000512,-0.001371,0.016977000000000003,-0.001707
444,0.512737,-0.327295,-0.892108,0.46452299999999996,0.321483,-0.825147,0.006469,-0.010625,-0.000556,-0.001189,0.017095,-0.001559
445,0.512458,-0.327288,-0.892215,0.464293,0.321477,-0.8252780000000001,0.0054020000000000006,-0.012743,-0.0026969999999999997,-0.0026079999999999996,0.019374000000000002,-0.0005269999999999999
446,0.512163,-0.327228,-0.892324,0.464059,0.32142,-0.8254319999999999,0.007534999999999999,-0.01169,-0.001616,-0.005243,0.020332,-0.000328
447,0.512081,-0.327203,-0.8923260000000001,0.463995,0.321396,-0.825477,9.6e-05,3.3e-05,0.0036590000000000004,-0.0041259999999999995,0.025116,-0.001183
448,0.512143,-0.327212,-0.892236,0.464046,0.321405,-0.8254459999999999,0.000101,0.00322,0.005790999999999999,-0.004542,0.019507,0.001303
449,0.512206,-0.327205,-0.892164,0.46409799999999996,0.321397,-0.825419,0.000101,0.001098,0.003657,-0.004488000000000001,0.018080000000000002,-0.002096
450,0.512243,-0.327169,-0.8921049999999999,0.464135,0.321364,-0.825411,0.003297,0.001083,0.004748,0.0007700000000000001,0.019472,-0.002134
451,0.512174,-0.327083,-0.892065,0.464091,0.321282,-0.825468,0.004531,-0.007789,0.007014,-0.0009720000000000001,0.019218,-0.0011769999999999999
452,0.5119199999999999,-0.327007,-0.8919889999999999,0.463894,0.32121,-0.825607,0.0034409999999999996,-0.015234000000000001,0.00488,-0.005443,0.01726,0.000824
453,0.5116850000000001,-0.326898,-0.8919370000000001,0.463717,0.32110700000000003,-0.8257459999999999,0.005603,-0.00885,0.004887,-0.006106,0.013045,-0.000136
454,0.511523,-0.326739,-0.891942,0.463608,0.320957,-0.825866,0.008813,-0.007790999999999999,0.003839,-0.005173,0.017894999999999998,0.0021809999999999998
455,0.511434,-0.32661999999999997,-0.891928,0.463553,0.320843,-0.825941,0.0077659999999999995,-0.002466,0.004893,-0.005164,0.019504,-0.002993
456,0.511314,-0.32650100000000004,-0.891975,0.46347299999999997,0.320731,-0.8260299999999999,0.008832,-0.005652,0.0017,-0.002062,0.021341,0.000178
457,0.511213,-0.326383,-0.892034,0.463408,0.320619,-0.826109,0.00778,-0.001392,0.0027559999999999998,-0.0029739999999999996,0.02307,0.000502
458,0.5111680000000001,-0.32626,-0.8920459999999999,0.46338999999999997,0.320502,-0.8261639999999999,0.0069180000000000005,-0.0038659999999999996,0.0028699999999999997,-0.003979,0.022805000000000002,-0.001015
459,0.511027,-0.32610100000000003,-0.892069,0.46329799999999993,0.320352,-0.826274,0.007965,-0.007069,0.003949,-0.005291,0.019415,0.001369
460,0.510895,-0.32595799999999997,-0.892085,0.463212,0.320216,-0.826376,0.00797,-0.004943,0.0050149999999999995,-0.003037,0.017598,0.0035299999999999997
461,0.510803,-0.325846,-0.892083,0.463153,0.32011100000000003,-0.826449,0.006903,-0.006,0.00394,-0.0016510000000000001,0.019336000000000002,-0.000379
462,0.510648,-0.325708,-0.892059,0.46304700000000004,0.319979,-0.8265600000000001,0.0068790000000000006,-0.009205,0.0060810000000000005,-0.0006900000000000001,0.019819,9.8e-05
463,0.5105350000000001,-0.32559099999999996,-0.8920030000000001,0.462971,0.319869,-0.8266450000000001,0.005822,-0.00601,0.007137,-0.0046429999999999996,0.016937999999999998,0.00010700000000000001
464,0.510417,-0.325449,-0.891964,0.462897,0.319734,-0.8267389999999999,0.006903,-0.004939,0.005007,-0.006384,0.018889,-0.002287
465,0.510354,-0.325294,-0.891898,0.462869,0.319587,-0.8268110000000001,0.00796,-0.0038909999999999995,0.008218000000000001,-0.0008939999999999999,0.01841,-0.000505
466,0.510265,-0.32512399999999997,-0.8918159999999999,0.462821,0.31942600000000004,-0.8269,0.006986,-0.007306,0.008288,-0.00257,0.017747,-0.001302
467,0.510097,-0.325018,-0.891767,0.46269899999999997,0.319326,-0.8270069999999999,0.003795,-0.010469,0.0029289999999999997,-0.005499,0.016733,-0.00185
468,0.509858,-0.325013,-0.891733,0.462502,0.319322,-0.827119,0.00059,-0.011524,0.002908,-0.0055320000000000005,0.019668,-0.001327
469,0.5096470000000001,-0.32500100000000004,-0.8916950000000001,0.46233,0.31931,-0.8272200000000001,0.002728,-0.010466,0.0029219999999999997,-0.0015300000000000001,0.021616999999999997,0.001231
470,0.509459,-0.324923,-0.8916379999999999,0.462186,0.319235,-0.8273290000000001,0.002723,-0.009409,0.005057,-0.003385,0.021203,-0.002459
471,0.509285,-0.324814,-0.8915959999999999,0.462059,0.319133,-0.8274389999999999,0.004857,-0.009415999999999999,0.005072,-0.002845,0.019306999999999998,0.000169
472,0.5090979999999999,-0.324764,-0.8915290000000001,0.461912,0.319085,-0.8275389999999999,0.001652,-0.010471,0.005051,-0.002302,0.019767,0.001093
473,0.508898,-0.324729,-0.891465,0.46175200000000005,0.319052,-0.827642,0.001652,-0.011531999999999999,0.0039840000000000006,-0.005163,0.017800999999999997,0.002095
474,0.508656,-0.324671,-0.8914280000000001,0.46156099999999994,0.318997,-0.8277700000000001,0.003811,-0.010535,0.004036,1.8e-05,0.020938,-0.003117
475,0.5085430000000001,-0.32460700000000003,-0.891342,0.461477,0.318936,-0.8278399999999999,0.0016870000000000001,-0.005214,0.007219,-0.0010429999999999999,0.020145,-0.001979
476,0.50855,-0.32458400000000004,-0.8911969999999999,0.46148599999999995,0.318915,-0.827843,-0.001495,0.00011899999999999999,0.008258,-0.004882,0.015771,-8.4e-05
477,0.508571,-0.32461100000000004,-0.891091,0.4615,0.31894,-0.827825,-0.001471,-0.000921,0.0018510000000000002,-0.002745,0.019149,-0.002298
478,0.5085890000000001,-0.32463600000000004,-0.891086,0.46151099999999995,0.31896399999999997,-0.82781,0.001749,0.002268,0.000801,-0.000192,0.018728,-0.0021149999999999997
479,0.508559,-0.324598,-0.891049,0.461492,0.31892800000000004,-0.827835,0.001696,-0.0052060000000000006,0.005083,-0.0016829999999999998,0.020946,-0.001084
480,0.5084529999999999,-0.324538,-0.890921,0.461413,0.318871,-0.827901,0.000606,-0.008406,0.007215999999999999,-0.00339,0.019111000000000003,-0.001384
481,0.508308,-0.3245,-0.890842,0.4613,0.318835,-0.8279780000000001,0.003825,-0.007339,0.004032,-0.001583,0.018552000000000003,0.00179
482,0.5081760000000001,-0.324417,-0.8907950000000001,0.461203,0.318756,-0.8280620000000001,0.003776,-0.008371,0.006176,-0.00556,0.023361,0.00044
483,0.507994,-0.324365,-0.89065,0.46106,0.318707,-0.82816,-0.000515,-0.012620999999999999,0.00722,-0.0033880000000000004,0.022678,0.00237
484,0.507789,-0.324363,-0.8905559999999999,0.46088999999999997,0.318705,-0.828255,0.0005809999999999999,-0.009415999999999999,0.004019,-0.0037979999999999997,0.019536,0.0006190000000000001
485,0.50771,-0.324345,-0.8905430000000001,0.46082799999999996,0.318688,-0.828297,0.0038200000000000005,-0.001967,0.002964,-0.000791,0.01966,0.000889
486,0.507588,-0.324318,-0.8905219999999999,0.46073100000000006,0.318662,-0.82836,0.002734,-0.008346,0.000828,-0.003715,0.019121,-0.001046
487,0.507412,-0.324279,-0.8904989999999999,0.460592,0.318625,-0.8284520000000001,0.00059,-0.007286,0.004016,-0.002935,0.017144,0.00106
488,0.507289,-0.32431,-0.89046,0.46048500000000003,0.318654,-0.8285,0.000605,-0.005151,0.002945,-0.0014089999999999999,0.016658000000000003,-0.001242
489,0.5072260000000001,-0.32429,-0.890389,0.46043500000000004,0.31863600000000003,-0.828535,0.000595,-0.0051600000000000005,0.005082,-0.000352,0.018446,-0.0024129999999999998
490,0.507096,-0.32426900000000003,-0.890308,0.46033100000000005,0.318616,-0.828601,0.00049,-0.009313,0.002907,-0.005757,0.019061,-0.000226
491,0.5069319999999999,-0.324282,-0.890251,0.460193,0.318628,-0.828672,-0.0005769999999999999,-0.009309,0.0029,-0.004673,0.017233000000000002,0.0016
492,0.506789,-0.324285,-0.8902190000000001,0.460074,0.318632,-0.828738,-0.000562,-0.007175,0.001829,-0.00469,0.019046,0.0014060000000000001
493,0.5066729999999999,-0.324407,-0.8901469999999999,0.459959,0.318747,-0.828757,-0.0058920000000000005,-0.0071519999999999995,0.000723,-0.006285,0.017038,-0.004358
494,0.506518,-0.324571,-0.890058,0.459805,0.31890300000000005,-0.828782,-0.009106999999999999,-0.009275,0.001772,-0.00224,0.020163,-0.000746
495,0.506386,-0.324693,-0.8899239999999999,0.45967700000000006,0.31901799999999997,-0.828809,-0.00804,-0.007156999999999999,0.003913000000000001,-0.000724,0.017301,0.000394
496,0.506247,-0.32481,-0.889782,0.45954399999999995,0.319129,-0.8288399999999999,-0.00271,-0.008241,0.003951,-0.001261,0.017006999999999998,0.0017989999999999998
497,0.506132,-0.32477,-0.8897200000000001,0.459454,0.31909099999999996,-0.8289049999999999,0.0037049999999999995,-0.005068,0.003992,-0.002866,0.017702000000000002,0.0030989999999999998
498,0.505983,-0.32466799999999996,-0.889766,0.459347,0.318994,-0.829001,0.007843000000000001,-0.005997,0.000734,-0.004879,0.018805000000000002,0.003653
499,0.505866,-0.324577,-0.889827,0.459264,0.31890799999999997,-0.8290799999999999,0.005719,-0.00492,-0.00035,-0.001546,0.017823,0.0019010000000000001
500,0.50581,-0.32450500000000004,-0.8898879999999999,0.459229,0.318839,-0.829126,0.004672,-0.000655,-0.000363,0.000122,0.017541,0.001627
501,0.5058239999999999,-0.324437,-0.8899299999999999,0.459251,0.318775,-0.829139,0.005743,0.001467,0.0007099999999999999,-0.003807,0.017575,-0.001748
502,0.505781,-0.324362,-0.890019,0.45922700000000005,0.318704,-0.8291790000000001,0.007877,-0.000662,-0.0014089999999999999,-0.002821,0.020133,-0.003065
503,0.505872,-0.324304,-0.890069,0.45931099999999997,0.31864899999999996,-0.8291540000000001,0.0036340000000000005,0.007862000000000001,0.001755,-0.0028899999999999998,0.014266999999999998,0.000678
504,0.5061329999999999,-0.324282,-0.890036,0.459531,0.318628,-0.82904,-0.000605,0.015328999999999999,0.002784,-0.006742000000000001,0.014258000000000002,0.000106
505,0.5065149999999999,-0.324317,-0.889978,0.45984200000000003,0.318661,-0.8288549999999999,-0.00271,0.019606000000000002,0.000628,-0.008838,0.016056,-0.0017420000000000003
506,0.506843,-0.324416,-0.889998,0.46009799999999995,0.318756,-0.828676,0.000366,0.016611,-0.0037340000000000003,-0.001465,0.016297,-0.0032939999999999996
507,0.507121,-0.324475,-0.890084,0.46032,0.318811,-0.8285319999999999,-0.00072,0.011293000000000001,-0.004803,-0.003228,0.018637,-0.002889
508,0.507201,-0.324626,-0.8900950000000001,0.460363,0.318954,-0.8284530000000001,-0.007164,0.0027890000000000002,-0.0037689999999999998,-0.00144,0.017349,-0.003319
509,0.5072439999999999,-0.324871,-0.8900440000000001,0.46036000000000005,0.319187,-0.828365,-0.009293000000000001,0.004922999999999999,-0.002718,0.0019809999999999997,0.01878,0.004894
510,0.507408,-0.325015,-0.890008,0.460474,0.319323,-0.828249,-0.005007,0.01023,-0.001627,-0.000651,0.019223,0.001222
511,0.5075770000000001,-0.32512800000000003,-0.8900309999999999,0.460596,0.31943,-0.82814,-0.001801,0.010223000000000001,-0.002673,-0.003443,0.020216,0.0032189999999999996
512,0.507788,-0.325205,-0.8900899999999999,0.46075900000000003,0.31950300000000004,-0.8280209999999999,-0.000715,0.012358,-0.004804,-0.000157,0.016648,-5.7999999999999994e-05
513,0.5080359999999999,-0.325283,-0.8901540000000001,0.460953,0.319577,-0.827885,-0.001782,0.012362,-0.0048119999999999994,-0.000717,0.017703,-0.002529
514,0.5082810000000001,-0.325393,-0.890201,0.461138,0.319681,-0.827741,-0.0028539999999999998,0.0113,-0.004818,-0.003008,0.018637,-0.000704
515,0.508484,-0.32556799999999997,-0.8902120000000001,0.461279,0.319847,-0.827599,-0.005101,0.011484000000000001,-0.0017579999999999998,-0.005682,0.019478,-0.001777
516,0.508767,-0.32573,-0.8902,0.461488,0.32,-0.8274229999999999,-0.005082,0.014684000000000001,-0.00283,-0.002092,0.019400999999999998,-0.001206
517,0.5090819999999999,-0.325877,-0.890194,0.461725,0.32014000000000004,-0.8272360000000001,-0.007215999999999999,0.014691999999999998,-0.002845,-0.002344,0.017384,-0.001285
518,0.509315,-0.326067,-0.890225,0.46188900000000005,0.32032,-0.827076,-0.006154,0.010440000000000001,-0.006037,-0.004674,0.016869,0.000293
519,0.509529,-0.326254,-0.890266,0.46203599999999995,0.320497,-0.826925,-0.006149,0.012565999999999999,-0.004971,-0.0043490000000000004,0.018111000000000002,-0.000346
520,0.509831,-0.326482,-0.890283,0.46225,0.320713,-0.8267209999999999,-0.008263,0.017896000000000002,-0.003925,-0.004227000000000001,0.018078,0.000733
521,0.510207,-0.326736,-0.8902620000000001,0.462521,0.32095300000000004,-0.826477,-0.011448999999999999,0.020041999999999997,-0.005018,-0.003949,0.016495,-0.002594
522,0.5105310000000001,-0.327007,-0.890286,0.462747,0.32121,-0.82625,-0.009401000000000001,0.014922999999999999,-0.008324,-0.004724,0.015413999999999999,-0.001997
523,0.510788,-0.327298,-0.890383,0.462913,0.32148499999999997,-0.82605,-0.008319,0.015993,-0.010454999999999999,-0.0015019999999999999,0.016176,0.000397
524,0.511087,-0.32759299999999997,-0.89046,0.463114,0.321765,-0.825829,-0.010453,0.016,-0.01047,0.00031099999999999997,0.015668,-0.000404
525,0.511376,-0.327897,-0.89051,0.463305,0.32205300000000003,-0.825609,-0.009405,0.014918,-0.007256,-0.00371,0.017318,-0.0014320000000000001
526,0.511634,-0.328254,-0.8905049999999999,0.46346099999999996,0.322391,-0.82539,-0.014749000000000002,0.011746,-0.008357999999999999,5.5e-05,0.017438,0.0005610000000000001
527,0.511871,-0.32862600000000003,-0.8904540000000001,0.46359799999999995,0.322743,-0.825175,-0.016893000000000002,0.011745,-0.006236,-0.00057,0.018413,-0.001134
528,0.512151,-0.328982,-0.890382,0.463772,0.32308000000000003,-0.824945,-0.014754,0.013863,-0.005156,-0.001416,0.018,0.001169
529,0.512408,-0.329373,-0.890337,0.463923,0.32345,-0.824716,-0.015816,0.011748999999999999,-0.008365000000000001,-0.002848,0.016119,0.001474
530,0.5125890000000001,-0.329665,-0.890323,0.46402600000000005,0.323726,-0.824549,-0.011576999999999999,0.006404000000000001,-0.007259999999999999,-0.0036829999999999996,0.01865,0.002848
531,0.512703,-0.329941,-0.8903340000000001,0.464075,0.32398699999999997,-0.824419,-0.009481999999999999,0.006605,-0.006289,-0.002177,0.017336,-0.000395
532,0.512972,-0.330232,-0.89025,0.464251,0.324263,-0.8242120000000001,-0.015878,0.012997,-0.001001,-0.006854000000000001,0.015916999999999997,0.000557
533,0.5132680000000001,-0.330527,-0.890122,0.46444799999999997,0.324542,-0.823991,-0.014811000000000001,0.011933,-0.00206,-0.007691,0.012754000000000001,-0.001083
534,0.513512,-0.330796,-0.890141,0.464606,0.32479600000000003,-0.823801,-0.00731,0.012997,-0.008419,-0.0026620000000000003,0.017093,-0.0018059999999999999
535,0.5137470000000001,-0.331012,-0.8902469999999999,0.464765,0.325,-0.823631,-0.007305,0.015124,-0.007353,7.900000000000001e-05,0.018292,-0.0016710000000000002
536,0.514008,-0.331261,-0.890292,0.46493999999999996,0.325236,-0.8234389999999999,-0.009463,0.011927,-0.005228,-0.004217,0.018438,-0.000246
537,0.514183,-0.331488,-0.8902979999999999,0.465049,0.32545100000000005,-0.823293,-0.009472,0.010856999999999999,-0.004158,-0.006217,0.015171,-0.002207
538,0.514428,-0.331683,-0.890238,0.46521899999999994,0.32563400000000003,-0.823124,-0.0074,0.011993,-0.001016,-0.006845,0.01659,0.002064
539,0.5146390000000001,-0.331766,-0.8902030000000001,0.465379,0.32571300000000003,-0.823003,4e-05,0.007697,0.0011769999999999999,-0.007097,0.01967,0.000767
540,0.514776,-0.331811,-0.890214,0.46548500000000004,0.325756,-0.822926,4.4e-05,0.006640000000000001,-0.000958,-0.005509,0.018711000000000002,0.001392
541,0.514834,-0.331835,-0.890257,0.465528,0.325779,-0.822892,0.001106,0.0034490000000000002,-0.003083,-0.0023940000000000003,0.019635,-0.000869
542,0.514828,-0.331876,-0.89031,0.465517,0.325818,-0.822883,1.6e-05,-0.0008119999999999999,-0.002016,-0.0008410000000000001,0.022037,-0.000542
543,0.514737,-0.331908,-0.8903200000000001,0.465437,0.325847,-0.822917,0.001044,-0.007215999999999999,0.000135,-0.001265,0.017842,0.001582
544,0.514528,-0.331867,-0.890331,0.465271,0.325809,-0.823026,0.004221,-0.010431999999999999,0.002298,-0.001846,0.016766,0.001126
545,0.514333,-0.33176,-0.8903409999999999,0.465129,0.325708,-0.8231459999999999,0.008483,-0.010451,0.003396,-0.0006360000000000001,0.017203,0.003368
546,0.514134,-0.331648,-0.890367,0.46498199999999995,0.325602,-0.8232709999999999,0.007426,-0.010502,0.002297,-0.000459,0.017644999999999997,-9.300000000000001e-05
547,0.513894,-0.33155300000000004,-0.8904,0.4648,0.32551199999999997,-0.8234100000000001,0.005293,-0.011555,0.001215,0.0005480000000000001,0.014683000000000002,-0.000687
548,0.513656,-0.331441,-0.8904489999999999,0.46462200000000003,0.325406,-0.8235520000000001,0.008489,-0.011571,0.002306,-0.00251,0.013752,-0.0033979999999999995
549,0.513406,-0.331325,-0.8904850000000001,0.46443500000000004,0.325297,-0.8237,0.007417,-0.012631999999999999,0.0023,-0.00246,0.015538999999999999,-0.0029289999999999997
550,0.513209,-0.331203,-0.890488,0.464292,0.325181,-0.8238270000000001,0.005298,-0.008368,0.003348,-0.00366,0.017242,-0.001033
551,0.513029,-0.331108,-0.8904860000000001,0.464159,0.32509099999999996,-0.823937,0.00636,-0.009437000000000001,0.003356,-0.004945000000000001,0.016798,0.0006799999999999999
552,0.5128060000000001,-0.331,-0.890516,0.463992,0.324989,-0.8240709999999999,0.004231,-0.010486,0.001206,-0.004397,0.018897999999999998,-0.000788
553,0.512618,-0.330932,-0.8905360000000001,0.463848,0.324924,-0.8241780000000001,0.00424,-0.008356,0.001204,-0.005154,0.017315,-0.001186
554,0.512428,-0.330906,-0.8905620000000001,0.46369499999999997,0.3249,-0.8242729999999999,0.003251,-0.009613,0.000169,-0.003048,0.019735,-0.001853
555,0.5121939999999999,-0.33084600000000003,-0.8905930000000001,0.463512,0.324843,-0.824399,0.0064329999999999995,-0.012824,0.0012640000000000001,-0.003918,0.018357,-0.000324
556,0.511954,-0.330691,-0.890633,0.46333900000000006,0.324696,-0.8245540000000001,0.008565999999999999,-0.010709999999999999,0.0034119999999999997,-0.007239,0.017863,0.000793
557,0.511772,-0.33055300000000004,-0.890667,0.463211,0.32456599999999997,-0.824677,0.009651999999999999,-0.006451999999999999,0.003414,-0.00325,0.017307,0.001038
558,0.5116,-0.330386,-0.890727,0.463096,0.324408,-0.8248040000000001,0.009651999999999999,-0.008574,0.001281,-0.000312,0.016885,0.001913
559,0.511364,-0.330229,-0.8908020000000001,0.462925,0.32426,-0.824958,0.009633,-0.012835,0.001286,-0.002568,0.015599000000000002,0.000953
560,0.5111600000000001,-0.33006399999999997,-0.8908790000000001,0.46278400000000003,0.324104,-0.825099,0.010729,-0.005386999999999999,0.002352,0.000534,0.019493,-0.001714
561,0.511174,-0.329848,-0.890883,0.462829,0.323899,-0.825153,0.011834,0.006314999999999999,0.00555,-0.003113,0.020003999999999997,-0.002346
562,0.511362,-0.329545,-0.890769,0.463033,0.323612,-0.825152,0.004318,0.006298,0.016179,-0.003698,0.015392,0.00107
563,0.511383,-0.329404,-0.890704,0.46307200000000004,0.323479,-0.825182,0.008806,-0.0035299999999999997,0.001371,-0.000593,0.013771,0.003496
564,0.511283,-0.329329,-0.8908469999999999,0.463001,0.323408,-0.82525,0.00885,0.000752,-0.003975,-0.004703,0.01491,-0.000312
565,0.51126,-0.32916100000000004,-0.8909159999999999,0.463009,0.32324899999999995,-0.825307,0.010921,-0.0035549999999999996,0.005659,-0.0045590000000000006,0.019097,-0.003993
566,0.511096,-0.32892899999999997,-0.8909229999999999,0.46291000000000004,0.32303000000000004,-0.825449,0.011954000000000001,-0.011015,0.005676,0.00114,0.019423,0.000589
567,0.510772,-0.328731,-0.890951,0.462675,0.322842,-0.8256540000000001,0.008734,-0.017387,0.003525,-0.0057350000000000005,0.015735,-0.0015550000000000002
568,0.510405,-0.328598,-0.890948,0.462392,0.322716,-0.8258620000000001,0.005524,-0.018446,0.004572,-0.004751,0.016531999999999998,-0.000722
569,0.5100819999999999,-0.328453,-0.8908790000000001,0.46214799999999995,0.322579,-0.826052,0.005519,-0.016328,0.007774,-0.00324,0.018012,-0.004026
570,0.509833,-0.328291,-0.8907950000000001,0.46196800000000005,0.32242600000000005,-0.8262120000000001,0.005534000000000001,-0.014193,0.006703,-0.0038079999999999998,0.019096000000000002,-0.004202
571,0.509604,-0.328191,-0.89076,0.46179499999999996,0.322331,-0.8263459999999999,0.004722,-0.012371,0.004679,-0.005145,0.019176,0.000998
572,0.509365,-0.32810100000000003,-0.890741,0.461611,0.322246,-0.8264819999999999,0.004727,-0.012366,0.003611,-0.0022600000000000003,0.017369,-0.000178
573,0.509143,-0.327997,-0.890699,0.46144399999999997,0.32214699999999996,-0.826614,0.0036560000000000004,-0.011306,0.005738,-0.000125,0.018047999999999998,7.6e-05
574,0.5089560000000001,-0.327924,-0.890647,0.4613,0.32207800000000003,-0.8267209999999999,0.0047420000000000006,-0.00811,0.004674,-0.0005610000000000001,0.015995,-0.000321
575,0.508808,-0.327834,-0.890633,0.461193,0.321993,-0.8268139999999999,0.0058130000000000005,-0.008109,0.0036130000000000003,-0.001964,0.0175,-0.000655
576,0.508644,-0.327729,-0.890609,0.46107299999999996,0.321894,-0.8269190000000001,0.004746,-0.007044,0.004672,-0.0017690000000000002,0.019155000000000002,-0.000489
577,0.508497,-0.327621,-0.890552,0.46096899999999996,0.321791,-0.827018,0.004732,-0.008118,0.006809999999999999,-0.0018620000000000002,0.017213,-0.001428
578,0.508347,-0.327511,-0.890467,0.460862,0.321687,-0.827118,0.004718,-0.011314,0.006814,-0.00496,0.016463,-0.00047300000000000006
579,0.508142,-0.327427,-0.8903979999999999,0.46070600000000006,0.321608,-0.8272360000000001,0.002739,-0.011508,0.0058130000000000005,-0.0034460000000000003,0.018678999999999998,0.0005139999999999999
580,0.5079779999999999,-0.327382,-0.890337,0.46057700000000007,0.32156599999999996,-0.827324,0.0027530000000000002,-0.008312,0.005809,-0.0035,0.015837,-0.00193
581,0.507841,-0.327343,-0.8902950000000001,0.46046899999999996,0.32152800000000004,-0.827398,0.002773,-0.007234,0.0026030000000000003,-0.003698,0.015844,0.000265
582,0.507703,-0.327302,-0.8902770000000001,0.460362,0.32149,-0.8274729999999999,-0.00042300000000000004,-0.0072180000000000005,0.001513,-0.0019420000000000001,0.018644,0.000752
583,0.507601,-0.32729899999999995,-0.890236,0.46027799999999996,0.32148699999999997,-0.827521,0.000644,-0.004039,0.004721,-0.00037799999999999997,0.017304,0.000433
584,0.507512,-0.327226,-0.890157,0.46021599999999996,0.321418,-0.8275819999999999,0.004897,-0.005128,0.006887999999999999,-0.001369,0.015939,-0.002008
585,0.507472,-0.327063,-0.890069,0.460208,0.321264,-0.8276459999999999,0.007035,-0.003009,0.007969,-0.006397,0.018779,-0.000342
586,0.50742,-0.32695799999999997,-0.890049,0.46018100000000006,0.321164,-0.8277,0.003886,-0.004063000000000001,0.0026379999999999997,-0.005592,0.023471000000000002,0.0019089999999999999
587,0.507312,-0.326953,-0.8900379999999999,0.46009300000000003,0.32115900000000003,-0.827751,-0.001458,-0.007236,0.001536,-0.00175,0.018028,0.001655
588,0.507161,-0.32695599999999997,-0.8899309999999999,0.45996800000000004,0.321162,-0.8278190000000001,-0.001486,-0.010444,0.004745,0.0035329999999999997,0.011479999999999999,-0.002198
589,0.507001,-0.326927,-0.8898290000000001,0.45983900000000005,0.32113400000000003,-0.827901,0.0017239999999999998,-0.007264,0.005832,0.001236,0.016833,-0.0068920000000000006
590,0.506869,-0.326886,-0.889748,0.459737,0.321096,-0.827973,0.001719,-0.00939,0.004765999999999999,-0.004582,0.015284,0.00038199999999999996
591,0.5067510000000001,-0.3269,-0.8896790000000001,0.45963699999999996,0.321108,-0.828024,-0.00251,-0.004036,0.001525,-0.006451,0.011609999999999999,0.002859
592,0.506793,-0.32693099999999997,-0.8896379999999999,0.459667,0.32113800000000003,-0.827995,-0.000338,0.004479,0.001529,-0.000454,0.015378999999999999,-2.3e-05
593,0.506884,-0.326894,-0.8896290000000001,0.45974799999999993,0.321103,-0.8279639999999999,0.002863,0.0044670000000000005,0.001552,0.002456,0.018191,-0.0025109999999999998
594,0.50688,-0.326845,-0.889599,0.45975200000000005,0.321056,-0.8279799999999999,0.000596,-0.005064,0.0047350000000000005,-0.002721,0.019703000000000002,-0.00312
595,0.506704,-0.326829,-0.8895219999999999,0.459609,0.321042,-0.8280649999999999,-0.00048499999999999997,-0.010378,0.002598,-0.004256,0.017566,-0.001342
596,0.506495,-0.32679,-0.889509,0.459442,0.321004,-0.8281719999999999,0.004854,-0.010393000000000001,0.001567,-0.002227,0.018106999999999998,0.0019850000000000002
597,0.506316,-0.32668600000000003,-0.8895120000000001,0.45931000000000005,0.32090599999999997,-0.828283,0.005915999999999999,-0.009340000000000001,0.00371,-0.0010119999999999999,0.02025,0.001852
598,0.5061829999999999,-0.32660700000000004,-0.889468,0.459212,0.320831,-0.828367,0.004864,-0.00614,0.003698,-0.002913,0.0159,-0.00162
599,0.5060359999999999,-0.326529,-0.889482,0.45910200000000007,0.320757,-0.828456,0.004873,-0.0071920000000000005,0.000495,-0.004070000000000001,0.016401,-0.00095
600,0.505923,-0.32649,-0.889517,0.45901499999999995,0.32072,-0.828519,0.003821,-0.005054,-0.000583,-0.001282,0.018254,-0.0017879999999999999
601,0.505825,-0.326453,-0.8895639999999999,0.45893900000000004,0.320686,-0.828575,0.003821,-0.005054,-0.000583,-0.001541,0.014778999999999999,-0.002968
602,0.505679,-0.326399,-0.889609,0.45882700000000004,0.32063400000000003,-0.828656,0.005801,-0.005986,-0.000633,-0.00059,0.014325999999999998,-0.000231
603,0.505587,-0.32637,-0.889642,0.458755,0.32060700000000003,-0.828707,0.001552,-0.0017100000000000001,-0.000668,-0.0009,0.015269999999999999,-2.8000000000000003e-05
604,0.505594,-0.32640399999999997,-0.8896290000000001,0.458755,0.320639,-0.828694,-0.0005769999999999999,0.001484,0.001449,-0.000381,0.015757,-0.0019030000000000002
605,0.50566,-0.326449,-0.889602,0.45880299999999996,0.320681,-0.828651,-0.0016239999999999998,0.004688,0.00037,-0.002321,0.01846,-0.002892
606,0.505779,-0.326497,-0.889591,0.458895,0.320727,-0.828583,-0.003744,0.00683,-0.0007160000000000001,-0.002382,0.018216,-0.00042699999999999997
607,0.505944,-0.326631,-0.889569,0.45901000000000003,0.320854,-0.82847,-0.0069299999999999995,0.007915,-0.002876,-0.003215,0.014687,-0.0004940000000000001
608,0.5060939999999999,-0.326802,-0.889553,0.459108,0.32101599999999997,-0.8283530000000001,-0.005863,0.007912,-0.002869,-0.001314,0.018004,-0.0016179999999999999
609,0.506213,-0.326919,-0.8895569999999999,0.459188,0.321127,-0.8282649999999999,-0.004811,0.0057729999999999995,-0.00179,-0.003042,0.019266,6.4e-05
610,0.506333,-0.327029,-0.889532,0.459271,0.321231,-0.8281799999999999,-0.004811,0.0057729999999999995,-0.00179,-0.00108,0.016004,0.002008
611,0.506463,-0.327144,-0.8895569999999999,0.45936000000000005,0.32134,-0.8280870000000001,-0.001748,0.008106,-0.002939,-0.002848,0.018199,-0.002189
612,0.506667,-0.327234,-0.8895379999999999,0.45951499999999995,0.321425,-0.827968,-0.004943,0.011304999999999999,-0.0008289999999999999,-0.003399,0.017457,-0.00214
613,0.50692,-0.327378,-0.889524,0.45970200000000006,0.321562,-0.8278110000000001,-0.004934,0.012374,-0.0018989999999999999,-0.001038,0.016649,0.001273
614,0.507143,-0.327517,-0.889517,0.45986499999999997,0.321693,-0.8276700000000001,-0.006000999999999999,0.011317,-0.002973,-0.00323,0.015496000000000001,-0.002454
615,0.507402,-0.327701,-0.889481,0.46005,0.321867,-0.827499,-0.009192,0.013459,-0.0029980000000000002,-0.0010810000000000001,0.015382,-0.003159
616,0.5077189999999999,-0.327893,-0.889484,0.46028199999999997,0.322049,-0.827299,-0.007034,0.017716,-0.004057,-0.0014199999999999998,0.017443,-0.0011
617,0.508083,-0.32809,-0.889484,0.460553,0.322236,-0.827076,-0.008101,0.01772,-0.004064,3.4e-05,0.016692,0.0018809999999999999
618,0.508351,-0.32826900000000003,-0.8894989999999999,0.460746,0.322405,-0.826903,-0.004924,0.012383,-0.004035,-0.002449,0.014372,0.0007610000000000001
619,0.5085729999999999,-0.328418,-0.8895209999999999,0.46090699999999996,0.322546,-0.826758,-0.006121,0.013661000000000001,-0.003094,0.000229,0.021219,-0.00213
620,0.5088630000000001,-0.328639,-0.889489,0.461111,0.322755,-0.8265620000000001,-0.012527,0.013678999999999998,-0.002071,-0.003378,0.0157,0.003686
621,0.509201,-0.328879,-0.8894110000000001,0.46135299999999996,0.322982,-0.8263389999999999,-0.012518000000000001,0.015809,-0.002073,-0.004841,0.013779,0.001418
622,0.509482,-0.329113,-0.8893969999999999,0.46154799999999996,0.323204,-0.8261430000000001,-0.006111999999999999,0.012608,-0.006297,0.001678,0.014946000000000001,-0.003355
623,0.509677,-0.32926700000000003,-0.889468,0.461685,0.323349,-0.82601,-0.0039829999999999996,0.011535,-0.006281,0.002472,0.016600999999999998,-0.002222
624,0.509812,-0.32942,-0.889508,0.46177299999999993,0.323494,-0.8259040000000001,-0.0061649999999999995,0.003012,-0.004149,-0.0013390000000000001,0.016715999999999998,0.0013650000000000001
625,0.509892,-0.329598,-0.8894620000000001,0.46181000000000005,0.32366300000000003,-0.825817,-0.008298,0.005142,-0.00203,-0.002719,0.014091,-0.001484
626,0.51007,-0.329756,-0.8893790000000001,0.461933,0.323813,-0.8256899999999999,-0.006155,0.008326,-0.000951,-0.003009,0.015375,0.00112
627,0.510284,-0.329896,-0.8893459999999999,0.46208699999999997,0.323945,-0.825551,-0.006235,0.011723,-0.002144,-0.005666,0.0195,-0.000758
628,0.51058,-0.330079,-0.8893049999999999,0.46230200000000005,0.32411799999999996,-0.825363,-0.007287,0.013861000000000002,-0.003222,-0.004981,0.017343,-0.00235
629,0.5108010000000001,-0.330228,-0.8893209999999999,0.462462,0.324259,-0.825218,-0.005158,0.010667,-0.00534,-0.0033399999999999997,0.01589,0.001519
630,0.5109899999999999,-0.330441,-0.889349,0.462584,0.32445999999999997,-0.8250709999999999,-0.007287,0.010678,-0.006423000000000001,-0.001067,0.017337,0.000608
631,0.511161,-0.33067399999999997,-0.889393,0.462687,0.324681,-0.824926,-0.007301,0.007481999999999999,-0.006418999999999999,-0.002223,0.016597,0.001562
632,0.511271,-0.330882,-0.8894639999999999,0.462746,0.32487699999999997,-0.824816,-0.006235,0.007479,-0.006411,-0.004784,0.014463,0.000597
633,0.5114029999999999,-0.33107800000000004,-0.889498,0.46282299999999993,0.32506199999999996,-0.824699,-0.007306,0.007478,-0.00535,-0.000696,0.015727,0.00019099999999999998
634,0.511522,-0.33123,-0.889516,0.462897,0.325206,-0.824601,-0.004222,0.005515,-0.00329,-0.0005549999999999999,0.015461,-0.0005639999999999999
635,0.511603,-0.331382,-0.8895350000000001,0.46293999999999996,0.32535,-0.82452,-0.005294,0.003393,-0.0043630000000000006,0.0007599999999999999,0.014936000000000001,0.000515
636,0.511658,-0.331543,-0.8895559999999999,0.462959,0.325502,-0.82445,-0.005299,0.003389,-0.0032939999999999996,-0.0019760000000000003,0.014616,0.0014210000000000002
637,0.511735,-0.331664,-0.889558,0.463003,0.325617,-0.8243799999999999,-0.004242,0.0033759999999999997,-0.001151,-0.002783,0.015356,0.001183
638,0.51175,-0.331717,-0.889559,0.46300699999999995,0.325667,-0.824358,2e-06,-0.000904,-4.7e-05,-0.0036409999999999997,0.016527,0.00316
639,0.511703,-0.33171300000000004,-0.8895879999999999,0.46296899999999996,0.32566300000000004,-0.8243809999999999,0.0021260000000000003,-0.003042,-2.9999999999999997e-05,-0.001452,0.017279,0.000177
640,0.511604,-0.331717,-0.889581,0.462887,0.325667,-0.824425,0.001045,-0.005173,0.001034,-0.003796,0.016222,-0.0020670000000000003
641,0.511462,-0.33168200000000003,-0.889597,0.462776,0.32563400000000003,-0.824501,0.003169,-0.007311,0.001051,-0.002937,0.017048,0.001289
642,0.511289,-0.33161399999999996,-0.889594,0.46264399999999994,0.325569,-0.8246,0.004207,-0.011584,0.0032,-0.0041329999999999995,0.01841,0.0019219999999999999
643,0.511048,-0.331544,-0.889594,0.46245600000000003,0.32550300000000004,-0.824731,0.005227000000000001,-0.012564,0.0020829999999999998,-0.002938,0.017499,0.000589
644,0.5108050000000001,-0.331444,-0.8895870000000001,0.462272,0.325409,-0.8248719999999999,0.005227000000000001,-0.010442,0.004215999999999999,-0.003242,0.01683,-0.00047599999999999997
645,0.5106109999999999,-0.331348,-0.889583,0.46212700000000007,0.325318,-0.824989,0.004175,-0.009365,0.002071,-0.0010220000000000001,0.014633000000000002,-0.0011070000000000001
646,0.5104810000000001,-0.331253,-0.8896209999999999,0.46203500000000003,0.325229,-0.825076,0.0073939999999999995,-0.006176,0.001021,-0.0016460000000000001,0.014005000000000002,0.000766
647,0.510278,-0.331115,-0.889682,0.46188900000000005,0.325098,-0.825209,0.008431999999999999,-0.01151,0.002104,-0.002584,0.014182,2.8999999999999997e-05
648,0.510022,-0.330937,-0.889757,0.46170600000000006,0.324929,-0.8253780000000001,0.009498999999999999,-0.011514,0.002111,-0.001257,0.01583,-0.002121
649,0.509839,-0.330847,-0.8897870000000001,0.46156899999999995,0.324844,-0.8254879999999999,0.004164999999999999,-0.009373000000000001,0.004208,-0.001547,0.019119,0.0022
650,0.5097430000000001,-0.330787,-0.889725,0.461499,0.324788,-0.825549,0.002085,-0.005183,0.00418,-0.002149,0.012447,0.00162
651,0.50969,-0.33071799999999996,-0.8896649999999999,0.461466,0.32472199999999996,-0.825593,0.004228,-0.004121,0.003125,-0.002085,0.01741,-0.0008230000000000001
652,0.509575,-0.330624,-0.889697,0.46138599999999996,0.324633,-0.825673,0.006365999999999999,-0.005185,0.001005,-0.0008,0.017942,-0.002589
653,0.509429,-0.330556,-0.8897219999999999,0.46127700000000005,0.324569,-0.82576,0.006342,-0.00945,0.002078,-0.0018800000000000002,0.017731,-0.00042800000000000005
654,0.509147,-0.330402,-0.889732,0.46106800000000003,0.324423,-0.825933,0.006314,-0.01372,0.004220000000000001,-0.0029690000000000003,0.017922999999999998,-0.0011539999999999999
655,0.5089130000000001,-0.33025,-0.8896870000000001,0.460899,0.32428,-0.826084,0.007370999999999999,-0.012671,0.007431,-0.001778,0.015609999999999999,-0.000775
656,0.508683,-0.330068,-0.8896360000000001,0.46073800000000004,0.32410700000000003,-0.826241,0.007376000000000001,-0.011606,0.007429000000000001,-0.0021809999999999998,0.019597,0.001092
657,0.508464,-0.329854,-0.889582,0.460591,0.323905,-0.8264030000000001,0.008443,-0.011609999999999999,0.007437,-0.005024,0.019082,0.00045999999999999996
658,0.508299,-0.329712,-0.889523,0.460477,0.32377100000000003,-0.826519,0.005365999999999999,-0.008582,0.006375,-0.004254,0.016393,0.000149
659,0.508178,-0.329569,-0.8894860000000001,0.460399,0.32363600000000003,-0.826615,0.006456999999999999,-0.00432,0.005309,-0.001109,0.016162,0.00055
660,0.508119,-0.329473,-0.8894299999999999,0.46036499999999997,0.323544,-0.8266700000000001,0.004328,-0.0032479999999999996,0.005293,-0.001442,0.015658000000000002,0.0008179999999999999
661,0.5080210000000001,-0.329359,-0.8894129999999999,0.46030299999999996,0.323437,-0.8267469999999999,0.006456999999999999,-0.005381,0.004243,-0.002478,0.015629,-0.0022789999999999998
662,0.5079600000000001,-0.32926500000000003,-0.8893770000000001,0.460267,0.323348,-0.826801,0.004338,-0.0021780000000000002,0.004224,-0.002839,0.013566,-0.001568
663,0.507916,-0.329203,-0.889358,0.46024,0.323289,-0.826839,0.004342,-0.003235,0.002089,-0.001073,0.015731000000000002,0.000225
664,0.507799,-0.329113,-0.8893409999999999,0.460158,0.323203,-0.826918,0.004309,-0.00857,0.004232,-0.0008230000000000001,0.017266,-0.00084
665,0.507642,-0.329019,-0.889315,0.460042,0.323115,-0.827017,0.005376,-0.008574,0.004239,-0.0016829999999999998,0.014943000000000001,0.000495
666,0.507497,-0.328937,-0.8892620000000001,0.45993599999999996,0.32303699999999996,-0.8271069999999999,0.002175,-0.007501000000000001,0.0052840000000000005,-0.0040950000000000005,0.016761,-0.00259
667,0.507329,-0.328907,-0.8892209999999999,0.459801,0.323009,-0.8271930000000001,0.001256,-0.009837,0.002144,-0.004097,0.018483000000000003,-0.002519
668,0.507145,-0.328897,-0.889177,0.45965100000000003,0.322999,-0.8272799999999999,0.00018899999999999999,-0.009833,0.002137,-0.0020239999999999998,0.017897999999999997,-0.000799
669,0.506993,-0.328867,-0.889109,0.45953,0.322971,-0.8273590000000001,0.000184,-0.008776,0.004272,-0.001018,0.017238999999999997,0.00040899999999999997
670,0.506835,-0.328812,-0.8890530000000001,0.45940699999999995,0.322919,-0.8274469999999999,0.001251,-0.00878,0.00428,-0.003551,0.017352,-0.000373
671,0.506678,-0.32877,-0.8890049999999999,0.459284,0.32287899999999997,-0.8275309999999999,0.003389,-0.007722,0.004293,-0.0036420000000000003,0.019071,0.000352
672,0.5065310000000001,-0.32872199999999996,-0.8889450000000001,0.45916999999999997,0.322833,-0.8276120000000001,0.001256,-0.008776,0.003211,-0.004107,0.015912,0.001913
673,0.506376,-0.328654,-0.8889090000000001,0.45905200000000007,0.32277,-0.827702,0.004456,-0.007726,0.004301,-0.0006929999999999999,0.015823,-0.001155
674,0.50626,-0.328581,-0.8888370000000001,0.45896800000000004,0.3227,-0.8277760000000001,0.002428,-0.006798,0.005414,-0.001387,0.015236000000000001,-0.000776
675,0.506156,-0.328487,-0.888775,0.458896,0.32261100000000004,-0.827851,0.002428,-0.006798,0.005414,0.001813,0.015585,-0.002105
676,0.5060859999999999,-0.328416,-0.888735,0.45885,0.322544,-0.827902,0.002443,-0.0046630000000000005,0.004343,-0.001544,0.016461,0.000769
677,0.5059680000000001,-0.32837,-0.8886639999999999,0.45875900000000003,0.3225,-0.8279700000000001,0.001362,-0.007855,0.004339,-0.001239,0.012949,0.00015
678,0.50588,-0.328306,-0.8886290000000001,0.458696,0.32244,-0.8280280000000001,0.00139,-0.002525,0.0032649999999999997,-7.8e-05,0.016656,-0.001501
679,0.505876,-0.328307,-0.888549,0.458693,0.322441,-0.8280290000000001,-0.000743,-0.001456,0.0043170000000000005,-0.0032939999999999996,0.013557,-0.000309
680,0.505944,-0.32835,-0.8884540000000001,0.458742,0.322482,-0.8279860000000001,-0.00392,0.00282,0.003221,-0.002352,0.016812999999999998,0.000136
681,0.505993,-0.328361,-0.8884200000000001,0.45878100000000005,0.322492,-0.82796,0.0014140000000000001,0.0006799999999999999,0.001124,-0.000453,0.015887000000000002,-0.000668
682,0.5060140000000001,-0.328374,-0.888417,0.458796,0.322504,-0.827947,-0.000714,0.001743,0.002193,0.00011200000000000001,0.015081,-0.0015970000000000001
683,0.505971,-0.328379,-0.888374,0.45876000000000006,0.322509,-0.827965,-0.0018149999999999998,-0.00571,0.002195,-0.001439,0.016602000000000002,-0.0021739999999999997
684,0.505833,-0.328406,-0.8882690000000001,0.45864099999999997,0.322535,-0.8280209999999999,-0.0029010000000000004,-0.006784,0.0053939999999999995,-0.000603,0.013555000000000001,-0.000638
685,0.50573,-0.328389,-0.8882059999999999,0.45855799999999997,0.322519,-0.828073,0.002443,-0.005733,0.004361,-0.001634,0.018378,0.00242
686,0.505649,-0.32829200000000003,-0.888156,0.458507,0.32242600000000005,-0.8281379999999999,0.004572,-0.004684000000000001,0.006511,-0.002239,0.020118,0.000837
687,0.505603,-0.328203,-0.888065,0.45848199999999995,0.322343,-0.828184,0.002443,-0.003611,0.006495,-0.003618,0.018675999999999998,0.0018899999999999998
688,0.505595,-0.328119,-0.887975,0.45848900000000004,0.322263,-0.828211,0.001391,-0.0014730000000000001,0.005417,-0.0018239999999999999,0.018328,0.00059
689,0.505609,-0.328077,-0.887916,0.45850799999999997,0.322223,-0.828217,0.0014,-0.00040300000000000004,0.004347,-0.001629,0.020031999999999998,3.1e-05
690,0.505579,-0.328017,-0.8878379999999999,0.458492,0.322166,-0.828247,0.001301,-0.004572,0.006449,-0.004482,0.015236000000000001,-0.002823
691,0.505483,-0.32798299999999997,-0.8877649999999999,0.458417,0.32213400000000003,-0.8283010000000001,0.000244,-0.005621,0.0032380000000000004,-0.0017980000000000001,0.011881000000000001,-0.00315
692,0.5053880000000001,-0.327969,-0.88771,0.458341,0.322121,-0.828349,0.0013210000000000001,-0.0034939999999999997,0.003243,-0.002576,0.011147,5.6000000000000006e-05
693,0.505325,-0.32794,-0.887689,0.458293,0.32209299999999996,-0.8283860000000001,0.001325,-0.0045509999999999995,0.001108,-0.001934,0.012562,-0.0024100000000000002
694,0.505228,-0.327935,-0.887654,0.458214,0.322089,-0.828432,-0.0018800000000000002,-0.006666,2e-05,-0.0017010000000000003,0.012384000000000001,-0.00183
695,0.505089,-0.327984,-0.8876430000000001,0.45809099999999997,0.322135,-0.8284809999999999,-0.000813,-0.006670000000000001,2.7000000000000002e-05,-0.000648,0.014077000000000001,-0.001871
696,0.504934,-0.327999,-0.8876709999999999,0.45796099999999995,0.32215,-0.828548,0.00133,-0.005608,-0.001027,-0.0026079999999999996,0.018259,-0.001103
697,0.504851,-0.327984,-0.887659,0.45789399999999997,0.32213600000000003,-0.8285899999999999,0.0013210000000000001,-0.0056159999999999995,0.001109,-0.0011070000000000001,0.019493,-0.002388
698,0.504774,-0.327971,-0.887656,0.45783199999999996,0.32212199999999996,-0.8286290000000001,0.001231,-0.003346,0.0010279999999999998,-0.000771,0.022543,-0.0018149999999999998
699,0.504767,-0.327917,-0.887649,0.45783500000000005,0.32207199999999997,-0.8286479999999999,0.0033840000000000003,0.0019690000000000003,0.002105,-8.6e-05,0.0209,-0.001034
700,0.504841,-0.327874,-0.887611,0.45790299999999995,0.322031,-0.828626,0.002322,0.0051600000000000005,0.004229,0.00024300000000000002,0.021230000000000002,0.0014470000000000002
701,0.505031,-0.32786,-0.887542,0.45806199999999997,0.32201799999999997,-0.828543,-0.0008539999999999999,0.010498,0.0042,-0.0016870000000000001,0.015781,0.002386
702,0.505264,-0.327857,-0.887484,0.45825600000000005,0.322015,-0.8284370000000001,0.000227,0.011568,0.00207,-0.001698,0.012076,-0.002801
703,0.5055109999999999,-0.3279,-0.887452,0.458453,0.322056,-0.828312,-0.0018969999999999998,0.012645,0.000986,-0.000598,0.01292,-0.004101
704,0.5058050000000001,-0.32795599999999997,-0.887418,0.458688,0.322108,-0.828161,-0.0018920000000000002,0.014771000000000001,0.0020510000000000003,-0.000681,0.01212,-0.0035189999999999996
705,0.506115,-0.328,-0.887388,0.45893900000000004,0.32215,-0.8280059999999999,-0.000826,0.013706,0.000992,-0.001663,0.010675,-0.0027129999999999997
706,0.506382,-0.32803699999999997,-0.8874,0.459154,0.322185,-0.827873,0.000162,0.0139,-0.002301,-0.0024129999999999998,0.013035,0.000893
707,0.506653,-0.328074,-0.887489,0.459372,0.32222,-0.8277389999999999,0.001253,0.0171,-0.0044340000000000004,-0.0005549999999999999,0.018157,0.001078
708,0.506998,-0.328228,-0.8875120000000001,0.459634,0.322366,-0.827536,-0.008343999999999999,0.018199,-0.004502,-0.004724,0.017676,0.000983
709,0.507396,-0.328513,-0.8874719999999999,0.45991800000000005,0.32263600000000003,-0.8272729999999999,-0.013663999999999999,0.020352000000000002,-0.00561,-0.005328,0.01495,9.499999999999999e-05
710,0.507736,-0.328842,-0.8874629999999999,0.46014799999999995,0.322948,-0.827024,-0.010468,0.016093,-0.008787,0.000393,0.015843,-0.002673
711,0.507937,-0.32904,-0.887597,0.460283,0.32313400000000003,-0.826876,-0.003015,0.01181,-0.009798000000000001,0.004804999999999999,0.019868,-0.000898
712,0.508184,-0.32916999999999996,-0.887683,0.460467,0.323258,-0.826725,-0.001957,0.013919999999999998,-0.005520000000000001,0.00045599999999999997,0.017715,-0.002803
713,0.508375,-0.329312,-0.887684,0.460603,0.323392,-0.8265969999999999,-0.006263,0.009656999999999999,-0.0012720000000000001,-0.004823,0.020983,-0.001513
714,0.5086189999999999,-0.329482,-0.8876350000000001,0.46077700000000005,0.32355300000000004,-0.8264370000000001,-0.007316,0.012856,-0.001283,-0.0019760000000000003,0.01272,0.002539
715,0.508889,-0.32957800000000004,-0.8876280000000001,0.46098599999999995,0.323644,-0.826285,-0.002055,0.014059,-0.000281,-0.0011619999999999998,0.018534000000000002,0.002921
716,0.509185,-0.329588,-0.8876280000000001,0.46122799999999997,0.323653,-0.8261459999999999,0.00114,0.014043,0.00081,-0.003114,0.020432,-0.001827
717,0.509465,-0.329602,-0.887601,0.46145699999999995,0.323666,-0.8260129999999999,6.9e-05,0.014043,0.00187,-0.001267,0.017993000000000002,-0.000968
718,0.509759,-0.329656,-0.887531,0.461692,0.32371700000000003,-0.8258620000000001,-0.00527,0.015118000000000001,0.003968,-0.001258,0.017057,-0.002843
719,0.5102140000000001,-0.32977199999999995,-0.8872770000000001,0.462049,0.323827,-0.8256190000000001,-0.011691,0.018306,0.011397,-0.002302,0.016276,-0.0012699999999999999
720,0.510808,-0.329909,-0.8869049999999999,0.46251800000000004,0.323957,-0.825305,-0.014872,0.025762,0.01457,-0.00419,0.01465,-0.0008210000000000001
721,0.5114810000000001,-0.330047,-0.8864209999999999,0.46305100000000005,0.324088,-0.8249549999999999,-0.01702,0.026817,0.018826,-0.005013,0.015390000000000001,0.00018700000000000002
722,0.5120640000000001,-0.330127,-0.8858719999999999,0.46352,0.32416300000000003,-0.8246620000000001,-0.014943999999999999,0.01721,0.022058,-0.007022,0.015024000000000001,-0.003692
723,0.512387,-0.33018200000000003,-0.8853280000000001,0.46377700000000005,0.32421500000000003,-0.8244969999999999,-0.012927000000000001,0.0045590000000000006,0.021978,0.001037,0.016193,-0.000164
724,0.512551,-0.330181,-0.8848870000000001,0.463912,0.32421500000000003,-0.824421,-0.007593000000000001,-0.0018260000000000001,0.015614,-0.000396,0.012593,0.008183
725,0.512672,-0.330204,-0.884569,0.464008,0.324236,-0.8243590000000001,-0.009687999999999999,0.0035210000000000003,0.012387,0.000195,0.010374,0.005679
726,0.5130560000000001,-0.330388,-0.8842270000000001,0.464296,0.32441,-0.8241280000000001,-0.019199,0.01955,0.008028,-0.000978,0.009040000000000001,0.004014
727,0.5136649999999999,-0.330783,-0.883915,0.46473400000000004,0.324784,-0.823734,-0.024456,0.030247000000000003,0.001568,-0.003461,0.007598000000000001,-0.0023469999999999997
728,0.5140710000000001,-0.331358,-0.8836040000000001,0.464976,0.325328,-0.823382,-0.042727,-0.0027,-0.0017219999999999998,-0.004878,0.011448999999999999,0.000857
729,0.5140819999999999,-0.332202,-0.883228,0.464851,0.326126,-0.8231379999999999,-0.041636,-0.00056,-0.004922,0.004204,-0.000122,0.003252
730,0.5142770000000001,-0.33276500000000003,-0.8830479999999999,0.46492100000000003,0.32665700000000003,-0.822887,-0.028805,0.004726,-0.005907,-0.0034189999999999997,0.001163,-0.011890999999999999
731,0.5143840000000001,-0.333498,-0.8828469999999999,0.464891,0.32735,-0.822629,-0.039528,-0.001475,-0.011413,-0.0024879999999999998,0.014797999999999999,-0.014025999999999999
732,0.514203,-0.334334,-0.88264,0.464607,0.32814,-0.8224739999999999,-0.041729,-0.016381,-0.011409,-0.006187,0.025818,-0.009023
733,0.513705,-0.33517600000000003,-0.88236,0.464062,0.328935,-0.822465,-0.043976999999999995,-0.037696,-0.007125,0.006504,0.033018,0.004288
734,0.513076,-0.335826,-0.882167,0.46343999999999996,0.329549,-0.82257,-0.02475,-0.034559,-0.009131,-0.00047300000000000006,0.03126,0.011184
735,0.5122479999999999,-0.33625900000000003,-0.8821399999999999,0.462688,0.329958,-0.822829,-0.020502,-0.040957,-0.01123,0.006412999999999999,0.035857,0.015761
736,0.511467,-0.336541,-0.8822399999999999,0.462,0.33022399999999996,-0.823109,-0.0023510000000000002,-0.035703,-0.008973,0.006354,0.0241,0.010151
737,0.510794,-0.336654,-0.882279,0.46142799999999995,0.330331,-0.8233870000000001,-0.000241,-0.032548,-0.000417,0.005644,0.021247,0.00515
738,0.510077,-0.336556,-0.882279,0.46085299999999996,0.33023800000000003,-0.8237459999999999,0.012490000000000001,-0.037948,0.0038770000000000002,0.008325,0.016030000000000003,-0.000335
739,0.509491,-0.33622199999999997,-0.882365,0.460424,0.329923,-0.8241120000000001,0.021078,-0.024138,0.006056000000000001,0.005763,0.020403,-0.003143
740,0.5092180000000001,-0.33569099999999996,-0.8824139999999999,0.460284,0.329421,-0.824391,0.030713,-0.009287,0.013581999999999999,0.001188,0.020066,-0.006221
741,0.509125,-0.334872,-0.882389,0.46033900000000005,0.32864899999999997,-0.8246690000000001,0.037062,-0.008296,0.026444,-0.002041,0.018077,-0.005104
742,0.509026,-0.334004,-0.8822030000000001,0.460396,0.327828,-0.8249629999999999,0.032780000000000004,-0.008294,0.029618000000000002,-0.000923,0.013297999999999999,-0.0032380000000000004
743,0.508935,-0.333196,-0.8820319999999999,0.46045,0.327065,-0.8252360000000001,0.033866,-0.007219,0.02642,-0.005875,0.012991999999999998,-0.000692
744,0.508851,-0.332394,-0.881912,0.460508,0.326307,-0.8255040000000001,0.031745999999999996,-0.006138,0.024267,-0.006268999999999999,0.015153999999999999,-0.00253
745,0.508725,-0.331679,-0.8818450000000001,0.460517,0.325631,-0.825765,0.029622000000000002,-0.009304999999999999,0.018915,-0.005943,0.01609,-0.0064340000000000005
746,0.508405,-0.33100300000000005,-0.881851,0.46036099999999996,0.324992,-0.8261040000000001,0.031766,-0.019066999999999997,0.016801,-0.006381,0.018209,-0.000144
747,0.507979,-0.330293,-0.881884,0.46012,0.32432,-0.8265020000000001,0.032827999999999996,-0.021197,0.015743,-0.007285,0.01296,0.007379999999999999
748,0.50762,-0.32962600000000003,-0.881968,0.459929,0.323689,-0.8268559999999999,0.031814,-0.014780000000000001,0.010387,-0.00688,0.009165999999999999,0.005811
749,0.507312,-0.329099,-0.88216,0.45975699999999997,0.32319000000000003,-0.827147,0.027604000000000004,-0.008348000000000001,0.00394,-0.00625,0.004874,-0.001131
750,0.507003,-0.328737,-0.882358,0.45955799999999997,0.322848,-0.827391,0.016926,-0.014685,-0.0004,-0.005854,0.004301,-0.00432
751,0.506521,-0.328646,-0.882494,0.45917299999999994,0.322762,-0.8276379999999999,0.0030280000000000003,-0.026333,-0.005823,-0.0024170000000000003,0.004463,-0.006011
752,0.505901,-0.328787,-0.882561,0.458638,0.322895,-0.827883,-0.005521,-0.029499,-0.005878,0.00117,0.0031550000000000003,-0.002943
753,0.505341,-0.3289,-0.882709,0.458157,0.323002,-0.8281069999999999,0.003052,-0.025251,-0.010097,0.0005070000000000001,0.005703,-0.002124
754,0.504674,-0.328872,-0.883017,0.457609,0.32297600000000004,-0.828421,0.011581999999999999,-0.029529000000000003,-0.013237,-0.0026829999999999996,0.009086,-0.001062
755,0.503967,-0.328849,-0.8833770000000001,0.457027,0.322954,-0.82875,0.009553,-0.033006,-0.014397,-0.005275,0.020002000000000002,0.007506999999999999
756,0.503087,-0.328786,-0.883753,0.45630699999999996,0.322894,-0.8291700000000001,0.008486,-0.031941000000000004,-0.013337,0.0033179999999999998,0.027538999999999998,0.002724
757,0.50257,-0.328835,-0.884036,0.45587,0.322941,-0.829392,0.004266,-0.019152000000000002,-0.011247,-0.001738,0.021496,0.005219
758,0.502156,-0.328885,-0.88428,0.45551899999999995,0.322988,-0.829566,0.003214,-0.015952,-0.011258,-0.00421,0.021586,0.00045
759,0.5016430000000001,-0.328984,-0.8845200000000001,0.455078,0.32308200000000004,-0.829772,0.003175,-0.023413,-0.01018,-0.005661,0.019631,0.000533
760,0.500921,-0.328999,-0.8848090000000001,0.454477,0.323096,-0.830096,0.012724,-0.038348,-0.013299,-0.009637999999999999,0.006922,-0.0008359999999999999
761,0.500259,-0.328807,-0.885059,0.45395699999999994,0.322915,-0.830451,0.019126,-0.030943000000000002,-0.005787,0.003334,0.015953,-0.0055320000000000005
762,0.499197,-0.328385,-0.885532,0.45314,0.322515,-0.831053,0.015934999999999998,-0.030924,-0.007945,0.0068980000000000005,0.025523,-0.01671
763,0.49892299999999995,-0.32838,-0.885523,0.452913,0.32250999999999996,-0.8311780000000001,0.002428,-0.009909000000000001,0.003558,-0.001482,0.012512,-0.001113
764,0.49870200000000003,-0.328327,-0.8855770000000001,0.452737,0.32245999999999997,-0.8312930000000001,0.0035229999999999997,-0.008826,-0.001777,-0.00123,0.018132,-0.0053
765,0.49859899999999996,-0.328293,-0.8856379999999999,0.452657,0.322427,-0.83135,0.001418,-0.001366,-0.000733,0.0006360000000000001,0.017249,0.000356
766,0.49863,-0.328309,-0.88565,0.45268,0.322443,-0.8313309999999999,0.000366,0.002895,0.000323,-0.001051,0.018591,0.000795
767,0.49860600000000005,-0.32821,-0.885703,0.452676,0.322349,-0.83137,0.008882,-0.002457,-0.000679,0.001517,0.021218,0.003275
768,0.49855200000000005,-0.32797800000000005,-0.885862,0.452666,0.32213,-0.8314600000000001,0.016374,0.002843,-0.000634,0.0029,0.020568,-0.00015900000000000002
769,0.49857399999999996,-0.327658,-0.8859959999999999,0.452734,0.321826,-0.831541,0.018483000000000003,0.002814,0.004722,-5.1e-05,0.020474000000000003,-0.000414
770,0.49854899999999996,-0.32729,-0.88605,0.45277,0.32147800000000004,-0.831656,0.01845,-0.00146,0.007932,-0.00021,0.019602,9.7e-05
771,0.49849,-0.32693099999999997,-0.886074,0.452776,0.32113800000000003,-0.831784,0.018848,-0.00461,0.008974,0.000593,0.013838,-0.000614
772,0.498381,-0.32655100000000004,-0.8861020000000001,0.452743,0.320779,-0.83194,0.017786,-0.004602,0.007899,-0.001343,0.014075999999999998,-0.002594
773,0.498291,-0.326235,-0.8860899999999999,0.452717,0.320479,-0.8320700000000001,0.012447,-0.0035259999999999996,0.009997,1.1e-05,0.013581999999999999,-0.0022199999999999998
774,0.498274,-0.325979,-0.886042,0.45274200000000003,0.320236,-0.83215,0.010332,-0.0013800000000000002,0.007843000000000001,-0.001982,0.011215000000000001,-0.002949
