,attitude.roll,attitude.pitch,attitude.yaw,gravity.x,gravity.y,gravity.z,rotationRate.x,rotationRate.y,rotationRate.z,userAcceleration.x,userAcceleration.y,userAcceleration.z
0,-0.009876000000000001,0.09226000000000001,-0.25272,-0.009834,-0.09212999999999999,-0.995698,0.004357,-0.032996,-0.018434,-0.004357,0.010754000000000001,0.002199
1,-0.010256999999999999,0.092277,-0.252946,-0.010213,-0.092146,-0.995693,0.006523999999999999,-0.014936000000000001,-0.0077599999999999995,-0.0059759999999999995,0.010359,0.00034700000000000003
2,-0.010289,0.092279,-0.25296599999999997,-0.010245,-0.09214800000000001,-0.995693,0.008681999999999999,-6.8e-05,0.00185,-0.005288,0.007812,0.0036119999999999998
3,-0.010256,0.092386,-0.252835,-0.010212,-0.092254,-0.995683,0.009725,0.000968,0.008265999999999999,-0.005596,0.011795,1.7e-05
4,-0.010404,0.092312,-0.252575,-0.010359,-0.092181,-0.9956879999999999,0.006476999999999999,-0.0033079999999999997,0.014658000000000001,-0.0019399999999999999,0.01395,-0.001245
5,-0.0105,0.0924,-0.252214,-0.010454999999999999,-0.09226799999999999,-0.9956790000000001,0.012902,0.00624,0.018963,-0.004682,0.013669999999999998,-0.006823
6,-0.010356,0.092629,-0.251839,-0.010312,-0.09249600000000001,-0.99566,0.012934999999999999,0.011575,0.016819999999999998,-0.0054659999999999995,0.014203,-0.005393
7,-0.010156,0.09278600000000001,-0.25156100000000003,-0.010112000000000001,-0.092653,-0.995647,0.009768,0.012675,0.010389,-0.005299,0.014177,-0.001011
8,-0.009972,0.092671,-0.25142800000000004,-0.009929,-0.092539,-0.99566,0.006587000000000001,0.00952,0.002893,-0.006779,0.014016999999999998,0.003213
9,-0.009883,0.092693,-0.25142,-0.009840999999999999,-0.092561,-0.995658,0.0033770000000000002,0.003157,-0.001394,-0.009187,0.016602000000000002,0.0022199999999999998
10,-0.009812000000000001,0.092723,-0.251488,-0.009770000000000001,-0.09258999999999999,-0.995656,0.006601,0.004228,-0.005646,-0.007015,0.014022999999999999,0.0010119999999999999
11,-0.009829000000000001,0.092699,-0.251604,-0.009786,-0.092567,-0.995658,0.010888,0.006352,-0.007755,-0.004099,0.011512,-0.002495
12,-0.009639,0.092908,-0.251775,-0.009597,-0.092775,-0.995641,0.014131999999999999,0.013806,-0.009879,-0.003327,0.008928,-0.000178
13,-0.009326000000000001,0.09311,-0.251963,-0.009285,-0.092976,-0.995625,0.013078999999999999,0.017006,-0.009890000000000001,-0.0026620000000000003,0.010151,-0.001247
14,-0.009075,0.09312999999999999,-0.252121,-0.009036,-0.09299500000000001,-0.995626,0.015203,0.01699,-0.007739,-0.0029579999999999997,0.010689,-0.001231
15,-0.008832,0.093319,-0.252273,-0.008793,-0.093183,-0.99561,0.011964,0.00954,-0.006684000000000001,-0.001629,0.011656,-0.003322
16,-0.008602,0.093523,-0.252424,-0.008564,-0.093387,-0.9955930000000001,0.013069999999999998,0.015936000000000002,-0.008820999999999999,-0.0009880000000000002,0.014499000000000001,-0.001523
17,-0.008355,0.09348200000000001,-0.25248400000000004,-0.008319,-0.093346,-0.995599,0.0013050000000000002,0.019135,0.0007070000000000001,-0.00047000000000000004,0.021981,-0.011939
18,-0.007823,0.093337,-0.252366,-0.007789,-0.093202,-0.995617,-0.0008039999999999999,0.031895,0.008154,-0.000481,0.017488,-0.001408
19,-0.007348,0.09337999999999999,-0.252171,-0.007316,-0.09324400000000001,-0.995616,0.013003,0.020121,0.010402,-0.003563,0.012861000000000001,-0.002049
20,-0.007181,0.093573,-0.25197800000000004,-0.00715,-0.093437,-0.9956,0.013996999999999999,0.002016,0.008295,0.001153,0.00634,0.001917
21,-0.007123999999999999,0.093653,-0.25189,-0.007093,-0.093516,-0.995592,0.012979,0.006306,0.001873,0.004148,0.006114,0.001849
22,-0.006915999999999999,0.093672,-0.25192600000000004,-0.006885,-0.09353500000000001,-0.995592,0.005558,0.010619,-0.004593,0.004642,0.009643,-0.005247
23,-0.006764,0.093601,-0.252053,-0.006735,-0.09346499999999999,-0.9956,0.001281,0.006381,-0.0067540000000000005,-0.000712,0.015355,-0.009039
24,-0.006657,0.09362899999999999,-0.252192,-0.006628,-0.09349199999999999,-0.995598,0.004482,0.006370000000000001,-0.006731999999999999,0.001456,0.014025,-0.006370000000000001
25,-0.00639,0.093691,-0.252301,-0.006362,-0.093554,-0.9955940000000001,0.008783,0.015934,-0.0045780000000000005,-0.0071730000000000006,0.010957999999999999,0.0035280000000000003
26,-0.006045,0.093828,-0.252363,-0.006018,-0.09369,-0.995583,0.010893,0.012722,-0.0024219999999999997,-0.005167000000000001,0.005144,-0.0015480000000000001
27,-0.005873,0.09382,-0.252396,-0.005847,-0.093683,-0.995585,-0.004067,0.007448000000000001,-0.00252,-0.0034909999999999997,0.009668000000000001,-0.008581
28,-0.005722,0.09349299999999999,-0.25245300000000004,-0.005697,-0.09335700000000001,-0.995616,-0.000843,0.011701999999999999,-0.003571,-0.0004980000000000001,0.019077,-0.002629
29,-0.005361,0.093544,-0.252472,-0.005337,-0.093407,-0.9956139999999999,0.007711,0.021238999999999997,0.0018170000000000003,-0.00018600000000000002,0.010598,-0.0010140000000000001
30,-0.005135,0.093623,-0.252352,-0.005111999999999999,-0.093486,-0.995607,0.001233,0.008461,0.0060609999999999995,0.002579,0.012675,-0.007704000000000001
31,-0.004997,0.093553,-0.252268,-0.004975,-0.093417,-0.9956149999999999,0.004472,0.013789,0.002873,0.002641,0.011736,-0.0008150000000000001
32,-0.004607,0.093668,-0.252215,-0.004587,-0.09353099999999999,-0.995606,0.014103000000000001,0.020146999999999998,0.002932,-0.00015900000000000002,0.008387,-0.000152
33,-0.004386,0.09377,-0.25215,-0.004367,-0.093632,-0.995597,0.004429,0.004201,0.002885,-0.003827,0.009541,-0.003853
34,-0.004459,0.093626,-0.252104,-0.0044399999999999995,-0.09349,-0.99561,0.003324,-0.006439,0.000754,0.002029,0.013946,-0.005458
35,-0.004509,0.09363300000000001,-0.252101,-0.00449,-0.09349600000000001,-0.99561,0.007625,0.001003,0.000775,-0.001232,0.013692,0.004338
36,-0.0044670000000000005,0.093803,-0.252079,-0.0044469999999999996,-0.093666,-0.9955940000000001,0.011893,0.002049,0.001871,-0.006157999999999999,0.0149,0.0027199999999999998
37,-0.004515,0.0939,-0.25204899999999997,-0.004495,-0.093762,-0.995584,0.007601,-0.004324000000000001,0.000781,-0.009618999999999999,0.018734,-0.002859
38,-0.004625,0.093987,-0.252071,-0.004605,-0.093849,-0.995576,0.00974,-0.006449,-0.0024059999999999997,-0.005481000000000001,0.019096000000000002,-0.004409000000000001
39,-0.004686999999999999,0.094059,-0.252092,-0.004666,-0.09392,-0.995569,0.006562999999999999,-5e-05,-0.001368,0.000562,0.01871,-0.00495
40,-0.004647,0.09401,-0.252091,-0.004626,-0.093872,-0.995574,0.000176,0.003168,-0.001417,0.006503,0.015578999999999999,-0.006029
41,-0.004715,0.093809,-0.25212399999999996,-0.004693999999999999,-0.093672,-0.995592,-0.005177,-0.002136,-0.002516,0.00355,0.012678,-0.005964
42,-0.0048649999999999995,0.093672,-0.25216,-0.004843999999999999,-0.09353500000000001,-0.995604,-0.0009289999999999999,-0.006412,-0.00248,0.002784,0.013715999999999999,-0.0028699999999999997
43,-0.004959000000000001,0.093534,-0.252207,-0.0049380000000000005,-0.093398,-0.995617,0.004424,-0.001108,-0.001382,-0.001151,0.005765999999999999,0.001552
44,-0.004947,0.09348300000000001,-0.252239,-0.004925,-0.093347,-0.9956209999999999,0.0022760000000000002,-0.004296,-0.001392,-0.0028420000000000003,0.006357,0.0010539999999999998
45,-0.005009,0.093545,-0.25229,-0.004987,-0.093409,-0.9956149999999999,0.005377000000000001,-0.004285,-0.00349,-0.002062,0.009775,0.0010019999999999999
46,-0.0050479999999999995,0.093524,-0.252325,-0.005026,-0.093388,-0.995617,0.004305,-0.003225,-0.001363,-0.000604,0.010731000000000001,-0.004719
47,-0.005099,0.093541,-0.252304,-0.005077,-0.093405,-0.9956149999999999,0.0032340000000000003,-0.001103,0.001832,-0.000935,0.013082,-0.006581999999999999
48,-0.005148,0.09360299999999999,-0.25225,-0.0051259999999999995,-0.093466,-0.995609,0.004296,-0.001111,0.002908,-0.0037090000000000005,0.012167,-0.003048
49,-0.005203,0.09366100000000001,-0.252237,-0.00518,-0.093524,-0.995604,0.006444,-0.001106,-0.00028199999999999997,-0.002007,0.018131,1.3000000000000001e-05
50,-0.005234,0.093703,-0.252294,-0.005211,-0.093566,-0.995599,0.007529999999999999,-0.001093,-0.004547,-0.0029530000000000003,0.010329000000000001,0.000147
51,-0.005239,0.093808,-0.25238499999999997,-0.005215,-0.093671,-0.99559,0.006462999999999999,-0.0010890000000000001,-0.004555,-0.0036799999999999997,0.011273,-0.002732
52,-0.005194,0.093886,-0.252432,-0.0051719999999999995,-0.093748,-0.995582,0.005396,0.003159,-0.000295,-0.007631000000000001,0.013869,-0.005425
53,-0.005093,0.09371900000000001,-0.252418,-0.005071,-0.093581,-0.995599,0.001442,0.007411,0.0008410000000000001,-0.006007,0.021621,-0.002418
54,-0.004944,0.09376799999999999,-0.252369,-0.004922999999999999,-0.09363099999999999,-0.9955950000000001,0.002499,0.008459999999999999,0.004052,-0.006155,0.02167,-0.0024219999999999997
55,-0.004874,0.093678,-0.252308,-0.004852,-0.093541,-0.995604,0.003561,0.005268999999999999,0.001927,0.000717,0.015797,0.0023940000000000003
56,-0.0047740000000000005,0.093673,-0.252278,-0.004753,-0.09353600000000001,-0.995605,0.007872,0.012719,-0.00018899999999999999,0.000129,0.008453,0.003737
57,-0.00458,0.093864,-0.252314,-0.0045590000000000006,-0.093727,-0.9955879999999999,0.015326,0.006314,-0.003333,0.0016600000000000002,0.004707,-0.000567
58,-0.00454,0.093841,-0.252411,-0.004520000000000001,-0.093704,-0.99559,-0.000672,0.003191,-0.007714,-0.003125,0.007964,-0.013108000000000002
59,-0.004448,0.09361699999999999,-0.252566,-0.0044280000000000005,-0.09348,-0.995611,-0.004925,0.006402,-0.0077480000000000005,0.00391,0.011205,-0.008615000000000001
60,-0.004214,0.09341,-0.252637,-0.004196,-0.093274,-0.995632,-0.002806,0.012748,0.001873,-0.005967,0.020291,-0.001423
61,-0.004077,0.093426,-0.25251599999999996,-0.004059,-0.09329,-0.9956309999999999,0.005085,0.004047,0.006299,0.000763,0.012616,0.00033
62,-0.004046,0.093527,-0.252413,-0.004029,-0.093391,-0.9956209999999999,0.00829,0.002979,0.004187,-0.000503,0.006629,0.000153
63,-0.0039369999999999995,0.09360700000000001,-0.252389,-0.00392,-0.09347000000000001,-0.9956139999999999,0.005118,0.007259999999999999,0.002022,-0.000399,0.013483000000000002,-0.002616
64,-0.003757,0.093541,-0.252298,-0.00374,-0.093405,-0.9956209999999999,0.004056000000000001,0.011512,0.005214,-0.005979,0.020756999999999998,-0.0058590000000000005
65,-0.0035369999999999998,0.09353099999999999,-0.252118,-0.0035210000000000003,-0.093395,-0.9956229999999999,0.0029649999999999998,0.011493999999999999,0.010548,-0.0053289999999999995,0.020122,-0.005995
66,-0.003315,0.093598,-0.251868,-0.0033009999999999997,-0.093462,-0.995617,0.00829,0.011467,0.012721,-0.004039,0.011918999999999999,-0.0032530000000000002
67,-0.0032049999999999995,0.093699,-0.25164899999999996,-0.0031899999999999997,-0.093562,-0.9956079999999999,0.011481,0.006142,0.009545999999999999,-0.0014789999999999998,0.007456,-0.0031100000000000004
68,-0.003181,0.093788,-0.251539,-0.003167,-0.09365,-0.9956,0.008896,0.001745,0.003167,0.00248,0.009849,0.000666
69,-0.003147,0.09381,-0.251527,-0.003134,-0.093672,-0.995598,0.001462,0.004984000000000001,-0.0011619999999999998,0.003225,0.008925,0.001396
70,-0.003085,0.09364700000000001,-0.251589,-0.003072,-0.09351,-0.9956139999999999,-0.002791,0.005012,-0.004397,-0.001384,0.015461,-0.0050880000000000005
71,-0.0030399999999999997,0.0936,-0.25166,-0.0030269999999999997,-0.093464,-0.995618,0.002509,-0.000341,-0.002216,-0.00123,0.017322,-0.005328
72,-0.0030239999999999998,0.093632,-0.251656,-0.003011,-0.09349500000000001,-0.9956149999999999,0.0025,0.001772,0.002054,5e-06,0.014622999999999999,-0.0033469999999999997
73,-0.002959,0.093624,-0.25156300000000004,-0.0029460000000000003,-0.093487,-0.995616,0.0035619999999999996,0.003886,0.005263,-0.000792,0.010907,-0.0033
74,-0.002916,0.093566,-0.251431,-0.002903,-0.09343,-0.9956219999999999,0.001418,0.0017629999999999998,0.005251,-0.001354,0.010284999999999999,-0.0034630000000000004
75,-0.0028899999999999998,0.09354900000000001,-0.251374,-0.002877,-0.093413,-0.9956229999999999,0.0025,0.001772,0.002054,0.000436,0.008681,-0.001401
76,-0.0028699999999999997,0.093419,-0.251337,-0.002858,-0.093283,-0.9956360000000001,2.6000000000000002e-05,0.0016870000000000001,0.002077,0.001576,0.015646,-0.00145
77,-0.0028539999999999998,0.093362,-0.251278,-0.002841,-0.093227,-0.995641,0.001083,0.000614,0.003154,-0.00028700000000000004,0.014583,-0.000987
78,-0.002836,0.09341,-0.251192,-0.0028239999999999997,-0.093274,-0.9956360000000001,0.003222,0.0016719999999999999,0.003168,0.001206,0.012403,-0.001266
79,-0.0028469999999999997,0.093395,-0.251128,-0.0028350000000000003,-0.09326,-0.9956379999999999,0.0021449999999999998,-0.001516,0.002096,-0.002628,0.011839,-0.007704000000000001
80,-0.002872,0.093332,-0.25109699999999996,-0.002859,-0.093196,-0.9956440000000001,2.1e-05,-0.000439,0.0010119999999999999,0.001181,0.011348,-0.0034100000000000003
81,-0.002912,0.093299,-0.251119,-0.0028989999999999997,-0.093163,-0.995647,1.6e-05,-0.003626,-0.001121,-0.001083,0.013863,-0.002644
82,-0.003015,0.09321900000000001,-0.251136,-0.003002,-0.093084,-0.995654,0.003198,-0.0068379999999999995,-2.6000000000000002e-05,-0.0023239999999999997,0.013036,7.900000000000001e-05
83,-0.00314,0.09322799999999999,-0.25116700000000003,-0.0031260000000000003,-0.093093,-0.9956520000000001,0.0021550000000000002,-0.00469,-0.0032409999999999995,-0.001939,0.014083000000000002,-0.003188
84,-0.003192,0.093275,-0.251248,-0.0031780000000000003,-0.09314,-0.995648,0.004298,-0.0025670000000000003,-0.003229,-0.004771,0.017121,-0.005115
85,-0.003211,0.093196,-0.251312,-0.0031969999999999998,-0.093061,-0.995655,0.00084,-0.00048300000000000003,-0.002154,-0.002433,0.015257,-0.002407
86,-0.00324,0.093123,-0.25136,-0.0032259999999999997,-0.092988,-0.995662,-0.001299,-0.001541,-0.002167,-0.002633,0.014009,-0.001714
87,-0.003283,0.093059,-0.25140300000000004,-0.0032689999999999998,-0.092925,-0.995668,-0.0013039999999999998,-0.002606,-0.002166,0.000293,0.013686000000000002,-0.000121
88,-0.003273,0.09295700000000001,-0.25145500000000004,-0.003259,-0.092824,-0.995677,0.0019210000000000002,0.0037700000000000003,-0.001083,0.001565,0.012898,0.001354
89,-0.003273,0.09299,-0.25148400000000004,-0.003259,-0.092856,-0.995674,0.004036,0.000563,4e-06,0.0008939999999999999,0.014044999999999998,-0.007698
90,-0.003211,0.092863,-0.25146799999999997,-0.0031969999999999998,-0.09272999999999999,-0.9956860000000001,-0.005547,0.005918,0.000998,0.001855,0.010119,-0.006542
91,-0.003118,0.092692,-0.25147600000000003,-0.003104,-0.092559,-0.9957020000000001,-0.004475,0.0048579999999999995,-0.0011300000000000001,-0.00039,0.01593,-0.006509999999999999
92,-0.0029920000000000003,0.092565,-0.25136,-0.002979,-0.092433,-0.995714,0.000811,0.0058579999999999995,0.010657,-0.000546,0.010493,0.001284
93,-0.002919,0.09254,-0.251168,-0.002907,-0.092408,-0.995717,0.000811,0.0037359999999999997,0.008523000000000001,0.00011399999999999999,0.012695999999999999,-0.004069
94,-0.002811,0.092487,-0.251077,-0.002799,-0.092356,-0.9957219999999999,-0.00041900000000000005,0.007925,0.00213,-0.0015949999999999998,0.013941,-0.0018670000000000002
95,-0.002689,0.09242,-0.25101100000000004,-0.002677,-0.092288,-0.9957290000000001,0.002777,0.007909999999999999,0.003221,-0.005944,0.019702,-0.001998
96,-0.002569,0.092438,-0.250908,-0.002558,-0.092306,-0.995727,0.0006190000000000001,0.004713,0.005346,-0.0056359999999999995,0.017813,-6.1e-05
97,-0.002501,0.092412,-0.250811,-0.00249,-0.09228099999999999,-0.9957299999999999,0.0016769999999999999,0.002578,0.0053560000000000005,-0.0024690000000000003,0.014858000000000001,-0.005490999999999999
98,-0.0024980000000000002,0.092375,-0.250745,-0.002487,-0.092244,-0.995733,0.0038200000000000005,0.001519,0.002168,0.001801,0.010929000000000001,-0.000681
99,-0.002405,0.092416,-0.250716,-0.002395,-0.092284,-0.9957299999999999,0.004915999999999999,0.006845,0.0011,-0.000367,0.010848,-0.00021099999999999998
100,-0.0022890000000000002,0.092383,-0.250707,-0.0022789999999999998,-0.092252,-0.995733,0.002607,0.007776999999999999,-1.2e-05,-0.003565,0.013058000000000002,-0.002085
101,-0.002188,0.092378,-0.25069400000000003,-0.0021780000000000002,-0.09224700000000001,-0.995734,0.0068650000000000004,0.005631000000000001,2e-05,-0.001285,0.012275,-0.002542
102,-0.0020510000000000003,0.09244,-0.250677,-0.002042,-0.092309,-0.9957280000000001,0.003665,0.006703,0.001065,-0.000719,0.009392,-0.003188
103,-0.001963,0.092395,-0.250646,-0.001954,-0.092264,-0.995733,-0.002751,0.0035299999999999997,0.001024,0.001771,0.013559,-0.0070290000000000005
104,-0.0019039999999999999,0.092238,-0.250575,-0.001895,-0.09210800000000001,-0.9957469999999999,-0.000627,0.0056359999999999995,0.005309,0.00043099999999999996,0.016684,-0.00023999999999999998
105,-0.0017530000000000002,0.092231,-0.25045100000000003,-0.0017460000000000002,-0.0921,-0.995748,0.002579,0.008812,0.007464,0.000769,0.016294,0.0008449999999999999
106,-0.001611,0.092316,-0.2503,-0.001605,-0.092185,-0.995741,0.005779,0.00774,0.006418999999999999,-0.002195,0.014091,0.0006230000000000001
107,-0.001462,0.092288,-0.250177,-0.001456,-0.092157,-0.995743,0.005779,0.006679000000000001,0.005352,-0.0028469999999999997,0.013208000000000001,-0.0018
108,-0.001326,0.09234500000000001,-0.250092,-0.00132,-0.092213,-0.9957379999999999,0.001521,0.007763,0.004253,-0.002983,0.013263999999999998,-0.001805
109,-0.001194,0.092196,-0.250002,-0.001189,-0.092066,-0.9957520000000001,0.00137,0.0065769999999999995,0.0042049999999999995,-0.000184,0.016794,-0.004171
110,-0.00109,0.092213,-0.24993800000000002,-0.001085,-0.09208200000000001,-0.995751,0.002437,0.0055130000000000005,0.003145,-0.001997,0.011729,-0.0071790000000000005
111,-0.001065,0.092169,-0.24984800000000001,-0.00106,-0.092038,-0.995755,-0.00186,0.000197,0.004190999999999999,-0.002877,0.010404,-0.009784000000000001
112,-0.001112,0.092038,-0.24982,-0.0011070000000000001,-0.091908,-0.995767,0.0013599999999999999,0.00020299999999999997,-5.9999999999999995e-05,0.002206,0.009389,0.002176
113,-0.001121,0.092102,-0.24988400000000002,-0.001116,-0.091972,-0.995761,0.009909000000000001,-0.001936,-0.005339,0.005754,0.006309,0.004520000000000001
114,-0.001251,0.09222999999999999,-0.25003800000000004,-0.0012460000000000001,-0.092099,-0.995749,0.006698999999999999,-0.0083,-0.009626000000000001,0.0035189999999999996,0.004483,0.00315
115,-0.001517,0.09218,-0.250284,-0.00151,-0.092049,-0.9957530000000001,-0.000788,-0.015718,-0.012872999999999999,0.006714,0.016854,-0.009358
116,-0.0017699999999999999,0.092192,-0.25054299999999996,-0.0017629999999999998,-0.092061,-0.9957520000000001,0.0065840000000000004,-0.013677000000000002,-0.013928,0.0032119999999999996,0.01949,-0.006461
117,-0.002073,0.092356,-0.250711,-0.002064,-0.092224,-0.9957360000000001,0.008661,-0.017979,-0.005362,0.004124,0.021072999999999998,-0.006644
118,-0.002372,0.092516,-0.250765,-0.002362,-0.09238400000000001,-0.995721,0.011842,-0.018008,-0.001067,-0.001392,0.015541,-0.0018679999999999999
119,-0.0026829999999999996,0.092727,-0.250766,-0.002671,-0.09259500000000001,-0.9957,0.010775,-0.014821,0.0021260000000000003,-0.003249,0.016926,-0.000668
120,-0.0028309999999999997,0.092807,-0.250747,-0.0028190000000000003,-0.092673,-0.995693,0.004422,-0.004146,0.002068,-0.005497,0.018438999999999997,-0.002522
121,-0.002832,0.092734,-0.250693,-0.00282,-0.092601,-0.995699,0.00336,-0.003077,0.002059,-0.0013310000000000002,0.018657,-0.00572
122,-0.003023,0.092735,-0.250652,-0.00301,-0.092602,-0.995699,0.003322,-0.01266,0.001003,-0.000728,0.013104,-0.005705
123,-0.0032670000000000004,0.092782,-0.250706,-0.0032530000000000002,-0.092649,-0.9956940000000001,0.002293,-0.0105,-0.005416,0.001056,0.010664,-0.0013160000000000001
124,-0.003317,0.092714,-0.250753,-0.003303,-0.09258200000000001,-0.9957,0.0033840000000000003,0.000127,-8.1e-05,-0.003442,0.004737,-5.7999999999999994e-05
125,-0.003321,0.09265,-0.250728,-0.0033060000000000003,-0.092517,-0.995706,-0.002026,8.3e-05,0.000923,-0.0035450000000000004,0.014941999999999999,-0.005149
126,-0.003199,0.092544,-0.2507,-0.0031850000000000003,-0.092412,-0.9957159999999999,-0.004122,0.009674,0.001964,-0.004459,0.019459999999999998,-0.0024530000000000003
127,-0.0030039999999999997,0.092424,-0.250606,-0.002991,-0.092293,-0.995727,-0.0009449999999999999,0.009641,0.007326999999999999,-0.007781999999999999,0.022147999999999998,-0.003128
128,-0.002947,0.092473,-0.250407,-0.002934,-0.09234099999999999,-0.9957229999999999,0.005399,1.9e-05,0.010588,-0.00143,0.013590000000000001,-0.0020800000000000003
129,-0.003031,0.09261,-0.250193,-0.003018,-0.09247799999999999,-0.99571,0.009656999999999999,-0.003188,0.009554,0.0033689999999999996,0.01063,-0.001894
130,-0.003135,0.092622,-0.250056,-0.0031219999999999998,-0.09249,-0.9957090000000001,0.0043560000000000005,-0.001017,0.004173,0.010537000000000001,0.004767,-0.002506
131,-0.003177,0.092586,-0.250066,-0.003163,-0.092454,-0.995712,0.0022559999999999998,-0.00098,-0.003319,0.003728,0.010316,-0.000641
132,-0.0031850000000000003,0.092613,-0.25019600000000003,-0.003172,-0.092481,-0.9957090000000001,0.0033369999999999997,-0.002032,-0.0075829999999999995,0.002271,0.013897999999999999,-0.002139
133,-0.003256,0.092599,-0.250329,-0.003242,-0.092467,-0.99571,0.0021739999999999997,-0.007456999999999999,-0.005501,-0.002617,0.020873,-0.004518
134,-0.003327,0.092624,-0.250386,-0.0033130000000000004,-0.09249099999999999,-0.995708,0.0032359999999999997,-0.004282,-0.001225,-0.001891,0.019753,-0.005589
135,-0.0034490000000000002,0.092686,-0.25033099999999997,-0.0034340000000000004,-0.092553,-0.9957020000000001,0.004268999999999999,-0.006437000000000001,0.0041259999999999995,0.000932,0.017968,-0.004451
136,-0.00359,0.092671,-0.25025,-0.0035740000000000004,-0.092539,-0.9957030000000001,0.004268999999999999,-0.007498,0.003059,0.0021550000000000002,0.011881000000000001,-0.004175
137,-0.003706,0.09260299999999999,-0.250221,-0.0036899999999999997,-0.092471,-0.9957090000000001,-0.0021030000000000003,-0.004267,-0.000194,0.000348,0.011691,-0.0004
138,-0.0037869999999999996,0.092564,-0.250261,-0.003771,-0.092432,-0.995712,0.001102,-0.005335,-0.002307,-0.001737,0.012537000000000001,-0.000977
139,-0.0038689999999999996,0.09249500000000001,-0.250324,-0.0038520000000000004,-0.092363,-0.995718,0.0021739999999999997,-0.005335,-0.003368,-0.006035,0.014391,-0.000147
140,-0.003921,0.092498,-0.250399,-0.0039049999999999996,-0.092366,-0.995717,0.002117,-0.003333,-0.003445,-0.003832,0.015094999999999999,-0.006114
141,-0.003912,0.092502,-0.250448,-0.0038950000000000005,-0.09237000000000001,-0.995717,0.001065,0.001989,-0.001323,-0.003735,0.015465999999999999,-0.007701
142,-0.0038799999999999998,0.09241100000000001,-0.250474,-0.0038640000000000002,-0.09228,-0.995726,-0.002146,0.00093,-0.000276,-0.000241,0.014566999999999998,-0.003389
143,-0.0038909999999999995,0.092269,-0.250456,-0.0038740000000000003,-0.092138,-0.9957389999999999,-0.005346,0.000942,-0.000298,0.0038740000000000003,0.012442,-0.001347
144,-0.003865,0.092164,-0.250434,-0.003848,-0.092033,-0.995749,-0.001074,0.003053,0.000797,0.0041990000000000005,0.011741,-0.00046699999999999997
145,-0.003849,0.092083,-0.250427,-0.003833,-0.091953,-0.995756,-7.000000000000001e-06,0.0019879999999999997,-0.000262,0.00133,0.013965,-0.004
146,-0.0037990000000000003,0.09206900000000001,-0.250411,-0.003783,-0.09193899999999999,-0.995757,0.002127,0.004103,0.001887,-0.002931,0.014362999999999999,-0.002442
147,-0.0037049999999999995,0.092086,-0.25032,-0.003689,-0.091956,-0.995756,0.00105,0.005159,0.005082,-0.004368,0.015509,-0.002931
148,-0.0036009999999999996,0.092053,-0.250183,-0.003585,-0.091923,-0.9957600000000001,0.002093,0.0019510000000000003,0.0072299999999999994,-0.0016179999999999999,0.015034,-0.004866
149,-0.0035979999999999996,0.092002,-0.250087,-0.003582,-0.09187200000000001,-0.995764,0.002017,0.0008449999999999999,0.003999,0.0028350000000000003,0.014159,-0.001443
150,-0.00358,0.09199199999999999,-0.250054,-0.003565,-0.091863,-0.995765,0.002026,-0.000207,0.000796,0.00358,0.009434999999999999,0.00047999999999999996
151,-0.0036479999999999998,0.092029,-0.250064,-0.003632,-0.091899,-0.995762,0.000959,-0.002325,-0.0013449999999999998,0.0021219999999999998,0.010188,-0.000942
152,-0.0036710000000000002,0.091837,-0.250111,-0.003655,-0.091708,-0.9957790000000001,-0.0043560000000000005,0.000893,-0.002455,0.00025299999999999997,0.011720999999999999,-0.002573
153,-0.003592,0.091788,-0.250192,-0.0035770000000000003,-0.091659,-0.995784,-0.002198,0.005151,-0.003514,0.000174,0.011672,-0.002568
154,-0.0034700000000000004,0.09170199999999999,-0.250152,-0.0034549999999999997,-0.091574,-0.995792,0.00095,0.002971,0.006125,-0.000268,0.008825,-0.001812
155,-0.003428,0.091647,-0.250014,-0.003414,-0.09151799999999999,-0.995798,-0.000117,0.002975,0.006118,-0.000386,0.011517,-0.002707
156,-0.0033490000000000004,0.091645,-0.24991799999999997,-0.0033350000000000003,-0.091516,-0.995798,0.002036,0.005106,0.003994,0.001748,0.011498999999999999,-0.0019440000000000002
157,-0.003206,0.09165,-0.24984499999999998,-0.003193,-0.091522,-0.995798,0.004084,0.009423,0.002934,-0.0032920000000000002,0.018021000000000002,-0.005011
158,-0.003071,0.091683,-0.249806,-0.003058,-0.091555,-0.9957950000000001,0.001945,0.0062439999999999996,0.000787,-0.001046,0.01729,-0.002129
159,-0.002932,0.091691,-0.24982800000000002,-0.00292,-0.091563,-0.9957950000000001,0.001964,0.0073219999999999995,-0.002419,0.000997,0.015269,-0.001062
160,-0.002796,0.09162100000000001,-0.249835,-0.002784,-0.09149299999999999,-0.9958020000000001,-0.00126,0.005189,0.000766,0.00463,0.013078,-0.004915
161,-0.00275,0.09153,-0.24983400000000003,-0.002738,-0.091402,-0.9958100000000001,-0.000193,0.004125,-0.000294,0.0038369999999999997,0.012881,-0.002816
162,-0.002675,0.091563,-0.249844,-0.002664,-0.091435,-0.995807,0.004074,0.00411,-0.000264,0.0006190000000000001,0.010533,-0.0014609999999999998
163,-0.002602,0.091548,-0.24983400000000003,-0.002591,-0.09142,-0.995809,0.0019260000000000002,0.003043,0.001859,0.00018,0.012486,-0.004176
164,-0.002464,0.091552,-0.24980300000000003,-0.002454,-0.091424,-0.995809,0.001955,0.008374,0.000784,-0.0025510000000000003,0.015694999999999997,-0.005595
165,-0.0022199999999999998,0.091531,-0.24973099999999998,-0.002211,-0.091403,-0.995812,0.0007769999999999999,0.010529,0.005025,-0.002916,0.012653,-0.0034409999999999996
166,-0.0021579999999999998,0.091418,-0.249631,-0.002149,-0.091291,-0.995822,-0.002467,0.000953,0.005014,0.004392,0.01547,0.001163
167,-0.002112,0.09142,-0.249573,-0.0021030000000000003,-0.091293,-0.995822,0.003968,0.0052049999999999996,0.001849,0.0022559999999999998,0.014251,0.002826
168,-0.001911,0.09147000000000001,-0.24954,-0.0019030000000000002,-0.091343,-0.995818,0.004006,0.012666,0.000772,0.002239,0.012866999999999998,0.0040880000000000005
169,-0.0017530000000000002,0.09144,-0.24951199999999998,-0.001745,-0.091313,-0.995821,0.001849,0.007347,0.000763,-0.000666,0.012866999999999998,-0.007384
170,-0.0016589999999999999,0.091432,-0.24951900000000002,-0.001652,-0.091305,-0.995822,0.0018390000000000001,0.004155,-0.000301,-0.003002,0.012448,-0.004957
171,-0.001596,0.09143,-0.249536,-0.0015890000000000001,-0.091303,-0.995822,0.000763,0.002029,-0.000306,0.000704,0.010843,-0.00427
172,-0.00157,0.09135,-0.24957100000000002,-0.001564,-0.091223,-0.9958290000000001,0.000669,-1.8e-05,-0.0013800000000000002,0.002372,0.011877,-0.00176
173,-0.001594,0.09134199999999999,-0.24964499999999998,-0.0015869999999999999,-0.091215,-0.9958299999999999,0.00175,-0.00107,-0.005644,0.004609,0.013654,-5e-05
174,-0.0015970000000000001,0.091297,-0.249737,-0.00159,-0.09117,-0.995834,-0.00358,0.001075,-0.004615,0.003482,0.013288999999999999,-0.003006
175,-0.001501,0.091166,-0.249846,-0.0014939999999999999,-0.09104,-0.9958459999999999,-0.002484,0.006402,-0.005683,-0.004212,0.015371000000000001,-0.000217
176,-0.00122,0.091213,-0.249955,-0.001215,-0.091086,-0.995842,0.008223000000000001,0.015947,-0.0045520000000000005,-0.011175,0.006202,0.002007
177,-0.000875,0.091324,-0.25000900000000004,-0.0008710000000000001,-0.091197,-0.995833,-0.00032599999999999996,0.015964,-0.001407,-0.011519,0.006312,0.001997
178,-0.0005740000000000001,0.091183,-0.250126,-0.000572,-0.091057,-0.9958459999999999,-0.004575,0.012813,-0.00891,-0.000588,0.009087,-0.009281000000000001
179,-0.00028399999999999996,0.091038,-0.250371,-0.000283,-0.090912,-0.995859,-0.0034649999999999998,0.018153,-0.013182,0.005212,0.019119999999999998,-0.00321
180,0.000256,0.090873,-0.250621,0.00025499999999999996,-0.090748,-0.9958739999999999,-0.010894,0.029883999999999997,-0.010043999999999999,0.004673,0.018956,-0.003195
181,0.0006730000000000001,0.090724,-0.250749,0.00067,-0.0906,-0.9958870000000001,-0.003561,0.017098,-0.005718,0.0049,0.013848,-0.007943
182,0.0008210000000000001,0.090646,-0.250842,0.0008179999999999999,-0.090522,-0.9958940000000001,-0.004691,0.004315,-0.004640999999999999,0.0067659999999999994,0.011207,-0.011964
183,0.000983,0.090504,-0.250888,0.0009789999999999998,-0.09038099999999999,-0.995907,-0.007872,0.010709,-0.002535,0.011258,0.010028,-0.00806
184,0.001387,0.090225,-0.250872,0.001381,-0.090103,-0.9959319999999999,-0.006804999999999999,0.019193,0.0060079999999999995,0.013557,0.012603,0.000357
185,0.0015609999999999999,0.090139,-0.250725,0.0015550000000000002,-0.090017,-0.9959389999999999,-0.001557,0.0021219999999999998,0.008203,0.014009,0.018163,-0.0036950000000000004
186,0.001491,0.090061,-0.250539,0.001485,-0.08993999999999999,-0.9959459999999999,-0.000533,-0.005347,0.010356,0.012279,0.018254,-0.007121
187,0.001446,0.09004,-0.250305,0.00144,-0.089918,-0.9959479999999999,0.003729,-0.004306,0.012521,0.000132,0.022703,-0.008935
188,0.001343,0.090042,-0.24995799999999999,0.001338,-0.08992,-0.9959479999999999,0.002564,-0.009661,0.019969999999999998,-0.005091,0.012512,-0.00022200000000000003
189,0.001013,0.090077,-0.249592,0.001009,-0.089955,-0.9959450000000001,0.001454,-0.022427000000000002,0.016773,-0.002489,0.008473,-0.003917
190,0.000426,0.089992,-0.249346,0.000424,-0.08987,-0.9959530000000001,-0.002833,-0.034101,0.009281000000000001,0.0025210000000000002,0.00877,-0.005267
191,-0.00019099999999999998,0.08986,-0.249295,-0.00018999999999999998,-0.089739,-0.995965,-0.0038229999999999996,-0.026601999999999997,-0.00035,0.0035009999999999998,0.011553,0.002496
192,-0.000602,0.089805,-0.24933200000000003,-0.0006,-0.089684,-0.99597,0.0026309999999999997,-0.017028,-0.0024530000000000003,-0.006876999999999999,0.010369,0.007994
193,-0.00108,0.089875,-0.24938000000000002,-0.001076,-0.089754,-0.9959629999999999,0.0057740000000000005,-0.029822,-0.002415,-0.013678999999999998,0.005785,-0.001336
194,-0.00172,0.089875,-0.249441,-0.001713,-0.089754,-0.9959620000000001,-0.0016899999999999999,-0.030853,-0.004602,-0.010296,0.001925,-0.007470999999999999
195,-0.002001,0.089803,-0.249536,-0.001993,-0.089683,-0.9959680000000001,-0.002637,-0.004218,-0.0046429999999999996,-0.002646,0.007072,-0.003513
196,-0.001893,0.08972100000000001,-0.249558,-0.0018850000000000002,-0.0896,-0.995976,-0.0015710000000000001,0.008481,-0.000412,0.000176,0.01114,0.0023079999999999997
197,-0.0018039999999999998,0.089668,-0.24949699999999997,-0.001797,-0.089548,-0.9959809999999999,-0.000528,0.006334,0.002803,-0.002506,0.014841,-0.00257
198,-0.0017640000000000002,0.089637,-0.249452,-0.001757,-0.089517,-0.995984,-0.000533,0.004208,0.001738,0.002932,0.017603,-0.0061070000000000004
199,-0.001673,0.089604,-0.24945799999999999,-0.001666,-0.08948400000000001,-0.9959870000000001,-0.0005139999999999999,0.005286,-0.001468,0.0087,0.023215,-0.001984
200,-0.001599,0.089536,-0.249525,-0.001593,-0.089416,-0.995993,-0.0015810000000000002,0.002106,-0.004676,0.012106,0.02005,-0.002588
201,-0.0016469999999999998,0.089446,-0.24964,-0.001641,-0.089327,-0.996001,-0.002676,-0.006404000000000001,-0.006809999999999999,0.013694999999999999,0.017183,-0.006745999999999999
202,-0.001905,0.08934600000000001,-0.249804,-0.001898,-0.089228,-0.996009,-0.0016530000000000002,-0.018116999999999998,-0.008924,0.012625,0.015009,-0.004372
203,-0.002199,0.089276,-0.24993800000000002,-0.0021899999999999997,-0.089158,-0.996015,0.000471,-0.016011,-0.004639,0.006188,0.008728,-0.002184
204,-0.002451,0.089224,-0.24999200000000002,-0.002441,-0.08910499999999999,-0.9960190000000001,-0.0016719999999999999,-0.012828999999999998,0.000683,0.005462,0.008951,-0.000792
205,-0.002604,0.08910499999999999,-0.249901,-0.002594,-0.088987,-0.996029,-0.001732,-0.010825,0.007061,-0.0064849999999999994,0.009641,-0.00159
206,-0.002757,0.08907000000000001,-0.249694,-0.002746,-0.088952,-0.9960319999999999,0.001459,-0.007662,0.012421,-0.006089,0.009973000000000001,-0.002183
207,-0.002892,0.089125,-0.249426,-0.00288,-0.089007,-0.996027,0.004664,-0.005547,0.013508000000000001,-0.005604,0.011385,-0.002798
208,-0.0029289999999999997,0.089193,-0.249162,-0.002918,-0.089074,-0.9960209999999999,0.005765,0.0008449999999999999,0.012440000000000001,-0.007275,0.010659,0.002262
209,-0.002873,0.089297,-0.24897399999999997,-0.002861,-0.089178,-0.9960120000000001,0.007941,0.00512,0.007108,-0.007606,0.008337,0.00065
210,-0.002754,0.089429,-0.248926,-0.0027429999999999998,-0.08931,-0.996,0.006927,0.008354,-0.001449,-0.010014,0.009170999999999999,-0.000155
211,-0.002517,0.08943200000000001,-0.24900799999999998,-0.002507,-0.089313,-0.996,0.005918,0.016897,-0.0057399999999999994,-0.005046,0.020267,-0.00847
212,-0.002135,0.089551,-0.249139,-0.002127,-0.089431,-0.995991,0.004861,0.01797,-0.006817,-0.005425999999999999,0.020385,-0.00848
213,-0.0017760000000000002,0.089558,-0.24930100000000002,-0.0017690000000000002,-0.089438,-0.995991,0.00059,0.01781,-0.008945,-0.005006,0.02259,-0.009731
214,-0.0016460000000000001,0.089534,-0.249565,-0.001639,-0.089415,-0.995993,-0.000496,0.0061259999999999995,-0.016415,0.003135,0.022062000000000002,-0.009958
215,-0.0016129999999999999,0.089516,-0.249811,-0.001607,-0.089397,-0.9959950000000001,0.0047810000000000005,-0.00031,-0.00996,0.011418000000000001,0.00671,0.001045
216,-0.001586,0.089562,-0.24998800000000002,-0.0015789999999999999,-0.089443,-0.995991,0.002666,0.005019,-0.008914,0.014305000000000002,0.010494,-0.001202
217,-0.0015019999999999999,0.089399,-0.250134,-0.0014960000000000002,-0.08928,-0.9960049999999999,-0.005888,0.0029100000000000003,-0.006834000000000001,0.006698999999999999,0.016221,-0.008801
218,-0.001497,0.08931599999999999,-0.250203,-0.001491,-0.089197,-0.9960129999999999,-0.000602,-0.002456,-0.001449,0.00349,0.016306,-0.004719
219,-0.001511,0.089374,-0.25012,-0.001505,-0.089255,-0.996008,0.005761,-0.002513,0.007141,0.008126999999999999,0.01316,-0.000956
220,-0.001446,0.089448,-0.249873,-0.001441,-0.08932799999999999,-0.996001,0.0068390000000000005,0.00048499999999999997,0.013541,0.007712,0.005069,-0.0015119999999999999
221,-0.0014199999999999998,0.089516,-0.24963000000000002,-0.0014140000000000001,-0.089396,-0.9959950000000001,0.005782,0.0004969999999999999,0.011397,0.0035039999999999997,0.006495,-0.003639
222,-0.001462,0.089647,-0.249406,-0.001456,-0.089527,-0.995983,0.006843999999999999,-0.001633,0.010339,0.003546,0.006626000000000001,-0.00365
223,-0.0014,0.089668,-0.249205,-0.001394,-0.089548,-0.9959819999999999,0.005792,0.001567,0.010327,-0.002543,0.014138999999999999,-5e-06
224,-0.001368,0.08973099999999999,-0.249033,-0.001363,-0.089611,-0.995976,0.002601,0.001586,0.008169,-0.004007999999999999,0.015666,-0.001506
225,-0.001322,0.089799,-0.248901,-0.001317,-0.089678,-0.99597,0.004744,0.002648,0.007114,-0.004055,0.015734,-0.0015119999999999999
226,-0.001253,0.089866,-0.248754,-0.001248,-0.089745,-0.995964,0.006883,0.004767,0.008194,0.00053,0.014611,0.00011399999999999999
227,-0.001141,0.089973,-0.248594,-0.0011359999999999999,-0.089852,-0.9959549999999999,0.0068920000000000006,0.0068980000000000005,0.008192,0.002357,0.015359000000000001,-0.001925
228,-0.001031,0.090084,-0.24845,-0.001027,-0.089963,-0.9959450000000001,0.004758,0.005843999999999999,0.007109999999999999,0.002248,0.015469,-0.001934
229,-0.0009939999999999999,0.09010900000000001,-0.24833200000000002,-0.00099,-0.089987,-0.995942,0.005838,0.0027129999999999997,0.004946,0.004118,0.016623,-0.0008529999999999999
230,-0.001045,0.09022899999999999,-0.248194,-0.001041,-0.090107,-0.9959319999999999,0.010062,-0.003706,0.008189,0.001438,0.015721000000000002,-0.001551
231,-0.0012029999999999999,0.090371,-0.247982,-0.001198,-0.090249,-0.995919,0.004685,-0.010092,0.011364,0.0015949999999999998,0.015862,-0.001564
232,-0.001497,0.090242,-0.24766999999999997,-0.001491,-0.09012,-0.99593,-0.009237,-0.016456000000000002,0.016616,0.00088,0.015106999999999999,-0.016291999999999997
233,-0.001843,0.08983200000000001,-0.24730300000000002,-0.001835,-0.089711,-0.995966,-0.019916,-0.017488999999999998,0.017611,0.002018,0.008764,0.00506
234,-0.002311,0.089492,-0.24698699999999998,-0.002302,-0.08937200000000001,-0.9959959999999999,-0.015653,-0.022813,0.013375,0.0024850000000000002,0.008424,0.00509
235,-0.002862,0.088826,-0.24674000000000001,-0.0028510000000000002,-0.08870900000000001,-0.9960540000000001,-0.043435,-0.031242000000000002,0.01426,-0.001559,0.0052439999999999995,-0.008936
236,-0.0036030000000000003,0.087826,-0.246425,-0.003589,-0.087713,-0.996139,-0.042374,-0.037538999999999996,0.014266999999999998,-0.002621,0.020483,0.002991
237,-0.004239,0.087357,-0.24623499999999998,-0.004222,-0.087246,-0.9961780000000001,-0.01241,-0.02483,0.0069819999999999995,-0.0019879999999999997,0.020016,0.003029
238,-0.00463,0.087262,-0.246128,-0.004612,-0.08715099999999999,-0.9961840000000001,0.00043499999999999995,-0.019532,0.002792,0.0018960000000000001,0.015786,-0.00351
239,-0.005059,0.087275,-0.24610500000000002,-0.005039,-0.087164,-0.996181,0.001492,-0.024849,-0.000398,-0.019161,0.011526,-0.006108
240,-0.005556,0.087136,-0.24590599999999999,-0.005535,-0.087025,-0.9961909999999999,-0.009295999999999999,-0.034467000000000005,0.016630000000000002,-0.011204,0.044285000000000005,-0.006678
241,-0.006029,0.087226,-0.24509699999999998,-0.006006,-0.087115,-0.99618,0.030182999999999998,-0.019747,0.030774,-0.022818,0.004351,0.031932
242,-0.005638000000000001,0.088034,-0.24520799999999998,-0.0056159999999999995,-0.087921,-0.9961120000000001,0.031689999999999996,0.030508999999999998,-0.01735,0.08664,-0.034348000000000004,-0.036939
243,-0.0062770000000000005,0.087993,-0.245848,-0.006253,-0.08788,-0.9961110000000001,-0.019787,-0.060797000000000004,-0.049638999999999996,0.109127,-0.013362,-0.025892000000000002
244,-0.006079,0.086947,-0.247448,-0.006056000000000001,-0.086837,-0.9962040000000001,-0.056471,0.052383000000000006,-0.08315499999999999,0.021376,0.021789,-0.01669
245,-0.00549,0.086384,-0.248475,-0.005469,-0.086276,-0.9962559999999999,-0.00683,0.0040939999999999995,-0.024028,-0.029305,0.038623000000000005,0.026300999999999998
246,-0.00619,0.086979,-0.248322,-0.006166,-0.08687,-0.996201,0.039689999999999996,-0.052677999999999996,0.013757,-0.031447,-0.002242,0.008347
247,-0.006397,0.087512,-0.248241,-0.006372999999999999,-0.0874,-0.9961530000000001,0.016458,-0.007821,0.004992,0.005564,0.019773,-0.010790000000000001
248,-0.0058590000000000005,0.087622,-0.24803699999999998,-0.005837,-0.08751,-0.9961469999999999,0.008076999999999999,0.036907999999999996,0.015558,0.012383,0.028062,-0.010948999999999999
249,-0.0053219999999999995,0.08784700000000001,-0.24759,-0.005301,-0.087734,-0.99613,0.017535,0.014465,0.025266999999999998,0.004874,0.022655,-0.013422
250,-0.005746,0.088095,-0.24697,-0.005724,-0.08798099999999999,-0.9961059999999999,0.014186,-0.013241999999999999,0.030619999999999998,0.013475999999999998,0.018905,0.004071
251,-0.005850999999999999,0.088369,-0.24650100000000003,-0.005828,-0.088254,-0.996081,0.016472999999999998,0.007045999999999999,0.016723,0.014662999999999999,0.012158,-0.005903
252,-0.005539,0.088661,-0.24630700000000003,-0.005518,-0.088545,-0.996057,0.020803,0.01027,0.006067,0.005579,0.014738,-0.005332
253,-0.005744,0.08906,-0.24631199999999998,-0.005721,-0.088942,-0.9960200000000001,0.020658000000000003,-0.022718000000000002,-0.004563,-0.009599,0.008025,-0.004315
254,-0.006243,0.08918,-0.24653699999999998,-0.006218,-0.089062,-0.996007,0.001469,-0.029004000000000002,-0.014303,-0.0008470000000000001,0.007213,-0.0044210000000000005
255,-0.006693000000000001,0.089159,-0.24685100000000001,-0.006667,-0.089041,-0.996006,0.002574,-0.021547,-0.015373,0.008101,0.0072840000000000005,0.0017280000000000002
256,-0.006668,0.08922000000000001,-0.24711999999999998,-0.006640999999999999,-0.089102,-0.996,0.006966,0.01144,-0.010043,-0.002606,0.010579999999999999,-7.8e-05
257,-0.006219,0.089375,-0.247173,-0.006194,-0.08925599999999999,-0.9959889999999999,0.012315000000000001,0.026288,0.001726,-0.011888,0.00811,-0.004835
258,-0.005854,0.089577,-0.247104,-0.005831,-0.08945700000000001,-0.995974,0.009056999999999999,0.015638,0.003853,-0.010496,0.012003,-0.00601
259,-0.0055850000000000006,0.089696,-0.247049,-0.005562,-0.089576,-0.995964,0.006914,0.012454,0.002774,0.005593,0.013587,-0.0026620000000000003
260,-0.005263,0.08976,-0.246908,-0.005242,-0.089639,-0.9959610000000001,0.003713,0.019892,0.01022,0.002113,0.009988,-7.2e-05
261,-0.004959000000000001,0.08972000000000001,-0.24661100000000002,-0.004939,-0.089599,-0.995966,-0.002833,0.014533,0.017578,-0.004079,0.01036,0.0013210000000000001
262,-0.004823,0.089647,-0.246236,-0.004803,-0.089527,-0.995973,0.001415,0.011318,0.018680000000000002,0.000973,0.012287000000000001,-0.004118999999999999
263,-0.004612,0.089688,-0.24590399999999998,-0.004593,-0.089568,-0.99597,0.002501,0.013453,0.016548,0.002671,0.011992000000000001,-0.003633
264,-0.004207,0.08957000000000001,-0.245623,-0.00419,-0.08945,-0.9959819999999999,-0.00812,0.022021000000000002,0.014325999999999998,-8.2e-05,0.011508,-0.006612000000000001
265,-0.003927,0.08932000000000001,-0.245367,-0.0039109999999999995,-0.089202,-0.996006,-0.010297,0.010319,0.012190000000000001,0.011387999999999999,0.022567,-0.003857
266,-0.003871,0.089108,-0.24518099999999998,-0.003855,-0.08899,-0.996025,-0.002833,0.00074,0.003708,0.019953,0.017549000000000002,-0.0063100000000000005
267,-0.003946,0.089036,-0.24519899999999997,-0.0039299999999999995,-0.088918,-0.996031,-0.004961999999999999,-0.004553,-0.002709,0.01864,0.015233000000000002,-0.007127
268,-0.003975,0.088874,-0.245259,-0.003959000000000001,-0.088757,-0.9960450000000001,-0.004953,-0.0024230000000000002,-0.002712,0.009925,0.015544999999999998,-0.002963
269,-0.00395,0.088799,-0.245229,-0.003935,-0.08868200000000001,-0.996052,0.003599,-0.00021600000000000002,0.004644,-0.0034049999999999996,0.014616,0.000828
270,-0.004036,0.088948,-0.24507800000000002,-0.00402,-0.08882999999999999,-0.9960389999999999,0.011015,-0.008777,0.007912,-0.00808,0.012399,-0.000849
271,-0.004241,0.08905,-0.244957,-0.004225,-0.088933,-0.996029,0.005671,-0.014072,0.004676,-0.007356999999999999,0.010320000000000001,-0.0037119999999999996
272,-0.004502,0.089108,-0.244921,-0.004484,-0.08899,-0.996022,0.006742000000000001,-0.017254,0.00041500000000000006,0.00157,0.007248999999999999,-0.00059
273,-0.004719,0.089143,-0.24498899999999998,-0.0047,-0.089025,-0.9960180000000001,-0.001716,-0.005485,-0.005,0.0017850000000000001,0.0072840000000000005,-0.000594
274,-0.004785,0.088926,-0.245079,-0.004765999999999999,-0.088809,-0.9960370000000001,-0.011299,-0.002251,-0.006139,0.009434999999999999,0.003222,-0.00294
275,-0.0047799999999999995,0.088668,-0.24518299999999998,-0.004761,-0.08855199999999999,-0.9960600000000001,-0.008088,0.0030510000000000003,-0.002919,0.005799,0.006841,0.00028700000000000004
276,-0.00474,0.088503,-0.245168,-0.004721,-0.088388,-0.996075,-0.005988,0.000892,0.002439,0.007758,0.005929,0.000256
277,-0.004594,0.08842,-0.24513800000000002,-0.004576,-0.088305,-0.9960829999999999,-0.000528,0.010743,0.001318,0.007490000000000001,0.007495,-0.004985
278,-0.004249,0.088375,-0.245125,-0.004232,-0.08826,-0.9960889999999999,-0.003715,0.015011000000000002,0.002359,0.0016989999999999998,0.013797,-0.012075
279,-0.004159,0.0883,-0.244998,-0.004143,-0.088185,-0.9960950000000001,-0.0006190000000000001,-0.00207,0.008812,-0.0019149999999999998,0.018361000000000002,-0.011473
280,-0.004296,0.088403,-0.244682,-0.004279,-0.088288,-0.996086,0.012111,-0.008545,0.018522999999999998,-0.0037619999999999997,0.026398,-0.009392
281,-0.004475,0.088681,-0.244365,-0.004458,-0.08856499999999999,-0.9960600000000001,0.016406999999999998,-0.0074730000000000005,0.01321,-0.01077,0.034167,0.0015539999999999998
282,-0.004539,0.089058,-0.24430700000000002,-0.004521,-0.08894099999999999,-0.996027,0.01867,0.002183,-0.006014,-0.010707,0.034543,0.0015199999999999999
283,-0.0042899999999999995,0.089252,-0.244635,-0.004273,-0.089133,-0.9960110000000001,0.009208,0.017194,-0.022123,-0.016281,0.027030000000000002,0.005379
284,-0.0037549999999999997,0.089273,-0.245126,-0.00374,-0.089155,-0.9960110000000001,0.00495,0.029136000000000002,-0.025441,-0.02136,0.023663999999999998,-0.000495
285,-0.00313,0.089438,-0.24570300000000003,-0.003118,-0.089318,-0.9959979999999999,0.015657,0.030194,-0.032845,-0.023097,0.020378999999999998,-0.004124
286,-0.002486,0.089679,-0.246441,-0.0024760000000000003,-0.089559,-0.995978,0.014629,0.032354,-0.039264,-0.00938,-0.0035810000000000004,-0.007958
287,-0.001814,0.089672,-0.247295,-0.001807,-0.089551,-0.9959809999999999,-0.006670000000000001,0.034585000000000005,-0.045825,0.006261999999999999,-0.012087,-0.011434999999999999
288,-0.001018,0.08925,-0.24829400000000001,-0.0010140000000000001,-0.08913099999999999,-0.9960190000000001,-0.024763999999999998,0.037869,-0.052364999999999995,0.00785,-0.013377000000000002,-0.007658
289,-0.000512,0.08865,-0.24940700000000002,-0.0005099999999999999,-0.088534,-0.996073,-0.025877999999999998,0.021915999999999998,-0.057694,0.026785000000000003,-0.005186,0.008524
290,-6.2e-05,0.088176,-0.250577,-6.2e-05,-0.088061,-0.996115,-0.022687,0.018713,-0.058736000000000003,0.033036,0.004565,0.004965
291,0.000375,0.087798,-0.25166900000000003,0.00037400000000000004,-0.087685,-0.9961479999999999,-0.018468000000000002,0.015472,-0.051224,0.030617000000000002,0.014214,-0.001166
292,0.000723,0.087574,-0.252537,0.000721,-0.087462,-0.996168,-0.010162000000000001,0.008015000000000001,-0.036256000000000004,0.021756,0.027312,-0.000918
293,0.0009050000000000001,0.087532,-0.253038,0.000901,-0.087421,-0.9961709999999999,0.002539,0.004698,-0.016935,0.018111000000000002,0.020465,-0.001586
294,0.001053,0.087675,-0.253114,0.001049,-0.087563,-0.996158,0.007768000000000001,0.003525,0.005535,0.015461,0.013985,-0.005032
295,0.001268,0.08775,-0.252793,0.001263,-0.087637,-0.996152,0.005563,0.004529,0.022609999999999998,0.005894,0.013341999999999998,-0.008868000000000001
296,0.001395,0.087841,-0.252154,0.00139,-0.087728,-0.996144,0.010844,0.006586,0.036531,9e-05,0.017263,0.002659
297,0.0015630000000000002,0.088115,-0.251338,0.001557,-0.088001,-0.9961190000000001,0.016179,0.012933000000000002,0.04297,-0.0022129999999999997,0.016697,0.004984000000000001
298,0.00182,0.08835499999999999,-0.25045700000000004,0.001813,-0.08824,-0.9960979999999999,0.011897,0.009752,0.042944,0.002627,0.007536,-0.010998
299,0.0017350000000000002,0.088421,-0.249705,0.0017280000000000002,-0.088306,-0.996092,0.000113,-0.009347,0.034339999999999996,0.001263,0.012882,-0.017809000000000002
300,0.00144,0.088358,-0.24914,0.001434,-0.08824299999999999,-0.9960979999999999,-0.00093,-0.012505,0.025791,9.2e-05,0.018266,-0.009182
301,0.001255,0.088394,-0.248669,0.00125,-0.088279,-0.9960950000000001,0.007589,-0.0029739999999999996,0.0225,-0.012343000000000002,0.017509,0.007997
302,0.001274,0.08845499999999999,-0.248299,0.001269,-0.08834,-0.9960899999999999,0.002322,0.0034700000000000004,0.013909,-0.019717,0.01406,-0.001652
303,0.001184,0.088463,-0.248192,0.001179,-0.088348,-0.9960889999999999,-0.00086,-0.007112,-0.0010539999999999998,-0.017064,0.018019999999999998,-0.009511
304,0.0010810000000000001,0.08831,-0.24835300000000002,0.001077,-0.08819600000000001,-0.9961030000000001,-0.00827,-0.004913,-0.011791,-0.005136,0.015441999999999999,-0.004065
305,0.0010710000000000001,0.088112,-0.248694,0.001067,-0.087998,-0.9961200000000001,-0.008208,0.00257,-0.01821,-0.002501,0.014482,0.00114
306,0.00108,0.087917,-0.24902399999999997,0.001076,-0.087804,-0.996137,-0.007174,-0.002769,-0.016059,0.0030440000000000003,0.008931999999999999,0.002775
307,0.0009130000000000001,0.087714,-0.249423,0.00091,-0.087601,-0.9961549999999999,-0.005012,-0.002751,-0.022453,0.011679,0.009797,-0.000991
308,0.0010279999999999998,0.087572,-0.249887,0.001024,-0.08746,-0.996168,-0.006031,0.007906,-0.022474,0.011549,0.006558,-0.002093
309,0.001153,0.087413,-0.250216,0.001149,-0.087302,-0.996181,-0.008284999999999999,0.000429,-0.012962999999999999,0.009578,0.008246,-0.006047
310,0.001072,0.08724900000000001,-0.250322,0.001068,-0.087138,-0.9961959999999999,-0.003037,-0.007093,-0.001166,0.00943,0.013575,-0.005268999999999999
311,0.001058,0.087309,-0.250197,0.0010539999999999998,-0.087198,-0.9961899999999999,0.007618000000000001,0.0013449999999999998,0.010648000000000001,0.003493,0.013559,-0.00323
312,0.001098,0.08748099999999999,-0.24995,0.001093,-0.08737,-0.996175,0.009732,-0.000802,0.012802000000000001,0.002096,0.014646000000000001,-0.001307
313,0.001017,0.087625,-0.249685,0.001013,-0.087513,-0.9961629999999999,0.008651,-0.003994,0.012798,-6.7e-05,0.015949,0.0005269999999999999
314,0.0009710000000000001,0.087746,-0.249453,0.000968,-0.087633,-0.996152,0.008675,-0.0018510000000000002,0.009590999999999999,-0.000647,0.016131,-0.00018600000000000002
315,0.0009050000000000001,0.087924,-0.24932600000000002,0.000901,-0.08781,-0.996137,0.011890000000000001,-0.005032,0.003208,-0.005052,0.009655,-7.900000000000001e-05
316,0.0007830000000000001,0.08805700000000001,-0.249392,0.00078,-0.087943,-0.996125,0.005522,-0.008163,-0.007514,-0.004076,0.000312,-0.00183
317,0.0005769999999999999,0.08797200000000001,-0.249689,0.000575,-0.087859,-0.996133,-0.005214,-0.014544999999999999,-0.019357,-0.001841,0.003325,-0.00843
318,0.000314,0.087729,-0.250175,0.00031299999999999996,-0.087617,-0.9961540000000001,-0.011587,-0.014497,-0.025811,0.004173,0.014161000000000002,-0.004243
319,0.000154,0.087527,-0.250681,0.000153,-0.08741499999999999,-0.996172,-0.006224,-0.006002,-0.023648,0.010666,0.016736,0.005098
320,0.000136,0.08740099999999999,-0.251089,0.000136,-0.08728999999999999,-0.996183,-0.005152,0.000364,-0.018308,0.015213999999999998,0.013498,-0.0013599999999999999
321,0.0002,0.087298,-0.25137600000000004,0.0002,-0.087187,-0.996192,-0.005166,0.0035340000000000002,-0.011903,0.015151,0.013394999999999999,-0.001351
322,0.000408,0.087159,-0.25146599999999997,0.000407,-0.087049,-0.9962040000000001,-0.0041140000000000005,0.014128,0.001978,0.011831,0.018415,-0.006039
323,0.000736,0.087059,-0.251216,0.000733,-0.086949,-0.9962129999999999,-0.00098,0.015118000000000001,0.018022,-0.000275,0.025212000000000002,-0.008106
324,0.001005,0.087055,-0.250715,0.001001,-0.08694500000000001,-0.9962129999999999,0.002177,0.015068999999999999,0.027658,-0.000543,0.025208,-0.008106
325,0.00119,0.087109,-0.250135,0.001185,-0.086999,-0.996208,0.006404000000000001,0.004107,0.029171,-0.000819,0.018181,-0.004386999999999999
326,0.001157,0.087154,-0.24960300000000002,0.001153,-0.08704400000000001,-0.9962040000000001,0.0053219999999999995,-0.00439,0.023833,0.000541,0.011864,-0.0027890000000000002
327,0.000947,0.087261,-0.249231,0.0009429999999999999,-0.08715099999999999,-0.996195,0.005332,-0.011809,0.014228,0.0007509999999999999,0.011970999999999999,-0.002798
328,0.0006799999999999999,0.08719099999999999,-0.24909099999999998,0.000678,-0.08708099999999999,-0.996201,-0.001031,-0.013874000000000001,0.0035039999999999997,0.003106,0.008025,-0.001281
329,0.00037999999999999997,0.087062,-0.249117,0.00037799999999999997,-0.086952,-0.9962120000000001,-0.004207,-0.015964,-0.003993,-0.005978,0.013022999999999998,-0.004917
330,6.4e-05,0.086909,-0.249246,6.4e-05,-0.0868,-0.9962260000000001,-0.00847,-0.018066,-0.007225,-0.008868000000000001,0.014976,-0.005468
331,-0.000334,0.086753,-0.249377,-0.000333,-0.086645,-0.996239,-0.005298,-0.023408,-0.0061270000000000005,-0.003436,0.012792,-0.000221
332,-0.000775,0.086658,-0.24950999999999998,-0.000772,-0.08655,-0.9962469999999999,-0.004258,-0.022593000000000002,-0.0060030000000000005,0.001916,0.008608,0.001176
333,-0.0011480000000000001,0.08651,-0.249669,-0.001143,-0.08640199999999999,-0.99626,-0.00742,-0.017242,-0.009237,0.004195,0.007026,-3.2e-05
334,-0.001362,0.08630499999999999,-0.249819,-0.0013570000000000001,-0.086198,-0.9962770000000001,-0.005234,-0.0034100000000000003,-0.007103,0.003432,0.015535,0.001251
335,-0.0013650000000000001,0.086235,-0.249885,-0.001359,-0.086128,-0.996283,9.1e-05,0.000807,-0.000662,0.005296,0.015266,-0.0047539999999999995
336,-0.001394,0.08622200000000001,-0.24984499999999998,-0.001389,-0.086115,-0.9962840000000001,-0.001009,-0.002402,0.003607,0.004028,0.013422,-0.0071790000000000005
337,-0.001426,0.08616900000000001,-0.249768,-0.0014210000000000002,-0.086062,-0.996289,-0.002071,-0.001333,0.003599,0.0061200000000000004,0.010013,-0.00626
338,-0.001389,0.08608500000000001,-0.249703,-0.0013830000000000001,-0.085979,-0.996296,7.2e-05,0.002912,0.005745,0.005763,0.0088,0.001103
339,-0.001353,0.086091,-0.24955700000000003,-0.001348,-0.085984,-0.996296,0.002186,-0.000296,0.0068319999999999995,0.007131,0.011354000000000001,-0.000683
340,-0.001396,0.086113,-0.24947399999999997,-0.001391,-0.086007,-0.996294,0.002196,-0.002409,0.002562,0.005847,0.013207,0.001283
341,-0.001442,0.086134,-0.249498,-0.001437,-0.086028,-0.996292,0.001157,-0.004656,-0.003757,0.002246,0.015272999999999998,-0.004715
342,-0.0015279999999999998,0.086151,-0.249552,-0.0015220000000000001,-0.08604400000000001,-0.99629,0.003282,-0.004672,-0.0016059999999999998,-0.001041,0.014587000000000001,0.00031800000000000003
343,-0.001519,0.086158,-0.249556,-0.001513,-0.086051,-0.99629,0.003286,0.000637,0.00266,-0.001615,0.014411000000000002,-0.000277
344,-0.001433,0.08620499999999999,-0.249482,-0.001428,-0.086099,-0.996286,0.0043630000000000006,0.004886,0.004799,-0.003974,0.013436000000000002,0.001031
345,-0.001283,0.086329,-0.24936399999999997,-0.001279,-0.08622200000000001,-0.996275,0.0075780000000000005,0.010193,0.006951000000000001,-0.000797,0.014459999999999999,-0.000414
346,-0.001078,0.086479,-0.24925100000000003,-0.001074,-0.086371,-0.9962620000000001,0.009736,0.012329000000000001,0.0037579999999999996,0.003775,0.012045,-0.002502
347,-0.0008230000000000001,0.086577,-0.249169,-0.00082,-0.086469,-0.9962540000000001,0.0044009999999999995,0.013408000000000002,0.004788000000000001,0.0061909999999999995,0.013272999999999998,-0.0065840000000000004
348,-0.000628,0.086559,-0.249106,-0.0006259999999999999,-0.086451,-0.9962559999999999,-0.002014,0.008112999999999999,0.002613,0.007812999999999999,0.018213999999999998,-0.008123
349,-0.000589,0.086521,-0.24902399999999997,-0.000587,-0.086413,-0.996259,0.002189,0.0005740000000000001,0.0048649999999999995,0.004371,0.018298,-0.0022
350,-0.000686,0.08661100000000001,-0.24893200000000001,-0.000683,-0.086503,-0.996251,0.006422,-0.007959,0.0038369999999999997,0.005581,0.013612,-0.0041
351,-0.0009,0.086646,-0.248926,-0.0008960000000000001,-0.086538,-0.9962479999999999,0.001103,-0.008988,-0.000472,0.005917,0.010395999999999999,-0.007292
352,-0.00095,0.086572,-0.248977,-0.000947,-0.086464,-0.9962549999999999,-0.002064,-0.002581,-0.00157,-0.002029,0.014594999999999999,-0.001335
353,-0.000974,0.08655499999999999,-0.24894499999999997,-0.0009699999999999999,-0.086447,-0.9962559999999999,0.003251,-0.001556,0.003807,-0.005302,0.012747,-0.0010279999999999998
354,-0.00105,0.086653,-0.248863,-0.001046,-0.08654400000000001,-0.9962469999999999,0.005370000000000001,-0.004759,0.003826,-0.0057740000000000005,0.01495,-0.002303
355,-0.00119,0.086628,-0.248763,-0.001185,-0.086519,-0.9962489999999999,-3e-06,-0.011141,0.005933,-0.008535,0.017458,-0.004224
356,-0.001468,0.086537,-0.248435,-0.001462,-0.08642899999999999,-0.996257,-6.500000000000001e-05,-0.0037689999999999998,0.027287,-0.016818,0.029849,0.001475
357,-0.0016940000000000002,0.087154,-0.24807800000000002,-0.0016870000000000001,-0.087043,-0.9962030000000001,0.042711,-0.008112000000000001,0.002038,-0.031806,-0.0028,0.015521
358,-0.0016530000000000002,0.08745700000000001,-0.24836,-0.0016469999999999998,-0.087345,-0.9961770000000001,-0.005149,-0.001446,-0.025011000000000002,0.047621,-0.02853,-0.0384
359,-0.0014529999999999999,0.086639,-0.24945100000000003,-0.0014470000000000002,-0.086531,-0.9962479999999999,-0.051740999999999995,0.030858999999999998,-0.071311,0.05500599999999999,0.017973,-0.012648000000000001
360,-0.000185,0.08580399999999999,-0.25082,-0.000185,-0.085699,-0.9963209999999999,-0.022912000000000002,0.053061000000000004,-0.054047000000000005,0.029024,0.026769,0.007094
361,-0.000433,0.08604500000000001,-0.250925,-0.00043200000000000004,-0.085939,-0.9963,0.031817000000000005,-0.040105,0.020162,-0.049312,4.7e-05,0.001183
362,-0.0013109999999999999,0.086729,-0.250526,-0.001306,-0.086621,-0.99624,0.024421,-0.033649,0.010487999999999999,-0.021613,-0.009678,-0.021016999999999997
363,-0.000592,0.086655,-0.25067399999999995,-0.00059,-0.086547,-0.9962479999999999,-0.017693,0.070977,-0.010236,0.009104000000000001,0.005141,-0.028655
364,0.0016010000000000002,0.086246,-0.250677,0.0015949999999999998,-0.08614,-0.996282,-0.010139,0.10291800000000001,0.006862,0.019538,0.018345,0.005925
365,0.0023989999999999997,0.086139,-0.250394,0.0023899999999999998,-0.086033,-0.996289,-0.002017,0.019763,0.015571000000000002,0.020421,0.010471,-0.004077
366,0.002163,0.086049,-0.250107,0.0021550000000000002,-0.08594299999999999,-0.9962979999999999,-0.004289,-0.016427,0.010261,0.020657,0.010381,-0.004068
367,0.002206,0.08608500000000001,-0.250054,0.002198,-0.085978,-0.996295,0.006561,0.012345,-0.001451,0.011656999999999999,0.021556,-0.0034460000000000003
368,0.0027170000000000002,0.086164,-0.250217,0.002707,-0.08605700000000001,-0.996287,0.005576,0.02197,-0.010015999999999999,-0.003073,0.018034,0.011332
369,0.002932,0.086092,-0.250446,0.002921,-0.085986,-0.996292,-0.009451000000000001,0.001782,-0.010095,-0.003288,0.017962,0.011337
370,0.0029980000000000002,0.085765,-0.25057399999999996,0.002987,-0.08566,-0.9963200000000001,-0.013781,-0.005685,-0.003706,-0.001583,0.006634999999999999,-0.010226
371,0.003036,0.08551,-0.250544,0.0030239999999999998,-0.085406,-0.9963420000000001,-0.009504,0.004918,0.004856,-0.003147,0.012423,-0.0037649999999999997
372,0.00321,0.08548,-0.250328,0.003198,-0.085376,-0.996344,0.003303,0.013366,0.012412000000000001,-0.003321,0.012394,-0.0037630000000000003
373,0.0034950000000000003,0.08552699999999999,-0.250129,0.003482,-0.085423,-0.996339,0.005509,0.018815000000000002,0.008143000000000001,0.006115,0.006657,0.008302
374,0.0038079999999999998,0.085498,-0.250137,0.0037939999999999996,-0.08539400000000001,-0.99634,-0.004059,0.013572999999999998,-0.004736,0.009863,0.007529000000000001,-0.004194
375,0.003935,0.085379,-0.250253,0.00392,-0.085275,-0.99635,-0.004102000000000001,0.003986,-0.004724,0.009736,0.007409000000000001,-0.004184
376,0.004038,0.085311,-0.250244,0.004023,-0.085207,-0.9963549999999999,0.001208,0.008190000000000001,0.004922,0.001714,0.021943999999999998,-0.01576
377,0.004093,0.085408,-0.249986,0.004078,-0.08530399999999999,-0.996347,0.006451999999999999,-0.000397,0.01672,8.8e-05,0.022606,-0.007422
378,0.004005,0.08558099999999999,-0.24961799999999998,0.00399,-0.085476,-0.996332,0.009643,-0.001478,0.017812,0.000175,0.022778,-0.007437
379,0.004068,0.085734,-0.24928699999999998,0.004053,-0.085629,-0.9963190000000001,0.008619,0.005991,0.015659,0.00031099999999999997,0.016689,0.0025440000000000003
380,0.004222,0.08583500000000001,-0.24899200000000002,0.0042060000000000005,-0.08573,-0.99631,0.008617,0.008171,0.013481,-0.004405,0.004873,-0.001341
381,0.004219,0.08594299999999999,-0.248829,0.004203,-0.085838,-0.9963,0.004335,-0.0045590000000000006,0.003853,-0.0005110000000000001,0.004905,-0.004737
382,0.004065,0.08587,-0.24883899999999998,0.00405,-0.08576399999999999,-0.9963069999999999,-0.003114,-0.008759999999999999,-0.004739,0.001047,0.009119,-0.0058590000000000005
383,0.0039759999999999995,0.085789,-0.24901900000000002,0.003961,-0.085684,-0.996315,-0.001999,-0.004477,-0.011146,0.002859,0.009085,0.002037
384,0.003878,0.085737,-0.249295,0.003863,-0.085632,-0.9963190000000001,-0.0041329999999999995,-0.009774,-0.016495,0.004056000000000001,0.007431,0.0013390000000000001
385,0.0034659999999999995,0.08566900000000001,-0.24970599999999998,0.003453,-0.085564,-0.9963270000000001,-0.002052,-0.027866000000000002,-0.022867,0.009273,0.0071790000000000005,-0.00262
386,0.0029230000000000003,0.085672,-0.25012199999999996,0.002912,-0.08556699999999999,-0.9963280000000001,0.00434,-0.025775,-0.018552000000000003,0.011599,0.010768000000000002,6.7e-05
387,0.0025800000000000003,0.085798,-0.25038299999999997,0.002571,-0.08569299999999999,-0.996318,0.008607,-0.015179,-0.007854,0.010582,0.013,0.002956
388,0.002332,0.085984,-0.250393,0.0023239999999999997,-0.085878,-0.996303,0.009631,-0.013099000000000001,0.003901,0.005640999999999999,0.012925,-0.005177
389,0.002039,0.086153,-0.250227,0.002032,-0.086046,-0.996289,0.008473,-0.015206,0.011323999999999999,0.011427,0.012819,-0.007678
390,0.00182,0.08629099999999999,-0.249933,0.001813,-0.086184,-0.9962780000000001,0.0063490000000000005,-0.008824,0.015574000000000001,0.013857,0.011568,-0.006179
391,0.0016640000000000001,0.086392,-0.249619,0.0016579999999999998,-0.086284,-0.9962690000000001,0.0063490000000000005,-0.008824,0.015574000000000001,0.008687,0.017376,-0.002937
392,0.001491,0.08655,-0.24929099999999998,0.001486,-0.08644199999999999,-0.9962559999999999,0.010626,-0.0067079999999999996,0.015600999999999999,0.000544,0.021241,-0.001425
393,0.001336,0.08678,-0.24902800000000003,0.0013310000000000002,-0.086671,-0.996236,0.012768999999999999,-0.009890000000000001,0.010279,-0.006214,0.018968000000000002,-0.001643
394,0.001042,0.086953,-0.24893400000000002,0.001038,-0.086844,-0.9962209999999999,0.008487,-0.022619999999999998,0.000651,-0.0046700000000000005,0.012869,-0.003275
395,0.000502,0.087039,-0.24902600000000003,0.0005,-0.08692899999999999,-0.9962139999999999,0.006354,-0.030039999999999997,-0.0068319999999999995,0.0030239999999999998,0.011306,-0.002107
396,8e-06,0.087126,-0.249255,8e-06,-0.087016,-0.996207,0.006416,-0.022557,-0.01325,-0.0007099999999999999,0.011134,-0.001031
397,-0.000325,0.087216,-0.249599,-0.000324,-0.08710599999999999,-0.996199,0.00648,-0.013059999999999999,-0.020661000000000002,-0.00436,0.005227000000000001,-0.0038159999999999995
398,-0.000413,0.087225,-0.250051,-0.000411,-0.087114,-0.9961979999999999,-0.002002,-0.004496,-0.023936000000000002,-0.0071719999999999996,0.00519,-0.005251
399,-0.000442,0.087102,-0.25042,-0.00044,-0.086992,-0.996209,-0.005236,-0.003453,-0.015413999999999999,-0.008135,0.011842,-0.00106
400,-0.000472,0.08708400000000001,-0.25061100000000003,-0.00047000000000000004,-0.086974,-0.99621,0.004332,-0.003517,-0.00787,-0.001407,0.017791,-0.00040199999999999996
401,-0.00047999999999999996,0.087198,-0.250725,-0.000478,-0.087087,-0.996201,0.008614,0.001786,-0.00571,0.002751,0.022313999999999997,0.0018620000000000002
402,-0.000371,0.087388,-0.25085999999999997,-0.00037,-0.087277,-0.9961840000000001,0.010776,0.0060479999999999996,-0.007837,0.0062450000000000006,0.018277,-0.001161
403,-0.000357,0.08748,-0.25108400000000003,-0.00035499999999999996,-0.087368,-0.9961760000000001,0.004361,-0.00243,-0.013212,0.015385,0.007611,-0.008875
404,-0.000608,0.087447,-0.25137,-0.000605,-0.087336,-0.996179,-0.002091,-0.019677,-0.015328999999999999,0.017817,0.008431999999999999,-0.009192
405,-0.0009720000000000001,0.087354,-0.251651,-0.0009689999999999999,-0.087243,-0.996187,-0.002096,-0.016499,-0.011059999999999999,0.017112,0.015068999999999999,-0.007552
406,-0.001261,0.08731599999999999,-0.251795,-0.001256,-0.08720499999999999,-0.9961899999999999,-0.003196,-0.017586,-0.004657,0.019521,0.005311,-0.004131
407,-0.0016690000000000001,0.087142,-0.251866,-0.001663,-0.087031,-0.9962040000000001,-0.008579,-0.025037,-0.00148,0.019119,0.009486,-0.0061
408,-0.002224,0.08696799999999999,-0.251871,-0.002215,-0.086858,-0.996218,-0.006488,-0.030388,0.002814,0.01987,0.013997999999999998,-0.008145999999999999
409,-0.0027559999999999998,0.086879,-0.25165,-0.002746,-0.086769,-0.996225,-0.0012109999999999998,-0.030456999999999998,0.01567,0.011108,0.019112,-0.006018
410,-0.003304,0.086875,-0.251205,-0.0032920000000000002,-0.086766,-0.996223,-0.000197,-0.031569,0.02636,0.003094,0.021306,-0.005074
411,-0.0039840000000000006,0.08692799999999999,-0.250659,-0.0039689999999999994,-0.08681900000000001,-0.996216,0.002999,-0.031584,0.027451,0.003771,0.021358000000000002,-0.0050810000000000004
412,-0.004507,0.086998,-0.250091,-0.00449,-0.08688799999999999,-0.996208,0.007265000000000001,-0.028623000000000003,0.028504,-0.009487,0.019078,0.005363000000000001
413,-0.004986,0.087125,-0.249559,-0.004967,-0.087015,-0.996195,0.010518000000000001,-0.020099000000000002,0.025311,-0.017325999999999998,0.014261000000000001,0.002039
414,-0.00548,0.087398,-0.249171,-0.005459,-0.087287,-0.996168,0.013738,-0.02646,0.014659,-0.016834000000000002,0.014533,0.002012
415,-0.006036,0.087524,-0.24899699999999997,-0.006013,-0.087413,-0.9961540000000001,0.008437,-0.027472000000000003,0.006078,-0.013121,0.009883,-0.0007639999999999999
416,-0.0063939999999999995,0.08757999999999999,-0.249029,-0.006370000000000001,-0.08746799999999999,-0.9961469999999999,0.0032329999999999998,-0.010362,-0.005731,-0.011621,0.012334,0.001625
417,-0.006381,0.087646,-0.249177,-0.0063560000000000005,-0.087534,-0.9961409999999999,0.0033090000000000003,0.00456,-0.007886,-0.011634,0.0124,0.0016190000000000002
418,-0.006326,0.087714,-0.249317,-0.006302,-0.087602,-0.996136,0.005438,0.004548,-0.006803,-0.011567000000000001,0.012071,-0.003544
419,-0.006296,0.087798,-0.24942199999999998,-0.006271,-0.087685,-0.996128,0.004357,0.001356,-0.006806,-0.003235,0.009377,-0.00645
420,-0.006235,0.08781599999999999,-0.249561,-0.006211,-0.087703,-0.9961270000000001,-0.0020440000000000002,-0.0007440000000000001,-0.008985,0.030930000000000003,0.014094,-0.007443000000000001
421,-0.0058460000000000005,0.087514,-0.24938200000000002,-0.005824,-0.087402,-0.9961559999999999,-0.026673000000000002,0.015194,0.018612,0.007914000000000001,0.036179,-0.016051
422,-0.007776000000000001,0.08769099999999999,-0.24865700000000002,-0.0077469999999999995,-0.08757899999999999,-0.9961270000000001,0.049499,-0.10341700000000001,0.043864999999999994,-0.034763999999999996,0.021157,0.001224
423,-0.008083,0.088313,-0.24799000000000002,-0.008051,-0.088198,-0.9960700000000001,0.0033770000000000002,0.051321000000000006,0.015571000000000002,-0.044988,-0.013013,-0.048576999999999995
424,-0.0064659999999999995,0.08780700000000001,-0.248387,-0.006441,-0.08769500000000001,-0.9961270000000001,-0.026160000000000003,0.06551699999999999,-0.045542,0.11946300000000001,-0.013471,-0.02812
425,-0.005104,0.087574,-0.24954400000000002,-0.005084,-0.087462,-0.9961549999999999,0.00044,0.048383999999999996,-0.046403,0.038242,0.05148200000000001,0.018478
426,-0.004914,0.08766499999999999,-0.24952800000000003,-0.004895,-0.08755299999999999,-0.9961479999999999,0.0051600000000000005,-0.020084,0.022084,0.006924,0.023222,0.000558
427,-0.005855,0.088138,-0.24907800000000002,-0.005832,-0.088024,-0.996101,0.042424,-0.043625,0.015965,-0.024457,0.00494,-0.015266
428,-0.0061909999999999995,0.08934600000000001,-0.24886799999999998,-0.006166,-0.089227,-0.995992,0.062669,-0.021199000000000003,0.020339,-0.027342,0.015756,-0.010889
429,-0.006117,0.090459,-0.24836,-0.006092,-0.090336,-0.995893,0.058535000000000004,0.017131,0.028807,-0.033763999999999995,0.017735,-0.0051600000000000005
430,-0.005241,0.091519,-0.24775999999999998,-0.005219,-0.091391,-0.995801,0.052315999999999994,0.056573000000000005,0.027645,-0.033691000000000006,0.013236000000000001,0.016553000000000002
431,-0.004273,0.092088,-0.24741799999999997,-0.004255,-0.091958,-0.9957540000000001,0.017115000000000002,0.042907,0.012461,-0.018571999999999998,0.004297,0.002285
432,-0.004006,0.09214800000000001,-0.24720999999999999,-0.003989,-0.09201799999999999,-0.995749,0.00203,0.002509,0.0049299999999999995,-0.011651,-0.0017629999999999998,-0.006539
433,-0.003951,0.092266,-0.247433,-0.003934,-0.09213500000000001,-0.9957389999999999,0.013956999999999999,0.016431,-0.023847,0.025998,-0.009428,0.004406
434,-0.0035409999999999994,0.09244400000000001,-0.248171,-0.003525,-0.092312,-0.9957239999999999,0.003404,0.023998,-0.042089999999999995,0.041962,-0.008426000000000001,0.013165000000000001
435,-0.003204,0.092093,-0.24911,-0.0031899999999999997,-0.091963,-0.995757,-0.027574,0.009218,-0.048695999999999996,0.049333,0.006331,0.007522
436,-0.003129,0.091458,-0.24996500000000002,-0.003116,-0.09133,-0.995816,-0.030894,-0.002548,-0.033749,0.034656,0.034522000000000004,-0.0060149999999999995
437,-0.003062,0.091058,-0.250164,-0.0030489999999999996,-0.090932,-0.9958520000000001,-0.017314,-0.001507,0.00812,0.020000999999999998,0.02712,-0.010221
438,-0.0031320000000000002,0.09049,-0.249527,-0.0031190000000000002,-0.090366,-0.9959040000000001,-0.042048,-0.00584,0.047477,0.020605000000000002,0.024158000000000002,-0.000831
439,-0.003281,0.089428,-0.24831799999999998,-0.003268,-0.089309,-0.995999,-0.056052,-0.017582,0.065554,0.005999,0.012999,0.004788000000000001
440,-0.004036,0.08803,-0.24699000000000002,-0.004021,-0.087916,-0.9961200000000001,-0.071141,-0.051618,0.065492,0.008125,0.009073999999999999,-0.002858
441,-0.005515,0.08641499999999999,-0.24568,-0.005494,-0.08630700000000001,-0.996253,-0.077686,-0.083554,0.065487,-0.001265,0.000995,-0.015893
442,-0.00719,0.08517000000000001,-0.244403,-0.007164,-0.08506799999999999,-0.9963489999999999,-0.04237,-0.06554199999999999,0.059302,-0.00927,-0.005753,-0.031116
443,-0.00795,0.085049,-0.243517,-0.007921,-0.08494700000000001,-0.9963540000000001,0.014505,-0.0177,0.034,-0.02841,0.012329999999999999,-0.027816000000000004
444,-0.008053,0.085616,-0.24339699999999997,-0.008024,-0.085512,-0.9963049999999999,0.029689999999999998,-0.00586,-0.009706000000000001,-0.03168,0.020555,-0.010957999999999999
445,-0.008232,0.08605499999999999,-0.24393499999999999,-0.008202,-0.085949,-0.996266,0.017943999999999998,-0.015986,-0.034348000000000004,-0.024116,0.022549,0.017994
446,-0.008454999999999999,0.08644500000000001,-0.244813,-0.008423,-0.086337,-0.99623,0.019112,-0.009534,-0.050371,-0.011124,0.019489,0.010604
447,-0.008407,0.08667799999999999,-0.245946,-0.008375,-0.08657000000000001,-0.9962110000000001,0.007486,0.005459,-0.060086,0.000105,0.023673,0.0037329999999999998
448,-0.008342,0.08666499999999999,-0.247048,-0.008311,-0.08655700000000001,-0.9962120000000001,-0.001116,0.001185,-0.049457999999999995,0.009470999999999999,0.028314,0.0034909999999999997
449,-0.008312,0.08668200000000001,-0.24767899999999998,-0.008281,-0.086574,-0.9962110000000001,0.005175,0.004248,-0.021644,0.008173999999999999,0.026485,-0.004598
450,-0.00826,0.08680800000000001,-0.24790399999999999,-0.008229,-0.086699,-0.996201,0.008328,0.005255,-0.009873,0.005925,0.015531999999999999,-0.009170999999999999
451,-0.008185,0.08702599999999999,-0.248088,-0.008154,-0.086917,-0.996182,0.014705000000000001,0.00309,-0.006620999999999999,0.018652000000000002,0.013018,-0.004229999999999999
452,-0.007917,0.087337,-0.248054,-0.007887,-0.087226,-0.996157,0.022188,0.021113,0.008362999999999999,0.024962,0.011726,-0.013837
453,-0.007238,0.087963,-0.247759,-0.007209999999999999,-0.087849,-0.996108,0.038119,0.037407,0.016922,0.019081,0.009114,-0.010789
454,-0.006762000000000001,0.088517,-0.24745599999999998,-0.006736,-0.088402,-0.9960620000000001,0.023077,0.01084,0.013647,0.008826,0.008934000000000001,0.007857
455,-0.006702,0.08875,-0.247175,-0.0066760000000000005,-0.088633,-0.996042,0.010218000000000001,0.00022400000000000002,0.015707,0.010048,0.006266,-0.000586
456,-0.006481999999999999,0.088942,-0.246784,-0.006456999999999999,-0.088824,-0.996026,0.010284999999999999,0.019382,0.019956,0.009829000000000001,0.006458,-0.000601
457,-0.005917,0.08892699999999999,-0.24644699999999997,-0.005894,-0.088809,-0.996031,-0.006731999999999999,0.026914999999999998,0.015553999999999998,0.005619,0.022052000000000002,-0.002229
458,-0.005425,0.08873400000000001,-0.246112,-0.005403,-0.088617,-0.996051,-0.008895,0.022653,0.017681,-0.004988,0.026269999999999998,-0.004117
459,-0.005151,0.08859500000000001,-0.24570799999999998,-0.005131,-0.08847999999999999,-0.996065,-0.006828,0.010915000000000001,0.020915,-0.00526,0.026132,-0.004103
460,-0.005118999999999999,0.08847100000000001,-0.245331,-0.005099,-0.08835499999999999,-0.9960760000000001,-0.004961,-0.0038060000000000004,0.017662,-0.005887,0.014625,-0.004901
461,-0.005288,0.088361,-0.24490900000000002,-0.005267,-0.088246,-0.996085,-0.003932,-0.007026999999999999,0.023014,-0.002729,0.006809999999999999,-0.0009699999999999999
462,-0.005376,0.088264,-0.24440900000000002,-0.0053549999999999995,-0.088149,-0.996093,-0.006047,-0.0006360000000000001,0.025127,-0.00264,0.006712999999999999,-0.000962
463,-0.005452,0.08803,-0.243898,-0.005431,-0.087916,-0.9961129999999999,-0.008166,0.001506,0.024041999999999997,0.004850999999999999,0.003474,-0.0028190000000000003
464,-0.005425,0.087854,-0.24343,-0.005404,-0.087742,-0.996129,-0.005994,0.007898,0.021912,0.001971,0.012348,-0.0017050000000000001
465,-0.00515,0.087729,-0.243114,-0.00513,-0.087616,-0.9961409999999999,-0.008046,0.017527,0.013340000000000001,0.001697,0.012223000000000001,-0.0016920000000000001
466,-0.004883,0.087599,-0.242927,-0.0048649999999999995,-0.087487,-0.9961540000000001,-0.002707,0.012208,0.006975,0.00221,0.019066,-0.002153
467,-0.004713,0.08761000000000001,-0.242808,-0.004695,-0.087498,-0.9961540000000001,0.001546,0.007936,0.005942,0.009593,0.015431,-0.008394
468,-0.004529,0.08769,-0.24267800000000003,-0.004511,-0.087578,-0.9961479999999999,0.006885,0.010043999999999999,0.007044,0.014490000000000001,0.015083000000000001,-0.005256
469,-0.004262,0.087893,-0.242488,-0.004246,-0.08778,-0.996131,0.016225,0.016355,0.014541,0.013888999999999999,0.021343,-0.005441
470,-0.004062,0.088364,-0.242031,-0.004046,-0.08825,-0.9960899999999999,0.028950999999999998,0.009876000000000001,0.025321,0.011935,0.006843999999999999,-0.002125
471,-0.003947,0.088791,-0.241522,-0.0039310000000000005,-0.088675,-0.9960530000000001,0.017196,0.006717,0.026311,0.009333,0.00939,-0.003535
472,-0.003875,0.08905199999999999,-0.241017,-0.00386,-0.088934,-0.99603,0.016138999999999997,0.007790000000000001,0.025234,0.006118,0.017401,-0.002948
473,-0.003554,0.089559,-0.24053899999999998,-0.0035399999999999997,-0.08943999999999999,-0.995986,0.034323,0.017318,0.02428,-0.0034340000000000004,0.012001000000000001,-0.002595
474,-0.0033179999999999998,0.09018999999999999,-0.24018,-0.0033049999999999998,-0.090068,-0.99593,0.026860000000000002,0.0078,0.013558,-0.001426,0.008098000000000001,0.0028420000000000003
475,-0.003462,0.090411,-0.24003400000000003,-0.003447,-0.090288,-0.9959100000000001,0.001174,-0.017648,0.005934,0.003112,0.0037560000000000002,0.0070030000000000005
476,-0.003978,0.090072,-0.23989499999999997,-0.003961999999999999,-0.08995,-0.9959379999999999,-0.02221,-0.029032,0.008692,0.009073999999999999,0.0021809999999999998,0.002912
477,-0.004706,0.089422,-0.23970300000000003,-0.004686999999999999,-0.089303,-0.995993,-0.033984,-0.037513,0.008621,0.008608,-0.001258,0.000831
478,-0.005392,0.088786,-0.239591,-0.005371,-0.08866900000000001,-0.9960469999999999,-0.026454000000000002,-0.030057,0.002254,-0.001144,0.006669,-0.009675
479,-0.005817,0.088362,-0.239668,-0.005795000000000001,-0.088247,-0.996082,-0.019971,-0.021519,-0.007325,-0.003025,0.011724,-0.005902
480,-0.006174,0.08791,-0.23991500000000002,-0.00615,-0.087797,-0.9961190000000001,-0.023138,-0.020416999999999998,-0.013758000000000001,-0.001373,0.01222,-0.004490999999999999
481,-0.006540000000000001,0.087448,-0.24026799999999998,-0.006515000000000001,-0.087337,-0.996158,-0.0242,-0.023592,-0.018034,0.0017079999999999999,0.01881,7.900000000000001e-05
482,-0.007091,0.08694600000000001,-0.24063400000000001,-0.007064,-0.086836,-0.9961979999999999,-0.025301,-0.031045,-0.018032,0.006194,0.017256,-0.0017879999999999999
483,-0.007673,0.08642000000000001,-0.240941,-0.007645,-0.086313,-0.996239,-0.025315,-0.028936,-0.012694,0.006683,0.01571,-0.002541
484,-0.008062999999999999,0.085869,-0.241173,-0.008033,-0.085763,-0.996283,-0.028473000000000002,-0.014911,-0.009538,-0.001306,0.012277,-0.005258
485,-0.008319,0.08507,-0.24134099999999997,-0.008289,-0.084968,-0.9963489999999999,-0.045548000000000005,-0.014856,-0.00859,-0.001843,0.01461,-0.002583
486,-0.008794,0.08393300000000001,-0.24154699999999998,-0.008763,-0.083834,-0.996441,-0.057346,-0.031846,-0.011855,0.006734,0.021578999999999997,0.0036590000000000004
487,-0.009502,0.08286,-0.241902,-0.009469,-0.08276499999999999,-0.996524,-0.046672000000000005,-0.039306,-0.020316,0.016488,0.023195,-0.0019649999999999997
488,-0.01017,0.082183,-0.24242800000000003,-0.010136,-0.08209,-0.9965729999999999,-0.026335,-0.03083,-0.026595,0.012532,0.017759,-0.013269
489,-0.010579999999999999,0.08176599999999999,-0.242927,-0.010544,-0.081675,-0.996603,-0.017752,-0.017024,-0.023348,0.006516,0.010767,-0.013574000000000001
490,-0.010764,0.081483,-0.243302,-0.010728,-0.081393,-0.996624,-0.008145,-0.008565000000000001,-0.015813999999999998,-0.0007769999999999999,0.007159,-0.008152
491,-0.010877,0.08147,-0.24352,-0.010841,-0.08138,-0.996624,0.006756999999999999,-0.008647,-0.008232,-0.0017170000000000002,0.009648,-0.000324
492,-0.010975,0.081696,-0.243529,-0.010938,-0.081605,-0.996605,0.015262999999999999,-0.004458,0.0025039999999999997,0.003934,0.013811000000000002,-0.002938
493,-0.010995999999999999,0.082025,-0.243378,-0.010959,-0.081933,-0.9965780000000001,0.018386000000000003,0.000802,0.009831999999999999,0.007236,0.017404,-0.0013779999999999999
494,-0.010985,0.082396,-0.24314899999999998,-0.010947,-0.082303,-0.996547,0.021591,0.0018559999999999998,0.009853,0.005378,0.019193,-0.004673
495,-0.010990999999999999,0.082916,-0.242992,-0.010953000000000001,-0.082821,-0.9965040000000001,0.030141,0.000778,0.005640999999999999,0.0035369999999999998,0.019436000000000002,-0.005785
496,-0.010987,0.08354,-0.242936,-0.010948000000000001,-0.083442,-0.996452,0.032298,0.000792,0.000315,0.000145,0.014259,-0.0044020000000000005
497,-0.010935,0.08402799999999999,-0.24295300000000003,-0.010896,-0.08392899999999999,-0.9964120000000001,0.021639,0.0018989999999999999,-0.0008289999999999999,-0.001876,0.012304,-0.000307
498,-0.010902,0.084268,-0.24298499999999998,-0.010864,-0.08416799999999999,-0.996392,0.009894,-0.00018999999999999998,-0.000908,-0.003129,0.012422,0.002816
499,-0.010922,0.084392,-0.242943,-0.010883,-0.08429199999999999,-0.996382,0.006659999999999999,-0.0023309999999999997,0.004413,0.003498,0.011386,-0.000399
500,-0.010923,0.084438,-0.24285500000000002,-0.010884,-0.084338,-0.9963780000000001,0.003479,0.003002,0.005452,0.007252,0.012423,-0.007239
501,-0.0109,0.0845,-0.242759,-0.010860999999999999,-0.084399,-0.996373,0.004518,0.000773,0.0030329999999999997,0.010281,0.009326000000000001,-0.001277
502,-0.010868000000000001,0.084482,-0.24270799999999998,-0.010829,-0.084382,-0.996375,0.000246,-0.000277,0.0030039999999999997,0.004176,0.007828,0.005499
503,-0.010931,0.08439400000000001,-0.24263400000000002,-0.010892,-0.08429400000000001,-0.996381,-0.004036,-0.0034579999999999997,0.002978,0.004575,0.009511,-0.002398
504,-0.010867,0.084366,-0.242515,-0.010828,-0.084266,-0.996384,0.00026000000000000003,0.007162000000000001,0.007268000000000001,0.004511,0.009483,-0.002395
505,-0.010555,0.08437599999999999,-0.24234499999999998,-0.010517,-0.084276,-0.9963870000000001,0.002437,0.016742,0.007271,-0.002239,0.016908000000000003,-0.0033380000000000003
506,-0.010292,0.084373,-0.24216300000000002,-0.010255,-0.084273,-0.99639,-0.001873,0.009292,0.009387000000000001,-0.002104,0.017134,0.003638
507,-0.010242,0.084307,-0.242002,-0.010206,-0.084207,-0.996396,-0.002959,0.001852,0.006184,-0.002154,0.017068,0.0036439999999999997
508,-0.01022,0.084194,-0.24195999999999998,-0.010184,-0.084095,-0.9964059999999999,-0.004002,0.001877,0.0008349999999999999,0.002188,0.010883,-0.007287
509,-0.010169,0.084024,-0.241975,-0.010133,-0.083925,-0.9964209999999999,-0.007308,0.003941,-0.001693,0.005189,0.009844,-0.003106
510,-0.010026,0.08383,-0.24200500000000003,-0.00999,-0.083732,-0.9964379999999999,-0.009428,0.007144,-0.0017120000000000002,0.003872,0.012015999999999999,-0.000785
511,-0.009984999999999999,0.083626,-0.242067,-0.00995,-0.08352799999999999,-0.9964559999999999,-0.006251,-0.00031600000000000004,-0.0038159999999999995,0.005494,0.013383,-0.002186
512,-0.010028,0.083491,-0.24218800000000001,-0.009993,-0.08339400000000001,-0.996467,-0.006246,-0.002433,-0.007018000000000001,0.0038130000000000004,0.008138,-0.003442
513,-0.009987000000000001,0.083286,-0.242369,-0.009951999999999999,-0.08319,-0.996484,-0.013675999999999999,0.003993,-0.009215000000000001,0.003315,0.011198999999999999,-0.004218
514,-0.009869,0.082944,-0.24252100000000001,-0.009835,-0.082849,-0.9965139999999999,-0.016886,0.003995,-0.0071010000000000005,0.005471,0.015512,-0.0034409999999999996
515,-0.009778,0.082673,-0.24262899999999998,-0.009745,-0.082579,-0.9965370000000001,-0.009442,0.0007650000000000001,-0.004908,0.008448,0.016402,-0.0032649999999999997
516,-0.009751000000000001,0.082535,-0.242729,-0.009717,-0.082442,-0.996548,-0.005179,0.000746,-0.00381,0.007398,0.014112999999999999,-0.0027949999999999997
517,-0.009774,0.082374,-0.242838,-0.009741,-0.08228099999999999,-0.9965620000000001,-0.008221,-0.003315,-0.003994,0.005072,0.011053,-0.003118
518,-0.009814,0.082214,-0.242883,-0.00978,-0.082121,-0.996574,-0.003959000000000001,-0.002273,-0.001829,0.005096,0.011549,-0.008506999999999999
519,-0.009804,0.082207,-0.24286100000000002,-0.009770000000000001,-0.082115,-0.996575,0.0035039999999999997,0.001941,0.0035590000000000005,0.003041,0.009529000000000001,-0.006675
520,-0.009742,0.082248,-0.242785,-0.009709,-0.08215499999999999,-0.9965719999999999,0.002438,0.0019440000000000002,0.003551,0.00359,0.010164,-0.005228
521,-0.009728,0.08227899999999999,-0.24268299999999998,-0.009695,-0.082186,-0.9965700000000001,0.0034850000000000003,-0.000199,0.005698,0.005514,0.013903,-0.000668
522,-0.009761,0.082286,-0.242585,-0.009728,-0.082194,-0.996569,0.001356,-0.00018700000000000002,0.004614,0.006051,0.015284,-0.0010199999999999999
523,-0.009772,0.082343,-0.242509,-0.009739,-0.08225,-0.9965639999999999,0.005629,-0.001258,0.002509,0.007098999999999999,0.013692,-0.0042899999999999995
524,-0.009826,0.082442,-0.2425,-0.009793000000000001,-0.082348,-0.996556,0.003831,-0.003029,-0.000681,0.0036130000000000003,0.012448,-0.004497
525,-0.009897,0.082471,-0.242509,-0.009863,-0.08237699999999999,-0.996552,0.001697,-0.0030210000000000002,-0.000696,0.000143,0.013636,-0.004409000000000001
526,-0.0099,0.082426,-0.242536,-0.009867,-0.082333,-0.996556,0.001707,-0.000891,-0.000699,0.002634,0.011928,-0.00031600000000000004
527,-0.009904999999999999,0.082428,-0.24249600000000002,-0.009871,-0.082335,-0.996556,0.000621,-0.000904,0.0035670000000000003,0.003097,0.011351,-0.002071
528,-0.009906,0.082445,-0.242409,-0.009873,-0.082352,-0.996554,0.00275,-0.000916,0.00465,0.0046240000000000005,0.012863,-0.003415
529,-0.009893,0.082446,-0.24229499999999998,-0.009859,-0.082352,-0.996554,0.001697,0.0033450000000000003,0.005705,0.0029620000000000002,0.013459,-0.00285
530,-0.009804,0.082496,-0.242222,-0.009770000000000001,-0.082402,-0.9965510000000001,0.0038450000000000003,0.004411,0.003582,0.001256,0.012761,-0.000794
531,-0.009765000000000001,0.082569,-0.24218699999999999,-0.009731,-0.082475,-0.9965459999999999,0.00386,0.003363,-0.0006889999999999999,0.000973,0.011734999999999999,-0.003195
532,-0.009686,0.08251499999999999,-0.24220799999999998,-0.009653,-0.08242200000000001,-0.9965510000000001,-0.003544,0.003632,-0.0018059999999999999,0.003351,0.014383000000000002,-0.008744
533,-0.009536,0.08238200000000001,-0.242273,-0.009503,-0.082288,-0.9965629999999999,-0.00672,0.00897,-0.001835,0.000974,0.012952000000000002,-0.000736
534,-0.009422,0.08229500000000001,-0.242256,-0.00939,-0.082202,-0.9965709999999999,-0.002486,0.0036200000000000004,0.000338,0.003943,0.010776,-0.00022400000000000002
535,-0.009365,0.082233,-0.242245,-0.009334,-0.08213999999999999,-0.996577,-0.001424,0.00149,-0.00072,0.005443,0.01314,-0.00324
536,-0.009295,0.082236,-0.242292,-0.009264,-0.082143,-0.9965780000000001,0.0018,0.004683,-0.002838,0.005586,0.015661,0.00020899999999999998
537,-0.009156999999999998,0.08226599999999999,-0.24235399999999999,-0.009126,-0.082174,-0.996576,0.001805,0.006809,-0.001772,0.0035409999999999994,0.011907,-0.000128
538,-0.009042,0.082221,-0.24235399999999999,-0.009011,-0.08212799999999999,-0.9965809999999999,-0.002486,0.004681,0.001405,0.0009400000000000001,0.014013,-0.002061
539,-0.008994,0.08215700000000001,-0.24230500000000002,-0.008962999999999999,-0.082065,-0.9965870000000001,-0.001443,0.0014730000000000001,0.003553,0.003546,0.013675,-0.002483
540,-0.008956,0.08212699999999999,-0.242272,-0.008926,-0.082035,-0.996589,0.000705,0.001478,0.000363,0.004790999999999999,0.01366,-0.002541
541,-0.008931999999999999,0.08214400000000001,-0.242308,-0.008902,-0.082052,-0.9965879999999999,0.0018260000000000001,0.000541,-0.0039380000000000005,0.0035159999999999996,0.013280000000000002,-0.0016870000000000001
542,-0.008875,0.082197,-0.242387,-0.008845,-0.082105,-0.996584,0.003974,0.003729,-0.003928,0.003397,0.012525,-0.003019
543,-0.008779,0.082229,-0.242466,-0.008749,-0.082137,-0.996583,0.0018399999999999998,0.003737,-0.003942,0.0024010000000000004,0.011397,-2.9999999999999997e-05
544,-0.008729,0.082196,-0.242519,-0.008699,-0.082104,-0.9965860000000001,-0.001379,0.001609,-0.0018260000000000001,0.0033740000000000003,0.015179,-0.002605
545,-0.008719,0.082099,-0.242509,-0.008689,-0.08200700000000001,-0.9965940000000001,-0.003532,-0.000523,0.000298,0.003425,0.014822,-0.0033299999999999996
546,-0.008729,0.08205599999999999,-0.24247600000000002,-0.0087,-0.081964,-0.996597,0.00073,0.000519,0.002463,0.004733,0.01542,-0.0046689999999999995
547,-0.008706,0.08204700000000001,-0.24248000000000003,-0.008676999999999999,-0.081955,-0.996598,0.00075,0.000536,-0.0018100000000000002,0.004527000000000001,0.011595999999999999,-0.0034630000000000004
548,-0.008657,0.08204,-0.242517,-0.008628,-0.08194800000000001,-0.996599,-0.000195,0.002724,-0.002874,0.0029980000000000002,0.009225,-0.000883
549,-0.008636,0.08202999999999999,-0.242575,-0.008607,-0.081938,-0.9966,-0.001271,-0.000463,-0.003946,0.003739,0.009779000000000001,-0.001035
550,-0.008637,0.081993,-0.242681,-0.008608,-0.081901,-0.996603,-0.000195,0.000602,-0.005007999999999999,0.005419,0.012,0.000143
551,-0.008551000000000001,0.081992,-0.24278200000000003,-0.008522,-0.0819,-0.996604,0.0008960000000000001,0.005925,-0.005007,0.00135,0.0129,-0.002694
552,-0.008423,0.082054,-0.24289299999999997,-0.008395,-0.08196200000000001,-0.9966,0.006225,0.004841,-0.0049689999999999995,0.0018329999999999998,0.016059,-0.004132
553,-0.008351,0.082175,-0.243013,-0.008323,-0.082082,-0.996591,0.00835,0.0005809999999999999,-0.007084999999999999,0.002723,0.013677000000000002,-0.003699
554,-0.008359,0.082254,-0.24317199999999997,-0.008331,-0.082161,-0.996584,0.004068,-0.0036609999999999998,-0.008177,0.004425,0.012215,-0.000654
555,-0.008457,0.082379,-0.243329,-0.008428,-0.082286,-0.9965729999999999,0.007254000000000001,-0.005807,-0.007084,0.004522,0.01234,-0.000665
556,-0.008545,0.082495,-0.243459,-0.008516,-0.082401,-0.9965629999999999,0.007320999999999999,-0.00472,-0.004949,0.005281,0.011372,-0.004109000000000001
557,-0.008637,0.08265700000000001,-0.243552,-0.008608,-0.082563,-0.996549,0.009445,-0.005797,-0.003865,0.005388,0.013134999999999999,-0.004275
558,-0.008732,0.082824,-0.243612,-0.008702,-0.082729,-0.996534,0.008378,-0.004732,-0.002805,0.00417,0.014858000000000001,-0.006426
559,-0.008841,0.082951,-0.243669,-0.00881,-0.082856,-0.9965229999999999,0.0073019999999999995,-0.0068590000000000005,-0.00281,0.005347,0.014146,-0.001326
560,-0.008912999999999999,0.083067,-0.243714,-0.008882,-0.082972,-0.9965120000000001,0.008373,-0.004736,-0.001737,0.0049759999999999995,0.010325,-0.001031
561,-0.008998,0.083187,-0.24371700000000002,-0.008967000000000001,-0.083091,-0.996502,0.006229999999999999,-0.004737,0.00038500000000000003,0.004679,0.009131,-0.000843
562,-0.009078,0.08329500000000001,-0.243714,-0.009046,-0.08319800000000001,-0.996492,0.007306999999999999,-0.0036710000000000002,-0.000678,0.0024690000000000003,0.010734,-0.002699
563,-0.009034,0.083355,-0.24372800000000003,-0.009002,-0.083259,-0.9964870000000001,0.003068,0.002735,-0.000715,-0.001343,0.013603,-0.0008119999999999999
564,-0.008968,0.08341900000000001,-0.24379099999999998,-0.008937,-0.08332200000000001,-0.996483,0.004149,0.002744,-0.003912,-0.0024010000000000004,0.014154,-0.003334
565,-0.008919,0.083393,-0.243914,-0.008887,-0.08329600000000001,-0.9964850000000001,-0.003282,0.000656,-0.007186,0.002082,0.013304,-0.008076999999999999
566,-0.008896,0.08333,-0.244054,-0.008865000000000001,-0.083234,-0.996491,-7.2e-05,0.001715,-0.008232999999999999,0.0052640000000000004,0.010434,-0.008376999999999999
567,-0.008792,0.08332,-0.24419699999999997,-0.008761,-0.083224,-0.996492,0.0020670000000000003,0.005954999999999999,-0.005019,0.00281,0.013444999999999999,-0.006666
568,-0.008669,0.083275,-0.24427100000000002,-0.008639,-0.083179,-0.996497,-7.7e-05,0.004893,-0.003964,0.001727,0.013125999999999999,0.0052710000000000005
569,-0.008544,0.08330800000000001,-0.24434,-0.008514,-0.08321100000000001,-0.9964959999999999,0.005253,0.00487,-0.002859,-0.000275,0.016041999999999997,0.009281999999999999
570,-0.008424,0.083464,-0.244375,-0.008395,-0.083367,-0.996484,0.007377,0.004854,-0.0007070000000000001,0.00101,0.014733000000000001,0.004388
571,-0.008395,0.083476,-0.24435199999999999,-0.008365000000000001,-0.083379,-0.996483,-0.001187,0.000615,0.001375,-0.000241,0.016393,-0.008858
572,-0.0083,0.083399,-0.244337,-0.008270999999999999,-0.083302,-0.99649,-0.003282,0.008083,0.00028199999999999997,-4.5e-05,0.015202,-0.007781999999999999
573,-0.008136,0.083388,-0.24431,-0.008108,-0.08329099999999999,-0.996492,0.002071,0.008027,0.001377,0.001836,0.01545,-0.004652
574,-0.008106,0.08340399999999999,-0.24430700000000002,-0.008078,-0.083307,-0.996491,0.003109,-0.000491,-0.000741,0.008948000000000001,0.008387,-0.000518
575,-0.008123,0.083369,-0.244371,-0.008095,-0.083272,-0.9964940000000001,-0.002211,-0.0015199999999999999,-0.00505,0.008736,0.00591,-0.0014
576,-0.008131999999999999,0.08329600000000001,-0.24446700000000002,-0.008103,-0.083199,-0.9965,-0.002207,0.000606,-0.003985,0.008683,0.006157999999999999,-0.000906
577,-0.008108,0.083234,-0.24452100000000002,-0.00808,-0.083138,-0.996505,-0.00114,0.001663,-0.0029100000000000003,0.0036850000000000003,0.011391,-0.004319
578,-0.008065000000000001,0.083147,-0.244506,-0.008037,-0.083052,-0.9965129999999999,-0.004359,0.002719,0.002407,0.002071,0.014691999999999998,-0.000588
579,-0.008015000000000001,0.083147,-0.24447,-0.007987000000000001,-0.083051,-0.9965129999999999,0.002037,0.0016309999999999999,0.0024530000000000003,0.0015630000000000002,0.013563,-0.0023120000000000003
580,-0.008020999999999999,0.083174,-0.24444899999999997,-0.007993,-0.083078,-0.996511,0.002036,-0.003735,0.000337,0.002866,0.011956999999999999,-0.005824
581,-0.00805,0.083133,-0.244486,-0.008022,-0.083037,-0.9965139999999999,-0.0011359999999999999,-0.000515,-0.0028940000000000003,0.003307,0.012465,-0.003257
582,-0.008017,0.083091,-0.24459299999999998,-0.00799,-0.082996,-0.996518,-0.001117,0.0016239999999999998,-0.005033,0.0015199999999999999,0.016040000000000002,-0.000537
583,-0.007998,0.08303200000000001,-0.244662,-0.007970999999999999,-0.082937,-0.9965229999999999,-0.0032700000000000003,-0.0005070000000000001,-0.002909,0.0006309999999999999,0.015722,-0.0035229999999999997
584,-0.008009,0.08297,-0.24470999999999998,-0.007981,-0.082875,-0.9965280000000001,-0.002208,-0.000515,-0.0018329999999999998,0.0016640000000000001,0.013675999999999999,-0.001549
585,-0.008005,0.08294,-0.24473699999999998,-0.007977,-0.082845,-0.996531,-0.001141,-0.000519,-0.001825,0.002606,0.013005000000000001,-0.003042
586,-0.007982,0.082911,-0.244774,-0.007955,-0.082816,-0.996533,0.0010019999999999999,0.001604,-0.001813,0.005956,0.012,-0.006365999999999999
587,-0.007947,0.08290700000000001,-0.244815,-0.00792,-0.082813,-0.996534,0.002069,0.0016,-0.0018059999999999999,0.0061189999999999994,0.012819999999999998,-0.00722
588,-0.007877,0.08292200000000001,-0.244873,-0.00785,-0.082827,-0.996533,0.002079,0.00267,-0.002875,0.00489,0.013277,-0.003009
589,-0.007823,0.08291699999999999,-0.244876,-0.007795999999999999,-0.082822,-0.996534,-0.001178,0.001573,0.000371,0.0038130000000000004,0.016385,0.0018739999999999998
590,-0.007824,0.082876,-0.244837,-0.007797,-0.082781,-0.9965370000000001,-0.001202,-0.0016309999999999999,0.0025109999999999998,0.00264,0.013078999999999999,-0.00209
591,-0.007888,0.082828,-0.24479800000000002,-0.007861,-0.082733,-0.996541,-0.001202,-0.0026920000000000004,0.0014449999999999999,0.001666,0.013184,-0.004695
592,-0.007943,0.08276900000000001,-0.24474400000000002,-0.007916,-0.082675,-0.9965450000000001,-0.001206,-0.0026969999999999997,0.002513,0.002041,0.012561,-0.00315
593,-0.007934,0.082749,-0.24470999999999998,-0.007906999999999999,-0.08265499999999999,-0.996547,0.000951,0.0005,0.00038700000000000003,-0.000165,0.012342,-0.0023239999999999997
594,-0.007949,0.082753,-0.244729,-0.007922,-0.082659,-0.9965459999999999,0.000951,-0.001622,-0.0017460000000000002,0.0032530000000000002,0.012453,-0.003118
595,-0.00796,0.082771,-0.244812,-0.007932999999999999,-0.082676,-0.9965450000000001,0.000975,0.000521,-0.004954,0.005064,0.011967,-0.002433
596,-0.00788,0.082728,-0.244891,-0.007853,-0.082634,-0.996549,-0.002316,0.003728,-0.0016989999999999998,0.000346,0.012901,0.000562
597,-0.007914000000000001,0.082731,-0.24488600000000002,-0.007887,-0.082636,-0.996549,-0.000225,-0.003744,0.00046100000000000004,-0.000795,0.011271,-0.0060609999999999995
598,-0.007953,0.082612,-0.24488400000000002,-0.007926,-0.082518,-0.9965579999999999,-0.008745999999999999,-0.000519,0.000398,0.004524,0.015196000000000001,-0.011788
599,-0.007844,0.082473,-0.24488800000000002,-0.007818,-0.08238,-0.9965700000000001,-0.003368,0.007989,-0.000644,-0.0004980000000000001,0.016553000000000002,-0.000958
600,-0.0076939999999999995,0.08250700000000001,-0.244852,-0.007667,-0.082413,-0.996569,0.005128,0.0036810000000000002,0.003694,-0.0006490000000000001,0.016587,-0.000959
601,-0.007711,0.082539,-0.244831,-0.007684999999999999,-0.082446,-0.996566,0.001923,-0.0016170000000000002,-0.000595,0.0064329999999999995,0.009646,0.002502
602,-0.007683,0.082522,-0.244806,-0.007657,-0.082428,-0.996568,-0.001268,0.001586,0.00044699999999999997,0.006299,0.013916,0.001267
603,-0.007659,0.08243500000000001,-0.24481399999999998,-0.007633,-0.082342,-0.996575,-0.00554,-0.000526,-0.000648,0.002735,0.015691999999999998,-0.00164
604,-0.007742,0.082325,-0.244811,-0.007716,-0.082232,-0.996583,-0.003431,-0.004797999999999999,0.00044,0.0006360000000000001,0.016283000000000002,-0.002593
605,-0.007784,0.082241,-0.24479800000000002,-0.007758,-0.082148,-0.99659,-0.0034969999999999997,-0.0026920000000000004,-0.0005480000000000001,-0.000101,0.010095999999999999,-0.005485
606,-0.007829000000000001,0.082195,-0.244821,-0.007803,-0.082102,-0.9965930000000001,-0.001354,-0.0016300000000000002,-0.001603,-0.002176,0.007532,-0.004521
607,-0.007855,0.08214199999999999,-0.244865,-0.007829000000000001,-0.08205,-0.996597,-0.0013449999999999998,-0.00056,-0.002673,0.001084,0.006548999999999999,-0.003296
608,-0.007821999999999999,0.082124,-0.244907,-0.007795999999999999,-0.08203200000000001,-0.996599,0.002937,0.002621,-0.002647,0.001112,0.009781,-0.002729
609,-0.0077859999999999995,0.08216799999999999,-0.24497600000000003,-0.0077599999999999995,-0.082075,-0.9965959999999999,0.00187,0.0015630000000000002,-0.003721,0.0025109999999999998,0.011854,-0.0018629999999999999
610,-0.007745,0.08216,-0.245056,-0.007719,-0.08206799999999999,-0.996597,-0.000263,0.0026320000000000002,-0.002669,0.003629,0.017263999999999998,-0.0022429999999999998
611,-0.007702,0.08214400000000001,-0.245104,-0.0076760000000000005,-0.082052,-0.996598,-0.000268,0.002628,-0.0016010000000000002,0.002382,0.015981,-0.004072999999999999
612,-0.007657,0.082131,-0.245126,-0.007631000000000001,-0.082039,-0.9966,-0.000273,0.001562,-0.0016,0.002565,0.015969,-0.005231
613,-0.007640999999999999,0.082102,-0.245168,-0.0076159999999999995,-0.08201,-0.9966020000000001,-0.000332,-0.000603,-0.001529,0.002153,0.017769999999999998,-0.00445
614,-0.007659999999999999,0.082069,-0.245231,-0.007634,-0.081976,-0.996605,0.0007440000000000001,-0.000598,-0.003658,0.004247,0.014258000000000002,-0.001091
615,-0.007603,0.08205599999999999,-0.24531,-0.0075769999999999995,-0.081963,-0.996607,0.000773,0.004732,-0.004733,0.002069,0.013894,-0.002936
616,-0.007520999999999999,0.082069,-0.245362,-0.007495999999999999,-0.081977,-0.996606,0.000749,0.002589,-0.001525,0.002262,0.01287,-0.000449
617,-0.007537,0.08203099999999999,-0.24536599999999997,-0.0075120000000000004,-0.081939,-0.996609,-0.0024850000000000002,-0.002735,0.000595,0.003483,0.012938,-0.002979
618,-0.007587000000000001,0.081954,-0.245329,-0.007562,-0.081862,-0.9966149999999999,-0.001423,-0.0016809999999999998,0.002738,0.006005,0.014601,-0.002317
619,-0.007553,0.08191,-0.24526900000000001,-0.007528,-0.081818,-0.996619,-0.000332,0.0036409999999999997,0.002739,0.0024920000000000003,0.0159,-0.005365
620,-0.007509999999999999,0.081888,-0.245241,-0.007484,-0.08179700000000001,-0.9966209999999999,-0.000332,0.000458,-0.000462,0.001289,0.014185,-0.00402
621,-0.0075379999999999996,0.081839,-0.24528200000000003,-0.0075120000000000004,-0.081748,-0.996625,-0.00143,-0.0038130000000000004,-0.003607,0.0028280000000000002,0.010322,-0.003803
622,-0.007601999999999999,0.081818,-0.245387,-0.0075769999999999995,-0.081727,-0.996626,0.000718,-0.002747,-0.005729,0.00451,0.01027,-0.004503
623,-0.00759,0.081768,-0.24544899999999997,-0.0075650000000000005,-0.081677,-0.9966299999999999,-0.00141,0.00257,-0.001478,0.005215,0.014889,-0.003568
624,-0.007540000000000001,0.081693,-0.24541,-0.007515000000000001,-0.081602,-0.9966370000000001,-0.002496,0.0025559999999999997,0.002787,0.0033799999999999998,0.014875999999999999,-0.001685
625,-0.007540000000000001,0.081631,-0.245323,-0.007515000000000001,-0.08154,-0.996642,-0.002516,-0.000644,0.0038590000000000005,0.00161,0.013974,-0.002702
626,-0.007586,0.081577,-0.24528899999999998,-0.007561,-0.081487,-0.9966459999999999,-0.001449,-0.0038299999999999996,0.000666,0.001381,0.015432,-0.002134
627,-0.007612000000000001,0.08154,-0.245298,-0.007587000000000001,-0.08145,-0.996649,0.000709,0.00042699999999999997,-0.000392,-8.8e-05,0.011045999999999999,-0.005045
628,-0.007566,0.08155499999999999,-0.24530500000000002,-0.007540000000000001,-0.081465,-0.996648,0.0028420000000000003,0.003597,0.000729,0.0025510000000000003,0.011412,-0.00558
629,-0.007509,0.081548,-0.24527,-0.007484,-0.081457,-0.996649,-0.000368,0.003599,0.002843,0.000389,0.014119999999999999,-0.004374
630,-0.007476000000000001,0.08150299999999999,-0.245256,-0.007451,-0.081413,-0.996653,-0.001425,0.0025510000000000003,-0.000367,2e-05,0.018486000000000002,0.000315
631,-0.007421,0.081491,-0.245284,-0.007396,-0.081401,-0.996654,0.0017850000000000001,0.0014869999999999998,-0.0035479999999999995,0.002025,0.015009999999999999,-0.006000999999999999
632,-0.007387,0.08150299999999999,-0.245376,-0.0073620000000000005,-0.081413,-0.996653,-0.001411,0.0015019999999999999,-0.004639,0.002006,0.012123,-0.005605
633,-0.007348,0.081398,-0.24545999999999998,-0.007324,-0.081308,-0.996662,-0.005673,0.002582,-0.0046700000000000005,0.004272,0.012445,-0.004543
634,-0.007259000000000001,0.08124400000000001,-0.24550100000000002,-0.007234999999999999,-0.08115499999999999,-0.996675,-0.004621,0.004688,0.000676,-0.00011999999999999999,0.013803,-0.0018449999999999999
635,-0.007248,0.081201,-0.24547600000000003,-0.0072239999999999995,-0.081112,-0.9966790000000001,0.000685,-0.0017219999999999998,0.000721,0.006644,0.012264,-0.001582
636,-0.0072120000000000005,0.081201,-0.245473,-0.007188,-0.081112,-0.9966790000000001,0.000718,0.004674,-0.00035499999999999996,0.007997,0.013683,0.000814
637,-0.007049,0.08117,-0.24541,-0.007026,-0.081081,-0.996683,-0.000338,0.009967,0.005,-0.009545,0.019222,-0.004767
638,-0.006913,0.08119900000000001,-0.245331,-0.00689,-0.08111,-0.9966809999999999,0.002843,0.004634,0.00396,-0.001533,0.012048999999999999,-0.0008619999999999999
639,-0.0068390000000000005,0.081273,-0.24518600000000002,-0.006816,-0.081183,-0.996676,0.004953,0.003544,0.008249,8.7e-05,0.011115,-0.00366
640,-0.006797,0.08128099999999999,-0.245114,-0.006775,-0.081192,-0.996675,0.000705,0.001454,0.001813,0.000488,0.016159,-0.002607
641,-0.006762000000000001,0.081264,-0.245162,-0.00674,-0.081175,-0.996677,0.001795,0.00041,-0.004587,-0.000234,0.018553,-0.00314
642,-0.006732999999999999,0.08126799999999999,-0.245329,-0.00671,-0.081179,-0.996677,0.0018239999999999999,0.000436,-0.010995999999999999,-0.001041,0.016497,-0.003445
643,-0.006716,0.081309,-0.245548,-0.006693999999999999,-0.081219,-0.996674,0.002896,0.000436,-0.012057,0.004436,0.011288,-0.00325
644,-0.006703,0.081374,-0.245763,-0.006681,-0.08128400000000001,-0.996669,0.003966,0.00040899999999999997,-0.009873999999999999,0.002897,0.014328,-0.003164
645,-0.006654,0.08136399999999999,-0.24594000000000002,-0.006631999999999999,-0.081274,-0.9966700000000001,-0.001374,0.002546,-0.00671,0.0028469999999999997,0.014318,-0.0031620000000000003
646,-0.006591,0.08131100000000001,-0.246015,-0.006569,-0.081222,-0.996674,0.000736,0.001456,-0.002421,0.004539,0.018203,-0.0013570000000000001
647,-0.006561,0.08131000000000001,-0.24603200000000003,-0.006539,-0.08122,-0.996675,0.002865,0.001444,-0.001338,0.0048,0.017453,-0.003386
648,-0.006562999999999999,0.081347,-0.246075,-0.006541,-0.08125700000000001,-0.9966719999999999,0.002865,-0.000678,-0.003471,0.005,0.013156999999999999,-0.0044729999999999995
649,-0.006567,0.081327,-0.24619899999999997,-0.0065450000000000005,-0.081237,-0.9966729999999999,-0.0013880000000000001,-0.00065,-0.006706,0.004928,0.013748,-0.00264
650,-0.006551,0.08126599999999999,-0.246308,-0.006529000000000001,-0.081176,-0.9966780000000001,-0.0013880000000000001,0.001472,-0.004572,0.001021,0.015121,-0.005351
651,-0.006437000000000001,0.081247,-0.24633000000000002,-0.006416,-0.081157,-0.9966809999999999,0.000741,0.005704,0.000778,0.00045,0.017055,-0.002633
652,-0.006344,0.081241,-0.246304,-0.006323,-0.081152,-0.996682,0.000722,0.0025039999999999997,0.0018510000000000002,-0.0008029999999999999,0.019048,-0.00225
653,-0.006362,0.08119,-0.246273,-0.006340999999999999,-0.08110099999999999,-0.9966860000000001,-0.00034700000000000003,-0.0017649999999999999,0.000819,0.001306,0.014756,-0.0067480000000000005
654,-0.006417,0.081216,-0.24629299999999998,-0.006396,-0.081127,-0.996683,0.002863,-0.001768,-0.001295,0.002489,0.015773,-0.0057729999999999995
655,-0.006404000000000001,0.081236,-0.246367,-0.006383,-0.081147,-0.996682,0.00182,0.00144,-0.003442,0.002584,0.015854,-0.0051340000000000005
656,-0.006368,0.081209,-0.246452,-0.006347,-0.08112,-0.996684,-0.00031299999999999996,0.00038700000000000003,-0.004524,0.0021809999999999998,0.018330000000000003,0.000407
657,-0.006399,0.08114400000000001,-0.246522,-0.006378,-0.081055,-0.9966889999999999,-0.002471,-0.003871,-0.0034659999999999995,0.001373,0.013947,-0.0025629999999999997
658,-0.006456999999999999,0.081112,-0.246592,-0.006435,-0.081023,-0.996691,0.001801,-0.002821,-0.003437,0.002712,0.014434,-0.004453
659,-0.0064329999999999995,0.08116,-0.246639,-0.006412,-0.08107,-0.9966879999999999,0.003954,0.0035549999999999996,-0.001294,0.002475,0.012497,-0.005235
660,-0.006362,0.081211,-0.24668,-0.006340999999999999,-0.081122,-0.996684,0.0028870000000000002,0.0024980000000000002,-0.002368,0.001962,0.013632,-0.002111
661,-0.006372999999999999,0.081238,-0.24672199999999997,-0.006352,-0.081148,-0.996682,0.001814,-0.001778,-0.0012779999999999998,0.004139,0.010027,-0.004569
662,-0.006402,0.08126599999999999,-0.24679600000000002,-0.006381,-0.081176,-0.9966790000000001,0.001823,-0.0017690000000000002,-0.003415,0.003924,0.015090000000000001,-0.003839
663,-0.006418999999999999,0.08128099999999999,-0.246881,-0.006398,-0.081191,-0.9966780000000001,0.0028899999999999998,-0.001773,-0.003407,-0.0010789999999999999,0.013335,-0.005306
664,-0.0064659999999999995,0.081309,-0.246981,-0.006444,-0.08122,-0.996675,0.0029,-0.0017649999999999999,-0.005543,0.0012259999999999999,0.013425,-0.004622
665,-0.006429000000000001,0.081317,-0.247087,-0.006408,-0.081227,-0.996675,-0.001349,0.003572,-0.0045119999999999995,-0.000901,0.016759,-0.004958
666,-0.006370000000000001,0.08127100000000001,-0.24716300000000002,-0.0063490000000000005,-0.081182,-0.9966790000000001,-0.000301,0.00036899999999999997,-0.003432,0.004075,0.015234000000000001,-0.004664
667,-0.0064069999999999995,0.081207,-0.247258,-0.006386,-0.081118,-0.996684,-0.002449,-0.0038810000000000003,-0.00451,0.005715,0.013278,-0.002797
668,-0.006470999999999999,0.08115599999999999,-0.24736,-0.00645,-0.081066,-0.9966879999999999,-0.00029,-0.003921,-0.005542,0.0065260000000000006,0.010205,-0.006973999999999999
669,-0.006453,0.081166,-0.24746500000000002,-0.006431999999999999,-0.081077,-0.9966870000000001,0.0018679999999999999,0.002459,-0.0044670000000000005,0.000603,0.012991999999999998,-0.007311
670,-0.0063880000000000004,0.081211,-0.247533,-0.006367,-0.081121,-0.996684,0.002944,0.0045850000000000005,-0.004462,0.004567,0.013159,-0.005193
671,-0.006188,0.08110099999999999,-0.247625,-0.006167,-0.081013,-0.9966940000000001,-0.007701,0.011009999999999999,-0.003476,0.003375,0.01601,-0.0020399999999999997
672,-0.005971,0.081014,-0.24765700000000002,-0.005951,-0.080925,-0.9967020000000001,-0.000261,0.007775,-0.00021600000000000002,0.001923,0.016121,-0.0011
673,-0.005944,0.08104299999999999,-0.24760700000000002,-0.005925,-0.080955,-0.9967,0.00502,-0.0018390000000000001,0.00197,-0.0008039999999999999,0.015327,-0.001347
674,-0.005915,0.081125,-0.24761100000000003,-0.005895,-0.081036,-0.9966940000000001,0.003997,0.003508,-0.002317,0.000997,0.01292,-0.004893
675,-0.005748,0.08115,-0.24771100000000001,-0.005729,-0.08106000000000001,-0.996693,-0.000233,0.008862,-0.005558,-0.000802,0.013205000000000001,-0.0017050000000000001
676,-0.00561,0.081092,-0.24779600000000002,-0.005591,-0.08100299999999999,-0.996698,-0.0013369999999999999,0.0034799999999999996,-0.0033880000000000004,-0.0024809999999999997,0.019434,-0.003134
677,-0.005622,0.08103099999999999,-0.24779400000000001,-0.005603,-0.080943,-0.9967030000000001,-0.000308,-0.0018629999999999999,-0.000169,-0.00462,0.016398,-0.00232
678,-0.005686999999999999,0.081069,-0.247781,-0.005668,-0.080981,-0.9967,0.0028829999999999997,-0.002944,0.000923,-0.00039,0.012515,-0.00266
679,-0.00572,0.08114199999999999,-0.247772,-0.0057009999999999995,-0.081053,-0.996693,0.00504,0.00025299999999999997,-0.0012029999999999999,0.004054,0.011412,-0.00349
680,-0.00569,0.081163,-0.247864,-0.005671,-0.08107400000000001,-0.996692,0.0018690000000000002,0.002412,-0.005501,0.0033979999999999995,0.018131,-2.7000000000000002e-05
681,-0.005638000000000001,0.081228,-0.24797399999999997,-0.00562,-0.081138,-0.9966870000000001,0.002931,0.001343,-0.005492,0.003346,0.018196,-3.2e-05
682,-0.005679999999999999,0.081211,-0.24802,-0.005661,-0.081122,-0.9966879999999999,0.000763,-0.0018620000000000002,-0.00123,0.003006,0.014685,-0.00499
683,-0.005699,0.081235,-0.248023,-0.005679999999999999,-0.08114600000000001,-0.9966860000000001,0.003964,-0.000813,-0.00014099999999999998,0.00301,0.011932,5.7999999999999994e-05
684,-0.005696,0.081303,-0.248004,-0.005677000000000001,-0.081214,-0.9966799999999999,0.005031,0.000245,0.0009339999999999999,0.003006,0.012,5.3e-05
685,-0.005738,0.081366,-0.24797399999999997,-0.005719,-0.081276,-0.996675,0.0039310000000000005,-0.004058,0.000995,0.001279,0.011696,-0.00128
686,-0.005775,0.081411,-0.247964,-0.005755,-0.081321,-0.9966709999999999,0.00395,0.00020299999999999997,0.000989,0.0033450000000000003,0.01287,-0.0042899999999999995
687,-0.005801,0.081401,-0.247993,-0.005782,-0.08131100000000001,-0.9966719999999999,0.000745,-0.002973,-0.001165,0.0009449999999999999,0.016843,-0.002184
688,-0.005903,0.081368,-0.248007,-0.005883,-0.08127899999999999,-0.996674,-0.001403,-0.005101,-0.00011,0.002129,0.016581,-0.0037840000000000005
689,-0.005978,0.08136499999999999,-0.24798699999999999,-0.005958,-0.081275,-0.996674,0.0018170000000000003,-0.000851,-9.2e-05,0.000205,0.011923999999999999,-0.006698000000000001
690,-0.005958,0.081377,-0.248006,-0.005939,-0.081288,-0.9966729999999999,-0.000293,0.0013,-0.003315,-0.0005009999999999999,0.00922,-0.005463
691,-0.005957,0.081319,-0.248099,-0.005937,-0.08123,-0.9966780000000001,-0.001355,0.00024700000000000004,-0.005457,0.0009019999999999999,0.007988,-0.003246
692,-0.005954999999999999,0.081219,-0.24818800000000002,-0.005935,-0.08113,-0.9966860000000001,-0.0077870000000000005,0.00023199999999999997,-0.0032979999999999997,0.003311,0.01454,-0.004520000000000001
693,-0.00588,0.080902,-0.24816100000000002,-0.005861,-0.080813,-0.996712,-0.019532,0.005569,0.004091,0.00548,0.014925999999999998,-0.000587
694,-0.005827000000000001,0.080613,-0.24799899999999997,-0.005808,-0.080526,-0.9967360000000001,-0.009978,0.0012490000000000001,0.010572,0.005640999999999999,0.009664,0.004487
695,-0.005915,0.080432,-0.247771,-0.005896,-0.080345,-0.99675,-0.006806,-0.005154,0.010602,0.006231,-0.001823,-0.012467
696,-0.006099,0.08024400000000001,-0.247554,-0.006079,-0.08015800000000001,-0.996764,-0.010026,-0.008342,0.011652,0.00611,0.001209,-0.012331
697,-0.006234,0.079935,-0.247324,-0.006214,-0.07985,-0.9967879999999999,-0.019628,-0.0051259999999999995,0.014786,0.002018,0.010559,-0.009255
698,-0.006464,0.079348,-0.24687800000000001,-0.006444,-0.079264,-0.996833,-0.033602999999999994,-0.016842,0.026454000000000002,-0.002849,0.022775999999999998,-0.001535
699,-0.006968000000000001,0.07875499999999999,-0.246335,-0.006945999999999999,-0.07867400000000001,-0.996876,-0.024038999999999998,-0.024337,0.027598,-0.000607,0.02806,0.0022170000000000002
700,-0.0073349999999999995,0.07848200000000001,-0.24585300000000002,-0.007312999999999999,-0.078402,-0.9968950000000001,-0.007984,-0.011609,0.023507,0.000217,0.026079,-0.001442
701,-0.0074459999999999995,0.078378,-0.24535,-0.007423000000000001,-0.078297,-0.9969020000000001,-0.002621,-0.002053,0.026737,0.003517,0.023991,0.002914
702,-0.0075450000000000005,0.078416,-0.244844,-0.007520999999999999,-0.078336,-0.996899,0.0037990000000000003,-0.000997,0.023576,0.001952,0.023801,8.8e-05
703,-0.007548999999999999,0.07838400000000001,-0.244479,-0.007525,-0.078303,-0.996901,-0.001483,0.002251,0.014988999999999999,-0.000455,0.017909,-0.0035259999999999996
704,-0.0074849999999999995,0.07836,-0.24432800000000002,-0.007462000000000001,-0.07828,-0.9969030000000001,-0.000339,0.00656,0.002173,-0.0024100000000000002,0.019274,-0.004546
705,-0.007412,0.07836,-0.24440599999999998,-0.007389,-0.07828,-0.9969040000000001,0.002866,-0.000874,-0.006340999999999999,-0.006268,0.020373,-0.004286
706,-0.007437,0.078342,-0.244668,-0.0074140000000000005,-0.078262,-0.9969049999999999,-0.000296,-0.0018899999999999998,-0.015976,0.005079,0.012924000000000001,0.001864
707,-0.007384,0.07835299999999999,-0.24511100000000002,-0.007361,-0.078273,-0.9969049999999999,0.001895,0.0034590000000000003,-0.023445,0.0018989999999999999,0.01205,-0.0027140000000000003
708,-0.007198,0.07838200000000001,-0.245569,-0.007176,-0.078302,-0.9969040000000001,0.0040479999999999995,0.009834,-0.021301,0.001668,0.012353,-0.004256
709,-0.006869,0.078542,-0.245928,-0.006848000000000001,-0.078462,-0.9968940000000001,0.012581,0.019325,-0.015829,-0.0032530000000000002,0.019822,-0.004327
710,-0.006429000000000001,0.078837,-0.24617399999999998,-0.006409000000000001,-0.07875599999999999,-0.996873,0.016834000000000002,0.020358,-0.011526999999999999,-0.000152,0.021672,-0.0011279999999999999
711,-0.006122,0.079188,-0.24636,-0.006103,-0.079106,-0.996848,0.01891,0.010751,-0.008296,0.001449,0.016224000000000002,-0.002725
712,-0.005961,0.079512,-0.24653000000000003,-0.005942,-0.079428,-0.9968229999999999,0.016762,0.006501000000000001,-0.009373999999999999,0.01229,0.006445,-0.005649
713,-0.005789,0.07974500000000001,-0.24665700000000002,-0.005771,-0.079661,-0.9968049999999999,0.010356,0.010763,-0.004083,0.008761,0.006525,-0.006948
714,-0.005515,0.07986,-0.246712,-0.005497,-0.079775,-0.996798,0.005032,0.015035,-0.001989,0.006977,0.012102,-0.008497
715,-0.005288,0.07985700000000001,-0.246709,-0.0052710000000000005,-0.079773,-0.996799,0.0017929999999999999,0.008646,0.000133,-0.003061,0.015243000000000001,-0.005229999999999999
716,-0.00509,0.079867,-0.246702,-0.005074,-0.079782,-0.996799,0.000685,0.008616,0.00020099999999999998,-0.00425,0.010584,-0.0010949999999999998
717,-0.004922999999999999,0.079861,-0.24668299999999999,-0.004907,-0.079776,-0.996801,-0.000392,0.007551,0.001263,-0.001425,0.00722,0.001394
718,-0.004837,0.079747,-0.24663800000000002,-0.004821,-0.079663,-0.9968100000000001,-0.006822,0.002242,0.002293,0.0052179999999999995,0.012143000000000001,-0.003114
719,-0.004832,0.079613,-0.24668299999999999,-0.004817,-0.079529,-0.996821,-0.005731,0.000138,-0.005174,0.0045119999999999995,0.017013,0.000941
720,-0.004871,0.07942,-0.246825,-0.004856,-0.079337,-0.996836,-0.009993,-0.0019649999999999997,-0.008406,0.0055119999999999995,0.013494999999999998,0.003657
721,-0.004961999999999999,0.07916799999999999,-0.24694699999999997,-0.004947,-0.079085,-0.996856,-0.014303999999999999,-0.007293000000000001,-0.004157,0.0013,0.008101,-0.001451
722,-0.005152,0.078885,-0.24700999999999998,-0.005136,-0.078803,-0.996877,-0.013261000000000002,-0.010501,-0.002009,0.0001,0.002951,-0.008723
723,-0.005311,0.078692,-0.247025,-0.005294,-0.078611,-0.996891,-0.0057740000000000005,-0.004144,0.000172,-0.00116,0.0040869999999999995,-0.006099
724,-0.005221,0.078615,-0.246979,-0.0052049999999999996,-0.078534,-0.996898,-0.002535,0.00755,0.0033840000000000003,-0.000334,0.00755,-0.002248
725,-0.00509,0.0786,-0.246948,-0.005075,-0.078519,-0.9969,0.001714,0.004347,0.000262,-0.002128,0.006498,0.0015689999999999999
726,-0.0051649999999999995,0.078618,-0.246937,-0.005149,-0.078537,-0.996898,0.002724,-0.007379000000000001,0.001352,-0.000299,0.01094,-0.002705
727,-0.005313,0.07862000000000001,-0.246894,-0.005296,-0.078539,-0.9968969999999999,-0.000482,-0.006311,0.0034649999999999998,0.003922999999999999,0.016268,-0.004446
728,-0.005424,0.078587,-0.24678200000000003,-0.005407,-0.07850599999999999,-0.996899,-0.002611,-0.0020559999999999997,0.0066489999999999995,0.0019579999999999997,0.020873,-0.006122
729,-0.005509,0.078536,-0.246665,-0.005492,-0.078455,-0.9969030000000001,-0.001544,-0.004181,0.004523,-9.300000000000001e-05,0.021601,-0.007187000000000001
730,-0.0055850000000000006,0.078472,-0.246617,-0.005568,-0.07839199999999999,-0.996907,-0.001515,-0.002034,0.00024700000000000004,-0.000505,0.020149,-0.0050609999999999995
731,-0.0056229999999999995,0.078462,-0.246665,-0.005605,-0.07838200000000001,-0.996908,0.000638,-0.0020239999999999998,-0.004011,8.2e-05,0.028027999999999997,-0.006372999999999999
732,-0.005613,0.078462,-0.24673,-0.005596,-0.07838200000000001,-0.996908,0.002786,0.003286,-0.001866,-0.00047699999999999994,0.03433,-0.000895
733,-0.0054859999999999996,0.078533,-0.24671500000000002,-0.005469,-0.078453,-0.9969030000000001,0.006108,0.006513,0.0023079999999999997,0.001288,0.03318,0.001145
734,-0.005458,0.078667,-0.246635,-0.005442,-0.078585,-0.996893,0.009266,9.8e-05,0.005543,0.002054,0.02344,-0.0020239999999999998
735,-0.005389,0.078802,-0.24656599999999998,-0.005372999999999999,-0.078721,-0.9968819999999999,0.00718,0.006514,0.001248,-0.000517,0.021897,-0.004064
736,-0.005123,0.078885,-0.24657300000000001,-0.005107,-0.078803,-0.996877,0.005099,0.017178,0.000151,0.000484,0.021018000000000002,-0.00532
737,-0.004748,0.078975,-0.24656199999999998,-0.004733,-0.07889299999999999,-0.996872,0.008295,0.017163,0.001242,-0.0023469999999999997,0.017812,-0.007416
738,-0.004371,0.079113,-0.24655300000000002,-0.004358,-0.07903099999999999,-0.9968629999999999,0.007247,0.021427,0.0012289999999999998,-0.0035159999999999996,0.018697,-0.008386
739,-0.003909,0.07924500000000001,-0.24643600000000002,-0.003896,-0.079162,-0.9968540000000001,0.010438,0.025651999999999998,0.0076549999999999995,-0.000407,0.014816,-0.007983
740,-0.0033659999999999996,0.079309,-0.246261,-0.003356,-0.079226,-0.996851,0.00199,0.027828,0.010690999999999999,-0.0028699999999999997,0.01108,4e-05
741,-0.0030859999999999998,0.079235,-0.246031,-0.003077,-0.079152,-0.996858,-0.005584,0.0054789999999999995,0.011734999999999999,0.003382,0.0076489999999999995,0.003831
742,-0.0031579999999999998,0.07904,-0.245833,-0.003148,-0.078957,-0.996873,-0.008808,-0.004079999999999999,0.007451999999999999,0.010701,0.0035789999999999997,0.008195000000000001
743,-0.00325,0.078917,-0.24583200000000002,-0.00324,-0.078835,-0.9968819999999999,-0.001287,-0.0029980000000000002,-0.003179,0.011342,-0.012199,7.2e-05
744,-0.003357,0.078914,-0.245948,-0.0033469999999999997,-0.078833,-0.9968819999999999,0.000837,-0.008319,-0.006363000000000001,0.012395,-0.018747,-0.006246
745,-0.003539,0.078934,-0.246125,-0.0035280000000000003,-0.07885199999999999,-0.9968799999999999,-0.00022,-0.009368000000000001,-0.009573,0.011172,-0.019949,-0.012611
746,-0.0037409999999999995,0.07875399999999999,-0.246518,-0.003729,-0.078673,-0.9968940000000001,-0.014051,-0.015652000000000003,-0.024617,0.004462,-0.012056,-0.0049380000000000005
747,-0.004063000000000001,0.078395,-0.247096,-0.004051,-0.078315,-0.99692,-0.01939,-0.017759,-0.02572,0.004783,0.028999,-0.0021030000000000003
748,-0.0040880000000000005,0.078318,-0.247367,-0.004076,-0.078237,-0.996926,0.005144,0.006488,-0.006344,-0.001784,0.036123,-0.002814
749,-0.003815,0.078562,-0.247365,-0.003803,-0.078481,-0.996908,0.011535,0.012824,0.002238,-0.0054280000000000005,0.034918,-0.001459
750,-0.0037329999999999998,0.078692,-0.24730500000000002,-0.003722,-0.078611,-0.996898,0.000785,-0.003127,0.00432,-0.005937,0.037,0.002392
751,-0.0038280000000000002,0.078657,-0.24710700000000002,-0.0038159999999999995,-0.078576,-0.996901,0.0007469999999999999,-0.0021,0.013933000000000001,-0.001524,0.035912,-0.005174
752,-0.003782,0.078684,-0.24676700000000001,-0.0037700000000000003,-0.07860199999999999,-0.996899,0.006104999999999999,0.006391,0.017164,-0.0040420000000000005,0.028798,-0.008365000000000001
753,-0.003701,0.078702,-0.246491,-0.0036899999999999997,-0.07862100000000001,-0.996898,0.000785,0.0043,0.011788,-0.003924,0.027657,-0.007298000000000001
754,-0.003597,0.078721,-0.246376,-0.0035859999999999998,-0.07864,-0.9968969999999999,0.005115,0.008584999999999999,0.002199,-0.002471,0.020061000000000002,-0.002264
755,-0.003375,0.078827,-0.24645300000000003,-0.003365,-0.07874500000000001,-0.9968889999999999,0.008368,0.011804,-0.006328,0.000603,0.008187999999999999,-0.0019510000000000003
756,-0.003112,0.07899400000000001,-0.24662699999999999,-0.003102,-0.078912,-0.996877,0.00945,0.011812999999999999,-0.009525,0.0028120000000000003,0.001656,-0.003322
757,-0.003017,0.07903400000000001,-0.24684299999999998,-0.003007,-0.078951,-0.9968739999999999,-0.001215,0.001145,-0.012766,0.007967,0.005267,0.000139
758,-0.003009,0.078907,-0.24711,-0.003,-0.078825,-0.996884,-0.006548999999999999,0.000103,-0.013869999999999999,0.007989,0.001219,0.002392
759,-0.003029,0.078816,-0.24736100000000003,-0.00302,-0.078734,-0.996891,-0.004439,-0.00417,-0.012782,0.008406,-0.000596,0.0042
