,attitude.roll,attitude.pitch,attitude.yaw,gravity.x,gravity.y,gravity.z,rotationRate.x,rotationRate.y,rotationRate.z,userAcceleration.x,userAcceleration.y,userAcceleration.z
0,0.106648,-0.46530299999999997,-0.10965699999999999,0.09512899999999999,0.448693,-0.888608,-0.046597,0.016677,-0.024458,0.005228,0.021018000000000002,-0.005984000000000001
1,0.10715,-0.466233,-0.110079,0.09552999999999999,0.449524,-0.8881450000000001,-0.03798,0.040061,-0.019087,0.001638,0.027252,-0.013924
2,0.10770999999999999,-0.46680900000000003,-0.110327,0.096,0.450039,-0.887834,-0.017792,0.032491,-0.008254000000000001,0.002038,0.027118,-0.003554
3,0.108271,-0.467082,-0.11033699999999999,0.096485,0.450283,-0.887658,-0.00719,0.02815,0.002508,0.0036590000000000004,0.028995999999999997,-0.002937
4,0.109154,-0.46699300000000005,-0.110177,0.097273,0.45020299999999996,-0.8876120000000001,0.015286000000000001,0.051477999999999996,0.010112999999999999,0.007417,0.030861000000000003,0.006096
5,0.11046199999999999,-0.46665500000000004,-0.11005,0.09845,0.449901,-0.8876350000000001,0.024974,0.068503,0.008019,-0.0031739999999999997,0.01305,0.015916
6,0.11174300000000001,-0.46625900000000003,-0.109983,0.099607,0.44954799999999995,-0.8876850000000001,0.019606000000000002,0.057882,0.00479,-0.0056890000000000005,0.010169,0.010289
7,0.112622,-0.46607200000000004,-0.109954,0.100398,0.44938100000000003,-0.8876809999999999,0.013118000000000001,0.035546,0.0015689999999999999,-0.005915,0.008994,0.003587
8,0.112975,-0.466096,-0.10997799999999999,0.10071000000000001,0.449402,-0.8876350000000001,0.008736,0.005751,-0.0026969999999999997,-0.010912,0.011687999999999999,0.0007480000000000001
9,0.11267100000000001,-0.466054,-0.11006500000000001,0.10044199999999999,0.44936400000000004,-0.887684,0.0032670000000000004,-0.025119,-0.0037630000000000003,-0.011208,0.014366,0.00043099999999999996
10,0.11182,-0.46613999999999994,-0.11021800000000001,0.099682,0.449441,-0.8877309999999999,-2e-05,-0.047465,-0.006962,-0.013729,0.014502000000000001,0.004445
11,0.110576,-0.46621999999999997,-0.110476,0.098574,0.449513,-0.887818,0.001033,-0.055970000000000006,-0.012284999999999999,-0.004717,0.011089,0.011842
12,0.109454,-0.46628000000000003,-0.110928,0.097574,0.44956599999999997,-0.8879020000000001,-0.003105,-0.037802999999999996,-0.02302,-0.001169,0.010456,0.008506999999999999
13,0.10844200000000001,-0.466596,-0.11161700000000001,0.096661,0.449849,-0.887858,-0.007291,-0.028166000000000004,-0.031606999999999996,0.008518000000000001,0.014980000000000002,-0.001042
14,0.10758,-0.46687799999999996,-0.112302,0.095881,0.45010100000000003,-0.8878149999999999,-0.009358,-0.015366999999999999,-0.033774,0.004613,0.017444,-0.006258
15,0.10744100000000001,-0.467261,-0.11321400000000001,0.095739,0.45044300000000004,-0.8876569999999999,-0.014419,0.0337,-0.045623000000000004,0.006022,0.020352000000000002,-0.0032270000000000003
16,0.108047,-0.46786000000000005,-0.11424100000000001,0.096249,0.450977,-0.887331,-0.021753,0.060371,-0.048913,0.004429,0.022061,0.004717
17,0.109021,-0.46839899999999995,-0.115301,0.097086,0.45145799999999997,-0.8869950000000001,-0.017421000000000002,0.08175199999999999,-0.053166,0.003897,0.017322999999999998,0.0063030000000000004
18,0.110221,-0.46886700000000003,-0.11640999999999999,0.09812699999999999,0.451875,-0.886668,-0.015302000000000001,0.081732,-0.049946,0.000414,0.018080000000000002,0.003382
19,0.111321,-0.469418,-0.11739000000000001,0.099074,0.452367,-0.8863120000000001,-0.019617,0.076399,-0.044627999999999994,0.000794,0.018046,-0.0070599999999999994
20,0.112705,-0.470066,-0.11823,0.10026900000000001,0.452945,-0.885882,-0.031291,0.09665499999999999,-0.038326,1.2e-05,0.018078999999999998,-0.006253
21,0.11442000000000001,-0.47096499999999997,-0.11892799999999999,0.10174,0.453747,-0.8853040000000001,-0.040897,0.100928,-0.033058,-0.005519,0.019611,-0.002727
22,0.11607100000000001,-0.47207200000000005,-0.119566,0.103144,0.45473199999999997,-0.8846350000000001,-0.046245999999999995,0.098812,-0.032024000000000004,-0.007594,0.013544999999999998,0.0015789999999999999
23,0.11779,-0.47311400000000003,-0.12016500000000001,0.104609,0.45566,-0.883986,-0.048389,0.09775,-0.030969999999999998,-0.0077150000000000005,0.016172,0.001707
24,0.11953299999999999,-0.474103,-0.120719,0.10609600000000001,0.456541,-0.8833540000000001,-0.041969,0.104111,-0.028797000000000003,-0.007448000000000001,0.018267,0.001884
25,0.12126700000000001,-0.475024,-0.12119300000000001,0.107576,0.457359,-0.8827510000000001,-0.03822,0.09807,-0.022247,-0.010927,0.020073,0.002273
26,0.12304100000000001,-0.47596099999999997,-0.121484,0.10909,0.458193,-0.882133,-0.046779,0.102323,-0.012698000000000001,-0.008214,0.021788,0.002769
27,0.125198,-0.477045,-0.12161500000000001,0.11093,0.45915600000000006,-0.881402,-0.054175,0.12045,-0.010637,-0.004423,0.022213,0.002023
28,0.127577,-0.47825100000000004,-0.121769,0.112956,0.46022700000000005,-0.8805860000000001,-0.055185000000000005,0.132176,-0.011727,0.000127,0.021447,-0.0014939999999999999
29,0.13009400000000002,-0.479411,-0.12194,0.115103,0.46125600000000005,-0.879769,-0.054099,0.135372,-0.012792,0.000833,0.020494,0.004342
30,0.13264,-0.48053599999999996,-0.12212200000000001,0.117274,0.462255,-0.878958,-0.053046,0.13111099999999998,-0.013847,0.00021899999999999998,0.014963999999999998,0.004706
31,0.134883,-0.481734,-0.122339,0.11917,0.46331700000000003,-0.878143,-0.053109,0.116202,-0.014897,0.000901,0.017411000000000003,0.004196
32,0.136968,-0.48283400000000004,-0.122554,0.120931,0.464291,-0.877388,-0.047817,0.10553499999999999,-0.015913999999999998,0.001215,0.021472,0.004783
33,0.13868699999999998,-0.48366800000000004,-0.122813,0.122386,0.46502899999999997,-0.8767950000000001,-0.030839,0.085235,-0.01577,-5.6000000000000006e-05,0.021741,0.007470999999999999
34,0.1397,-0.484206,-0.12313199999999999,0.12323900000000002,0.46550600000000003,-0.876423,-0.017450999999999998,0.0429,-0.016558,-0.002176,0.021387,0.009281000000000001
35,0.13985799999999998,-0.48448599999999997,-0.12347000000000001,0.123359,0.465754,-0.876274,-0.0016350000000000002,0.002359,-0.015328,-0.002754,0.022359,0.012092
36,0.139287,-0.484354,-0.12381700000000001,0.122867,0.46563699999999997,-0.8764049999999999,0.020597,-0.033947000000000005,-0.01299,-0.006670999999999999,0.020005000000000002,0.01468
37,0.138087,-0.483842,-0.124143,0.121848,0.465183,-0.8767879999999999,0.035384,-0.062778,-0.008576,-0.01023,0.018581,0.011309
38,0.136638,-0.483295,-0.124393,0.12061199999999998,0.4647,-0.877215,0.030036,-0.063833,-0.006476000000000001,-0.011741,0.018256,0.004123
39,0.135673,-0.483033,-0.124516,0.11978299999999999,0.46446800000000005,-0.877452,0.012023,-0.031829,-0.00237,-0.010896,0.018763,-0.005834000000000001
40,0.135666,-0.483155,-0.124464,0.119768,0.464575,-0.877397,-0.00805,0.018284,0.0038350000000000003,-0.003146,0.020685,-0.009382999999999999
41,0.136601,-0.483505,-0.124333,0.12056700000000001,0.46488599999999997,-0.877123,-0.015346,0.057721,0.004802000000000001,0.001153,0.019703000000000002,-0.0048200000000000005
42,0.137958,-0.48399,-0.124208,0.121726,0.465314,-0.876735,-0.023809,0.072668,0.003655,0.001703,0.020571000000000002,-0.001713
43,0.139514,-0.484584,-0.12405999999999999,0.123052,0.46584,-0.8762709999999999,-0.028057,0.07694400000000001,0.0036200000000000004,0.003032,0.021984,-0.0014449999999999999
44,0.141006,-0.485227,-0.12392,0.12431600000000001,0.466409,-0.87579,-0.028091,0.06948700000000001,0.003629,-0.000949,0.024054,0.007
45,0.142247,-0.485696,-0.12378299999999999,0.125373,0.46682399999999996,-0.875418,-0.019637,0.051348000000000005,0.0037119999999999996,-0.002448,0.022174,0.009023999999999999
46,0.143182,-0.486112,-0.12362100000000001,0.126163,0.467192,-0.875108,-0.015427000000000001,0.041733,0.006958,-0.000262,0.023912,0.011476
47,0.144096,-0.48628299999999997,-0.12334300000000001,0.126951,0.467343,-0.874914,-0.0037450000000000005,0.037401,0.014523,-0.0035840000000000004,0.021671,0.012440999999999999
48,0.144983,-0.486426,-0.12283699999999999,0.127717,0.46746899999999997,-0.874735,-0.011294,0.034172,0.029429000000000004,-0.004457,0.022918,-0.012686
49,0.146811,-0.486912,-0.12155,0.12928299999999998,0.46789899999999995,-0.874275,-0.03898,0.090549,0.074029,-0.008173999999999999,0.026593000000000002,-0.041283
50,0.151396,-0.48793500000000006,-0.118927,0.133218,0.46880200000000005,-0.873199,-0.068454,0.228937,0.123852,0.010001000000000001,0.047784,0.006149
51,0.158887,-0.488382,-0.116159,0.139722,0.46919700000000003,-0.87197,-0.002834,0.329987,0.10495299999999999,0.0024129999999999998,0.038524,0.039404
52,0.163694,-0.48691599999999996,-0.114852,0.144025,0.46790299999999996,-0.871965,0.092489,0.12426,0.054608000000000004,-0.017514,-0.000572,0.052858
53,0.163623,-0.48481,-0.114531,0.144123,0.46603999999999995,-0.8729459999999999,0.104582,-0.058908,0.029289999999999997,-0.013614,-0.00469,0.017766999999999998
54,0.161969,-0.483008,-0.114351,0.142814,0.464445,-0.8740110000000001,0.082086,-0.086497,0.02169,-0.011909000000000001,0.0033740000000000003,-0.000455
55,0.159891,-0.48171800000000004,-0.11425899999999999,0.141092,0.46330200000000005,-0.8748969999999999,0.076623,-0.125851,0.01102,-0.006479,0.023072,0.012928
56,0.156675,-0.480261,-0.114426,0.138383,0.46201000000000003,-0.8760120000000001,0.08498700000000001,-0.168492,0.004739,-3.2e-05,0.021602,0.018483000000000003
57,0.15329500000000001,-0.478818,-0.11454500000000001,0.135523,0.46073100000000006,-0.877132,0.063689,-0.15671300000000002,0.00778,0.000982,0.017556,0.008785
58,0.150498,-0.477904,-0.114462,0.133133,0.45991899999999997,-0.8779239999999999,0.037113,-0.13107,0.011835,0.0033880000000000004,0.017055,-0.006278
59,0.14816700000000002,-0.47761499999999996,-0.11426800000000001,0.131105,0.459663,-0.8783629999999999,0.012656,-0.114997,0.009507,0.003157,0.014091999999999999,-0.020516999999999997
60,0.146602,-0.47769399999999995,-0.114226,0.129725,0.459732,-0.878531,-0.009412,-0.054143,-0.004612,0.005163,0.016937,-0.019387
61,0.146626,-0.478325,-0.114383,0.12970399999999999,0.460293,-0.8782409999999999,-0.034561,0.036536,-0.015586000000000001,0.005611,0.019718,-0.005243
62,0.148086,-0.47921,-0.114594,0.130926,0.461078,-0.877647,-0.042857,0.09195199999999999,-0.013578999999999999,-0.000814,0.027005,-0.019538999999999997
63,0.14999400000000002,-0.48007799999999995,-0.114451,0.13254000000000002,0.461848,-0.877,-0.032298,0.090755,0.009997,-0.001284,0.040014,-0.022261000000000003
64,0.151598,-0.47972600000000004,-0.11405499999999999,0.133971,0.46153599999999995,-0.8769469999999999,0.044305000000000004,0.057408,0.024462,-0.006957,0.056117999999999994,0.014490000000000001
65,0.152276,-0.47789799999999993,-0.113825,0.134694,0.45991400000000004,-0.8776879999999999,0.113407,0.0017760000000000002,0.023948,-0.006794,0.017412,0.062655
66,0.151226,-0.475483,-0.113726,0.133939,0.457768,-0.878925,0.12369200000000001,-0.084543,0.023062,-0.007901,-0.002873,0.03609
67,0.14874300000000001,-0.47334499999999996,-0.113723,0.131901,0.455866,-0.8802209999999999,0.11706,-0.14307999999999998,0.015613,-0.003803,0.015844,0.0023829999999999997
68,0.145215,-0.47109799999999996,-0.11391400000000002,0.128943,0.45386499999999996,-0.881692,0.120122,-0.184594,0.005006,-0.002081,0.011909999999999999,-0.00047999999999999996
69,0.141112,-0.469059,-0.114176,0.125454,0.45204700000000003,-0.883128,0.095488,-0.208997,0.0016600000000000002,-0.004025,0.008433,-0.002065
70,0.136924,-0.46800699999999995,-0.11436099999999999,0.12181900000000001,0.451108,-0.884116,0.045384,-0.205605,-0.004035,-0.002801,0.002612,-0.008537999999999999
71,0.132997,-0.467807,-0.114601,0.11835799999999999,0.45093,-0.884677,-0.0014089999999999999,-0.18196600000000002,-0.014006999999999999,-0.007,0.009962,-0.017682
72,0.129959,-0.468211,-0.115015,0.115646,0.451291,-0.8848520000000001,-0.022421,-0.121125,-0.025981999999999998,-0.004944,0.011156999999999999,-0.01853
73,0.128073,-0.468842,-0.11554400000000001,0.11394100000000001,0.451854,-0.884785,-0.028544,-0.0625,-0.029304000000000004,-0.005939,0.024388,-0.013469
74,0.127638,-0.46961,-0.11595899999999999,0.11351099999999999,0.452539,-0.884491,-0.043163,0.019531,-0.017761000000000002,-0.005083,0.027563999999999998,-0.008957
75,0.128804,-0.470304,-0.116029,0.11450199999999999,0.453157,-0.8840459999999999,-0.022725,0.071598,-0.0027300000000000002,1.4999999999999999e-05,0.039289,0.009198999999999999
76,0.13009300000000001,-0.470314,-0.115997,0.11564200000000001,0.45316599999999996,-0.883893,0.011337999999999999,0.061862,0.004998,0.002675,0.028707,0.025495
77,0.130962,-0.469851,-0.11598499999999999,0.11643699999999998,0.452754,-0.884,0.029339999999999998,0.030910000000000003,0.0040950000000000005,0.003116,0.023122,0.018888
78,0.131223,-0.469297,-0.116033,0.116701,0.452259,-0.8842180000000001,0.029238999999999998,0.0053560000000000005,0.000923,0.002074,0.020229,0.009127
79,0.131091,-0.468876,-0.11608199999999999,0.11660899999999999,0.451884,-0.8844219999999999,0.032378,-0.007442,0.002029,0.000731,0.020742,0.000572
80,0.130663,-0.468329,-0.116175,0.11626199999999999,0.451396,-0.884717,0.031225,-0.029797000000000004,-0.001155,-0.002905,0.016590999999999998,0.0017059999999999998
81,0.129588,-0.467937,-0.11626500000000001,0.11533399999999999,0.451046,-0.885017,0.024665,-0.064928,-0.0011560000000000001,-0.007652,0.019184,0.003517
82,0.12825,-0.46772700000000006,-0.11630499999999999,0.11416199999999999,0.450859,-0.8852639999999999,0.013987000000000001,-0.064899,0.000906,-0.0037799999999999995,0.011131,0.008403
83,0.127251,-0.46766800000000003,-0.116398,0.11328099999999999,0.45080600000000004,-0.8854049999999999,-0.000776,-0.034985,-0.007781000000000001,-0.002502,0.012527,0.007215999999999999
84,0.12683599999999998,-0.468088,-0.1167,0.112889,0.45118100000000005,-0.8852639999999999,-0.027237,-0.000753,-0.020828,-0.0033619999999999995,0.015219,-0.006658
85,0.12722999999999998,-0.469079,-0.11724200000000001,0.11318099999999999,0.45206499999999994,-0.884775,-0.051463,0.055843,-0.033888999999999996,-0.001395,0.019247999999999998,-0.011694
86,0.128715,-0.470425,-0.11791800000000001,0.114417,0.453265,-0.8840020000000001,-0.065079,0.108107,-0.038324000000000004,-0.0016539999999999999,0.0258,-0.008393000000000001
87,0.131088,-0.471958,-0.11859000000000001,0.116423,0.45463100000000006,-0.8830379999999999,-0.071293,0.149674,-0.038421,-0.0015710000000000001,0.025334,-0.0013160000000000001
88,0.134153,-0.47353999999999996,-0.119226,0.11903299999999999,0.45603999999999995,-0.8819629999999999,-0.074364,0.18057,-0.036345,-0.005370000000000001,0.030548000000000002,0.002416
89,0.13781500000000002,-0.475182,-0.11965999999999999,0.12215899999999999,0.4575,-0.8807780000000001,-0.078598,0.198652,-0.025716000000000003,-0.002927,0.026249,0.00265
90,0.14156400000000002,-0.47685,-0.119801,0.125352,0.458983,-0.8795569999999999,-0.080832,0.191143,-0.010767,-0.0054789999999999995,0.019212,0.004146
91,0.14524,-0.478599,-0.119549,0.128468,0.46053599999999995,-0.878295,-0.089525,0.172995,0.006288,-0.01064,0.018056,0.007049
92,0.148815,-0.480473,-0.11890099999999999,0.13147899999999998,0.46219799999999994,-0.876975,-0.092831,0.16442400000000001,0.021231,-0.009103,0.022588999999999998,0.005012
93,0.15223599999999998,-0.48221,-0.11803699999999999,0.134356,0.463739,-0.875725,-0.085488,0.147311,0.031986,-0.014987,0.028968,-0.002983
94,0.15554500000000002,-0.48361000000000004,-0.11686700000000001,0.137153,0.46497799999999995,-0.874634,-0.06640399999999999,0.138649,0.050289999999999994,-0.01496,0.027895999999999997,0.001465
95,0.15873199999999998,-0.484813,-0.115351,0.139851,0.46604300000000004,-0.8736389999999999,-0.069729,0.12475699999999999,0.064172,-0.004872,0.017233000000000002,0.0033539999999999998
96,0.16164800000000001,-0.485991,-0.113657,0.14231,0.46708500000000003,-0.872685,-0.067744,0.090665,0.063161,-0.006887999999999999,0.027422000000000002,0.007222
97,0.16354000000000002,-0.486833,-0.11213499999999998,0.143896,0.467829,-0.872026,-0.035906,0.046903,0.05703,0.0034729999999999995,0.025625,0.020677
98,0.164373,-0.487158,-0.111007,0.144598,0.468116,-0.871756,-0.01257,0.007445,0.04763,0.002039,0.022149000000000002,0.017141999999999998
99,0.16508399999999998,-0.487208,-0.10997799999999999,0.145214,0.468161,-0.8716299999999999,-0.008235,0.015977,0.04124,0.008289,0.026712,0.016558
100,0.16583900000000001,-0.48736499999999994,-0.109333,0.14586,0.4683,-0.871447,-0.009153,0.030967,0.023053999999999998,0.002593,0.023566999999999998,0.01575
101,0.166958,-0.487695,-0.10894100000000001,0.146809,0.468591,-0.871131,-0.015396,0.058716,0.015498,-0.0022170000000000002,0.022330000000000003,-0.001702
102,0.169032,-0.48818,-0.108325,0.148577,0.46902,-0.8706010000000001,-0.029102,0.106655,0.027091000000000004,-0.0036340000000000005,0.026891,-0.002385
103,0.171379,-0.48881899999999995,-0.10776300000000001,0.150569,0.469583,-0.8699540000000001,-0.034394,0.10140700000000001,0.012105,0.001408,0.015921,-0.000956
104,0.17390999999999998,-0.489634,-0.10743599999999999,0.152704,0.47030299999999997,-0.869193,-0.041718,0.12596400000000002,0.004545,-0.0008939999999999999,0.018299,0.007697
105,0.176154,-0.49038100000000007,-0.107366,0.154592,0.470962,-0.868502,-0.025806,0.093997,-0.007053,-0.003561,0.012986000000000001,0.022509
106,0.176948,-0.49099899999999996,-0.10765599999999999,0.155231,0.47150699999999995,-0.868092,-0.031366000000000005,0.032277,-0.018763,-0.025837,-0.0041,0.016149
107,0.17704,-0.49213900000000005,-0.10772899999999999,0.15521600000000002,0.472512,-0.867549,-0.060351,-0.012419,-0.014649,-0.019367,0.029655,0.014521000000000001
108,0.177015,-0.493486,-0.10766600000000001,0.155082,0.473699,-0.866925,-0.06867999999999999,0.048272,0.000171,-0.001838,0.047938,-0.014773
109,0.179321,-0.494651,-0.107259,0.15698199999999998,0.474724,-0.866022,-0.055642,0.114218,0.014063999999999998,-0.011595999999999999,0.037344999999999996,-0.006568000000000001
110,0.181265,-0.495725,-0.106709,0.158573,0.47567,-0.8652120000000001,-0.056877,0.077998,0.01517,-0.011112,0.006218,0.0020989999999999997
111,0.182515,-0.496997,-0.10628,0.159545,0.476788,-0.864418,-0.077301,0.034432,0.005469,-0.042678,-0.001523,-0.013924
112,0.183083,-0.498963,-0.10603599999999999,0.159865,0.478516,-0.8634040000000001,-0.094328,0.02392,-0.014933000000000002,-0.039137,0.028350999999999998,0.0008699999999999999
113,0.184005,-0.5008199999999999,-0.106254,0.160498,0.480145,-0.862381,-0.080195,0.071851,-0.025577000000000003,-0.036292000000000005,0.023609,0.01149
114,0.185388,-0.5017520000000001,-0.106564,0.161608,0.480962,-0.861718,-0.020465,0.080117,-0.01342,-0.023500999999999998,0.030497000000000003,0.000436
115,0.187171,-0.501819,-0.106921,0.163138,0.481021,-0.861397,0.011723,0.11624100000000001,-0.017515,-9.8e-05,0.028926999999999998,0.0046
116,0.18881900000000001,-0.500969,-0.10816300000000001,0.164634,0.480275,-0.8615280000000001,0.070521,0.110838,-0.049144,0.016061000000000002,0.030558,0.020967
117,0.189407,-0.49957700000000005,-0.109575,0.165266,0.479054,-0.862087,0.096837,0.045708,-0.03499,0.01494,0.022594,0.031704
118,0.189431,-0.497828,-0.11054100000000001,0.165445,0.47751800000000005,-0.8629040000000001,0.106276,0.039164,-0.005005,0.021124,0.037176,-0.011806
119,0.19075899999999998,-0.49563199999999996,-0.1105,0.16678900000000002,0.475588,-0.863711,0.11803599999999999,0.080523,0.031344,0.021672,0.050519999999999995,-0.010037
120,0.19242599999999999,-0.492386,-0.11031400000000001,0.168523,0.47273000000000004,-0.864943,0.176555,0.056835000000000004,0.043532999999999995,0.03155,0.038805,-0.0041979999999999995
121,0.193128,-0.48918199999999995,-0.109574,0.16942000000000002,0.469904,-0.8663059999999999,0.147275,-0.016694999999999998,0.07547000000000001,0.029051,-0.003214,0.00014099999999999998
122,0.193299,-0.48629300000000003,-0.107805,0.169827,0.46735200000000005,-0.867606,0.12878399999999998,-0.05196,0.119183,0.014650999999999999,-0.024633000000000002,-0.0113
123,0.1925,-0.48356099999999996,-0.105399,0.169378,0.46493500000000004,-0.868991,0.11665,-0.12548199999999998,0.13414700000000002,0.028086,-0.007461,-0.006772
124,0.18977,-0.480914,-0.10246,0.167237,0.46258999999999995,-0.870656,0.107281,-0.283222,0.16205799999999998,0.051467,0.012142,0.006337
125,0.185119,-0.47821,-0.09905900000000001,0.163415,0.46019099999999996,-0.8726510000000001,0.113419,-0.33759,0.166443,0.024115,0.022887,-0.0019370000000000001
126,0.17887,-0.475546,-0.096096,0.158176,0.45782399999999995,-0.874858,0.095052,-0.40775700000000004,0.147177,0.026668999999999998,-0.008148,0.0009570000000000001
127,0.17155399999999998,-0.47384799999999994,-0.092865,0.15190399999999998,0.456313,-0.876757,0.043593,-0.46615500000000004,0.14368699999999998,0.005536,-0.020797,0.0017870000000000002
128,0.165357,-0.47343199999999996,-0.089615,0.146499,0.45594399999999996,-0.877868,-0.025172999999999997,-0.35186999999999996,0.128106,-0.036529,0.033543,0.007568000000000001
129,0.16058,-0.473559,-0.087129,0.142295,0.456056,-0.878501,-0.012967,-0.27828400000000003,0.097118,-0.021353999999999998,0.040952999999999996,0.009452
130,0.157345,-0.47301800000000005,-0.085298,0.139491,0.455575,-0.8792,0.033536,-0.17603,0.059924,-0.011744,0.055029999999999996,0.002583
131,0.15654200000000001,-0.47233400000000003,-0.08367000000000001,0.13883299999999998,0.454966,-0.8796200000000001,0.007324,-0.058816999999999994,0.074546,-0.006829000000000001,-0.042033,-0.00098
132,0.157563,-0.472678,-0.08076,0.139706,0.455272,-0.879323,-0.067399,0.008249,0.15085,-0.007703,-0.042339,-0.001277
133,0.16059600000000002,-0.47451899999999997,-0.076872,0.142239,0.45691000000000004,-0.878066,-0.13103199999999998,0.107482,0.165233,-0.01875,0.041030000000000004,0.012556999999999999
134,0.164688,-0.476988,-0.072761,0.145646,0.459106,-0.8763610000000001,-0.14269600000000002,0.113953,0.15553,-0.022904,0.04799,0.010806
135,0.16758399999999998,-0.478687,-0.069607,0.148052,0.460614,-0.875165,-0.080899,0.04576,0.105842,-0.016552,0.049868,0.017315999999999998
136,0.168595,-0.47946099999999997,-0.06786,0.148877,0.461301,-0.874663,-0.05520800000000001,0.006490000000000001,0.04732,-0.013517,0.010149,0.021987
137,0.16987,-0.480746,-0.066545,0.149891,0.462441,-0.8738879999999999,-0.07943,0.068396,0.038526,-0.051396000000000004,0.074119,0.027833999999999998
138,0.172591,-0.482638,-0.066036,0.152119,0.46411800000000003,-0.872613,-0.102258,0.177271,0.004044,-0.02605,0.088769,0.048791
139,0.177599,-0.485334,-0.06547,0.15626500000000002,0.466504,-0.870606,-0.127436,0.268986,0.000545,-0.018997,0.067843,0.059753999999999995
140,0.18271800000000002,-0.48742700000000005,-0.06490800000000001,0.16054200000000002,0.468354,-0.8688319999999999,-0.091499,0.210206,0.016895,0.003505,0.040892000000000005,0.033276
141,0.18545,-0.48872299999999996,-0.064131,0.162803,0.469499,-0.867793,-0.049451999999999996,0.086422,0.033371,0.021096,0.043593,-0.010915000000000001
142,0.186123,-0.48924399999999996,-0.06336699999999999,0.16334200000000001,0.469959,-0.8674430000000001,0.0013210000000000001,-0.017062,0.027449,0.009174,0.029095,0.002728
143,0.18476900000000002,-0.48845900000000003,-0.06348999999999999,0.162234,0.469265,-0.8680260000000001,0.085483,-0.076879,-0.005002,0.008206,0.018161,0.030044
144,0.183159,-0.48674300000000004,-0.063999,0.160983,0.46775,-0.869077,0.091961,-0.054551999999999996,0.000356,0.015775,0.015206,0.032437
145,0.18315599999999999,-0.48528999999999994,-0.06400399999999999,0.161105,0.46646499999999996,-0.8697440000000001,0.060195000000000005,0.018982,0.020336,0.015561000000000002,-0.006855,-5.3e-05
146,0.18462699999999999,-0.485047,-0.06322,0.162404,0.46625,-0.869618,-0.0229,0.06287999999999999,0.036791000000000004,0.012202,0.023496,-0.011928
147,0.185815,-0.485597,-0.062661,0.16339,0.466736,-0.869172,-0.020839,0.014003,0.0037530000000000003,0.040269,-0.09643600000000001,0.001695
148,0.186338,-0.48555,-0.064739,0.163849,0.46669499999999997,-0.869108,0.081822,0.127278,-0.174068,0.015381,-0.09435,0.020567
149,0.185,-0.48368500000000003,-0.069611,0.162846,0.46504399999999996,-0.870181,0.079657,-0.095444,-0.15243299999999999,-0.025455000000000002,0.113523,4.8e-05
150,0.182016,-0.48334499999999997,-0.071524,0.160276,0.464743,-0.870818,0.048263,-0.073459,-0.028767,-0.020826,0.032189999999999996,0.017455000000000002
151,0.181892,-0.481566,-0.070969,0.16031800000000002,0.463168,-0.87165,0.087492,-0.023947,0.076129,-0.032402999999999994,-0.050189,0.025443
152,0.182793,-0.47906899999999997,-0.068814,0.161313,0.460953,-0.87264,0.11623499999999999,0.017276,0.131825,-0.020916999999999998,0.037537,-0.001857
153,0.1845,-0.47636999999999996,-0.06796100000000001,0.16303,0.458556,-0.873583,0.14163599999999998,0.078434,0.000533,-0.021138,0.025773,0.010439
154,0.185406,-0.47347700000000004,-0.070367,0.16406500000000002,0.45598299999999997,-0.874735,0.19035,0.124516,-0.11028099999999999,-0.011004,-0.073018,0.0068909999999999996
155,0.18576199999999998,-0.469779,-0.074434,0.164687,0.452689,-0.8763280000000001,0.190402,0.082123,-0.164706,-0.013671,0.071573,-0.0195
156,0.183884,-0.46817200000000003,-0.07845099999999999,0.163174,0.45125600000000005,-0.8773489999999999,0.065985,-0.045353,-0.14618399999999998,-0.0053219999999999995,0.10561400000000001,-0.02002
157,0.181561,-0.46838900000000006,-0.08084,0.161118,0.45145,-0.8776299999999999,-0.01018,-0.063496,-0.071917,0.011001,0.045422000000000004,-0.028239
158,0.17931,-0.46951899999999996,-0.081469,0.15905,0.452457,-0.8774879999999999,-0.077714,-0.098622,-0.027495,0.017356,-0.018009,-0.0242
159,0.177492,-0.47118000000000004,-0.08177000000000001,0.157322,0.453938,-0.877034,-0.079689,-0.071949,-0.036088999999999996,0.028118,0.053065999999999995,0.0055130000000000005
160,0.175585,-0.47279099999999996,-0.082501,0.155521,0.45537299999999997,-0.8766120000000001,-0.061624,-0.09754,-0.045544,-0.002949,0.06365499999999999,0.033089999999999994
161,0.173033,-0.47401099999999996,-0.083138,0.15318800000000002,0.456459,-0.876458,-0.031901,-0.12218,-0.036759,-0.014028,0.034493,0.0021899999999999997
162,0.17005699999999999,-0.474394,-0.08356,0.150549,0.4568,-0.8767370000000001,-0.015056,-0.15427000000000002,-0.018441,-0.005423,0.014865,0.0034
163,0.1672,-0.474788,-0.083701,0.148014,0.45715,-0.876986,-0.027787,-0.138246,-0.01855,-0.017063,-0.040478,-0.0024230000000000002
164,0.16506600000000002,-0.47632700000000006,-0.08370599999999999,0.146026,0.45851800000000004,-0.876605,-0.073542,-0.11463699999999999,-0.022105,-0.006942,0.10283699999999998,0.015552000000000002
165,0.162714,-0.477742,-0.084062,0.143859,0.459775,-0.8763049999999999,-0.043617,-0.103024,-0.021911,-0.005721,0.116122,0.017113
166,0.160893,-0.478071,-0.084215,0.142238,0.46006800000000003,-0.876416,-0.000924,-0.077692,-0.00028,-0.02206,0.11482200000000001,0.018384
167,0.159334,-0.477704,-0.08392899999999999,0.140899,0.459742,-0.8768040000000001,0.020265000000000002,-0.08426499999999999,0.026581999999999998,-0.024597,0.105307,0.018680000000000002
168,0.158371,-0.47719799999999996,-0.08319,0.140092,0.45929200000000003,-0.8771690000000001,0.027848,-0.045992,0.039404,-0.019622999999999998,0.09586900000000001,0.016527
169,0.15839,-0.476446,-0.082544,0.140163,0.458624,-0.8775059999999999,0.060078999999999994,-0.003464,0.032097,-0.003535,0.106897,0.010334000000000001
170,0.15857100000000002,-0.47494,-0.082438,0.14043,0.45728500000000005,-0.8781620000000001,0.08478,0.009327,0.008753,-0.007678,0.10791500000000001,0.004658
171,0.158216,-0.474055,-0.08242000000000001,0.140182,0.45649799999999996,-0.878611,0.028016000000000003,-0.026744999999999998,0.021221,-0.014846000000000002,0.10801600000000001,-0.002782
172,0.158453,-0.474409,-0.08101799999999999,0.14036400000000002,0.456813,-0.8784190000000001,-0.053257000000000006,-0.00329,0.086853,-0.004485,-0.008159,0.000596
173,0.160741,-0.47629,-0.078183,0.142236,0.45848500000000003,-0.8772459999999999,-0.136209,0.086359,0.11713699999999999,0.004431,-0.056248,0.009448
174,0.164638,-0.479033,-0.075324,0.145447,0.460921,-0.875441,-0.160406,0.135554,0.0902,0.0043490000000000004,-0.058562,0.016919999999999998
175,0.167955,-0.48194799999999993,-0.07321799999999999,0.148125,0.46350699999999995,-0.873625,-0.119861,0.10783,0.061676,0.018409000000000002,-0.079046,0.060163
176,0.171105,-0.48166499999999995,-0.072297,0.150899,0.46325500000000003,-0.873283,0.119433,0.14441199999999998,0.030186,-0.002385,-0.04402,0.010612
177,0.17165,-0.480739,-0.072351,0.151448,0.462434,-0.8736229999999999,0.007086,0.036291000000000004,-0.00678,0.005672,-0.013719,0.001843
178,0.172165,-0.480677,-0.07270800000000001,0.151903,0.46238,-0.8735729999999999,-0.00674,0.032133999999999996,-0.020758000000000002,0.011534,0.040336000000000004,-0.006798
179,0.172958,-0.480896,-0.073188,0.152578,0.462574,-0.873352,-0.017255,0.060953999999999994,-0.026208999999999996,0.007991,0.026241000000000004,0.007187000000000001
180,0.17434000000000002,-0.48163100000000003,-0.073661,0.153725,0.463225,-0.872806,-0.03953,0.085551,-0.030669,0.0044009999999999995,0.014588999999999998,0.015231
181,0.175275,-0.482516,-0.07446599999999999,0.15447,0.464009,-0.872258,-0.037433999999999995,0.05474,-0.053048000000000005,0.0049689999999999995,0.02386,0.014866999999999998
182,0.17544500000000002,-0.483318,-0.075744,0.154553,0.46471899999999994,-0.871865,-0.020432,0.025974,-0.06677899999999999,-0.008603,0.0441,0.003014
183,0.17555,-0.484084,-0.076874,0.154583,0.465398,-0.871498,-0.027929000000000002,0.039767000000000004,-0.046553,-0.011791,0.055614,0.001381
184,0.175905,-0.48437700000000006,-0.077774,0.154868,0.465657,-0.871309,0.016774,0.021480000000000003,-0.040875999999999996,-0.019126,0.00436,0.028000999999999998
185,0.175359,-0.483634,-0.07850800000000001,0.154453,0.464999,-0.871733,0.06017,-0.025664,-0.010602,-0.036899,0.042584,0.013366
186,0.175572,-0.482914,-0.078029,0.154697,0.464362,-0.87203,-0.015486000000000002,0.05425700000000001,0.048587,-0.004657,0.09855,-0.027888
187,0.17765,-0.483004,-0.077193,0.156501,0.464441,-0.8716659999999999,-0.013132,0.083093,0.02827,-0.012733,0.027989999999999998,0.013831999999999999
188,0.17902300000000002,-0.482932,-0.07689800000000001,0.15770399999999998,0.46437799999999996,-0.871483,0.014569,0.055376,0.009271,-0.016728,0.031945,0.01487
189,0.18008,-0.48242700000000005,-0.07687999999999999,0.158667,0.46393100000000004,-0.8715459999999999,0.026338,0.059608,0.006143,-0.012198,0.025602,0.009852
190,0.181101,-0.48216099999999995,-0.076849,0.159579,0.46369499999999997,-0.871505,0.015625999999999998,0.051119,0.007148000000000001,0.0055060000000000005,0.022115,0.000808
191,0.182193,-0.48203999999999997,-0.076954,0.16054100000000002,0.463588,-0.8713860000000001,0.0072299999999999994,0.06931,-0.005753,0.016705,0.019811000000000002,0.004229
192,0.183563,-0.482088,-0.077227,0.16172999999999998,0.463631,-0.871143,0.0019579999999999997,0.077872,-0.011142,0.013364,0.020256,0.010516
193,0.184781,-0.48237700000000006,-0.077457,0.162767,0.463887,-0.870813,-0.016241,0.066209,-0.009118000000000001,0.010115,0.012752,0.013590000000000001
194,0.185799,-0.482864,-0.077704,0.16361199999999998,0.464318,-0.870425,-0.018408,0.048149000000000004,-0.019791999999999997,0.015191,0.016868,0.02016
195,0.185898,-0.483167,-0.078287,0.163672,0.46458599999999994,-0.8702709999999999,-0.005769,-0.004029,-0.035660000000000004,0.022119,0.025481,0.017013999999999998
196,0.18529600000000002,-0.483337,-0.07902,0.163133,0.464736,-0.870292,0.010176000000000001,-0.016868,-0.035532,0.012648999999999999,0.045624,0.030402
197,0.183779,-0.48285900000000004,-0.07990599999999999,0.161853,0.46431400000000006,-0.870756,0.050386,-0.093696,-0.038357,-0.02016,0.025509,0.007809999999999999
198,0.180832,-0.48184799999999994,-0.08087799999999999,0.15937,0.463417,-0.871691,0.050123,-0.14061500000000002,-0.026549,-0.034477,0.015739,-0.011274
199,0.178958,-0.481633,-0.080829,0.157754,0.46322700000000006,-0.872086,-0.004177,-0.067118,0.022116,-0.068704,0.035200999999999996,-0.016891
200,0.179058,-0.481882,-0.079575,0.15782100000000002,0.46344799999999997,-0.871957,-0.008425,-0.023584,0.061555,-0.06018,0.042198,0.010583
201,0.17886300000000002,-0.48153100000000004,-0.078377,0.15768,0.46313699999999997,-0.8721469999999999,0.028843,-0.053487,0.047967,-0.050365,0.03639,0.017579
202,0.177301,-0.48026599999999997,-0.077889,0.156421,0.46201499999999995,-0.8729690000000001,0.07566,-0.10044600000000001,0.029126,-0.031329,0.033194,0.011809
203,0.17481300000000002,-0.478468,-0.077811,0.154392,0.46042,-0.874172,0.099093,-0.106928,0.031434,-0.000523,0.026549,0.014415
204,0.172725,-0.47643900000000006,-0.077544,0.152727,0.458617,-0.875411,0.099098,-0.10374100000000001,0.033567,0.009306,0.027757,0.011077
205,0.170623,-0.474603,-0.077331,0.151029,0.45698599999999995,-0.876558,0.091668,-0.098376,0.030302999999999997,0.022265,0.03508,0.0056170000000000005
206,0.16854,-0.472987,-0.077249,0.149327,0.45554700000000004,-0.877598,0.085324,-0.102546,0.013172999999999999,0.036494,0.034763999999999996,0.018055
207,0.166379,-0.471314,-0.077377,0.147556,0.454057,-0.878669,0.09489700000000001,-0.114276,0.007913,0.023052,0.029875,0.028541000000000004
208,0.163804,-0.469263,-0.077471,0.14544400000000002,0.452229,-0.8799629999999999,0.11821,-0.146329,0.011322,-0.009321,0.015804,0.009295999999999999
209,0.160343,-0.466893,-0.07750399999999999,0.142569,0.450114,-0.881516,0.115874,-0.19432,0.0167,-0.013066999999999999,0.019048,0.0014349999999999999
210,0.156924,-0.46491099999999996,-0.077257,0.139693,0.44834300000000005,-0.882878,0.091427,-0.163385,0.027172,-0.011138,0.023871,-0.001918
211,0.154888,-0.463501,-0.076682,0.137993,0.447083,-0.883784,0.068148,-0.114326,0.033356,-0.018196,0.027587999999999998,-0.002904
212,0.153055,-0.46219499999999997,-0.076206,0.136461,0.44591400000000003,-0.8846120000000001,0.062862,-0.10683800000000002,0.030105,-0.015322,0.012811000000000001,1.4000000000000001e-05
213,0.150974,-0.46111499999999994,-0.075824,0.134693,0.44494700000000004,-0.8853700000000001,0.04473,-0.114197,0.021442,-0.008014,0.010237999999999999,0.002679
214,0.14865799999999998,-0.460607,-0.075795,0.132675,0.444492,-0.8859030000000001,0.020293000000000002,-0.11296099999999999,-9.499999999999999e-05,-0.004196,0.025294999999999998,0.008492
215,0.146227,-0.46044700000000005,-0.076162,0.13053199999999998,0.44434799999999997,-0.886293,0.011844,-0.113915,-0.020449000000000002,-0.006478,0.029939999999999998,0.010393000000000001
216,0.143439,-0.46018400000000004,-0.076764,0.128077,0.44411300000000004,-0.886769,0.023517,-0.132049,-0.024617,-0.004588,0.030435000000000004,0.008672
217,0.140677,-0.459711,-0.077309,0.125657,0.44368900000000006,-0.8873270000000001,0.031004000000000004,-0.119326,-0.016036,-0.008865999999999999,0.035177,0.009611
218,0.138406,-0.459208,-0.07761699999999999,0.123672,0.443238,-0.8878309999999999,0.027847000000000004,-0.099117,-0.0054009999999999996,-0.011595999999999999,0.044692,0.00859
219,0.136674,-0.45872700000000005,-0.077613,0.12216300000000001,0.44280699999999995,-0.8882549999999999,0.022513,-0.083183,0.010564,-0.011384,0.042361,0.007442
220,0.13561199999999998,-0.45816,-0.077625,0.121254,0.442299,-0.888633,0.037674,-0.039534,0.0042049999999999995,0.0012439999999999999,0.040596,0.010749
221,0.134925,-0.45743999999999996,-0.077667,0.12068599999999999,0.44165299999999996,-0.8890319999999999,0.04198,-0.032088,0.003157,0.000575,0.030805000000000003,0.014978
222,0.134138,-0.456683,-0.077706,0.120031,0.44097299999999995,-0.889458,0.037693,-0.036334,0.003133,-0.001882,0.027578,0.01403
223,0.132997,-0.45624499999999996,-0.077538,0.11904200000000001,0.44058,-0.889785,0.026905000000000002,-0.06080700000000001,0.005225,-0.0084,0.026766,0.002258
224,0.132551,-0.455917,-0.077579,0.118664,0.44028500000000004,-0.8899819999999999,0.016447,-0.019203,-0.000242,-0.0060079999999999995,0.030936,0.004484
225,0.132266,-0.455671,-0.077675,0.118425,0.440065,-0.890123,0.016519,-0.008529,-0.005596,-0.004289,0.028075,0.007065999999999999
226,0.132063,-0.45549399999999995,-0.077959,0.118254,0.439906,-0.890224,0.016596,0.0010890000000000001,-0.013086000000000002,-0.00511,0.027867000000000003,0.00735
227,0.132018,-0.455284,-0.07835299999999999,0.118226,0.439717,-0.8903209999999999,0.01239,0.010708,-0.0174,-0.002443,0.028071,0.005601
228,0.132143,-0.45526400000000006,-0.078752,0.11833900000000001,0.4397,-0.8903139999999999,0.000669,0.017128,-0.014286000000000002,-0.004218,0.026761,0.0051979999999999995
229,0.13238699999999998,-0.455528,-0.078875,0.11854,0.43993699999999997,-0.8901709999999999,-0.011152,0.011787,-0.000475,0.005834000000000001,0.023183000000000002,0.00156
230,0.13308599999999998,-0.45585699999999996,-0.079161,0.119144,0.44023199999999996,-0.8899440000000001,-0.014133000000000001,0.048068,-0.013361000000000001,-0.002078,0.029785000000000002,0.008565999999999999
231,0.133928,-0.456243,-0.079438,0.11987,0.440579,-0.889675,-0.015175,0.052337,-0.014441999999999998,0.0008119999999999999,0.031238,0.012325
232,0.134889,-0.456676,-0.079713,0.120699,0.440967,-0.8893700000000001,-0.016233,0.054472,-0.014452000000000001,-0.006365,0.032162,0.00903
233,0.13577899999999998,-0.45712600000000003,-0.079949,0.12146400000000002,0.441371,-0.889066,-0.017338,0.050197000000000006,-0.010181,-0.010273000000000001,0.028767,0.005032
234,0.136755,-0.457559,-0.080037,0.122306,0.44176000000000004,-0.888757,-0.018424,0.053367,-0.002715,-0.009284,0.030973,0.010217
235,0.13783099999999998,-0.457988,-0.079997,0.12323599999999998,0.442144,-0.888437,-0.018438,0.05229299999999999,-0.0005769999999999999,-0.010611,0.032587,0.012491
236,0.138783,-0.458426,-0.079983,0.124055,0.442537,-0.888128,-0.017391,0.045906,-0.002698,-0.007051000000000001,0.033674,0.011968000000000001
237,0.13963299999999998,-0.45879,-0.080026,0.124787,0.44286400000000004,-0.887862,-0.013118000000000001,0.046957,-0.00267,-0.009736,0.031379000000000004,0.010375
238,0.140556,-0.45911899999999994,-0.080044,0.125586,0.443159,-0.887603,-0.014185,0.049082,-0.000544,-0.010886,0.030978,0.008818000000000001
239,0.141511,-0.459483,-0.079985,0.126411,0.443485,-0.887323,-0.015267,0.049073,0.002653,-0.008567,0.033505,0.008523000000000001
240,0.142486,-0.45986400000000005,-0.07990599999999999,0.127252,0.443826,-0.8870319999999999,-0.014195,0.049074,0.001593,-0.006097,0.034323,0.013222
241,0.143425,-0.46013999999999994,-0.07990599999999999,0.12806800000000002,0.44407399999999997,-0.88679,-0.008856000000000001,0.047999,-0.000505,-0.006257,0.033145,0.011211
242,0.144243,-0.460355,-0.079861,0.128779,0.444266,-0.886591,-0.00678,0.039452,0.003793,-0.0063880000000000004,0.031304000000000005,0.008539
243,0.145127,-0.46057,-0.079705,0.129548,0.444459,-0.886382,-0.011033,0.047968000000000004,0.009094,-0.001924,0.036041000000000004,0.006164
244,0.146224,-0.460843,-0.079523,0.130503,0.44470299999999996,-0.8861190000000001,-0.007837,0.04583,0.008051,-0.006144,0.035445,0.008175
245,0.146761,-0.460967,-0.079419,0.130971,0.44481499999999996,-0.8859950000000001,0.0005780000000000001,0.014925,0.0038759999999999997,-0.005391,0.029519999999999998,0.016839
246,0.146764,-0.460867,-0.079419,0.13097999999999999,0.444725,-0.8860379999999999,0.009036,-0.006393,-0.00031,-0.006148,0.030846,0.014943999999999999
247,0.14648599999999998,-0.46065900000000004,-0.07943,0.130748,0.444538,-0.886166,0.018581,-0.016027,0.002973,-0.010981,0.038372,0.013119
248,0.146053,-0.46033500000000005,-0.07940499999999999,0.130384,0.444248,-0.886365,0.023867,-0.023515,0.006224,-0.005888,0.033031,0.01286
249,0.145618,-0.459844,-0.079389,0.130031,0.443808,-0.8866379999999999,0.02603,-0.019253,0.004098,-0.004832,0.032174,0.01208
250,0.1453,-0.459421,-0.079351,0.129776,0.443429,-0.886865,0.024982,-0.013927000000000002,0.005152,-0.006606999999999999,0.030387,0.009622
251,0.145029,-0.459089,-0.079355,0.129557,0.44313199999999997,-0.8870450000000001,0.021796,-0.011781,0.004059,-0.006113,0.02864,0.004752
252,0.14482899999999999,-0.458746,-0.07936599999999999,0.129402,0.442825,-0.8872209999999999,0.016495,-0.006428,0.0018780000000000001,-0.006599,0.029206,0.006362
253,0.144858,-0.458646,-0.079376,0.129433,0.442734,-0.8872620000000001,0.004831,0.00747,-0.00035800000000000003,-0.0038079999999999998,0.023879,0.005014
254,0.145077,-0.458815,-0.079421,0.129617,0.44288599999999995,-0.887159,-0.006861,0.014976,-0.002585,-0.005594,0.030106,0.009198999999999999
255,0.14538199999999998,-0.459024,-0.079476,0.129875,0.44307299999999994,-0.887028,-0.007904000000000001,0.018184,-0.004733,-0.007529999999999999,0.033749,0.010533
256,0.145709,-0.459262,-0.079565,0.13014900000000001,0.443287,-0.8868809999999999,-0.010023,0.021388,-0.004752,-0.005881,0.032376,0.009119
257,0.146137,-0.45960500000000004,-0.079636,0.13050699999999998,0.44359399999999993,-0.886675,-0.012143000000000001,0.024591,-0.004771,-0.007902,0.035501,0.009066
258,0.146643,-0.459846,-0.07963300000000001,0.130939,0.44381000000000004,-0.886503,-0.011095,0.025631,0.000576,-0.007267,0.033317,0.009382
259,0.147155,-0.460117,-0.079538,0.131375,0.444053,-0.886317,-0.00899,0.022415,0.0038,-0.007534999999999999,0.033608,0.01324
260,0.147607,-0.460319,-0.079443,0.13176300000000002,0.444233,-0.8861690000000001,-0.005789,0.023465,0.004889,-0.004139,0.036067,0.011595999999999999
261,0.14818199999999998,-0.46047899999999997,-0.079336,0.132262,0.444377,-0.886022,-0.005731,0.028763,0.004869,-0.002792,0.035924,0.008764
262,0.14884,-0.460596,-0.07922699999999999,0.13283699999999998,0.444482,-0.885884,-0.00038700000000000003,0.031936,0.0059700000000000005,-0.00625,0.036414,0.010212
263,0.14937899999999998,-0.460603,-0.079084,0.13331400000000002,0.444489,-0.8858090000000001,0.0038280000000000002,0.020203,0.0060149999999999995,-0.009656999999999999,0.036056,0.014379
264,0.149607,-0.460492,-0.078922,0.133524,0.44438900000000003,-0.885827,0.0112,0.000993,0.008227,-0.011362,0.035591000000000005,0.010675
265,0.149545,-0.46028500000000006,-0.078794,0.133482,0.44420299999999996,-0.885927,0.016496,-0.008608,0.007208,-0.008237999999999999,0.034572000000000006,0.01201
266,0.149357,-0.45992299999999997,-0.078671,0.13334000000000001,0.443879,-0.8861100000000001,0.020738999999999997,-0.01395,0.007245000000000001,-0.007684000000000001,0.033828,0.012438
267,0.149007,-0.459553,-0.07854900000000001,0.133054,0.443547,-0.8863190000000001,0.024959000000000002,-0.022494999999999998,0.009422,-0.006222999999999999,0.031947,0.013761
268,0.148471,-0.45908999999999994,-0.078473,0.132609,0.44313199999999997,-0.8865940000000001,0.02814,-0.028888999999999998,0.007316,-0.005961,0.03311,0.011075
269,0.147783,-0.45852299999999996,-0.078439,0.132036,0.44262399999999996,-0.886933,0.033446,-0.036361000000000004,0.006294,-0.006304,0.034625,0.010163
270,0.147014,-0.45793999999999996,-0.0784,0.131392,0.442101,-0.8872899999999999,0.032364,-0.040614,0.005224,-0.003936,0.034065,0.012503
271,0.14616700000000002,-0.45736899999999997,-0.07839,0.130677,0.441589,-0.88765,0.030231,-0.041667,0.004142,-0.007035,0.032273,0.009293000000000001
272,0.145445,-0.456863,-0.078422,0.13006800000000002,0.44113500000000005,-0.887965,0.029217,-0.032068,0.001986,-0.006289,0.032162,0.009349
273,0.144831,-0.45643500000000004,-0.078474,0.129551,0.440751,-0.888232,0.02283,-0.029910000000000003,0.0008710000000000001,-0.004123,0.034484,0.011492
274,0.144276,-0.4561,-0.078534,0.129079,0.44045,-0.8884489999999999,0.021796,-0.024572,-0.00128,-0.005071,0.030772000000000004,0.013083000000000001
275,0.14368399999999998,-0.45582700000000004,-0.078658,0.12857000000000002,0.440205,-0.888645,0.014328,-0.027729000000000004,-0.004533,-0.005065,0.03329,0.004871
276,0.143023,-0.455665,-0.078814,0.127993,0.44005900000000003,-0.8888,0.012204000000000001,-0.027712999999999998,-0.006684000000000001,-0.003176,0.034367,0.006629
277,0.14263800000000001,-0.45553,-0.078974,0.127659,0.439938,-0.888908,0.010152,-0.007474,-0.004588,-0.005497,0.039874,0.013084
278,0.142451,-0.455379,-0.079057,0.127502,0.439803,-0.888998,0.011184999999999999,-0.01069,-0.000304,-0.011871,0.039598,0.014227000000000002
279,0.142205,-0.4552,-0.07900900000000001,0.127295,0.43964200000000003,-0.889107,0.011147,-0.013908000000000002,0.0050409999999999995,-0.014929,0.037088,0.014488
280,0.142047,-0.454925,-0.078848,0.127171,0.439395,-0.8892469999999999,0.019677,-0.009698,0.010437,-0.018330000000000003,0.035993,0.013758000000000001
281,0.142003,-0.45442200000000005,-0.078665,0.127163,0.438943,-0.8894709999999999,0.032494,-0.004425,0.012656,-0.017238999999999997,0.030019999999999998,0.012716
282,0.141966,-0.453824,-0.078468,0.127167,0.438406,-0.889735,0.034618,-0.0033799999999999998,0.015874,-0.017899,0.026804,0.006389
283,0.142049,-0.453293,-0.078202,0.127274,0.437928,-0.8899549999999999,0.023969,0.003041,0.017928,-0.008607,0.028457,0.004121
284,0.142102,-0.453007,-0.077966,0.127339,0.437671,-0.890072,0.017572,-0.0011769999999999999,0.012548,0.004756,0.031902999999999994,0.007977
285,0.141948,-0.452733,-0.077875,0.127219,0.437425,-0.8902110000000001,0.0133,-0.011776,0.0029170000000000003,0.008279,0.033553,0.011503
286,0.141505,-0.452628,-0.07798200000000001,0.126832,0.43733,-0.8903120000000001,0.004722,-0.020255000000000002,-0.002482,0.008514,0.035555,0.008904
287,0.141029,-0.45273599999999997,-0.07808899999999999,0.12640099999999999,0.43742700000000007,-0.8903260000000001,-0.0016699999999999998,-0.019163,-0.003597,0.0030239999999999998,0.039944,0.017828
288,0.140679,-0.452766,-0.07813400000000001,0.12608699999999998,0.437454,-0.890357,0.002598,-0.015995,-0.000366,0.00114,0.042236,0.01963
289,0.140489,-0.452691,-0.078093,0.125923,0.43738699999999997,-0.8904129999999999,0.012218999999999999,-0.009645,0.001829,-0.006324000000000001,0.040060000000000005,0.017336
290,0.140415,-0.45238999999999996,-0.078016,0.125875,0.43711700000000003,-0.890553,0.020744,-0.008623,0.005092,-0.010961,0.035799,0.008839
291,0.140188,-0.451977,-0.078007,0.125698,0.436745,-0.89076,0.02393,-0.016074,0.000851,-0.015316,0.030449,0.008924
292,0.13983800000000002,-0.451726,-0.078081,0.12540199999999999,0.43651899999999993,-0.890913,0.012204000000000001,-0.016024,-0.001367,-0.012777,0.02715,0.003782
293,0.139542,-0.451709,-0.078175,0.125139,0.436503,-0.890957,0.002636,-0.011717,-0.004644,-0.012941,0.031392,0.0033380000000000003
294,0.139335,-0.45185699999999995,-0.078307,0.124946,0.436637,-0.890919,-0.005045,-0.004335,-0.005817,-0.011543000000000001,0.036233,0.007679000000000001
295,0.139164,-0.452059,-0.07846399999999999,0.12478099999999999,0.43681899999999996,-0.8908530000000001,-0.005025,-0.001135,-0.006889,-0.012995,0.038325,0.012359
296,0.13910999999999998,-0.45219499999999996,-0.07860299999999999,0.124725,0.43694099999999997,-0.8908010000000001,-0.000729,0.007363,-0.004733,-0.009734999999999999,0.037745,0.014381999999999999
297,0.139218,-0.452167,-0.078698,0.124823,0.43691599999999997,-0.890799,0.009935,0.010505,-0.00039,-0.010824,0.037922000000000004,0.015937
298,0.139379,-0.45193599999999995,-0.078688,0.12498,0.436708,-0.8908790000000001,0.018431,0.007258,0.0050149999999999995,-0.00938,0.037092,0.012721
299,0.139443,-0.45163000000000003,-0.07861699999999999,0.125056,0.436432,-0.8910040000000001,0.021598,0.001912,0.00718,-0.006114,0.034286000000000004,0.007917
300,0.139511,-0.451245,-0.078487,0.125139,0.436086,-0.8911620000000001,0.018387999999999998,0.0019140000000000001,0.009294,-0.006456999999999999,0.03393,0.008593
301,0.139542,-0.451039,-0.07836900000000001,0.12517899999999998,0.43590100000000004,-0.8912459999999999,0.011977,-0.002316,0.007118000000000001,-0.003887,0.030697000000000002,0.008831
302,0.139379,-0.450978,-0.078325,0.125038,0.435846,-0.891293,0.007359,-0.009748,0.002725,-0.003914,0.035452,0.009167
303,0.13918599999999998,-0.45098,-0.078354,0.124866,0.43584799999999996,-0.891317,0.00313,-0.006516,-0.002649,-0.005496,0.037449,0.013753
304,0.139096,-0.451032,-0.078432,0.12478299999999999,0.43589399999999995,-0.8913049999999999,0.00103,-0.00011200000000000001,-0.0037409999999999995,-0.005229999999999999,0.038975,0.014657
305,0.139074,-0.45101199999999997,-0.078488,0.12476400000000001,0.43587700000000007,-0.891317,0.005297,0.001995,-0.001577,-0.006569,0.041861,0.015172
306,0.13911600000000002,-0.450982,-0.078537,0.124804,0.43585,-0.891324,0.008503,0.0030489999999999996,-0.001556,-0.006502,0.036974,0.010785
307,0.139157,-0.450876,-0.07860199999999999,0.124847,0.435754,-0.891365,0.010641,0.004107,-0.001542,-0.006011,0.038001,0.010811
308,0.13913299999999998,-0.450718,-0.078681,0.12483499999999999,0.435612,-0.891436,0.010622,-0.000154,-0.001537,-0.004534000000000001,0.035869,0.010577
309,0.139067,-0.45066300000000004,-0.07876,0.124779,0.43556300000000003,-0.891468,0.00955,-0.001216,-0.0015429999999999999,-0.006920999999999999,0.031707,0.014805
310,0.138995,-0.4506,-0.078864,0.12471900000000001,0.43550500000000003,-0.8915040000000001,0.004829,-0.001963,-0.004855,-0.009835,0.03387,0.00683
311,0.13885799999999998,-0.45067799999999997,-0.079013,0.12459200000000001,0.435576,-0.891488,-0.0005009999999999999,-0.003001,-0.007026999999999999,-0.013004,0.036348,0.009651999999999999
312,0.138823,-0.450797,-0.07912999999999999,0.124553,0.435683,-0.891441,-0.001539,0.005516,-0.004909,-0.011501,0.03827,0.010185
313,0.139002,-0.45089700000000005,-0.079251,0.124707,0.43577299999999997,-0.891375,0.0027530000000000002,0.010828,-0.004886,-0.016553000000000002,0.039080000000000004,0.012606000000000001
314,0.138965,-0.450858,-0.07930599999999999,0.124677,0.435738,-0.8913969999999999,0.005857,-0.005184,0.0004980000000000001,-0.012296,0.03582,0.010461
315,0.138843,-0.45082799999999995,-0.079252,0.12457,0.43571099999999996,-0.891425,0.0026420000000000003,-0.004124,0.0047469999999999995,-0.009961,0.034977,0.009023999999999999
316,0.138847,-0.45088999999999996,-0.079192,0.124569,0.435767,-0.8913979999999999,0.002681,0.004398,0.004736,-0.005596,0.040445,0.012293
317,0.13895,-0.450847,-0.07912999999999999,0.12466400000000001,0.43572799999999995,-0.8914030000000001,0.004308,0.004693999999999999,0.003557,-0.003936,0.038912,0.013672
318,0.13911199999999999,-0.45073900000000006,-0.079064,0.12481500000000001,0.43563100000000005,-0.89143,0.007528,0.010004,0.004640999999999999,-0.004591,0.040276,0.011242
319,0.13934000000000002,-0.45070699999999997,-0.07900599999999999,0.12502,0.43560200000000004,-0.891415,0.005418,0.014277000000000001,0.003553,-0.0033469999999999997,0.037725,0.008723999999999999
320,0.139603,-0.450679,-0.078979,0.125256,0.43557700000000005,-0.891394,0.0032890000000000003,0.013228,0.001403,-0.004162,0.037522,0.01435
321,0.139824,-0.450611,-0.078985,0.12545699999999999,0.43551599999999996,-0.891396,0.0064849999999999994,0.010029000000000001,-0.0007070000000000001,-0.0026079999999999996,0.036851,0.016136
322,0.1399,-0.45056899999999994,-0.079011,0.125527,0.43547700000000006,-0.8914049999999999,0.009647,0.0014960000000000002,-0.000674,-0.005303,0.036019,0.016283000000000002
323,0.139803,-0.450463,-0.07906200000000001,0.125448,0.435382,-0.8914620000000001,0.009604000000000001,-0.008091,-0.000662,-0.006246,0.031506,0.012938
324,0.13958299999999998,-0.45035600000000003,-0.079111,0.12525799999999998,0.43528599999999995,-0.8915360000000001,0.005337,-0.009137000000000001,-0.001759,-0.006422,0.032167,0.010539
325,0.139548,-0.45043500000000003,-0.079136,0.125222,0.435357,-0.8915069999999999,0.000675,0.002924,-0.0018960000000000001,-0.009651999999999999,0.036506,0.009212999999999999
326,0.139598,-0.45053699999999997,-0.07921399999999999,0.12525999999999998,0.435449,-0.8914559999999999,0.001756,0.005056000000000001,-0.002959,-0.014969,0.036398,0.008903
327,0.139712,-0.450564,-0.07928400000000001,0.12536,0.43547399999999997,-0.89143,0.0007030000000000001,0.008255,-0.00297,-0.012918,0.038297000000000005,0.011028
328,0.139847,-0.450668,-0.079321,0.125474,0.435567,-0.891368,0.0006940000000000001,0.009308,0.000233,-0.010438,0.037089,0.015253999999999998
329,0.13996,-0.45069799999999993,-0.079385,0.125573,0.435594,-0.8913409999999999,0.003894,0.008235,-0.0008119999999999999,-0.006783,0.035689,0.012343000000000002
330,0.140024,-0.450628,-0.079424,0.125634,0.43553100000000006,-0.8913629999999999,0.007070999999999999,0.003959000000000001,0.00028399999999999996,-0.008798,0.037736,0.011373999999999999
331,0.14003,-0.450564,-0.079461,0.125644,0.43547299999999994,-0.89139,0.007070999999999999,0.003959000000000001,0.00028399999999999996,-0.005298,0.038526,0.008043999999999999
332,0.14005399999999998,-0.45050200000000007,-0.079483,0.125668,0.435417,-0.8914139999999999,0.007070999999999999,0.003959000000000001,0.00028399999999999996,-0.00604,0.036965,0.011576999999999999
333,0.140124,-0.45046099999999994,-0.079501,0.12573399999999998,0.435381,-0.891423,0.0028179999999999998,0.00717,0.00025,-0.006502,0.033658999999999994,0.012898
334,0.140238,-0.45046800000000004,-0.079502,0.125835,0.43538699999999997,-0.8914059999999999,0.002419,0.005258,0.00018600000000000002,-0.006572,0.036933999999999995,0.012087
335,0.14029,-0.450438,-0.07950800000000001,0.125884,0.43536,-0.8914120000000001,0.006667,0.002043,0.001288,-0.00601,0.036885,0.012674
336,0.140269,-0.450329,-0.079506,0.125871,0.435262,-0.8914610000000001,0.008782,-0.001164,0.002375,-0.006211,0.037058,0.010694
337,0.140244,-0.450244,-0.079511,0.125854,0.43518500000000004,-0.891501,0.005591,-8.3e-05,0.001283,-0.006682,0.035594,0.010779
338,0.140237,-0.450201,-0.07953099999999999,0.12585,0.435146,-0.8915209999999999,0.005605,0.00099,-0.0008550000000000001,-0.008144,0.036137,0.016138999999999997
339,0.140255,-0.450143,-0.079537,0.12587,0.435094,-0.891544,0.007729000000000001,0.000974,0.001297,-0.012558,0.035243000000000003,0.014163
340,0.140241,-0.450059,-0.07954299999999999,0.125863,0.43501899999999993,-0.891581,0.008786,-0.00116,0.001307,-0.011498,0.037912,0.012065000000000001
341,0.1402,-0.450038,-0.079559,0.125827,0.435,-0.891595,0.005261999999999999,6.7e-05,0.00018,-0.009143,0.035352,0.011667
342,0.140172,-0.449991,-0.079601,0.125805,0.434957,-0.8916200000000001,0.004214,0.0011480000000000001,-0.003034,-0.007076000000000001,0.036433,0.011569
343,0.14017000000000002,-0.45002600000000004,-0.07965900000000001,0.125801,0.434989,-0.891605,0.001018,0.003286,-0.00199,-0.007973000000000001,0.038202,0.012270999999999999
344,0.140152,-0.450096,-0.07971,0.125781,0.43505200000000005,-0.891576,0.002075,0.0022129999999999997,-0.0009130000000000001,-0.008288,0.038564999999999995,0.010809000000000001
345,0.140188,-0.450061,-0.07974099999999999,0.125815,0.43501999999999996,-0.8915870000000001,0.003147,0.003274,-0.000907,-0.008154,0.037316,0.014053999999999999
346,0.140258,-0.450025,-0.079756,0.12588,0.434988,-0.891594,0.007409999999999999,0.0043159999999999995,0.001258,-0.007975,0.037531,0.014518999999999999
347,0.140351,-0.44999799999999995,-0.079764,0.12596400000000002,0.434963,-0.891594,0.0063479999999999995,0.005385,0.0012490000000000001,-0.007373,0.036945,0.008048999999999999
348,0.14043599999999998,-0.449952,-0.079777,0.12604300000000002,0.43492200000000003,-0.891603,0.003147,0.004335,0.00015900000000000002,-0.007268000000000001,0.037948,0.00873
349,0.140572,-0.449991,-0.079797,0.126161,0.434957,-0.8915690000000001,0.00399,0.011852,0.000145,-0.007814,0.037852,0.011869
350,0.140926,-0.450021,-0.079807,0.126476,0.434985,-0.891511,0.004018,0.018243000000000002,0.00013700000000000002,-0.009761,0.037565,0.011583
351,0.141017,-0.449941,-0.079823,0.12656199999999998,0.434913,-0.891534,0.008190000000000001,-0.002016,0.00126,-0.009954000000000001,0.033608,0.013101
352,0.140879,-0.44985600000000003,-0.079818,0.126444,0.43483599999999994,-0.8915879999999999,0.007098999999999999,-0.006278,0.002326,-0.008555,0.034112,0.015215000000000001
353,0.140789,-0.44977399999999995,-0.079818,0.126369,0.434762,-0.8916350000000001,0.004994,-0.002001,0.00016999999999999999,-0.007686,0.036079,0.012485
354,0.140809,-0.44977799999999996,-0.079837,0.126386,0.434766,-0.891631,0.00609,0.004386999999999999,0.000169,-0.009304999999999999,0.036456,0.010709999999999999
355,0.140928,-0.449734,-0.07981,0.126495,0.434726,-0.8916350000000001,0.005028,0.0075780000000000005,0.002294,-0.009658,0.03555,0.011431
356,0.14116199999999998,-0.449709,-0.079777,0.12670499999999998,0.43470299999999995,-0.891616,0.003985,0.011847,0.001213,-0.009319,0.035710000000000006,0.013518
357,0.14136300000000002,-0.44976000000000005,-0.07979,0.126881,0.434749,-0.891568,0.0018510000000000002,0.011855,0.001198,-0.010212,0.034886,0.012067
358,0.141491,-0.44978900000000005,-0.079823,0.126993,0.434775,-0.89154,0.002682,0.006522,-0.0009369999999999999,-0.009836,0.036797,0.013578999999999999
359,0.141503,-0.44980299999999995,-0.079839,0.127003,0.434788,-0.891532,0.003715,0.000122,0.000146,-0.007984,0.037058999999999995,0.013465000000000001
360,0.14144400000000001,-0.44976700000000003,-0.079904,0.126953,0.43475600000000003,-0.8915549999999999,0.006911,-0.002015,-0.000897,-0.008879999999999999,0.035001,0.013198
361,0.141408,-0.449755,-0.07994,0.126921,0.434745,-0.8915649999999999,0.0026579999999999998,0.0011949999999999999,-0.0009310000000000001,-0.008620000000000001,0.035927999999999995,0.009668000000000001
362,0.141427,-0.449809,-0.079997,0.126935,0.43479300000000004,-0.891539,0.000538,0.0033380000000000003,-0.002016,-0.007398,0.040076,0.011275
363,0.141483,-0.44985699999999995,-0.080053,0.12698199999999998,0.434837,-0.891511,0.002686,0.0065260000000000006,-0.0020050000000000003,-0.007398999999999999,0.040612,0.010011
364,0.141567,-0.44989399999999996,-0.080111,0.127055,0.43487,-0.8914850000000001,0.0037579999999999996,0.0065260000000000006,-0.003066,-0.007197,0.037069,0.013052000000000001
365,0.141652,-0.44988999999999996,-0.08014199999999999,0.127131,0.434866,-0.891476,0.004806,0.005445,0.000147,-0.009775,0.036951,0.015681999999999998
366,0.141676,-0.44986800000000005,-0.080185,0.127153,0.43484700000000004,-0.891482,0.004609,0.001129,-0.0019850000000000002,-0.009401000000000001,0.036512,0.012545
367,0.14163699999999999,-0.44989300000000004,-0.080248,0.127117,0.43487,-0.891476,0.0035369999999999998,6.8e-05,-0.0019920000000000003,-0.007397,0.039511000000000004,0.012142
368,0.141631,-0.44982799999999995,-0.080317,0.127116,0.43481099999999995,-0.8915049999999999,0.006743000000000001,0.0011220000000000002,-0.001971,-0.008723,0.039784,0.010417000000000001
369,0.141619,-0.449708,-0.08038300000000001,0.127113,0.43470299999999995,-0.891558,0.0078,0.001109,0.000173,-0.00962,0.037343,0.012896000000000001
370,0.14155399999999999,-0.44965900000000003,-0.080424,0.127057,0.434658,-0.8915879999999999,0.006723999999999999,-0.001017,0.000169,-0.011090000000000001,0.037265,0.012636
371,0.141502,-0.44958000000000004,-0.080429,0.12701600000000002,0.434587,-0.8916280000000001,0.007776000000000001,-0.003156,0.001247,-0.009325,0.037551,0.009197
372,0.141431,-0.44949399999999995,-0.080468,0.126958,0.43451000000000006,-0.891674,0.0067280000000000005,-0.001013,-0.0009,-0.010320000000000001,0.035766,0.011134999999999999
373,0.14141700000000001,-0.449432,-0.080522,0.126949,0.434454,-0.891703,0.005686,0.003256,-0.0019809999999999997,-0.011165000000000001,0.036005,0.011515000000000001
374,0.141415,-0.44946499999999995,-0.080577,0.126945,0.43448400000000004,-0.891689,0.0033590000000000004,0.002132,-0.000932,-0.011054999999999999,0.038142,0.012203
375,0.141407,-0.44944700000000004,-0.080623,0.126939,0.434467,-0.891698,0.002282,0.001067,0.00013000000000000002,-0.010835,0.038067000000000004,0.011433
376,0.14145,-0.449445,-0.080636,0.126978,0.434465,-0.8916930000000001,0.0033590000000000004,0.004254,0.001202,-0.009699,0.036528,0.012665000000000001
377,0.141523,-0.44947700000000007,-0.080667,0.12704100000000002,0.43449399999999994,-0.8916700000000001,0.000173,0.005339,-0.000958,-0.009533,0.034012,0.013388999999999998
378,0.141568,-0.449531,-0.080667,0.127078,0.434544,-0.891641,-0.000909,0.003208,0.000105,-0.009616,0.038525,0.012475
379,0.141653,-0.44956999999999997,-0.080724,0.127151,0.43457799999999996,-0.8916129999999999,0.002321,0.005345,-0.004148,-0.007675,0.036476,0.012753
380,0.141603,-0.449639,-0.080828,0.127103,0.434641,-0.89159,-0.000909,-0.001036,-0.004162,-0.006436,0.039602,0.009174
381,0.141538,-0.44972,-0.080899,0.127039,0.434713,-0.8915639999999999,0.000154,1.7e-05,-0.00202,-0.010264,0.040202,0.011604000000000001
382,0.141586,-0.44973900000000006,-0.080967,0.127081,0.43473100000000003,-0.8915489999999999,0.0032240000000000003,0.007383,-0.003077,-0.008612,0.035438,0.013833000000000002
383,0.141717,-0.44987299999999997,-0.081082,0.12719,0.43485100000000004,-0.891475,-0.0031579999999999998,0.009544,-0.005261,-0.009117,0.040353,0.008387
384,0.142046,-0.44995100000000005,-0.081135,0.127478,0.434921,-0.8913989999999999,-0.000986,0.021242,-0.0020559999999999997,-0.009268,0.037262,0.013241
385,0.14243,-0.450011,-0.081203,0.12781700000000001,0.434975,-0.891324,0.001143,0.019108,-0.003106,-0.011484000000000001,0.037177999999999996,0.012067
386,0.142747,-0.450104,-0.08126799999999999,0.128094,0.43505900000000003,-0.891244,-0.003134,0.018053,-0.0020670000000000003,-0.012325,0.03601,0.010354
387,0.143242,-0.45028999999999997,-0.081319,0.128523,0.43522700000000003,-0.8911,-0.008387,0.03512,-0.003193,-0.008574,0.035354000000000003,0.006823
388,0.14411500000000002,-0.45054799999999995,-0.08133,0.12928499999999998,0.43545900000000004,-0.890877,-0.006219,0.045752999999999995,1.3000000000000001e-05,-0.010968,0.039456,0.011497
389,0.144796,-0.450766,-0.081319,0.129878,0.435655,-0.8906940000000001,-0.006459,0.029663,0.001091,-0.008998,0.03337,0.017159
390,0.145325,-0.45091499999999995,-0.081278,0.13034,0.43578900000000004,-0.890561,-0.005407,0.026463999999999998,0.001102,-0.007476000000000001,0.033235,0.016034
391,0.14585399999999998,-0.45113500000000006,-0.081276,0.130796,0.435987,-0.8903969999999999,-0.008579,0.029682999999999998,-0.002129,-0.009245,0.03644,0.012422
392,0.146499,-0.45150100000000004,-0.081335,0.131348,0.436317,-0.8901549999999999,-0.014918,0.040371,-0.005391,-0.010865000000000001,0.036599,0.007769
393,0.147471,-0.45195100000000005,-0.081367,0.132184,0.436721,-0.889832,-0.022319,0.056372000000000005,-0.0043950000000000005,-0.008908,0.035981,0.008286
394,0.148647,-0.452546,-0.081371,0.133192,0.43725699999999995,-0.8894190000000001,-0.024428000000000002,0.06276699999999999,-0.00335,-0.009916,0.039182999999999996,0.010818000000000001
395,0.149839,-0.45308699999999996,-0.081368,0.134217,0.43774300000000005,-0.889026,-0.025509999999999998,0.059575,-0.003353,-0.008865999999999999,0.038499,0.011874
396,0.15092,-0.453635,-0.081386,0.135142,0.43823599999999996,-0.8886430000000001,-0.024467,0.053184,-0.004406,-0.008112999999999999,0.037228,0.012452
397,0.151809,-0.454243,-0.081457,0.135891,0.43878199999999995,-0.888259,-0.024630000000000003,0.04881,-0.004397,-0.005902,0.035735,0.010634000000000001
398,0.152678,-0.454736,-0.081545,0.136631,0.439225,-0.887927,-0.021439,0.043486000000000004,-0.007573000000000001,-0.007465,0.035262,0.010943000000000001
399,0.153445,-0.45526099999999997,-0.081635,0.137276,0.43969600000000003,-0.8875940000000001,-0.022516,0.041359,-0.0075780000000000005,-0.008629000000000001,0.037797000000000004,0.011266
400,0.15436,-0.45573500000000006,-0.081709,0.13805599999999998,0.440122,-0.8872620000000001,-0.018205000000000002,0.051992,-0.0064930000000000005,-0.010537999999999999,0.037370999999999995,0.013528
401,0.155354,-0.45621300000000004,-0.081772,0.138905,0.44055200000000005,-0.886916,-0.023559,0.048811,-0.005458,-0.013249,0.03862,0.008223000000000001
402,0.15621500000000002,-0.45676700000000003,-0.08183700000000001,0.139631,0.44104899999999997,-0.886555,-0.024630000000000003,0.046688,-0.006531,-0.011823,0.037223,0.006977
403,0.157155,-0.457294,-0.081883,0.140427,0.441522,-0.886193,-0.021415,0.051995000000000006,-0.004379,-0.012513,0.038794,0.014778999999999999
404,0.158117,-0.457754,-0.08195,0.141248,0.441935,-0.885857,-0.019286,0.0488,-0.006495999999999999,-0.011961,0.037344,0.013572999999999998
405,0.158976,-0.458232,-0.082026,0.141976,0.442363,-0.8855270000000001,-0.021434,0.046673,-0.0054399999999999995,-0.009087,0.037648,0.009856
406,0.159886,-0.458733,-0.082094,0.142746,0.442812,-0.885178,-0.021569,0.050848000000000004,-0.005435,-0.010681,0.038433999999999996,0.008027
407,0.160951,-0.459222,-0.082111,0.143654,0.443251,-0.884812,-0.020483,0.058288,-0.002232,-0.01139,0.035662,0.012406
408,0.162128,-0.45978500000000005,-0.082078,0.144655,0.443755,-0.884396,-0.027942,0.06150599999999999,-0.00122,-0.008454999999999999,0.036134,0.011456000000000001
409,0.163509,-0.46051000000000003,-0.08200700000000001,0.145824,0.444405,-0.883878,-0.036419,0.073258,-0.002362,-0.00825,0.036446,0.011746
410,0.165036,-0.46131300000000003,-0.08194299999999999,0.14711400000000002,0.44512399999999996,-0.883302,-0.038534,0.077526,-0.0023829999999999997,-0.008336,0.036245,0.013673
411,0.166573,-0.46219399999999994,-0.081893,0.14840699999999998,0.445913,-0.8826870000000001,-0.042796,0.076484,-0.004547,-0.00882,0.033732,0.011899
412,0.167967,-0.463108,-0.081873,0.149569,0.44673100000000004,-0.882077,-0.040706,0.06688999999999999,-0.004521,-0.012728,0.039429,0.0146
413,0.169113,-0.463862,-0.08186,0.150523,0.447405,-0.8815729999999999,-0.031282,0.053979,-0.004413,-0.011134,0.040342,0.013363
414,0.169984,-0.464409,-0.081873,0.15125,0.44789399999999996,-0.8812,-0.02068,0.039028,-0.00432,-0.014072999999999999,0.0397,0.018116999999999998
415,0.17044600000000001,-0.464747,-0.081953,0.151631,0.448197,-0.8809809999999999,-0.007959,0.019813,-0.005275,-0.011098,0.042098000000000003,0.020156
416,0.170507,-0.464841,-0.08205599999999999,0.151677,0.44828100000000004,-0.8809299999999999,0.004737,-0.00048499999999999997,-0.001955,-0.013646,0.041572000000000005,0.017008000000000002
417,0.170285,-0.464557,-0.082099,0.151503,0.44802700000000006,-0.8810889999999999,0.021711,-0.016544999999999997,0.003525,-0.011092,0.04027,0.017183
418,0.169818,-0.464145,-0.082081,0.151123,0.447658,-0.881342,0.022726,-0.024021999999999998,0.007815,-0.014129,0.037814999999999994,0.010309
419,0.169504,-0.46384899999999996,-0.08200299999999999,0.150869,0.44739399999999996,-0.8815200000000001,0.016396,-0.009082,0.006683,-0.008809,0.034158,0.005268999999999999
420,0.169701,-0.463764,-0.08186900000000001,0.151049,0.44731800000000005,-0.8815280000000001,-0.001616,0.019739,0.007587999999999999,-0.007571,0.033701,0.007320999999999999
421,0.170382,-0.463963,-0.081743,0.151634,0.447496,-0.881337,-0.010064,0.035761,0.004304,-0.006813,0.035125,0.009373000000000001
422,0.171023,-0.46423000000000003,-0.081701,0.152179,0.44773500000000005,-0.881122,-0.009007,0.029383,4.7e-05,-0.007464,0.036366,0.010759999999999999
423,0.171395,-0.464319,-0.081738,0.1525,0.44781400000000005,-0.881026,0.001614,0.016571000000000002,-0.001999,-0.009998,0.034211,0.016204
424,0.171556,-0.46441800000000005,-0.08176699999999999,0.152634,0.447902,-0.880958,-0.0016489999999999999,0.0027329999999999998,-0.0020039999999999997,-0.009873,0.042194999999999996,0.01789
425,0.171207,-0.46432799999999996,-0.08179700000000001,0.152333,0.447822,-0.881051,0.011004,-0.027150999999999998,0.001327,-0.010945,0.040702999999999996,0.016059999999999998
426,0.170403,-0.46396499999999996,-0.081809,0.151652,0.44749700000000003,-0.881333,0.024778,-0.045322,0.004651,-0.010493,0.039044,0.017502
427,0.169265,-0.46333100000000005,-0.081831,0.150698,0.44693,-0.881784,0.039637,-0.062419,0.004777,-0.01404,0.041748,0.019327
428,0.167871,-0.46252200000000004,-0.081843,0.149528,0.44620600000000005,-0.88235,0.045986,-0.06991499999999999,0.009104000000000001,-0.012443000000000001,0.038291000000000006,0.014200999999999998
429,0.166744,-0.461783,-0.081761,0.148588,0.44554499999999997,-0.882842,0.033279,-0.045382,0.012188,-0.008162,0.033763999999999995,0.001846
430,0.16664600000000002,-0.461571,-0.081554,0.148518,0.44535600000000003,-0.88295,0.00047999999999999996,0.013332,0.009748,-0.005878,0.036105,-0.004089
431,0.167745,-0.462037,-0.08138300000000001,0.149453,0.445773,-0.882582,-0.030143,0.075259,0.000909,-0.00866,0.032163,-0.0022760000000000002
432,0.169995,-0.46299700000000005,-0.08124400000000001,0.151366,0.446632,-0.881821,-0.05656,0.12969,-0.001482,-0.011656999999999999,0.029976,-0.0009460000000000001
433,0.173097,-0.464458,-0.080975,0.15398900000000001,0.447938,-0.880704,-0.083112,0.159597,0.0014990000000000001,-0.011349,0.031111,0.004712
434,0.176627,-0.46632299999999993,-0.080528,0.156949,0.44960500000000003,-0.879331,-0.093738,0.172405,0.004613,-0.013623,0.037898,0.015087999999999999
435,0.179948,-0.468026,-0.080066,0.15973099999999998,0.451126,-0.87805,-0.08000299999999999,0.144651,0.006881,-0.014100999999999999,0.039338,0.021681
436,0.18240599999999998,-0.469445,-0.07969,0.161772,0.452392,-0.877024,-0.064177,0.106241,0.008109,-0.007245999999999999,0.042634,0.026331999999999998
437,0.184201,-0.470499,-0.07925700000000001,0.163259,0.45333100000000004,-0.8762629999999999,-0.048352,0.068893,0.010404,-0.006749,0.040612,0.019864
438,0.18529,-0.471102,-0.078952,0.164163,0.45386800000000005,-0.875816,-0.018618,0.034713,0.00745,-0.004282,0.042408999999999995,0.018668999999999998
439,0.185447,-0.471116,-0.07888200000000001,0.164299,0.45388100000000003,-0.875784,0.013215000000000001,-0.006931999999999999,0.004522,-0.010154999999999999,0.034156,0.015936000000000002
440,0.185028,-0.470833,-0.078827,0.163956,0.453629,-0.8759790000000001,0.012062,-0.025042,0.005605,-0.009629,0.031113,0.008959
441,0.184868,-0.47082700000000005,-0.078709,0.16381700000000002,0.45362299999999994,-0.876008,-0.000616,0.001639,0.004414,-0.010023,0.033117,0.006928
442,0.185289,-0.471083,-0.07860700000000001,0.164164,0.45385200000000003,-0.875825,-0.012232,0.025129,0.001098,-0.009073000000000001,0.034567,0.009263
443,0.185974,-0.471425,-0.078524,0.164735,0.454157,-0.875559,-0.017532,0.031543,-1.4999999999999999e-05,-0.010773999999999999,0.035834,0.008387
444,0.18648800000000001,-0.471786,-0.078523,0.165155,0.454478,-0.8753139999999999,-0.014365000000000001,0.020891999999999997,-0.003184,-0.011575,0.035299000000000004,0.014672
445,0.186573,-0.472062,-0.078604,0.165206,0.45472399999999996,-0.8751760000000001,-0.003783,0.0006190000000000001,-0.0041530000000000004,-0.014418,0.039905,0.01542
446,0.186361,-0.472051,-0.078729,0.165021,0.454714,-0.875216,0.006828,-0.012202,-0.004062,-0.014493,0.039762,0.015261000000000002
447,0.185894,-0.47184799999999993,-0.078813,0.164629,0.454533,-0.875384,0.016344,-0.025044,0.00243,-0.016924,0.041424,0.012957
448,0.185336,-0.47155600000000003,-0.07875499999999999,0.164165,0.454273,-0.875606,0.016291,-0.030396,0.008846,-0.01408,0.038723,0.013255000000000001
449,0.184726,-0.471257,-0.07864199999999999,0.163656,0.454007,-0.8758389999999999,0.016272,-0.033596,0.009918000000000001,-0.012304,0.038623000000000005,0.009476
450,0.18420699999999998,-0.470988,-0.078551,0.163223,0.45376700000000003,-0.876044,0.016339,-0.022926,0.005632,-0.010712000000000001,0.039351,0.007468000000000001
451,0.183811,-0.47067700000000007,-0.07850499999999999,0.162902,0.45348900000000003,-0.8762479999999999,0.018496000000000002,-0.017606999999999998,0.00564,-0.006057,0.036974,0.010785
452,0.183444,-0.470351,-0.078547,0.162608,0.45319899999999996,-0.876453,0.018525,-0.016521,0.000298,-0.0074719999999999995,0.038851,0.010867
453,0.183054,-0.47009399999999996,-0.078641,0.16228800000000002,0.45297,-0.8766309999999999,0.015338999999999998,-0.014375,-0.000795,-0.001277,0.041139999999999996,0.01193
454,0.182846,-0.469891,-0.078739,0.16212200000000002,0.45278900000000005,-0.876755,0.016459,-0.00266,-0.000802,-0.010006999999999999,0.033768,0.011505
455,0.18285099999999999,-0.46966499999999994,-0.07877999999999999,0.162145,0.45258699999999996,-0.8768540000000001,0.009009999999999999,0.003749,0.001274,-0.008901000000000001,0.038792,0.008874
456,0.182946,-0.469603,-0.078735,0.162233,0.452533,-0.876866,0.002604,0.005889,0.004431,-0.008165,0.039777,0.0065969999999999996
457,0.183278,-0.46958500000000003,-0.078639,0.162526,0.452517,-0.87682,0.00479,0.01866,0.005497999999999999,-0.013966,0.03166,0.014790000000000001
458,0.183635,-0.469528,-0.07854,0.16284300000000002,0.45246499999999995,-0.8767879999999999,0.007932999999999999,0.006927,0.006603,-0.014482,0.034672,0.011309999999999999
459,0.183693,-0.469476,-0.078434,0.16289800000000002,0.45241899999999996,-0.876801,0.00043200000000000004,-0.001565,0.005494,-0.014171000000000001,0.030811,0.006013
460,0.183722,-0.46963900000000003,-0.078362,0.16291,0.452564,-0.876725,-0.00807,0.002739,0.002224,-0.015648,0.036953,0.007431
461,0.183846,-0.469789,-0.078334,0.16300699999999999,0.45269799999999993,-0.8766370000000001,-0.002707,0.008051,0.001186,-0.017682,0.038391,0.011479000000000001
462,0.18403699999999998,-0.46992399999999995,-0.078261,0.163163,0.45281899999999997,-0.8765459999999999,-0.006964,0.012318,0.003288,-0.014466,0.039247000000000004,0.014012
463,0.184324,-0.470134,-0.078135,0.16339800000000002,0.453006,-0.8764059999999999,-0.008041,0.013374,0.006483,-0.011878,0.041318,0.018663
464,0.184662,-0.470271,-0.077987,0.163682,0.453128,-0.876289,-0.001611,0.018683,0.005453,-0.010301000000000001,0.040235,0.019096000000000002
465,0.18496300000000002,-0.47021,-0.077859,0.16395099999999999,0.453074,-0.876267,0.0070480000000000004,0.010959,0.008768000000000001,-0.007640000000000001,0.040609,0.014161000000000002
466,0.18519000000000002,-0.470053,-0.07772000000000001,0.164163,0.452934,-0.8763,0.011301,0.0077480000000000005,0.008801999999999999,-0.009866,0.037025999999999996,0.013171
467,0.185277,-0.46990200000000004,-0.077577,0.164251,0.45279899999999995,-0.876353,0.009134,0.000299,0.008797,-0.009955,0.036031,0.012812
468,0.185291,-0.469783,-0.07746,0.164274,0.452693,-0.8764040000000001,0.008062,-0.003946,0.0055899999999999995,-0.008375,0.031347,0.012343999999999999
469,0.18525,-0.46974099999999996,-0.077435,0.164242,0.45265500000000003,-0.8764290000000001,0.0038229999999999996,-0.0017829999999999999,0.001285,-0.010204000000000001,0.035855,0.010676
470,0.185307,-0.469792,-0.077426,0.164287,0.452701,-0.876397,-0.00040599999999999995,0.005693,0.000177,-0.014094999999999998,0.036892,0.008813
471,0.18545799999999998,-0.469897,-0.077437,0.16441,0.452795,-0.876325,-0.002515,0.008904,-0.001978,-0.01489,0.034891000000000005,0.010740000000000001
472,0.185601,-0.47001099999999996,-0.07746900000000001,0.164527,0.452896,-0.876251,-0.002525,0.006774,-0.001975,-0.012549,0.035538,0.013092
473,0.18565,-0.47008999999999995,-0.07754,0.16456300000000001,0.452967,-0.876208,0.000661,0.0014449999999999999,-0.004083,-0.010891,0.036429,0.014666
474,0.185522,-0.47009300000000004,-0.07762000000000001,0.16445099999999999,0.45296899999999996,-0.8762280000000001,0.004876,-0.007104999999999999,-0.0008380000000000001,-0.013862000000000001,0.039172000000000005,0.013358000000000002
475,0.185386,-0.46998900000000005,-0.077615,0.16434,0.452876,-0.876296,0.009143,-0.0039369999999999995,0.002393,-0.010012,0.035893,0.013106999999999999
476,0.185197,-0.46987299999999993,-0.077691,0.164184,0.452773,-0.8763790000000001,0.012339,-0.009257,-0.0018510000000000002,-0.010055,0.033799,0.017446
477,0.184961,-0.469654,-0.07777,0.163995,0.452578,-0.8765149999999999,0.01554,-0.009268,-0.001829,-0.011056,0.032361,0.0127
478,0.184757,-0.46946499999999997,-0.077808,0.163833,0.452409,-0.876633,0.012315000000000001,-0.01034,0.0024230000000000002,-0.011825,0.035963,0.011917
479,0.18448299999999998,-0.469307,-0.077855,0.163605,0.452269,-0.876748,0.012320000000000001,-0.011396,0.000288,-0.011613,0.034456,0.007714
480,0.184264,-0.469154,-0.07790599999999999,0.163426,0.452132,-0.8768520000000001,0.007014,-0.008169,-0.0029579999999999997,-0.011189,0.033662,0.010809000000000001
481,0.184079,-0.469184,-0.077986,0.163262,0.45215900000000003,-0.876868,0.0006230000000000001,-0.006016,-0.003005,-0.016991,0.039174,0.008048
482,0.18394100000000002,-0.46926999999999996,-0.078013,0.163134,0.45223500000000005,-0.8768530000000001,-0.001516,-0.0038909999999999995,0.000182,-0.016497,0.040517000000000004,0.009055
483,0.183895,-0.46929899999999997,-0.07803,0.16309,0.45226099999999997,-0.876848,0.0006320000000000001,-0.0007030000000000001,0.000193,-0.0127,0.039347,0.011323
484,0.18396300000000002,-0.469312,-0.078051,0.163149,0.452273,-0.8768299999999999,0.0028,0.0067469999999999995,0.000198,-0.009417,0.037946,0.012511
485,0.18409,-0.469242,-0.078043,0.163266,0.45221000000000006,-0.876841,0.004929,0.006735,0.001281,-0.008801,0.038024,0.014430000000000002
486,0.184139,-0.469158,-0.078071,0.16331600000000002,0.452135,-0.87687,0.009177,0.00352,0.002384,-0.007065999999999999,0.040937,0.012048
487,0.184028,-0.46895200000000004,-0.07810800000000001,0.163236,0.451952,-0.87698,0.015535,-0.007151,0.001373,-0.01199,0.041960000000000004,0.012905000000000002
488,0.183893,-0.46864700000000004,-0.078135,0.163142,0.45168,-0.8771370000000001,0.015553999999999998,-0.000768,0.0035020000000000003,-0.007167,0.036373,0.014268000000000001
489,0.184144,-0.46844399999999997,-0.07811900000000001,0.163379,0.451499,-0.877186,0.009263,0.022695,0.00236,-0.009281000000000001,0.030907999999999998,0.011387000000000001
490,0.184685,-0.46844300000000005,-0.07811599999999999,0.163854,0.45149799999999995,-0.8770979999999999,0.0007570000000000001,0.025932999999999998,-0.000909,-0.01,0.029901999999999998,0.002846
491,0.184979,-0.46863699999999997,-0.078173,0.164096,0.451671,-0.876964,-0.007835,0.009997,-0.0041530000000000004,-0.013980000000000001,0.034749,0.00761
492,0.185145,-0.468801,-0.078243,0.16422799999999999,0.451817,-0.876864,-0.005692,0.013181,-0.003074,-0.016553000000000002,0.038616000000000004,0.012332
493,0.185381,-0.468948,-0.07823200000000001,0.164422,0.45194799999999996,-0.87676,-0.005726,0.008907,0.000136,-0.017282,0.037874,0.012716
494,0.185356,-0.469127,-0.078211,0.16438599999999998,0.452108,-0.876684,-0.00686,-0.0060030000000000005,0.000147,-0.014468,0.036601,0.009176
495,0.185317,-0.469286,-0.07817400000000001,0.164338,0.45225,-0.8766200000000001,-0.004683,0.004638000000000001,0.001217,-0.013291999999999998,0.038702,0.012515
496,0.185416,-0.469397,-0.07814,0.164416,0.452348,-0.876555,-0.0014869999999999998,0.0035619999999999996,0.001241,-0.012652,0.040556,0.016676
497,0.185357,-0.469451,-0.078123,0.16435999999999998,0.45239700000000005,-0.87654,0.0006129999999999999,-0.0039030000000000002,0.001265,-0.007529999999999999,0.038326,0.015090000000000001
498,0.185283,-0.469455,-0.078145,0.164294,0.4524,-0.876551,0.005967,-0.001782,-0.000837,-0.007631999999999999,0.040276,0.014902
499,0.18519000000000002,-0.46937700000000004,-0.078208,0.164219,0.45233100000000004,-0.8766,0.010225,-0.002867,0.000263,-0.009968000000000001,0.037262,0.012388
500,0.18502000000000002,-0.46917,-0.078243,0.164088,0.452146,-0.8767209999999999,0.013382,-0.011404000000000001,0.001364,-0.010874,0.036318,0.014736
501,0.184643,-0.468913,-0.07831,0.163778,0.451917,-0.8768969999999999,0.015477000000000001,-0.020995,0.000322,-0.012701,0.036975,0.014699
502,0.184258,-0.468713,-0.078373,0.163458,0.45173900000000006,-0.8770479999999999,0.012493,-0.01468,-0.000779,-0.014013,0.032072,0.010334000000000001
503,0.184068,-0.46865500000000004,-0.078414,0.163295,0.451686,-0.8771049999999999,0.002935,-0.003999,0.00020800000000000001,-0.014019,0.035206,0.009262000000000001
504,0.184134,-0.468658,-0.078419,0.163353,0.45169,-0.877093,0.001935,0.009858,-0.0008849999999999999,-0.01757,0.034928,0.00899
505,0.18446300000000002,-0.46883800000000003,-0.078402,0.163627,0.45185,-0.876959,-0.011890999999999999,0.020555,7.3e-05,-0.016609,0.037042,0.00434
506,0.18506199999999998,-0.46916199999999997,-0.07836900000000001,0.164125,0.452139,-0.876717,-0.013953,0.036541000000000004,3.8e-05,-0.015657,0.040383999999999996,0.006615
507,0.18595799999999998,-0.46948100000000004,-0.078309,0.164883,0.452424,-0.8764280000000001,-0.012837999999999999,0.048251,0.001099,-0.016141,0.037292,0.014337
508,0.186773,-0.469657,-0.078235,0.16558299999999998,0.45258100000000007,-0.876215,-0.004379999999999999,0.033299,0.003314,-0.014506,0.036723,0.017695
509,0.187041,-0.469678,-0.078152,0.16581700000000002,0.452599,-0.8761620000000001,0.001873,0.003436,0.006601,-0.011321,0.038994,0.017031
510,0.186864,-0.469656,-0.078047,0.165663,0.452579,-0.876201,0.0017929999999999999,-0.014994,0.004398,-0.004011,0.03706,0.014918
511,0.18656199999999998,-0.46961400000000003,-0.078037,0.165402,0.452542,-0.8762690000000001,0.006099,-0.011792,-0.000917,-0.003948,0.036197,0.007159
512,0.186223,-0.469542,-0.07810700000000001,0.16511099999999998,0.452478,-0.8763569999999999,0.008213,-0.018182,-0.00303,-0.003963,0.039007,0.007857
513,0.185605,-0.469379,-0.07824,0.16458299999999998,0.45233199999999996,-0.876532,0.014565999999999999,-0.030979000000000003,-0.005106,-0.0067,0.037551,0.015538999999999999
514,0.18494100000000002,-0.469237,-0.078435,0.16401300000000002,0.45220600000000005,-0.876704,0.009266,-0.025626,-0.007286,-0.006405,0.034626,0.015162
515,0.18451800000000002,-0.46925500000000003,-0.078626,0.16364,0.452222,-0.876765,0.00186,-0.013872999999999998,-0.009489000000000001,-0.011128,0.036731,0.012583
516,0.184285,-0.46932799999999997,-0.078795,0.16343,0.452287,-0.87677,0.000817,-0.00536,-0.0063030000000000004,-0.017068,0.036833,0.0046700000000000005
517,0.184202,-0.46934899999999996,-0.07890499999999999,0.163355,0.45230600000000004,-0.876775,0.002955,-0.00218,-0.004156,-0.02389,0.034923,0.0076040000000000005
518,0.184095,-0.46930200000000005,-0.07897,0.16326500000000002,0.45226400000000005,-0.876813,0.007109000000000001,-0.0066549999999999995,9.4e-05,-0.023693000000000002,0.038183999999999996,0.014141999999999998
519,0.18385,-0.469124,-0.07899099999999999,0.16306600000000002,0.45210500000000003,-0.8769319999999999,0.0124,-0.014138999999999999,0.002277,-0.024562,0.039395,0.015375
520,0.183601,-0.468967,-0.078998,0.16286,0.45196499999999995,-0.877043,0.009238,-0.004543999999999999,0.003311,-0.020404,0.034775,0.014463
521,0.183765,-0.46885699999999997,-0.078953,0.16301300000000002,0.451867,-0.877065,0.005062,0.017833,0.00539,-0.015949,0.03556,0.010259
522,0.184173,-0.46879899999999997,-0.078877,0.163375,0.45181499999999997,-0.877024,0.004009,0.022093,0.006445,-0.012832,0.036039,0.008616
523,0.184603,-0.468778,-0.078792,0.16375399999999998,0.45179600000000003,-0.8769629999999999,0.0018800000000000002,0.022105,0.005362,-0.0066040000000000005,0.035966000000000005,0.007716
524,0.18499100000000002,-0.468772,-0.078739,0.164095,0.451791,-0.8769020000000001,0.0008039999999999999,0.017856,0.0032229999999999997,-0.004442,0.035345999999999995,0.013590000000000001
525,0.185041,-0.468737,-0.078824,0.164142,0.45176000000000005,-0.8769100000000001,0.009285999999999999,-0.00238,-0.0052369999999999995,-0.000537,0.035194,0.021532
526,0.184364,-0.46848199999999995,-0.07922799999999999,0.163569,0.451533,-0.8771329999999999,0.024024,-0.039876,-0.017948,-0.006509999999999999,0.042226,0.007886
527,0.183075,-0.468087,-0.07962799999999999,0.162471,0.45118,-0.877519,0.02178,-0.056942999999999994,-0.010464,-0.007137,0.048347,0.006624
528,0.182247,-0.46785299999999996,-0.079786,0.16176400000000002,0.450971,-0.877757,0.008017,-0.02497,-0.002055,-0.0058189999999999995,0.03937,0.00413
529,0.182239,-0.46796099999999996,-0.079864,0.161748,0.451067,-0.877711,-0.005675,0.010249,-0.006469,-0.007253,0.037016,0.012888
530,0.18237899999999999,-0.46813,-0.080002,0.161857,0.451218,-0.8776129999999999,-0.000365,0.003843,-0.007492,-0.010962999999999999,0.041031,0.014835
531,0.18220999999999998,-0.46802200000000005,-0.080131,0.161717,0.451122,-0.8776879999999999,0.015557,-0.010078,-0.00309,-0.016041999999999997,0.03841,0.018755
532,0.18189,-0.467733,-0.080233,0.16146,0.45086400000000004,-0.877868,0.024044,-0.017578,0.000184,-0.021842,0.033175,0.006942
533,0.181391,-0.46732799999999997,-0.080295,0.161055,0.45050200000000007,-0.878128,0.019646,-0.025141,0.001202,-0.020155000000000003,0.03195,0.009354000000000001
534,0.180901,-0.467096,-0.080333,0.160644,0.450295,-0.87831,0.012202,-0.019788,0.001143,-0.019073,0.033378,0.010558
535,0.18062899999999998,-0.466999,-0.080351,0.160412,0.450209,-0.878396,0.004782,-0.00911,0.001077,-0.018078,0.032869,0.012856
536,0.180549,-0.46697700000000003,-0.080341,0.16034400000000001,0.450189,-0.8784190000000001,0.000538,-0.002707,0.0021079999999999996,-0.018529,0.034247,0.012253
537,0.180464,-0.467046,-0.08033799999999999,0.16026400000000002,0.45025,-0.878402,-0.000519,-0.000573,0.002097,-0.017365000000000002,0.036749000000000004,0.009566
538,0.18035299999999999,-0.46705,-0.080327,0.160165,0.450254,-0.878418,0.0026579999999999998,-0.005911,0.0021260000000000003,-0.012567,0.038912,0.013565
539,0.18011,-0.46699300000000005,-0.080348,0.159957,0.450204,-0.878482,0.004782,-0.011231999999999999,-0.001057,-0.006606,0.041632999999999996,0.016925
540,0.17977100000000001,-0.466869,-0.08044,0.159669,0.450092,-0.878591,0.012245,-0.012323,-0.001003,-0.003098,0.042232,0.014242
541,0.17938900000000002,-0.466582,-0.08053400000000001,0.159356,0.44983599999999996,-0.8787790000000001,0.019628,-0.018932,9.7e-05,-0.0039759999999999995,0.041482,0.015330000000000002
542,0.17887,-0.46620600000000006,-0.08063200000000001,0.15893,0.4495,-0.879028,0.0228,-0.025335,0.000127,-0.006358,0.038383999999999995,0.010757
543,0.178401,-0.46588900000000005,-0.080675,0.15854300000000002,0.44921700000000003,-0.879243,0.017488999999999998,-0.018928999999999998,0.00115,-0.008168,0.037248,0.008607
544,0.17819200000000002,-0.46571899999999994,-0.080705,0.158373,0.44906499999999994,-0.879351,0.009017,-0.006111999999999999,6e-06,-0.010851000000000001,0.037629,0.008761
545,0.178153,-0.46564799999999995,-0.08075800000000001,0.158344,0.44900200000000007,-0.879389,0.006906999999999999,-0.0018390000000000001,-0.001082,-0.013584,0.038074000000000004,0.010965
546,0.178066,-0.46556099999999995,-0.080826,0.158274,0.448924,-0.879441,0.007959,-0.0039770000000000005,-4e-06,-0.017924000000000002,0.035374,0.01381
547,0.17790899999999998,-0.465476,-0.080866,0.158144,0.44884799999999997,-0.879503,0.005816,-0.007162000000000001,-0.001083,-0.018587,0.035496,0.011170999999999999
548,0.177764,-0.465437,-0.080897,0.158019,0.448813,-0.8795430000000001,0.004759,-0.005027,-0.001093,-0.016753999999999998,0.036798000000000004,0.011013
549,0.17764000000000002,-0.465424,-0.080926,0.157911,0.44880200000000003,-0.879569,0.0036869999999999997,-0.005028,-3.2e-05,-0.016156999999999998,0.036153,0.012076
550,0.17744200000000002,-0.465397,-0.08099400000000001,0.15773900000000002,0.44877799999999995,-0.8796120000000001,0.0035840000000000004,-0.010358,-0.002153,-0.015619,0.037031,0.013446000000000001
551,0.177154,-0.465372,-0.081072,0.15748800000000002,0.448755,-0.879668,0.004646,-0.010366,-0.001077,-0.013537,0.038275,0.01184
552,0.17691700000000002,-0.46534200000000003,-0.08111,0.157281,0.448729,-0.879719,0.004651,-0.00824,-1.1e-05,-0.008584,0.038912,0.01305
553,0.176745,-0.465275,-0.081149,0.157136,0.448668,-0.879776,0.006789,-0.007181999999999999,2e-06,-0.008103,0.036195,0.013977000000000002
554,0.176502,-0.465183,-0.081204,0.15692899999999999,0.448587,-0.8798540000000001,0.006779,-0.010373,-0.001062,-0.007652,0.036384,0.012148
555,0.17632799999999998,-0.465116,-0.081227,0.156782,0.44852600000000004,-0.8799110000000001,0.005727,-0.005052,0.00106,-0.006634999999999999,0.03855,0.008482
556,0.17641800000000002,-0.46518100000000007,-0.08116699999999999,0.156855,0.44858400000000004,-0.879868,-0.003817,0.009887,0.003111,-0.008067,0.039162999999999996,0.007203
557,0.176878,-0.465434,-0.081077,0.15724000000000002,0.44881099999999996,-0.879684,-0.012406,0.026958999999999997,0.001967,-0.011015,0.039348,0.007232
558,0.177595,-0.465796,-0.080961,0.157842,0.44913400000000003,-0.8794120000000001,-0.017697,0.037626,0.0029850000000000002,-0.0109,0.038964,0.009065
559,0.17837,-0.466188,-0.080845,0.158493,0.449484,-0.879115,-0.014516,0.032293,0.001946,-0.014724000000000001,0.039102,0.015681999999999998
560,0.178792,-0.46636000000000005,-0.080822,0.158849,0.44963800000000004,-0.878972,-0.000723,0.012017,-0.0011359999999999999,-0.01592,0.037468,0.020116
561,0.178681,-0.466276,-0.08091799999999999,0.15875899999999998,0.449563,-0.879027,0.013055,-0.009332,-0.002081,-0.017950999999999998,0.041312,0.013686000000000002
562,0.178377,-0.466016,-0.08097599999999999,0.158512,0.44933100000000004,-0.879191,0.017289,-0.01256,0.002226,-0.014391999999999999,0.037379,0.011561
563,0.178123,-0.46578400000000003,-0.080993,0.158307,0.44912299999999994,-0.879333,0.014093000000000001,-0.009362,0.004336,-0.011640000000000001,0.036106,0.009872
564,0.17804,-0.465566,-0.080943,0.158251,0.448929,-0.879443,0.008783,-0.002956,0.005358,-0.012728,0.034149,0.009753
565,0.178036,-0.465487,-0.080881,0.158254,0.448858,-0.8794780000000001,0.0024059999999999997,0.001332,0.00424,-0.011419,0.035883,0.008583
566,0.17813199999999998,-0.465534,-0.080877,0.158335,0.4489,-0.8794420000000001,0.001187,0.007883,1e-06,-0.010935,0.034483,0.008639
567,0.178213,-0.46559300000000003,-0.08091,0.158401,0.448953,-0.879403,-0.000951,0.005765,-0.00108,-0.012740999999999999,0.037512000000000004,0.008752
568,0.178314,-0.46570200000000006,-0.080914,0.15848199999999998,0.44905,-0.879339,-0.00309,0.006829000000000001,0.0010400000000000001,-0.011219,0.037522,0.012564
569,0.178427,-0.46580900000000003,-0.080943,0.158573,0.449146,-0.879274,-0.0030800000000000003,0.005776,-0.002163,-0.010806999999999999,0.035687,0.017473
570,0.17843,-0.465938,-0.08100700000000001,0.158565,0.44926099999999997,-0.879217,-0.003104,-0.000611,-0.0032229999999999997,-0.011119,0.04044,0.008901000000000001
571,0.17829,-0.46597299999999997,-0.081052,0.158439,0.449292,-0.879223,0.004325,-0.007037000000000001,-0.001027,-0.01078,0.04262,0.012356
572,0.17815,-0.46591099999999996,-0.08110099999999999,0.15832100000000002,0.449237,-0.879273,0.006459,-0.005984000000000001,5.5e-05,-0.012477,0.042005,0.014328
573,0.177761,-0.46569799999999995,-0.08113300000000001,0.157996,0.449046,-0.8794290000000001,0.015965,-0.026261000000000003,0.001216,-0.011695,0.040624,0.016727000000000002
574,0.177063,-0.465344,-0.081162,0.15741,0.44873,-0.8796950000000001,0.021021,-0.034593,0.003426,-0.010223999999999999,0.036713,0.014079
575,0.17640799999999998,-0.464954,-0.081195,0.156865,0.44838199999999995,-0.87997,0.022112,-0.030331999999999998,0.00236,-0.010914,0.035536,0.01295
576,0.175777,-0.464512,-0.081238,0.156344,0.44798699999999997,-0.8802639999999999,0.025308,-0.031408,0.002384,-0.013293000000000001,0.038784,0.013075999999999999
577,0.175011,-0.46404799999999996,-0.081277,0.15570599999999998,0.447571,-0.8805879999999999,0.028461,-0.03995,0.004553,-0.014119999999999999,0.039047000000000005,0.013080000000000001
578,0.174204,-0.46346000000000004,-0.08128300000000001,0.15504,0.447046,-0.880972,0.031652,-0.041030000000000004,0.005645000000000001,-0.015743,0.038306,0.013053
579,0.173328,-0.462838,-0.08130599999999999,0.154317,0.446489,-0.881382,0.033780000000000004,-0.044225,0.0035280000000000003,-0.014699,0.036574,0.012394
580,0.172378,-0.462276,-0.08139500000000001,0.153522,0.445986,-0.881775,0.031656000000000004,-0.04527,0.00031,-0.009951999999999999,0.034925,0.010879999999999999
581,0.171426,-0.46173100000000006,-0.081497,0.152724,0.445499,-0.88216,0.026331999999999998,-0.043121,0.00027,-0.012054,0.036175,0.010334000000000001
582,0.170651,-0.461398,-0.081573,0.152065,0.4452,-0.882425,0.016523,-0.032186,0.00021099999999999998,-0.010418,0.033499,0.006417
583,0.170145,-0.461232,-0.08161,0.151632,0.44505100000000003,-0.882574,0.010189,-0.018311,-0.000919,-0.008444,0.037218,0.010717
584,0.169906,-0.46112200000000003,-0.081653,0.151429,0.444953,-0.882659,0.005979,-0.006573999999999999,-0.002032,-0.008286,0.037454,0.011304999999999999
585,0.16977799999999998,-0.461079,-0.081703,0.151319,0.44491499999999995,-0.882697,0.004917,-0.004444,-0.000974,-0.010740000000000001,0.039018000000000004,0.010794
586,0.16964500000000002,-0.46112,-0.081765,0.151198,0.44495100000000004,-0.882699,0.000655,-0.0033640000000000002,-0.001005,-0.015761,0.039317000000000005,0.00953
587,0.169596,-0.46111499999999994,-0.08178300000000001,0.15115599999999998,0.44494700000000004,-0.882708,-0.000398,-0.001225,-0.0020829999999999998,-0.015719,0.039322,0.00954
588,0.169553,-0.46116599999999996,-0.081845,0.151114,0.444992,-0.8826930000000001,0.0028120000000000003,-0.000167,-0.00313,-0.009803000000000001,0.039886000000000005,0.013659000000000001
589,0.169499,-0.46117600000000003,-0.081912,0.151065,0.44500200000000006,-0.8826959999999999,0.003686,-0.001074,-0.002042,-0.010623,0.041342000000000004,0.009512
590,0.16938,-0.46114799999999995,-0.081999,0.150963,0.44497600000000004,-0.882727,0.004743,-0.0032090000000000005,-0.002032,-0.010841,0.039643,0.009314
591,0.16927999999999999,-0.461134,-0.082045,0.150875,0.444964,-0.882748,0.0026,-0.00321,9e-05,-0.00877,0.038709,0.007458
592,0.16927799999999998,-0.46116999999999997,-0.08203300000000001,0.150871,0.444996,-0.882732,0.00049,0.004246,0.002202,-0.008964,0.037899,0.008511
593,0.169633,-0.461348,-0.081972,0.151171,0.44515600000000005,-0.882601,-0.011159,0.023462,0.002096,-0.008165,0.04102,0.007509
594,0.170473,-0.461708,-0.081849,0.151885,0.445478,-0.882315,-0.018512,0.050115,0.0030789999999999997,-0.009216,0.038104,0.010611
595,0.171829,-0.462157,-0.08164400000000001,0.15304700000000002,0.44588,-0.8819110000000001,-0.022693,0.072488,0.006225,-0.012849000000000001,0.03352,0.014998
596,0.173587,-0.46264099999999997,-0.081368,0.15456,0.446313,-0.8814280000000001,-0.02265,0.086319,0.010481,-0.014927000000000001,0.033546,0.013553999999999998
597,0.175525,-0.46305,-0.081015,0.15623599999999999,0.446679,-0.8809469999999999,-0.016249,0.08841900000000001,0.012659,-0.019791999999999997,0.026739999999999996,0.021755
598,0.177053,-0.463208,-0.080728,0.15756900000000001,0.44682,-0.8806379999999999,-0.0035859999999999998,0.05536,0.010654,-0.020149,0.028186000000000003,0.018913
599,0.17760499999999999,-0.463254,-0.08054800000000001,0.158052,0.446862,-0.880531,-0.000572,0.008498,0.0053939999999999995,-0.020128,0.029930000000000002,0.006889
600,0.177431,-0.46335200000000004,-0.08051799999999999,0.157891,0.446949,-0.8805149999999999,-0.002782,-0.013844,6.6e-05,-0.018075,0.028362000000000002,0.010931999999999999
601,0.177011,-0.46351899999999996,-0.080625,0.15750799999999998,0.44709899999999997,-0.880508,-0.008112000000000001,-0.019126,-0.006374,-0.010368,0.029906,0.008879999999999999
602,0.176543,-0.463949,-0.080805,0.157063,0.447483,-0.880392,-0.021933,-0.014791,-0.012886000000000002,-0.006809,0.036433999999999994,0.011419
603,0.176118,-0.464501,-0.081067,0.156645,0.44797700000000007,-0.880215,-0.020919,-0.014744,-0.016085,-0.006071,0.038808999999999996,0.016461
604,0.175474,-0.46491000000000005,-0.081412,0.156046,0.44834300000000005,-0.880136,-0.011375,-0.029682,-0.018135,-0.0066170000000000005,0.040961000000000004,0.011025
605,0.17446099999999998,-0.465055,-0.081777,0.155143,0.44847200000000004,-0.880229,0.006670999999999999,-0.047864,-0.01585,-0.012977,0.052612,0.021266
606,0.17313199999999998,-0.46467600000000003,-0.082126,0.154003,0.448133,-0.880602,0.031103,-0.06501900000000001,-0.009248000000000001,-0.015132,0.0488,0.021624
607,0.171518,-0.463951,-0.08239099999999999,0.152636,0.447485,-0.8811690000000001,0.045943,-0.080011,-0.002715,-0.016725999999999998,0.047083,0.019261
608,0.169825,-0.46293199999999995,-0.08255499999999999,0.151221,0.44657299999999994,-0.881875,0.060846000000000004,-0.08115399999999999,0.0037990000000000003,-0.020041999999999997,0.041601,0.009012000000000001
609,0.168319,-0.46164700000000003,-0.082623,0.149988,0.445424,-0.882667,0.068333,-0.069492,0.011314,-0.021067,0.042323,0.009909999999999999
610,0.167068,-0.460344,-0.082527,0.148981,0.44425600000000004,-0.883426,0.063786,-0.062834,0.018726,-0.021692,0.034259,0.002704
611,0.165939,-0.459222,-0.082272,0.148065,0.443251,-0.884084,0.053113,-0.060679,0.021854,-0.023096000000000002,0.036668,-0.005213000000000001
612,0.165027,-0.458355,-0.081978,0.147323,0.44247299999999995,-0.884598,0.037201,-0.041444,0.02065,-0.014388,0.040956,-0.0034479999999999997
613,0.164839,-0.45787799999999995,-0.081711,0.14719100000000002,0.442046,-0.884834,0.013965,0.002348,0.011886,-0.009526,0.041872,0.0035159999999999996
614,0.165234,-0.45775699999999997,-0.08155599999999999,0.147549,0.44193699999999997,-0.8848280000000001,0.008741,0.023684999999999998,0.008617,-0.001064,0.041781,0.015169
615,0.165679,-0.457475,-0.08140499999999999,0.147963,0.441684,-0.884885,0.019371,0.018309,0.011903,0.0030989999999999998,0.037442,0.02345
616,0.166006,-0.45698500000000003,-0.081196,0.148289,0.44124399999999997,-0.88505,0.026777,0.008678,0.01624,-0.0015300000000000001,0.034158999999999995,0.021311
617,0.166081,-0.456425,-0.080972,0.148396,0.440741,-0.885283,0.029910000000000003,-0.008369,0.014147,-0.009845999999999999,0.029168,0.008620000000000001
618,0.16597699999999999,-0.4559,-0.080805,0.148342,0.440271,-0.885526,0.022461000000000002,-0.007265000000000001,0.010889,-0.00999,0.027502999999999996,0.009916
619,0.166002,-0.455588,-0.080685,0.148386,0.43998999999999994,-0.885658,0.014675,-0.002501,0.005468,-0.013315,0.029644999999999998,0.009604999999999999
620,0.165904,-0.45541899999999996,-0.080675,0.148312,0.439838,-0.8857459999999999,0.01146,-0.012051000000000001,-0.0009519999999999999,-0.017026,0.025127,0.013630000000000001
621,0.165438,-0.455348,-0.080819,0.147904,0.439775,-0.8858459999999999,0.0029010000000000004,-0.024775,-0.008473,-0.01677,0.023467,0.013897
622,0.16473,-0.45543599999999995,-0.08106100000000001,0.147271,0.439854,-0.885912,-0.0024530000000000003,-0.0322,-0.011705,-0.021828,0.029217,0.008318
623,0.163928,-0.45567700000000005,-0.081305,0.146543,0.44006999999999996,-0.885925,-0.00993,-0.035366,-0.012822,-0.02635,0.033563,0.005584
624,0.16306600000000002,-0.45600799999999997,-0.081554,0.145755,0.44036800000000004,-0.885907,-0.014203,-0.037476999999999996,-0.013916999999999999,-0.023486,0.038071,0.0072299999999999994
625,0.162242,-0.45638900000000004,-0.081848,0.144999,0.44071000000000005,-0.885861,-0.013093,-0.028954,-0.014988,-0.018946,0.042445,0.00903
626,0.161693,-0.456686,-0.082079,0.144491,0.44097600000000003,-0.885812,-0.011997,-0.018323,-0.010722,-0.015646,0.046343999999999996,0.008752
627,0.161435,-0.456899,-0.08215900000000001,0.14424800000000002,0.44116700000000003,-0.885756,-0.006639,-0.002405,-2.2e-05,-0.013739,0.050624,0.009093
628,0.16156099999999998,-0.457028,-0.082108,0.14435,0.441283,-0.885682,-0.00018,0.015661,0.005340999999999999,-0.004121,0.050644999999999996,0.011674
629,0.162047,-0.45695399999999997,-0.081978,0.144786,0.441217,-0.8856440000000001,0.008384,0.025206,0.008593,-0.001857,0.045386,0.014931
630,0.162545,-0.456676,-0.08187,0.14524600000000001,0.440967,-0.8856930000000001,0.017976,0.020919999999999998,0.006529000000000001,0.001559,0.042035,0.016186000000000002
631,0.16278499999999999,-0.456349,-0.081835,0.145482,0.44067399999999995,-0.8858,0.0222,0.009195,0.004437,-0.0009050000000000001,0.038834,0.010236
632,0.162896,-0.455929,-0.081844,0.145611,0.44029700000000005,-0.885966,0.024319999999999998,0.00387,0.002322,-0.003628,0.033244,0.008372
633,0.162929,-0.45552600000000004,-0.08189199999999999,0.14566800000000002,0.439935,-0.8861370000000001,0.020047,0.001759,0.001227,-0.005455,0.032447000000000004,0.009138
634,0.162926,-0.45530299999999996,-0.081968,0.145682,0.439734,-0.886234,0.013646,-0.002463,-0.003085,-0.013113,0.02723,0.012684
635,0.16275499999999998,-0.455192,-0.082112,0.145538,0.439634,-0.886307,0.0072310000000000004,-0.008819,-0.006327,-0.019592,0.02878,0.012253
636,0.162432,-0.45517299999999994,-0.08229,0.145254,0.439618,-0.8863620000000001,0.001887,-0.013053,-0.008495,-0.019811000000000002,0.025745,0.012628
637,0.162124,-0.45532100000000003,-0.082463,0.14497000000000002,0.439751,-0.886342,-0.0045,-0.009835,-0.008544,-0.026226,0.027687,0.008794
638,0.161966,-0.455517,-0.082567,0.144815,0.43992700000000007,-0.88628,-0.00982,-0.0023769999999999998,-0.0043170000000000005,-0.0263,0.026976999999999998,0.011204
639,0.161889,-0.45581099999999997,-0.08267200000000001,0.144727,0.44018999999999997,-0.886164,-0.012991999999999998,0.000843,-0.007548,-0.024671000000000002,0.028331,0.010537999999999999
640,0.161826,-0.45616,-0.08279,0.144646,0.440504,-0.886021,-0.016188,0.0029809999999999997,-0.0065049999999999995,-0.022087,0.035219,0.011281
641,0.16175699999999998,-0.456509,-0.082952,0.14456,0.44081800000000004,-0.8858790000000001,-0.015102,0.004055,-0.009704,-0.017912,0.035653,0.009796
642,0.16179000000000002,-0.45685299999999995,-0.083079,0.144565,0.441126,-0.885725,-0.015092,0.010429,-0.005439,-0.015918,0.038381,0.009382
643,0.16201600000000002,-0.45721000000000006,-0.083135,0.14474,0.44144700000000003,-0.8855370000000001,-0.017216,0.01575,-0.0022559999999999998,-0.011347,0.042349,0.010689
644,0.16228199999999998,-0.457579,-0.083151,0.144949,0.44177700000000003,-0.885338,-0.015078,0.016808,-0.002242,-0.009436,0.044414,0.012459
645,0.162602,-0.457892,-0.08315399999999999,0.14520999999999998,0.44205900000000004,-0.8851540000000001,-0.014001,0.019996,-0.0011710000000000002,-0.005516,0.04398,0.009773
646,0.16305999999999998,-0.458171,-0.08311,0.145596,0.442309,-0.884966,-0.010791,0.024237,0.000983,-0.003399,0.045454,0.011873
647,0.16358499999999998,-0.45836000000000005,-0.08307,0.146046,0.442478,-0.884807,-0.006509,0.027418,0.001009,-0.003621,0.043347000000000004,0.013866
648,0.164242,-0.45855,-0.083038,0.14661400000000002,0.44264799999999993,-0.8846280000000001,-0.008595,0.037017,-8.7e-05,-0.0065379999999999995,0.040857,0.010193
649,0.165155,-0.458833,-0.083014,0.147401,0.442902,-0.8843700000000001,-0.013866999999999999,0.049823,-0.001208,-0.007431999999999999,0.035552999999999994,0.007753
650,0.166347,-0.459189,-0.083,0.148428,0.443222,-0.8840379999999999,-0.015924,0.06475299999999999,-0.003378,-0.008917,0.037827,0.010701
651,0.167726,-0.45959799999999995,-0.083021,0.149617,0.44358800000000004,-0.883654,-0.018029,0.06903,-0.005535,-0.013569999999999999,0.032929,0.01227
652,0.168958,-0.46005100000000004,-0.083092,0.150672,0.44399399999999994,-0.8832709999999999,-0.021268000000000002,0.059458000000000004,-0.006613,-0.017554,0.032386,0.007264
653,0.17002,-0.460571,-0.08319299999999999,0.151571,0.44446,-0.882883,-0.024468,0.057347,-0.008768999999999999,-0.016622,0.032484,0.008218000000000001
654,0.171182,-0.46120500000000003,-0.0833,0.152549,0.445028,-0.8824280000000001,-0.029779000000000003,0.06163099999999999,-0.00988,-0.017081,0.033717000000000004,0.012006000000000001
655,0.1721,-0.46186400000000005,-0.08339500000000001,0.153308,0.445617,-0.881999,-0.032088,0.040553,-0.008806999999999999,-0.019763,0.031693,0.011195
656,0.17267000000000002,-0.462559,-0.083487,0.153758,0.44623900000000005,-0.881606,-0.031065,0.032023,-0.0077209999999999996,-0.019847,0.031695999999999995,0.012664
657,0.17326,-0.463183,-0.083523,0.15423,0.446798,-0.8812409999999999,-0.030007,0.032011000000000005,-0.005577,-0.022165,0.035075,0.013305
658,0.173901,-0.46373000000000003,-0.083518,0.154753,0.447287,-0.880901,-0.024683,0.033045,-0.002336,-0.023587999999999998,0.035242,0.013316
659,0.174492,-0.464142,-0.083411,0.15524100000000002,0.44765600000000005,-0.880627,-0.015128999999999998,0.029785000000000002,0.005212,-0.023344,0.043067,0.010373
660,0.17493,-0.464186,-0.083226,0.155624,0.44769499999999995,-0.88054,0.007184,0.01265,0.008595,-0.017135,0.045195,0.016236
661,0.174969,-0.463764,-0.083137,0.155691,0.44731800000000005,-0.8807200000000001,0.029169999999999998,-0.005075,0.007673,-0.012944999999999998,0.048853,0.016492
662,0.174689,-0.46304799999999996,-0.083079,0.1555,0.44667799999999996,-0.881078,0.039771,-0.014721000000000001,0.013101,-0.00636,0.038475999999999996,0.008627
663,0.174509,-0.46233500000000005,-0.082945,0.155396,0.446039,-0.8814200000000001,0.030212,-0.006161,0.011955,-0.000993,0.040274000000000004,0.007519
664,0.174816,-0.462005,-0.08283099999999999,0.155692,0.445744,-0.881517,0.013306,0.025874,0.007523,0.00187,0.033839999999999995,0.0049759999999999995
665,0.175809,-0.461925,-0.082825,0.156574,0.44567299999999993,-0.881397,0.000709,0.063237,-0.001159,-0.004032,0.030095999999999998,0.010486
666,0.177446,-0.462215,-0.082887,0.157994,0.445932,-0.8810120000000001,-0.018341,0.09527000000000001,-0.003469,-0.014958,0.032187,0.011078
667,0.17972,-0.46285200000000004,-0.082781,0.159946,0.44650200000000007,-0.8803709999999999,-0.038539,0.11768599999999999,0.00277,-0.023197,0.036788999999999995,-4.6e-05
668,0.182507,-0.463765,-0.082331,0.162325,0.44731800000000005,-0.8795209999999999,-0.05027,0.13364600000000001,0.017623,-0.024019,0.040871,0.000218
669,0.185273,-0.464766,-0.08154299999999999,0.164674,0.44821400000000006,-0.8786280000000001,-0.055742999999999994,0.114443,0.02936,-0.022218,0.038954,0.020168000000000002
670,0.187167,-0.465503,-0.08086499999999999,0.166276,0.44887299999999997,-0.8779889999999999,-0.024291999999999998,0.058191,0.022168,-0.040956,0.041208999999999996,0.023924
671,0.187946,-0.46535,-0.080053,0.166973,0.44873500000000005,-0.877927,0.016985,0.005763,0.043887,-0.034481,0.026102999999999998,0.025098
672,0.187581,-0.464582,-0.079324,0.166717,0.44805,-0.878326,0.032757999999999995,-0.052853,0.036594999999999996,-0.02745,0.025568,0.016556
673,0.186557,-0.464114,-0.07893,0.165857,0.44763100000000006,-0.8787020000000001,0.012583,-0.048452999999999996,0.019357,-0.00065,0.041368,-0.003057
674,0.185995,-0.46395600000000004,-0.078864,0.165376,0.44748999999999994,-0.878865,0.008584,-0.011064000000000001,-0.003151,0.006148,0.044606,0.013295
675,0.185559,-0.46375500000000003,-0.079221,0.16501,0.447309,-0.879026,0.018258,-0.011034,-0.019107,0.019957,0.039629000000000004,0.012128
676,0.185047,-0.463588,-0.079912,0.164573,0.447161,-0.879183,0.012981,-0.009903,-0.030895999999999996,0.010186,0.02928,0.013094
677,0.184346,-0.46369799999999994,-0.080512,0.163948,0.447258,-0.87925,-0.006337,-0.026913999999999997,-0.022463,0.006249,0.03141,0.013359999999999999
678,0.183854,-0.464171,-0.080714,0.163476,0.44768199999999997,-0.879123,-0.025658999999999998,-0.016143,-0.00761,-0.006906,0.035778,0.005893
679,0.183947,-0.464789,-0.080562,0.163508,0.448234,-0.878835,-0.02563,0.000858,0.00305,-0.035136,0.040291,0.008581
680,0.184186,-0.465153,-0.080278,0.163687,0.44856,-0.8786360000000001,-0.011784999999999999,0.00185,0.009555,-0.044775,0.038837,0.01241
681,0.184318,-0.46524399999999994,-0.07995,0.163797,0.44864,-0.878574,-0.001135,0.001795,0.013902000000000001,-0.044778,0.036223000000000005,0.008411
682,0.184577,-0.46517,-0.079582,0.16403,0.448574,-0.8785639999999999,0.006343,0.009205,0.019286,-0.043867,0.033817,0.007698999999999999
683,0.185137,-0.465001,-0.079183,0.164535,0.448424,-0.878547,0.007495999999999999,0.030498,0.021403,-0.035705,0.03615,0.007345999999999999
684,0.18600799999999998,-0.464873,-0.07874099999999999,0.165312,0.44831000000000004,-0.878459,0.003281,0.043292000000000004,0.022425999999999998,-0.019148,0.035332999999999996,0.008815
685,0.187031,-0.46470200000000006,-0.078386,0.166225,0.44815699999999997,-0.878365,0.008784,0.050331,0.018249,-0.006084,0.030954000000000002,0.015252000000000002
686,0.187829,-0.46448900000000004,-0.078234,0.166943,0.447966,-0.878326,0.009837,0.036521,0.007592,0.00835,0.032884,0.014511000000000001
687,0.188141,-0.464311,-0.078308,0.167232,0.44780699999999996,-0.878352,0.009779000000000001,0.014188999999999998,-0.001994,0.019169,0.034111,0.007899
688,0.188013,-0.46422700000000006,-0.078499,0.167127,0.44773199999999996,-0.878411,0.006511,-0.007079,-0.008399,0.019687,0.033164,0.010520999999999999
689,0.18767799999999998,-0.464286,-0.078737,0.166827,0.447784,-0.878441,-0.0009609999999999999,-0.011302,-0.011651,0.011731,0.035995,0.018303
690,0.18723299999999998,-0.464395,-0.079011,0.166428,0.44788199999999995,-0.878467,0.003239,-0.028352,-0.013736000000000002,-0.005493,0.036539,0.015094
691,0.18629600000000002,-0.464371,-0.079264,0.165606,0.44786099999999995,-0.878633,0.005258,-0.051803999999999996,-0.011555,-0.014528999999999999,0.034332,0.00966
692,0.185057,-0.464441,-0.07950399999999999,0.164512,0.44792299999999996,-0.878806,0.000947,-0.062437,-0.01264,-0.022285,0.032438999999999996,0.008262
693,0.183845,-0.46454300000000004,-0.079794,0.163438,0.448014,-0.8789600000000001,0.001004,-0.051775999999999996,-0.014790000000000001,-0.031159,0.03723,0.003426
694,0.183016,-0.46462200000000003,-0.08012000000000001,0.162703,0.448085,-0.8790610000000001,0.0032530000000000002,-0.026217,-0.014806999999999999,-0.037596,0.034291,0.00464
695,0.182609,-0.46471,-0.080444,0.162338,0.448164,-0.8790879999999999,-0.000923,-0.005961999999999999,-0.014862,-0.035324,0.036654,0.006774
696,0.18243900000000002,-0.464816,-0.080734,0.16218,0.448258,-0.8790690000000001,-0.000909,0.001477,-0.010598,-0.025720999999999997,0.03807,0.009470000000000001
697,0.182419,-0.46484200000000003,-0.08090599999999999,0.16216,0.44828100000000004,-0.8790610000000001,0.002292,0.008893,-0.0031079999999999997,-0.01975,0.041587,0.008181
698,0.182534,-0.464699,-0.08094900000000001,0.162272,0.44815299999999997,-0.8791049999999999,0.014003,0.010953000000000001,0.004449,-0.015101,0.043102999999999995,0.012467
699,0.182643,-0.464271,-0.080864,0.162403,0.44777100000000003,-0.8792760000000001,0.025681,0.0066170000000000005,0.013082,-0.012898,0.041502,0.013599000000000002
700,0.18268800000000002,-0.463714,-0.080676,0.16248900000000002,0.447273,-0.8795139999999999,0.026695,-0.0008609999999999999,0.017371,-0.009396999999999999,0.03495,0.007657
701,0.182807,-0.463291,-0.080361,0.162627,0.44689399999999996,-0.8796809999999999,0.017098,0.003421,0.020503,-0.009108,0.03211,0.007229000000000001
702,0.18319000000000002,-0.463063,-0.079946,0.162983,0.446691,-0.879718,0.007534999999999999,0.014099,0.022559,-0.010395,0.031947,0.008624
703,0.183592,-0.462897,-0.079558,0.16335,0.446542,-0.879726,0.007534999999999999,0.009855,0.018292,-0.012105,0.036872,0.008601000000000001
704,0.183792,-0.46276300000000004,-0.079233,0.163537,0.44642200000000004,-0.8797520000000001,0.006449,0.001353,0.014022,-0.016212999999999998,0.030842,0.011694
705,0.183909,-0.462591,-0.079011,0.163654,0.44626899999999997,-0.879808,0.006468000000000001,0.002431,0.010816,-0.015979,0.027058999999999996,0.010515
706,0.18412,-0.46248500000000003,-0.078861,0.163848,0.44617399999999996,-0.87982,0.005449,0.009904999999999999,0.007595,-0.018157,0.028863,0.009764
707,0.184338,-0.462437,-0.078723,0.164044,0.44613,-0.879805,0.0054399999999999995,0.007774,0.007598000000000001,-0.020993,0.030661,0.007644
708,0.184496,-0.46234899999999995,-0.078591,0.16419,0.44605100000000003,-0.879818,0.003296,0.0045899999999999995,0.006519,-0.016973,0.033273000000000004,0.005184
709,0.184539,-0.462362,-0.078576,0.164227,0.446064,-0.879805,0.000125,0.004627,8.7e-05,-0.009869,0.035275,0.011106999999999999
710,0.184615,-0.462337,-0.07866000000000001,0.164296,0.44604099999999997,-0.8798030000000001,0.0033590000000000004,0.007828,-0.0041670000000000006,-0.010655,0.036487,0.014172
711,0.184596,-0.462348,-0.07878500000000001,0.164278,0.44605100000000003,-0.8798020000000001,0.002258,0.001436,-0.0030989999999999998,-0.012148,0.036997,0.008937
712,0.184389,-0.46234,-0.078834,0.164097,0.446043,-0.87984,0.004311,-0.013498,0.00014,-0.012272,0.036058,0.011706
713,0.183923,-0.46224499999999996,-0.07889199999999999,0.163694,0.445959,-0.879957,0.009602,-0.026287,-0.003012,-0.011564,0.032618,0.016188
714,0.18316,-0.46205,-0.07904,0.16303800000000002,0.445784,-0.8801680000000001,0.014883,-0.041206,-0.0061600000000000005,-0.015378999999999999,0.032686,0.012736
715,0.182073,-0.46182799999999996,-0.07925499999999999,0.1621,0.445585,-0.8804420000000001,0.014835,-0.05292,-0.007214,-0.014242,0.033266000000000004,0.006281
716,0.180925,-0.46171899999999994,-0.07950700000000001,0.161098,0.445488,-0.880675,0.007406,-0.048616,-0.011544,-0.013987999999999999,0.02932,0.00627
717,0.180014,-0.461682,-0.07984,0.160298,0.44545500000000005,-0.8808370000000001,0.005358,-0.033677,-0.015851,-0.016331000000000002,0.030986,0.0066
718,0.17921099999999998,-0.461693,-0.080216,0.15959,0.445464,-0.8809610000000001,0.004306,-0.031539,-0.016929,-0.018126,0.032333999999999995,0.009181
719,0.178282,-0.46170100000000003,-0.08066,0.158771,0.44547200000000003,-0.8811049999999999,0.005353,-0.038987,-0.020117,-0.014528999999999999,0.035561,0.006884
720,0.177315,-0.46167600000000003,-0.081151,0.157921,0.445449,-0.8812700000000001,0.008826,-0.033737,-0.021154,-0.011361,0.030594999999999997,0.009733
721,0.17641600000000002,-0.461662,-0.081712,0.15713,0.44543699999999997,-0.881417,0.004604,-0.031629000000000004,-0.024401,-0.013758000000000001,0.034605000000000004,0.006494
722,0.175562,-0.46178500000000006,-0.082241,0.156367,0.445547,-0.881497,-0.0017980000000000001,-0.029485,-0.022312000000000002,-0.014994,0.040156,0.008603
723,0.174879,-0.46187799999999996,-0.082651,0.15575799999999998,0.44563,-0.8815629999999999,0.001413,-0.019939,-0.014824,-0.015683000000000002,0.039844,0.006136
724,0.174546,-0.46190200000000003,-0.082872,0.15546300000000002,0.445651,-0.881604,0.005679999999999999,-0.009344,-0.0041259999999999995,-0.026144,0.043042000000000004,0.006742000000000001
725,0.174407,-0.461765,-0.082817,0.15535,0.445529,-0.8816860000000001,0.007770999999999999,-0.006206000000000001,0.008703,-0.029664,0.041425,0.006762000000000001
726,0.174448,-0.461537,-0.082578,0.155404,0.445324,-0.8817799999999999,0.016296,-0.0009400000000000001,0.016234000000000002,-0.030313,0.038639,0.010442
727,0.174529,-0.461095,-0.082311,0.15550999999999998,0.444929,-0.8819610000000001,0.025893,-0.000977,0.017369,-0.029488,0.038744,0.009433
728,0.17466900000000002,-0.460401,-0.082014,0.155687,0.44430699999999995,-0.882243,0.034428,0.002176,0.020628999999999998,-0.027575,0.040037,0.00944
729,0.174967,-0.45970200000000006,-0.081702,0.156004,0.44368100000000005,-0.882502,0.034480000000000004,0.017077000000000002,0.023815,-0.018003,0.033034,0.007379999999999999
730,0.175464,-0.45901099999999995,-0.081393,0.156496,0.443061,-0.882726,0.033457,0.020079,0.019517,-0.009370999999999999,0.032264999999999995,0.006993999999999999
731,0.17583800000000002,-0.458347,-0.081192,0.156878,0.44246599999999997,-0.882957,0.031319,0.013716999999999998,0.014169,-0.004168,0.026375,0.010261
732,0.175975,-0.457876,-0.081084,0.15703499999999998,0.44204399999999994,-0.883141,0.020617,0.002053,0.009837,-0.004111999999999999,0.026614999999999996,0.010582
733,0.175862,-0.457617,-0.08099400000000001,0.15695599999999998,0.44181099999999995,-0.8832709999999999,0.010967,-0.009627,0.008716,-0.009373000000000001,0.032722,0.010865000000000001
734,0.175727,-0.45745,-0.080821,0.156849,0.441662,-0.883365,0.009890000000000001,-0.009632,0.010845,-0.013919999999999998,0.029987,0.009951999999999999
735,0.17564100000000002,-0.45731700000000003,-0.080576,0.156783,0.441542,-0.8834360000000001,0.003475,-0.011744,0.011871,-0.020003999999999997,0.026688999999999997,0.0055060000000000005
736,0.175551,-0.45735600000000004,-0.08040499999999999,0.156701,0.44157700000000005,-0.883433,-0.005002,-0.006358,0.004327,-0.020409,0.027814,0.006816
737,0.175476,-0.457517,-0.080373,0.156622,0.441722,-0.883375,-0.006026,-0.004194,-0.00316,-0.021033,0.029897000000000003,0.010664
738,0.175289,-0.457795,-0.080486,0.156435,0.441971,-0.883283,-0.013604,-0.007547,-0.008684,-0.016604,0.031784,0.007840999999999999
739,0.174973,-0.458137,-0.080724,0.15613,0.44227799999999995,-0.883184,-0.014666,-0.011783,-0.014027000000000001,-0.011354000000000001,0.032987,0.008245
740,0.174522,-0.45848999999999995,-0.081062,0.155704,0.442594,-0.883101,-0.012528000000000001,-0.014969,-0.018281,-0.008075,0.034838,0.012570999999999999
741,0.173989,-0.458867,-0.081468,0.155204,0.44293299999999997,-0.883019,-0.014647,-0.014949,-0.021501,-0.005485,0.033309,0.009209
742,0.173528,-0.459261,-0.081952,0.15476700000000002,0.44328500000000004,-0.882919,-0.013541999999999998,-0.010675,-0.025771,-0.004758,0.036909,0.012206
743,0.173006,-0.45953900000000003,-0.082528,0.15428499999999998,0.443535,-0.882877,-0.002888,-0.016030000000000003,-0.027826999999999998,-0.00864,0.03675,0.012592
744,0.172252,-0.45965200000000006,-0.083165,0.153612,0.443636,-0.8829440000000001,0.004536999999999999,-0.027764999999999998,-0.029896,-0.013856,0.036832,0.011590999999999999
745,0.171214,-0.45952200000000004,-0.083875,0.152704,0.44351999999999997,-0.8831600000000001,0.018203,-0.041759,-0.029898,-0.016108,0.038963,0.010357
746,0.16991199999999998,-0.459222,-0.084578,0.151577,0.443251,-0.883489,0.024547,-0.051382000000000004,-0.026637,-0.021038,0.039873,0.007451999999999999
747,0.1686,-0.458834,-0.08519199999999999,0.150447,0.442903,-0.883857,0.027718,-0.05248,-0.021272,-0.026454000000000002,0.038848,0.008140000000000001
748,0.167349,-0.45830200000000004,-0.08569700000000001,0.14937999999999999,0.44242600000000004,-0.8842760000000001,0.0341,-0.050397000000000004,-0.014821,-0.028286000000000002,0.037478,0.010573
749,0.166169,-0.45766899999999994,-0.086096,0.148382,0.441859,-0.8847280000000001,0.037282,-0.049364,-0.009459,-0.029927999999999996,0.035055,0.006768000000000001
750,0.165188,-0.457086,-0.08640199999999999,0.147557,0.44133500000000003,-0.885127,0.030943000000000002,-0.033371,-0.007387,-0.021351,0.034037,0.00236
751,0.16472,-0.45659399999999994,-0.08666900000000001,0.147179,0.44089300000000003,-0.88541,0.027848,-0.007802,-0.005305,-0.016609,0.028970999999999997,0.009785
752,0.16436900000000002,-0.45609700000000003,-0.08693200000000001,0.146903,0.44044700000000003,-0.8856780000000001,0.024609,-0.017374,-0.006384,-0.017143000000000002,0.027295999999999997,0.010647
753,0.163673,-0.455746,-0.087199,0.146312,0.44013199999999997,-0.885933,0.018165,-0.026938999999999998,-0.006416,-0.013332,0.033287,0.003975
754,0.163212,-0.455571,-0.087364,0.14591600000000002,0.439975,-0.886076,0.008634999999999999,-0.006683,-0.002236,-0.016644,0.033077999999999996,0.017454
755,0.163209,-0.455362,-0.08748600000000001,0.145929,0.439788,-0.886167,0.00975,0.002905,-0.0033090000000000003,-0.021737,0.029847000000000002,0.015194999999999998
756,0.16308,-0.455416,-0.087565,0.14581,0.43983599999999995,-0.8861620000000001,-0.0062770000000000005,-0.002365,-0.003414,-0.012494,0.039412,0.000802
757,0.163267,-0.455629,-0.08757899999999999,0.14596099999999998,0.44002700000000006,-0.886043,-0.006181,0.021062,-0.001307,-0.007548,0.03829,0.014216
758,0.163767,-0.45552200000000004,-0.08768300000000001,0.146412,0.439931,-0.886016,0.017313,0.023122999999999998,-0.00435,-0.015643999999999998,0.04005,0.02217
759,0.163462,-0.455082,-0.087976,0.146173,0.439536,-0.886252,0.026743,-0.021626,-0.010636,-0.010492,0.040475,0.002554
760,0.162926,-0.454725,-0.088269,0.145723,0.43921499999999997,-0.8864850000000001,0.017184,-0.010944,-0.009648,-0.000612,0.035791,-0.000356
761,0.162933,-0.45454399999999995,-0.088515,0.145742,0.43905299999999997,-0.8865620000000001,0.013008,0.011433,-0.00757,-0.008688,0.034152999999999996,0.011545999999999999
762,0.162899,-0.45424899999999996,-0.088716,0.145733,0.438788,-0.8866940000000001,0.023576,-0.006731,-0.0032,-0.027737,0.028696,0.020041
763,0.162497,-0.45375600000000005,-0.088771,0.14541099999999998,0.438345,-0.886966,0.027738,-0.020632,0.006461,-0.044368,0.022928999999999998,0.015507
764,0.16226500000000002,-0.45325600000000005,-0.088591,0.145241,0.437895,-0.887217,0.022413,-0.011056,0.013888999999999999,-0.043281,0.02997,0.000544
765,0.162439,-0.45292299999999996,-0.08824800000000001,0.145419,0.437596,-0.887335,0.018189,0.003851,0.019181999999999998,-0.041599000000000004,0.031412999999999996,-0.001871
766,0.16262000000000001,-0.45237700000000003,-0.087866,0.145618,0.437105,-0.887544,0.029870999999999998,-0.0026030000000000003,0.024613,-0.027438999999999998,0.025206,0.0029010000000000004
767,0.16228,-0.45174200000000003,-0.087576,0.145361,0.43653400000000003,-0.887867,0.027651,-0.030257999999999997,0.016087,-0.015416999999999998,0.020986,0.006718000000000001
768,0.161694,-0.45151499999999994,-0.08737,0.14485699999999999,0.436329,-0.88805,0.001023,-0.025883,0.010554000000000001,-0.006261999999999999,0.037518,0.015827
769,0.160691,-0.45147299999999996,-0.08759199999999999,0.143969,0.436292,-0.8882129999999999,0.008515,-0.054534000000000006,-0.023540000000000002,0.012311,0.031497000000000004,0.010237999999999999
