,attitude.roll,attitude.pitch,attitude.yaw,gravity.x,gravity.y,gravity.z,rotationRate.x,rotationRate.y,rotationRate.z,userAcceleration.x,userAcceleration.y,userAcceleration.z
0,0.645817,-1.5600370000000001,-0.914172,0.005732,0.999942,-0.007606,0.28574299999999997,0.149428,-0.161834,-0.009837,0.024487000000000002,0.096839
1,0.30388699999999996,-1.557204,-1.263079,0.003783,0.999908,-0.012064,0.22046,0.416738,-0.086788,-0.00328,0.007142,0.056711000000000004
2,0.199751,-1.554801,-1.377666,0.003015,0.999872,-0.014894,0.17805,0.540198,-0.022081,0.0069489999999999994,-0.012262,0.050401999999999995
3,0.181593,-1.55172,-1.406762,0.003325,0.999818,-0.018108000000000003,0.188431,0.52399,0.026082,0.019517,-0.012361,0.047054
4,0.198799,-1.549459,-1.3994030000000002,0.004098,0.9997719999999999,-0.020340999999999998,0.137924,0.46018100000000006,0.042901999999999996,0.06983099999999999,0.009017,0.032761
5,0.21649000000000002,-1.547374,-1.389714,0.004915999999999999,0.999726,-0.02235,0.107649,0.35382800000000003,0.025736000000000002,0.071119,0.01593,0.033184
6,0.209242,-1.545411,-1.402287,0.005168,0.9996780000000001,-0.024339,0.144481,0.214254,-0.000534,0.052052,0.021256999999999998,0.049791
7,0.186587,-1.542352,-1.428346,0.005193,0.9995950000000001,-0.027506,0.196521,0.143844,-0.018244,0.023066999999999997,0.022575,0.059489
8,0.152352,-1.537962,-1.4653969999999998,0.004924,0.999461,-0.032070999999999995,0.256275,0.135155,-0.028498000000000002,0.007863,0.025899000000000002,0.065701
9,0.14416700000000002,-1.532742,-1.4766350000000001,0.005418,0.999276,-0.037322,0.29472,0.16158,-0.010104,-0.040681,0.008414,0.051315
10,0.141035,-1.527056,-1.483952,0.006106,0.999044,-0.04301,0.306671,0.237062,0.017657,-0.05588099999999999,-0.014791,0.039836
11,0.144819,-1.521687,-1.486083,0.0070480000000000004,0.9987940000000001,-0.048325,0.281426,0.326596,0.02698,-0.057219000000000006,-0.029952999999999997,0.027085
12,0.145886,-1.516874,-1.492473,0.007802,0.998547,-0.053101,0.26679200000000003,0.39482,0.027857999999999997,-0.053884,-0.030941000000000003,0.023132
13,0.148874,-1.512002,-1.498043,0.008685,0.9982719999999999,-0.05790700000000001,0.276528,0.449017,0.052426,-0.060916,-0.021527,0.009857
14,0.161215,-1.5066620000000002,-1.4954290000000001,0.010256999999999999,0.997944,-0.063072,0.29686599999999996,0.5063,0.095224,-0.069873,-0.000904,0.005104
15,0.181774,-1.500377,-1.485388,0.012689,0.9975219999999999,-0.069036,0.341659,0.540083,0.132881,-0.074075,0.022116999999999998,-0.0032450000000000005
16,0.20169,-1.493168,-1.476532,0.015505000000000001,0.9969879999999999,-0.07583,0.39074899999999996,0.5632659999999999,0.15349000000000002,-0.067217,0.036032,-0.01293
17,0.22322199999999998,-1.4844899999999999,-1.46623,0.019052,0.9962780000000001,-0.083928,0.441983,0.559926,0.145307,-0.061730999999999994,0.039869999999999996,-0.012278
18,0.233893,-1.4749700000000001,-1.466124,0.022147,0.9954120000000001,-0.09295700000000001,0.486695,0.507695,0.11470699999999999,-0.060476999999999996,0.037211,-0.010208
19,0.228546,-1.465388,-1.480758,0.023813,0.99445,-0.102373,0.503592,0.44063900000000006,0.086069,-0.041513,0.025845,-0.016812999999999998
20,0.22349000000000002,-1.455783,-1.493607,0.025412999999999998,0.9933930000000001,-0.111811,0.48728299999999997,0.350236,0.063639,-0.027946,0.008911,-0.018621000000000002
21,0.220054,-1.4465620000000001,-1.503074,0.027029,0.992293,-0.12084,0.449612,0.273681,0.060269,-0.021154,0.007157999999999999,-0.017039
22,0.21555100000000002,-1.438436,-1.51255,0.028208999999999998,0.991253,-0.128838,0.403564,0.23761300000000002,0.06213,-0.005092,0.000522,-0.014381
23,0.215729,-1.430869,-1.516883,0.029838,0.990226,-0.13616099999999998,0.36608,0.22064,0.07684500000000001,-0.011238,-0.00041900000000000005,-0.028968999999999998
24,0.221777,-1.42384,-1.51546,0.032192,0.9892209999999999,-0.142768,0.329797,0.24516100000000002,0.10326600000000001,-0.019543,0.007696,-0.029595
25,0.231886,-1.417248,-1.5106600000000001,0.035133,0.9882350000000001,-0.148783,0.312761,0.285569,0.13621,-0.046287,0.0036479999999999998,-0.023305000000000003
26,0.24752399999999997,-1.4105,-1.5013530000000002,0.039089,0.98718,-0.15468099999999999,0.312866,0.35038400000000003,0.177788,-0.047084,-0.012159,-0.024228
27,0.269853,-1.40344,-1.486637,0.04439,0.986029,-0.160486,0.30437,0.41304700000000005,0.23212800000000003,-0.043322,-0.014837000000000001,-0.025945999999999997
28,0.297016,-1.396276,-1.467791,0.0508,0.9848100000000001,-0.165974,0.29035700000000003,0.439493,0.290748,-0.04372,-0.005806,-0.034298
29,0.325832,-1.3891790000000002,-1.447408,0.057797,0.983553,-0.171061,0.27311399999999997,0.44894799999999996,0.338686,-0.033993999999999996,-2e-06,-0.052221000000000004
30,0.360193,-1.381823,-1.421615,0.066189,0.9821979999999999,-0.175743,0.262292,0.453093,0.37706100000000004,-0.041957999999999995,-0.007390000000000001,-0.056526
31,0.393627,-1.3741780000000001,-1.396451,0.074905,0.980733,-0.180364,0.265253,0.42634399999999995,0.403821,-0.035355000000000004,0.00022400000000000002,-0.083674
32,0.426213,-1.365672,-1.3711229999999999,0.084189,0.979036,-0.18542,0.29566,0.36740700000000004,0.46393,-0.022635,0.005248,-0.10959300000000001
33,0.455546,-1.3557700000000001,-1.348112,0.09385299999999999,0.9769709999999999,-0.19157000000000002,0.363954,0.351267,0.44519899999999996,0.005009,0.035526,-0.096287
34,0.47694,-1.344416,-1.333124,0.10301600000000001,0.974485,-0.199363,0.45675200000000005,0.333949,0.433051,0.033901,0.039858,-0.118127
35,0.49187700000000006,-1.331628,-1.324294,0.11186099999999999,0.971535,-0.20877300000000001,0.542192,0.318878,0.398416,0.049379,0.0456,-0.09878300000000001
36,0.497978,-1.317827,-1.325056,0.119528,0.968173,-0.21985,0.6333880000000001,0.351908,0.317826,0.039682,0.023877000000000002,-0.102065
37,0.495792,-1.303218,-1.333409,0.12576400000000001,0.964414,-0.23252899999999999,0.706992,0.25190799999999997,0.220192,0.01094,-0.013775999999999998,-0.060973
38,0.485304,-1.289093,-1.3481040000000002,0.129661,0.960583,-0.245864,0.698433,0.148999,0.12198699999999998,0.0064010000000000004,-0.052182000000000006,-0.036638
39,0.470131,-1.276406,-1.366085,0.131427,0.9569790000000001,-0.258648,0.6547970000000001,0.08027999999999999,0.028835000000000003,-0.001666,-0.079706,-0.033496
40,0.453129,-1.26536,-1.385429,0.131631,0.953716,-0.270334,0.583595,0.076533,-0.037887,-0.000772,-0.097088,-0.045202
41,0.437367,-1.256512,-1.403934,0.130924,0.951018,-0.280011,0.47077600000000003,0.09944800000000001,-0.07609199999999999,-0.0052369999999999995,-0.087019,-0.055164
42,0.42411499999999996,-1.2501520000000002,-1.420121,0.129689,0.949032,-0.28722800000000004,0.34830300000000003,0.10855699999999999,-0.11648399999999999,-0.006855,-0.082074,-0.039142
43,0.41108599999999995,-1.2464680000000001,-1.435748,0.127332,0.947865,-0.292097,0.20543000000000003,0.067754,-0.178318,-0.010419,-0.082188,-0.040681999999999996
44,0.39803,-1.246745,-1.449914,0.123405,0.947953,-0.29349200000000003,-0.018731,-0.011145,-0.233194,0.001946,-0.081544,-0.035457
45,0.38626900000000003,-1.251525,-1.461476,0.118237,0.949464,-0.290721,-0.22570300000000001,-0.051801,-0.276248,0.000782,-0.09625399999999999,-0.039448000000000004
46,0.37582,-1.260141,-1.4710299999999998,0.112186,0.952133,-0.284321,-0.411322,-0.080847,-0.31062199999999995,-0.009616,-0.116898,-0.047557999999999996
47,0.36492199999999997,-1.27149,-1.479755,0.105216,0.955541,-0.275412,-0.5139859999999999,-0.16028199999999998,-0.336875,-0.032325,-0.142645,-0.039636000000000005
48,0.35168499999999997,-1.284271,-1.489113,0.097346,0.959232,-0.26529200000000003,-0.569736,-0.243089,-0.359591,-0.036891,-0.148837,-0.046354
49,0.335835,-1.2980610000000001,-1.499708,0.08876,0.963038,-0.254286,-0.6189979999999999,-0.304622,-0.380152,-0.052185,-0.047373,-0.08766399999999999
50,0.318353,-1.312697,-1.511131,0.07987999999999999,0.9668770000000001,-0.24238099999999999,-0.646861,-0.295087,-0.342971,-0.049881,0.057964,-0.095799
51,0.306111,-1.326031,-1.5187389999999998,0.073013,0.970194,-0.23102199999999998,-0.5709989999999999,-0.189149,-0.261392,-0.002014,0.197988,-0.18967799999999999
52,0.303647,-1.3362559999999999,-1.5199799999999999,0.06947300000000001,0.972621,-0.22171999999999997,-0.422533,0.023748,-0.084372,0.01944,0.258748,-0.16039
53,0.311233,-1.3427120000000001,-1.513372,0.069228,0.974101,-0.215202,-0.28726199999999996,0.064457,0.00732,0.053926,0.23711100000000002,-0.139092
54,0.323389,-1.346444,-1.501855,0.07068300000000001,0.974938,-0.210896,-0.167291,0.013649000000000001,0.08834,0.127056,0.274146,-0.096569
55,0.33270700000000003,-1.348012,-1.490695,0.072145,0.9752860000000001,-0.20878200000000002,-0.09538200000000001,-0.156932,0.06021900000000001,0.046415,0.17663099999999998,-0.027286
56,0.320362,-1.349892,-1.4968700000000001,0.068985,0.9757,-0.20791500000000002,-0.050492,-0.397864,-0.19980499999999998,-0.05927999999999999,0.044305000000000004,0.006103
57,0.280039,-1.353125,-1.528176,0.059675,0.976403,-0.20749499999999999,-0.071249,-0.537326,-0.47003199999999995,-0.113935,-0.11560899999999999,0.026892000000000003
58,0.22139699999999998,-1.358544,-1.5764049999999998,0.046248000000000004,0.9775590000000001,-0.20546799999999998,-0.181869,-0.5833189999999999,-0.592526,-0.10195800000000001,-0.198979,0.025002
59,0.164967,-1.365975,-1.6232010000000001,0.033392000000000005,0.9790969999999999,-0.200576,-0.323766,-0.484154,-0.49323199999999995,-0.076711,-0.188326,0.0050799999999999994
60,0.127396,-1.374941,-1.65352,0.024717,0.9808819999999999,-0.192969,-0.44571400000000005,-0.343966,-0.280619,-0.045912,-0.12606900000000001,0.01351
61,0.111936,-1.385649,-1.662971,0.020556,0.982909,-0.182876,-0.559502,-0.30281399999999997,-0.083845,-0.024707,-0.058639,0.031356
62,0.11113800000000001,-1.397455,-1.6569470000000002,0.019121,0.985014,-0.17134100000000002,-0.61565,-0.358388,0.009837,-0.041979,-0.009855,0.07394400000000001
63,0.110944,-1.410272,-1.6496549999999999,0.017688,0.987144,-0.158777,-0.653874,-0.365519,-0.038489999999999996,-0.052904999999999994,0.021691,0.08895299999999999
64,0.098828,-1.423054,-1.6549669999999999,0.014516,0.9891059999999999,-0.146404,-0.596727,-0.331228,-0.138548,-0.03304,0.039016,0.043910000000000005
65,0.076498,-1.433634,-1.671212,0.010443000000000001,0.990608,-0.136243,-0.472688,-0.297457,-0.16656700000000002,0.009028,0.043495,0.010602
66,0.051004,-1.441972,-1.691485,0.0065450000000000005,0.991714,-0.12820299999999998,-0.367987,-0.253128,-0.154142,0.0021379999999999997,0.038041000000000005,-0.001268
67,0.022257,-1.4489040000000002,-1.7157200000000001,0.002704,0.9925799999999999,-0.121455,-0.306003,-0.21717600000000004,-0.14093599999999998,-0.040347,0.032382999999999995,0.006297
68,-0.00215,-1.454485,-1.736375,-0.00024900000000000004,0.993243,-0.11593800000000001,-0.25476,-0.186557,-0.11711700000000001,-0.043894,0.022931,0.003878
69,-0.016692,-1.4587700000000001,-1.748793,-0.001864,0.993732,-0.111661,-0.175626,-0.071017,-0.041937,-0.067136,0.018201,-0.000583
70,-0.015645,-1.461225,-1.747584,-0.001709,0.9940030000000001,-0.10921700000000001,-0.106179,0.021138,0.028932999999999997,-0.070023,-0.002914,0.034541
71,-0.001917,-1.4635799999999999,-1.734616,-0.000205,0.994258,-0.106887,-0.140534,0.04759,0.10343499999999999,-0.032098,-0.012903999999999999,0.045272
72,0.022718000000000002,-1.4673889999999998,-1.710519,0.0023420000000000003,0.994658,-0.103065,-0.22832399999999997,0.018976,0.14238199999999998,-0.022285,-0.0040880000000000005,0.034462
73,0.045824000000000004,-1.472634,-1.686566,0.004483,0.995186,-0.097762,-0.279859,-0.066015,0.129313,0.003177,0.005287,0.007461
74,0.063934,-1.4778209999999998,-1.666307,0.005922,0.9956809999999999,-0.09250499999999999,-0.24053400000000003,-0.108725,0.120028,0.028212,0.020676,-0.0086
75,0.087483,-1.481478,-1.6401330000000003,0.00778,0.996014,-0.08870499999999999,-0.15417999999999998,-0.134547,0.10891400000000001,0.019274,0.014072,-0.009028
76,0.1067,-1.48359,-1.617753,0.009259,0.9962,-0.08644299999999999,-0.091279,-0.158147,0.095497,-0.004268999999999999,0.010712000000000001,0.001482
77,0.12474600000000001,-1.48517,-1.596172,0.010621,0.9963360000000001,-0.084699,-0.089174,-0.178339,0.08165,-0.023087,0.005235,0.019193
78,0.143232,-1.486691,-1.5741290000000001,0.011968000000000001,0.9964649999999999,-0.082986,-0.09764600000000001,-0.168705,0.077306,-0.009466,-0.017353999999999998,0.040994
79,0.167168,-1.488768,-1.547153,0.013606,0.9966379999999999,-0.08063300000000001,-0.13919600000000001,-0.13455599999999998,0.098336,-0.001155,-0.029368000000000002,0.047949
80,0.198456,-1.491295,-1.513096,0.015623,0.996841,-0.077689,-0.15529500000000002,-0.13564600000000002,0.118522,0.007494,-0.011840999999999999,0.040274000000000004
81,0.23118899999999998,-1.494259,-1.477365,0.017478,0.997072,-0.07424800000000001,-0.177752,-0.155774,0.109845,0.026132,-0.002169,0.042952
82,0.267988,-1.497398,-1.436668,0.019366,0.997308,-0.070524,-0.180168,-0.20588499999999998,0.12271099999999999,0.029005,0.022163,0.052213999999999997
83,0.304768,-1.500533,-1.3949639999999999,0.021005000000000003,0.997533,-0.066773,-0.187752,-0.263256,0.090685,-0.000695,-0.038228,0.07560800000000001
84,0.34237199999999995,-1.503496,-1.349693,0.022505,0.9977360000000001,-0.06314299999999999,-0.19876,-0.36749899999999996,0.061899,0.036028,0.125494,0.109866
85,0.372193,-1.50769,-1.314108,0.022848,0.998009,-0.058528,-0.22265100000000002,-0.26286,0.022074,0.005823,0.015356999999999999,0.086756
86,0.406825,-1.511448,-1.275,0.02337,0.998239,-0.054241,-0.191425,-0.18632,0.035013,0.000433,0.046148,0.069133
87,0.441083,-1.513515,-1.237425,0.024329,0.99836,-0.051533,-0.097488,-0.145222,0.065527,-0.0043549999999999995,0.046638,0.058476
88,0.477937,-1.514167,-1.198077,0.025908999999999998,0.998397,-0.050018,-0.046317000000000004,-0.11678800000000002,0.103235,-0.012969,0.030777999999999996,0.064651
89,0.527748,-1.513318,-1.1465670000000001,0.028794999999999998,0.9983489999999999,-0.049401,0.0006490000000000001,-0.036295,0.179304,0.0063,0.034504,0.05465
90,0.584104,-1.511491,-1.0895620000000001,0.032542,0.998242,-0.049227999999999994,0.007031,-0.024663,0.195357,-0.0017800000000000001,0.01807,0.045855
91,0.6401899999999999,-1.508891,-1.033306,0.036805000000000004,0.998084,-0.049413,0.027335,0.010309,0.223228,-0.007965999999999999,0.021477,0.047764999999999995
92,0.6923729999999999,-1.5058719999999999,-0.9819379999999999,0.041261,0.997893,-0.049752,0.032904,0.066732,0.227467,0.029524,-0.009444,0.063363
93,0.742695,-1.502614,-0.933632,0.045917,0.997676,-0.050016000000000005,0.013963999999999999,0.123267,0.22512600000000002,0.042401,-0.01585,0.065962
94,0.792424,-1.500053,-0.886674,0.050171,0.997499,-0.049471,-0.016749,0.153284,0.204577,0.07135,0.001464,0.063265
95,0.8369840000000001,-1.4978420000000001,-0.845159,0.053966999999999994,0.99734,-0.048668,-0.029394,0.155591,0.171371,0.06586,0.007863,0.059837
96,0.874252,-1.496169,-0.811055,0.057025,0.997217,-0.047695999999999995,-0.024881999999999998,0.169586,0.13079200000000002,0.048962,0.022345,0.066113
97,0.907159,-1.494864,-0.78201,0.059591,0.9971190000000001,-0.046597,-0.014863,0.214486,0.082734,0.037974,0.023527,0.070798
98,0.9286139999999999,-1.4940309999999999,-0.765744,0.06124299999999999,0.9970549999999999,-0.045806,-0.013293000000000001,0.29132199999999997,0.047395,0.037024,0.026215,0.07104400000000001
99,0.948801,-1.493375,-0.75234,0.062689,0.9970049999999999,-0.044943000000000004,-0.002193,0.36806,0.028147000000000002,0.037454,0.018086,0.054541
100,0.969269,-1.492802,-0.740287,0.064067,0.9969600000000001,-0.043974,0.014227000000000002,0.451133,0.018541,0.029317000000000003,0.019581,0.019972
101,0.974382,-1.492264,-0.745075,0.064738,0.9969180000000001,-0.04395,0.055152,0.516054,-0.001553,0.029927,0.020386,0.013829
102,0.9682290000000001,-1.491578,-0.762111,0.065032,0.996864,-0.044736,0.10771099999999999,0.551135,-0.029004000000000002,0.037324,0.018441,0.008176000000000001
103,0.948883,-1.490789,-0.792608,0.064795,0.996801,-0.046445,0.14088900000000001,0.548992,-0.054407000000000004,0.039773,0.011895999999999999,0.00485
104,0.921394,-1.48999,-0.8309799999999999,0.06412999999999999,0.9967370000000001,-0.048692,0.159021,0.525582,-0.076683,0.03345,0.011198,0.0047009999999999994
105,0.887809,-1.489251,-0.874791,0.063032,0.996677,-0.051284,0.171751,0.491521,-0.09471,0.024156999999999998,0.009442,0.003432
106,0.8495440000000001,-1.488323,-0.9228129999999999,0.061721000000000005,0.9966010000000001,-0.054270000000000006,0.193055,0.47231899999999993,-0.10628699999999999,0.009843000000000001,0.006954000000000001,0.00828
107,0.808003,-1.487087,-0.9737100000000001,0.060305,0.996498,-0.057638,0.2079,0.44884300000000005,-0.109358,0.003339,0.01464,0.012334999999999999
108,0.7670359999999999,-1.4856209999999999,-1.0236,0.058911,0.996375,-0.061114999999999996,0.201398,0.42755600000000005,-0.10830799999999999,-0.000424,0.012353,0.026417000000000003
109,0.7263930000000001,-1.484181,-1.072777,0.057333,0.996251,-0.064532,0.193895,0.40846,-0.12009,0.011011,0.014186,0.038043
110,0.6868340000000001,-1.4832040000000002,-1.12026,0.055355999999999995,0.996166,-0.067505,0.163927,0.368161,-0.139476,0.034015,0.012333,0.046646
111,0.649197,-1.4829139999999998,-1.164458,0.05295,0.9961409999999999,-0.06976900000000001,0.11878399999999999,0.285261,-0.148231,0.05496,0.003218,0.062094
112,0.616224,-1.483326,-1.201885,0.050385,0.9961770000000001,-0.071143,0.06597,0.168256,-0.146313,0.066452,-0.018134,0.070395
113,0.594014,-1.48471,-1.2262549999999999,0.048019,0.996297,-0.07109800000000001,-0.01993,0.070452,-0.12221900000000001,0.046281,-0.021459,0.06894700000000001
114,0.588487,-1.486716,-1.232538,0.04651,0.996467,-0.06969199999999999,-0.072628,0.025698000000000002,-0.073391,0.013075,-0.014549000000000001,0.055653999999999995
115,0.597481,-1.48858,-1.223962,0.046087,0.9966219999999999,-0.06773,-0.083512,0.020238,-0.030731,0.006418999999999999,-0.0067540000000000005,0.053570000000000007
116,0.6127640000000001,-1.490086,-1.208993,0.046252,0.9967450000000001,-0.065788,-0.07613500000000001,0.016947999999999998,-0.013584,0.0029879999999999998,0.014028,0.05200900000000001
117,0.627517,-1.491209,-1.1949379999999998,0.046560000000000004,0.996835,-0.064193,-0.05681699999999999,0.044569,-0.011348,0.012476000000000001,0.016898,0.041625
118,0.636288,-1.492184,-1.187581,0.046543,0.9969120000000001,-0.062999,-0.034187,0.091375,-0.014455,0.006817,0.016287,0.030925
119,0.639861,-1.492736,-1.1867290000000001,0.046436,0.9969549999999999,-0.062386000000000004,0.004574,0.162644,-0.021753,-0.038517,0.021234,-0.018027
120,0.634432,-1.492591,-1.196204,0.046182,0.996943,-0.06275399999999999,0.050727999999999995,0.217903,-0.027911000000000002,-0.050973000000000004,0.025487,-0.032644
121,0.621876,-1.4918129999999998,-1.213763,0.045844,0.9968819999999999,-0.063961,0.102201,0.26252,-0.041495,-0.07096000000000001,0.021825,-0.043079
122,0.596965,-1.490312,-1.244486,0.045081,0.996763,-0.066326,0.164366,0.295451,-0.07208099999999999,-0.034263,0.011262999999999999,-0.054508
123,0.555158,-1.488164,-1.292417,0.043401,0.9965879999999999,-0.069976,0.21258600000000002,0.295471,-0.118746,-0.011113,0.01211,-0.050187
124,0.49952399999999997,-1.4855129999999999,-1.35372,0.040712,0.996366,-0.07460599999999999,0.25417,0.25604699999999997,-0.152589,0.029113,0.000155,-0.045906999999999996
125,0.43970200000000004,-1.482155,-1.41814,0.037605,0.996074,-0.079941,0.278429,0.196298,-0.150206,0.046257,-0.0044659999999999995,-0.031508999999999995
126,0.38904099999999997,-1.478285,-1.47221,0.034974,0.9957239999999999,-0.085316,0.255608,0.14083299999999999,-0.112907,0.040145,0.002247,-0.013362
127,0.355718,-1.474855,-1.507952,0.033303,0.995401,-0.08964,0.185927,0.100459,-0.07915900000000001,0.015387,-0.006737999999999999,0.014491
128,0.33628600000000003,-1.472855,-1.529292,0.032213,0.995208,-0.092152,0.080197,0.086937,-0.069198,-0.017336,-0.015303,0.021884999999999998
129,0.327748,-1.473207,-1.540016,0.031311,0.995242,-0.092089,-0.052979,0.12363900000000001,-0.074448,-0.038941,-0.018435,0.008288
130,0.32448499999999997,-1.475732,-1.546392,0.030208,0.9954850000000001,-0.089803,-0.13485899999999998,0.163422,-0.095367,-0.031626999999999995,-0.022813,-0.022211
131,0.31619899999999995,-1.479061,-1.5577889999999999,0.028429000000000003,0.9957950000000001,-0.086892,-0.13164800000000002,0.139016,-0.122019,-0.009706999999999999,0.0073939999999999995,-0.067755
132,0.296168,-1.481863,-1.580015,0.025866000000000004,0.9960479999999999,-0.08476900000000001,-0.080597,0.082463,-0.142954,0.00932,0.014769999999999998,-0.071787
133,0.265308,-1.483428,-1.61175,0.022829,0.996186,-0.084018,-0.007286,0.008728,-0.148757,0.033766000000000004,0.01123,-0.07455099999999999
134,0.225411,-1.483276,-1.6509639999999999,0.019493,0.996173,-0.085009,0.062801,-0.0682,-0.152442,0.046013,0.0029879999999999998,-0.052534000000000004
135,0.18556,-1.482026,-1.6889189999999998,0.016321000000000002,0.9960629999999999,-0.08694600000000001,0.10094500000000001,-0.120557,-0.145699,0.052525999999999996,0.007645,-0.045455
136,0.149583,-1.480173,-1.7223110000000001,0.013459,0.9958969999999999,-0.08930700000000001,0.099691,-0.14194,-0.125384,0.052611,0.0068189999999999995,-0.035342
137,0.123556,-1.478424,-1.745818,0.011346,0.9957370000000001,-0.09136,0.071909,-0.124905,-0.09889400000000001,0.044806,-0.00979,-0.037073
138,0.105169,-1.477449,-1.7622330000000002,0.009766,0.9956459999999999,-0.092519,0.043099,-0.089796,-0.062821,0.046173,-0.012172,-0.039668
139,0.099774,-1.4766540000000001,-1.766109,0.009346,0.9955719999999999,-0.093361,0.026981,-0.078171,-0.025561,0.040352,-0.008908,-0.051352999999999996
140,0.099424,-1.476071,-1.7646540000000002,0.009370999999999999,0.995517,-0.093943,0.021407,-0.101707,0.004340999999999999,0.022444,-0.007358,-0.056494
141,0.10123099999999999,-1.475637,-1.76047,0.009584,0.995476,-0.094355,0.018019999999999998,-0.12626600000000002,0.02144,0.014525,-0.008568000000000001,-0.052815999999999995
142,0.108695,-1.474799,-1.750311,0.010379000000000001,0.995396,-0.095109,0.032826,-0.139165,0.037584,0.0076879999999999995,-0.002323,-0.040327999999999996
143,0.11458399999999999,-1.473757,-1.7414610000000001,0.011056999999999999,0.995295,-0.096079,0.046627999999999996,-0.149883,0.041967000000000004,0.005361,-0.00022400000000000002,-0.03742
144,0.11926199999999999,-1.472567,-1.733902,0.011648,0.995179,-0.097203,0.043567,-0.13383299999999998,0.026969999999999997,0.002543,0.0051259999999999995,-0.018062
145,0.119189,-1.4714969999999998,-1.731684,0.011767,0.995074,-0.098261,0.033152,-0.10174,0.002287,-0.00275,0.004697,2.5e-05
146,0.114229,-1.470874,-1.7348849999999998,0.011351,0.9950120000000001,-0.09893500000000001,0.02479,-0.085642,-0.020225,-0.00099,0.004469,0.00011899999999999999
147,0.105972,-1.470431,-1.741196,0.010579999999999999,0.9949680000000001,-0.099462,0.017279,-0.112179,-0.037335,0.000681,0.01875,-0.010478
148,0.093378,-1.470125,-1.750922,0.009355,0.9949370000000001,-0.099887,0.014977,-0.168554,-0.056507,-0.0010689999999999999,0.032208,-0.004864
149,0.075714,-1.47001,-1.7647080000000002,0.007597,0.994925,-0.100151,0.008452,-0.213204,-0.073587,-0.009154,0.01069,-0.00573
150,0.057042999999999996,-1.470185,-1.778819,0.005716,0.994943,-0.1001,-0.013034,-0.240848,-0.06836,-0.011759,0.00315,-0.004804
151,0.041972,-1.470736,-1.7889669999999998,0.004184,0.9949979999999999,-0.099625,-0.032382,-0.250458,-0.046051,-0.023212,-0.0066560000000000005,-0.002792
152,0.031447,-1.471566,-1.7947009999999999,0.003109,0.995081,-0.09883600000000001,-0.044155,-0.233475,-0.020516999999999997,-0.025889999999999996,-0.005594,-0.005382
153,0.026808,-1.472333,-1.7951400000000002,0.00263,0.9951559999999999,-0.098084,-0.034506,-0.19527,0.007275,-0.024084,-0.0009550000000000001,-0.010740999999999999
154,0.028194999999999998,-1.472632,-1.7903959999999999,0.002758,0.995186,-0.09778200000000001,-0.004567,-0.151813,0.03627,-0.018154,0.005516,-0.0126
155,0.035108999999999994,-1.472261,-1.780805,0.003447,0.995149,-0.09812799999999999,0.028558999999999998,-0.11899100000000001,0.057824,-0.016218,0.006667,-0.01584
156,0.043828,-1.4712690000000002,-1.770072,0.004345,0.995051,-0.099079,0.054274,-0.083969,0.068641,-0.012921,0.014562,-0.012433
157,0.05418200000000001,-1.469919,-1.7583849999999999,0.005443,0.994916,-0.100367,0.06616799999999999,-0.049918000000000004,0.067612,-0.011288,0.00899,-0.00469
158,0.064996,-1.468475,-1.7467080000000001,0.006622,0.99477,-0.101734,0.064082,-0.036074,0.070785,-0.007079,0.004116,-0.00023999999999999998
159,0.076758,-1.46718,-1.734041,0.007916,0.9946370000000001,-0.102932,0.052265,-0.046716,0.078193,-0.001065,0.006065,0.005474000000000001
160,0.08922999999999999,-1.4661440000000001,-1.720345,0.009290999999999999,0.9945290000000001,-0.103849,0.036166000000000004,-0.06266000000000001,0.083442,-0.000288,0.006478,0.004881
161,0.103376,-1.465536,-1.704551,0.010820999999999999,0.9944649999999999,-0.104308,0.015761,-0.086051,0.089739,-0.003101,0.0037189999999999996,0.007811
162,0.119149,-1.465088,-1.6867759999999998,0.012518000000000001,0.994418,-0.10456300000000002,0.011384,-0.099927,0.100409,-0.002264,0.004575,0.011454
163,0.135989,-1.464598,-1.667647,0.014343,0.994366,-0.104821,0.012364,-0.111678,0.10790799999999999,-0.010513,0.004382,0.009881000000000001
164,0.151922,-1.464213,-1.6493659999999999,0.016069,0.994325,-0.104959,0.0017579999999999998,-0.110525,0.095014,-0.024630000000000003,0.00044100000000000004,0.010828
165,0.164195,-1.4640360000000001,-1.6348,0.017385,0.9943069999999999,-0.104926,-0.005605,-0.11146600000000001,0.07039400000000001,-0.029882,0.0009480000000000001,0.007559999999999999
166,0.171181,-1.4641899999999999,-1.625341,0.018091,0.994323,-0.104647,-0.016201,-0.125158,0.040428,-0.029213999999999997,0.003281,0.008517
167,0.173515,-1.464634,-1.6203809999999998,0.018258,0.9943700000000001,-0.10416600000000001,-0.027860000000000003,-0.131415,0.016853,-0.027703,0.001739,0.013209
168,0.171933,-1.465351,-1.619281,0.017971,0.9944459999999999,-0.10348900000000001,-0.040581,-0.13448,-0.004596,-0.024761000000000002,0.001816,0.017292
169,0.16576300000000002,-1.466473,-1.62274,0.017147,0.994563,-0.102493,-0.057574,-0.136475,-0.02394,-0.020031,-0.003947,0.023375999999999997
170,0.156301,-1.467958,-1.6294680000000001,0.015946000000000002,0.994717,-0.101188,-0.072429,-0.13741099999999998,-0.043271,-0.019059,0.000767,0.0232
171,0.144516,-1.469678,-1.6385060000000002,0.014505,0.994892,-0.099672,-0.079825,-0.140504,-0.062546,-0.019739,0.00288,0.021806
172,0.128671,-1.471535,-1.651548,0.012687,0.995078,-0.098052,-0.080829,-0.141506,-0.077507,-0.021689,0.004541,0.021041
173,0.11035999999999999,-1.473382,-1.667255,0.010686,0.995259,-0.096435,-0.077528,-0.127634,-0.086048,-0.023351,0.0019030000000000002,0.023391
174,0.09051100000000001,-1.4751809999999999,-1.6848169999999998,0.008608,0.995432,-0.09484,-0.07849400000000001,-0.112687,-0.093551,-0.026247000000000003,0.0065049999999999995,0.023261
175,0.069226,-1.47694,-1.7041380000000002,0.0064659999999999995,0.995599,-0.093249,-0.076289,-0.098838,-0.09569,-0.02174,0.013343,0.021686
176,0.04734,-1.478573,-1.724091,0.004346,0.99575,-0.091738,-0.070988,-0.10313,-0.092443,-0.017041,0.02256,0.020281
177,0.025347,-1.479982,-1.743985,0.002292,0.9958790000000001,-0.090402,-0.062496,-0.10956400000000001,-0.08917,-0.012270999999999999,0.021623,0.019937
178,0.00458,-1.481228,-1.76255,0.000408,0.995991,-0.089184,-0.056180999999999995,-0.114968,-0.07523200000000001,-0.010570999999999999,0.016063,0.017238999999999997
179,-0.012463,-1.482365,-1.777378,-0.001097,0.996092,-0.088041,-0.050948,-0.115077,-0.052763,-0.009507999999999999,0.013276,0.015591999999999998
180,-0.023724000000000002,-1.483309,-1.7863040000000001,-0.002066,0.996175,-0.087077,-0.04149,-0.12054300000000001,-0.025985,-0.003915,0.012919,0.015635
181,-0.029624,-1.484125,-1.789766,-0.0025559999999999997,0.996246,-0.086244,-0.037342,-0.123847,-0.00245,-0.004158,0.010605,0.015458000000000001
182,-0.030824,-1.484818,-1.7883330000000002,-0.0026379999999999997,0.9963059999999999,-0.085546,-0.028937,-0.135663,0.014715,-0.006441,0.014161000000000002,0.018713
183,-0.029693,-1.485403,-1.7843259999999999,-0.0025239999999999998,0.9963559999999999,-0.084962,-0.025817000000000003,-0.147418,0.021161000000000003,-0.008829,0.008969,0.018586000000000002
184,-0.027824,-1.485981,-1.779325,-0.002349,0.9964049999999999,-0.08438899999999999,-0.024822999999999998,-0.159157,0.025456,-0.008317,0.010537000000000001,0.019157
185,-0.024937,-1.4863950000000001,-1.773041,-0.002095,0.99644,-0.083981,-0.012116,-0.176263,0.02984,-0.007167,0.018071,0.016049
186,-0.02161,-1.4866110000000001,-1.7660200000000001,-0.001811,0.996459,-0.08377000000000001,-0.0047009999999999994,-0.185885,0.03204,-0.009557,0.021791,0.022628
187,-0.01805,-1.4867219999999999,-1.758679,-0.00151,0.996468,-0.083665,-0.001505,-0.186961,0.032063999999999995,-0.010971,0.012398000000000001,0.024461
188,-0.014355000000000001,-1.486833,-1.751336,-0.0012,0.9964770000000001,-0.083557,-0.0035960000000000002,-0.176305,0.033104,-0.010748,0.000669,0.021408
189,-0.009205,-1.486999,-1.742777,-0.000768,0.996491,-0.08339400000000001,-0.00571,-0.16460999999999998,0.040552,-0.008967000000000001,-0.002259,0.015874
190,-0.0022010000000000003,-1.487069,-1.7324680000000001,-0.000183,0.996497,-0.083325,0.006000999999999999,-0.16255,0.048108,-0.006866,-0.003379,0.017240000000000002
191,0.005509,-1.486908,-1.7214619999999998,0.00045999999999999996,0.996483,-0.083483,0.017718,-0.163669,0.051396000000000004,-0.010759999999999999,-0.005868,0.020587
192,0.01435,-1.48656,-1.709165,0.0012029999999999999,0.9964540000000001,-0.083825,0.016603,-0.173257,0.05246900000000001,-0.010206,-0.007425,0.018777000000000002
193,0.021838999999999997,-1.486452,-1.698157,0.0018329999999999998,0.996445,-0.08392100000000001,0.003825,-0.17213,0.048105,-0.012117000000000001,-0.007737000000000001,0.018109
194,0.029342,-1.486536,-1.68727,0.00246,0.996452,-0.083817,-0.008935,-0.16462000000000002,0.04587,-0.011432,-0.001991,0.018098
195,0.035238,-1.486805,-1.678002,0.002945,0.996475,-0.08352799999999999,-0.011049,-0.167778,0.038382,-0.010025,0.019379,0.015503999999999999
196,0.038443,-1.487048,-1.671325,0.003203,0.996495,-0.083274,-0.008882,-0.175183,0.023451,-0.012679000000000001,0.017741,0.018073
197,0.037473,-1.4873020000000001,-1.668637,0.003112,0.996516,-0.083021,-0.013111000000000001,-0.18468299999999999,0.005274,-0.012985,0.012715,0.016279
198,0.031831,-1.4877040000000001,-1.67051,0.0026309999999999997,0.99655,-0.082636,-0.016268,-0.189939,-0.009696,-0.017432,0.013002000000000001,0.020838
199,0.024419,-1.488016,-1.6741380000000001,0.0020109999999999998,0.996576,-0.082341,-0.010901000000000001,-0.187805,-0.015002000000000001,-0.016812,0.012487999999999999,0.021656
200,0.017178,-1.4882600000000001,-1.677734,0.001411,0.9965959999999999,-0.082109,-0.009795,-0.17716500000000002,-0.012872,-0.021537,0.004259000000000001,0.020692
201,0.010574,-1.488532,-1.681056,0.000865,0.996618,-0.081842,-0.008661,-0.15695,-0.007548999999999999,-0.025889999999999996,0.002878,0.017344
202,0.005949,-1.488784,-1.682657,0.00048499999999999997,0.9966389999999999,-0.08159,-0.010781,-0.14738099999999998,-0.001167,-0.02316,0.0052840000000000005,0.015625999999999998
203,0.00233,-1.4890459999999999,-1.683441,0.00018999999999999998,0.99666,-0.081325,-0.00968,-0.13780599999999998,0.000965,-0.021689,0.008467,0.017787
204,-0.000749,-1.4891860000000001,-1.683798,-6.1e-05,0.9966719999999999,-0.081182,-0.0032549999999999996,-0.134624,-0.0011300000000000001,-0.022568,0.009783,0.019902
205,-0.004876,-1.489277,-1.6853939999999998,-0.000395,0.9966790000000001,-0.081083,3e-06,-0.11972999999999999,0.00101,-0.020569999999999998,0.006251,0.019681
206,-0.007603,-1.489207,-1.686043,-0.000617,0.9966729999999999,-0.081149,0.008634000000000001,-0.09527100000000001,0.004243,-0.02163,0.005539,0.018436
207,-0.008684,-1.4889809999999999,-1.685439,-0.0007070000000000001,0.996655,-0.081375,0.014059,-0.076111,0.003189,-0.015880000000000002,0.005756,0.016357
208,-0.011072,-1.4888190000000001,-1.6864130000000002,-0.0009029999999999999,0.996642,-0.081537,0.009835,-0.067569,0.0020800000000000003,-0.015226,0.0069900000000000006,0.009119
209,-0.013341,-1.488788,-1.687425,-0.001088,0.9966389999999999,-0.081568,0.002419,-0.057947000000000005,-0.000121,-0.014247,0.002796,0.003915999999999999
210,-0.014558000000000001,-1.488724,-1.687643,-0.001188,0.996634,-0.081633,0.006735,-0.045188,0.00203,-0.015276,0.002389,0.0036299999999999995
211,-0.015094999999999999,-1.48854,-1.687445,-0.001235,0.996619,-0.081818,0.017440999999999998,-0.030333,0.008492,-0.014802000000000001,0.0018859999999999999,0.015778
212,-0.013981,-1.488132,-1.6858369999999998,-0.00115,0.996585,-0.082229,0.024933,-0.02185,0.011738,-0.010661,-0.00275,0.011123000000000001
213,-0.01094,-1.487714,-1.682463,-0.000904,0.9965510000000001,-0.082651,0.018550999999999998,-0.011201000000000001,0.018090000000000002,-0.012615000000000001,-0.000106,0.007364
214,-0.006731999999999999,-1.487415,-1.678106,-0.000558,0.996526,-0.082953,0.017494,-0.003761,0.023413999999999997,-0.015555000000000001,0.00236,0.014258000000000002
215,-0.0013210000000000001,-1.487026,-1.672716,-0.00011,0.9964930000000001,-0.083344,0.024995,0.006853,0.026657,-0.015835,0.011777,0.017426
216,0.0036810000000000002,-1.486631,-1.6680650000000001,0.000308,0.99646,-0.08373799999999999,0.019781,0.025015,0.018052000000000002,-0.017169,0.017761000000000002,0.015043
217,0.005691,-1.486364,-1.666727,0.000478,0.9964379999999999,-0.084003,0.012438,0.036823,0.001962,-0.024083,0.013511000000000002,0.014041999999999999
218,0.004526,-1.4861030000000002,-1.668669,0.000381,0.996416,-0.08426499999999999,0.016758000000000002,0.038977,-0.007625,-0.02655,0.010725,0.011939
219,0.002058,-1.485775,-1.6718709999999999,0.000174,0.9963879999999999,-0.084593,0.019949,0.033652,-0.0108,-0.028783999999999997,0.012355,0.01277
220,-0.0009789999999999998,-1.4855200000000002,-1.67566,-8.3e-05,0.996366,-0.084848,0.011457,0.040086000000000004,-0.014072,-0.029626,0.018038,0.016472999999999998
221,-0.0045060000000000005,-1.485385,-1.6801830000000002,-0.000383,0.9963549999999999,-0.084984,0.009405,0.05608099999999999,-0.016244,-0.023543,0.018111000000000002,0.019906
222,-0.009814,-1.4852379999999998,-1.6869349999999999,-0.0008349999999999999,0.9963420000000001,-0.085131,0.008496,0.07850599999999999,-0.029097,-0.018681,0.011257,0.020357
223,-0.018348,-1.485118,-1.697332,-0.001564,0.996332,-0.085239,0.004377000000000001,0.09562999999999999,-0.045170999999999996,-0.01551,0.007361,0.017641999999999998
224,-0.030902999999999996,-1.4850780000000001,-1.711766,-0.002635,0.9963280000000001,-0.085247,-0.0009,0.08933300000000001,-0.064428,-0.010457,0.0036560000000000004,0.00703
225,-0.047025,-1.485251,-1.729598,-0.004001,0.996343,-0.085017,-0.013706999999999999,0.077703,-0.075185,-0.0016300000000000002,-0.00015800000000000002,0.00022400000000000002
226,-0.06494,-1.48558,-1.748959,-0.005502,0.9963709999999999,-0.0846,-0.020146,0.064959,-0.079487,-0.002402,-0.0071129999999999995,-0.000193
227,-0.08358600000000001,-1.485817,-1.7688650000000001,-0.007058,0.996391,-0.084239,-0.013769,0.057488,-0.081569,-0.000465,-0.006523,0.003795
228,-0.10214,-1.4859200000000001,-1.7886529999999998,-0.008608,0.9964,-0.083983,-0.01163,0.05960700000000001,-0.080488,-0.005903,0.001113,0.007018000000000001
229,-0.11919,-1.4859870000000002,-1.807018,-0.010029999999999999,0.9964059999999999,-0.083754,-0.01163,0.064912,-0.075154,-0.009226,0.011742,0.009612
230,-0.135258,-1.485997,-1.824585,-0.011373000000000001,0.9964069999999999,-0.08356799999999999,-0.010516,0.077683,-0.073026,-0.014963999999999998,0.019691,0.012416
231,-0.150404,-1.4858930000000001,-1.8417189999999999,-0.012652,0.996398,-0.083485,-0.0039759999999999995,0.109614,-0.071953,-0.018522,0.018098,0.015385
232,-0.16280799999999998,-1.485614,-1.8567779999999998,-0.013731,0.996374,-0.083595,0.012104,0.139335,-0.05906,-0.018098,0.02009,0.014275
233,-0.170727,-1.485004,-1.8677700000000002,-0.014497,0.9963219999999999,-0.08408500000000001,0.031327,0.158383,-0.043995,-0.017272,0.014603,0.0151
234,-0.173899,-1.484193,-1.8745049999999999,-0.014903999999999999,0.996252,-0.084838,0.036723,0.188128,-0.027973,-0.017643,0.008875,0.015929
235,-0.173737,-1.4834479999999999,-1.878427,-0.015019,0.996188,-0.085577,0.036767,0.21044699999999997,-0.015182,-0.015758,0.002912,0.015936000000000002
236,-0.171018,-1.4827290000000002,-1.88002,-0.014909,0.996125,-0.086324,0.037829,0.218927,-0.005572,-0.008544,-0.00734,0.012883000000000002
237,-0.165979,-1.481965,-1.8795119999999998,-0.014599,0.996057,-0.087148,0.041068,0.23380399999999998,0.0008410000000000001,-0.001652,-0.004495,0.013692
238,-0.159684,-1.481195,-1.8780689999999998,-0.014172,0.9959879999999999,-0.087996,0.043259,0.249763,0.0040409999999999995,0.0005769999999999999,0.0027300000000000002,0.012297
239,-0.152278,-1.480364,-1.875804,-0.013646,0.995914,-0.088917,0.043307,0.260415,0.004027,0.000523,0.004391,0.015202
240,-0.146776,-1.479697,-1.875593,-0.013253999999999998,0.9958530000000001,-0.08965,0.033767,0.265809,-0.004592000000000001,0.003259,-0.000828,0.016896
241,-0.143625,-1.47914,-1.8777169999999999,-0.013050999999999998,0.9958020000000001,-0.090241,0.024204,0.26057199999999997,-0.018539,0.00414,9.300000000000001e-05,0.017671
242,-0.144587,-1.4787569999999999,-1.8837959999999998,-0.013193,0.995767,-0.09060700000000001,0.011434999999999999,0.25003600000000004,-0.036774,0.001459,-0.0016879999999999998,0.016281999999999998
243,-0.150039,-1.4785760000000001,-1.894094,-0.013713,0.995751,-0.090711,0.000776,0.23522800000000002,-0.053921000000000004,0.002666,0.010490000000000001,0.009168
244,-0.158375,-1.4784620000000002,-1.9069919999999998,-0.014487,0.99574,-0.09070299999999999,-0.00032,0.220352,-0.062456,0.002905,0.012393000000000001,0.008489
245,-0.167312,-1.478258,-1.9204,-0.015330000000000002,0.995721,-0.090769,0.002886,0.221406,-0.062435000000000004,0.003184,0.014044,0.009165000000000001
246,-0.17481300000000002,-1.4779309999999999,-1.9324599999999998,-0.016066999999999998,0.995691,-0.09097100000000001,0.013544999999999998,0.22772699999999998,-0.053822,0.004638000000000001,0.013052000000000001,0.010679000000000001
247,-0.17815999999999999,-1.477419,-1.9404970000000001,-0.016461,0.9956440000000001,-0.091416,0.027371,0.23612800000000003,-0.035577,0.009670999999999999,0.010323,0.005051
248,-0.17581,-1.476648,-1.9429900000000002,-0.016381,0.9955709999999999,-0.092211,0.042216000000000004,0.24342199999999997,-0.007709000000000001,0.007409000000000001,0.013721,0.001254
249,-0.167217,-1.4756850000000001,-1.93927,-0.015747999999999998,0.9954799999999999,-0.093297,0.058113,0.243272,0.015903,0.008958,0.015872,-0.001429
250,-0.154669,-1.474577,-1.931534,-0.014747,0.995374,-0.094582,0.064443,0.24000300000000002,0.02877,0.01052,0.003222,-0.0015630000000000002
251,-0.141236,-1.473488,-1.9227439999999998,-0.013628,0.9952690000000001,-0.095847,0.060103,0.229344,0.034095,0.019991,0.004807,-0.000283
252,-0.127394,-1.472391,-1.9131599999999997,-0.012439,0.9951620000000001,-0.09711,0.058901999999999996,0.205886,0.040526,0.024112,0.008302,-0.002286
253,-0.113811,-1.47133,-1.9033,-0.011239,0.995057,-0.09832300000000001,0.058787,0.179259,0.039491000000000005,0.031014,0.003066,-0.0020350000000000004
254,-0.102681,-1.470345,-1.895431,-0.010244,0.994959,-0.09941799999999999,0.0502,0.156961,0.028776999999999997,0.027731,-0.006067,-0.002236
255,-0.09473999999999999,-1.46963,-1.8904009999999998,-0.009522,0.9948870000000001,-0.10020599999999999,0.030976999999999998,0.141096,0.016913,0.02829,-0.008422,-0.004850999999999999
256,-0.089119,-1.469226,-1.887362,-0.008994,0.9948459999999999,-0.10065700000000001,0.017074000000000002,0.119894,0.002956,0.029960000000000004,-0.003498,-0.013143
257,-0.087345,-1.469023,-1.887543,-0.008833,0.994826,-0.100874,0.0073620000000000005,0.083756,-0.008816,0.030486000000000003,0.0016649999999999998,-0.011826999999999999
258,-0.08768300000000001,-1.4689510000000001,-1.8890619999999998,-0.008874,0.994818,-0.10094600000000001,0.001898,0.04228,-0.02162,0.021127,0.0031219999999999998,-0.006903
259,-0.092622,-1.469044,-1.894382,-0.009364,0.994828,-0.10080800000000001,-0.013147999999999998,0.001916,-0.037696,0.019084,0.0029289999999999997,-0.0022649999999999997
260,-0.100872,-1.469362,-1.9024290000000001,-0.010163,0.9948600000000001,-0.10041,-0.027056,-0.020350999999999998,-0.051651999999999997,0.007935,0.00688,-0.00106
261,-0.11216,-1.469871,-1.913284,-0.011239,0.9949110000000001,-0.09978300000000001,-0.033476,-0.026711000000000002,-0.053825,0.00425,0.006462000000000001,-2.5e-05
262,-0.12206600000000001,-1.470326,-1.922826,-0.012172,0.994957,-0.099219,-0.024941,-0.018172,-0.044052,-0.007543000000000001,0.004722,0.004371
263,-0.12822999999999998,-1.470607,-1.928794,-0.012747,0.994985,-0.098864,-0.013253999999999998,-0.008707,-0.023687,-0.007547,0.005732,0.006289
264,-0.129841,-1.470669,-1.9304080000000001,-0.012898,0.994991,-0.098781,0.000573,0.002878,-0.00224,-0.005,0.00806,0.004268
265,-0.127449,-1.470573,-1.9280990000000002,-0.012674,0.9949819999999999,-0.09890499999999999,0.011155,0.001703,0.015995,-0.0017760000000000002,0.006468000000000001,0.007612000000000001
266,-0.12200899999999999,-1.470301,-1.922752,-0.012169,0.9949549999999999,-0.099242,0.024975999999999998,0.005856,0.031041000000000003,0.001289,0.011378000000000001,0.01541
267,-0.113774,-1.469902,-1.9145279999999998,-0.011397,0.994915,-0.099735,0.022761,0.0026079999999999996,0.045985000000000005,0.00131,0.000279,0.011631
268,-0.103584,-1.469554,-1.9041150000000002,-0.010416,0.9948790000000001,-0.100195,0.023712999999999998,-0.015535,0.053492,0.011255,0.009027,0.010901000000000001
269,-0.09264,-1.4693209999999999,-1.8926720000000001,-0.009340000000000001,0.994856,-0.100533,0.016173,-0.026182999999999998,0.058794000000000006,0.014253,0.014741999999999998,0.011193
270,-0.08163200000000001,-1.4692180000000001,-1.8808630000000002,-0.008241,0.9948450000000001,-0.100734,0.010569,-0.043920999999999995,0.057481,0.013506,0.006589,0.004070000000000001
271,-0.071562,-1.469184,-1.8695060000000001,-0.007229000000000001,0.994842,-0.10084800000000001,0.006182,-0.071598,0.056417999999999996,0.014491999999999998,0.007645,0.004565
272,-0.06271399999999999,-1.469119,-1.8587349999999998,-0.00634,0.994835,-0.100969,0.008196,-0.10354300000000001,0.051132,0.010476000000000001,0.007225,0.007311
273,-0.055215999999999994,-1.469149,-1.848798,-0.005581,0.9948379999999999,-0.100982,-0.001492,-0.12692799999999999,0.046820999999999995,0.0035670000000000003,0.002568,0.008605
274,-0.050012,-1.469391,-1.840752,-0.005044,0.9948629999999999,-0.10076399999999999,-0.013250999999999999,-0.14388399999999998,0.03501,-0.004691,-0.000341,0.012187
275,-0.046337,-1.469681,-1.833968,-0.00466,0.994892,-0.10049,-0.012223000000000001,-0.15771500000000002,0.029693999999999998,-0.011454,0.001308,0.01585
276,-0.043548,-1.469882,-1.8279720000000002,-0.004371,0.9949120000000001,-0.100302,-0.005817,-0.155611,0.030804,-0.011544,0.002936,0.017263999999999998
277,-0.038972,-1.469884,-1.8203779999999998,-0.003912,0.9949129999999999,-0.10031699999999999,0.006995,-0.143976,0.040493,-0.011958,0.005576,0.021016999999999997
278,-0.032615,-1.4697280000000001,-1.8112270000000001,-0.003279,0.9948969999999999,-0.100493,0.011276999999999999,-0.13230699999999998,0.049053,-0.010698000000000001,0.003715,0.019499000000000002
279,-0.025738999999999998,-1.4696280000000002,-1.8017720000000002,-0.00259,0.9948870000000001,-0.10061,0.003857,-0.12269000000000001,0.047921,-0.011875,0.002031,0.020929
280,-0.019728,-1.469718,-1.793352,-0.001984,0.9948959999999999,-0.100531,-0.005697,-0.116247,0.043573,-0.011459,0.000816,0.019659
281,-0.014063999999999998,-1.4699,-1.785239,-0.001411,0.994914,-0.100355,-0.006798,-0.123701,0.043575,-0.009438,0.003667,0.017606999999999998
282,-0.008185,-1.47011,-1.7767419999999998,-0.00082,0.994935,-0.10015,-0.008984,-0.13222799999999998,0.046775,-0.009556,0.003447,0.017737
283,-0.002317,-1.470322,-1.768112,-0.00023199999999999997,0.994957,-0.099941,-0.005803,-0.1365,0.046803,-0.011655,0.0034869999999999996,0.028224000000000003
284,0.004014,-1.470431,-1.7590459999999999,0.000401,0.9949680000000001,-0.099829,-0.0057740000000000005,-0.132231,0.044661,-0.011112,0.005872,0.031027
285,0.008787999999999999,-1.470653,-1.751732,0.000875,0.9949899999999999,-0.099602,-0.00995,-0.12046400000000002,0.036071,-0.014363999999999998,0.008962000000000001,0.030510000000000002
286,0.011129,-1.471043,-1.7470450000000002,0.001104,0.995029,-0.099209,-0.020503999999999998,-0.112897,0.017828,-0.013097999999999999,0.007886,0.024791999999999998
287,0.009937999999999999,-1.471601,-1.745961,0.00098,0.995084,-0.098648,-0.032167,-0.11491400000000002,-0.00041,-0.011082,0.006564,0.018341
288,0.004967,-1.472389,-1.748472,0.00048600000000000005,0.9951620000000001,-0.097861,-0.035368000000000004,-0.128696,-0.014302,-0.004652,0.007798,0.016242
289,-0.00207,-1.473192,-1.7527279999999998,-0.00020099999999999998,0.99524,-0.09706000000000001,-0.03755,-0.145707,-0.020705,-0.0075049999999999995,0.004714,0.016814
290,-0.010473,-1.4739790000000002,-1.758101,-0.001008,0.995317,-0.09626799999999999,-0.03544,-0.15528499999999998,-0.024950999999999997,-0.013518,0.001143,0.019516
291,-0.019538999999999997,-1.474673,-1.764173,-0.0018670000000000002,0.995384,-0.095559,-0.033249,-0.146753,-0.029219,-0.018456999999999998,-0.0010140000000000001,0.024942
292,-0.029158999999999997,-1.4753889999999998,-1.771225,-0.0027660000000000002,0.995452,-0.09482,-0.036305000000000004,-0.119028,-0.033549,-0.022091,0.0012519999999999999,0.028444
293,-0.039304,-1.4761549999999999,-1.779396,-0.0036969999999999998,0.995525,-0.09401799999999999,-0.038286,-0.089176,-0.037874,-0.020931,-0.000987,0.025384
294,-0.049007,-1.476901,-1.787682,-0.004573,0.9955950000000001,-0.09323200000000001,-0.034983999999999994,-0.062573,-0.033612,-0.023336000000000003,0.004527000000000001,0.027604000000000004
295,-0.05739,-1.47748,-1.7950580000000003,-0.005321,0.995649,-0.092615,-0.024263,-0.044525999999999996,-0.027150999999999998,-0.025486,0.010790000000000001,0.026558999999999996
296,-0.064104,-1.477934,-1.8011560000000002,-0.005914,0.995691,-0.092126,-0.019929,-0.024322999999999997,-0.021806,-0.027061,0.014532,0.027382999999999998
297,-0.069632,-1.478264,-1.806456,-0.0064,0.9957219999999999,-0.091763,-0.011312000000000001,-0.005182,-0.020702,-0.026925,0.018652000000000002,0.027341000000000004
298,-0.074874,-1.478518,-1.811811,-0.006862,0.9957450000000001,-0.091476,-0.010169,0.010798,-0.021782,-0.027180000000000003,0.0193,0.030242
299,-0.08017,-1.478672,-1.817602,-0.007334,0.9957600000000001,-0.091283,-0.0058,0.032092,-0.022847,-0.023184,0.015471,0.029119
300,-0.085302,-1.478711,-1.823582,-0.0077989999999999995,0.995763,-0.091206,0.002806,0.04698,-0.023875,-0.013838,0.012065000000000001,0.02808
301,-0.089278,-1.478661,-1.8286099999999998,-0.008166,0.9957590000000001,-0.091225,0.004945000000000001,0.054403999999999994,-0.01746,-0.003751,0.008651,0.019463
302,-0.091155,-1.478478,-1.831725,-0.008354,0.995742,-0.091391,0.012431999999999999,0.065005,-0.011012000000000001,-0.0022199999999999998,0.006456,0.017783
303,-0.092298,-1.478479,-1.834127,-0.008458,0.995742,-0.091383,0.000634,0.058625,-0.0036079999999999997,0.0009050000000000001,0.005159,0.006773
304,-0.09252300000000001,-1.478573,-1.8352540000000002,-0.00847,0.99575,-0.091289,-0.001605,0.037318000000000004,-0.00146,0.002184,0.006599,0.010158
305,-0.09272799999999999,-1.4785840000000001,-1.8360319999999999,-0.008487999999999999,0.995751,-0.091276,0.0036810000000000002,0.024525,-0.003543,-0.003032,0.005835,0.012891999999999999
306,-0.093305,-1.478457,-1.837041,-0.008553,0.99574,-0.091397,0.010001999999999999,0.023094999999999997,-0.006687,-0.00576,-0.00011899999999999999,0.019497999999999998
307,-0.094066,-1.478228,-1.838518,-0.008643999999999999,0.995719,-0.09162000000000001,0.010107,0.04547,-0.007783,-0.013512,-0.006186,0.020468
308,-0.09479800000000001,-1.47813,-1.840545,-0.00872,0.99571,-0.091714,0.002792,0.076402,-0.011078,-0.018013,-0.008817,0.02163
309,-0.095335,-1.478114,-1.84307,-0.008771,0.995708,-0.091723,0.000826,0.111571,-0.013274000000000001,-0.022662,0.001759,0.022448
310,-0.097341,-1.4781520000000001,-1.847668,-0.008951,0.995712,-0.091665,-0.004331000000000001,0.138273,-0.026163,-0.026494999999999998,0.0072180000000000005,0.026525
311,-0.102873,-1.478277,-1.8562169999999998,-0.009445,0.9957229999999999,-0.091488,-0.009521,0.152212,-0.044376,-0.024613,0.023228,0.025524
312,-0.11323299999999999,-1.478423,-1.8696720000000002,-0.010376,0.9957370000000001,-0.09124,-0.012626,0.150187,-0.067896,-0.017838,0.024298,0.023552
313,-0.128236,-1.478534,-1.887816,-0.011729,0.9957469999999999,-0.090963,-0.015726,0.155592,-0.085017,-0.012943999999999999,0.023021,0.024191
314,-0.14498699999999998,-1.478707,-1.9077240000000002,-0.013226,0.995763,-0.09058,-0.015009999999999999,0.153552,-0.080207,-0.000767,0.009853,0.010029000000000001
315,-0.15724000000000002,-1.4786139999999999,-1.923175,-0.014349,0.9957540000000001,-0.090501,0.0041259999999999995,0.160852,-0.05765,0.003286,0.009082999999999999,0.009233
316,-0.162892,-1.478312,-1.932106,-0.014909,0.995726,-0.09071599999999999,0.01468,0.161774,-0.030872000000000004,0.00345,0.005632,0.0066560000000000005
317,-0.162396,-1.477942,-1.9347759999999998,-0.014924000000000002,0.995692,-0.091088,0.023061,0.153119,-0.0051649999999999995,0.0019690000000000003,0.006078,0.006967
318,-0.157303,-1.477431,-1.932649,-0.014538999999999998,0.9956450000000001,-0.091665,0.03149,0.14662999999999998,0.011994,0.0015539999999999998,0.011542,0.011465000000000001
319,-0.14893399999999998,-1.476844,-1.9271580000000001,-0.013859,0.99559,-0.092363,0.035696,0.145498,0.024844,0.0036200000000000004,0.0036630000000000005,0.013033000000000001
320,-0.13791199999999998,-1.476157,-1.919043,-0.012934000000000001,0.995525,-0.093191,0.044202,0.148626,0.034513,0.005946,0.003254,0.014684000000000001
321,-0.127004,-1.4753290000000001,-1.911025,-0.012022,0.9954459999999999,-0.094148,0.047407,0.144375,0.0292,0.005644,-2.4e-05,0.012574
322,-0.118881,-1.474613,-1.9056680000000001,-0.011341,0.9953780000000001,-0.094951,0.034627,0.137405,0.015784,0.005024,-0.0007639999999999999,0.009502
323,-0.11431300000000001,-1.474101,-1.9035380000000002,-0.010966,0.9953290000000001,-0.095509,0.024973,0.112988,0.0029289999999999997,0.0063880000000000004,0.008912999999999999,0.009968000000000001
324,-0.112009,-1.473687,-1.9031930000000001,-0.010791,0.995289,-0.095941,0.019552,0.089588,-0.001351,0.009052,0.00935,0.006571
325,-0.110503,-1.473323,-1.903287,-0.010687,0.995253,-0.096322,0.021628,0.076798,-0.00132,0.009375,0.009553,0.008416
326,-0.10879200000000001,-1.472949,-1.9030340000000001,-0.010563,0.995217,-0.096713,0.019475,0.07254400000000001,-0.00133,0.009541,0.008461,0.009936
327,-0.10587200000000001,-1.47262,-1.901548,-0.010316,0.995185,-0.097073,0.017299000000000002,0.070391,0.006135,0.006043,0.008004,0.005672
328,-0.10093200000000001,-1.4723600000000001,-1.897988,-0.009862000000000001,0.995159,-0.097379,0.016184,0.070352,0.01681,0.002157,0.006992,0.002454
329,-0.094429,-1.472027,-1.8927770000000002,-0.00926,0.9951260000000001,-0.097774,0.022513,0.06283899999999999,0.025409,0.00157,0.008643000000000001,0.004436
330,-0.08727,-1.4716129999999998,-1.886695,-0.008596,0.995085,-0.09825,0.027007999999999997,0.050679,0.026461000000000002,0.002493,0.006470999999999999,0.008193
331,-0.080738,-1.471143,-1.880943,-0.007992,0.9950389999999999,-0.098774,0.026945,0.033648000000000004,0.023278,0.00317,0.004122,0.009632
332,-0.075903,-1.47068,-1.876626,-0.00755,0.994992,-0.099272,0.021597,0.025166,0.01791,0.002728,0.004168,0.01013
333,-0.07187400000000001,-1.470341,-1.872991,-0.007174,0.994959,-0.099639,0.018366999999999998,0.017724,0.016829,0.004092,0.002707,0.0071400000000000005
334,-0.068241,-1.470069,-1.8696169999999999,-0.00683,0.9949309999999999,-0.099937,0.016214,0.01241,0.015753,0.0037020000000000004,0.00162,0.005363000000000001
335,-0.06451599999999999,-1.469842,-1.865939,-0.0064730000000000005,0.994908,-0.100187,0.012941999999999999,-0.001436,0.017884,0.0016359999999999999,0.002955,0.001508
336,-0.061078999999999994,-1.469681,-1.862254,-0.006138,0.994892,-0.100371,0.00967,-0.017404,0.017882,0.0019420000000000001,0.0036119999999999998,0.00389
337,-0.058511,-1.469631,-1.859174,-0.005883,0.9948870000000001,-0.100438,3.9e-05,-0.028006,0.013555000000000001,-0.002707,0.0018780000000000001,0.008534
338,-0.057598,-1.469702,-1.857664,-0.005788000000000001,0.9948940000000001,-0.100372,-0.005064,-0.029337000000000002,0.0040100000000000005,-0.0036119999999999998,0.001489,0.007247
339,-0.058145,-1.4698879999999999,-1.8575509999999997,-0.005832,0.9949129999999999,-0.10018400000000001,-0.00827,-0.035697,-0.0013449999999999998,0.002719,0.004079999999999999,0.006465
340,-0.059471,-1.470064,-1.858038,-0.005954,0.9949309999999999,-0.10000099999999999,-0.007245999999999999,-0.045288,-0.001326,0.0021850000000000003,0.008808,0.008768000000000001
341,-0.060551999999999995,-1.470202,-1.8581439999999998,-0.0060539999999999995,0.9949450000000001,-0.099857,-0.004079,-0.049573,0.001906,0.0032920000000000002,0.011159,0.012088
342,-0.061055,-1.470302,-1.857547,-0.006097999999999999,0.9949549999999999,-0.099755,-0.0030600000000000002,-0.057046000000000006,0.005128,0.002634,0.004038,0.010643999999999999
343,-0.061097000000000005,-1.470469,-1.856386,-0.006092,0.9949709999999999,-0.09959,-0.00628,-0.061296,0.005111,0.003254,0.004739,0.011104000000000001
344,-0.061571,-1.470675,-1.855502,-0.0061270000000000005,0.994992,-0.099382,-0.011652,-0.07086,0.004017,0.002709,0.006992,0.006776999999999999
345,-0.062773,-1.4709649999999999,-1.8551360000000001,-0.006228,0.9950209999999999,-0.099089,-0.013805000000000001,-0.079358,-0.00026000000000000003,-0.002759,0.002171,0.007047
346,-0.065028,-1.471308,-1.855765,-0.00643,0.9950549999999999,-0.098736,-0.01685,-0.08433,-0.003034,-0.000254,0.0035259999999999996,0.006693999999999999
347,-0.06780499999999999,-1.4716989999999999,-1.8568099999999998,-0.006677,0.995094,-0.098328,-0.021118,-0.086437,-0.0051979999999999995,-0.00115,0.004906000000000001,0.010605
348,-0.070762,-1.47215,-1.8580459999999999,-0.006936,0.995138,-0.097861,-0.02219,-0.086438,-0.004137,0.0008179999999999999,0.007379000000000001,0.008856000000000001
349,-0.07296799999999999,-1.472536,-1.858538,-0.007123999999999999,0.9951760000000001,-0.09746200000000001,-0.016874,-0.085413,0.00124,-0.0008560000000000001,0.008135,0.010075
350,-0.073741,-1.4728620000000001,-1.8575700000000002,-0.007176,0.995208,-0.09713200000000001,-0.014774,-0.086511,0.007665000000000001,-0.002926,0.005448,0.008478
351,-0.073758,-1.473184,-1.855838,-0.007154000000000001,0.99524,-0.096813,-0.014788999999999998,-0.087585,0.009803000000000001,-0.0068390000000000005,0.006378,0.013683
352,-0.073711,-1.473514,-1.8541169999999998,-0.007125,0.9952719999999999,-0.096486,-0.014755,-0.08012799999999999,0.009793000000000001,-0.0074010000000000005,0.007109000000000001,0.009495
353,-0.07334500000000001,-1.473891,-1.8522349999999999,-0.007062000000000001,0.995308,-0.096113,-0.018994,-0.07266,0.010822,-0.005298,0.00492,0.009885
354,-0.073014,-1.474316,-1.85044,-0.006998999999999999,0.9953489999999999,-0.095692,-0.021248,-0.07263700000000001,0.011211,-0.005986,0.004422,0.010701
355,-0.073027,-1.474768,-1.848948,-0.006968000000000001,0.9953930000000001,-0.095242,-0.023386,-0.076877,0.007997,-0.006856999999999999,0.0030510000000000003,0.008221
356,-0.073646,-1.475221,-1.848014,-0.006993000000000001,0.9954360000000001,-0.094787,-0.022305000000000002,-0.07686799999999999,0.0048,-0.007075,0.003023,0.010315000000000001
357,-0.075643,-1.475768,-1.848471,-0.007141,0.9954879999999999,-0.09422799999999999,-0.028676999999999998,-0.075759,-0.000587,-0.008834999999999999,0.004115,0.008778
358,-0.078395,-1.4763899999999999,-1.8497669999999997,-0.007352,0.995547,-0.09358999999999999,-0.032911,-0.071471,-0.003827,-0.007129000000000001,0.006222999999999999,0.010094
359,-0.081564,-1.477024,-1.851591,-0.007597,0.995607,-0.092937,-0.031806,-0.065074,-0.005964,-0.005327,0.006911,0.008860999999999999
360,-0.084441,-1.477665,-1.8532990000000003,-0.007811,0.9956659999999999,-0.092278,-0.029644,-0.05550700000000001,-0.0027559999999999998,-0.005541,0.005646,0.008584
361,-0.08673099999999999,-1.478274,-1.8545099999999999,-0.007969,0.9957229999999999,-0.091654,-0.028572000000000004,-0.053385,-0.0016829999999999998,-0.005718,0.0055439999999999994,0.010065000000000001
362,-0.08843999999999999,-1.4788700000000001,-1.8552520000000001,-0.008073,0.995778,-0.091046,-0.030686,-0.046994,0.00043,-0.00479,0.005489,0.012662
363,-0.090509,-1.479527,-1.856413,-0.008202,0.9958379999999999,-0.090376,-0.034201999999999996,-0.043989999999999994,-0.00372,-0.009269,0.002972,0.012831
364,-0.093454,-1.4802799999999998,-1.85857,-0.008398000000000001,0.995906,-0.089601,-0.040555,-0.037558999999999995,-0.008046,-0.012034,0.004521,0.012329999999999999
365,-0.09736,-1.481135,-1.8617759999999999,-0.008665,0.995983,-0.088714,-0.043736000000000004,-0.034348000000000004,-0.00914,-0.013963999999999999,0.006794,0.007522
366,-0.101427,-1.481974,-1.8652009999999999,-0.00894,0.996058,-0.087844,-0.040517000000000004,-0.031159,-0.010190000000000001,-0.01143,0.009634,0.008575
367,-0.105502,-1.482768,-1.868701,-0.009215000000000001,0.996128,-0.087016,-0.03943,-0.027963,-0.011255,-0.008287000000000001,0.009640000000000001,0.011576000000000001
368,-0.110731,-1.483502,-1.873427,-0.009588,0.996192,-0.08623600000000001,-0.037263,-0.024758000000000002,-0.015517,-0.00831,0.011834,0.010614
369,-0.116725,-1.4841520000000001,-1.878938,-0.010029000000000001,0.9962489999999999,-0.085531,-0.03511,-0.025809,-0.020841,-0.00703,0.010099,0.010426999999999999
370,-0.123324,-1.484775,-1.885014,-0.010517,0.996302,-0.084846,-0.034444,-0.028555,-0.018777000000000002,-0.007504,0.0035450000000000004,0.015356999999999999
371,-0.128616,-1.485296,-1.8898220000000001,-0.010898999999999999,0.996347,-0.084271,-0.024818,-0.020079,-0.015516,-0.01086,-0.001627,0.012143000000000001
372,-0.131896,-1.48593,-1.892916,-0.011092,0.996401,-0.083605,-0.034401,-0.005174,-0.004919,-0.006197,0.0050030000000000005,0.014238999999999998
373,-0.132939,-1.486585,-1.893888,-0.011092,0.9964559999999999,-0.082944,-0.031224000000000002,-0.0009630000000000001,0.004711,-0.008012,0.00571,0.016721
374,-0.132668,-1.487283,-1.8936669999999998,-0.010976999999999999,0.9965149999999999,-0.082254,-0.036535000000000005,0.006504,0.006801000000000001,-0.006678,0.001364,0.014474
375,-0.13224,-1.488069,-1.893375,-0.010838,0.9965799999999999,-0.081481,-0.038664,0.0075769999999999995,0.006784999999999999,-0.002361,0.009386,0.012938
376,-0.132874,-1.48889,-1.894078,-0.010781,0.996648,-0.08065900000000001,-0.040797,0.0033399999999999997,0.002503,-0.002403,0.00761,0.014527000000000002
377,-0.13508,-1.489723,-1.896365,-0.010846,0.996715,-0.079807,-0.041811,0.006573999999999999,-0.0060539999999999995,-0.0042450000000000005,0.006915999999999999,0.014713
378,-0.13883900000000002,-1.490559,-1.900281,-0.01103,0.996783,-0.078934,-0.043023,0.008236,-0.010425,-0.005602,0.003568,0.015885
379,-0.142216,-1.491387,-1.9039270000000001,-0.011179000000000001,0.996849,-0.078075,-0.043004,0.01568,-0.0072299999999999994,-0.004141,0.004952000000000001,0.015513999999999998
380,-0.14518,-1.4922030000000002,-1.9072830000000003,-0.011292,0.9969129999999999,-0.07723300000000001,-0.040851,0.020995,-0.0061530000000000005,-0.005584,0.000478,0.014733000000000001
381,-0.147551,-1.493031,-1.9101650000000001,-0.011353,0.996978,-0.07638500000000001,-0.041898000000000005,0.026320999999999997,-0.005099,-0.005370000000000001,0.005509,0.013397
382,-0.15034,-1.493851,-1.913515,-0.011443,0.997041,-0.075542,-0.038682999999999995,0.028444,-0.006148,-0.006790999999999999,0.007292,0.015575
383,-0.153397,-1.494612,-1.917172,-0.011558,0.997099,-0.074752,-0.038664,0.030583999999999997,-0.008287000000000001,-0.009011,0.007692,0.01567
384,-0.157023,-1.495379,-1.921462,-0.011708,0.997158,-0.073951,-0.039707,0.034852999999999995,-0.009368000000000001,-0.005473,0.0071,0.016486
385,-0.161655,-1.496153,-1.926912,-0.011926,0.997216,-0.07313,-0.039639999999999995,0.0434,-0.015788,-0.005957,0.002525,0.017023
386,-0.166622,-1.496897,-1.932908,-0.012165,0.9972709999999999,-0.07233400000000001,-0.039532,0.052528,-0.01484,-0.003933,0.007261,0.014106
387,-0.172312,-1.49768,-1.939639,-0.012442,0.9973280000000001,-0.071491,-0.041661000000000004,0.051479,-0.01699,-0.004541,0.002092,0.016071000000000002
388,-0.178559,-1.498509,-1.947016,-0.012740999999999999,0.9973879999999999,-0.070595,-0.045904,0.055759,-0.018094,-0.005325,0.000491,0.015068000000000002
389,-0.185937,-1.499375,-1.955496,-0.013101,0.997451,-0.069645,-0.046971,0.050457999999999996,-0.023436000000000002,-0.005469,0.002855,0.019032
390,-0.194762,-1.5001879999999999,-1.9653459999999998,-0.013557,0.997508,-0.068727,-0.045861,0.052614999999999995,-0.030907999999999998,-0.008431000000000001,0.000401,0.020678
391,-0.205546,-1.501019,-1.977355,-0.014128,0.997567,-0.067761,-0.045895,0.046219,-0.029832,0.002592,0.009987000000000001,0.019818000000000002
392,-0.21669699999999997,-1.5018610000000001,-1.98937,-0.014700999999999999,0.997625,-0.066776,-0.052320000000000005,0.038793,-0.032004000000000005,0.001807,0.009913,0.020023
393,-0.228679,-1.502756,-2.002051,-0.015297,0.9976860000000001,-0.065723,-0.050229,0.030258999999999998,-0.030910000000000003,0.00028199999999999997,0.006022,0.020114
394,-0.23940799999999998,-1.503616,-2.013288,-0.015796,0.9977440000000001,-0.064716,-0.04674,0.020743,-0.025616000000000003,0.000995,0.000562,0.028125
395,-0.249806,-1.504538,-2.024295,-0.016239,0.997806,-0.063651,-0.049979,0.020721,-0.017093,-0.0007740000000000001,0.000729,0.025397
396,-0.257675,-1.505441,-2.032453,-0.016508000000000002,0.997865,-0.062641,-0.050041,0.011116,-0.012808000000000002,0.001402,0.0092,0.02164
397,-0.26466999999999996,-1.506356,-2.0395950000000003,-0.016705,0.997924,-0.061637,-0.046888,0.004696,-0.008505,0.001721,0.012131,0.019903999999999998
398,-0.271189,-1.507211,-2.0461810000000002,-0.016877,0.9979790000000001,-0.0607,-0.04475,0.00151,-0.012759,-0.001266,0.010245,0.0206
399,-0.279474,-1.508025,-2.05458,-0.017154,0.998031,-0.059772000000000006,-0.039463,-0.007039,-0.010574,0.0017579999999999998,0.01082,0.022373
400,-0.285558,-1.508674,-2.060482,-0.017333,0.9980709999999999,-0.059039,-0.034152999999999996,-0.010262,-0.008397,0.002379,0.009787,0.025363
401,-0.290959,-1.509232,-2.065672,-0.017490000000000002,0.9981059999999999,-0.058405,-0.027770999999999997,-0.012424,-0.006213000000000001,0.002613,0.003542,0.027705
402,-0.29525,-1.509744,-2.069599,-0.01759,0.998137,-0.057835000000000004,-0.024618,-0.020965,-0.004043,0.008389,0.002046,0.031117000000000002
403,-0.29904000000000003,-1.510281,-2.07313,-0.017649,0.9981690000000001,-0.05725,-0.026751999999999998,-0.01247,0.004477,-0.0055130000000000005,0.001602,0.031539
404,-0.299556,-1.510787,-2.073166,-0.017529,0.9982,-0.05675499999999999,-0.020413,-0.023158,0.007739,0.001232,0.008926,0.032356
405,-0.30152199999999996,-1.511247,-2.074729,-0.017502,0.9982270000000001,-0.056277,-0.024628,-0.019913,-0.00084,0.004807,0.012667,0.030535000000000003
406,-0.308122,-1.511749,-2.080876,-0.01772,0.998257,-0.055679,-0.028857,-0.02623,-0.015816999999999998,0.009099,0.013415999999999999,0.027938
407,-0.320155,-1.512222,-2.092311,-0.018239,0.9982850000000001,-0.05501,-0.032048,-0.035759,-0.027576999999999997,0.012745999999999999,0.012990999999999999,0.021746
408,-0.335644,-1.512741,-2.106816,-0.018917,0.998315,-0.054227,-0.035345,-0.061297000000000004,-0.03184,0.01295,0.00965,0.022778
409,-0.351098,-1.513218,-2.1207540000000003,-0.019588,0.998343,-0.053479,-0.034398000000000005,-0.083689,-0.027532,0.007228,0.0034729999999999995,0.028287
410,-0.361504,-1.5137,-2.129461,-0.019972,0.9983700000000001,-0.052820000000000006,-0.023806,-0.08379400000000001,-0.010367,0.0037979999999999997,0.004056000000000001,0.034739
411,-0.366242,-1.514043,-2.132616,-0.0201,0.99839,-0.05240499999999999,-0.015285,-0.07641,0.000366,0.002094,0.0037159999999999997,0.032248
412,-0.366501,-1.5144229999999999,-2.131411,-0.019977,0.998411,-0.05204500000000001,-0.012098999999999999,-0.071129,0.008927,-0.001126,0.008058,0.033977999999999994
413,-0.363877,-1.514756,-2.127453,-0.019722999999999997,0.9984299999999999,-0.051789,-0.0035740000000000004,-0.066923,0.015390000000000001,-0.010381999999999999,0.004927,0.030258999999999998
414,-0.359687,-1.514945,-2.1221389999999998,-0.019438,0.998441,-0.05169,0.001761,-0.059515,0.022896,-0.0074329999999999995,0.0061979999999999995,0.0346
415,-0.352407,-1.514998,-2.1136060000000003,-0.019043,0.998444,-0.051782,0.010305,-0.059536,0.020819,-0.006591,0.01181,0.038095
416,-0.34816199999999997,-1.515024,-2.108222,-0.018816,0.998445,-0.051842,0.007176,-0.054155999999999996,0.010108,-0.010771,0.011031000000000001,0.040214
417,-0.348177,-1.515041,-2.107195,-0.018811,0.998446,-0.051825,0.001377,-0.054091999999999994,-0.000589,-0.0032530000000000002,0.015347999999999999,0.031744999999999995
418,-0.35217600000000004,-1.5150780000000001,-2.110018,-0.019006,0.998448,-0.051716,-0.001823,-0.061507000000000006,-0.008079000000000001,3.9e-05,0.010738,0.029805
419,-0.358239,-1.515126,-2.11483,-0.019303,0.998451,-0.051557000000000006,-0.005024,-0.06573999999999999,-0.012369,0.00325,0.005883,0.028881999999999998
420,-0.363966,-1.5151649999999999,-2.119222,-0.019584,0.998453,-0.051411,0.001353,-0.067906,-0.009117,0.001945,0.001959,0.031849
421,-0.367221,-1.515076,-2.121117,-0.019784,0.998448,-0.051432000000000005,0.0055969999999999995,-0.067942,-0.003747,-0.001349,0.001354,0.030909
422,-0.368519,-1.5150270000000001,-2.121143,-0.01987,0.998445,-0.051455999999999995,0.006678,-0.062628,-0.001609,-0.00462,0.005507,0.032764
423,-0.36885500000000004,-1.514899,-2.120316,-0.019934,0.9984379999999999,-0.051570000000000005,0.012046,-0.055189999999999996,-0.0015810000000000002,-0.001871,0.008383,0.03036
424,-0.36848400000000003,-1.5146709999999999,-2.118937,-0.019999,0.998425,-0.05179400000000001,0.019547,-0.047758999999999996,-0.001538,-0.0036520000000000003,0.0066560000000000005,0.031682999999999996
425,-0.365734,-1.514313,-2.11525,-0.019986,0.9984049999999999,-0.052188,0.027001,-0.044614999999999995,0.004919,-0.006686,0.006249,0.032229
426,-0.361235,-1.513887,-2.1098689999999998,-0.019903,0.998381,-0.052679,0.02913,-0.042505,0.008136,-0.009013,0.010469,0.033285
427,-0.35535300000000003,-1.513482,-2.103148,-0.019736,0.998358,-0.05318099999999999,0.031264,-0.039329,0.011351,-0.0042049999999999995,0.012277,0.032382999999999995
428,-0.34826999999999997,-1.5130219999999999,-2.0953459999999997,-0.019517,0.998332,-0.053755,0.03235,-0.03295,0.013487,-0.004226,0.012792,0.034376
429,-0.341683,-1.512506,-2.088188,-0.019338,0.998302,-0.054376999999999995,0.035598000000000005,-0.025491,0.010296,-0.004328,0.006978,0.032175
430,-0.336529,-1.511938,-2.082548,-0.019247,0.998268,-0.055018,0.037756,-0.024416,0.006036,-0.001825,0.006781999999999999,0.02798
431,-0.330855,-1.511279,-2.076392,-0.01915,0.998229,-0.055753,0.039899000000000004,-0.022293,0.0060490000000000006,-0.0026089999999999998,0.0028079999999999997,0.027676999999999997
432,-0.325785,-1.510605,-2.070906,-0.019084,0.998189,-0.056491,0.040985,-0.019097,0.004984000000000001,-0.0062,0.0027719999999999997,0.029575
433,-0.319808,-1.5099360000000002,-2.064563,-0.018956999999999998,0.998149,-0.057241999999999994,0.043105000000000004,-0.018056,0.00927,-0.005838,0.004171,0.027518
434,-0.311762,-1.509147,-2.056127,-0.01874,0.9981,-0.058151,0.049487,-0.017034999999999998,0.014655000000000001,-0.003782,0.005043,0.027694
435,-0.303329,-1.508398,-2.047421,-0.018475,0.9980540000000001,-0.059028,0.046314999999999995,-0.010631999999999999,0.014624000000000002,-0.005863,0.006981,0.027473
436,-0.296486,-1.507667,-2.0403849999999997,-0.018286,0.998008,-0.059858,0.045291000000000005,-0.0074069999999999995,0.008204000000000001,-0.004526,0.002648,0.028394
437,-0.29086599999999996,-1.5068489999999999,-2.03467,-0.018186,0.997956,-0.06075,0.047463,-0.002075,0.005007,-0.00458,0.002227,0.028294
438,-0.285991,-1.50603,-2.029775,-0.018122,0.9979030000000001,-0.06163,0.046416000000000006,0.0021899999999999997,0.004995,-0.002034,0.004218,0.027054
439,-0.280593,-1.505205,-2.024548,-0.018019999999999998,0.99785,-0.062527,0.049664,0.012831,0.005004,-0.005494,0.010039,0.023648
440,-0.274986,-1.5043520000000001,-2.019255,-0.017903,0.997793,-0.063454,0.049683,0.017092,0.004998,-0.005291,0.008142,0.021203
441,-0.269785,-1.50347,-2.014261,-0.017808,0.997734,-0.0644,0.050697000000000006,0.005370000000000001,0.00502,-0.006178,0.012107,0.023063999999999998
442,-0.263945,-1.502535,-2.008414,-0.017677000000000002,0.9976709999999999,-0.065411,0.05385499999999999,-0.001045,0.008255,-0.005974,0.010416,0.029293
443,-0.257968,-1.501587,-2.002513,-0.017529,0.997606,-0.066436,0.051764,0.007489,0.007162000000000001,-0.006809,0.007490999999999999,0.028502999999999997
444,-0.252806,-1.500651,-1.99758,-0.017422,0.997541,-0.067438,0.053936000000000005,0.016003,0.007166,-0.006077,0.00487,0.024271
445,-0.24702600000000002,-1.499629,-1.9921490000000002,-0.017283,0.997469,-0.068534,0.057151,0.019188,0.007184,-0.007634999999999999,0.007932999999999999,0.01963
446,-0.240916,-1.49864,-1.9864509999999997,-0.017100999999999998,0.997398,-0.069603,0.055022,0.021322,0.008235,-0.010777,0.004647,0.017525
447,-0.23544600000000002,-1.4977479999999999,-1.9814049999999999,-0.016929,0.997333,-0.070569,0.050755,0.021337000000000002,0.008205,-0.010781,0.008038,0.020062
448,-0.230646,-1.496797,-1.9769729999999999,-0.016809,0.9972629999999999,-0.07157899999999999,0.053979,0.021347,0.002886,-0.010565999999999999,0.009039,0.021241
449,-0.227365,-1.495746,-1.9742259999999998,-0.016812,0.997185,-0.07266399999999999,0.056185,0.029891,-0.004587,-0.01015,0.013267,0.025575999999999998
450,-0.22566999999999998,-1.494631,-1.973277,-0.016939,0.997101,-0.073783,0.058391,0.041619,-0.008859,-0.01158,0.005981,0.021506
451,-0.22439499999999998,-1.493465,-1.9729279999999998,-0.017106,0.9970110000000001,-0.074946,0.059496,0.048014999999999995,-0.010995999999999999,-0.007918999999999999,0.010404,0.017786
452,-0.22253499999999998,-1.492268,-1.972025,-0.017231,0.9969180000000001,-0.07615,0.062677,0.046926,-0.007768000000000001,-0.004161,0.0018,0.019052
453,-0.218617,-1.490974,-1.9691,-0.017215,0.996816,-0.077485,0.072357,0.054515999999999995,0.0019079999999999998,-0.007108,0.002375,0.016099000000000002
454,-0.21259899999999998,-1.489574,-1.9641849999999998,-0.017044999999999998,0.9967030000000001,-0.078961,0.07661,0.05661,0.007276,-0.004638000000000001,0.005494,0.018353
455,-0.205677,-1.4882090000000001,-1.9583130000000002,-0.016777,0.996592,-0.080415,0.074434,0.051274,0.01154,-0.0038380000000000003,0.006811,0.021058
456,-0.199133,-1.486834,-1.952752,-0.016523,0.9964770000000001,-0.081874,0.071247,0.050237000000000004,0.007247,-0.004992,0.0055060000000000005,0.021937
457,-0.194192,-1.485551,-1.948863,-0.016366,0.9963690000000001,-0.083216,0.063827,0.055611,0.001847,-0.0060799999999999995,0.000518,0.02125
458,-0.190501,-1.484394,-1.946339,-0.016278,0.9962700000000001,-0.084414,0.06279900000000001,0.062015,-0.000305,-0.005145,0.0034100000000000003,0.014863999999999999
459,-0.186533,-1.4832610000000002,-1.9435650000000002,-0.016153999999999998,0.9961709999999999,-0.085592,0.05957899999999999,0.058825999999999996,0.000745,-0.006201,0.003737,0.015311000000000002
460,-0.182895,-1.4821520000000001,-1.94111,-0.016044,0.996074,-0.086741,0.059584000000000005,0.059891,0.000743,-0.007455,0.006383,0.014033000000000002
461,-0.178535,-1.4810370000000002,-1.9379950000000001,-0.015864,0.995974,-0.08791,0.06209099999999999,0.065331,0.006220000000000001,-0.0048119999999999994,0.006986,0.014180000000000002
462,-0.172833,-1.479811,-1.933619,-0.015572999999999998,0.995864,-0.089206,0.068502,0.070622,0.009463,-0.005988,0.005082,0.010425
463,-0.165961,-1.478525,-1.9280810000000002,-0.015172,0.9957459999999999,-0.090576,0.06953,0.067401,0.014815,-0.002239,0.007764,0.014633000000000002
464,-0.159244,-1.477249,-1.9226740000000002,-0.014765,0.9956280000000001,-0.091932,0.067387,0.065278,0.014803,-0.002539,0.006661,0.017653
465,-0.153396,-1.476022,-1.9180849999999998,-0.014413999999999998,0.9955120000000001,-0.09323,0.064191,0.062111,0.010512,-0.003072,0.0038009999999999997,0.015639
466,-0.148343,-1.47486,-1.914134,-0.014115,0.995402,-0.094451,0.060948,0.051473000000000005,0.009434,0.000153,0.012808000000000002,0.014495
467,-0.144525,-1.473739,-1.91134,-0.013916,0.995294,-0.095614,0.059914,0.052568,0.003016,-0.0005650000000000001,0.004554,0.015627000000000002
468,-0.141928,-1.4726139999999999,-1.9098970000000002,-0.013826,0.9951840000000001,-0.096763,0.05784299999999999,0.06005800000000001,-0.0034170000000000003,0.0014210000000000002,0.005014,0.018256
469,-0.140015,-1.471567,-1.909182,-0.013787,0.995081,-0.097827,0.053371,0.060008000000000006,-0.003453,0.000573,0.0069180000000000005,0.011904000000000001
470,-0.13756400000000002,-1.470558,-1.907892,-0.013686000000000002,0.99498,-0.098859,0.051199,0.055737,0.000811,0.001052,0.006362,0.012738
471,-0.134528,-1.469529,-1.905925,-0.013524000000000001,0.994877,-0.09991900000000001,0.054375,0.052522000000000006,0.002973,0.000371,0.007824,0.010990999999999999
472,-0.131241,-1.468486,-1.9035939999999998,-0.013331,0.994771,-0.100996,0.057552,0.048244999999999996,0.004069,0.000133,0.005473,0.017179
473,-0.12808599999999998,-1.4674200000000002,-1.9014229999999999,-0.013149000000000001,0.994661,-0.102094,0.056509000000000004,0.051453,0.0019210000000000002,4.1e-05,0.010832,0.014707
474,-0.124714,-1.4663680000000001,-1.898998,-0.012934999999999999,0.994552,-0.10317899999999999,0.053265,0.046120999999999995,0.006178,-0.00035499999999999996,0.007798,0.015777
475,-0.12116400000000001,-1.465401,-1.8963279999999998,-0.012685,0.994451,-0.10418399999999998,0.052184,0.043989999999999994,0.007242,0.000906,0.005305,0.01231
476,-0.118074,-1.4644270000000001,-1.894031,-0.012478,0.994348,-0.10518599999999999,0.048960000000000004,0.037614,0.006159,0.000927,0.0024170000000000003,0.013007
477,-0.115678,-1.463487,-1.8923130000000001,-0.012334,0.9942479999999999,-0.106146,0.050031,0.034432,0.001898,0.001546,0.011428,0.01151
478,-0.114032,-1.4625629999999998,-1.8912900000000001,-0.012264,0.9941479999999999,-0.107082,0.045754,0.030194,-0.000263,0.001018,0.007240000000000001,0.011303
479,-0.11294100000000001,-1.4617149999999999,-1.8906610000000001,-0.012242,0.994057,-0.10793599999999999,0.043582,0.020618,-0.001334,-0.00031600000000000004,0.009362,0.010829
480,-0.11194000000000001,-1.460926,-1.8899419999999998,-0.012222,0.99397,-0.10872799999999999,0.040333999999999995,0.011038,-0.000276,-0.001816,0.008074,0.012506
481,-0.11083499999999999,-1.460126,-1.888989,-0.012190000000000001,0.9938819999999999,-0.10953399999999999,0.043515,0.0067659999999999994,-0.00024900000000000004,-0.003435,0.004592000000000001,0.010657
482,-0.10970999999999999,-1.4592479999999999,-1.887959,-0.012163,0.993785,-0.110418,0.046692000000000004,0.00355,0.0019140000000000001,-0.002562,0.0032240000000000003,0.013235
483,-0.10793599999999999,-1.458351,-1.8862900000000002,-0.012062999999999999,0.993685,-0.111328,0.045630000000000004,0.007802,0.005106,-0.0017920000000000002,0.003157,0.011871
484,-0.106145,-1.457597,-1.8846509999999999,-0.011944,0.9936,-0.112098,0.03709,0.0067670000000000004,0.0050479999999999995,-0.002522,0.005714,0.009147
485,-0.104378,-1.45692,-1.8829349999999998,-0.011816,0.9935229999999999,-0.11279000000000002,0.03599,-0.000686,0.0050490000000000005,0.00018899999999999999,0.010139,0.010112999999999999
486,-0.10354000000000001,-1.4562760000000001,-1.8819669999999997,-0.011788,0.99345,-0.11343699999999998,0.032764999999999996,-0.010246,0.000766,-0.002907,0.007039,0.008075
487,-0.10385799999999999,-1.455722,-1.8820290000000002,-0.011881000000000001,0.9933860000000001,-0.11398299999999999,0.026378,-0.013393,-0.005684000000000001,-0.0065060000000000005,0.000617,0.012802000000000001
488,-0.105198,-1.455258,-1.8830779999999998,-0.012081999999999999,0.993333,-0.114428,0.023187,-0.015496000000000001,-0.009976,-0.007129000000000001,0.008620000000000001,0.009539
489,-0.10678,-1.454874,-1.8842729999999999,-0.012304,0.993289,-0.11478800000000002,0.01569,-0.0208,-0.008953000000000001,-0.010645,0.007642,0.011348
490,-0.108645,-1.454602,-1.885743,-0.012546999999999999,0.993257,-0.115033,0.011428,-0.019719999999999998,-0.008985,-0.006816,0.009154,0.010678
491,-0.11025499999999999,-1.454332,-1.8869340000000001,-0.012762,0.993226,-0.115281,0.014594999999999999,-0.025065999999999998,-0.0068189999999999995,-0.005838,0.006469,0.00702
492,-0.11158900000000001,-1.4540170000000001,-1.8876970000000002,-0.012950999999999999,0.993189,-0.115576,0.015623,-0.03147,-0.004667,-0.00594,0.005163,0.010824
493,-0.112727,-1.453698,-1.8882009999999998,-0.013118000000000001,0.993152,-0.11587599999999999,0.016676,-0.032547,-0.002522,-0.008351,0.006818,0.013887
494,-0.11333,-1.4533610000000001,-1.888123,-0.013226,0.9931120000000001,-0.1162,0.016656999999999998,-0.034686,-0.000383,-0.009937,0.0049960000000000004,0.014438999999999999
495,-0.11366199999999999,-1.453098,-1.8877580000000003,-0.013294,0.993082,-0.11645499999999999,0.010246,-0.034673,0.001709,-0.010617,0.005026,0.016403
496,-0.113928,-1.452913,-1.8873630000000001,-0.013346,0.99306,-0.11663399999999999,0.010255,-0.03042,0.0038399999999999997,-0.008749,0.004514,0.013591999999999998
497,-0.113647,-1.452777,-1.886481,-0.013328,0.993044,-0.116773,0.007045,-0.029356,0.00702,-0.006934999999999999,0.001158,0.012189
498,-0.11296099999999999,-1.452706,-1.885214,-0.013256,0.993035,-0.116852,0.004907,-0.029352999999999997,0.008074,-0.011082,0.004676,0.012253
499,-0.11256500000000001,-1.452651,-1.884151,-0.013216,0.993029,-0.11691199999999999,0.005954,-0.03574,0.005953,-0.008589,0.004636,0.013198
500,-0.112879,-1.452603,-1.883647,-0.013258,0.993023,-0.11695499999999999,0.002739,-0.043169,0.001667,-0.006227,0.007418999999999999,0.011639
501,-0.113724,-1.452619,-1.8836259999999998,-0.013355,0.993025,-0.116927,-0.002595,-0.044211,0.000563,-0.006587999999999999,0.010393000000000001,0.011611
502,-0.11496700000000001,-1.452705,-1.8839560000000002,-0.013491,0.993035,-0.116828,-0.004733,-0.047391,-0.001584,-0.008772,0.008659,0.012107
503,-0.11643699999999998,-1.452841,-1.884493,-0.013647,0.993051,-0.116671,-0.005795000000000001,-0.046322,-0.001593,-0.011515000000000001,0.006261999999999999,0.013734999999999999
504,-0.117672,-1.452962,-1.8848189999999998,-0.013777000000000001,0.993066,-0.11653499999999999,-0.006862,-0.045257,-0.000534,-0.010714,0.006278,0.010912999999999999
505,-0.119091,-1.453135,-1.8853360000000001,-0.013922,0.993086,-0.116347,-0.00792,-0.043123,-0.000544,-0.008478,0.008440000000000001,0.015074
506,-0.120556,-1.453319,-1.8859669999999997,-0.01407,0.993107,-0.116146,-0.007905,-0.040988,-0.001615,-0.007704000000000001,0.007181999999999999,0.015773
507,-0.121799,-1.453487,-1.8864400000000001,-0.014194,0.9931270000000001,-0.11596300000000001,-0.007891,-0.037792,-0.0016190000000000002,-0.009625,0.007987000000000001,0.013438999999999998
508,-0.122928,-1.453677,-1.886843,-0.014302,0.993149,-0.11576099999999999,-0.011087,-0.035655,-0.000576,-0.009517,0.006790000000000001,0.013465999999999999
509,-0.124319,-1.453905,-1.887517,-0.014435,0.9931760000000001,-0.11551600000000001,-0.011087,-0.036716000000000006,-0.001643,-0.012191,0.00777,0.014594
510,-0.12581900000000001,-1.454159,-1.888259,-0.014577000000000001,0.9932059999999999,-0.11524300000000001,-0.011101,-0.039912,-0.001639,-0.012934999999999999,0.010121,0.014535
511,-0.127375,-1.454377,-1.8890740000000001,-0.014728999999999999,0.993231,-0.115006,-0.010005,-0.035646,-0.003773,-0.010357,0.003397,0.019469999999999998
512,-0.128848,-1.454579,-1.8899650000000001,-0.014872,0.9932540000000001,-0.114784,-0.0089,-0.026066000000000002,-0.002709,-0.011251,0.0013289999999999999,0.017509999999999998
513,-0.129616,-1.454839,-1.890296,-0.014927000000000001,0.9932840000000001,-0.11451700000000001,-0.012101,-0.02075,0.0026030000000000003,-0.007351000000000001,0.011323999999999999,0.014022999999999999
514,-0.1298,-1.455103,-1.890066,-0.014913999999999998,0.993315,-0.114251,-0.009986,-0.021836,0.005824,-0.0071200000000000005,0.014375,0.019739
515,-0.130249,-1.455388,-1.890078,-0.014928,0.993348,-0.11396300000000001,-0.014230000000000001,-0.02286,-0.000614,-0.007624,0.008697,0.022548
516,-0.132477,-1.455708,-1.891891,-0.01514,0.9933850000000001,-0.113614,-0.017381999999999998,-0.020685,-0.009184999999999999,-0.005459,0.005166,0.019468
517,-0.135406,-1.456065,-1.894349,-0.015425,0.993426,-0.113219,-0.017866,-0.023433000000000002,-0.010334999999999999,-0.004656,-0.002566,0.02011
518,-0.137875,-1.4564219999999999,-1.896465,-0.015656,0.993466,-0.112829,-0.018919,-0.01599,-0.006079,-0.003525,-0.000592,0.020406999999999998
519,-0.139249,-1.456836,-1.897541,-0.015754,0.9935139999999999,-0.112401,-0.018947,-0.016016,0.00033,-0.003564,0.004106,0.017689
520,-0.139316,-1.45731,-1.897262,-0.015696,0.993567,-0.11193299999999999,-0.022186,-0.017099,0.0077859999999999995,-0.006735,0.007318000000000001,0.019846000000000003
521,-0.13886400000000002,-1.457829,-1.896423,-0.015574000000000001,0.993626,-0.111429,-0.024334,-0.019227,0.008842000000000001,-0.0065969999999999996,0.011364,0.019204
522,-0.138953,-1.458317,-1.896135,-0.015516,0.9936809999999999,-0.110946,-0.022167,-0.017082,0.003513,-0.006273,0.011538,0.020980000000000002
523,-0.139949,-1.458812,-1.896812,-0.015558,0.9937360000000001,-0.11044200000000001,-0.023209999999999998,-0.015996,-0.000768,-0.0026,0.010231,0.019744
524,-0.141622,-1.459251,-1.898236,-0.015681,0.993785,-0.109983,-0.022109999999999998,-0.011726,-0.003971,-0.00385,0.009709,0.019941
525,-0.14294500000000002,-1.459691,-1.8993810000000002,-0.015764,0.993834,-0.109528,-0.022113999999999998,-0.009608,-0.000769,-0.005019,0.005143,0.017394999999999997
526,-0.143598,-1.460121,-1.899843,-0.015774,0.9938819999999999,-0.10909400000000001,-0.018928,-0.009632,0.0024579999999999997,-0.00774,0.005599,0.018182
527,-0.143404,-1.460499,-1.899404,-0.015699,0.993923,-0.108724,-0.016828,-0.013914,0.005683,-0.004076,0.007587000000000001,0.01795
528,-0.14366900000000002,-1.460864,-1.8993470000000001,-0.015676,0.9939629999999999,-0.10835999999999998,-0.016814,-0.014962,0.0014119999999999998,-0.00503,0.005441,0.021309
529,-0.144743,-1.461319,-1.9001400000000002,-0.015727,0.9940129999999999,-0.107894,-0.023196,-0.012801,-0.000772,-0.006765,0.004369,0.022002
530,-0.14644200000000002,-1.461865,-1.9015900000000001,-0.015831,0.994073,-0.107329,-0.028511,-0.011704,-0.0040149999999999995,-0.00399,0.0076359999999999996,0.019271
531,-0.14787999999999998,-1.462408,-1.902811,-0.015906,0.994132,-0.106772,-0.026382,-0.010655,-0.001865,-0.0040219999999999995,0.008355,0.022498
532,-0.149083,-1.462921,-1.903809,-0.015958,0.994187,-0.10624700000000001,-0.023181,-0.009604999999999999,-0.000776,-0.003085,0.009170000000000001,0.021988
533,-0.150033,-1.463384,-1.904579,-0.01599,0.994237,-0.105774,-0.021043,-0.007486,0.000304,-0.004381,0.008311,0.020645
534,-0.150616,-1.463838,-1.90498,-0.015984,0.9942850000000001,-0.10531800000000001,-0.021067,-0.01069,0.002445,-0.004936,0.007423999999999999,0.023271
535,-0.151002,-1.464318,-1.9050619999999998,-0.015952,0.994337,-0.10483900000000002,-0.023239,-0.017083,0.004574,-0.007088,0.008898,0.024258000000000002
536,-0.150759,-1.464777,-1.9044450000000002,-0.015858,0.9943850000000001,-0.10439200000000001,-0.018991,-0.018175999999999998,0.007809999999999999,-0.006297,0.006271,0.024359
537,-0.149545,-1.465135,-1.9029479999999999,-0.015678,0.994423,-0.104058,-0.013642,-0.010754999999999999,0.012111,-0.006431999999999999,0.0034100000000000003,0.022331999999999998
538,-0.14743299999999998,-1.4654479999999999,-1.900669,-0.015413,0.9944559999999999,-0.103782,-0.012662999999999999,-0.005424,0.016366,-0.00659,0.0039570000000000004,0.023612
539,-0.14485399999999998,-1.465792,-1.8979110000000001,-0.015096,0.994492,-0.10348299999999999,-0.012692,-0.009694,0.018508,-0.002971,0.0065,0.024076
540,-0.14260499999999998,-1.4661549999999999,-1.895357,-0.014812,0.9945299999999999,-0.10315899999999999,-0.016978,-0.018184,0.014216,-0.00417,0.008903,0.022135
541,-0.142538,-1.4666190000000001,-1.894834,-0.014738999999999999,0.9945780000000001,-0.102702,-0.022284,-0.023445,0.002435,-0.004533,0.003575,0.02743
542,-0.144007,-1.467133,-1.895836,-0.014816,0.994632,-0.102172,-0.026537,-0.024478,-0.001866,-0.00615,0.0026829999999999996,0.024489
543,-0.14598,-1.467708,-1.897272,-0.014934000000000001,0.994691,-0.101574,-0.029751999999999997,-0.027663,-0.0018850000000000002,-0.007984999999999999,-4.7e-05,0.025692000000000003
544,-0.147609,-1.468277,-1.898394,-0.015016,0.994749,-0.10098700000000001,-0.02868,-0.02554,-0.0008119999999999999,-0.006362,0.003343,0.024968
545,-0.148335,-1.4688809999999999,-1.898652,-0.015,0.9948110000000001,-0.100383,-0.027627999999999996,-0.022374,0.005601,-0.007125,0.008988,0.023952
546,-0.148395,-1.469472,-1.8982869999999998,-0.014919,0.994871,-0.099798,-0.027123,-0.020797,0.00772,-0.011021,0.010027,0.023184
547,-0.148073,-1.470043,-1.897563,-0.014803,0.9949290000000001,-0.09924,-0.023923,-0.020808,0.007742,-0.0076430000000000005,0.011816,0.024944
548,-0.148337,-1.470531,-1.8974330000000001,-0.014757,0.994978,-0.098753,-0.020689,-0.018667,0.002421,-0.008145999999999999,0.009982,0.025557
549,-0.149478,-1.47098,-1.8982880000000002,-0.014803,0.995022,-0.098294,-0.023837,-0.011182,-0.001884,-0.010099,0.007633,0.024472
550,-0.15144100000000002,-1.4715200000000002,-1.9000849999999998,-0.014913999999999998,0.9950760000000001,-0.09773,-0.028075,-0.0068980000000000005,-0.004055,-0.008248,0.0051979999999999995,0.023313
551,-0.15299300000000002,-1.472125,-1.90153,-0.014974000000000001,0.995136,-0.09711,-0.030213999999999998,-0.0047729999999999995,-0.000868,-0.006906999999999999,0.004437,0.022494999999999998
552,-0.154609,-1.472712,-1.903056,-0.015040999999999999,0.995194,-0.09650700000000001,-0.02808,-0.005841,-0.0019199999999999998,-0.00507,0.002487,0.020946
553,-0.156297,-1.473291,-1.904628,-0.015113999999999999,0.99525,-0.095913,-0.025945999999999997,-0.005848,-0.001905,-0.0022199999999999998,0.0054210000000000005,0.019497
554,-0.158216,-1.473827,-1.9064580000000002,-0.015213999999999998,0.995302,-0.095356,-0.027170999999999997,-0.003136,-0.005123,-0.005111,0.006559000000000001,0.022312000000000002
555,-0.160342,-1.474391,-1.9085509999999999,-0.015327,0.9953569999999999,-0.09476699999999999,-0.029289999999999997,6.7e-05,-0.005142,-0.0066760000000000005,0.006931999999999999,0.025126
556,-0.16264800000000001,-1.474964,-1.9109040000000002,-0.015453,0.9954120000000001,-0.094167,-0.028208999999999998,0.002198,-0.006205,-0.0070079999999999995,0.006313,0.023199
557,-0.16476500000000002,-1.4755260000000001,-1.913111,-0.01556,0.9954649999999999,-0.09358,-0.027137,0.005382,-0.004065,-0.007252,0.009951999999999999,0.022047
558,-0.166507,-1.4760389999999999,-1.915038,-0.015638,0.9955139999999999,-0.093049,-0.024975,0.011766,-0.004058,-0.007998,0.010468,0.023087
559,-0.1676,-1.476545,-1.9164830000000002,-0.015656,0.9955620000000001,-0.092534,-0.02496,0.018144,-0.0008619999999999999,-0.006729000000000001,0.010511,0.020833
560,-0.168195,-1.47707,-1.917532,-0.015623,0.995611,-0.09200599999999999,-0.024941,0.024528,0.001267,-0.00902,0.007821999999999999,0.020488
561,-0.168471,-1.477603,-1.9183810000000001,-0.015559,0.995661,-0.09147899999999999,-0.025979000000000002,0.029862,0.000184,-0.008976999999999999,0.003439,0.020342
562,-0.169099,-1.478116,-1.919674,-0.01553,0.995708,-0.090962,-0.024765000000000002,0.035713999999999996,-0.001959,-0.007908,0.005757,0.022786
563,-0.169837,-1.478612,-1.921245,-0.015513999999999998,0.9957540000000001,-0.090465,-0.02366,0.044232,-0.001963,-0.007573000000000001,0.004368,0.021678
564,-0.17063399999999998,-1.4791040000000002,-1.923042,-0.015502000000000002,0.995799,-0.08996699999999999,-0.023617,0.052759,-0.003041,-0.006638,0.010334999999999999,0.022721
565,-0.171105,-1.479587,-1.924604,-0.015462,0.995843,-0.08948500000000001,-0.022545,0.05488099999999999,-0.001968,-0.005259000000000001,0.013983,0.020590999999999998
566,-0.171772,-1.480059,-1.9263569999999999,-0.015441999999999999,0.995886,-0.089011,-0.023603,0.054893,-0.004111999999999999,-0.004318,0.008431999999999999,0.023122999999999998
567,-0.173009,-1.480494,-1.928761,-0.015477000000000001,0.995925,-0.08856599999999999,-0.021435,0.059160000000000004,-0.007306999999999999,-0.004435000000000001,0.005768,0.021214
568,-0.174155,-1.4809450000000002,-1.9310939999999999,-0.015501,0.995966,-0.08810499999999999,-0.021445,0.059151,-0.005171,-0.0036950000000000004,0.001242,0.025361
569,-0.174824,-1.481387,-1.933054,-0.015484,0.996006,-0.087662,-0.022478,0.067673,-0.004121,-0.0054210000000000005,0.001568,0.02472
570,-0.174904,-1.481904,-1.934578,-0.015401,0.996052,-0.087155,-0.026431,0.073482,-0.001004,-0.0061600000000000005,0.0012779999999999998,0.022625
571,-0.174643,-1.482504,-1.935813,-0.015275,0.9961049999999999,-0.08657100000000001,-0.028574000000000002,0.074542,0.002184,-0.005645000000000001,0.005986,0.022545
572,-0.174043,-1.4831020000000001,-1.936718,-0.015119,0.996157,-0.085993,-0.029626,0.07668,0.001106,-0.006502,0.008848,0.020685
573,-0.173683,-1.483719,-1.937958,-0.014981999999999999,0.9962110000000001,-0.085393,-0.029593,0.082015,-0.001037,-0.004335,0.013265,0.022054
574,-0.174377,-1.4842799999999998,-1.9403860000000002,-0.014944999999999998,0.99626,-0.084833,-0.026344,0.087351,-0.006363000000000001,-0.005288,0.009156999999999998,0.027017000000000003
575,-0.175795,-1.48478,-1.9436240000000002,-0.014978,0.996303,-0.08432100000000001,-0.026314999999999998,0.09056,-0.009571,-0.006217,0.007802,0.027116
576,-0.17741400000000002,-1.485303,-1.9470490000000003,-0.015022999999999998,0.996348,-0.083785,-0.026325,0.089491,-0.008502,-0.008918,0.00762,0.025923
577,-0.178855,-1.485842,-1.950243,-0.015047999999999999,0.996394,-0.083235,-0.028477999999999996,0.08523700000000001,-0.008511,-0.008161,0.005331,0.026304
578,-0.18041,-1.486413,-1.953571,-0.015075,0.996442,-0.082652,-0.030139,0.090036,-0.008628,-0.008133,0.004915999999999999,0.025706
579,-0.182398,-1.487012,-1.957383,-0.015131,0.996492,-0.082035,-0.03013,0.090044,-0.010765,-0.004415,0.010222,0.026019999999999998
580,-0.18498299999999998,-1.48761,-1.9617779999999998,-0.015234000000000001,0.996542,-0.081412,-0.032254000000000005,0.09006,-0.012916,-0.0011539999999999999,0.008661,0.027869
581,-0.188479,-1.4882540000000002,-1.967068,-0.015397999999999998,0.9965950000000001,-0.080728,-0.034392,0.08582000000000001,-0.016130000000000002,-0.0040869999999999995,0.002779,0.025583
582,-0.191962,-1.48889,-1.972188,-0.015558,0.996648,-0.08005,-0.031249000000000002,0.07833,-0.010757,-0.006567,-0.004185,0.026461000000000002
583,-0.19305,-1.4894450000000001,-1.9747849999999998,-0.015538999999999999,0.996693,-0.079489,-0.025981999999999998,0.074008,-3.3e-05,-0.009791,0.0011560000000000001,0.029868000000000002
584,-0.19158699999999998,-1.489945,-1.9749560000000002,-0.015328,0.996733,-0.079023,-0.021691,0.085685,0.006391,-0.01252,0.011262000000000001,0.035169
585,-0.190907,-1.4904629999999999,-1.9761099999999998,-0.015175999999999999,0.996775,-0.078527,-0.026938999999999998,0.093208,-0.005405,-0.00907,0.010595,0.032445999999999996
586,-0.194661,-1.491067,-1.981755,-0.015353,0.9968229999999999,-0.077874,-0.035383,0.09437899999999999,-0.024694,-2.7000000000000002e-05,0.011844,0.028312999999999998
587,-0.204211,-1.491738,-1.9931990000000002,-0.015959,0.996877,-0.07706,-0.041717000000000004,0.091279,-0.042894,0.007612000000000001,0.007594,0.022907
588,-0.21729099999999998,-1.492434,-2.0080259999999996,-0.016814,0.9969309999999999,-0.076159,-0.047075,0.078544,-0.050392,0.007445,0.000536,0.015872
589,-0.231341,-1.4932809999999999,-2.023375,-0.017688,0.9969969999999999,-0.075089,-0.05682,0.051924,-0.045085,0.0037869999999999996,0.0038729999999999997,0.014756
590,-0.244299,-1.494214,-2.03714,-0.018434,0.9970690000000001,-0.073951,-0.054807,0.033773000000000004,-0.036502,0.003664,0.012574,0.019798
591,-0.254218,-1.495099,-2.0476900000000002,-0.018945,0.997136,-0.07291,-0.049535,0.030516,-0.025779000000000003,-0.0060490000000000006,0.008676999999999999,0.025592
592,-0.26114899999999996,-1.495898,-2.055325,-0.019244,0.9971959999999999,-0.072006,-0.042086,0.036839,-0.015053,-0.002881,0.011928,0.026123
593,-0.264615,-1.496549,-2.059591,-0.019323,0.997245,-0.071309,-0.031445999999999995,0.042081,-0.003235,-0.006007,0.004769,0.032521
594,-0.26312399999999997,-1.497054,-2.0590509999999997,-0.019084999999999998,0.997282,-0.07085,-0.01761,0.050491,0.012874000000000002,-0.0061530000000000005,-0.000654,0.035724
595,-0.2577,-1.497385,-2.054812,-0.018616,0.9973069999999999,-0.070632,-0.006913,0.06639400000000001,0.022543,-0.01535,-0.003029,0.038801999999999996
596,-0.251386,-1.497687,-2.050075,-0.018094,0.9973290000000001,-0.07045599999999999,-0.010003,0.086663,0.018222,-0.013644,0.011018,0.036733999999999996
597,-0.24921,-1.498075,-2.049671,-0.017846,0.9973569999999999,-0.070123,-0.02271,0.087854,-0.002164,-0.009115999999999999,0.014255,0.032113
598,-0.254836,-1.498626,-2.056966,-0.018102,0.997397,-0.069491,-0.036516,0.078409,-0.025749,-0.003397,0.015451,0.02814
599,-0.267664,-1.499299,-2.071252,-0.018815000000000002,0.997445,-0.068605,-0.043956,0.065728,-0.045013,0.005494,0.008597,0.021624
600,-0.283699,-1.4999129999999998,-2.0883580000000004,-0.019740999999999998,0.997489,-0.06770599999999999,-0.044042000000000005,0.041248,-0.050323,0.005275,0.002542,0.020907
601,-0.300173,-1.50052,-2.1054880000000002,-0.020675,0.997532,-0.066794,-0.0452,0.025256,-0.046038,0.0040420000000000005,-0.00214,0.01995
602,-0.314104,-1.501177,-2.119909,-0.0214,0.9975780000000001,-0.065875,-0.0442,0.023071,-0.03321,-0.0009539999999999999,-0.003834,0.03081
603,-0.325208,-1.501852,-2.131564,-0.021913,0.997624,-0.06498999999999999,-0.044224,0.026232,-0.024668,-0.001936,4.1e-05,0.032931
604,-0.33300799999999997,-1.502545,-2.139911,-0.022193,0.9976719999999999,-0.064162,-0.038957,0.025093,-0.010743,-0.0018850000000000002,0.0046170000000000004,0.029891
605,-0.337002,-1.5030649999999999,-2.144358,-0.022276,0.997707,-0.063579,-0.019797,0.020744,-0.005263,-0.005281,0.004353,0.03828
606,-0.33903,-1.5032590000000001,-2.1469810000000003,-0.022340000000000002,0.99772,-0.063349,-0.0069180000000000005,0.035621,-0.007328,-0.007812,0.009573,0.038477
607,-0.342483,-1.503375,-2.151309,-0.022521,0.9977280000000001,-0.063166,-0.008965,0.046314999999999995,-0.015902,-0.0039689999999999994,0.014754,0.042185
608,-0.349038,-1.503496,-2.158859,-0.022893,0.9977360000000001,-0.062904,-0.015304,0.049576,-0.026632999999999997,-0.00043799999999999997,0.014486,0.038657
609,-0.358648,-1.503663,-2.169409,-0.023438,0.9977469999999999,-0.062525,-0.019581,0.041094,-0.033061,0.0022890000000000002,0.010462,0.035898
610,-0.370151,-1.503915,-2.181638,-0.024065,0.997764,-0.062018,-0.026035000000000003,0.03046,-0.032024000000000004,0.003008,0.0037770000000000004,0.033865
611,-0.382214,-1.504281,-2.194134,-0.024675,0.9977889999999999,-0.061384,-0.029307,0.014491999999999998,-0.032026,0.001634,0.001952,0.035474
612,-0.393733,-1.504694,-2.2058470000000003,-0.025223,0.997816,-0.060715,-0.030432,0.008079000000000001,-0.025617,0.003814,0.004640999999999999,0.036728
613,-0.402625,-1.505134,-2.2149229999999998,-0.025588999999999997,0.9978450000000001,-0.060084000000000005,-0.026206999999999998,0.006964,-0.01704,0.001373,0.0018960000000000001,0.038859
614,-0.410026,-1.505485,-2.222423,-0.025893,0.997868,-0.059570000000000005,-0.023036,0.0037450000000000005,-0.013809,0.002547,0.0035659999999999997,0.040466
615,-0.41518599999999994,-1.505758,-2.227693,-0.026091000000000003,0.997886,-0.059188,-0.010248,0.004748,-0.009448,0.00337,0.012475,0.041075
616,-0.418825,-1.5058719999999999,-2.231426,-0.026260000000000002,0.997893,-0.058989,-0.003846,0.003665,-0.01047,-0.000184,0.011491,0.040358
617,-0.421555,-1.505903,-2.234161,-0.026407999999999997,0.9978950000000001,-0.058888,-0.002837,-0.004878,-0.006179,0.002268,0.010787,0.037007
618,-0.423343,-1.505963,-2.235752,-0.026487,0.997899,-0.058783,0.001392,-0.010232,-0.002938,0.00395,0.002986,0.045813
619,-0.42397700000000005,-1.506025,-2.236209,-0.026499,0.9979030000000001,-0.058709000000000004,-0.002826,-0.010317,0.0012720000000000001,0.004419,0.0048130000000000004,0.040841
620,-0.424176,-1.5061209999999998,-2.236114,-0.02647,0.997909,-0.058615999999999994,-0.002859,-0.017774,0.001281,0.0061,0.004196,0.045127
621,-0.424886,-1.506235,-2.236426,-0.026465,0.997917,-0.058492999999999996,-0.0028640000000000002,-0.022022999999999997,-0.001918,-0.000162,0.0037159999999999997,0.038610000000000005
622,-0.42669700000000005,-1.506343,-2.237677,-0.026527,0.997924,-0.058348000000000004,-0.002907,-0.032671,-0.002973,-0.000848,0.009462,0.039213
623,-0.42834300000000003,-1.50637,-2.2385450000000002,-0.026612,0.997925,-0.05828099999999999,0.001312,-0.042276999999999995,-0.0018629999999999999,-0.00013700000000000002,0.01094,0.03997
624,-0.429036,-1.506432,-2.23838,-0.026626,0.9979290000000001,-0.05820499999999999,0.004489,-0.044432,0.001367,-0.002487,0.009073999999999999,0.042535
625,-0.42859899999999995,-1.506383,-2.237063,-0.026622000000000003,0.997926,-0.058263,0.007690000000000001,-0.043382,0.002456,-0.006475,0.010206999999999999,0.041783
626,-0.42755299999999996,-1.506281,-2.235111,-0.026604000000000003,0.99792,-0.058385,0.011943,-0.045531999999999996,0.003557,-0.006966,0.009878,0.041432
627,-0.42590100000000003,-1.5061,-2.232584,-0.026583,0.997908,-0.058595,0.016224000000000002,-0.043412,0.002516,-0.006239,0.0069900000000000006,0.039262
628,-0.425187,-1.505878,-2.230966,-0.026633999999999998,0.9978940000000001,-0.058819,0.015162,-0.046587,-0.00176,-0.004021,0.006211,0.038051
629,-0.424887,-1.505634,-2.229719,-0.026716000000000004,0.997878,-0.059048,0.017296000000000002,-0.046594,-0.0017460000000000002,-0.006959999999999999,0.006364,0.041134
630,-0.424878,-1.505364,-2.2287529999999998,-0.026826,0.9978600000000001,-0.05929299999999999,0.016234000000000002,-0.047647,-0.0038880000000000004,-0.0063,0.005146,0.03903
631,-0.425497,-1.505166,-2.228359,-0.026945999999999998,0.9978469999999999,-0.059459000000000005,0.011947,-0.050832999999999996,-0.002846,-0.007951,0.00702,0.036662
632,-0.424992,-1.5049139999999999,-2.22683,-0.027022000000000004,0.9978309999999999,-0.059707,0.018338999999999998,-0.049802,0.00040199999999999996,-0.007768000000000001,0.011096,0.040344
633,-0.423727,-1.504516,-2.224625,-0.027110000000000002,0.9978040000000001,-0.060104,0.027984,-0.043432,-0.0027429999999999998,-0.008641,0.00424,0.039185000000000005
634,-0.422321,-1.504008,-2.222434,-0.027233999999999998,0.99777,-0.06060700000000001,0.031218,-0.037047000000000004,-0.003797,-0.008166,0.005098,0.035903
635,-0.42033400000000004,-1.5034459999999998,-2.21972,-0.027344,0.997733,-0.061175,0.032285,-0.034929,-0.001656,-0.007019,0.005288,0.034732
636,-0.41752700000000004,-1.502915,-2.216225,-0.027388,0.997697,-0.061739999999999996,0.031204000000000003,-0.034938,0.001541,-0.008378,0.007079,0.036975
637,-0.413866,-1.50241,-2.211879,-0.027366,0.997663,-0.062303,0.033337,-0.032823000000000005,0.0036899999999999997,-0.007348,0.00632,0.038988
638,-0.410422,-1.501882,-2.207777,-0.027362,0.997626,-0.06288200000000001,0.034423,-0.030688,0.001558,-0.007428,0.003182,0.034501
639,-0.407197,-1.501316,-2.203937,-0.027384,0.9975870000000001,-0.06349099999999999,0.031228,-0.030672,0.000468,-0.006613,0.007951999999999999,0.034011
640,-0.40484000000000003,-1.500772,-2.200976,-0.027449,0.997549,-0.064057,0.031247000000000004,-0.029594,-0.002738,-0.006409999999999999,0.013590000000000001,0.033815
641,-0.40329699999999996,-1.500235,-2.198887,-0.027562,0.9975120000000001,-0.064595,0.034470999999999995,-0.026400999999999997,-0.004856,-0.009044,0.012208,0.035252
642,-0.402223,-1.499562,-2.197243,-0.027757,0.9974639999999999,-0.065247,0.037672000000000004,-0.028533999999999997,-0.006967,-0.007689,0.011812999999999999,0.035218
643,-0.400135,-1.498816,-2.19455,-0.027913,0.997411,-0.065995,0.041935,-0.027493,-0.004803,-0.008586,0.011195,0.036957
644,-0.396836,-1.498076,-2.190789,-0.027981,0.9973569999999999,-0.06677000000000001,0.045145,-0.020068,0.000551,-0.005405,0.00603,0.033491
645,-0.390947,-1.4971889999999999,-2.18458,-0.027926,0.997292,-0.067755,0.053675,-0.014797,0.007014,-0.006055,0.007377,0.036291000000000004
646,-0.38315,-1.496251,-2.176527,-0.027748000000000002,0.997223,-0.068841,0.056875999999999996,-0.009504,0.01237,-0.005257,0.005539,0.03872
647,-0.375382,-1.495333,-2.168568,-0.027549,0.9971540000000001,-0.069909,0.057966,-0.0063030000000000004,0.010237000000000001,-0.0055320000000000005,0.005745,0.036965
648,-0.36849899999999997,-1.494437,-2.161525,-0.027389999999999998,0.997086,-0.070934,0.054771,-0.006287,0.009147,-0.006529999999999999,0.005522999999999999,0.036433999999999994
649,-0.362178,-1.493492,-2.1550700000000003,-0.027277,0.997014,-0.071992,0.055857000000000004,-0.005213000000000001,0.005947999999999999,-0.005940999999999999,0.005443,0.036897000000000006
650,-0.35656,-1.492536,-2.149317,-0.027206,0.9969389999999999,-0.073041,0.056923,-0.006278,0.004889,-0.006241,0.004999,0.036099
651,-0.35037399999999996,-1.491607,-2.143027,-0.027073000000000003,0.996866,-0.07408200000000001,0.055857000000000004,-0.004152,0.007015,-0.005901,0.010320999999999999,0.035568
652,-0.344004,-1.490683,-2.1365220000000003,-0.026912000000000002,0.996793,-0.07512200000000001,0.054876,-0.006534999999999999,0.009193999999999999,-0.006474,0.005405,0.037127999999999994
653,-0.337486,-1.489776,-2.129854,-0.026723,0.99672,-0.076152,0.05488,-0.00547,0.009193000000000002,-0.007518,0.004028,0.036769
654,-0.331512,-1.488852,-2.12377,-0.026568,0.9966440000000001,-0.077185,0.054895000000000006,-0.0033350000000000003,0.008122,-0.00607,0.003264,0.035162
655,-0.3257,-1.4879280000000001,-2.117903,-0.026416000000000002,0.996568,-0.078216,0.055962,-0.002278,0.009196,-0.00604,0.006194,0.03244
656,-0.31899299999999997,-1.486949,-2.111182,-0.026198000000000003,0.9964870000000001,-0.079321,0.062363,0.0019440000000000002,0.013508000000000001,-0.005693,0.009479000000000001,0.034292
657,-0.311123,-1.485932,-2.103334,-0.025885000000000002,0.996401,-0.080496,0.062353,0.002996,0.016712,-0.00773,0.004072,0.036551
658,-0.303,-1.484861,-2.095238,-0.02555,0.99631,-0.081726,0.063425,0.004058,0.016718,-0.006111999999999999,0.007474,0.031631
659,-0.29555,-1.483824,-2.0878900000000002,-0.025241999999999997,0.9962200000000001,-0.082906,0.059172,0.005146,0.01455,-0.0054280000000000005,0.007716,0.033818
660,-0.289274,-1.482849,-2.0816369999999997,-0.024999,0.996135,-0.083996,0.056562,-0.000665,0.011729,-0.008235,0.009984,0.031292
661,-0.283641,-1.481866,-2.07587,-0.0248,0.9960479999999999,-0.085078,0.05651900000000001,-0.010251999999999999,0.011741,-0.0069689999999999995,0.011993,0.03065
662,-0.278516,-1.480898,-2.070379,-0.024630000000000003,0.9959620000000001,-0.086135,0.056480999999999996,-0.019835,0.010684,-0.007856,0.009623,0.032897
663,-0.27322199999999996,-1.4799120000000001,-2.064679,-0.024439,0.995873,-0.087212,0.056486,-0.017709,0.01175,-0.00971,0.003715,0.032677
664,-0.268173,-1.478893,-2.059318,-0.024269,0.9957799999999999,-0.08831900000000001,0.058642999999999994,-0.013451,0.010690999999999999,-0.008934000000000001,0.003518,0.028245999999999997
665,-0.26303499999999996,-1.477861,-2.0539709999999998,-0.024083,0.995685,-0.089436,0.057601,-0.008121,0.010676999999999999,-0.008739,0.013333000000000001,0.029377999999999998
666,-0.258191,-1.476836,-2.048942,-0.023911,0.995589,-0.090542,0.057615,-0.007047,0.008539,-0.009079,0.009767,0.030819
667,-0.254657,-1.475741,-2.0452169999999996,-0.023866,0.9954860000000001,-0.091685,0.059777,-0.009151000000000001,1.1e-05,-0.010771,0.008039,0.030619999999999998
668,-0.252265,-1.474596,-2.0425169999999997,-0.023932,0.995376,-0.092848,0.06205599999999999,-0.017554,-0.001818,-0.009836,0.004792,0.030775
669,-0.250202,-1.473431,-2.040092,-0.024028,0.9952639999999999,-0.094024,0.062051,-0.018619,-0.0018170000000000003,-0.009114,0.00022,0.03482
670,-0.247398,-1.472289,-2.0369479999999998,-0.024044,0.995152,-0.095196,0.062032000000000004,-0.016513999999999997,0.0045899999999999995,-0.004353,0.008693000000000001,0.025889999999999996
671,-0.243104,-1.471149,-2.0322720000000003,-0.023909,0.9950389999999999,-0.096402,0.064122,-0.018682,0.012085,-0.005907,0.013216,0.028988999999999997
672,-0.23745500000000003,-1.4699520000000001,-2.0262990000000003,-0.023645,0.99492,-0.097696,0.066275,-0.011245999999999999,0.015295,-0.006995,0.009063,0.03161
673,-0.231871,-1.468804,-2.020596,-0.023362,0.9948030000000001,-0.098942,0.064185,-0.0016510000000000001,0.015268,-0.009628,0.006082,0.029209
674,-0.226838,-1.467703,-2.015493,-0.023111000000000003,0.994691,-0.10013,0.060989,-0.003757,0.012044,-0.007573999999999999,0.009353,0.026475
675,-0.222169,-1.466566,-2.010662,-0.022892,0.9945729999999999,-0.10134,0.062036,-0.009082999999999999,0.01099,-0.005901,0.008784,0.025075999999999998
676,-0.21845799999999999,-1.4654459999999998,-2.0067180000000002,-0.022759,0.9944559999999999,-0.10251600000000001,0.06283,-0.011868,0.00692,-0.005867,0.009969,0.026527
677,-0.215337,-1.46432,-2.0033689999999997,-0.022678,0.994337,-0.103682,0.059654,-0.008653000000000001,0.004757,-0.009106,0.00313,0.025053
678,-0.21319699999999997,-1.463231,-2.001075,-0.022686,0.9942200000000001,-0.10479100000000001,0.056472,-0.008625,0.000462,-0.009464,0.005413,0.024972
679,-0.21127100000000001,-1.4622030000000001,-1.998889,-0.022699,0.99411,-0.10583499999999998,0.05538099999999999,-0.012886000000000002,0.0015279999999999998,-0.008567,0.005799,0.022416
680,-0.20952800000000002,-1.4611239999999999,-1.9968419999999998,-0.022737,0.993992,-0.106924,0.057515,-0.015016,-0.000591,-0.006239,0.0047409999999999996,0.018729
681,-0.207839,-1.460027,-1.994847,-0.022783,0.993871,-0.10803299999999999,0.058577,-0.015024000000000001,0.00048499999999999997,-0.007215999999999999,0.006861,0.017700999999999998
682,-0.20576399999999997,-1.45895,-1.9924560000000002,-0.022778,0.9937520000000001,-0.10913199999999999,0.057486,-0.016102,0.004751,-0.008167,0.011040000000000001,0.017686
683,-0.20291900000000002,-1.457859,-1.989236,-0.022687,0.9936290000000001,-0.11026199999999999,0.059601,-0.017188,0.007972,-0.007053,0.008140999999999999,0.021792
684,-0.199902,-1.456797,-1.9858759999999998,-0.022563999999999997,0.993509,-0.11136700000000001,0.055357,-0.013968000000000001,0.005802000000000001,-0.008122,0.005575,0.023049
685,-0.197511,-1.455806,-1.9832310000000002,-0.022491,0.993396,-0.11238699999999999,0.051108999999999995,-0.010753,0.0047,-0.010102,0.006268,0.022452
686,-0.195418,-1.454907,-1.9808880000000002,-0.022428999999999998,0.993292,-0.11331,0.047899000000000004,-0.011812000000000001,0.0057469999999999995,-0.01053,0.009470000000000001,0.017043
687,-0.193104,-1.454037,-1.9783119999999998,-0.022333000000000002,0.9931909999999999,-0.11420999999999999,0.044683999999999995,-0.013935,0.006795999999999999,-0.008917,0.010364,0.017057
688,-0.191072,-1.453188,-1.975957,-0.022261000000000003,0.993092,-0.11508399999999999,0.045745999999999995,-0.016065,0.005738,-0.010179,0.009165999999999999,0.017794
689,-0.18926700000000002,-1.452359,-1.973907,-0.022209,0.992994,-0.11593599999999998,0.044713,-0.009666,0.004654,-0.011712,0.004946,0.020111
690,-0.18728,-1.4515049999999998,-1.971818,-0.022136000000000003,0.992893,-0.116815,0.045813,-0.0022129999999999997,0.004652,-0.012058,0.006512,0.019311000000000002
691,-0.185292,-1.450623,-1.969686,-0.022066,0.9927879999999999,-0.11772,0.04898,-0.008620000000000001,0.005751,-0.0063159999999999996,0.010203,0.012831
692,-0.18348499999999998,-1.44971,-1.967675,-0.022018,0.9926780000000001,-0.118652,0.04898,-0.010742,0.003617,-0.008301000000000001,0.00572,0.017822
693,-0.182455,-1.4488299999999998,-1.9664400000000002,-0.022055,0.9925709999999999,-0.11953399999999999,0.044742000000000004,-0.008579,-0.000688,-0.005213000000000001,0.00221,0.019313999999999998
694,-0.181833,-1.4480979999999999,-1.965541,-0.022112,0.992482,-0.12026400000000001,0.035101,-0.014946000000000001,0.001389,-0.006254,0.00088,0.017084000000000002
695,-0.180694,-1.4475,-1.964118,-0.022082,0.992409,-0.12087300000000001,0.030824,-0.012816999999999999,0.005629,-0.006421,0.0037159999999999997,0.017694
696,-0.178811,-1.446973,-1.9619810000000002,-0.021947,0.992344,-0.121429,0.030795999999999997,-0.013904,0.010971,-0.007884,0.004177,0.017715
697,-0.17634,-1.446451,-1.9591669999999999,-0.021738,0.9922790000000001,-0.121995,0.0297,-0.017109,0.014173,-0.007558,0.007843000000000001,0.016984
698,-0.173925,-1.445934,-1.9564409999999999,-0.021533,0.992215,-0.122554,0.029733999999999997,-0.012835,0.010962999999999999,-0.009137000000000001,0.006397,0.018519
699,-0.171921,-1.4454639999999999,-1.954177,-0.021366999999999997,0.9921559999999999,-0.123057,0.024418000000000002,-0.010676999999999999,0.008786,-0.008586,0.009965,0.015727
700,-0.17039100000000001,-1.445054,-1.9523869999999999,-0.021248,0.9921049999999999,-0.123492,0.021213,-0.013853,0.006631999999999999,-0.008888,0.009894,0.017016
701,-0.169369,-1.444724,-1.9510169999999998,-0.021177,0.9920629999999999,-0.12383599999999999,0.017998,-0.018099,0.005546,-0.009936,0.010225,0.017696
702,-0.16880499999999998,-1.444444,-1.950023,-0.021154,0.992028,-0.124123,0.014793,-0.021275,0.003392,-0.011225,0.006919,0.022683000000000002
703,-0.16851300000000002,-1.444192,-1.949313,-0.021159999999999998,0.9919959999999999,-0.124376,0.013744999999999999,-0.018071,0.0023120000000000003,-0.013722,0.000542,0.026048
704,-0.168202,-1.4439540000000002,-1.948708,-0.021161000000000003,0.991966,-0.124616,0.013755000000000002,-0.01488,0.0033759999999999997,-0.010273000000000001,0.005241,0.020826
705,-0.167552,-1.443758,-1.947741,-0.021112,0.991942,-0.124821,0.010535,-0.017008000000000002,0.005493,-0.009696,0.006807,0.018818
706,-0.16652,-1.4436,-1.946291,-0.02101,0.9919209999999999,-0.124999,0.010496,-0.021286000000000003,0.009771,-0.009111,0.004538,0.016799
707,-0.16561800000000002,-1.443489,-1.9449,-0.020915,0.991907,-0.125128,0.008353,-0.02447,0.008692,-0.00916,0.006094,0.023352
708,-0.165044,-1.443403,-1.943864,-0.020857,0.9918959999999999,-0.125224,0.0051909999999999994,-0.020181,0.004391,-0.009386,0.005327,0.026805000000000002
709,-0.165197,-1.443393,-1.9437229999999999,-0.020878,0.9918950000000001,-0.12523,-0.001153,-0.010558,0.0011300000000000001,-0.01289,0.00426,0.025194
710,-0.166002,-1.443506,-1.944335,-0.02096,0.9919100000000001,-0.125102,-0.0054009999999999996,-0.009465000000000001,-0.002106,-0.009908,0.010486,0.022182
711,-0.166605,-1.443652,-1.944737,-0.021011000000000002,0.991928,-0.124946,-0.006481999999999999,-0.010535,2.5e-05,-0.00943,0.011856,0.022269999999999998
712,-0.167291,-1.4438360000000001,-1.945196,-0.021067,0.991951,-0.124753,-0.007554000000000001,-0.010536,0.001085,-0.012075,0.003273,0.02615
713,-0.167665,-1.443994,-1.945386,-0.021088,0.9919709999999999,-0.12459100000000001,-0.005406,-0.007347,0.0010960000000000002,-0.011139,0.001895,0.024203
714,-0.167741,-1.4441110000000001,-1.945393,-0.021078,0.991986,-0.124475,-0.0043100000000000005,-0.000959,0.0010960000000000002,-0.011805,0.004382,0.026269
715,-0.167683,-1.444302,-1.9454060000000002,-0.021038,0.9920100000000001,-0.124287,-0.008568000000000001,0.004369,0.004264,-0.010166,0.01214,0.024066999999999998
716,-0.167232,-1.444466,-1.945007,-0.020955,0.992031,-0.12413699999999998,-0.005386999999999999,0.001158,0.005358,-0.006876999999999999,0.014149,0.022361000000000002
717,-0.16753800000000002,-1.444704,-1.94528,-0.020954,0.9920610000000001,-0.123896,-0.011773,-0.0009289999999999999,-2.5e-05,-0.008175,0.0072829999999999995,0.028482999999999998
718,-0.168631,-1.444985,-1.9463970000000002,-0.021041999999999998,0.9920959999999999,-0.123599,-0.013883000000000001,0.002283,-0.00218,-0.006072,0.005829,0.025775
719,-0.169232,-1.445274,-1.9469169999999998,-0.021068,0.992132,-0.123304,-0.012874000000000002,-0.007320999999999999,0.001044,-0.006687,0.00297,0.027875
720,-0.169205,-1.445555,-1.946826,-0.021018000000000002,0.992168,-0.123028,-0.014993000000000001,0.000126,0.005293,-0.0071189999999999995,0.001119,0.028454000000000004
721,-0.168528,-1.4459629999999999,-1.94618,-0.020866,0.992218,-0.122642,-0.016621,0.001318,0.011695,-0.008125,0.007918999999999999,0.024818
722,-0.167277,-1.4463409999999999,-1.9449439999999998,-0.020651,0.992265,-0.122299,-0.014483000000000001,0.002376,0.011708,-0.007364,0.007215999999999999,0.027114999999999997
723,-0.16610999999999998,-1.446699,-1.9438520000000001,-0.020449000000000002,0.99231,-0.12197100000000001,-0.015521,0.005588,0.008492,-0.007306999999999999,0.009002,0.026389999999999997
724,-0.165424,-1.447101,-1.943297,-0.0203,0.992359,-0.121592,-0.017634999999999998,0.007735,0.006338,-0.0070290000000000005,0.0074730000000000005,0.030253
725,-0.165106,-1.447493,-1.9431200000000002,-0.020197,0.992408,-0.12121400000000002,-0.018697,0.006682,0.004196,-0.006520999999999999,0.008859,0.028029000000000002
726,-0.164924,-1.447925,-1.943036,-0.020105,0.992461,-0.120795,-0.02085,0.003489,0.005253,-0.008277,0.010438,0.028754000000000002
727,-0.164662,-1.448399,-1.942807,-0.019996,0.992519,-0.120335,-0.020874,0.000285,0.007393,-0.009316,0.009816,0.028857999999999998
728,-0.164097,-1.448821,-1.94222,-0.019859,0.9925700000000001,-0.119933,-0.016621,-0.001865,0.008494,-0.0076370000000000006,0.010405,0.030761
729,-0.163607,-1.4492049999999999,-1.941661,-0.019739,0.992617,-0.11956800000000001,-0.01554,-0.0018559999999999998,0.005297,-0.004874,0.005674,0.030411
730,-0.163443,-1.4495930000000001,-1.9414930000000001,-0.019656,0.992664,-0.11919,-0.018721,0.001355,0.004202,-0.004499,0.005215,0.030475
731,-0.163722,-1.4500469999999999,-1.941832,-0.019615999999999998,0.992719,-0.11873900000000001,-0.021903,0.002445,0.000974,-0.0063549999999999995,0.006365999999999999,0.030498
732,-0.164276,-1.450556,-1.9424419999999998,-0.019599000000000002,0.9927799999999999,-0.118229,-0.024037,0.0024519999999999998,0.000959,-0.0063869999999999994,0.010074,0.030688999999999998
733,-0.16498800000000002,-1.45108,-1.943195,-0.019597,0.992843,-0.117701,-0.025099,0.001399,-0.001183,-0.006358,0.009584,0.030116000000000004
734,-0.16588699999999998,-1.451622,-1.9441220000000001,-0.019614,0.992907,-0.11715199999999999,-0.026164999999999997,0.002464,-0.000124,-0.008157,0.010496,0.03306
735,-0.166379,-1.452145,-1.944666,-0.019586000000000003,0.9929690000000001,-0.116631,-0.022984,0.001374,0.003104,-0.009772,0.012265,0.030052
736,-0.16631400000000002,-1.452631,-1.9445830000000002,-0.019497999999999998,0.993027,-0.116155,-0.021941,-0.001834,0.005252000000000001,-0.008227,0.011748999999999999,0.032155
737,-0.165969,-1.453069,-1.944229,-0.019386,0.993078,-0.11573199999999999,-0.019798,0.00135,0.006331,-0.009529000000000001,0.006327,0.033655000000000004
738,-0.165711,-1.453449,-1.94407,-0.019294,0.993123,-0.11536600000000001,-0.017631,0.0056170000000000005,0.003136,-0.010094,0.004161,0.034937
739,-0.165605,-1.453882,-1.9441330000000001,-0.019211000000000002,0.993173,-0.114944,-0.01976,0.008812,0.005254,-0.008834,0.0050409999999999995,0.028364999999999998
740,-0.16521,-1.454333,-1.943921,-0.019091999999999998,0.993226,-0.11450899999999999,-0.01976,0.008812,0.005254,-0.007947,0.008559,0.030937
741,-0.165034,-1.454752,-1.9438919999999997,-0.019003,0.993274,-0.114101,-0.017626,0.006682,0.003135,-0.005104999999999999,0.013194999999999998,0.031261000000000004
742,-0.165473,-1.4552100000000001,-1.944525,-0.018979,0.9933270000000001,-0.11364400000000001,-0.019726,0.010962999999999999,-9e-05,-0.009647,0.004811,0.035412
743,-0.166158,-1.45567,-1.945485,-0.018981,0.9933799999999999,-0.113179,-0.023979,0.013113,-0.00119,-0.007051000000000001,0.007276,0.030751
744,-0.166798,-1.456165,-1.946316,-0.018971000000000002,0.9934370000000001,-0.11268099999999999,-0.024013,0.007778,0.000953,-0.004954999999999999,0.005953,0.031825
745,-0.167201,-1.456615,-1.9469130000000001,-0.018941999999999997,0.9934879999999999,-0.11223,-0.020802,0.009898,0.0009720000000000001,-0.005075,0.005688,0.036867000000000004
746,-0.16759300000000002,-1.457099,-1.947513,-0.018906,0.9935430000000001,-0.111748,-0.020793,0.012028,0.0009699999999999999,-0.009094,0.007204,0.034844
747,-0.167959,-1.457525,-1.94816,-0.018876,0.993592,-0.111323,-0.021845,0.014166999999999999,-0.000109,-0.01036,0.008926,0.033458
748,-0.168243,-1.457997,-1.948767,-0.018829,0.9936450000000001,-0.110855,-0.022903,0.016301,-0.00011899999999999999,-0.009888,0.005913,0.032425
749,-0.16878800000000002,-1.4585620000000001,-1.94966,-0.018795,0.993708,-0.110293,-0.022903,0.017362,0.0009480000000000001,-0.006640999999999999,0.012258,0.032260000000000004
750,-0.168812,-1.45902,-1.950073,-0.018721,0.9937600000000001,-0.10984200000000001,-0.020763999999999998,0.019481000000000002,0.002029,-0.00783,0.010329999999999999,0.034158
751,-0.168541,-1.459438,-1.950202,-0.018621000000000002,0.993806,-0.10943800000000001,-0.018635,0.02053,0.004178,-0.008402,0.009917,0.035006
752,-0.168078,-1.459854,-1.9501819999999999,-0.018501,0.9938520000000001,-0.10903800000000001,-0.017554,0.024783000000000003,0.005249,-0.008995,0.006468000000000001,0.034911000000000005
753,-0.167482,-1.460253,-1.9500099999999998,-0.018369999999999997,0.9938959999999999,-0.10865899999999999,-0.017578,0.020518,0.0063219999999999995,-0.009141,0.007828,0.03531
754,-0.166899,-1.46061,-1.94982,-0.018248,0.993936,-0.10832,-0.016511,0.018392,0.004196,-0.008729,0.008674,0.034421
755,-0.16694,-1.4610239999999999,-1.950227,-0.018184,0.993981,-0.107912,-0.018692,0.01726,0.000909,-0.00974,0.004234,0.034975
756,-0.16733900000000002,-1.461483,-1.9509900000000002,-0.018151,0.994031,-0.107455,-0.021887,0.018337,0.000886,-0.009864,0.006381,0.035174000000000004
757,-0.167482,-1.4619719999999998,-1.9514880000000001,-0.018085,0.994084,-0.106973,-0.02083,0.017263,0.001963,-0.008495,0.008311,0.03634
758,-0.166831,-1.462349,-1.9512049999999999,-0.017953,0.994125,-0.10661400000000001,-0.015505000000000001,0.019358,0.00627,-0.009085,0.007506999999999999,0.036088
759,-0.165682,-1.462676,-1.950511,-0.017777,0.9941610000000001,-0.106314,-0.012286,0.025730000000000003,0.008421,-0.009475,0.007136,0.0371
760,-0.16450399999999998,-1.463001,-1.9499,-0.017599,0.9941959999999999,-0.10601600000000001,-0.012262,0.031056,0.008414,-0.01037,0.007529000000000001,0.035443999999999996
761,-0.162944,-1.463309,-1.9490040000000002,-0.017384,0.9942290000000001,-0.105743,-0.014381,0.033199,0.007328,-0.010616,0.006,0.035904000000000005
762,-0.16187,-1.46365,-1.948575,-0.017216,0.994265,-0.105426,-0.015688,0.032379000000000005,0.003927,-0.012126999999999999,0.006543000000000001,0.035129
763,-0.16111199999999998,-1.464014,-1.94845,-0.017078,0.9943040000000001,-0.105082,-0.014625999999999998,0.032371,0.005002,-0.010418,0.00916,0.039606999999999996
764,-0.160321,-1.464357,-1.9483580000000003,-0.01694,0.994341,-0.10475799999999999,-0.016736,0.036643,0.003914,-0.012128,0.004912,0.040137
765,-0.15948199999999998,-1.464741,-1.9482669999999997,-0.016791999999999998,0.994381,-0.104395,-0.013535,0.037693,0.0050030000000000005,-0.008537999999999999,0.012088,0.037119
766,-0.158379,-1.465082,-1.9479509999999998,-0.016623,0.994417,-0.10407899999999999,-0.015653999999999998,0.040895999999999995,0.004984000000000001,-0.011468,0.009184000000000001,0.036513
767,-0.15745399999999998,-1.465407,-1.947859,-0.016475999999999998,0.994452,-0.103775,-0.014568000000000001,0.043032,0.002853,-0.013004,0.008951,0.040023
768,-0.157095,-1.465767,-1.948252,-0.016383,0.99449,-0.103427,-0.013535,0.03451,0.001802,-0.012395,0.010103000000000001,0.035373
