,attitude.roll,attitude.pitch,attitude.yaw,gravity.x,gravity.y,gravity.z,rotationRate.x,rotationRate.y,rotationRate.z,userAcceleration.x,userAcceleration.y,userAcceleration.z
0,0.42976000000000003,-1.564584,3.0477849999999997,0.002593,0.9999809999999999,-0.0056560000000000004,0.059234,0.027056999999999998,0.06981799999999999,0.004808,0.0054210000000000005,0.014446
1,0.5809479999999999,-1.563484,-3.084561,0.0040149999999999995,0.999973,-0.006116,0.051723000000000005,0.011134,0.062309,0.00048600000000000005,0.003124,0.016094999999999998
2,0.6285430000000001,-1.562188,-3.037054,0.005058,0.9999629999999999,-0.006958,0.036826,0.002732,0.045124,-0.000938,0.003073,0.015441999999999999
3,0.683233,-1.56186,-2.9824029999999997,0.005642,0.9999600000000001,-0.0069310000000000005,0.026220999999999998,0.00283,0.030094,-0.002025,0.002069,0.014667
4,0.714483,-1.561575,-2.951228,0.0060420000000000005,0.999958,-0.006966,0.015603,0.003975,0.019336000000000002,-0.0029289999999999997,0.003476,0.015862
5,0.7489520000000001,-1.56156,-2.916764,0.0062840000000000005,0.999957,-0.006759,0.0028179999999999998,-0.001268,0.009639,0.002536,0.00581,0.015106
6,0.8194389999999999,-1.561877,-2.846171,0.006520000000000001,0.9999600000000001,-0.00609,-0.011252,-0.009855,-0.000206,0.0037649999999999997,0.003107,0.010515
7,0.8442290000000001,-1.562198,-2.821075,0.0064269999999999996,0.9999629999999999,-0.005712,-0.024055,-0.018299,-0.008831,0.002972,0.001227,0.011404000000000001
8,0.961209,-1.562914,-2.703561,0.006462999999999999,0.999969,-0.0045130000000000005,-0.03155,-0.031025,-0.016343,0.007056999999999999,0.008851000000000001,0.012844
9,1.058137,-1.563706,-2.605816,0.006175,0.999975,-0.003476,-0.0348,-0.048033,-0.022752,0.0052380000000000005,0.012064,0.014034999999999999
10,1.1987860000000001,-1.5645879999999999,-2.464014,0.0057929999999999995,0.9999809999999999,-0.0022600000000000003,-0.031674,-0.06614500000000001,-0.024843,0.002386,0.008579999999999999,0.011553
11,1.303301,-1.5652979999999999,-2.3579529999999997,0.005303,0.999985,-0.0014529999999999999,-0.025341,-0.081081,-0.02478,0.001228,0.005966,0.009922
12,1.461792,-1.56602,-2.1977439999999997,0.004745,0.9999889999999999,-0.000519,-0.01791,-0.087502,-0.023652,-0.003173,0.0030629999999999998,0.011017
13,1.65347,-1.566555,-2.004334,0.004242,0.999991,0.000352,-0.01154,-0.089672,-0.019332,-0.0015869999999999999,0.007165,0.012512
14,1.7836740000000002,-1.566924,-1.872324,0.003795,0.999992,0.00082,-0.007478,-0.09095700000000001,-0.018353,-0.003093,0.006325,0.011936
15,2.012366,-1.567337,-1.6417950000000001,0.003136,0.999994,0.001482,-0.006418000000000001,-0.090964,-0.017278,-0.007072,0.0072840000000000005,0.011076
16,2.3192009999999996,-1.567627,-1.333167,0.002311,0.9999950000000001,0.002146,-0.003191,-0.083522,-0.0162,-0.009909999999999999,0.008565000000000001,0.011983
17,2.527185,-1.567748,-1.123626,0.001749,0.9999950000000001,0.002479,-0.001006,-0.07287300000000001,-0.017266999999999998,-0.009318,0.008595,0.012276
18,2.896275,-1.567663,-0.753262,0.000762,0.9999950000000001,0.003043,-0.001999,-0.060069000000000004,-0.021567,-0.012145,0.006414,0.010766
19,-3.0589169999999997,-1.5671629999999999,-0.42424300000000004,-0.000301,0.999993,0.0036270000000000004,-0.001916,-0.046199000000000004,-0.026927999999999997,-0.01125,0.00524,0.011495
20,-2.857202,-1.566745,-0.22175599999999998,-0.0011359999999999999,0.999992,0.003885,-0.005045,-0.034451999999999997,-0.031239,-0.010125,0.004922,0.008062999999999999
21,-2.6804330000000003,-1.565876,-0.044454,-0.002193,0.9999879999999999,0.004413,-0.012429,-0.021616999999999997,-0.037718,-0.0065049999999999995,0.0035520000000000005,0.0066040000000000005
22,-2.550808,-1.564737,0.08544700000000001,-0.0033729999999999997,0.9999819999999999,0.005028,-0.02103,-0.008945,-0.047504000000000005,-0.006302,0.004398,0.005958
23,-2.4724630000000003,-1.563524,0.16388699999999998,-0.004509,0.999974,0.0057009999999999995,-0.031642,-0.00143,-0.052929,-0.004311,0.004299,0.005255
24,-2.407628,-1.562027,0.22867800000000002,-0.005874,0.9999620000000001,0.006512,-0.043315,0.003972,-0.061564999999999995,-0.004334,0.0035020000000000003,0.001468
25,-2.361831,-1.560391,0.274358,-0.007312000000000001,0.9999459999999999,0.0073950000000000005,-0.050744,0.005093,-0.069096,0.000964,0.003915,-0.00271
26,-2.33838,-1.5587600000000001,0.297697,-0.008664,0.999928,0.008361,-0.052863,0.0051140000000000005,-0.072315,0.003507,0.003399,-0.003356
27,-2.318605,-1.557202,0.317393,-0.009967,0.999908,0.009244,-0.053952999999999994,0.000852,-0.071248,0.003909,0.0034189999999999997,-0.005201
28,-2.297142,-1.555777,0.33886,-0.011227,0.9998870000000001,0.009973000000000001,-0.050769999999999996,-0.002359,-0.070153,0.003018,0.006490999999999999,-0.0069370000000000005
29,-2.279405,-1.554571,0.356645,-0.012319,0.999868,0.010558,-0.045473,-0.002411,-0.061569000000000006,0.0031940000000000002,0.006159,-0.008025
30,-2.2618869999999998,-1.55367,0.374205,-0.013194999999999998,0.9998530000000001,0.010915000000000001,-0.034983,-0.001605,-0.051975,0.0071530000000000005,0.00683,-0.010686
31,-2.2422,-1.553087,0.393939,-0.013863,0.999843,0.011015,-0.020107,-0.003834,-0.040116000000000006,0.005959000000000001,0.007542,-0.009382
32,-2.218976,-1.552949,0.41722,-0.014224,0.999841,0.010773,-0.005212,-0.0028640000000000002,-0.029330000000000002,0.008806999999999999,0.009467,-0.01181
33,-2.1934400000000003,-1.553194,0.442808,-0.014301,0.9998450000000001,0.010267,0.009669,-0.001906,-0.015338999999999998,0.008440999999999999,0.007266,-0.009458
34,-2.160809,-1.553764,0.47548199999999996,-0.014153,0.9998549999999999,0.009476,0.022421,-0.001997,-0.0034969999999999997,0.006875,0.00898,-0.009217
35,-2.119987,-1.5545309999999999,0.516354,-0.013871000000000001,0.999868,0.008489,0.034134,-0.004181,-0.000207,0.006654,0.007319,-0.009191
36,-2.069396,-1.555291,0.567134,-0.013618,0.9998799999999999,0.007415000000000001,0.037298000000000005,-0.012715,-0.000172,0.006157,0.003431,-0.007903
37,-2.015854,-1.555814,0.6210180000000001,-0.013522999999999999,0.9998879999999999,0.00645,0.036218,-0.01909,-0.0033759999999999997,0.0021550000000000002,0.005178,-0.004146
38,-1.971141,-1.5559479999999999,0.666172,-0.013678000000000001,0.99989,0.005789,0.029685000000000003,-0.021315999999999998,-0.0078060000000000004,-0.001977,0.004229999999999999,0.000834
39,-1.927075,-1.555699,0.710607,-0.014146,0.999886,0.005265,0.024394,-0.017015,-0.013191,-0.007979,0.005943,0.00119
40,-1.893763,-1.554727,0.744204,-0.015241,0.999871,0.005101,0.019097,-0.010596,-0.015375999999999999,-0.016436000000000003,0.0043560000000000005,0.004649
41,-1.8689360000000002,-1.554117,0.769025,-0.015941,0.9998610000000001,0.004899000000000001,0.012787,0.006483,-0.018649000000000002,-0.017216,0.002291,0.004501
42,-1.851221,-1.553031,0.786358,-0.01707,0.999842,0.004915999999999999,0.007547,0.026746,-0.019783000000000002,-0.019673,0.0028280000000000002,0.006528
43,-1.830414,-1.551618,0.8063819999999999,-0.018533,0.999816,0.004922999999999999,0.00016,0.044882,-0.019863,-0.016715,0.001603,-5.5e-05
44,-1.821965,-1.550951,0.813706,-0.019223,0.9998030000000001,0.004932,-0.0029690000000000003,0.06299500000000001,-0.017774,-0.016452,0.00244,-0.00011100000000000001
45,-1.8066790000000001,-1.550024,0.827515,-0.020197,0.999784,0.004855,-0.0029059999999999997,0.080026,-0.014594,-0.007879,0.008089,-0.004107
46,-1.803738,-1.54976,0.8287129999999999,-0.020465999999999998,0.9997790000000001,0.004855,0.000324,0.08959,-0.011379,-0.008633,0.007301,-0.004901
47,-1.792097,-1.549601,0.838485,-0.020676,0.999775,0.004652,0.001259,0.093658,-0.007228,0.0013130000000000001,0.005886,-0.004484
48,-1.780959,-1.549628,0.8477629999999999,-0.020699000000000002,0.999776,0.004415,0.005508,0.091504,-0.005058,0.00309,0.005458,-0.0024010000000000004
49,-1.772393,-1.549585,0.854543,-0.020781,0.999775,0.004247,0.0076170000000000005,0.088292,-0.002903,0.006117,0.002834,-0.0035299999999999997
50,-1.760809,-1.549827,0.864411,-0.020590999999999998,0.9997799999999999,0.00396,0.007575,0.08507100000000001,0.003511,0.008064,0.002768,-0.004220000000000001
51,-1.74757,-1.550494,0.876007,-0.019987,0.9997940000000001,0.0035700000000000003,0.010738,0.080782,0.007814,0.011824,0.004936,-0.0037530000000000003
52,-1.7303520000000001,-1.55142,0.891684,-0.019131,0.999812,0.0030789999999999997,0.016011,0.07222,0.013205000000000001,0.014737,0.004521,-0.002865
53,-1.711266,-1.552068,0.90945,-0.018544,0.999825,0.0026219999999999998,0.018087,0.060490999999999996,0.014303999999999999,0.013555000000000001,0.00576,-0.00279
54,-1.6826419999999997,-1.553066,0.9370719999999999,-0.017622,0.999843,0.001979,0.020063,0.045484,0.014253,0.013365,0.004521,-0.004954999999999999
55,-1.655059,-1.553968,0.963938,-0.016771,0.999858,0.001416,0.016806,0.031651,0.013183000000000002,0.013063,0.0032090000000000005,-0.003339
56,-1.636234,-1.554491,0.9822790000000001,-0.016271,0.9998670000000001,0.001066,0.012501,0.021022,0.011031000000000001,0.012334,-0.000859,-0.002226
57,-1.621155,-1.555209,0.997049,-0.015568,0.9998790000000001,0.000785,0.003933,0.011473,0.008849,0.010777,-0.00058,-0.0016239999999999998
58,-1.613972,-1.555819,1.0041440000000001,-0.014961000000000002,0.9998879999999999,0.000646,-0.002501,-0.000205,0.004549,0.010520999999999999,0.002065,-0.002874
59,-1.619427,-1.5560450000000001,0.998816,-0.014731999999999999,0.999891,0.000717,-0.008922,-0.009748999999999999,-0.000824,0.008812,0.001757,-0.002151
60,-1.624592,-1.556473,0.993907,-0.0143,0.9998969999999999,0.0007700000000000001,-0.009988,-0.016111,-0.0072310000000000004,0.011615,0.003963,-0.002723
61,-1.635781,-1.556556,0.983117,-0.014208000000000002,0.999899,0.000925,-0.012131,-0.022478,-0.011509,0.013506,0.002787,-0.003488
62,-1.64822,-1.556586,0.971233,-0.014163,0.999899,0.001099,-0.015425,-0.032092,-0.013704,0.013262999999999999,0.001367,-0.004883
63,-1.6597529999999998,-1.556608,0.960478,-0.014131,0.999899,0.00126,-0.017605000000000003,-0.041676,-0.012637,0.01143,0.002191,-0.007379000000000001
64,-1.667156,-1.556948,0.953991,-0.013787,0.9999040000000001,0.001333,-0.020833,-0.048056,-0.012648999999999999,0.011712,-7.2e-05,-0.006978
65,-1.6736369999999998,-1.5571760000000001,0.948577,-0.013549,0.999907,0.001398,-0.025141999999999998,-0.056567,-0.011598,0.009124,0.001161,-0.008326
66,-1.684532,-1.557369,0.938934,-0.013344,0.9999100000000001,0.001524,-0.028379,-0.065078,-0.011608,0.009009999999999999,0.001006,-0.010756
67,-1.71292,-1.5572,0.911947,-0.01346,0.999908,0.0019260000000000002,-0.031608,-0.072519,-0.012689,0.005556,0.002015,-0.009281000000000001
68,-1.7249919999999999,-1.557187,0.901384,-0.013447999999999998,0.999907,0.00209,-0.031625,-0.07678,-0.012681999999999999,0.005422,0.001771,-0.012832
69,-1.734486,-1.5571139999999999,0.8934280000000001,-0.013498,0.999906,0.002229,-0.030565,-0.07785299999999999,-0.011604999999999999,0.004236,0.0044729999999999995,-0.013231
70,-1.7519259999999999,-1.557046,0.877503,-0.013527,0.9999049999999999,0.002477,-0.029541,-0.075753,-0.009477,0.004815,0.001834,-0.007909000000000001
71,-1.7715490000000003,-1.556957,0.8594209999999999,-0.013561000000000002,0.9999040000000001,0.0027600000000000003,-0.032764,-0.078946,-0.007358,0.002681,0.002613,-0.008787
72,-1.794976,-1.5567010000000001,0.837635,-0.013741999999999999,0.999901,0.003133,-0.035988,-0.084261,-0.0073739999999999995,-0.000266,0.005181,-0.008764
73,-1.822053,-1.556365,0.81225,-0.013975,0.9998959999999999,0.003587,-0.031729,-0.084285,-0.005208,-0.0034049999999999996,0.007306,-0.005342
74,-1.841905,-1.555983,0.794029,-0.014273,0.99989,0.003967,-0.026374,-0.080042,-0.005177,-0.004404,0.005481000000000001,-0.0051270000000000005
75,-1.8567150000000001,-1.555575,0.78076,-0.014601,0.999884,0.004292,-0.021025,-0.07474299999999999,-0.003011,-0.005113,0.006692,-0.002934
76,-1.8716849999999998,-1.5552629999999998,0.76718,-0.014831,0.9998790000000001,0.004602,-0.018871000000000002,-0.06730599999999999,0.000198,-0.005997,0.005934,-0.001108
77,-1.892223,-1.554974,0.747915,-0.015013,0.999875,0.004999,-0.018867,-0.061997000000000003,0.004463,-0.007372,0.006365999999999999,0.001883
78,-1.920814,-1.554682,0.7205189999999999,-0.015135,0.99987,0.005525,-0.016759,-0.05776,0.006628,-0.0073409999999999994,0.007317000000000001,0.0050490000000000005
79,-1.9429419999999997,-1.554314,0.699501,-0.015352000000000001,0.999864,0.005992,-0.016745,-0.053502999999999995,0.007689,-0.008742,0.003325,0.0031320000000000002
80,-1.9663080000000002,-1.553882,0.677146,-0.015606,0.999857,0.006516,-0.020994,-0.050288,0.006585,-0.009175,0.003317,0.002228
81,-1.9921900000000001,-1.553439,0.652174,-0.015837999999999998,0.999849,0.007098999999999999,-0.02308,-0.04175,0.004422,-0.008347,0.005094,0.0032770000000000004
82,-2.025072,-1.552775,0.620056,-0.016194,0.9998379999999999,0.007908,-0.02411,-0.035345999999999995,0.002268,-0.007396,0.00474,0.005947
83,-2.052336,-1.552418,0.593385,-0.016286000000000002,0.9998309999999999,0.008511,-0.024066999999999998,-0.026819,0.001189,-0.007289,0.004379999999999999,0.005131
84,-2.080196,-1.552057,0.565951,-0.016358,0.9998239999999999,0.009137000000000001,-0.025101,-0.019358,0.0011710000000000002,-0.006529999999999999,0.005318,0.0041990000000000005
85,-2.107197,-1.551618,0.5392239999999999,-0.016483,0.999816,0.0098,-0.018682,-0.010876,0.005477,-0.00462,0.00792,0.005520000000000001
86,-2.12791,-1.551498,0.51865,-0.016378,0.999814,0.010203,-0.012304,-0.004564,0.010892,-0.003367,0.008197,0.0040030000000000005
87,-2.146045,-1.5516020000000001,0.500553,-0.016104,0.999816,0.010442,-0.0037840000000000005,-0.001424,0.017357,0.000647,0.005586,0.002132
88,-2.161593,-1.551955,0.484947,-0.015646,0.999822,0.010494,0.00155,0.003863,0.022728,0.002706,0.003489,0.003026
89,-2.181661,-1.5524149999999999,0.464771,-0.015057,0.9998309999999999,0.010543,0.001545,0.005981,0.025931,0.003628,0.0038159999999999995,0.0037549999999999997
90,-2.210363,-1.552897,0.43598100000000006,-0.014362,0.99984,0.010683,0.000468,0.003854,0.025927,0.0019260000000000002,0.002769,0.00456
91,-2.231939,-1.553244,0.414376,-0.013850999999999999,0.9998459999999999,0.010775,-0.0006,-0.000386,0.021652,0.000973,0.003953,0.003934
92,-2.250804,-1.5534350000000001,0.395598,-0.013499,0.999849,0.010916,-0.000605,-0.007817000000000001,0.015252000000000002,-0.000371,0.00421,0.00477
93,-2.270295,-1.5533,0.376283,-0.013386000000000002,0.9998469999999999,0.011262999999999999,-0.005907,-0.008829,0.006670000000000001,-0.0030329999999999997,0.001542,0.006742000000000001
94,-2.28892,-1.553002,0.357772,-0.0134,0.999842,0.011709,-0.014431999999999999,-0.004548,0.00238,-0.00433,0.002508,0.009089
95,-2.319773,-1.552326,0.32697,-0.013526,0.9998290000000001,0.012575,-0.020806,-0.001317,-0.0008730000000000001,-0.00361,0.002597,0.011458
96,-2.341955,-1.5517020000000001,0.304777,-0.013693,0.999818,0.013309,-0.023983,0.0018989999999999999,-0.003037,-0.0046630000000000005,0.007873,0.009946
97,-2.366269,-1.550777,0.280384,-0.014011000000000001,0.9998,0.014296000000000001,-0.025028,0.005107,-0.005185,-0.0045130000000000005,0.007356999999999999,0.008272
98,-2.380274,-1.550158,0.26618800000000004,-0.014237999999999999,0.9997870000000001,0.014941,-0.019661,0.012545,-0.005158,-0.004591,0.006576,0.007429000000000001
99,-2.398948,-1.549595,0.247202,-0.014334999999999999,0.999775,0.015616999999999999,-0.015385,0.015722,-0.004064,0.002723,0.00613,0.006402
100,-2.412018,-1.5492569999999999,0.233771,-0.014356,0.999768,0.016055,-0.015381,0.017849,-0.0029980000000000002,0.002195,0.00719,0.005811
101,-2.4256450000000003,-1.5489620000000002,0.21977800000000003,-0.01433,0.999762,0.016472999999999998,-0.012181,0.017838,-0.002975,0.0037549999999999997,0.004999,0.005943
102,-2.443266,-1.5487309999999999,0.20189300000000002,-0.014185,0.999757,0.016899,-0.012222,0.010329999999999999,-0.005035,0.0038090000000000003,0.006712999999999999,0.003121
103,-2.466355,-1.548441,0.178701,-0.013972,0.99975,0.017447999999999998,-0.013328,0.002873,-0.003964,0.007594,0.005011,0.00483
104,-2.478324,-1.548244,0.166729,-0.013884,0.9997459999999999,0.017769,-0.012286,-0.001396,-0.002882,0.00659,0.00471,0.002876
105,-2.496085,-1.548014,0.14896099999999998,-0.013705000000000002,0.99974,0.018197,-0.010138,0.000731,-0.0039369999999999995,0.004961,0.003433,0.004463
106,-2.507602,-1.547808,0.137456,-0.013615,0.9997360000000001,0.018518,-0.01121,-0.00033,-0.003943,0.003453,0.00237,0.001837
107,-2.514466,-1.5475290000000002,0.130669,-0.013652000000000001,0.9997290000000001,0.018838,-0.015491999999999999,-0.005633,-0.006102000000000001,0.0043289999999999995,0.0036729999999999996,0.002357
108,-2.5192259999999997,-1.547268,0.12606199999999998,-0.013713999999999999,0.9997229999999999,0.019112999999999998,-0.019755,-0.006675,-0.008265999999999999,0.002025,0.00313,-0.0033049999999999998
109,-2.522295,-1.546853,0.123134,-0.013899000000000002,0.999713,0.019497,-0.019745,-0.006666,-0.010403,0.00041,0.00282,-0.001233
110,-2.523807,-1.546525,0.121762,-0.014056,0.999705,0.019782,-0.02292,-0.007702,-0.015701,0.0033909999999999995,0.003941,-0.004004
111,-2.5268479999999998,-1.54601,0.118915,-0.014294,0.999693,0.020247,-0.023987,-0.00982,-0.017842,0.003583,0.0042899999999999995,-0.005308
112,-2.527168,-1.5454809999999999,0.11885,-0.014594,0.9996799999999999,0.020685,-0.028254,-0.012988,-0.021072,0.0044009999999999995,0.002304,-0.005136
113,-2.528061,-1.5451190000000001,0.118217,-0.014782,0.9996700000000001,0.020992,-0.029314999999999997,-0.012980000000000002,-0.022146000000000002,0.003827,0.0056240000000000005,-0.004863
114,-2.5248459999999997,-1.544729,0.12166400000000001,-0.015074,0.99966,0.021261000000000002,-0.028238,-0.011914,-0.023208000000000003,0.003203,0.006123,-0.008001000000000001
115,-2.520565,-1.544309,0.126212,-0.015411000000000001,0.999649,0.02154,-0.019731,-0.014091,-0.018872,0.001816,0.0075829999999999995,-0.003321
116,-2.519197,-1.544117,0.127853,-0.015552000000000002,0.9996440000000001,0.021674000000000002,-0.01441,-0.013061000000000001,-0.014563,0.004336,0.006215,-0.0058200000000000005
117,-2.517458,-1.544239,0.129864,-0.015518,0.999647,0.021547,-0.008036,-0.013109,-0.008108,0.006194,0.003572,-0.007585
118,-2.520239,-1.54461,0.127298,-0.015241999999999999,0.999657,0.021289,-0.003764,-0.008870000000000001,0.001598,0.006362,0.0043100000000000005,-0.008411
119,-2.5270330000000003,-1.544965,0.120683,-0.014894,0.9996659999999999,0.021103999999999998,-0.002711,-0.009948,0.003744,0.006456,0.004072,-0.005403
120,-2.5338439999999998,-1.545232,0.11413399999999999,-0.014596000000000001,0.9996729999999999,0.020984,0.0015279999999999998,-0.016354,0.003783,0.00515,0.004584,-0.003924
121,-2.534773,-1.545421,0.11362,-0.014466999999999999,0.9996780000000001,0.02084,-0.001686,-0.022721,0.0005639999999999999,0.00107,0.005006,-0.004483
122,-2.532944,-1.5454430000000001,0.11597400000000001,-0.014495,0.9996790000000001,0.020799,-0.003815,-0.025892000000000002,-0.00372,0.00067,0.001832,-0.004762
123,-2.530846,-1.545345,0.11855299999999999,-0.014596000000000001,0.999676,0.02085,-0.009125,-0.022668999999999998,-0.0058969999999999995,-0.000236,0.0033299999999999996,-0.00286
124,-2.529036,-1.545077,0.12078699999999999,-0.014786,0.999669,0.02104,-0.012296,-0.018387999999999998,-0.008061,-0.002029,0.001811,-0.0008529999999999999
125,-2.524193,-1.5448,0.12599000000000002,-0.015047999999999999,0.999662,0.021195,-0.013358000000000002,-0.017319,-0.008071,-0.0026219999999999998,0.002169,-0.0032649999999999997
126,-2.5189169999999996,-1.544494,0.13156099999999998,-0.015338999999999998,0.999654,0.021365000000000002,-0.017561,-0.013008,-0.008048,-0.00346,0.003779,-0.004367
127,-2.5145470000000003,-1.544106,0.136155,-0.015659,0.9996440000000001,0.021611000000000002,-0.019679,-0.009804,-0.008068,-0.004666,0.0027670000000000004,-0.003254
128,-2.5176380000000003,-1.543733,0.133213,-0.015812,0.999634,0.021963999999999997,-0.017536000000000003,-0.00662,-0.006989,-0.004315,0.0028079999999999997,-0.003058
129,-2.516044,-1.543318,0.134929,-0.016087,0.9996229999999999,0.022271,-0.018588,-0.006603,-0.010201,-0.003811,0.003307,-0.002648
130,-2.511962,-1.5431219999999999,0.139087,-0.016294,0.999617,0.022365,-0.019635,-0.003399,-0.011281,0.002134,0.005144,-0.0034289999999999998
131,-2.512701,-1.542801,0.138377,-0.016465999999999998,0.9996079999999999,0.022636,-0.021754,-0.002318,-0.013433,0.004396,0.003047,-0.0064459999999999995
132,-2.514722,-1.542478,0.136446,-0.01661,0.999599,0.022932,-0.021777,-0.0065829999999999994,-0.012359,0.004953,0.004399,-0.006834000000000001
133,-2.521568,-1.542449,0.129865,-0.01647,0.999598,0.023069,-0.020756999999999998,-0.016178,-0.01127,0.008565999999999999,0.0047810000000000005,-0.007566
134,-2.52645,-1.542206,0.12542899999999998,-0.016497,0.999591,0.023346000000000002,-0.020742,-0.025675,-0.010134,0.007540000000000001,0.0055969999999999995,-0.005829
135,-2.539685,-1.5421479999999999,0.11284300000000001,-0.016219,0.99959,0.02361,-0.019722,-0.035269999999999996,-0.009044,0.006102000000000001,0.0043619999999999996,-0.002477
136,-2.5431310000000003,-1.5416969999999999,0.110181,-0.016392,0.999577,0.024038999999999998,-0.020812999999999998,-0.040592,-0.009045000000000001,0.004703,0.004726,-9.8e-05
137,-2.549684,-1.541188,0.10446099999999998,-0.016517,0.9995620000000001,0.024567,-0.020818,-0.041657,-0.009044,0.00106,0.00439,0.001999
138,-2.5554099999999997,-1.540724,0.09951900000000001,-0.016633000000000002,0.999548,0.025049000000000002,-0.020812999999999998,-0.037409,-0.005843999999999999,3.2e-05,0.00477,0.001853
139,-2.558521,-1.5401799999999999,0.097079,-0.016855000000000002,0.999531,0.025554,-0.021856,-0.031018,-0.004792,-0.004079999999999999,0.004344,0.002156
140,-2.563217,-1.539651,0.092915,-0.017024,0.9995149999999999,0.026076,-0.021833,-0.024630000000000003,-0.003732,-0.0036369999999999996,0.00462,0.005144
141,-2.565912,-1.538843,0.090629,-0.017391999999999998,0.99949,0.026798000000000002,-0.0186,-0.018244999999999997,-0.004787,-0.0048850000000000005,0.004966,0.006725
142,-2.569826,-1.538316,0.087033,-0.017572,0.999473,0.027308999999999996,-0.019578,-0.014948,-0.0036780000000000003,-0.004019,0.005471,0.004704
143,-2.572469,-1.537809,0.08464400000000001,-0.017774,0.9994559999999999,0.027783999999999996,-0.019563999999999998,-0.011752,-0.0036829999999999996,-0.005312,0.006327,0.003512
144,-2.5718970000000003,-1.537344,0.085393,-0.01804,0.99944,0.028163999999999998,-0.016358,-0.007514,-0.000462,-0.003307,0.00619,-0.00021
145,-2.575711,-1.537066,0.081704,-0.018082,0.999431,0.028468,-0.015290999999999999,-0.005396,0.001679,-0.000656,0.006306,-0.000101
146,-2.581789,-1.536833,0.075736,-0.018032,0.999423,0.028774,-0.012101,-0.006476000000000001,0.002771,-0.0007059999999999999,0.0047420000000000006,0.001866
147,-2.585614,-1.5365870000000001,0.072052,-0.018050999999999998,0.9994149999999999,0.029051,-0.013177000000000001,-0.007542,0.003833,-0.002228,0.003179,0.0005809999999999999
148,-2.590679,-1.536343,0.067176,-0.018031000000000002,0.9994069999999999,0.02935,-0.015319999999999999,-0.011787,0.0016870000000000001,-0.002538,0.005186,0.001504
149,-2.596155,-1.536074,0.06196,-0.018009999999999998,0.999397,0.029677999999999996,-0.013187,-0.013916,-0.00043200000000000004,-0.000469,0.002419,0.0014960000000000002
150,-2.6029970000000002,-1.535858,0.055406,-0.017917,0.99939,0.029986000000000002,-0.012042,-0.014888,0.002837,0.0023079999999999997,0.004761,0.002012
151,-2.607795,-1.535677,0.050892,-0.017863999999999998,0.999383,0.030226,-0.009908,-0.013834,0.003919,-0.000629,0.004965,0.001604
152,-2.614121,-1.535517,0.044862,-0.017755,0.9993780000000001,0.030479000000000003,-0.008865999999999999,-0.015981,0.007133,0.000314,0.004834000000000001,0.00216
153,-2.623034,-1.5353219999999999,0.03627,-0.017578,0.9993709999999999,0.030804,-0.009947,-0.018112,0.008197,0.00061,0.0031620000000000003,0.0027649999999999997
154,-2.630033,-1.535141,0.029608999999999996,-0.017450999999999998,0.9993639999999999,0.031083999999999997,-0.012057,-0.015961000000000003,0.004975,-0.000417,-2.1e-05,0.002134
155,-2.63502,-1.534783,0.024957,-0.017469,0.999352,0.031484,-0.016325,-0.015946000000000002,0.004944,-0.002565,0.00283,0.001277
156,-2.64187,-1.534525,0.018389,-0.017377,0.999342,0.031830000000000004,-0.018444,-0.012743,0.004925,-0.000567,0.006379999999999999,-0.000488
157,-2.646315,-1.53426,0.014166,-0.017361,0.999333,0.032139999999999995,-0.018425,-0.010604,0.002786,0.00021099999999999998,0.006084,-0.002309
158,-2.651329,-1.534019,0.009346,-0.017313,0.999324,0.032438999999999996,-0.020492,-0.009434,0.004959000000000001,0.000941,0.006566,-0.001967
159,-2.659475,-1.5337809999999998,0.001399,-0.017158,0.999315,0.032788,-0.023687,-0.008357,0.004936,0.002449,0.00511,-0.001477
160,-2.665508,-1.5335590000000001,-0.0044729999999999995,-0.017062,0.999307,0.033089,-0.025814999999999998,-0.008346,0.003853,-0.000195,0.003638,-0.005227000000000001
161,-2.672239,-1.533342,-0.011043,-0.016937,0.9992989999999999,0.033395999999999995,-0.026876999999999998,-0.009398,0.0017100000000000001,0.002136,0.0034630000000000004,-0.004374
162,-2.6766419999999997,-1.533187,-0.015158000000000001,-0.016859,0.999293,0.033609,-0.023718,-0.017936,0.0028120000000000003,0.00044100000000000004,0.0047350000000000005,-0.007349
163,-2.6833650000000002,-1.533033,-0.021452000000000002,-0.016702,0.999287,0.033861,-0.020546000000000002,-0.023277000000000003,0.003909,0.002023,0.007717,-0.00554
164,-2.6912700000000003,-1.533275,-0.028957999999999998,-0.016327,0.999296,0.033773000000000004,-0.006675,-0.018021000000000002,0.009341,0.005875,0.005419,-0.008138
165,-2.702826,-1.533816,-0.040198000000000005,-0.015706,0.999316,0.033469,-0.000292,-0.015938,0.015794,0.008199,0.002499,-0.007377
166,-2.718815,-1.534468,-0.055854999999999995,-0.014903,0.99934,0.033124,0.0008609999999999999,-0.019033,0.020138,0.009455,0.0027660000000000002,-0.004193
167,-2.731884,-1.534774,-0.06842100000000001,-0.014346000000000001,0.999351,0.033034,-0.000244,-0.029673,0.018008,0.007358,0.001396,-0.004424
168,-2.747111,-1.5351139999999999,-0.08290800000000001,-0.013711000000000001,0.9993629999999999,0.032935,-0.006687,-0.040299,0.016909999999999998,0.005425,0.0020859999999999997,-0.004263
169,-2.760783,-1.5353379999999999,-0.095703,-0.013175999999999998,0.9993709999999999,0.032911,-0.007763,-0.044548000000000004,0.014772,0.0056689999999999996,0.002963,-0.00456
170,-2.775446,-1.535499,-0.10946099999999999,-0.012634999999999999,0.9993770000000001,0.032951,-0.010954,-0.045589,0.011547,0.0055850000000000006,0.003293,-0.0014880000000000002
171,-2.788924,-1.535448,-0.12202400000000001,-0.012206999999999999,0.999375,0.033166,-0.01414,-0.045564999999999994,0.008320999999999999,0.00534,0.001754,0.000571
172,-2.801936,-1.53511,-0.134157,-0.011887,0.9993629999999999,0.033641000000000004,-0.017317,-0.043410000000000004,0.005092,0.003128,0.003811,0.004674
173,-2.809328,-1.534801,-0.140758,-0.011739,0.999352,0.03402,-0.016217,-0.037018,0.004024,0.001363,0.0021739999999999997,0.0005110000000000001
174,-2.8161959999999997,-1.534498,-0.146926,-0.011601,0.999341,0.034384,-0.014986000000000001,-0.033673,0.004098,0.002156,0.001666,0.001199
175,-2.827175,-1.534189,-0.157219,-0.011319,0.9993299999999999,0.034805,-0.003271,-0.034792000000000003,0.007386,0.003583,0.014372,0.008316
176,-2.839355,-1.534062,-0.168733,-0.010931999999999999,0.999325,0.035061,0.021232,-0.033846,0.016102,0.004264,0.024234000000000002,0.023563
177,-2.853316,-1.534484,-0.181848,-0.010320999999999999,0.999341,0.034806000000000004,0.057383,-0.049995,0.027058,0.007086,0.019763,0.034727999999999995
178,-2.887955,-1.534427,-0.215115,-0.009124,0.999339,0.035199,0.08918999999999999,-0.079985,0.040139,0.006729000000000001,0.005163,0.051334000000000005
179,-2.910776,-1.535578,-0.235802,-0.008055,0.9993799999999999,0.034276999999999995,0.095343,-0.12266400000000001,0.051987,0.000533,0.000727,0.044275
180,-2.934009,-1.536052,-0.256221,-0.007159,0.999396,0.033991,0.084521,-0.150345,0.057287,-0.012357,-0.005286,0.026785000000000003
181,-2.952185,-1.537247,-0.27121100000000004,-0.006314999999999999,0.9994370000000001,0.032942,0.066354,-0.165161,0.048632,-0.015550999999999999,-0.0010550000000000002,0.019288999999999997
182,-2.9472009999999997,-1.537887,-0.262826,-0.0063560000000000005,0.999459,0.032283,0.044154,-0.174433,0.022907,-0.018821,0.00074,0.005925
183,-2.938068,-1.538371,-0.250175,-0.006553,0.999474,0.031751999999999996,0.017612,-0.176346,-0.008256,-0.016045,0.004707,1.7e-05
184,-2.92003,-1.538184,-0.22857199999999997,-0.007165,0.999468,0.031807999999999996,-0.012178,-0.181474,-0.031958999999999994,-0.010015999999999999,0.004331000000000001,0.000129
185,-2.8968220000000002,-1.537418,-0.201621,-0.008088,0.9994430000000001,0.032379000000000005,-0.043069,-0.186628,-0.048192,-0.002136,-0.000175,-0.004928
186,-2.882962,-1.536058,-0.184035,-0.008883,0.999397,0.033575,-0.065487,-0.185502,-0.044077,-0.008879000000000001,0.0035789999999999997,-0.013556
187,-2.876545,-1.534586,-0.174094,-0.009483,0.999344,0.034938,-0.063335,-0.167455,-0.030199,-0.006798,0.006667,-0.017283
188,-2.869405,-1.533949,-0.164022,-0.009904000000000001,0.9993209999999999,0.035483999999999995,-0.048315,-0.132421,-0.013047,-0.004332,0.006294,-0.021476
189,-2.860815,-1.534706,-0.153348,-0.009999,0.9993489999999999,0.03467,-0.02471,-0.086765,0.00415,-0.0028190000000000003,0.011866,-0.028062
190,-2.861828,-1.536029,-0.15321300000000002,-0.009598,0.999396,0.033408999999999994,0.000131,-0.042006,0.017146,0.0037240000000000003,0.015175999999999999,-0.028388999999999998
191,-2.873007,-1.5371489999999999,-0.164052,-0.008927,0.999434,0.032435000000000005,0.024805,-0.003776,0.025814999999999998,0.00731,0.014253,-0.024516
192,-2.890101,-1.539388,-0.181503,-0.007815,0.9995069999999999,0.030414999999999998,0.038813,0.028125,0.028011,0.013841999999999998,-0.001017,-0.02657
193,-2.9161189999999997,-1.541879,-0.208379,-0.006464,0.999582,0.028182,0.042118,0.048362,0.025874,0.016733,-0.00535,-0.02864
194,-2.937071,-1.543511,-0.23029899999999998,-0.005541,0.9996280000000001,0.026712,0.031457,0.043099,0.019399,0.019441,-0.007044,-0.029077
195,-2.99172,-1.546037,-0.285503,-0.003696,0.9996940000000001,0.024478,0.012187,0.015516,0.007555,0.034519,-0.006774,-0.034869
196,-3.064093,-1.547796,-0.357572,-0.0017800000000000001,0.9997360000000001,0.022928,-0.011461,-0.034431,-0.002154,0.039775,-0.005183,-0.0328
197,3.13346,-1.5487879999999998,-0.441726,0.00017900000000000001,0.999758,0.022005,-0.042634,-0.097134,-0.011898,0.043095,-0.005129,-0.03258
198,3.045026,-1.548977,-0.527443,0.002104,0.999762,0.021718,-0.069378,-0.155447,-0.017297999999999997,0.046389,-0.005438,-0.031177999999999997
199,3.007565,-1.547965,-0.561225,0.0030510000000000003,0.9997389999999999,0.022626,-0.072754,-0.199094,-0.021534,0.051774,-0.000884,-0.023389
200,2.930241,-1.546999,-0.633912,0.004991,0.999717,0.023264,-0.05485,-0.251355,-0.021335,0.047407,0.004220000000000001,-0.009409
201,2.886367,-1.54593,-0.671963,0.0062770000000000005,0.999691,0.024058,-0.034887,-0.313236,-0.014702000000000002,0.026941000000000003,0.003483,-0.000178
202,2.878132,-1.545022,-0.673022,0.006712,0.999668,0.024883000000000002,-0.033066000000000005,-0.380363,-0.012465,0.004259000000000001,0.00011899999999999999,0.005254
203,2.89416,-1.544197,-0.649175,0.006513,0.9996459999999999,0.025785000000000002,-0.037377,-0.390996,-0.01355,-0.0175,-0.003156,0.016711
204,2.9072810000000002,-1.54346,-0.628605,0.006345,0.999626,0.026583,-0.044663,-0.357917,-0.021121,-0.027891000000000003,-0.00031299999999999996,0.01457
205,2.956443,-1.5424,-0.572875,0.005227000000000001,0.999597,0.027906999999999998,-0.051873,-0.306733,-0.027649,-0.039330000000000004,0.001517,0.012894999999999998
206,2.979022,-1.541372,-0.544898,0.004762,0.999567,0.029033,-0.062084,-0.246927,-0.032027,-0.046983,0.004705,0.019887000000000002
207,3.00399,-1.540116,-0.5156970000000001,0.004208,0.9995290000000001,0.030385000000000002,-0.072475,-0.189348,-0.036446,-0.048260000000000004,0.0038729999999999997,0.02267
208,3.0295810000000003,-1.538637,-0.487025,0.003594,0.999483,0.031952,-0.083971,-0.133922,-0.034461,-0.050179,0.0032479999999999996,0.018921
209,3.054344,-1.536859,-0.460129,0.002957,0.999424,0.033802,-0.097639,-0.089132,-0.034614,-0.044583,0.0026969999999999997,0.013073
210,3.07936,-1.534827,-0.433863,0.0022370000000000003,0.999353,0.035892,-0.108082,-0.043271,-0.039019,-0.04281,0.00231,0.009183
211,3.126896,-1.5326110000000002,-0.38590399999999997,0.0005610000000000001,0.9992709999999999,0.038173,-0.113239,-0.0070209999999999995,-0.042308,-0.029904000000000003,-0.000599,0.000234
212,-3.100694,-1.530351,-0.330627,-0.0016530000000000002,0.999182,0.0404,-0.107616,0.029327999999999996,-0.044432,-0.019831,0.001352,-0.001398
213,-3.065555,-1.528152,-0.29648800000000003,-0.0032380000000000004,0.999091,0.042508,-0.096814,0.061239999999999996,-0.042263,-0.010052,0.005533,0.001376
214,-3.043679,-1.52639,-0.275994,-0.00434,0.999014,0.044179,-0.090402,0.071837,-0.033687,-0.002939,0.004221,-0.006534999999999999
215,-3.0309369999999998,-1.5247620000000002,-0.26461799999999996,-0.005082,0.998941,0.045736,-0.089402,0.064346,-0.026193,-0.0030510000000000003,0.00817,-0.009373999999999999
216,-3.021674,-1.5235040000000002,-0.256469,-0.0056560000000000004,0.9988819999999999,0.046936,-0.084152,0.051519,-0.019731,-0.002813,0.010777,-0.010162000000000001
217,-3.0115060000000002,-1.5221719999999999,-0.24729099999999998,-0.006305,0.998818,0.048194,-0.074568,0.050407,-0.016458,-0.0043,0.004737,-0.006675
218,-3.002787,-1.5205440000000001,-0.239601,-0.00695,0.9987379999999999,0.049749,-0.067101,0.053564,-0.013207,-0.012322,5.6999999999999996e-05,0.0052439999999999995
219,-2.994868,-1.518951,-0.23290500000000003,-0.007576,0.998656,0.051265,-0.05961,0.06417,-0.007828,-0.017769,-0.002532,0.015446000000000001
220,-2.9778580000000003,-1.516748,-0.217356,-0.008806,0.99854,0.053299,-0.058492999999999996,0.076945,-0.006772,-0.020201,-0.000371,0.018738
221,-2.9701779999999998,-1.515082,-0.211488,-0.009498999999999999,0.998448,0.05486900000000001,-0.052007000000000005,0.099281,-0.0035520000000000005,-0.019051,0.003657,0.018068
222,-2.966109,-1.513565,-0.209655,-0.009986,0.9983629999999999,0.056321,-0.040211000000000004,0.11839300000000001,0.001846,-0.006966,0.004292,0.024901
223,-2.971144,-1.511809,-0.217117,-0.01,0.9982610000000001,0.058097,-0.04663,0.11946400000000001,0.006072,0.002675,0.007858,0.015648
224,-2.97911,-1.5105110000000002,-0.22723000000000002,-0.009746,0.998183,0.059454999999999994,-0.05851,0.097096,0.015633,0.004909,0.020356,0.010736
225,-2.9928209999999997,-1.50891,-0.24244000000000002,-0.009167,0.998086,0.061163999999999996,-0.055478999999999994,0.062984,0.018903,0.006634,0.016273,0.013574000000000001
226,-3.003293,-1.5075459999999998,-0.253828,-0.008714,0.998,0.06260399999999999,-0.055614,0.035279000000000005,0.021074000000000002,0.003785,0.012116,0.012773999999999999
227,-3.011413,-1.5063540000000002,-0.262276,-0.00836,0.997924,0.063853,-0.04188,0.004342,0.020142,-0.0019089999999999999,0.016099000000000002,0.0118
228,-3.012254,-1.505234,-0.262896,-0.00845,0.9978520000000001,0.064967,-0.017421000000000002,-0.021276,0.011798000000000001,-0.009632,0.019452,0.010869
229,-3.011556,-1.504903,-0.26159099999999996,-0.008537999999999999,0.9978299999999999,0.065291,0.00391,-0.033025,0.001279,-0.009131,0.014728,0.011003
230,-3.011772,-1.504646,-0.261235,-0.008556999999999999,0.997813,0.065545,0.027431999999999998,-0.020328,0.002495,-0.003085,0.005559000000000001,0.024909
231,-3.015689,-1.503431,-0.264549,-0.008453,0.997732,0.06678200000000001,0.03585,-0.036371,0.01112,-0.000519,-0.008870999999999999,0.040487999999999996
232,-3.021837,-1.502895,-0.269706,-0.008106,0.9976959999999999,0.067364,0.014361,-0.059770000000000004,0.020613999999999997,-0.003414,-0.010452,0.039295
233,-3.02857,-1.501335,-0.274925,-0.007828,0.997589,0.068964,0.005696,-0.085315,0.022721,-0.006149,-0.006774,0.030142000000000002
234,-3.0332790000000003,-1.500643,-0.277885,-0.0075769999999999995,0.99754,0.069685,0.007821999999999999,-0.090632,0.018469,-0.011068999999999999,-0.00010400000000000001,0.031191000000000003
235,-3.0345560000000003,-1.499955,-0.277335,-0.007562,0.997492,0.070377,0.006753,-0.093811,0.01526,-0.016425,0.001715,0.031827
236,-3.024206,-1.498034,-0.265146,-0.008514,0.9973540000000001,0.072198,-0.009217,-0.09478099999999999,0.005531,-0.024964,0.00054,0.031058
237,-3.009977,-1.495992,-0.248973,-0.009807999999999999,0.9972030000000001,0.074088,-0.028373000000000002,-0.10103200000000001,-0.012759,-0.024387,-0.000484,0.025872000000000003
238,-3.0001919999999997,-1.494594,-0.23718899999999998,-0.010729,0.9970979999999999,0.075369,-0.037870999999999995,-0.096661,-0.032060000000000005,-0.021605000000000003,-0.0027129999999999997,0.020716
239,-2.985855,-1.492924,-0.221148,-0.012066,0.99697,0.076852,-0.044173000000000004,-0.082755,-0.04067,-0.009998,-0.011816,0.0076359999999999996
240,-2.976451,-1.491601,-0.209961,-0.013006,0.996866,0.078037,-0.053804,-0.092296,-0.043931,-0.001673,-0.00683,-0.0006450000000000001
241,-2.9688790000000003,-1.490515,-0.200247,-0.013781999999999999,0.9967790000000001,0.079002,-0.075193,-0.113488,-0.05366699999999999,0.002475,-0.000411,-0.015693000000000002
242,-2.96411,-1.489934,-0.192958,-0.014261000000000001,0.996732,0.079506,-0.094373,-0.126136,-0.070874,0.017953999999999998,-0.007795000000000001,-0.031807
243,-2.954125,-1.488536,-0.180123,-0.015314,0.996619,0.080728,-0.11567899999999999,-0.147256,-0.098768,0.022028,-0.012671,-0.041894
244,-2.935991,-1.4857120000000001,-0.158961,-0.01735,0.996382,0.083192,-0.12624200000000002,-0.147125,-0.12234300000000001,0.02443,-0.007232,-0.047425
245,-2.917279,-1.4825549999999998,-0.13727899999999998,-0.019603,0.996109,0.08591900000000001,-0.140077,-0.139619,-0.122449,0.012263,0.014891999999999999,-0.057309000000000006
246,-2.902314,-1.48058,-0.119953,-0.021352,0.995933,0.087527,-0.16025699999999998,-0.09597,-0.098076,0.005071,0.017281,-0.056567
247,-2.89459,-1.478404,-0.110924,-0.022558,0.995735,0.089461,-0.17085799999999998,-0.042827,-0.058692999999999995,0.005468,0.004082,-0.054015
248,-2.8936029999999997,-1.475113,-0.10959400000000001,-0.02345,0.995426,0.092614,-0.14835299999999998,-0.0024980000000000002,-0.040428,0.010602,0.000866,-0.056802
249,-2.891638,-1.475481,-0.107869,-0.023541,0.995461,0.092213,-0.10881700000000001,0.01757,-0.031629000000000004,0.012586,-0.001076,-0.051335000000000006
250,-2.889954,-1.476108,-0.106421,-0.023541,0.9955200000000001,0.09156900000000001,-0.076861,0.006798,-0.029252999999999998,0.010846,0.002725,-0.042588
251,-2.889198,-1.47632,-0.105551,-0.023558000000000003,0.99554,0.091347,-0.067044,-0.008893,-0.036583,0.012541,0.007511,-0.02575
252,-2.891043,-1.475264,-0.10718599999999999,-0.02365,0.99544,0.092408,-0.087265,-0.003474,-0.042069999999999996,0.013533000000000002,0.012265,-0.004792
253,-2.891363,-1.472896,-0.107774,-0.024204,0.9952120000000001,0.094699,-0.132982,0.028657,-0.045634,0.012088,0.005368,0.006726
254,-2.888816,-1.469509,-0.106279,-0.025287999999999998,0.994875,0.097901,-0.179728,0.06507,-0.053485000000000005,0.008397,-0.007753,0.008193
255,-2.886899,-1.46507,-0.10590799999999999,-0.026588,0.994416,0.102125,-0.21262899999999998,0.083376,-0.074034,0.000526,-0.016984,0.004854
256,-2.8796009999999996,-1.4602950000000001,-0.10022,-0.028562,0.993901,0.10651300000000001,-0.22853099999999998,0.08033799999999999,-0.09977799999999999,0.000242,-0.016041,0.000268
257,-2.8710560000000003,-1.455116,-0.093184,-0.030846,0.993316,0.111224,-0.256231,0.076226,-0.112785,0.002694,-0.013763,-0.007631999999999999
258,-2.8629119999999997,-1.4490969999999999,-0.086607,-0.033395,0.992604,0.11671500000000001,-0.292418,0.085978,-0.12266400000000001,0.0033810000000000003,-0.007115000000000001,-0.01143
259,-2.854436,-1.4426940000000001,-0.080167,-0.036183,0.991806,0.122521,-0.31448200000000004,0.116104,-0.124952,-0.0009109999999999999,0.003311,-0.011696
260,-2.846636,-1.436399,-0.07501000000000001,-0.038952,0.9909819999999999,0.128206,-0.312241,0.142716,-0.12176600000000001,0.001979,0.011429,-0.010485
261,-2.840048,-1.430287,-0.071393,-0.041594,0.990145,0.133729,-0.285574,0.153228,-0.10984200000000001,0.004347,0.021574,-0.007142
262,-2.8357229999999998,-1.425245,-0.070145,-0.043674,0.989426,0.13830599999999998,-0.245117,0.156193,-0.08713,0.005679999999999999,0.030273,-0.006973999999999999
263,-2.832626,-1.42076,-0.070381,-0.045451,0.988766,0.142397,-0.20778200000000002,0.174096,-0.067664,0.0059770000000000005,0.028506999999999998,-0.004289
264,-2.829828,-1.417034,-0.071346,-0.046979,0.988202,0.14577400000000001,-0.175732,0.197364,-0.053582000000000005,0.006376,0.02814,-0.005225
265,-2.8272060000000003,-1.413712,-0.07284199999999999,-0.048376,0.9876879999999999,0.14877100000000001,-0.171397,0.210141,-0.055704,0.005606,0.013701,-0.003218
266,-2.823682,-1.409913,-0.07322000000000001,-0.050073,0.987086,0.15216400000000002,-0.17358900000000002,0.185695,-0.067438,0.005487,0.0221,0.007886
267,-2.820271,-1.4060290000000002,-0.072963,-0.051802,0.986456,0.155628,-0.171647,0.142016,-0.068436,-0.006197,0.038217,0.028179000000000003
268,-2.816404,-1.4024809999999999,-0.071371,-0.053521000000000006,0.9858680000000001,0.158743,-0.159022,0.101495,-0.069364,-0.0043100000000000005,0.032563999999999996,0.030024000000000002
269,-2.812621,-1.39949,-0.06946000000000001,-0.055074,0.9853629999999999,0.161328,-0.121768,0.094922,-0.056277,-0.004344,0.029331,0.033435
270,-2.809719,-1.396823,-0.068717,-0.056398000000000004,0.9849049999999999,0.163652,-0.075895,0.12128699999999999,-0.029285000000000002,-0.022292,0.0322,0.023894
271,-2.807738,-1.3958780000000002,-0.069749,-0.057027,0.984741,0.164419,-0.029987,0.165719,0.008367,-0.028529000000000002,0.032349,0.024179
272,-2.806651,-1.396051,-0.07255299999999999,-0.057149,0.984771,0.164196,0.018108000000000003,0.209129,0.033216,-0.040202,0.036789999999999996,0.043492
273,-2.801989,-1.395578,-0.072412,-0.058069,0.9846889999999999,0.164367,0.054405999999999996,0.22600399999999998,0.044127,-0.033589999999999995,0.025291,0.05919
274,-2.799356,-1.397124,-0.074171,-0.057990999999999994,0.984957,0.162779,0.07359,0.21318800000000002,0.035732,-0.034096,0.02487,0.065889
275,-2.795514,-1.398754,-0.074432,-0.058071000000000005,0.985237,0.161045,0.073586,0.202574,0.026131,-0.039478,0.025626999999999997,0.07565
276,-2.788698,-1.397793,-0.071761,-0.059495000000000006,0.985072,0.16153399999999998,0.074727,0.21325300000000003,0.018645,-0.03453,0.019048,0.079478
277,-2.782823,-1.3993120000000001,-0.070386,-0.059917,0.985333,0.15978,0.078033,0.232434,0.014369999999999999,-0.029209,0.012241,0.077021
278,-2.776843,-1.400899,-0.06903,-0.060314,0.9856020000000001,0.157958,0.080123,0.228144,0.019731,-0.014819999999999998,-0.007697,0.06804
279,-2.774553,-1.400598,-0.070829,-0.060782,0.9855510000000001,0.15809600000000001,0.08949299999999999,0.19289800000000001,0.034796,-0.003915,-0.004045,0.06018099999999999
280,-2.7721810000000002,-1.402626,-0.071774,-0.060435,0.985893,0.156088,0.093502,0.149152,0.048767000000000005,-0.003164,0.009392,0.052240999999999996
281,-2.773814,-1.403267,-0.07609500000000001,-0.059953,0.986,0.155596,0.093386,0.127833,0.051998,-0.004714,0.00985,0.048017000000000004
282,-2.774155,-1.4043780000000001,-0.078943,-0.059505999999999996,0.9861840000000001,0.154594,0.107281,0.12675,0.044619,-0.001911,0.003012,0.021813
283,-2.771162,-1.407037,-0.078558,-0.059019,0.9866209999999999,0.15197,0.13612,0.134106,0.044811000000000004,0.005308,-0.006504,0.0029530000000000003
284,-2.767347,-1.4102290000000002,-0.077418,-0.058447000000000006,0.987137,0.148812,0.16388699999999998,0.134034,0.038596,0.005727,-0.014252,0.000999
285,-2.760965,-1.4136790000000001,-0.073556,-0.058129999999999994,0.987683,0.145273,0.17346,0.123366,0.034404000000000004,0.0035340000000000002,-0.040507999999999995,-0.013619999999999998
286,-2.752541,-1.417317,-0.06730900000000001,-0.057988,0.988245,0.141452,0.152052,0.101095,0.027873000000000002,-0.000819,-0.049951999999999996,-0.020374
287,-2.74658,-1.420108,-0.063207,-0.05776799999999999,0.988668,0.138558,0.13392,0.096919,0.022411,0.000655,-0.047048,-0.022331999999999998
288,-2.740811,-1.422552,-0.059522000000000005,-0.057624,0.989032,0.135997,0.11798900000000001,0.114015,0.023346000000000002,0.00196,-0.039889999999999995,-0.029169999999999998
289,-2.733718,-1.4257520000000001,-0.055011000000000004,-0.05733200000000001,0.989499,0.13268,0.10310899999999999,0.13639600000000002,0.033895999999999996,0.006749,-0.02696,-0.030324
290,-2.730801,-1.427885,-0.05496,-0.056875,0.989806,0.130576,0.095617,0.14595,0.048786,0.007589,-0.017836,-0.025228999999999998
291,-2.730143,-1.431032,-0.057303999999999994,-0.055715,0.9902489999999999,0.127683,0.10410699999999999,0.15118199999999998,0.064863,0.010976999999999999,-0.001372,-0.014021
292,-2.730699,-1.433575,-0.06096,-0.054638,0.9906,0.125405,0.108326,0.155369,0.079843,0.007168000000000001,0.0046240000000000005,0.001472
293,-2.73422,-1.4362709999999999,-0.067635,-0.053138,0.990965,0.123144,0.111479,0.156376,0.091614,-0.0022670000000000004,0.001436,0.003397
294,-2.737388,-1.439102,-0.07411000000000001,-0.051644,0.991341,0.12073199999999999,0.116828,0.16592,0.098049,-0.006995,0.010582,0.0024219999999999997
295,-2.737564,-1.4420520000000001,-0.077902,-0.050473000000000004,0.9917239999999999,0.118051,0.125449,0.182943,0.09595,-0.007205,0.012808000000000002,0.001074
296,-2.738968,-1.445147,-0.083071,-0.049104,0.992117,0.115297,0.130841,0.18722,0.087436,0.002595,0.005091,0.003721
297,-2.7421580000000003,-1.44814,-0.089838,-0.047581,0.9924870000000001,0.11271800000000001,0.127592,0.170212,0.081027,0.007893,0.008352,0.010359
298,-2.7484509999999998,-1.4507459999999999,-0.098986,-0.045880000000000004,0.9928030000000001,0.110626,0.12955999999999998,0.126558,0.073621,0.00607,0.006846,0.011368000000000001
299,-2.750937,-1.453627,-0.103423,-0.044515,0.993143,0.10809400000000001,0.12726300000000001,0.08079800000000001,0.06405,0.006368,-0.001231,0.00389
300,-2.75569,-1.456442,-0.109352,-0.042949,0.993469,0.10571300000000002,0.125005,0.046742,0.05767100000000001,0.007518,-0.008987,0.001983
301,-2.762253,-1.459272,-0.11646400000000001,-0.041213,0.9937879999999999,0.103381,0.114221,0.016969,0.053363,0.011458,-0.012648000000000001,0.000226
302,-2.7683560000000003,-1.46181,-0.12247999999999999,-0.039661,0.994067,0.10128200000000001,0.098103,-0.018091,0.043683,0.018207,-0.01256,-0.001398
303,-2.781541,-1.4642979999999999,-0.13458699999999998,-0.037451,0.994334,0.099481,0.068036,-0.073334,0.031798,0.023214,-0.027354000000000003,-0.007028
304,-2.791474,-1.4658120000000001,-0.142191,-0.035945,0.9944940000000001,0.09843400000000001,0.036853,-0.143469,0.01565,0.043345,-0.044863,-0.022613
305,-2.795818,-1.466128,-0.142679,-0.035410000000000004,0.994527,0.09829299999999999,0.000278,-0.22318600000000002,0.0026780000000000003,0.050348000000000004,-0.046911,-0.031414
306,-2.801463,-1.465771,-0.14291099999999998,-0.034973000000000004,0.99449,0.098827,-0.025629000000000002,-0.301879,-0.009153,0.057815,-0.046110000000000005,-0.032451
307,-2.8237799999999997,-1.466405,-0.15795499999999998,-0.032562,0.994556,0.098984,-0.046265,-0.396566,-0.021987,0.064804,-0.033054,-0.029480000000000003
308,-2.8314220000000003,-1.46519,-0.15629400000000002,-0.032173,0.9944290000000001,0.10038,-0.060594,-0.505149,-0.028357999999999998,0.054085,-0.022322,-0.017586
309,-2.840741,-1.463763,-0.154307,-0.031657,0.9942770000000001,0.102031,-0.066317,-0.596722,-0.033621,0.036143,-0.000488,-0.006007
310,-2.853273,-1.462732,-0.154231,-0.030667000000000003,0.994167,0.103402,-0.039807999999999996,-0.642583,-0.04299,0.017102000000000003,0.097889,0.0008619999999999999
311,-2.8587919999999998,-1.462446,-0.146676,-0.030175999999999998,0.994136,0.103843,0.025223,-0.651341,-0.040388,0.012306999999999998,0.111821,0.003045
312,-2.861897,-1.463826,-0.136991,-0.029474,0.9942840000000001,0.102618,0.11489200000000001,-0.624021,-0.023773,0.000147,0.075449,0.025053
313,-2.862984,-1.466983,-0.126301,-0.028499,0.994616,0.099631,0.194026,-0.559409,0.000198,-0.009266,0.058088,0.037348
314,-2.863989,-1.470461,-0.11703399999999999,-0.027451,0.9949709999999999,0.096332,0.23400900000000002,-0.483713,0.035696,-0.045425,0.021172999999999997,0.06968300000000001
315,-2.871424,-1.47528,-0.11581500000000002,-0.025454,0.995442,0.091912,0.234235,-0.39651,0.072973,-0.085371,-0.0023539999999999998,0.071144
316,-2.882479,-1.479945,-0.120403,-0.023246,0.995876,0.087698,0.20699499999999998,-0.275015,0.08331000000000001,-0.116753,-0.006176,0.049235
317,-2.845149,-1.48137,-0.07979299999999999,-0.026088999999999998,0.9960040000000001,0.085412,0.189645,-0.10873,0.07334600000000001,-0.130573,-0.005251,0.033744
318,-2.8460419999999997,-1.4852889999999999,-0.080764,-0.024875,0.996346,0.0817,0.183073,0.071403,0.053841999999999994,-0.136242,-0.011147,0.021327000000000002
319,-2.838895,-1.488844,-0.077016,-0.024402,0.9966440000000001,0.078138,0.1679,0.228163,0.025761000000000003,-0.130932,-0.014497,0.019136
320,-2.823371,-1.491902,-0.067801,-0.024659,0.9968889999999999,0.07485499999999999,0.14943399999999998,0.36893899999999996,0.0019510000000000003,-0.075958,0.0010199999999999999,0.011692000000000001
321,-2.8020240000000003,-1.494376,-0.055292999999999995,-0.025429,0.997081,0.071987,0.122252,0.481997,-0.009066,-0.031501,0.01006,0.0018969999999999998
322,-2.781213,-1.496164,-0.044787,-0.026293,0.997216,0.069773,0.082989,0.533251,-0.0051329999999999995,-0.012358,0.014609,-0.0022530000000000002
323,-2.764539,-1.497407,-0.038793,-0.026997000000000004,0.997308,0.068173,0.05627000000000001,0.5322399999999999,0.004295,0.025883,0.014547999999999998,-0.015515000000000001
324,-2.7533369999999997,-1.4983959999999998,-0.037749,-0.027385000000000003,0.9973799999999999,0.066953,0.044261,0.48747700000000005,0.020291999999999998,0.082118,0.005534000000000001,-0.038952999999999995
325,-2.747646,-1.499462,-0.040658,-0.027357,0.9974569999999999,0.065814,0.046944,0.388332,0.036461,0.108885,0.011637,-0.047366000000000005
326,-2.7474529999999997,-1.50074,-0.046487,-0.026881,0.997547,0.06463200000000001,0.05585,0.244445,0.047389999999999995,0.11615999999999999,0.013516,-0.051829999999999994
327,-2.7513490000000003,-1.502332,-0.053349,-0.026025,0.997657,0.06326799999999999,0.071139,0.09097000000000001,0.053035,0.103539,0.009209,-0.053548
328,-2.754829,-1.504311,-0.057106,-0.025059,0.997791,0.06152899999999999,0.09624500000000001,-0.027333999999999997,0.045883999999999994,0.09651599999999999,0.007214,-0.05483
329,-2.754807,-1.506642,-0.055496000000000004,-0.024183,0.997943,0.059374,0.11728499999999999,-0.105126,0.03438,0.075392,4.3e-05,-0.057817999999999994
330,-2.750534,-1.509179,-0.048510000000000005,-0.023471000000000002,0.998102,0.056928999999999993,0.128863,-0.149869,0.024905,0.046833,0.0014550000000000001,-0.057295000000000006
331,-2.7435009999999997,-1.5118120000000002,-0.03805,-0.022853000000000002,0.9982610000000001,0.054340999999999993,0.136196,-0.18396700000000002,0.020727000000000002,0.035029000000000005,0.0030670000000000003,-0.050633
332,-2.736475,-1.514463,-0.026937,-0.022191,0.9984139999999999,0.051747,0.132857,-0.21272600000000003,0.022877,-0.0014140000000000001,0.006179,-0.033527999999999995
333,-2.730058,-1.5170270000000001,-0.016037,-0.021498,0.998555,0.049256,0.128522,-0.22656300000000001,0.023932,-0.016969,0.004573,-0.020524
334,-2.724479,-1.519482,-0.006072999999999999,-0.020779,0.998684,0.046893000000000004,0.11898299999999999,-0.209498,0.027049,-0.029254000000000002,0.004582,-0.005007999999999999
335,-2.72053,-1.521764,0.001484,-0.020033000000000002,0.998798,0.044732,0.108525,-0.158345,0.031183,-0.039019,0.005444,0.011696
336,-2.717021,-1.5239,0.0073030000000000005,-0.019311000000000002,0.998901,0.042717000000000005,0.100311,-0.08694299999999999,0.031034,-0.045646,0.004533,0.015862
337,-2.713094,-1.525893,0.011978,-0.018650999999999997,0.998992,0.040829000000000004,0.091074,-0.005949,0.030866,-0.054103,0.002519,0.020313
338,-2.707303,-1.527665,0.016848,-0.018143,0.9990700000000001,0.039115,0.081875,0.078262,0.025353,-0.051438,0.002364,0.022835
339,-2.698801,-1.529234,0.022713999999999998,-0.017803,0.999136,0.037544,0.073733,0.160339,0.019849000000000002,-0.050648,0.00274,0.021126
340,-2.688715,-1.530572,0.028739999999999998,-0.017596,0.9991909999999999,0.036160000000000005,0.060161,0.225373,0.018603,-0.034009,0.001068,0.008548
341,-2.678779,-1.531658,0.033474000000000004,-0.01747,0.9992340000000001,0.035012,0.04868,0.27869,0.01525,-0.02968,0.001254,0.00698
342,-2.616103,-1.532266,0.090014,-0.019324,0.999258,0.033324,0.039243,0.318126,0.018331999999999998,-0.014794999999999999,0.004465,-0.007872
343,-2.571887,-1.533957,0.12753399999999998,-0.019867,0.9993219999999999,0.031014999999999997,0.029708999999999996,0.341558,0.027847000000000004,-0.005845,0.001533,-0.01629
344,-2.558338,-1.535469,0.13405,-0.019451,0.999376,0.029479,0.025458,0.35431799999999997,0.037413999999999996,0.003186,0.002287,-0.023483
345,-2.562887,-1.536332,0.122425,-0.018846,0.9994059999999999,0.028845999999999997,0.027554000000000002,0.350033,0.041707,0.011598,0.000518,-0.034492
346,-2.5651639999999998,-1.537385,0.113436,-0.018207,0.999442,0.028007,0.042384,0.325484,0.040774,0.025226,0.0033200000000000005,-0.042183
347,-2.5628889999999998,-1.538709,0.109645,-0.017546,0.9994850000000001,0.026856,0.057148000000000004,0.288143,0.041994,0.035443999999999996,0.0034439999999999996,-0.046051999999999996
348,-2.560036,-1.54021,0.10731099999999999,-0.016798,0.999532,0.025553,0.062247000000000004,0.24123200000000003,0.04743,0.040831,0.004954,-0.047251
349,-2.5620830000000003,-1.541784,0.101092,-0.015884,0.9995790000000001,0.02427,0.057721,0.189028,0.05280700000000001,0.038986,0.000421,-0.046577999999999994
350,-2.570536,-1.543283,0.089505,-0.01487,0.9996219999999999,0.023146,0.051085000000000005,0.13897400000000001,0.054961,0.036263,-0.00047599999999999997,-0.041471
351,-2.583309,-1.544615,0.074611,-0.013866999999999999,0.999657,0.022203,0.041267,0.085766,0.04962,0.02377,-0.008217,-0.036272000000000006
352,-2.597829,-1.545684,0.058962,-0.012990999999999999,0.999685,0.021488,0.031498000000000005,0.041088,0.042131,0.01766,-0.008428,-0.028933999999999998
353,-2.6152029999999997,-1.546456,0.041194999999999996,-0.012227,0.999704,0.021041999999999998,0.016451,0.009212999999999999,0.034589,0.005589,-0.006784,-0.024719
354,-2.6026380000000002,-1.5479020000000001,0.053767999999999996,-0.01175,0.9997379999999999,0.019649,0.010034999999999999,-0.004575,0.024947999999999998,-0.003493,-0.00195,-0.014003
355,-2.573614,-1.548894,0.083061,-0.01178,0.99976,0.018461,0.012147,-0.020518,0.014299000000000001,-0.004028,-0.002553,-0.007215000000000001
356,-2.561059,-1.548965,0.096277,-0.011972,0.999762,0.018253,0.0035549999999999996,-0.041759,0.00572,-0.006856999999999999,-0.000479,0.002652
357,-2.563601,-1.548374,0.09488200000000001,-0.012249,0.999749,0.018778,-0.004001,-0.065152,0.001423,-0.006657,-0.000786,0.008749
358,-2.568849,-1.547791,0.091238,-0.012467,0.999735,0.019334,-0.000907,-0.08966,0.000407,-0.00032,0.000768,0.008681999999999999
359,-2.585347,-1.547566,0.076839,-0.012264,0.9997299999999999,0.019725,7.7e-05,-0.113078,-0.004896,0.004054,0.00042199999999999996,0.007587999999999999
360,-2.643042,-1.547351,0.021691,-0.011209,0.999725,0.020589,-0.001045,-0.13327999999999998,-0.01342,0.017221,0.006561,0.008768999999999999
361,-2.664193,-1.547169,0.003438,-0.010854,0.9997209999999999,0.020982,-0.006470999999999999,-0.149258,-0.009163,0.012395,0.006215,0.007186
362,-2.684751,-1.546645,-0.01404,-0.010652,0.999708,0.021672,-0.022552000000000003,-0.15775799999999998,-0.000718,0.005281,0.003542,0.007273999999999999
363,-2.735005,-1.54588,-0.06105599999999999,-0.009853,0.99969,0.022883,-0.043927999999999995,-0.166205,-0.0008550000000000001,0.006572,0.006475,0.006552
364,-2.759084,-1.54513,-0.082085,-0.009579,0.9996709999999999,0.023809999999999998,-0.041685,-0.148078,-0.007271,0.00813,0.003854,0.003107
365,-2.7757080000000003,-1.544325,-0.095809,-0.009470000000000001,0.99965,0.024717,-0.043461,-0.141352,-0.012568000000000001,0.006739,0.004806,-0.00048600000000000005
366,-2.822352,-1.543711,-0.139139,-0.008499,0.999633,0.025713,-0.056411,-0.177513,-0.015813,0.022034,0.000977,0.005261999999999999
367,-2.9156419999999996,-1.543943,-0.22920700000000002,-0.0060149999999999995,0.9996389999999999,0.026167000000000003,-0.040249,-0.14241600000000001,-0.015738,0.041277999999999995,0.00123,-0.014402000000000002
368,-2.9541310000000003,-1.544584,-0.264949,-0.004884,0.999656,0.025749,-0.029557999999999997,-0.148802,-0.026333,0.043031,0.002526,-0.029549000000000002
369,-3.0435689999999997,-1.5463129999999998,-0.350508,-0.002396,0.9997,0.024361,-0.044771,-0.21584499999999998,-0.030618,0.048492,-0.00324,-0.03048
370,-3.028126,-1.54518,-0.330072,-0.0029,0.9996719999999999,0.025449,-0.059951,-0.27224299999999996,-0.032788,0.06427100000000001,-0.00248,-0.035016000000000005
371,-3.0167,-1.5437670000000001,-0.312237,-0.003367,0.999635,0.026816000000000003,-0.069927,-0.352117,-0.02955,0.069529,-0.001206,-0.043799
372,-3.098808,-1.544006,-0.386345,-0.001146,0.999641,0.026763,-0.05215499999999999,-0.41935200000000006,-0.014378,0.065736,0.003701,-0.022033
373,-3.110705,-1.543213,-0.38932100000000003,-0.000852,0.9996200000000001,0.027568000000000002,-0.034311,-0.458933,0.011434999999999999,0.043668,0.008483,-0.019756
374,3.117412,-1.543295,-0.43499,0.000665,0.9996219999999999,0.027489999999999997,-0.012026,-0.47291000000000005,0.02443,0.008551000000000001,0.014569,-0.009454
375,3.086203,-1.543447,-0.45686499999999997,0.0015140000000000002,0.999626,0.027304000000000002,0.021071,-0.460272,0.032122000000000005,-0.030902,0.019707,0.011956999999999999
376,3.09959,-1.543383,-0.43473599999999996,0.001151,0.999624,0.027386,0.046837000000000004,-0.41989899999999997,0.036519,-0.065009,0.021265,0.039951
377,3.05944,-1.544451,-0.46763299999999997,0.0021620000000000003,0.999653,0.026251999999999998,0.060046,-0.32303000000000004,0.042897000000000005,-0.088099,0.021297,0.050622
378,3.014741,-1.545609,-0.507638,0.003186,0.999683,0.024983,0.062827,-0.17816500000000002,0.043799,-0.136426,0.019986,0.07455
379,2.976569,-1.546657,-0.54442,0.003965,0.9997090000000001,0.023808000000000003,0.05405,-0.007638,0.0307,-0.142561,0.004213000000000001,0.071132
380,2.95975,-1.5474860000000001,-0.562923,0.004215999999999999,0.9997280000000001,0.022927,0.039867,0.13313599999999998,0.003715,-0.128834,-0.008761,0.06462799999999999
381,2.972876,-1.548147,-0.553741,0.003803,0.9997440000000001,0.022325,0.025496,0.229181,-0.026418,-0.094486,-0.009295999999999999,0.054777
382,3.0114080000000003,-1.548556,-0.520323,0.0028870000000000002,0.9997530000000001,0.022047999999999998,0.005485,0.267678,-0.045835,-0.05881,-0.004529,0.042482
383,3.0605860000000003,-1.548349,-0.47650200000000004,0.001816,0.999748,0.022372,-0.029736000000000002,0.263545,-0.047144,-0.028428,0.001335,0.02638
384,3.102776,-1.5473620000000001,-0.43939700000000004,0.000909,0.999725,0.023412,-0.062934,0.248696,-0.034539,-0.005594,0.00235,0.019190000000000002
385,3.130109,-1.545894,-0.416745,0.000286,0.99969,0.024899,-0.078037,0.225257,-0.020727000000000002,0.008167,0.0046890000000000005,0.008182
386,-3.135405,-1.5443440000000002,-0.40317,-0.000164,0.99965,0.026451,-0.075009,0.18901800000000002,-0.018522999999999998,0.015009999999999999,0.007064,0.001533
387,-3.118775,-1.5430629999999999,-0.38967399999999996,-0.000633,0.9996149999999999,0.027723,-0.05496,0.137823,-0.020454,0.04087,0.007098,-0.019819
388,-3.104865,-1.542248,-0.377806,-0.001048,0.9995930000000001,0.028525,-0.032833999999999995,0.080204,-0.015953,0.052028,0.009319,-0.022193
389,-3.100469,-1.541772,-0.374309,-0.001193,0.9995790000000001,0.028998000000000003,-0.01929,0.022572,-0.0008289999999999999,0.05115,0.008615000000000001,-0.018515
390,-3.1067259999999997,-1.541547,-0.380336,-0.001019,0.9995719999999999,0.029227999999999997,-0.008938,-0.032919,0.01427,0.046109,0.004685,-0.007301
391,-3.121115,-1.54141,-0.393519,-0.000602,0.999568,0.029377999999999998,-0.008101,-0.07875,0.019675,0.036933,-0.0008349999999999999,-0.010106
392,-3.133575,-1.541282,-0.40389200000000003,-0.00023700000000000001,0.9995639999999999,0.029511000000000003,-0.003978,-0.11815,0.012277,0.030907,-0.001121,-0.008255
393,3.097414,-1.541655,-0.453345,0.001287,0.999575,0.029108,0.002329,-0.149027,0.002751,0.026957,-0.000933,-0.008005
394,3.018427,-1.5419200000000002,-0.528913,0.003547,0.999583,0.028654000000000002,0.004386999999999999,-0.18199300000000002,-0.013209,0.028526999999999997,0.0035909999999999996,-0.0035380000000000003
395,2.985852,-1.5419479999999999,-0.557361,0.0044740000000000005,0.999584,0.028494,-0.002143,-0.219221,-0.021748,0.027462999999999998,0.00539,-0.002905
396,2.9652939999999997,-1.5417809999999998,-0.5731310000000001,0.0050880000000000005,0.9995790000000001,0.028562999999999998,-0.005459,-0.250081,-0.02707,0.024071000000000002,0.0039299999999999995,7.8e-05
397,2.937924,-1.541295,-0.5951029999999999,0.005966,0.9995649999999999,0.028888999999999998,-0.009871,-0.274597,-0.019588,0.009353,0.000176,0.0032920000000000002
398,2.9407,-1.540945,-0.5869270000000001,0.005956,0.999554,0.029248000000000003,-0.0034950000000000003,-0.266152,-0.005667,0.000666,0.002734,0.006670999999999999
399,2.9380580000000003,-1.540878,-0.5842890000000001,0.006047,0.999552,0.029298,0.006083,-0.264085,0.0018739999999999998,-0.0045969999999999995,0.010503,0.002944
400,2.946557,-1.541043,-0.570571,0.005765,0.9995569999999999,0.029185000000000003,0.024209,-0.25885199999999997,0.009470000000000001,-0.014631,0.013321000000000001,0.007406
401,2.966,-1.541358,-0.546234,0.005142,0.999567,0.028982,0.037077,-0.23655500000000002,0.017006,-0.027527,0.012442,0.013178
402,3.03357,-1.541482,-0.47435,0.00316,0.9995700000000001,0.029141000000000004,0.041486,-0.203551,0.018055,-0.037828,0.007586,0.014881
403,3.01293,-1.542319,-0.49149499999999996,0.003653,0.9995950000000001,0.028239,0.047012,-0.15883699999999998,0.020172,-0.039863,0.00773,0.015966
404,2.9907779999999997,-1.543224,-0.510962,0.004142,0.9996200000000001,0.027254,0.051457,-0.11943699999999999,0.020153,-0.044059,0.009322,0.022566
405,2.967762,-1.5441610000000001,-0.532062,0.004606,0.9996450000000001,0.026231,0.047352,-0.083203,0.020078,-0.051816999999999995,0.009602,0.025374
406,3.0468189999999997,-1.5440989999999999,-0.45185,0.002526,0.9996440000000001,0.026573000000000003,0.037933999999999996,-0.044806,0.016751,-0.060615999999999996,0.004507,0.029351
407,3.032989,-1.5447030000000002,-0.465446,0.0028280000000000002,0.99966,0.025939,0.027525,0.009573,0.013404,-0.06722,0.000539,0.032716
408,3.022557,-1.545086,-0.476862,0.003053,0.999669,0.025526,0.017149,0.072469,0.011114,-0.062623,-0.001363,0.033022
409,-3.1052169999999997,-1.543223,-0.323673,-0.001003,0.9996200000000001,0.027551999999999997,0.006723000000000001,0.12684,0.009891,-0.047245999999999996,0.002867,0.024511
410,-3.0563,-1.542442,-0.27775700000000003,-0.002415,0.999598,0.028248000000000002,0.004765,0.15883599999999998,0.0023539999999999998,-0.035686,0.000997,0.019740999999999998
411,-2.992766,-1.540835,-0.217579,-0.004442,0.999551,0.029624,0.0037560000000000002,0.168444,-0.0019440000000000002,-0.019652,0.00611,0.016715999999999998
412,-2.97206,-1.5403,-0.200238,-0.005144,0.9995350000000001,0.030052999999999996,0.0026780000000000003,0.167379,-0.000884,-0.015623,0.008140000000000001,0.01461
413,-2.965936,-1.539952,-0.197427,-0.005389,0.999524,0.030364999999999996,0.000524,0.16630799999999998,0.002307,-0.004697,0.0047020000000000005,0.009339
414,-2.97001,-1.539782,-0.2048,-0.005294,0.999519,0.030552999999999997,-0.000572,0.164164,0.006575,0.005065,0.003288,0.0049700000000000005
415,-2.981264,-1.5397040000000002,-0.21923499999999999,-0.004963,0.999517,0.030688,-0.0038399999999999997,0.155628,0.012972999999999998,0.012165,0.002543,-0.00035299999999999996
416,-2.986527,-1.539628,-0.227406,-0.0048130000000000004,0.9995139999999999,0.030788999999999997,-0.00683,0.137811,0.0109,0.010473999999999999,7.4e-05,-0.002088
417,-2.991188,-1.5394510000000001,-0.23462399999999997,-0.004696,0.999509,0.030983999999999998,-0.013288999999999999,0.121867,0.007670999999999999,0.00375,0.000918,-0.004357
418,-2.995664,-1.53935,-0.24141700000000002,-0.004572,0.9995059999999999,0.031107999999999997,-0.017579,0.111251,0.002314,0.0027559999999999998,0.002127,-0.005229
419,-2.994055,-1.539654,-0.241965,-0.004577,0.9995149999999999,0.0308,-0.018659000000000002,0.10593699999999999,0.000177,0.000412,0.007077,-0.008506
420,-2.99242,-1.540254,-0.242365,-0.004538,0.999534,0.030197,-0.01548,0.1006,0.000206,0.002585,0.010095,-0.013472999999999999
421,-2.9984,-1.540649,-0.250366,-0.004302,0.9995459999999999,0.029835000000000004,-0.0058909999999999995,0.10055399999999999,0.003478,0.007064,0.003933,-0.014897
422,-3.019672,-1.541951,-0.273631,-0.003508,0.999584,0.028627,0.0015609999999999999,0.098389,0.005672,0.011458,0.006718000000000001,-0.01845
423,-3.049012,-1.543382,-0.304802,-0.002534,0.999624,0.027295999999999997,0.018562000000000002,0.087655,0.011148,0.012407,0.008187999999999999,-0.015287
424,-3.0853610000000002,-1.544866,-0.34270700000000004,-0.001457,0.999664,0.025883999999999997,0.034505,0.07269,0.010213,0.015159,0.004013,-0.013326
425,-3.119399,-1.546641,-0.378006,-0.000536,0.999708,0.024149,0.044043,0.057742999999999996,0.010301000000000001,0.012636,0.002825,-0.014841
426,3.134128,-1.548186,-0.408622,0.000169,0.9997440000000001,0.022605,0.055722,0.043858,0.009334,0.018004,0.0020559999999999997,-0.017341
427,3.056699,-1.550417,-0.48673999999999995,0.0017280000000000002,0.999792,0.020304,0.07057000000000001,0.028870999999999997,0.014801,0.023556,0.0037630000000000003,-0.015238999999999999
428,2.941959,-1.552291,-0.601719,0.003669,0.9998290000000001,0.018133,0.076815,0.0011220000000000002,0.022363,0.0272,0.008106,-0.009405
429,2.816786,-1.55354,-0.726472,0.005507,0.999851,0.016353,0.069137,-0.035113,0.033041,0.022142,0.005016,-0.003963
430,2.714655,-1.5542989999999999,-0.827428,0.0068319999999999995,0.999864,0.015016999999999999,0.055096000000000006,-0.07023099999999999,0.036195,0.0076950000000000005,0.00688,0.000349
431,2.645305,-1.5548,-0.89513,0.007614,0.999872,0.014062,0.046488999999999996,-0.087241,0.035088,0.001053,0.005987,0.002555
432,2.625736,-1.55523,-0.912898,0.007678,0.9998790000000001,0.013541,0.045439999999999994,-0.090403,0.027606,-0.012058,0.006286,0.008554
433,2.642157,-1.555701,-0.894725,0.0072310000000000004,0.999886,0.013253999999999998,0.040152,-0.087159,0.020084,-0.019636,0.00312,0.012808000000000002
434,2.686441,-1.5562129999999998,-0.8488379999999999,0.006409999999999999,0.9998940000000001,0.013097999999999999,0.032744,-0.076467,0.016811000000000003,-0.025041,0.0017239999999999998,0.011347
435,2.7486189999999997,-1.556599,-0.785396,0.005439,0.999899,0.01312,0.032824,-0.058357000000000006,0.016784,-0.026999000000000002,0.0009550000000000001,0.013538
436,2.794559,-1.556898,-0.7384569999999999,0.004728,0.9999030000000001,0.013072,0.031822,-0.045562,0.014621,-0.020719,-0.000697,0.010625
437,2.815654,-1.557181,-0.716521,0.004359,0.999907,0.012898,0.027587,-0.041273000000000004,0.011379,-0.011271999999999999,0.001558,0.00735
438,2.808382,-1.557387,-0.722969,0.004385,0.9999100000000001,0.012669,0.020113,-0.043373,0.010261,-0.002646,0.003386,0.004039
439,2.792956,-1.557585,-0.737394,0.004515,0.9999129999999999,0.012421,0.012597,-0.056121000000000004,0.008088,0.003511,-0.000599,-0.001328
440,2.768067,-1.557619,-0.760983,0.004807,0.9999129999999999,0.012265999999999999,0.006143,-0.069939,0.005925,0.006515000000000001,-0.000737,0.00078
441,2.7493630000000002,-1.5575379999999999,-0.778067,0.005068,0.9999120000000001,0.012251,-0.002454,-0.088001,0.001615,0.007840999999999999,-0.000446,0.000643
442,2.74205,-1.557143,-0.783349,0.0053100000000000005,0.999907,0.012575,-0.008923,-0.109258,-0.004811,0.004593,0.002184,0.004332
443,2.762141,-1.5568870000000001,-0.760884,0.005154,0.9999030000000001,0.012924000000000001,-0.010034,-0.12414700000000001,-0.010140999999999999,-0.001232,0.0035759999999999998,0.006501000000000001
444,2.794559,-1.55667,-0.725964,0.004804999999999999,0.9999,0.013286000000000001,-0.011082,-0.124126,-0.014421000000000002,-0.005324000000000001,0.005883,0.006169
445,2.864737,-1.556525,-0.653449,0.003901,0.999898,0.013730000000000001,-0.0014140000000000001,-0.112429,-0.017575999999999998,-0.01356,0.003489,0.007861
446,2.906063,-1.5564870000000002,-0.610111,0.003339,0.999898,0.013912,0.004001,-0.09221599999999999,-0.015428,-0.011014,0.004802000000000001,0.01009
447,2.938031,-1.556431,-0.576525,0.002904,0.9998969999999999,0.014069,0.006186,-0.073078,-0.007961,-0.009801,0.006176,0.011886
448,2.985689,-1.5560459999999998,-0.527691,0.00229,0.999891,0.014571,0.009476,-0.049666,-0.004765,-0.009218,0.011248000000000001,0.014359
449,3.007972,-1.555956,-0.504735,0.001977,0.99989,0.014706,0.010652,-0.024107,-0.003722,-0.010308,0.012546,0.014255
450,3.03428,-1.555888,-0.47822299999999995,0.0015970000000000001,0.9998889999999999,0.014819999999999998,0.0129,-0.002792,-0.008006999999999998,-0.009470000000000001,0.010685,0.014599
451,3.06062,-1.555778,-0.45198599999999994,0.001215,0.9998870000000001,0.014972,0.012177,0.010263,-0.012243,0.000723,0.006369,0.006421
452,3.06877,-1.556014,-0.44409,0.001076,0.999891,0.014743000000000001,0.011148,0.014544999999999999,-0.016529,0.006615,0.002154,0.00011899999999999999
453,3.043097,-1.5563930000000001,-0.46997799999999995,0.001416,0.9998959999999999,0.014333000000000002,0.012182,0.008145999999999999,-0.015443,0.016436000000000003,0.004468,-0.0032240000000000003
454,3.027342,-1.556733,-0.48568199999999995,0.001603,0.999901,0.013971,0.004638000000000001,-0.008873,-0.015472,0.020492,0.005089,-0.008402
455,3.0089330000000003,-1.556944,-0.503624,0.0018329999999999998,0.9999040000000001,0.013734999999999999,-0.007201999999999999,-0.031206,-0.014456,0.020964,0.004246,-0.011309
456,2.9502740000000003,-1.557338,-0.56137,0.002559,0.999909,0.013212999999999999,-0.008357999999999999,-0.052502999999999994,-0.015502000000000002,0.018986000000000003,0.006148,-0.014037
457,2.945638,-1.5576219999999998,-0.5647439999999999,0.002565,0.9999129999999999,0.012924000000000001,-0.004161,-0.068497,-0.015451,0.011534,0.007014,-0.015732
458,2.918658,-1.5582340000000001,-0.5902430000000001,0.002777,0.999921,0.012247,0.001113,-0.07812000000000001,-0.011128,0.007737000000000001,0.004794,-0.012537000000000001
459,2.9236869999999997,-1.558606,-0.583579,0.002635,0.999926,0.011902,0.004436,-0.083329,-0.011071,0.0024,0.001875,-0.010926
460,2.929359,-1.559046,-0.576259,0.002475,0.9999309999999999,0.011486,0.012972,-0.082298,-0.009945,0.000226,0.00132,-0.008404
461,2.962048,-1.559708,-0.542037,0.00198,0.9999389999999999,0.01091,0.021541,-0.071688,-0.006695,-0.007718000000000001,0.009064000000000001,-0.002716
462,2.990495,-1.560341,-0.512335,0.001574,0.9999450000000001,0.01034,0.029062,-0.057874,-0.004524,-0.012454,0.008905,-0.00091
463,3.0201279999999997,-1.5609819999999999,-0.48176800000000003,0.001189,0.9999520000000001,0.009742,0.035533999999999996,-0.040856,-0.0034340000000000004,-0.012313,0.005053,0.003105
464,3.081003,-1.561652,-0.42027,0.000554,0.999958,0.009129,0.039873,-0.025952999999999997,-0.004492,-0.010869,0.005915999999999999,0.002742
465,3.140977,-1.562246,-0.35994499999999996,5e-06,0.9999629999999999,0.008555,0.038868,-0.015283000000000001,-0.007719,-0.007864,0.006522,0.004171
466,-3.090011,-1.562802,-0.30749499999999996,-0.000412,0.9999680000000001,0.007986,0.031419,-0.010995999999999999,-0.007776999999999999,-0.010162000000000001,0.005006,0.0041600000000000005
467,-2.9955830000000003,-1.562945,-0.213008,-0.001142,0.999969,0.0077670000000000005,0.030518,0.002897,-0.009931,-0.010820999999999999,0.003662,0.009597
468,-2.905831,-1.562862,-0.123473,-0.001855,0.999969,0.00772,0.03485,0.016735,-0.010988,-0.0111,0.005036,0.012986000000000001
469,-2.827714,-1.563146,-0.045829,-0.002362,0.9999709999999999,0.007275,0.037025999999999996,0.028437,-0.008851999999999999,-0.012592,0.004546,0.012729
470,-2.722639,-1.5631899999999999,0.058597,-0.003094,0.9999709999999999,0.0069489999999999994,0.038120999999999995,0.035886,-0.007788,-0.011173,0.003676,0.009087999999999999
471,-2.643725,-1.563366,0.136751,-0.0035479999999999995,0.999972,0.006527,0.037082,0.04016,-0.009937999999999999,-0.004265,0.004956,0.006595999999999999
472,-2.584572,-1.5637299999999998,0.19503299999999998,-0.0037340000000000003,0.999975,0.005995,0.038176999999999996,0.044425,-0.012072,0.0025280000000000003,0.006952,0.0047469999999999995
473,-2.5535349999999997,-1.5641120000000002,0.2252,-0.0037090000000000005,0.999978,0.005564,0.03497,0.04231,-0.013159,0.005372999999999999,0.005485,0.004034
474,-2.519209,-1.564459,0.258812,-0.0036969999999999998,0.99998,0.005152,0.029592,0.031681,-0.01425,0.006016,0.0036969999999999998,0.005697
475,-2.449736,-1.5646799999999998,0.327818,-0.0039049999999999996,0.9999809999999999,0.004714,0.027464,0.017985,-0.014252,0.0034630000000000004,0.005527000000000001,0.005693
476,-2.378632,-1.5647280000000001,0.398683,-0.004194,0.9999819999999999,0.004386999999999999,0.023148,0.010531,-0.011068000000000001,-0.0016809999999999998,0.0025210000000000002,0.0030600000000000002
477,-2.2856240000000003,-1.564666,0.491458,-0.004622,0.9999809999999999,0.004012,0.019947,0.013725,-0.007890000000000001,-0.004274,0.0007509999999999999,0.001436
478,-2.181892,-1.564535,0.594852,-0.00513,0.99998,0.003594,0.017856999999999998,0.021197999999999998,-0.010052,-0.007061,0.0013779999999999999,-0.0021449999999999998
479,-2.081528,-1.564338,0.694714,-0.005628,0.9999790000000001,0.003153,0.012576,0.027630000000000002,-0.015438999999999998,-0.005725,0.0027370000000000003,-0.0039770000000000005
480,-2.008131,-1.564101,0.767496,-0.006063000000000001,0.999978,0.0028350000000000003,0.010481,0.032976,-0.018665,-0.003992,0.002601,-0.003949
481,-1.945028,-1.563701,0.8299,-0.006603,0.999975,0.002593,0.008371,0.036188,-0.020821,-0.0055119999999999995,0.006525,-0.0024100000000000002
482,-1.88231,-1.5629629999999999,0.8918020000000001,-0.007455,0.999969,0.0024,0.0051990000000000005,0.043651999999999996,-0.019786,-0.009666,0.0046689999999999995,-0.001439
483,-1.851303,-1.562441,0.921775,-0.008026,0.999965,0.0023120000000000003,-0.00325,0.056625,-0.017735,-0.008804000000000001,0.001149,-0.0035479999999999995
484,-1.7922369999999999,-1.561849,0.979561,-0.008728,0.9999600000000001,0.0019649999999999997,-0.009578,0.070505,-0.019934999999999998,-0.004547,-0.001928,-0.010631999999999999
485,-1.803378,-1.561364,0.9668969999999999,-0.009178,0.999956,0.0021739999999999997,-0.011664,0.07904299999999999,-0.022097,-0.004097,-0.001924,-0.010841
486,-1.780516,-1.56098,0.9882049999999999,-0.009604999999999999,0.9999520000000001,0.0020440000000000002,-0.014872999999999999,0.075863,-0.023183000000000002,0.004143,0.003604,-0.016037
487,-1.730732,-1.5609680000000001,1.03653,-0.009703,0.9999520000000001,0.001565,-0.013837,0.070524,-0.021031,0.006652,0.009753,-0.010858
488,-1.7259779999999998,-1.560735,1.039998,-0.009934,0.999949,0.0015539999999999998,-0.010708,0.058778,-0.016721,0.005814,0.011983,-0.009138
489,-1.7198939999999998,-1.560605,1.045092,-0.010079000000000001,0.999948,0.0015140000000000002,-0.00865,0.044910000000000005,-0.013484000000000001,0.006233,0.010748,-0.008975
490,-1.673572,-1.5607090000000001,1.090616,-0.010034999999999999,0.999949,0.001035,0.0009050000000000001,0.036345999999999996,-0.011269,0.006495,0.0036369999999999996,-0.009717
491,-1.640084,-1.560792,1.123466,-0.009978,0.99995,0.000692,0.011541,0.028962,-0.006920999999999999,0.008757,-1.1e-05,-0.0075439999999999995
492,-1.5885790000000002,-1.5609549999999999,1.1745219999999998,-0.009845999999999999,0.9999520000000001,0.000175,0.018971000000000002,0.020413999999999998,-0.0068579999999999995,0.010243,0.0021850000000000003,-0.007301
493,-1.509508,-1.561275,1.253328,-0.009502,0.9999549999999999,-0.000583,0.019982,0.006566,-0.0079,0.008739,0.003692,-0.005612
494,-1.462243,-1.561268,1.300664,-0.009472,0.9999549999999999,-0.001032,0.020977000000000003,-0.008355,-0.006804999999999999,0.007564,0.008209000000000001,-0.001547
495,-1.421475,-1.56145,1.34175,-0.009245,0.999956,-0.001391,0.019847999999999998,-0.019017,-0.003593,0.006559000000000001,0.009336,0.00044500000000000003
496,-1.380084,-1.561679,1.383672,-0.008952,0.999958,-0.0017280000000000002,0.017656,-0.02967,-0.001457,0.006282,0.005321,8e-05
497,-1.338666,-1.561743,1.425804,-0.008806999999999999,0.999959,-0.002082,0.014412999999999999,-0.039247000000000004,-0.001467,0.006670999999999999,0.003428,-0.002252
498,-1.2994700000000001,-1.561795,1.465945,-0.008673,0.999959,-0.0024129999999999998,0.013284,-0.05202999999999999,-0.00039,0.009634,0.002635,-0.004225
499,-1.242967,-1.562215,1.523685,-0.00812,0.9999629999999999,-0.002762,0.007859,-0.069879,0.00066,0.012468,0.002616,-0.002167
500,-1.216164,-1.562516,1.552214,-0.00777,0.999966,-0.002877,0.0034770000000000005,-0.096491,-0.000404,0.014301,0.000919,-0.000571
501,-1.1746809999999999,-1.563132,1.5960379999999998,-0.00707,0.9999709999999999,-0.002957,0.000147,-0.131608,-0.006789,0.017293,0.0008380000000000001,-0.0020329999999999997
502,-1.149956,-1.563267,1.623897,-0.006876,0.999972,-0.003077,0.001085,-0.169923,-0.016346,0.018701,0.002943,-0.005712
503,-1.082768,-1.5637219999999998,1.6948130000000001,-0.006248,0.999975,-0.003317,0.012734,-0.19550399999999998,-0.022638,0.023078,0.0069370000000000005,-0.0011539999999999999
504,-1.02379,-1.563539,1.758034,-0.006202,0.999974,-0.0037770000000000004,0.016901,-0.221072,-0.02578,0.0214,0.004543,-0.006187
505,-0.973425,-1.563248,1.813173,-0.0062450000000000006,0.999972,-0.004248,0.013572,-0.249823,-0.025764999999999996,0.017002,0.002027,-0.009285999999999999
506,-0.8799379999999999,-1.563161,1.9119279999999998,-0.005888,0.9999709999999999,-0.004868,0.008148,-0.26898299999999997,-0.024707,0.016112,-0.002473,-0.0074
507,-0.8693379999999999,-1.56281,1.9282669999999997,-0.006104999999999999,0.9999680000000001,-0.005157,0.016537,-0.29641799999999996,-0.027816000000000004,0.013566,0.0039689999999999994,-0.003235
508,-0.878641,-1.562214,1.92514,-0.006605,0.9999629999999999,-0.005475,0.027148000000000002,-0.315604,-0.034126,0.006651000000000001,0.008948000000000001,0.003583
509,-0.9029940000000001,-1.5614540000000001,1.907214,-0.007336,0.999956,-0.005786,0.031386000000000004,-0.320949,-0.033020999999999995,-0.0032229999999999997,0.008756,0.004642
510,-0.9307200000000001,-1.560466,1.8858380000000001,-0.008289,0.9999469999999999,-0.0061719999999999995,0.027127999999999996,-0.312438,-0.026654,-0.012173999999999999,0.0075,0.004478
511,-0.961348,-1.55944,1.8610470000000001,-0.009309999999999999,0.999936,-0.006499,0.029376,-0.280513,-0.020271,-0.019194,0.005771,0.0071400000000000005
512,-1.042274,-1.558077,1.7852139999999999,-0.010987,0.999919,-0.0064150000000000006,0.031671,-0.23687399999999997,-0.012837000000000001,-0.025741000000000003,0.006383,0.01287
513,-1.110099,-1.556597,1.721469,-0.012717000000000001,0.999899,-0.006312,0.034019,-0.18576099999999998,-0.009685,-0.028877999999999997,0.002222,0.013819
514,-1.1677799999999998,-1.5551409999999999,1.666981,-0.0144,0.999877,-0.00614,0.031007999999999997,-0.142078,-0.008698000000000001,-0.028584,0.0033880000000000004,0.014761000000000002
515,-1.184526,-1.554238,1.6525330000000003,-0.015340000000000001,0.999863,-0.006239,0.029064999999999997,-0.097338,-0.006634999999999999,-0.031123,0.004837,0.018644
516,-1.24011,-1.5529110000000002,1.5983100000000001,-0.016915,0.99984,-0.005807,0.021763,-0.049124,-0.008877,-0.026999000000000002,0.0030440000000000003,0.016122
517,-1.2853219999999999,-1.551593,1.553719,-0.018425,0.999816,-0.005408,0.009132,-0.019216999999999998,-0.017553,-0.022116999999999998,0.002656,0.013281
518,-1.3221379999999998,-1.550438,1.516946,-0.019732,0.999793,-0.0050100000000000006,0.005021,0.005418,-0.031499,-0.016203,0.000192,0.010198
519,-1.349696,-1.549305,1.4890940000000001,-0.020967,0.999769,-0.004713,-0.006629,0.018268,-0.038007,-0.008298999999999999,0.002443,0.004529999999999999
520,-1.368141,-1.5485799999999998,1.470299,-0.021761000000000003,0.9997530000000001,-0.004471,-0.010916,0.016144,-0.035898,0.00016999999999999999,0.005572,0.001633
521,-1.386018,-1.548241,1.452287,-0.022168,0.9997459999999999,-0.004144,-0.018547,-0.0041340000000000005,-0.019902,0.0041329999999999995,0.007487000000000001,0.000817
522,-1.405891,-1.548559,1.432299,-0.021933,0.9997530000000001,-0.00365,-0.022747,0.007611,-0.023149,0.008841,0.009647,0.000858
523,-1.423282,-1.548665,1.414796,-0.021889,0.999755,-0.0032530000000000002,-0.027038999999999997,0.004422,-0.021037,0.011178,0.0048530000000000005,-0.003232
524,-1.436324,-1.548659,1.401758,-0.021938,0.999755,-0.002968,-0.022809,-0.003054,-0.019929,0.007762000000000001,0.001588,-0.004188
525,-1.442381,-1.548574,1.395839,-0.02204,0.9997530000000001,-0.002846,-0.013235,-0.009479000000000001,-0.019853,0.0064150000000000006,0.003909,-0.006781999999999999
526,-1.4452120000000002,-1.548452,1.393263,-0.022169,0.99975,-0.002799,-0.010062999999999999,-0.014819999999999998,-0.018755,0.002317,0.006979000000000001,0.000953
527,-1.4568860000000001,-1.54813,1.381896,-0.022516,0.999743,-0.002576,-0.008987,-0.015875999999999998,-0.02195,0.00329,0.0055060000000000005,0.002225
528,-1.4676719999999999,-1.547728,1.3713549999999999,-0.022944,0.999734,-0.002374,-0.007877,-0.008415,-0.024088,0.001795,0.0068579999999999995,0.001047
529,-1.482933,-1.5472350000000001,1.3561459999999999,-0.023468,0.9997219999999999,-0.0020670000000000003,0.001768,0.001139,-0.024033000000000002,-0.00119,0.013231999999999999,0.009987000000000001
530,-1.482017,-1.546771,1.356845,-0.023927,0.999711,-0.00213,0.002897,0.017106,-0.021909,-0.004241,0.011885,0.010675
531,-1.509016,-1.5459370000000001,1.329288,-0.024807,0.999691,-0.001535,0.0029760000000000003,0.034155,-0.023,-0.008808,0.004017,0.013466999999999998
532,-1.538226,-1.545059,1.299243,-0.025720999999999997,0.999669,-0.0008380000000000001,-0.001212,0.046974,-0.028388,-0.007238,0.000499,0.014478999999999999
533,-1.540961,-1.544474,1.29539,-0.026309,0.999654,-0.000785,-0.007546,0.059788,-0.030585,-0.004497999999999999,0.00042300000000000004,0.012672
534,-1.554923,-1.5441120000000002,1.2801069999999999,-0.026677,0.9996440000000001,-0.00042300000000000004,-0.014971,0.068341,-0.031715,0.007984999999999999,0.000264,-0.000904
535,-1.56227,-1.5441129999999998,1.271313,-0.026679,0.9996440000000001,-0.000227,-0.020295,0.072612,-0.02962,0.013206,0.00324,-0.00345
536,-1.568468,-1.544341,1.263691,-0.026454000000000002,0.99965,-6.2e-05,-0.035278,0.068378,-0.023306999999999998,0.01356,0.0037530000000000003,-0.007918999999999999
537,-1.584096,-1.544448,1.246644,-0.026343000000000002,0.999653,0.00035,-0.051294000000000006,0.070543,-0.018080000000000002,0.009695,-0.00018700000000000002,-0.009734999999999999
538,-1.614563,-1.54431,1.214644,-0.026458999999999996,0.999649,0.001159,-0.059809,0.079078,-0.013876,0.00145,-0.000733,-0.00685
539,-1.651748,-1.5438610000000001,1.175665,-0.026844,0.9996370000000001,0.0021780000000000002,-0.06400399999999999,0.094011,-0.014993000000000001,-0.005459,-0.0025210000000000002,-0.009975
540,-1.6769459999999998,-1.542982,1.148304,-0.027654,0.999613,0.002947,-0.057496000000000005,0.115303,-0.017113,-0.010295,0.0035759999999999998,-0.007065999999999999
541,-1.696832,-1.541909,1.125709,-0.028655,0.999583,0.003631,-0.041335000000000004,0.148279,-0.019181,-0.01439,0.010366,-0.004302
542,-1.7104990000000002,-1.541109,1.108606,-0.029396,0.999559,0.0041340000000000005,-0.02624,0.186564,-0.015921,-0.018959,0.014128,0.002031
543,-1.721111,-1.539784,1.0937270000000001,-0.030657,0.999519,0.0046429999999999996,-0.014367,0.228025,-0.005212,-0.023161,0.018562000000000002,0.006267
544,-1.7317790000000002,-1.538517,1.0779530000000002,-0.031856,0.9994790000000001,0.005173,-0.006770999999999999,0.27161599999999997,0.009736,-0.030782,0.015597,0.012024
545,-1.734076,-1.538098,1.06968,-0.032257999999999995,0.9994649999999999,0.005314,0.004036,0.31414200000000003,0.021506,-0.034316,0.009507,0.018688
546,-1.7421520000000001,-1.536905,1.054797,-0.033389,0.999426,0.005778,0.012726000000000001,0.356693,0.028983999999999996,-0.036328,0.006876,0.019109
547,-1.749869,-1.5359200000000002,1.039512,-0.034312,0.9993920000000001,0.006211,0.017144,0.391827,0.030033999999999998,-0.032369,0.005796,0.023452
548,-1.7462779999999998,-1.535833,1.034881,-0.034419,0.999389,0.006103,0.022625,0.42271000000000003,0.027894,-0.025304,0.006852,0.025863999999999998
549,-1.758761,-1.535514,1.013743,-0.034656,0.9993780000000001,0.006592,0.022721,0.44083599999999995,0.023597,-0.012662,0.0055509999999999995,0.026993
550,-1.771234,-1.5355379999999998,0.9923790000000001,-0.034545,0.9993790000000001,0.007018000000000001,0.016368999999999998,0.44833199999999995,0.019269,-1e-06,0.004085,0.021897
551,-1.776325,-1.535816,0.9783940000000001,-0.034238,0.9993879999999999,0.007137999999999999,-0.002836,0.44097200000000003,0.011667,0.0033840000000000003,0.0028399999999999996,0.022724
552,-1.790181,-1.536019,0.9559989999999999,-0.033936,0.999395,0.007567,-0.023199,0.415498,0.006217,0.008698000000000001,0.0016879999999999998,0.018129
553,-1.824345,-1.5364010000000001,0.913948,-0.033288,0.999409,0.008626,-0.038285,0.382527,0.006156,0.013086000000000002,0.0033229999999999996,0.012843
554,-1.855739,-1.53655,0.875292,-0.032858,0.9994139999999999,0.009625,-0.051255999999999996,0.351653,0.012516,0.009268,0.002539,0.011555
555,-1.8950490000000002,-1.536584,0.829218,-0.032423,0.9994149999999999,0.010898,-0.062032000000000004,0.330376,0.014605000000000002,0.000288,0.0022329999999999997,0.001462
556,-1.92587,-1.536449,0.791886,-0.032199,0.99941,0.011939,-0.06529,0.320788,0.017799000000000002,-0.001507,0.0024059999999999997,-0.002723
557,-1.953612,-1.536339,0.757696,-0.031958999999999994,0.9994059999999999,0.012869,-0.056745000000000004,0.321827,0.016789,-0.000863,0.003279,-0.0048579999999999995
558,-1.9673060000000002,-1.5369680000000001,0.737507,-0.031199,0.9994280000000001,0.013062,-0.047136000000000004,0.32392,0.017922999999999998,0.010386,0.0065379999999999995,-0.009812000000000001
559,-1.9837759999999998,-1.5378969999999998,0.7146600000000001,-0.030126999999999998,0.999459,0.013201,-0.038642,0.313242,0.016931,0.021308,0.009345000000000001,-0.011645
560,-1.999634,-1.538567,0.69271,-0.029306,0.999481,0.013399000000000001,-0.029195,0.295464,0.015978,0.025171000000000002,0.009826999999999999,-0.012606000000000001
561,-2.015143,-1.540303,0.6717029999999999,-0.027527999999999997,0.9995350000000001,0.013106,-0.022945,0.262415,0.017137,0.035935,0.006278,-0.014403000000000001
562,-2.028616,-1.542326,0.653464,-0.025536,0.9995950000000001,0.012583,-0.015650999999999998,0.22297399999999998,0.017244,0.037911,0.005563,-0.017496
563,-2.03963,-1.5435450000000002,0.638456,-0.024307,0.9996290000000001,0.012312,-0.009431,0.18565399999999999,0.020541999999999998,0.039474,0.0033009999999999997,-0.018415
564,-2.0413080000000003,-1.545773,0.633568,-0.022302000000000002,0.9996870000000001,0.011343,-2.7000000000000002e-05,0.14618499999999998,0.026004000000000003,0.03312,0.007958,-0.021902
565,-2.033571,-1.54787,0.638832,-0.020512,0.9997370000000001,0.010234,0.010458,0.11096800000000001,0.032536,0.026768,0.010685,-0.020381
566,-2.0274389999999998,-1.549224,0.643081,-0.019361,0.999767,0.009511,0.017794,0.08642000000000001,0.037961,0.020031999999999998,0.009418000000000001,-0.017065
567,-2.015469,-1.551104,0.653518,-0.017777,0.999806,0.008471,0.033746,0.073585,0.037023,0.016373,0.008449,-0.007036
568,-1.9974830000000001,-1.552808,0.670144,-0.016375,0.9998379999999999,0.007444,0.047587,0.066084,0.036064,0.013491,0.0046170000000000004,-0.0020280000000000003
569,-1.955086,-1.554258,0.7112890000000001,-0.015334,0.999863,0.006201,0.049651999999999995,0.061028,0.033979,0.005736,-0.003403,-0.004782
570,-1.921615,-1.555408,0.743624,-0.014447,0.9998819999999999,0.005287,0.040055,0.0547,0.026443,0.006436,-0.002659,0.000206
571,-1.8960400000000002,-1.556386,0.7682770000000001,-0.013653,0.9998959999999999,0.004604,0.025113999999999997,0.042016000000000005,0.014606000000000001,0.00935,0.002499,-0.00031600000000000004
572,-1.891055,-1.557128,0.772606,-0.012969,0.999907,0.004302,0.01014,0.027180000000000003,0.008112999999999999,0.011916,-0.001585,0.000169
573,-1.897646,-1.557727,0.765756,-0.012375,0.999915,0.004195,-0.004863,0.0048920000000000005,0.0005610000000000001,0.012085,-0.002066,-0.002746
574,-1.9188470000000002,-1.558107,0.7446699999999999,-0.011923999999999999,0.999919,0.004326,-0.017727,-0.012095,-0.002711,0.012198,-0.0012779999999999998,-0.004738
575,-1.939012,-1.558483,0.724932,-0.011487,0.9999239999999999,0.004432,-0.019912,-0.024866,-0.003776,0.012479,0.00093,-0.008079000000000001
576,-1.950596,-1.558872,0.71396,-0.011075,0.9999290000000001,0.0044210000000000005,-0.017800999999999997,-0.034444,-0.008020000000000001,0.013775999999999998,0.002879,-0.010891
577,-1.952761,-1.559338,0.712662,-0.010633,0.999934,0.0042710000000000005,-0.01679,-0.050414,-0.011195,0.018522,0.006032,-0.014083000000000002
578,-1.954036,-1.559775,0.712626,-0.010218000000000001,0.9999389999999999,0.00412,-0.013663999999999999,-0.069591,-0.013283000000000001,0.016535,0.0053100000000000005,-0.011337
579,-1.959354,-1.55986,0.708936,-0.010119,0.9999399999999999,0.004142,-0.01163,-0.087725,-0.008971999999999999,0.014483000000000001,0.004836,-0.010109
580,-1.9532330000000002,-1.560289,0.717004,-0.009748,0.9999450000000001,0.003921,-0.008524,-0.103736,-0.003587,0.009931,0.006204,-0.010757
581,-1.948366,-1.560484,0.724,-0.00958,0.9999469999999999,0.0037990000000000003,-0.001108,-0.11123599999999999,0.0007480000000000001,0.008694,0.006843000000000001,-0.010391
582,-1.920936,-1.5607540000000002,0.7538,-0.009434,0.99995,0.003445,0.006294,-0.122993,0.00402,-0.00085,0.004964,-0.006512
583,-1.888813,-1.560858,0.788481,-0.009443,0.999951,0.0031079999999999997,0.014801,-0.130475,0.00302,-0.00487,0.005253,-0.002117
584,-1.8506650000000002,-1.5607440000000001,0.829342,-0.009661,0.999949,0.002777,0.016901,-0.136879,0.004111,-0.006696,0.005818,0.000611
585,-1.8242040000000002,-1.560669,0.8585149999999999,-0.009804,0.999949,0.002539,0.013724,-0.133663,0.001947,-0.011101,0.005926,0.005945000000000001
586,-1.824948,-1.560202,0.860381,-0.010259,0.999944,0.002665,0.011609,-0.127272,0.004059,-0.014079,0.007562999999999999,0.009771
587,-1.8206060000000002,-1.559898,0.867124,-0.010561,0.999941,0.002694,0.011651,-0.11768499999999998,0.004046,-0.017287,0.007078,0.009772
588,-1.82133,-1.559544,0.8686,-0.010898,0.9999370000000001,0.0027890000000000002,0.007435,-0.105952,0.004,-0.019055000000000002,0.006670000000000001,0.011493000000000001
589,-1.8441349999999999,-1.558123,0.8477709999999999,-0.0122,0.99992,0.0034200000000000003,0.001104,-0.094194,-0.000337,-0.019447,-0.000439,0.008893
590,-1.8511369999999998,-1.557503,0.8424659999999999,-0.012771,0.9999120000000001,0.003677,-0.008403,-0.080282,-0.0079,-0.021119,0.002041,0.0065
591,-1.8722310000000002,-1.556708,0.822793,-0.013452,0.999901,0.004182,-0.021119,-0.067429,-0.014416,-0.019750999999999998,0.003258,0.005888
592,-1.9038529999999998,-1.555281,0.792381,-0.014661000000000002,0.9998799999999999,0.005072,-0.028531,-0.056741,-0.016621,-0.011401,0.0023940000000000003,0.005258
593,-1.937455,-1.554565,0.759849,-0.015155000000000002,0.999868,0.0058200000000000005,-0.033851,-0.05140499999999999,-0.014530000000000001,-0.008786,0.000651,0.004037
594,-1.969426,-1.553908,0.7288819999999999,-0.015565,0.999857,0.006556,-0.034928,-0.049288,-0.010268000000000001,-0.008346,0.000677,0.000754
595,-1.988963,-1.5532549999999998,0.710337,-0.016030000000000003,0.9998459999999999,0.007123,-0.040266,-0.050334,-0.010305,-0.00106,0.000154,-0.004911
596,-2.024514,-1.552684,0.67585,-0.016277,0.9998360000000001,0.007937999999999999,-0.047743,-0.055621000000000004,-0.013555000000000001,-0.000904,0.002346,-0.0051600000000000005
597,-2.059243,-1.552181,0.642301,-0.016439,0.999827,0.008736,-0.046695,-0.063069,-0.016742,0.0048119999999999994,0.006033,-0.0034409999999999996
598,-2.0937419999999998,-1.551562,0.609178,-0.016659999999999998,0.999815,0.009604000000000001,-0.048867,-0.07370499999999999,-0.01888,0.006086,0.0051140000000000005,-0.005866
599,-2.129268,-1.5508709999999999,0.575317,-0.016895,0.9998020000000001,0.010556,-0.048938,-0.087562,-0.016725999999999998,0.004917,0.007506999999999999,-0.0023469999999999997
600,-2.160015,-1.550303,0.5463720000000001,-0.017037,0.99979,0.011387999999999999,-0.042575,-0.09080099999999999,-0.011335,-0.000571,0.010479,-0.002156
601,-2.183089,-1.5498129999999999,0.525112,-0.017169,0.9997799999999999,0.012059,-0.032992,-0.08872999999999999,-0.004862,-0.000241,0.010642,-0.003483
602,-2.1966040000000002,-1.5494,0.513321,-0.017341,0.999771,0.012532999999999999,-0.022328,-0.081344,0.0037479999999999996,-0.006065999999999999,0.008316,-0.000722
603,-2.208939,-1.549191,0.5024890000000001,-0.017351,0.999767,0.012868000000000001,-0.008440000000000001,-0.071827,0.009174,-0.008298999999999999,0.010838,0.001994
604,-2.2142459999999997,-1.5492709999999998,0.498555,-0.01722,0.999768,0.012913999999999998,0.0011480000000000001,-0.06656799999999999,0.017779,-0.008918,0.010119,-0.001485
605,-2.21631,-1.5495299999999999,0.497687,-0.016986,0.9997739999999999,0.012793,0.010783,-0.0549,0.022104,-0.008786,0.004438,-0.001609
606,-2.218127,-1.549866,0.496734,-0.016696000000000003,0.9997809999999999,0.012622,0.014065000000000001,-0.035741,0.02317,-0.003568,-0.0008029999999999999,0.002225
607,-2.229823,-1.550124,0.48558,-0.016344,0.9997860000000001,0.012659,0.013049000000000002,-0.024019,0.023147,-0.0024850000000000002,0.004364,0.007025
608,-2.251794,-1.550138,0.464057,-0.016051,0.9997870000000001,0.013006,0.0034700000000000004,-0.021842,0.019872,-0.002107,0.004913,0.010537999999999999
609,-2.275633,-1.549779,0.4407,-0.016009,0.9997790000000001,0.013616999999999999,-0.009315,-0.023902,0.013375,-0.00662,0.006889,0.011408
610,-2.297787,-1.549053,0.41896700000000003,-0.016246,0.999764,0.014450999999999999,-0.016727000000000002,-0.01852,0.005838,-0.009145,0.004204,0.012328
611,-2.310636,-1.548565,0.406298,-0.016418000000000002,0.9997530000000001,0.014986000000000001,-0.017703999999999998,-0.00252,0.001537,-0.00969,0.00365,0.008145999999999999
612,-2.322826,-1.547833,0.393911,-0.016769,0.9997360000000001,0.015685,-0.014418,0.017705000000000002,0.002601,-0.008286,0.0028120000000000003,0.007859
613,-2.334946,-1.547294,0.38121700000000003,-0.016967,0.999724,0.016261,-0.014372,0.032601,0.006854000000000001,-0.00499,0.002443,0.006459
614,-2.3496029999999997,-1.5470540000000002,0.36583699999999997,-0.016896,0.999718,0.016674,-0.014372,0.036844999999999996,0.011120999999999999,-0.005016,0.004051,0.00655
615,-2.375616,-1.546537,0.339104,-0.016816,0.999706,0.017482,-0.017574,0.036857,0.011098,-0.0024100000000000002,0.007222,0.012013
616,-2.4045,-1.546042,0.30949899999999997,-0.016637,0.9996940000000001,0.018327,-0.017572,0.0358,0.008962999999999999,-0.0012619999999999999,0.005006,0.011321
617,-2.425077,-1.5455889999999999,0.288206,-0.016555,0.999682,0.019008,-0.013300999999999999,0.035789999999999995,0.007923999999999999,-0.0018780000000000001,0.001889,0.008503
618,-2.442921,-1.5453,0.269637,-0.016398,0.999675,0.019521,-0.012245,0.035776999999999996,0.010068,0.0005740000000000001,0.003468,0.005565
619,-2.466041,-1.545081,0.24574400000000002,-0.016079,0.999669,0.020065,-0.011165000000000001,0.04003,0.011139,0.0035060000000000004,0.00442,0.0074010000000000005
620,-2.488238,-1.544966,0.22269,-0.015698,0.9996659999999999,0.020507,-0.010151,0.044654,0.011186,0.0035979999999999996,0.0047740000000000005,0.006074
621,-2.503794,-1.544892,0.20616900000000002,-0.015424,0.999664,0.020811,-0.009046,0.04999,0.007983,0.005368,0.005981,0.004625
622,-2.522508,-1.54475,0.186498,-0.015113,0.999661,0.02121,-0.012251999999999999,0.045752999999999995,0.004762,0.005072,0.002903,0.0037530000000000003
623,-2.54019,-1.544625,0.167976,-0.014806,0.999658,0.021575999999999998,-0.010129,0.039370999999999996,0.000513,0.005559000000000001,0.0036229999999999995,0.003311
624,-2.55583,-1.54441,0.1516,-0.014584999999999999,0.9996520000000001,0.021984,-0.010139,0.034057,-0.002684,0.005826,0.004407,0.006352
625,-2.568782,-1.544274,0.138034,-0.014372999999999999,0.999648,0.022286,-0.010159,0.028735000000000004,-0.003744,0.006515000000000001,0.00525,0.002937
626,-2.5800349999999996,-1.544088,0.12626199999999999,-0.014219999999999998,0.9996430000000001,0.022604,-0.011245,0.0266,-0.0016120000000000002,0.0043170000000000005,0.007055,0.0042369999999999994
627,-2.5924080000000003,-1.543911,0.113356,-0.014031,0.9996389999999999,0.022928,-0.008092,0.027842000000000002,0.001639,0.004098,0.006175,0.0030280000000000003
628,-2.6007860000000003,-1.543894,0.10436600000000001,-0.013849,0.9996379999999999,0.023062,-0.0006190000000000001,0.032063999999999995,0.0048909999999999995,0.0019320000000000001,0.007289,0.000941
629,-2.603792,-1.5440450000000001,0.10067999999999999,-0.013702,0.999642,0.022972,0.006834999999999999,0.033086000000000004,0.009215000000000001,0.0007160000000000001,0.005515,0.001213
630,-2.6074740000000003,-1.544435,0.096324,-0.013418000000000001,0.999653,0.022686,0.010020999999999999,0.033062,0.012442,0.000936,0.0060539999999999995,-0.0011099999999999999
631,-2.611333,-1.545022,0.09185700000000001,-0.013035,0.999668,0.022233000000000003,0.016385,0.028762,0.016766,0.00185,0.007229000000000001,-0.003297
632,-2.613107,-1.5456860000000001,0.08959099999999999,-0.01266,0.999685,0.021683,0.023805,0.021266,0.020031999999999998,0.002788,0.007121,-0.005065999999999999
633,-2.617916,-1.5466,0.08444199999999999,-0.012098000000000001,0.999707,0.020950999999999997,0.031235000000000002,0.01484,0.022229,0.004377000000000001,0.00545,-0.0033880000000000004
634,-2.623744,-1.5476020000000001,0.078445,-0.011479999999999999,0.9997309999999999,0.02015,0.036517,0.005226,0.024415,0.004613,0.007883,-0.002221
635,-2.626892,-1.54859,0.075309,-0.01093,0.9997530000000001,0.019326,0.037537,-0.004369,0.025503,0.002705,0.00577,-0.002618
636,-2.62902,-1.549636,0.07334600000000001,-0.010376999999999999,0.999776,0.01844,0.035358999999999995,-0.009595000000000001,0.02659,-0.001067,0.0034590000000000003,-0.0043100000000000005
637,-2.628874,-1.550597,0.073712,-0.009908,0.9997959999999999,0.0176,0.031097000000000003,-0.010636,0.024425,-0.0019329999999999998,0.003164,-0.005302
638,-2.630752,-1.551401,0.072049,-0.009481,0.999812,0.016916,0.031101999999999998,-0.011693,0.02229,-0.002085,0.003133,-0.0016719999999999999
639,-2.6275779999999997,-1.552208,0.07548400000000001,-0.009141,0.999827,0.016189,0.028964,-0.014872999999999999,0.020142,-0.003295,0.005635,-0.001616
640,-2.624072,-1.552859,0.079359,-0.008874,0.9998389999999999,0.015588999999999999,0.028926,-0.022333000000000002,0.021219,-0.004065,0.003243,-0.001276
641,-2.62376,-1.553388,0.080234,-0.008618,0.999848,0.015128,0.021443,-0.029747000000000003,0.016903,-0.003314,0.0041340000000000005,-0.0004940000000000001
642,-2.6217919999999997,-1.553793,0.082819,-0.008444,0.9998549999999999,0.014754,0.016123,-0.030775999999999998,0.012594,-0.002771,0.004097,-0.002074
643,-2.613977,-1.554139,0.09122100000000001,-0.008388,0.9998610000000001,0.014394,0.014012,-0.028419999999999997,0.010459,-0.004018,0.005372999999999999,-0.000676
644,-2.607285,-1.5545950000000002,0.098432,-0.008251,0.999869,0.013944999999999999,0.011893,-0.025217,0.010440000000000001,-0.0012699999999999999,0.0029690000000000003,-0.003676
645,-2.608832,-1.554916,0.097276,-0.008066,0.9998739999999999,0.013680000000000001,0.009807,-0.016678,0.008278,0.00046699999999999997,0.0045969999999999995,0.0006940000000000001
646,-2.619066,-1.5551059999999999,0.087345,-0.007831999999999999,0.999877,0.013599000000000002,0.007693000000000001,-0.013471,0.0071909999999999995,0.000798,0.004975,0.0015220000000000001
647,-2.63092,-1.555317,0.07570299999999999,-0.007562999999999999,0.9998799999999999,0.0135,0.008768999999999999,-0.010283,0.008263,0.0017649999999999999,0.006314999999999999,0.000721
648,-2.6393169999999997,-1.555619,0.06757300000000001,-0.007306,0.999885,0.013302000000000001,0.010879,-0.014555000000000002,0.009352,0.003171,0.005959000000000001,-0.0008359999999999999
649,-2.644952,-1.5560209999999999,0.062264,-0.007037999999999999,0.999891,0.012987,0.010855,-0.017759999999999998,0.011492,0.003956,0.0041979999999999995,-0.0028239999999999997
650,-2.649677,-1.556541,0.057879999999999994,-0.006734,0.999898,0.012567,0.012994,-0.015641,0.012573,0.000356,0.003901,-0.0017629999999999998
651,-2.661405,-1.556907,0.046447,-0.006416,0.9999040000000001,0.012319,0.011948,-0.013385,0.014713,0.001213,0.0039570000000000004,-0.0022329999999999997
652,-2.6718450000000002,-1.557312,0.036184,-0.006104999999999999,0.999909,0.012027,0.008782,-0.005915999999999999,0.014681,-0.002226,0.004775,-0.002582
653,-2.676128,-1.557555,0.031898,-0.005943,0.9999120000000001,0.011831,0.005615,0.002613,0.015716,-0.003136,0.004177,-0.0009519999999999999
654,-2.68398,-1.557876,0.023958,-0.005707,0.9999170000000001,0.011588,0.0035060000000000004,0.004764,0.012493,-0.000397,0.003913000000000001,-0.00257
655,-2.686804,-1.55824,0.020987000000000002,-0.005517,0.999921,0.011283,0.002468,0.009037,0.010343999999999999,-0.000266,0.004321,-0.004981
656,-2.694414,-1.558368,0.013191999999999999,-0.005374,0.999923,0.011205,0.000359,0.009066,0.004988,-0.000699,0.004151,-0.002095
657,-2.697457,-1.558439,0.009972,-0.0053100000000000005,0.9999239999999999,0.011158,-0.008161,0.01017,0.002791,0.000671,0.001495,-0.002568
658,-2.708844,-1.558284,-0.0016690000000000001,-0.005246,0.999922,0.011355,-0.016658000000000003,0.014478,-0.001547,0.000103,0.003939,-0.001987
659,-2.7227259999999998,-1.558057,-0.015844999999999998,-0.005183,0.999919,0.011642,-0.019819999999999997,0.014672,-0.0026320000000000002,0.003001,0.002675,-0.00299
660,-2.733083,-1.557733,-0.026466000000000003,-0.005189,0.999915,0.011987000000000001,-0.021948,0.013623,-0.0047810000000000005,0.003175,0.004724,-0.002298
661,-2.745377,-1.557389,-0.039036,-0.005176,0.9999100000000001,0.012372,-0.025125,0.015778,-0.00801,0.004718,0.004103,-0.002942
662,-2.756559,-1.55705,-0.050577,-0.005163,0.999906,0.012740000000000001,-0.0251,0.018982,-0.01015,0.005102000000000001,0.005771,-0.002349
663,-2.770175,-1.556634,-0.064566,-0.005139,0.9999,0.013194999999999998,-0.027233999999999998,0.017929,-0.011231,0.005918,0.008844,-0.00021
664,-2.786598,-1.55616,-0.081265,-0.0050880000000000005,0.999893,0.013724,-0.025133000000000003,0.011526,-0.010139,0.006995,0.007126,0.000711
665,-2.802966,-1.555808,-0.097814,-0.004979,0.9998879999999999,0.014136000000000001,-0.025143000000000002,0.008334000000000001,-0.011202,0.008061,0.004568,-0.001898
666,-2.810593,-1.555391,-0.10561300000000001,-0.005005,0.9998809999999999,0.014565999999999999,-0.025157,0.009382999999999999,-0.0069299999999999995,0.008316,0.0035520000000000005,-0.002298
667,-2.83221,-1.554845,-0.127486,-0.004856,0.999873,0.015191999999999999,-0.026166000000000002,0.014861000000000001,-0.00588,0.006809,0.005666,0.004141
668,-2.847459,-1.554165,-0.143057,-0.004822,0.999862,0.015918,-0.027219,0.015938,-0.008024,0.001572,0.008012,0.0045590000000000006
669,-2.848242,-1.553456,-0.144031,-0.005013,0.99985,0.016597,-0.02512,0.006352,-0.010134,-0.00047999999999999996,0.004224,0.005558
670,-2.8486380000000002,-1.552748,-0.144426,-0.005212,0.9998370000000001,0.017278,-0.021958000000000002,-0.0021809999999999998,-0.010101,0.000268,0.003443,0.006022
671,-2.844218,-1.552215,-0.139917,-0.005444,0.999827,0.017764,-0.016615,-0.002191,-0.0122,0.001065,0.004064,0.005215999999999999
672,-2.843109,-1.551639,-0.13884100000000002,-0.005634,0.999817,0.018311,-0.012324,0.004182,-0.01111,0.001239,0.0046700000000000005,0.0061340000000000006
673,-2.83898,-1.551259,-0.13485899999999998,-0.005822,0.9998090000000001,0.018647999999999998,-0.009129,0.007349,-0.0068189999999999995,-0.0013650000000000001,0.00515,0.003721
674,-2.83511,-1.551015,-0.131109,-0.005967,0.9998040000000001,0.018857,-0.003833,0.003053,-0.002503,-0.000609,0.004636,0.001467
675,-2.833518,-1.550993,-0.129573,-0.006005,0.9998040000000001,0.018869999999999998,-0.001668,0.003097,-0.002509,0.003334,0.006559000000000001,0.00121
676,-2.843738,-1.550925,-0.139873,-0.005831,0.9998030000000001,0.018994999999999998,0.001537,0.003091,-0.003554,0.004168,0.002547,0.002032
677,-2.845466,-1.5508979999999999,-0.141623,-0.005806,0.9998020000000001,0.019031,-0.000602,-8.9e-05,-0.0057009999999999995,0.005379,0.005325,0.0016300000000000002
678,-2.845041,-1.550797,-0.141094,-0.005843999999999999,0.9998,0.019126,-0.003822,-0.007522,-0.008918,0.004547,0.002886,0.002191
679,-2.844846,-1.550541,-0.140739,-0.0059229999999999994,0.9997950000000001,0.019369,-0.007023000000000001,-0.007509999999999999,-0.00894,0.000521,0.0060799999999999995,0.002665
680,-2.8389849999999996,-1.550265,-0.134748,-0.006118,0.9997889999999999,0.019597999999999997,-0.00808,-0.006437000000000001,-0.010017,0.00061,0.006711,0.0039310000000000005
681,-2.832388,-1.5499450000000001,-0.12806900000000002,-0.006344,0.999783,0.01986,-0.0102,-0.0032340000000000003,-0.010036,-0.001026,0.004856,0.0038829999999999997
682,-2.822074,-1.549454,-0.11770599999999999,-0.006703,0.9997719999999999,0.020258,-0.014449000000000002,-0.0010789999999999999,-0.012205,-0.002285,0.004515,0.002294
683,-2.811657,-1.549042,-0.107301,-0.007047,0.999763,0.020577,-0.0144,0.0022649999999999997,-0.015449000000000001,-0.002154,0.006325,0.00109
684,-2.801572,-1.548651,-0.09727899999999999,-0.007384999999999999,0.999755,0.020876,-0.012261,0.0033229999999999996,-0.015436000000000002,-0.000992,0.004182,0.0015539999999999998
685,-2.790861,-1.548311,-0.08668,-0.007725,0.9997469999999999,0.021113999999999997,-0.009056,0.005438,-0.014348,-0.00082,0.007608,0.000202
686,-2.785375,-1.54813,-0.081317,-0.007904000000000001,0.999743,0.021241,-0.004793,0.007541,-0.011116,0.002517,0.009061,-0.00139
687,-2.778653,-1.548037,-0.074781,-0.008079000000000001,0.999741,0.021274,-0.002659,0.009656,-0.008967000000000001,-5.4000000000000005e-05,0.007431,-0.0008730000000000001
688,-2.769828,-1.548057,-0.066234,-0.00826,0.999741,0.021184,-0.000516,0.014962,-0.005755,-0.002116,0.005935,-0.002919
689,-2.764454,-1.548076,-0.061173000000000005,-0.008365000000000001,0.999742,0.02112,0.0026899999999999997,0.016016,-0.005733,0.001209,0.007155,-0.000886
690,-2.761072,-1.548196,-0.058129999999999994,-0.008393000000000001,0.9997450000000001,0.020981,0.004814,0.016000999999999998,-0.003582,0.000229,0.005535,6.1e-05
691,-2.757869,-1.548302,-0.055246,-0.008421,0.9997469999999999,0.020857,0.004823,0.016107,-0.003629,0.001982,0.006173,-0.00045599999999999997
692,-2.751825,-1.548371,-0.049546,-0.008520999999999999,0.999749,0.020743,0.0037560000000000002,0.018233000000000003,-0.001503,-0.002786,0.0032270000000000003,-6e-06
693,-2.748149,-1.548435,-0.04626,-0.008573,0.99975,0.020653,0.004823,0.020352000000000002,0.000638,-0.004489,0.004461,0.00035800000000000003
694,-2.743513,-1.5484639999999998,-0.042049,-0.008655,0.9997510000000001,0.020581,0.006961,0.021409,0.000651,-0.0039030000000000002,0.006475,0.002337
695,-2.737584,-1.548475,-0.036552,-0.008773999999999999,0.9997510000000001,0.020522,0.008032,0.020349000000000003,-0.001477,-0.0045320000000000004,0.0063219999999999995,0.0046700000000000005
696,-2.7217119999999997,-1.5483149999999999,-0.021105000000000002,-0.009164,0.9997469999999999,0.020527,0.006979000000000001,0.020366,-0.00469,-0.0034700000000000004,0.005013,0.0025440000000000003
697,-2.710024,-1.548246,-0.009803000000000001,-0.009432,0.9997459999999999,0.020481,0.00484,0.019308000000000002,-0.004704,-0.0019199999999999998,0.000315,0.002117
698,-2.701212,-1.548102,-0.001408,-0.009674,0.999743,0.020528,0.000582,0.021454,-0.004737,-0.0031739999999999997,0.0017530000000000002,0.0024059999999999997
699,-2.695188,-1.5479370000000001,0.004154,-0.009868,0.9997389999999999,0.020618,-0.002594,0.023703000000000002,-0.004814,-0.001622,0.004106,0.002225
700,-2.6914279999999997,-1.5477040000000002,0.00742,-0.010047,0.999733,0.02079,-0.002575,0.024781,-0.008020000000000001,-0.000863,0.0053479999999999995,0.002525
701,-2.67979,-1.547432,0.018585,-0.010409999999999999,0.999727,0.020916999999999998,-0.000442,0.022652000000000002,-0.010139,-0.003704,0.005034,0.0031309999999999997
702,-2.667358,-1.547213,0.03055,-0.010768999999999999,0.9997219999999999,0.020980000000000002,0.002768,0.023711000000000003,-0.011187,-0.002506,0.004886,0.0032049999999999995
703,-2.65848,-1.5470780000000002,0.038951,-0.011018,0.999719,0.021003,0.0048920000000000005,0.024756,-0.007969,-0.001098,0.004538,0.004235
704,-2.650753,-1.546956,0.046126,-0.011237,0.9997159999999999,0.021024,0.00703,0.028997000000000002,-0.004755,-0.001275,0.005045,0.005068
705,-2.6452400000000003,-1.546953,0.051051,-0.011353,0.9997159999999999,0.020963,0.010225,0.028981,-0.003664,0.001008,0.004633,0.0022760000000000002
706,-2.64261,-1.546978,0.053098,-0.011396,0.9997159999999999,0.020911000000000003,0.013406,0.027892,-0.000436,-4.8e-05,0.003747,0.003091
707,-2.638515,-1.5469959999999998,0.056701999999999995,-0.011474,0.999717,0.02085,0.014485,0.022658,-0.003655,-0.000489,0.004189,0.005379999999999999
708,-2.631548,-1.5471110000000001,0.063289,-0.011563,0.99972,0.020669999999999997,0.014465,0.017336,-0.004717,0.001218,0.004645000000000001,0.0038350000000000003
709,-2.625771,-1.547158,0.06870599999999999,-0.011658,0.9997209999999999,0.020559,0.015536000000000001,0.019458,-0.003643,0.001923,0.003774,0.005121
710,-2.618451,-1.547264,0.075613,-0.011755,0.9997229999999999,0.020382,0.011292,0.022678,-0.005814,0.001059,0.004122,0.004917
711,-2.615345,-1.547277,0.078239,-0.011812999999999999,0.9997229999999999,0.020337,0.0081,0.025881,-0.004772,0.00011,0.002565,0.0024289999999999997
712,-2.608221,-1.54726,0.08480800000000001,-0.011966,0.9997229999999999,0.020266,0.00279,0.030164999999999997,-0.005882,0.0008269999999999999,0.003237,2.8000000000000003e-05
713,-2.601357,-1.547217,0.091017,-0.012126999999999999,0.9997219999999999,0.02022,0.0017469999999999999,0.034434,-0.006963,-0.000339,0.0032840000000000005,0.000745
714,-2.592578,-1.547166,0.09916599999999999,-0.012329000000000001,0.9997209999999999,0.020154,0.000666,0.02912,-0.009101,0.001419,0.005116,-0.002072
715,-2.584473,-1.5471840000000001,0.106734,-0.012483,0.9997209999999999,0.020038999999999998,0.0017510000000000002,0.024938,-0.010202,0.002184,0.006016,-0.002293
716,-2.579837,-1.54734,0.110927,-0.012493,0.999725,0.019849000000000002,0.0017230000000000001,0.019607,-0.009126,0.006298,0.0068969999999999995,-0.003675
717,-2.574132,-1.547455,0.116248,-0.012544,0.9997280000000001,0.019681,0.0017280000000000002,0.018550999999999998,-0.011261,0.00461,0.0063,-0.003796
718,-2.568596,-1.5474940000000001,0.121406,-0.012631999999999999,0.9997290000000001,0.019578,0.000657,0.01855,-0.010199,0.002882,0.006558,-0.001161
719,-2.558565,-1.547424,0.13112200000000002,-0.012866999999999998,0.999727,0.01951,-0.00041900000000000005,0.014302,-0.012338,-1.1e-05,0.005415,-0.0003
720,-2.549727,-1.547349,0.139693,-0.013081,0.999725,0.019458,0.002757,0.012147,-0.009108,0.000172,0.00528,0.00021099999999999998
721,-2.5308490000000003,-1.547439,0.158323,-0.013394999999999999,0.999727,0.019134,0.005954,0.013193,-0.006951000000000001,-0.0018030000000000001,0.005064,-0.004837
722,-2.521702,-1.5475079999999999,0.16718,-0.013528,0.9997290000000001,0.018954,0.005954,0.015315,-0.004818,-0.000479,0.003399,-0.0026420000000000003
723,-2.510813,-1.547575,0.177755,-0.013693,0.9997299999999999,0.01875,0.005995,0.015371000000000001,-0.005919,-0.002664,0.00265,-0.003415
724,-2.499675,-1.547605,0.188603,-0.013883000000000001,0.9997309999999999,0.018571999999999998,0.004922999999999999,0.013248,-0.006992,-9.4e-05,0.005014,0.001462
725,-2.49024,-1.547625,0.197826,-0.014047,0.999732,0.018427000000000002,0.005971,0.008984,-0.00698,-0.000723,0.005853,-0.000681
726,-2.481175,-1.5476379999999998,0.206715,-0.014204,0.999732,0.018287,0.005961999999999999,0.008975,-0.004843,-0.001924,0.005548,-0.000663
727,-2.4705220000000003,-1.547625,0.21715700000000002,-0.014406,0.999732,0.018144,0.007037999999999999,0.011101999999999999,-0.004839,-0.002836,0.003778,-0.000734
728,-2.458958,-1.547718,0.228433,-0.014558000000000001,0.999734,0.017906000000000002,0.00812,0.016416,-0.002702,-0.002212,0.004111999999999999,-0.0017920000000000002
729,-2.44829,-1.547783,0.23878200000000002,-0.014705000000000001,0.999735,0.017698,0.009187,0.016413,-0.002695,-0.003865,0.0058649999999999996,-0.000974
730,-2.432973,-1.547821,0.253776,-0.01495,0.9997360000000001,0.017442,0.010249,0.016405,-0.00162,-0.005848,0.004277,-0.000123
731,-2.421594,-1.547896,0.264859,-0.015099000000000001,0.9997379999999999,0.017215,0.007089,0.0154,-0.002738,-0.004936,0.0032380000000000004,-0.002582
732,-2.4071279999999997,-1.547891,0.279037,-0.01535,0.9997379999999999,0.016999,0.0070799999999999995,0.014331,-0.0016690000000000001,-0.0022440000000000003,0.005069,0.001342
733,-2.400208,-1.54803,0.285668,-0.015373,0.999741,0.01679,0.010276,0.015375999999999999,0.000488,-0.000389,0.005203,-0.001241
734,-2.393524,-1.548234,0.292022,-0.015347999999999999,0.9997450000000001,0.016538999999999998,0.010281,0.016442,0.000487,-0.0006129999999999999,0.00822,-0.001158
735,-2.382545,-1.548371,0.302653,-0.015432,0.999749,0.016268,0.008152,0.017515,0.000471,-0.002909,0.002876,-0.001207
736,-2.377792,-1.548513,0.30703,-0.015412,0.9997520000000001,0.016093,0.007076000000000001,0.018571,0.0036659999999999996,-0.001052,0.0037579999999999996,-0.000849
737,-2.373756,-1.5486010000000001,0.310654,-0.015416999999999998,0.9997540000000001,0.015968,0.006023,0.021771000000000002,0.003655,-0.002863,0.005129,-0.000953
738,-2.3674619999999997,-1.5487600000000001,0.31650300000000003,-0.015405,0.999757,0.015756,0.008162,0.022829,0.003668,-0.000953,0.003981,-0.00216
739,-2.365829,-1.5489879999999998,0.31769200000000003,-0.015271000000000002,0.999762,0.015568,0.006051,0.021781000000000002,0.005772,0.001477,0.0063869999999999994,-0.001041
740,-2.364204,-1.549226,0.318893,-0.015128999999999998,0.999767,0.015373,0.01138,0.019636,0.004744,0.0008470000000000001,0.0038179999999999998,0.0013039999999999998
741,-2.364652,-1.549461,0.318038,-0.014957,0.9997719999999999,0.015212999999999999,0.010323,0.019649,0.002601,0.00246,0.004225,0.00203
742,-2.368318,-1.549771,0.31401599999999996,-0.014681999999999999,0.9997790000000001,0.015043,0.009237,0.016453,0.0036659999999999996,0.004673,0.004386999999999999,0.001116
743,-2.370703,-1.549979,0.311374,-0.014503,0.999783,0.01493,0.009212,0.011126,0.003674,0.005485,0.0061070000000000004,0.002862
744,-2.383875,-1.5503049999999998,0.298032,-0.014084000000000001,0.99979,0.014886000000000002,0.015575,0.005765,0.0069310000000000005,0.005843999999999999,0.002957,0.004828
745,-2.395219,-1.550677,0.286704,-0.013661000000000001,0.999798,0.014771000000000001,0.012329999999999999,-0.004872,0.005854,0.007893,0.00536,0.003097
746,-2.396811,-1.551024,0.285273,-0.013401,0.9998049999999999,0.014536000000000002,0.015502000000000002,-0.010214,0.006952,0.005665,0.005368,0.0021420000000000002
747,-2.403481,-1.551374,0.278856,-0.013068999999999999,0.999811,0.014367,0.020853999999999998,-0.014493,0.005915999999999999,0.0037,0.0020350000000000004,0.004843999999999999
748,-2.408408,-1.551801,0.27434899999999995,-0.012713,0.99982,0.014115,0.028273000000000003,-0.025172,0.005983,0.006564,0.002927,0.005645000000000001
749,-2.40961,-1.552518,0.273843,-0.012217,0.999833,0.013597999999999999,0.027168,-0.036873,0.002787,0.00886,0.004867,0.000868
750,-2.4113919999999998,-1.55313,0.272807,-0.011783,0.9998440000000001,0.013162,0.023967,-0.036862,0.0027660000000000002,0.009205,0.006548999999999999,0.0034549999999999997
751,-2.423173,-1.5535459999999999,0.261675,-0.011352,0.999851,0.012985,0.013331,-0.030429,0.001616,0.008636,0.003551,0.00496
752,-2.438904,-1.5535940000000001,0.24654600000000002,-0.011116,0.9998520000000001,0.013125,0.001609,-0.029314,-0.000603,0.004417,0.00025499999999999996,0.006436
753,-2.4478020000000003,-1.553507,0.238242,-0.011056,0.999851,0.013291999999999998,-0.006926000000000001,-0.029283999999999998,-0.000662,0.0005269999999999999,0.00253,-2e-06
754,-2.4456849999999997,-1.5532979999999998,0.240977,-0.011219,0.9998469999999999,0.013431,-0.007969,-0.031381,-0.008144,-0.001385,0.006959,-0.0016359999999999999
755,-2.435746,-1.553105,0.251492,-0.011474,0.9998440000000001,0.013462,-0.000462,-0.026068,-0.011304,-0.003235,0.006489,-0.001743
756,-2.416012,-1.5530030000000001,0.271701,-0.011805,0.999842,0.013309,0.003865,-0.020778,-0.012351,-0.00176,0.0062770000000000005,-0.002582
757,-2.396009,-1.5529700000000002,0.292008,-0.012094,0.999841,0.013097999999999999,0.006032,-0.011206,-0.010212,-0.00054,0.00698,-0.003363
758,-2.382182,-1.552944,0.30599,-0.01229,0.999841,0.012946000000000001,0.007123,-0.004822,-0.009144,0.000312,0.005408,-0.0016239999999999998
759,-2.36274,-1.553044,0.325462,-0.012472,0.999842,0.012636,0.009267000000000001,0.000484,-0.0059310000000000005,-0.00048300000000000003,0.006626999999999999,-0.0039689999999999994
760,-2.347116,-1.553145,0.341092,-0.012595,0.9998440000000001,0.012368,0.012449,-0.000605,-0.002703,0.000479,0.004520000000000001,-0.004403
761,-2.327528,-1.553398,0.360702,-0.012648999999999999,0.999849,0.011944,0.009259,-0.000585,-0.004862,0.000534,0.004225,-0.005215
762,-2.312932,-1.553517,0.375295,-0.012736,0.999851,0.011679,0.005000999999999999,0.00156,-0.004894,-0.001638,0.0024530000000000003,-0.005163
763,-2.2951479999999997,-1.553572,0.393012,-0.012898,0.9998520000000001,0.011412,0.001838,0.0036630000000000005,-0.00705,-0.0011099999999999999,0.0032310000000000004,-0.0043159999999999995
764,-2.285022,-1.5534649999999999,0.403008,-0.013094,0.99985,0.011351,-0.0024100000000000002,0.007939,-0.007084999999999999,-0.002775,0.002637,-0.0036450000000000002
765,-2.27293,-1.553234,0.41485500000000003,-0.013406999999999999,0.9998459999999999,0.011342,-0.005577,0.015406999999999999,-0.007117,-0.0039570000000000004,0.004305,-0.0019579999999999997
766,-2.260237,-1.553024,0.427162,-0.013711000000000001,0.999842,0.011303,-0.005543,0.022864,-0.007127,-0.0043549999999999995,0.005254,-0.002514
767,-2.253362,-1.552846,0.433542,-0.013927000000000002,0.9998389999999999,0.011321,-0.003394,0.026052999999999996,-0.007117,-0.0033,0.005608,-0.002151
768,-2.24574,-1.552654,0.44059,-0.014165,0.999835,0.011337,-0.0012460000000000001,0.030302,-0.006039,-0.00445,0.0032770000000000004,-0.001266
769,-2.22891,-1.55263,0.45680600000000005,-0.014369999999999999,0.999835,0.011109,-0.0033840000000000003,0.030306,-0.004986,-0.00066,0.0032170000000000002,-0.004136
770,-2.224375,-1.552576,0.46073800000000004,-0.014465,0.999834,0.011079,-0.002326,0.030293,-0.0028420000000000003,-0.001449,0.003386,-0.0035409999999999994
771,-2.22391,-1.552545,0.460649,-0.014497,0.999833,0.011092,-0.004468,0.027027,-0.002841,0.002199,0.001525,-0.003127
772,-2.224999,-1.55267,0.459035,-0.014386000000000001,0.9998360000000001,0.011032,-0.007663,0.025981999999999998,-0.004998,0.003766,0.001843,-0.002152
773,-2.226388,-1.552556,0.457168,-0.014458000000000002,0.999834,0.011119,-0.0066099999999999996,0.021721,-0.006053,0.002251,0.004927,-0.002726
774,-2.224215,-1.552473,0.45898500000000003,-0.014547999999999998,0.9998319999999999,0.011138,-0.009844,0.014275999999999999,-0.006065999999999999,0.001059,0.004974,-0.004882
775,-2.2274689999999997,-1.55241,0.45552299999999996,-0.014561000000000001,0.9998309999999999,0.011223,-0.010944,0.008945,-0.0039299999999999995,-0.000454,0.0035409999999999994,-0.003334
776,-2.228734,-1.552302,0.454099,-0.014633000000000002,0.9998290000000001,0.011308,-0.010948000000000001,0.00788,-0.003929,-0.00026000000000000003,0.003177,-0.003602
