,attitude.roll,attitude.pitch,attitude.yaw,gravity.x,gravity.y,gravity.z,rotationRate.x,rotationRate.y,rotationRate.z,userAcceleration.x,userAcceleration.y,userAcceleration.z
0,2.417755,-1.3285559999999998,-2.265935,0.158797,0.9708030000000001,0.17965899999999999,-2.521055,0.674892,-0.213354,-0.007049,0.049979,0.10281099999999999
1,2.556516,-1.293615,-2.1331849999999997,0.151074,0.961831,0.228054,-2.338811,0.254038,-0.353615,-0.024457,0.134941,-0.123852
2,2.655479,-1.2605899999999999,-2.025379,0.142574,0.9522709999999999,0.269818,-2.107291,-0.427708,-0.5615640000000001,0.077199,0.176361,-0.087049
3,2.7237880000000003,-1.2326290000000002,-1.9378419999999998,0.134581,0.943364,0.303149,-1.7664009999999999,-0.8929,-0.673955,0.071657,0.211085,-0.216205
4,2.774947,-1.205811,-1.865204,0.127929,0.9341290000000001,0.33314099999999996,-1.673411,-0.784849,-0.602941,0.040604,0.113692,-0.093685
5,2.81324,-1.183643,-1.810025,0.12173199999999999,0.9259879999999999,0.35731399999999996,-1.231949,-0.54903,-0.551021,0.022907,0.07549199999999999,-0.065108
6,2.845812,-1.168068,-1.766847,0.114221,0.9199950000000001,0.374842,-0.862654,-0.285036,-0.556258,0.013296,0.049091,-0.113657
7,2.87626,-1.1595540000000002,-1.729659,0.104808,0.916625,0.385691,-0.45956400000000003,-0.142424,-0.605967,0.023168,0.002549,-0.098551
8,2.9030419999999997,-1.158461,-1.697324,0.094679,0.9161870000000001,0.389334,-0.070184,-0.168209,-0.622442,0.037462999999999996,-0.060520000000000004,-0.09519
9,2.924558,-1.163405,-1.6695970000000002,0.08530399999999999,0.918158,0.386852,0.213233,-0.199237,-0.568079,0.03611,-0.146429,-0.100719
10,2.940884,-1.171944,-1.647187,0.07741100000000001,0.921507,0.38049499999999997,0.38349,-0.218263,-0.486749,0.010831,-0.21198899999999998,-0.122347
11,2.9539150000000003,-1.182685,-1.629709,0.070595,0.9256260000000001,0.371726,0.505174,-0.118898,-0.3995,0.02436,-0.21889899999999998,-0.124
12,2.964531,-1.194613,-1.6171389999999999,0.064696,0.9300729999999999,0.361559,0.552131,-0.016132,-0.29889099999999996,0.038758999999999995,-0.211049,-0.140154
13,2.9717860000000003,-1.206307,-1.6101889999999999,0.060228,0.934306,0.351271,0.561569,0.06857,-0.17715699999999998,0.062788,-0.20576,-0.131804
14,2.973447,-1.218799,-1.610104,0.057687,0.938686,0.339835,0.659313,0.080597,-0.072872,0.096198,-0.175014,-0.08895
15,2.9695270000000002,-1.233291,-1.615748,0.056683000000000004,0.943584,0.326166,0.758105,0.049102,-0.008048,0.09398300000000001,-0.154201,-0.072992
16,2.960099,-1.248345,-1.6254709999999999,0.057184000000000006,0.9484610000000001,0.311609,0.762782,-0.044869,0.044448,0.050085000000000005,-0.07102,-0.041589
17,2.9478779999999998,-1.262222,-1.636291,0.058448,0.9527680000000001,0.29793800000000004,0.673979,-0.132849,0.011894,0.010781,0.086997,0.004888
18,2.938454,-1.273757,-1.6413419999999999,0.05903099999999999,0.9562069999999999,0.286587,0.515738,-0.289632,-0.07019600000000001,-0.042292,0.24726900000000002,0.078784
19,2.9368060000000002,-1.282278,-1.635626,0.057844000000000007,0.958667,0.2785,0.32297600000000004,-0.37247399999999997,-0.231669,-0.05438,0.294995,0.132663
20,2.946774,-1.286383,-1.61685,0.054303,0.9598260000000001,0.275198,0.032943,-0.43816700000000003,-0.335092,-0.020611,0.23438699999999998,0.159342
21,2.957912,-1.284582,-1.5935620000000001,0.05155,0.959319,0.277486,-0.25535599999999997,-0.6537149999999999,-0.260986,0.0067079999999999996,0.100602,0.12026500000000001
22,2.9552,-1.276437,-1.578387,0.053749,0.956988,0.285015,-0.5521689999999999,-0.978389,-0.062885,0.08889,0.017133000000000002,0.073978
23,2.9430669999999997,-1.262901,-1.569736,0.059753,0.952973,0.29701900000000003,-0.7405689999999999,-1.021796,0.033062,0.258301,-0.11699000000000001,0.07660800000000001
24,2.925864,-1.248732,-1.566231,0.06773799999999999,0.948584,0.309109,-0.653561,-1.026767,0.135158,0.26411,-0.157202,0.051746
25,2.9013,-1.23629,-1.570168,0.078113,0.944572,0.318793,-0.574194,-1.0573299999999999,0.250051,0.23412800000000003,-0.15540299999999999,-0.06667200000000001
26,2.8706970000000003,-1.2234639999999999,-1.580375,0.091066,0.940284,0.327903,-0.582069,-1.0290190000000001,0.369601,0.074324,-0.148551,-0.145286
27,2.837789,-1.211867,-1.596019,0.10506099999999999,0.9362729999999999,0.335113,-0.351018,-0.817083,0.44892299999999996,0.056438,-0.09938999999999999,-0.084244
28,2.801301,-1.207789,-1.620357,0.11849000000000001,0.934833,0.33465500000000004,0.10838900000000001,-0.640915,0.48395299999999997,0.127406,-0.053988999999999995,-0.174789
29,2.756602,-1.20986,-1.654609,0.132598,0.935567,0.327231,0.41951499999999997,-0.651906,0.565189,0.174424,-0.055058,-0.191474
30,2.698868,-1.215287,-1.6999520000000001,0.149081,0.937469,0.314442,0.650917,-0.834134,0.647155,0.25640599999999997,-0.078293,-0.1852
31,2.627967,-1.2232690000000002,-1.7538209999999999,0.167301,0.940218,0.296565,0.8631340000000001,-1.1255600000000001,0.6148279999999999,0.22694099999999998,-0.050401,-0.16955
32,2.547591,-1.234251,-1.8132279999999998,0.184781,0.943901,0.2736,1.058202,-1.260078,0.519155,0.163669,-0.055930999999999995,-0.129115
33,2.462191,-1.247843,-1.8761849999999998,0.199363,0.9483020000000001,0.246837,1.2039520000000001,-1.299258,0.334352,0.129433,-0.046995999999999996,-0.11051500000000002
34,2.37951,-1.265819,-1.940704,0.207262,0.9538540000000001,0.21715900000000002,1.412968,-0.89297,0.049007999999999996,0.093672,0.023899,-0.017117
35,2.3006729999999997,-1.287455,-2.01042,0.208286,0.9601270000000001,0.186353,1.4934370000000001,-0.493065,-0.127199,0.098125,0.05649,0.088183
36,2.2137860000000003,-1.3054620000000001,-2.086383,0.209796,0.9650049999999999,0.15718,1.260905,-0.8230290000000001,0.006196,0.133267,0.056555999999999995,0.20153900000000002
37,2.129803,-1.317259,-2.157621,0.21257399999999999,0.968031,0.13297899999999999,0.970418,-0.621861,0.033819,0.176373,0.179918,0.311571
38,2.073691,-1.322792,-2.206632,0.21499899999999997,0.969404,0.11826400000000001,0.47321,-0.346538,0.078063,0.024396,0.129228,0.279884
39,2.035186,-1.326665,-2.246834,0.216033,0.970348,0.10821700000000001,0.694325,0.37409000000000003,0.027410000000000004,-0.048248,0.083378,0.329497
40,1.973815,-1.336084,-2.331071,0.21384499999999998,0.9725809999999999,0.091174,1.2771139999999999,1.339504,-0.013553999999999998,0.10800799999999999,0.022963,0.22274499999999997
41,1.916465,-1.343204,-2.4223779999999997,0.212198,0.9742129999999999,0.076418,0.8799030000000001,1.613159,0.094416,0.379232,-0.038086,-0.102297
42,1.891377,-1.343969,-2.475749,0.21334099999999998,0.9743850000000001,0.070836,0.488785,1.118678,0.21516300000000002,0.341652,0.00201,-0.195943
43,1.858954,-1.341416,-2.521421,0.21791100000000002,0.973807,0.06459,0.42592700000000006,0.270609,0.296996,-0.035309,0.024621,0.019714
44,1.8247689999999999,-1.338588,-2.556484,0.22265700000000002,0.973161,0.057797,0.322257,-0.089825,0.213412,-0.35438600000000003,0.051269,0.277881
45,1.7915159999999999,-1.335824,-2.588835,0.22708000000000003,0.9725209999999999,0.050950999999999996,0.326865,-0.022695,0.20481300000000002,-0.380904,0.057492999999999995,0.264524
46,1.7703470000000001,-1.333928,-2.6154509999999997,0.22991599999999998,0.9720780000000001,0.046499,0.261887,0.404988,0.134376,-0.20013,0.002074,0.035227
47,1.754737,-1.334668,-2.642902,0.229908,0.972251,0.042773,0.389382,0.565126,-0.062559,-0.06804199999999999,-0.010718,-0.053362
48,1.7223970000000002,-1.339138,-2.683262,0.22687,0.9732870000000001,0.034658999999999995,0.5514760000000001,0.212354,-0.161388,-0.005541,-0.038091,-0.051536
49,1.676447,-1.34349,-2.733612,0.224009,0.9742770000000001,0.023755000000000002,0.623606,0.157619,-0.122358,0.11823099999999999,-0.049395999999999995,-0.035947
50,1.61992,-1.3458809999999999,-2.793796,0.222664,0.9748129999999999,0.010947,0.720765,0.022706999999999998,-0.034981,0.050682,-0.029301999999999998,-0.125494
51,1.546441,-1.346455,-2.8648439999999997,0.222309,0.974941,-0.005416,0.83315,-0.343188,-0.005953,-0.003208,-0.034267,-0.115953
52,1.466365,-1.344698,-2.9391599999999998,0.222869,0.974549,-0.023359,0.790082,-0.362487,0.062137,-0.00569,-0.065598,-0.008013
53,1.415712,-1.340871,-2.988037,0.225086,0.973683,-0.03519,0.41801800000000006,0.029394999999999998,0.15304,-0.060947,-0.080144,0.158038
54,1.409381,-1.336653,-3.003613,0.228913,0.9727129999999999,-0.037274,0.131439,0.616216,0.17165,-0.048539,-0.015896,0.305142
55,1.409042,-1.332242,-3.01355,0.233134,0.9716809999999999,-0.038043,0.17038399999999998,0.312269,0.22358699999999998,-0.039897,-0.007248999999999999,0.220721
56,1.407733,-1.326459,-3.017111,0.238625,0.970298,-0.03926,0.010729,-0.007044,0.294451,-0.10565999999999999,0.07087,-0.070253
57,1.418727,-1.322785,-3.001826,0.24256599999999998,0.9694020000000001,-0.037174,-0.247941,-0.27501,0.131686,-0.197995,0.135212,-0.212902
58,1.434798,-1.3239020000000001,-2.979327,0.24205700000000002,0.969676,-0.033124,-0.256469,-0.270839,-0.104456,-0.283499,0.115178,-0.06804199999999999
59,1.4376149999999999,-1.328983,-2.971936,0.23726,0.9709049999999999,-0.031787,-0.028901999999999997,-0.168527,-0.311305,-0.26529,0.091976,0.095263
60,1.427152,-1.336079,-2.980542,0.23008699999999999,0.9725799999999999,-0.033280000000000004,0.049497,-0.114227,-0.371715,-0.221527,0.066665,0.026993
61,1.418852,-1.342291,-2.98579,0.223825,0.9740059999999999,-0.034273000000000005,0.023269,-0.171986,-0.29064,-0.174814,0.044915,0.0022600000000000003
62,1.404734,-1.34744,-2.998144,0.21836799999999998,0.975159,-0.0366,0.136831,-0.046761000000000004,-0.26971100000000003,-0.175628,0.066695,0.032312
63,1.382571,-1.3527360000000002,-3.02122,0.21242600000000003,0.976319,-0.040463,0.246087,0.027517000000000003,-0.291475,-0.162682,0.051588999999999996,0.038342
64,1.3492629999999999,-1.357903,-3.054494,0.20603600000000002,0.977424,-0.046405,0.331942,-0.08575,-0.27898,-0.140087,0.013330000000000002,0.016375999999999998
65,1.306075,-1.3618940000000002,-3.096057,0.200072,0.978259,-0.054236,0.390289,-0.14036099999999999,-0.259275,-0.109023,-0.002322,-0.030374
66,1.259634,-1.365959,-3.139511,0.193551,0.979094,-0.062248000000000005,0.35581399999999996,-0.243457,-0.288225,-0.062112,0.062196,-0.10045599999999999
67,1.219159,-1.371225,3.108244,0.186031,0.980152,-0.068252,0.19572699999999998,-0.289633,-0.323467,-0.077068,0.014766999999999999,-0.061173000000000005
68,1.195875,-1.376617,3.089744,0.17946800000000002,0.9812059999999999,-0.070627,0.011881000000000001,-0.2702,-0.22863699999999998,0.00321,-0.015798,0.040918
69,1.188397,-1.381233,3.089033,0.17473,0.982087,-0.070276,-0.132883,-0.361599,-0.156892,0.185469,-0.05011,0.047372000000000004
70,1.1935149999999999,-1.3849049999999998,3.1014459999999997,0.17173,0.982772,-0.06805,-0.17772000000000002,-0.329638,-0.11879,0.18177000000000001,-0.055282000000000005,0.029049000000000002
71,1.192934,-1.3879540000000001,3.106074,0.168904,0.983331,-0.067044,-0.035195,-0.20967800000000003,-0.138244,0.07685399999999999,-0.02015,0.0008060000000000001
72,1.1806590000000001,-1.390732,3.096337,0.16553900000000002,0.9838319999999999,-0.06807200000000001,0.045529,-0.08306799999999999,-0.168821,-0.014461000000000002,0.016488,0.0012230000000000001
73,1.178742,-1.392802,3.094646,0.163523,0.984201,-0.06761,-0.061017999999999996,0.001248,-0.11626199999999999,-0.07256599999999999,0.015555000000000001,0.028425
74,1.188568,-1.395397,3.1057330000000003,0.161807,0.984657,-0.065046,-0.17696800000000001,-0.112525,-0.068856,-0.082964,0.028435000000000002,0.0052770000000000004
75,1.201433,-1.39815,3.123,0.160098,0.9851340000000001,-0.061979,-0.183886,-0.239222,-0.080493,-0.07786900000000001,0.044697,-0.016741
76,1.21088,-1.401217,3.137671,0.157848,0.985656,-0.059399,-0.17640899999999998,-0.261521,-0.10498099999999999,-0.082851,0.036805000000000004,-0.036243
77,1.22843,-1.404659,-3.120781,0.155667,0.986231,-0.055479999999999995,-0.311672,-0.40078800000000003,-0.05874600000000001,-0.075726,0.025595,-0.068345
78,1.249889,-1.408296,-3.091587,0.153412,0.986826,-0.050994,-0.229977,-0.305035,-0.09888999999999999,-0.028962,0.026816000000000003,0.008513
79,1.2556100000000001,-1.4117600000000001,-3.0793470000000003,0.150447,0.9873799999999999,-0.049054,-0.153422,-0.361767,-0.097214,-0.002879,-0.01126,0.013455000000000002
80,1.260457,-1.415276,-3.065055,0.147372,0.987931,-0.047263,-0.20644099999999999,-0.49805299999999997,-0.06856799999999999,0.02081,-0.001084,-0.044289999999999996
81,1.27094,-1.417807,-3.044108,0.145466,0.9883200000000001,-0.044975,-0.21511,-0.499204,-0.039785,0.020763,0.009056,-0.04615
82,1.285771,-1.419715,-3.019075,0.144305,0.988609,-0.042282,-0.224846,-0.502473,-0.013143,0.013959000000000001,0.009819,-0.050324
83,1.302707,-1.421033,-2.990834,0.143742,0.988806,-0.039486,-0.20715100000000003,-0.584625,0.003109,-0.030338999999999998,-0.003684,-0.061205999999999997
84,1.313221,-1.421861,-2.967002,0.14335599999999998,0.98893,-0.037764,-0.18946,-0.689063,-0.001975,-0.048447000000000004,-0.018028,-0.06361499999999999
85,1.31821,-1.422631,-2.946746,0.142805,0.989044,-0.036858,-0.16529100000000002,-0.780723,-0.011303,-0.044476999999999996,-0.0070030000000000005,-0.051247
86,1.3189540000000002,-1.4238,-2.929884,0.141709,0.989216,-0.036462,-0.146016,-0.787093,-0.033593,-0.013428,0.002148,-0.020834000000000002
87,1.314155,-1.425302,-2.919548,0.140094,0.989434,-0.036765,-0.119047,-0.715834,-0.028154000000000002,0.050122,0.003409,0.038336
88,1.314433,-1.4264629999999998,-2.905423,0.138994,0.9896020000000001,-0.036435,-0.14666600000000002,-0.666825,-0.0059770000000000005,0.063459,-0.0015949999999999998,0.07194199999999999
89,1.323346,-1.427378,-2.883443,0.138434,0.989733,-0.034972,-0.18170899999999998,-0.617751,0.006534000000000001,0.058602,0.001295,0.084319
90,1.334945,-1.428158,-2.860735,0.13808099999999998,0.9898440000000001,-0.033184,-0.165097,-0.48145699999999997,0.007543000000000001,0.049984,-0.003394,0.10695999999999999
91,1.3481,-1.428332,-2.839959,0.138337,0.989869,-0.031327,-0.116326,-0.30906500000000003,0.010868000000000001,0.049178,-0.023484,0.10082999999999999
92,1.354877,-1.428088,-2.828843,0.138782,0.989834,-0.03044,-0.039961,-0.16023900000000002,0.022961000000000002,0.054013,-0.01521,0.095214
93,1.359003,-1.4272719999999999,-2.823244,0.139698,0.989718,-0.030038,0.019296999999999998,-0.033669,0.021075999999999998,0.056652,0.007703,0.104485
94,1.361011,-1.4264059999999998,-2.821724,0.140598,0.9895940000000001,-0.029936,0.073148,0.052537,-0.005364,0.029629000000000003,0.024704,0.10388
95,1.3485969999999998,-1.426022,-2.837523,0.14058800000000002,0.989539,-0.031763,0.17108099999999998,0.225896,-0.019857,0.031684,0.012459999999999999,0.10369300000000001
96,1.3326280000000001,-1.425206,-2.859658,0.140848,0.9894200000000001,-0.034194999999999996,0.203432,0.302483,-0.019729,0.030447000000000002,0.002614,0.046066
97,1.321134,-1.423757,-2.8767650000000002,0.14183900000000002,0.989209,-0.036166000000000004,0.191222,0.23738099999999998,0.020861,0.0223,-0.013088999999999998,0.008045
98,1.307059,-1.421838,-2.895582,0.14315,0.988926,-0.038655,0.161081,0.221331,0.064469,0.013678999999999998,-0.0042,0.026539
99,1.304044,-1.4193639999999998,-2.903796,0.145396,0.988556,-0.039731999999999996,0.137682,0.262856,0.089889,-0.025889,0.00824,0.029844
100,1.298885,-1.416672,-2.913965,0.147754,0.9881459999999999,-0.041195999999999997,0.1118,0.21177100000000001,0.10045599999999999,-0.056675,0.005567,-0.030626999999999998
101,1.294368,-1.414118,-2.921295,0.149998,0.987751,-0.042553,0.074932,0.08511,0.105702,-0.06541799999999999,0.005474000000000001,-0.053776
102,1.294117,-1.411724,-2.922693,0.15226199999999998,0.987375,-0.043237,0.039586,0.05327899999999999,0.10442799999999999,-0.075891,0.026175,-0.050941
103,1.299649,-1.410503,-2.917993,0.153661,0.987181,-0.042717000000000005,-0.03717,0.028133999999999996,0.065468,-0.068898,0.057329,-0.015312000000000001
104,1.306283,-1.4102290000000002,-2.9119330000000003,0.154204,0.987137,-0.041768,-0.021922999999999998,0.049579000000000005,0.017477,-0.060622,0.06501799999999999,-0.00883
105,1.300218,-1.410815,-2.919043,0.153391,0.9872299999999999,-0.042548,0.040050999999999996,0.039899000000000004,-0.013056,-0.027766000000000002,0.044462,-0.017648
106,1.296737,-1.4111879999999999,-2.922806,0.15288800000000002,0.98729,-0.042982,0.001361,0.00583,0.015559,-0.021754,-0.021546,-0.05450700000000001
107,1.2939610000000001,-1.410833,-2.925974,0.153107,0.987233,-0.043502,0.039773,0.031163999999999997,0.040364,0.009964,-0.06467200000000001,-0.038437
108,1.289606,-1.410258,-2.93178,0.15345999999999999,0.9871409999999999,-0.044326,0.050753,0.092942,0.032884,0.042112000000000004,-0.047093,-0.023515
109,1.286235,-1.409904,-2.937359,0.153643,0.987085,-0.044941,0.04668,0.11115799999999999,0.008268000000000001,0.028074,0.002677,-0.01376
110,1.278737,-1.409923,-2.947868,0.153283,0.987088,-0.046086,0.05247,0.185814,-0.018493,0.035118,0.030338,0.028720999999999997
111,1.282412,-1.410169,-2.949047,0.15321700000000002,0.9871270000000001,-0.045452,-0.046504000000000004,0.246856,-0.012853,0.040508999999999996,0.025477,0.02377
112,1.3056590000000001,-1.410483,-2.9294130000000003,0.15393099999999998,0.9871770000000001,-0.041797,-0.21567199999999997,0.166272,0.039479,0.049224000000000004,0.0076040000000000005,0.021503
113,1.339178,-1.409759,-2.8983060000000003,0.155941,0.9870610000000001,-0.036779,-0.242775,0.13309,0.102358,0.042805,-0.001191,0.062246
114,1.373248,-1.408131,-2.866692,0.15867799999999999,0.986799,-0.031761000000000005,-0.21186999999999998,0.163721,0.14099,0.030973,0.0058920000000000005,0.055519000000000006
115,1.400555,-1.405997,-2.844363,0.161563,0.986451,-0.027773000000000003,-0.11816099999999999,0.329706,0.109385,0.031751,0.018065,0.037142
116,1.416922,-1.404354,-2.836329,0.163599,0.98618,-0.025374,-0.016018,0.46161899999999995,0.066133,0.028295999999999998,0.0010630000000000001,0.003936
117,1.4285709999999998,-1.403053,-2.833908,0.165154,0.985964,-0.023649,-2.5e-05,0.444579,0.051311,0.013572999999999998,-0.006167,-0.043214999999999996
118,1.441066,-1.4017870000000001,-2.829389,0.166674,0.9857520000000001,-0.021745,-0.036643,0.383922,0.067156,0.007795000000000001,-0.013599000000000002,-0.050933
119,1.458879,-1.400212,-2.819198,0.168578,0.9854860000000001,-0.018946,-0.069725,0.39145599999999997,0.07653,0.033097,-0.020169,-0.00498
120,1.4789430000000001,-1.3986100000000001,-2.807457,0.170496,0.9852129999999999,-0.015705,-0.101501,0.45118800000000003,0.08477699999999999,0.044347000000000004,-0.012999,0.013462
121,1.502788,-1.39695,-2.793744,0.172455,0.984927,-0.011746,-0.135171,0.566314,0.095077,0.056,-0.004031,0.001233
122,1.533232,-1.394993,-2.7758700000000003,0.17465999999999998,0.9845860000000001,-0.006564,-0.18592,0.688917,0.11486099999999999,0.065162,-0.010465,-0.021283
123,1.572901,-1.392307,-2.750655,0.177428,0.9841129999999999,0.000373,-0.25395,0.7753180000000001,0.145254,0.072175,-0.018430000000000002,-0.046607
124,1.6216979999999999,-1.388284,-2.718014,0.181153,0.983391,0.009229000000000001,-0.3242,0.8733219999999999,0.206594,0.080367,-0.035393,-0.05549400000000001
125,1.676666,-1.382486,-2.680735,0.186042,0.9823219999999999,0.01977,-0.39469899999999997,0.921236,0.273338,0.08986799999999999,-0.033469,-0.059503999999999994
126,1.7307139999999999,-1.374874,-2.6435,0.192082,0.9808680000000001,0.030982,-0.410292,0.8443120000000001,0.342763,0.09891799999999999,-0.030185000000000003,-0.051825
127,1.775825,-1.365842,-2.613203,0.19916,0.9790700000000001,0.041415,-0.38223,0.731085,0.395446,0.080152,-0.01917,-0.034091
128,1.812675,-1.356227,-2.588864,0.206632,0.977068,0.050977999999999996,-0.355,0.62868,0.40645,0.041796,-0.006548,-0.031904
129,1.8437419999999998,-1.346816,-2.570379,0.213799,0.9750209999999999,0.059849,-0.300292,0.673316,0.385411,0.017692,0.0034939999999999997,-0.022603
130,1.869947,-1.338283,-2.558379,0.220102,0.97309,0.067881,-0.23139,0.773366,0.347308,0.006689,0.000283,-0.021494
131,1.893466,-1.330734,-2.55228,0.225408,0.9713229999999999,0.075366,-0.16542,0.950058,0.326178,0.006831,0.001592,-0.007343000000000001
132,1.9163720000000002,-1.323884,-2.550712,0.22988000000000003,0.969672,0.082762,-0.125054,1.132144,0.310203,0.015756,0.007745,-0.0057810000000000005
133,1.9403099999999998,-1.317138,-2.55076,0.233927,0.968001,0.090601,-0.128948,1.229042,0.323938,0.018621000000000002,-0.005568,0.0031190000000000002
134,1.965498,-1.3097290000000001,-2.5501,0.238188,0.966115,0.09922,-0.16220299999999999,1.215203,0.350429,0.007525,-0.005086,0.0035479999999999995
135,1.9918209999999998,-1.301865,-2.5472770000000002,0.242421,0.9640549999999999,0.10855699999999999,-0.214723,1.1568129999999999,0.34586500000000003,-0.021611000000000002,-0.007634999999999999,0.011498999999999999
136,2.020332,-1.293603,-2.5412,0.24639499999999998,0.9618270000000001,0.11888199999999999,-0.26809499999999997,1.1272659999999999,0.322029,-0.101498,0.015361000000000001,0.030151
137,2.05343,-1.285695,-2.530234,0.249058,0.959633,0.130497,-0.34465,1.1267040000000001,0.26274200000000003,-0.118336,0.017189,0.025555
138,2.095254,-1.2781049999999998,-2.511635,0.249683,0.957471,0.14444,-0.45449700000000004,1.275555,0.163508,-0.111026,0.020648,0.031738
139,2.14902,-1.270473,-2.485168,0.247673,0.955241,0.161639,-0.566371,1.4828629999999998,0.099436,-0.08155,0.016653,0.025098
140,2.209473,-1.2625,-2.454122,0.243562,0.952852,0.180842,-0.638333,1.5526010000000001,0.037955,-0.07152,0.023038999999999997,0.006139
141,2.274009,-1.253922,-2.417584,0.237619,0.9502139999999999,0.201452,-0.757918,1.445773,-0.049269,-0.07598300000000001,0.034985,-0.002951
142,2.3435349999999997,-1.243841,-2.373952,0.229898,0.947024,0.224149,-0.9019780000000001,1.366671,-0.122813,-0.06286,0.08102100000000001,0.037142
143,2.415837,-1.231903,-2.324143,0.220594,0.9431229999999999,0.248612,-1.031413,1.207665,-0.206835,-0.056042999999999996,0.103203,0.026657
144,2.486822,-1.218018,-2.273414,0.21036100000000002,0.938416,0.273993,-1.117237,1.101441,-0.208366,-0.012241,0.119567,0.040368
145,2.5479849999999997,-1.202808,-2.226082,0.201182,0.933053,0.298139,-1.117565,0.736273,-0.263448,-0.016641999999999997,0.078025,0.031802
146,2.60279,-1.186152,-2.182744,0.192498,0.926932,0.322009,-1.124488,0.69233,-0.190801,-0.029733,0.003961,0.075436
147,2.6450810000000002,-1.16869,-2.149886,0.186396,0.9202389999999999,0.344042,-1.02755,0.548734,-0.062822,-0.047937,-0.057139999999999996,0.061642999999999996
148,2.672063,-1.152959,-2.129877,0.183574,0.913969,0.36181199999999997,-0.7643340000000001,0.343943,0.039692000000000005,-0.055095000000000005,-0.094221,0.018772999999999998
149,2.687051,-1.14168,-2.121049,0.182646,0.909334,0.373762,-0.47860699999999995,0.376726,0.118558,-0.07131799999999999,-0.15471,0.039477
150,2.694331,-1.135418,-2.122116,0.18237899999999999,0.90671,0.380209,-0.146818,0.432856,0.179556,-0.071707,-0.18674000000000002,0.027125
151,2.694657,-1.134725,-2.1320740000000002,0.182526,0.9064180000000001,0.380833,0.185068,0.48695,0.217056,-0.075761,-0.179795,0.036174
152,2.68799,-1.1394959999999998,-2.1502529999999997,0.18316400000000002,0.908423,0.375715,0.49531899999999995,0.48037700000000005,0.259824,-0.071698,-0.182288,0.033861
153,2.672184,-1.148785,-2.1770810000000003,0.185253,0.912267,0.365231,0.752919,0.39832199999999995,0.309798,-0.058987,-0.20573899999999998,-0.009472
154,2.646582,-1.1611200000000002,-2.212417,0.189181,0.91725,0.350438,0.9421299999999999,0.301555,0.36892800000000003,-0.064486,-0.194273,-0.005803
155,2.6121849999999998,-1.174894,-2.254798,0.194721,0.9226489999999999,0.332787,1.030033,0.171228,0.383596,-0.07646499999999999,-0.07459600000000001,0.089317
156,2.574399,-1.188747,-2.297125,0.200266,0.927903,0.314382,0.98708,0.0045520000000000005,0.277756,-0.080805,0.032516,0.158167
157,2.539036,-1.202178,-2.331112,0.204174,0.932826,0.296809,0.824419,-0.327418,0.053786,-0.083935,0.33510300000000004,0.215383
158,2.515225,-1.213235,-2.346045,0.205123,0.9367530000000001,0.283489,0.461772,-0.551007,-0.194151,-0.10751199999999998,0.46128800000000003,0.300053
159,2.516036,-1.221514,-2.338103,0.200344,0.9396190000000001,0.277358,0.141518,-0.145085,-0.46182700000000004,-0.14716700000000002,0.300555,0.278794
160,2.54455,-1.228993,-2.309275,0.188399,0.942152,0.277136,-0.015191999999999999,0.136519,-0.6844060000000001,-0.127196,0.074633,0.146616
161,2.584657,-1.234953,-2.27058,0.174163,0.944133,0.279694,-0.159055,0.17218,-0.686525,0.084382,-0.135829,0.10028
162,2.622503,-1.237434,-2.231025,0.16229200000000002,0.944947,0.284048,-0.25035,-0.09955399999999999,-0.585333,0.138993,-0.154954,0.10715699999999999
163,2.65294,-1.237845,-2.192263,0.15339,0.945082,0.288513,-0.314833,-0.421125,-0.565075,0.150397,-0.130262,0.101944
164,2.684789,-1.238159,-2.148066,0.143994,0.945184,0.292985,-0.284573,-0.497276,-0.728204,-0.071362,0.051413,0.082839
165,2.726956,-1.242916,-2.093511,0.129702,0.9467270000000001,0.294674,-0.069901,-0.491562,-1.010859,-0.170336,0.095402,0.048801
166,2.7763430000000002,-1.2519790000000002,-2.02978,0.111927,0.949607,0.29269,0.082833,-0.600164,-1.157068,-0.181614,0.023614,-0.00584
167,2.8306400000000003,-1.2624,-1.95865,0.09284400000000001,0.952822,0.288892,0.14893,-0.680013,-1.225938,-0.137506,-0.03142,-0.041638
168,2.8868270000000003,-1.27108,-1.886184,0.07438600000000001,0.95542,0.285634,0.094372,-0.6109899999999999,-1.123858,-0.064407,-0.085837,-0.098027
169,2.943238,-1.27747,-1.815985,0.056959,0.9572870000000001,0.283381,0.07635499999999999,-0.50472,-1.0440040000000002,0.034212,-0.085125,-0.095698
170,2.996858,-1.282974,-1.7493049999999999,0.040929,0.9588639999999999,0.28080700000000003,0.13653800000000002,-0.542626,-0.9409860000000001,0.058588999999999995,-0.089266,-0.017988999999999998
171,3.037866,-1.2885389999999999,-1.693182,0.028829,0.9604290000000001,0.276934,0.19149000000000002,-0.6949,-0.737445,0.008189,-0.08018,0.03993
172,3.066346,-1.29304,-1.648923,0.020606,0.961673,0.273328,0.163172,-0.678343,-0.591317,0.016595,-0.049182,0.022403
173,3.090306,-1.296098,-1.60913,0.013900999999999998,0.962507,0.270803,0.086796,-0.7613949999999999,-0.5351279999999999,0.01976,-0.029264,-0.012426000000000001
174,3.109182,-1.298432,-1.570678,0.008714,0.9631379999999999,0.26877,0.11758900000000001,-1.018286,-0.5217649999999999,0.023116,-0.020419,-0.019853
175,3.125448,-1.301892,-1.528151,0.004287,0.9640629999999999,0.26554,0.182527,-1.389881,-0.6244529999999999,-0.02304,0.01813,-0.016593
176,-3.134404,-1.3070190000000002,-1.4712969999999999,-0.0018739999999999998,0.965412,0.260621,0.311531,-1.604732,-0.81983,-0.122394,0.087261,0.043059
177,-3.093214,-1.314733,-1.399756,-0.012243,0.9673950000000001,0.252874,0.447103,-1.22339,-0.930466,-0.17466199999999998,0.100766,-0.012121
178,-3.041934,-1.3227280000000001,-1.328366,-0.024418000000000002,0.9693879999999999,0.24420799999999998,0.467966,-0.719067,-0.794235,0.091923,-0.11654400000000001,-0.083884
179,-3.0023619999999998,-1.330451,-1.27567,-0.03302,0.9712559999999999,0.235627,0.44593299999999997,-0.543484,-0.46239600000000003,0.185639,-0.17796700000000001,-0.082963
180,-2.98786,-1.338028,-1.246593,-0.035305,0.973032,0.22784200000000002,0.418879,-0.8214959999999999,-0.17915,0.277981,-0.184656,-0.060117
181,-2.9994810000000003,-1.346117,-1.236227,-0.031539,0.974866,0.220435,0.41208,-1.215242,-0.008846,0.220519,-0.091138,0.037149
182,-3.021588,-1.35376,-1.233689,-0.025764999999999996,0.97654,0.213671,0.354518,-1.160886,0.034479,0.096749,0.051597000000000004,0.11059300000000001
183,-3.04218,-1.359317,-1.235295,-0.020821,0.977721,0.20875100000000002,0.221469,-0.832405,0.055562,0.005913,0.093598,0.110707
184,-3.062954,-1.362028,-1.242292,-0.016272,0.9782870000000001,0.206494,0.080218,-0.631869,0.112002,0.094336,-0.032364,0.04375
185,-3.091853,-1.3628200000000001,-1.2596829999999999,-0.01026,0.9784510000000001,0.206105,-0.00016999999999999999,-0.6011529999999999,0.225701,0.142798,-0.05917000000000001,0.010448
186,-3.133167,-1.3616549999999998,-1.287275,-0.001748,0.978209,0.20749299999999998,-0.08341599999999999,-0.7917609999999999,0.278775,0.233483,-0.026366000000000004,-0.006184
187,3.1093889999999997,-1.359067,-1.3121399999999999,0.006763,0.977669,0.209923,-0.136601,-0.782946,0.251687,0.21027800000000002,-0.0022660000000000002,0.04641
188,3.07286,-1.355316,-1.3370520000000001,0.014676,0.976874,0.213194,-0.193109,-0.489989,0.29898600000000003,0.188204,-0.009223,0.064867
189,3.0313209999999997,-1.349574,-1.372929,0.024134,0.9756299999999999,0.21797600000000003,-0.28118899999999997,-0.237804,0.44653100000000007,0.15881900000000002,-0.07147,0.080334
190,2.9823470000000003,-1.341547,-1.41967,0.036018,0.9738370000000001,0.224262,-0.350736,-0.138006,0.591195,0.13663599999999998,-0.079901,0.057567999999999994
191,2.9268810000000003,-1.331357,-1.473392,0.050508,0.9714709999999999,0.231609,-0.398393,-0.17349,0.7148220000000001,0.084258,-0.055364,0.036503
192,2.869053,-1.318957,-1.528277,0.067048,0.968456,0.23989000000000002,-0.450297,-0.253504,0.789337,0.034713,-0.009685,0.034263999999999996
193,2.814765,-1.304937,-1.578378,0.084319,0.964867,0.248739,-0.474022,-0.302454,0.796712,0.001802,0.028511,0.044213999999999996
194,2.7686189999999997,-1.2910190000000001,-1.6204450000000001,0.100588,0.961117,0.25706999999999997,-0.42645200000000005,-0.243705,0.715784,0.002592,0.037556,0.067912
195,2.7357,-1.280125,-1.6523139999999998,0.113124,0.958052,0.263228,-0.260367,-0.019879,0.5425369999999999,0.03127,0.052568,0.090273
196,2.718085,-1.2739049999999998,-1.673825,0.12019,0.9562510000000001,0.26662199999999997,-0.11209300000000001,0.253106,0.345602,0.065571,0.062213,0.082316
197,2.712193,-1.270453,-1.6888130000000001,0.12313199999999999,0.9552350000000001,0.26891,-0.043256,0.515323,0.246402,0.086783,0.020107,0.082911
198,2.713987,-1.268201,-1.7007720000000002,0.12354200000000001,0.954566,0.271088,-0.016395,0.745526,0.197156,0.10883399999999999,0.00808,0.10618599999999999
199,2.722098,-1.266451,-1.710621,0.12202,0.954043,0.273608,-0.014231,0.945967,0.153118,0.129689,0.039945,0.10860999999999998
200,2.735531,-1.265426,-1.7185259999999998,0.11872,0.953736,0.27612,0.013341999999999998,1.105825,0.11251300000000002,0.13656,0.07041900000000001,0.084628
201,2.754477,-1.265335,-1.7232990000000001,0.1135,0.953708,0.27839899999999995,0.022682,1.207307,0.034468,0.101726,0.077435,0.059628999999999995
202,2.78209,-1.266091,-1.7205869999999999,0.10551700000000001,0.9539350000000001,0.28075300000000003,0.021527,1.2771489999999999,-0.11411199999999999,0.038267,0.07166900000000001,0.049569999999999996
203,2.822177,-1.268491,-1.7057380000000002,0.093461,0.9546530000000001,0.28258,0.054605999999999995,1.293906,-0.337161,-0.054185000000000004,0.07229400000000001,0.015119
204,2.875575,-1.272346,-1.6761540000000001,0.077277,0.955793,0.283612,0.050991,1.227657,-0.549678,-0.061256,0.066256,0.010532
205,2.938993,-1.275736,-1.634104,0.058495000000000005,0.956785,0.284762,0.006235,1.11009,-0.680163,-0.065209,0.054797000000000005,-0.0008880000000000001
206,3.007557,-1.277684,-1.5826280000000001,0.038599,0.957349,0.28625300000000004,-0.070212,0.867823,-0.767981,0.012548,0.00016999999999999999,-0.056074
207,3.0704,-1.275039,-1.533291,0.020725999999999998,0.9565819999999999,0.290638,-0.276262,0.710433,-0.6570550000000001,0.045543,-0.037423000000000005,-0.082447
208,3.1182,-1.268501,-1.494992,0.006962,0.954656,0.29754400000000003,-0.388033,0.48314799999999997,-0.465264,0.07807599999999999,-0.073781,-0.100736
209,-3.1374869999999997,-1.261417,-1.474435,-0.00125,0.952523,0.304381,-0.318231,0.355148,-0.217854,0.091322,-0.148339,-0.045103
210,-3.127231,-1.256564,-1.470374,-0.004438,0.951034,0.30897199999999997,-0.20331400000000002,0.295168,0.029785000000000002,0.068998,-0.13951,-0.022671
211,-3.133036,-1.253837,-1.481982,-0.002666,0.9501879999999999,0.311585,-0.101051,0.247035,0.255956,0.051128,-0.122429,-0.01201
212,3.133048,-1.253742,-1.5062200000000001,0.002663,0.950158,0.311677,0.044813,0.35554,0.433095,-0.000909,-0.086815,0.005645000000000001
213,3.110505,-1.2558790000000002,-1.540119,0.009625,0.950822,0.309506,0.15174400000000002,0.55167,0.576732,-0.018826,-0.109895,-0.05586
214,3.07917,-1.2591430000000001,-1.584934,0.019122999999999998,0.9518280000000001,0.30595500000000003,0.22456700000000002,0.543283,0.746031,-0.020253,-0.120773,-0.087418
215,3.035231,-1.263617,-1.640709,0.032091,0.95319,0.30058,0.335456,0.410322,0.8666159999999999,0.02992,-0.065785,-0.078168
216,2.981913,-1.268891,-1.704329,0.047264,0.954772,0.293475,0.41177600000000003,0.365052,0.932369,0.017723,-0.005415,-0.03873
217,2.924919,-1.2735450000000001,-1.7722380000000002,0.062948,0.956145,0.285962,0.408801,0.421497,0.938685,-0.005392,0.025468,-0.017621
218,2.8692860000000002,-1.277142,-1.840439,0.07782599999999999,0.957192,0.27870500000000004,0.42216400000000004,0.517441,0.9098139999999999,-0.01879,0.08669199999999999,0.012234
219,2.81546,-1.280304,-1.9061830000000002,0.091738,0.958103,0.27124499999999996,0.424212,0.41443900000000006,0.82557,-0.034349,0.07197200000000001,0.009837
220,2.766577,-1.283008,-1.964419,0.103933,0.958874,0.26402600000000004,0.402047,0.309691,0.666385,-0.049916,0.061939,0.001553
221,2.729893,-1.286694,-2.0086779999999997,0.11213,0.9599139999999999,0.256795,0.42760600000000004,0.28611,0.41449300000000006,-0.082879,0.069627,0.00555
222,2.7044,-1.29368,-2.04107,0.115797,0.9618479999999999,0.247771,0.558736,0.281215,0.193225,-0.133345,0.067097,-0.000121
223,2.686676,-1.304797,-2.06606,0.11546400000000001,0.96483,0.23605700000000002,0.689044,0.355056,-0.00358,-0.141251,0.051755999999999996,-0.038822
224,2.681129,-1.318732,-2.081984,0.110784,0.9684,0.22334299999999999,0.7260340000000001,0.585695,-0.17026,-0.058401,0.018447,-0.073685
225,2.684513,-1.333446,-2.093499,0.103725,0.9719639999999999,0.210902,0.711105,0.798906,-0.196275,-0.014294,0.000539,-0.068263
226,2.6907900000000002,-1.346875,-2.1042959999999997,0.096701,0.9750340000000001,0.199777,0.6170770000000001,0.8277530000000001,-0.13608,0.129602,-0.007154000000000001,-0.072823
227,2.691983,-1.356741,-2.117816,0.092275,0.9771780000000001,0.191215,0.43005299999999996,0.625575,-0.030305000000000002,0.181635,-0.021397,-0.06034
228,2.68394,-1.361736,-2.135455,0.091651,0.978226,0.186082,0.24264499999999997,0.371068,0.108649,0.22063600000000003,-0.034531,0.0008230000000000001
229,2.665943,-1.36267,-2.159421,0.094566,0.9784200000000001,0.18359,0.08875599999999999,0.225063,0.257312,0.034966000000000004,-0.02708,0.064701
230,2.648349,-1.359041,-2.18194,0.099462,0.977663,0.185025,-0.135448,0.228884,0.295266,-0.027105,0.003934,0.036899
231,2.642411,-1.352151,-2.192359,0.10378299999999999,0.9761920000000001,0.190343,-0.303935,0.187101,0.23432199999999997,-0.099892,0.036488,-0.006185
232,2.645785,-1.344467,-2.191325,0.106707,0.974497,0.19728800000000002,-0.359489,0.072639,0.135804,-0.11935699999999999,0.026952999999999998,0.007714
233,2.655256,-1.337351,-2.1815330000000004,0.108073,0.972875,0.20441700000000002,-0.369129,-0.044072,0.026927999999999997,-0.114482,0.021235,0.000478
234,2.6698419999999996,-1.331361,-2.164787,0.10772799999999999,0.9714719999999999,0.21116100000000002,-0.346528,-0.099148,-0.072189,-0.107774,0.027627999999999996,0.009298
235,2.688445,-1.326928,-2.143392,0.10566700000000001,0.970411,0.217,-0.285391,-0.11498599999999999,-0.160404,-0.082412,0.026324,0.033092
236,2.7093540000000003,-1.324763,-2.119439,0.10198600000000001,0.969886,0.22106900000000002,-0.202023,-0.12575,-0.204673,-0.052182000000000006,0.017235,0.025742
237,2.7288200000000002,-1.323434,-2.096522,0.09818099999999999,0.969562,0.22419299999999998,-0.175519,-0.15676199999999998,-0.19803900000000002,-0.025626,0.0055049999999999995,0.015782
238,2.7447169999999996,-1.321784,-2.076543,0.095223,0.9691559999999999,0.22720100000000001,-0.18115499999999998,-0.184598,-0.15851800000000002,-0.004571,-0.0036560000000000004,0.022585
239,2.757782,-1.319523,-2.059555,0.093067,0.9685969999999999,0.23045700000000002,-0.183394,-0.168769,-0.11903,-0.0014529999999999999,-0.003341,0.041394
240,2.767498,-1.3169950000000001,-2.046007,0.091718,0.967965,0.23362800000000003,-0.176094,-0.176371,-0.089059,-0.000333,0.0017460000000000002,0.06765700000000001
241,2.77471,-1.314258,-2.034986,0.09098099999999999,0.967274,0.236756,-0.182562,-0.168981,-0.06668099999999999,0.0006940000000000001,0.001689,0.060714
242,2.780866,-1.310984,-2.025339,0.090639,0.9664379999999999,0.240274,-0.200694,-0.150877,-0.049739,0.001295,-0.016562999999999998,0.059821000000000006
243,2.785336,-1.307239,-2.01788,0.090826,0.965469,0.244067,-0.20611,-0.128649,-0.009212999999999999,-0.013876,-0.0513,0.064191
244,2.787641,-1.302991,-2.013292,0.091684,0.964354,0.248121,-0.206096,-0.08831900000000001,0.028123000000000002,-0.042733999999999994,-0.050612,0.074862
245,2.789662,-1.29894,-2.0099549999999997,0.092529,0.963274,0.251973,-0.181366,-0.052160000000000005,0.021840000000000002,-0.049819999999999996,-0.022493,0.08742799999999999
246,2.792954,-1.295698,-2.005636,0.092765,0.962399,0.255209,-0.148039,-0.037195,-0.019607,-0.045524,-0.007595,0.08436
247,2.799184,-1.293196,-1.9984490000000001,0.09198200000000001,0.961716,0.25805,-0.127553,-0.040257999999999995,-0.070734,-0.044023,-0.002182,0.060141
248,2.8079509999999996,-1.291476,-1.9881790000000001,0.090257,0.9612430000000001,0.260409,-0.097595,-0.063627,-0.113224,-0.047411,-0.017487,0.05969
249,2.818684,-1.2906309999999999,-1.976209,0.087715,0.96101,0.26213200000000003,-0.059962,-0.028485000000000003,-0.14291700000000002,-0.043205,-0.022045,0.064376
250,2.8298970000000003,-1.290517,-1.964207,0.084803,0.9609780000000001,0.263203,-0.026851,-0.023261,-0.145897,-0.034938,-0.022975,0.06428099999999999
251,2.839871,-1.290525,-1.9535330000000002,0.08217100000000001,0.960981,0.26402600000000004,-0.023712999999999998,-0.008473999999999999,-0.117052,-0.042681000000000004,-0.013852000000000001,0.057751
252,2.846803,-1.290605,-1.9465009999999998,0.080317,0.961002,0.264516,-0.013144999999999999,0.010498,-0.07534099999999999,-0.040339,-0.01009,0.050822000000000006
253,2.851593,-1.2905950000000002,-1.9415529999999999,0.079052,0.961,0.264908,-0.0016300000000000002,-0.014143000000000001,-0.050660000000000004,-0.03564,-0.009691,0.047562
254,2.8540959999999997,-1.290463,-1.938132,0.078425,0.9609629999999999,0.265227,0.005584,-0.048347,-0.028133,-0.010935,-0.0017350000000000002,0.030168
255,2.8557919999999997,-1.290409,-1.935874,0.07799,0.9609479999999999,0.26541,-0.009203,-0.014209999999999999,-0.027212,-0.008745000000000001,-0.0045579999999999996,0.013933000000000001
256,2.857872,-1.2904930000000001,-1.93317,0.077415,0.9609709999999999,0.265495,0.007790000000000001,-0.041924,-0.037739999999999996,-0.002235,-0.010761,0.018135
257,2.860846,-1.290583,-1.9289319999999999,0.076601,0.9609969999999999,0.265642,-0.000808,-0.068475,-0.050585000000000005,-0.013674,-0.014463,0.037047000000000004
258,2.8633900000000003,-1.2904149999999999,-1.9245830000000002,0.07596900000000001,0.96095,0.26599,-0.022226,-0.088632,-0.052845,-0.028423,-0.01959,0.047654
259,2.867396,-1.289582,-1.919073,0.075119,0.9607190000000001,0.267061,-0.080674,-0.053209000000000006,-0.06932200000000001,-0.035248,-0.013193999999999999,0.049451999999999996
260,2.8728540000000002,-1.287882,-1.9119560000000002,0.07409400000000001,0.9602459999999999,0.26904,-0.10534600000000001,-0.088256,-0.074791,-0.023023,-0.004069,-0.006131
261,2.876594,-1.286245,-1.905402,0.073499,0.959788,0.270832,-0.082258,-0.154461,-0.055317,-0.015302000000000001,-0.027491,0.003872
262,2.876795,-1.2851139999999999,-1.9013200000000001,0.073728,0.95947,0.271895,-0.059088999999999996,-0.197251,-0.030531,-0.011366,-0.025783999999999998,0.014223
263,2.876544,-1.2838610000000001,-1.8976509999999998,0.074112,0.959116,0.273037,-0.061233,-0.187703,-0.018808000000000002,-0.015808000000000003,-0.015833,0.027225
264,2.875542,-1.28304,-1.8949330000000002,0.07459199999999999,0.958883,0.273723,-0.047320999999999995,-0.17816099999999999,-0.018725,-0.027168,-0.004156,0.045079
265,2.875206,-1.282375,-1.891831,0.074852,0.958694,0.274312,-0.04181,-0.158924,-0.039007,-0.035011,0.004364,0.036204
266,2.8767669999999996,-1.281907,-1.8870200000000001,0.074541,0.9585610000000001,0.274861,-0.03414,-0.1471,-0.07208400000000001,-0.024447,0.004055,0.035274
267,2.88148,-1.281759,-1.8797119999999998,0.073281,0.958519,0.27534699999999995,-0.013463,-0.09375900000000001,-0.109395,0.033957,0.000206,0.017546
268,2.889177,-1.282437,-1.870752,0.070997,0.9587120000000001,0.275271,0.024338,-0.017088,-0.13486700000000001,0.062440999999999997,-0.00551,0.019177
269,2.8994009999999997,-1.283989,-1.860913,0.06782200000000001,0.959152,0.274538,0.056875999999999996,0.076641,-0.159329,0.077274,-0.009581999999999999,0.027342
270,2.9117189999999997,-1.28603,-1.850752,0.063989,0.959727,0.273444,0.074272,0.150081,-0.15823299999999998,0.074668,-0.013759,0.037866000000000004
271,2.92211,-1.287309,-1.8427529999999999,0.060876,0.9600860000000001,0.272895,0.025918,0.11599000000000001,-0.115799,0.015677,-0.028155,0.023750999999999998
272,2.92772,-1.287039,-1.837734,0.059399,0.96001,0.273485,-0.056027,-0.009692000000000001,-0.049980000000000004,-0.0062829999999999995,-0.028446,0.019804
273,2.926597,-1.284601,-1.836656,0.060205999999999996,0.959325,0.27570500000000003,-0.14122,-0.156626,0.005161,-0.046610000000000006,-0.026128,0.0129
274,2.920268,-1.280455,-1.838098,0.062823,0.9581459999999999,0.279199,-0.20065,-0.28547100000000003,0.043367,-0.061877,-0.003404,0.015937
275,2.912604,-1.275884,-1.838841,0.065954,0.956828,0.282973,-0.22032800000000002,-0.37601100000000004,0.0583,-0.059805,0.005514,0.014466999999999999
276,2.9047389999999997,-1.271462,-1.838807,0.06917000000000001,0.955533,0.286555,-0.201129,-0.397303,0.038165,-0.047258,0.016177,0.039693
277,2.901418,-1.268126,-1.8348380000000002,0.070879,0.9545440000000001,0.289419,-0.157903,-0.332241,-0.0193,-0.03229,0.029511000000000003,0.062113
278,2.902947,-1.266047,-1.827582,0.070906,0.9539219999999999,0.291456,-0.11456300000000001,-0.245856,-0.081065,-0.012434,0.017208,0.046999
279,2.907101,-1.264765,-1.818793,0.069979,0.9535370000000001,0.29293600000000003,-0.087531,-0.19788499999999998,-0.11298399999999999,0.0029579999999999997,0.0038759999999999997,0.033419
280,2.912379,-1.26359,-1.809493,0.068686,0.953182,0.294392,-0.089646,-0.180884,-0.100202,0.020609,-0.024990000000000002,0.012248
281,2.914918,-1.262026,-1.8028,0.068273,0.952708,0.29601700000000003,-0.095321,-0.209815,-0.053203,0.033152,-0.051508000000000005,0.001743
282,2.912814,-1.2601280000000001,-1.79977,0.06930599999999999,0.9521299999999999,0.297633,-0.095881,-0.281401,0.000296,0.025558,-0.063671,0.009038
283,2.906494,-1.257938,-1.799594,0.071671,0.951458,0.299217,-0.103781,-0.348602,0.029169,-0.008392,-0.050716000000000004,0.039223
284,2.898657,-1.255578,-1.7998630000000002,0.074554,0.950729,0.300827,-0.109259,-0.393273,0.016368999999999998,-0.042175,-0.026182999999999998,0.05430700000000001
285,2.892939,-1.253715,-1.797866,0.076709,0.950149,0.302113,-0.078965,-0.355867,-0.040083,-0.064303,0.0028539999999999998,0.063061
286,2.8925009999999998,-1.253248,-1.791882,0.07695,0.9500040000000001,0.302508,-0.014206,-0.270546,-0.120925,-0.072159,0.0046170000000000004,0.047788
287,2.897432,-1.254501,-1.782446,0.07517,0.9503940000000001,0.30172899999999997,0.062265999999999995,-0.166189,-0.17714000000000002,-0.057592,-0.018052000000000002,0.027388
288,2.90502,-1.257536,-1.7719799999999999,0.072202,0.951334,0.299485,0.15116500000000002,-0.101466,-0.189421,-0.035138,-0.044289999999999996,0.010681
289,2.911104,-1.262097,-1.763521,0.069386,0.95273,0.29569,0.22778299999999999,-0.11039700000000001,-0.153623,-0.01122,-0.053255,-0.0008439999999999999
290,2.913281,-1.267548,-1.7580810000000002,0.067566,0.9543709999999999,0.290777,0.263567,-0.184168,-0.11802699999999999,0.001602,-0.043726999999999995,-0.003439
291,2.911885,-1.273184,-1.7546970000000002,0.066745,0.956039,0.285438,0.27271799999999996,-0.26205500000000004,-0.09543,0.002698,-0.032059,0.006143
292,2.9078009999999996,-1.278699,-1.7527259999999998,0.066687,0.957642,0.280027,0.264924,-0.31961300000000004,-0.080456,0.004739,-0.021912,0.025774000000000002
293,2.902388,-1.283908,-1.7510139999999998,0.06701900000000001,0.9591290000000001,0.274811,0.24764299999999997,-0.37173,-0.085851,0.006451999999999999,-0.0010140000000000001,0.036469
294,2.896049,-1.288986,-1.749354,0.067575,0.9605540000000001,0.26965100000000003,0.236788,-0.414299,-0.08694,0.007559999999999999,0.005847,0.046145
295,2.889641,-1.2932489999999999,-1.747334,0.06827899999999999,0.96173,0.26524200000000003,0.186573,-0.417371,-0.07446900000000001,0.010929000000000001,-0.001235,0.05221699999999999
296,2.881957,-1.296517,-1.7467419999999998,0.069508,0.96262,0.261671,0.154395,-0.416351,-0.035171,0.006145,-0.001927,0.046189999999999995
297,2.8721759999999996,-1.298864,-1.747652,0.071462,0.963254,0.2588,0.111471,-0.45461999999999997,-0.018330000000000003,0.011164,0.009174,0.024738999999999997
298,2.8615,-1.300677,-1.7491290000000002,0.073738,0.9637389999999999,0.256342,0.108117,-0.471721,-0.00124,0.012184,-0.0041600000000000005,0.029394
299,2.847911,-1.302625,-1.7527439999999999,0.076671,0.9642569999999999,0.25351999999999997,0.131243,-0.523038,0.024625,0.011448,-0.009498999999999999,0.032888
300,2.831545,-1.3051780000000002,-1.758319,0.080058,0.96493,0.249885,0.173697,-0.564762,0.032451999999999995,0.017369,-0.006037,0.031442000000000005
301,2.813104,-1.308547,-1.7655939999999999,0.083603,0.965809,0.24528699999999998,0.20565,-0.5734090000000001,0.035891,0.016815,-0.019352,0.020399
302,2.794088,-1.311942,-1.773309,0.087134,0.966684,0.240567,0.20670700000000003,-0.5797869999999999,0.031633999999999995,0.020196000000000002,-0.034876,0.000125
303,2.775446,-1.315442,-1.7805,0.090392,0.9675739999999999,0.23574,0.197139,-0.585029,0.018755,0.015352000000000001,-0.034804,0.0014119999999999998
304,2.756948,-1.31912,-1.7877029999999998,0.093399,0.9684959999999999,0.23072399999999998,0.21963000000000002,-0.571238,0.013553999999999998,0.014740000000000001,-0.034582,0.005146
305,2.737717,-1.322918,-1.7961369999999999,0.096372,0.969435,0.2255,0.229332,-0.540413,0.022128000000000002,0.031359,-0.004897,0.025522
306,2.71731,-1.3263719999999999,-1.8062470000000002,0.099574,0.9702770000000001,0.220433,0.206842,-0.532984,0.048667,0.034733999999999994,0.009719,0.043788
307,2.6954740000000004,-1.32944,-1.817665,0.103077,0.971015,0.215518,0.191848,-0.534044,0.060314,0.028011,0.01275,0.052441999999999996
308,2.674334,-1.331857,-1.828689,0.106553,0.97159,0.211196,0.165287,-0.513694,0.055829,0.017059,0.016951,0.07066499999999999
309,2.655491,-1.333928,-1.8379299999999998,0.109572,0.9720780000000001,0.207369,0.140998,-0.479434,0.034251,0.009462,0.020293000000000002,0.069761
310,2.639322,-1.335632,-1.84513,0.112113,0.972476,0.204118,0.12308699999999999,-0.445218,0.018059,0.028238,0.009259,0.05853200000000001
311,2.625787,-1.337444,-1.850334,0.113995,0.9728969999999999,0.201048,0.107333,-0.407806,-0.000259,0.037952,0.005543,0.055102
312,2.616006,-1.338667,-1.8534119999999998,0.11535899999999999,0.9731790000000001,0.19889300000000001,0.058794000000000006,-0.288325,-0.0007509999999999999,0.072141,-0.011188,0.053457000000000005
313,2.611225,-1.338964,-1.854168,0.11616199999999999,0.973247,0.19808900000000002,0.017792,-0.15395899999999998,-0.001207,0.09743099999999999,-0.014156,0.051117
314,2.609314,-1.33881,-1.854644,0.11661600000000001,0.9732120000000001,0.197996,-0.012639,-0.026079,0.013371000000000001,0.09865499999999999,-0.013327,0.05092
315,2.609074,-1.337797,-1.855561,0.117165,0.9729780000000001,0.198818,-0.039042,0.059133000000000005,0.038715,0.08834,-0.010209999999999999,0.041614
316,2.606677,-1.33585,-1.859376,0.11860599999999999,0.972527,0.200166,-0.050901999999999996,0.06649,0.073874,0.061722000000000006,-0.018578,0.015777
317,2.601147,-1.333697,-1.865734,0.12078699999999999,0.972023,0.2013,-0.04498,0.008748,0.123128,0.053224,-0.02195,0.004281
318,2.589324,-1.3311819999999999,-1.8767200000000002,0.12444100000000001,0.9714290000000001,0.20194,-0.014693000000000001,-0.104406,0.155531,0.049966,-0.024149,-0.024556
319,2.5714599999999996,-1.329505,-1.8904169999999998,0.128907,0.97103,0.20105499999999998,0.033802,-0.26212199999999997,0.12722999999999998,0.059233,-0.047172000000000006,-0.017202000000000002
320,2.562247,-1.327348,-1.897991,0.131901,0.970512,0.20161099999999998,-0.10447999999999999,0.078139,0.137578,0.093167,-0.0054399999999999995,0.067508
321,2.566826,-1.320843,-1.9006830000000001,0.134407,0.968924,0.20751,-0.317467,0.483361,0.217824,0.108162,0.013666,0.084651
322,2.573051,-1.31406,-1.9055240000000002,0.13665,0.967224,0.21387899999999999,-0.17715699999999998,0.5905239999999999,0.20371199999999998,0.11975899999999999,-0.010223000000000001,0.053592999999999995
323,2.5726400000000003,-1.312522,-1.9200549999999998,0.13754,0.966832,0.21507600000000002,0.150013,0.7279439999999999,0.186593,0.122623,-0.030507,0.011029
324,2.560936,-1.31464,-1.9466919999999999,0.138923,0.9673709999999999,0.21173899999999998,0.31599299999999997,0.665424,0.226289,0.13204200000000002,-0.054621,-0.12261199999999998
325,2.543059,-1.3159049999999999,-1.9775490000000002,0.141997,0.967691,0.208211,0.244995,0.583453,0.273968,0.11731099999999998,0.0017,-0.064854
326,2.526394,-1.314134,-2.006251,0.14643599999999998,0.9672430000000001,0.207215,0.08118,0.528331,0.34767,0.09682,0.015271000000000002,0.023513
327,2.509413,-1.309843,-2.032337,0.152385,0.966145,0.20804699999999998,-0.0029170000000000003,0.352772,0.367603,0.033863,0.023663,0.041267
328,2.491349,-1.3060180000000001,-2.0572310000000003,0.158356,0.96515,0.208202,0.052622,0.315499,0.316765,-0.048462,0.016753,0.024784999999999998
329,2.474712,-1.304337,-2.082143,0.162801,0.964709,0.20681300000000002,0.155774,0.420832,0.259666,-0.092001,0.006451999999999999,-0.015377000000000002
330,2.461135,-1.304055,-2.1068990000000003,0.165765,0.964635,0.204795,0.208817,0.574116,0.24274899999999996,-0.052545,-0.002431,-0.01371
331,2.451345,-1.3045149999999999,-2.131162,0.167479,0.964756,0.20282,0.226784,0.7499180000000001,0.219148,0.037828,0.0012619999999999999,0.022078999999999998
332,2.446144,-1.3047549999999999,-2.153843,0.16838399999999998,0.9648190000000001,0.201769,0.190918,0.868179,0.24652,0.083218,-0.002432,0.032835
333,2.441495,-1.30469,-2.177637,0.16936099999999998,0.964802,0.201032,0.21349,0.929788,0.271167,0.085354,0.0006519999999999999,0.035738
334,2.434053,-1.305052,-2.204141,0.170626,0.9648969999999999,0.19950199999999998,0.246279,0.8636389999999999,0.268277,0.047971,0.024986,0.029914
335,2.422518,-1.304945,-2.231273,0.172984,0.9648690000000001,0.197598,0.215425,0.649608,0.272608,-0.035456,0.020925,0.023197
336,2.409799,-1.304131,-2.255856,0.176008,0.9646549999999999,0.195967,0.16792200000000002,0.507099,0.254299,-0.073271,0.018133,0.028856
337,2.398891,-1.302724,-2.276761,0.179053,0.964283,0.195035,0.119788,0.444557,0.21879200000000001,-0.10434600000000001,0.005016,0.010073
338,2.3923900000000002,-1.301152,-2.292297,0.181349,0.963866,0.194976,0.066464,0.417174,0.186408,-0.050672,-0.014891,-0.026152999999999996
339,2.389198,-1.299242,-2.304443,0.183228,0.963355,0.19574,0.031292,0.434303,0.19575399999999998,0.016647,-0.030539999999999998,-0.049546
340,2.387165,-1.296817,-2.316386,0.185226,0.9627020000000001,0.197069,0.021762,0.490634,0.236208,0.072038,-0.035822,-0.047365
341,2.384359,-1.293931,-2.330319,0.187686,0.961917,0.198567,0.026067,0.542642,0.279968,0.1013,-0.025988999999999998,-0.014318
342,2.378952,-1.290645,-2.347182,0.19094,0.9610129999999999,0.19983499999999998,0.048251,0.517964,0.304724,0.085564,-0.006561,0.023431999999999998
343,2.369138,-1.287544,-2.366874,0.194972,0.960152,0.20008499999999999,0.087298,0.42195699999999997,0.304052,0.007162000000000001,0.014015000000000001,0.046527
344,2.3576610000000002,-1.284784,-2.387913,0.199126,0.959377,0.199711,0.109029,0.472099,0.266751,-0.087096,0.029088,0.041759
345,2.350721,-1.283115,-2.4059180000000002,0.201646,0.9589040000000001,0.19945,0.12878299999999998,0.531938,0.20378800000000002,-0.09918300000000001,0.025913,0.012556
346,2.344814,-1.282594,-2.42244,0.203178,0.9587559999999999,0.198606,0.169257,0.465955,0.15288,-0.09616799999999999,0.023849000000000002,-0.015744
347,2.3358119999999998,-1.2831110000000001,-2.439837,0.204601,0.9589030000000001,0.196426,0.222106,0.334826,0.132053,-0.063304,-0.007456999999999999,-0.05271900000000001
348,2.324024,-1.284805,-2.45771,0.20571599999999998,0.959383,0.192888,0.265388,0.22710300000000003,0.127152,-0.044812,-0.013673,-0.030886
349,2.308211,-1.28706,-2.478417,0.207139,0.960016,0.188157,0.312219,0.20243699999999998,0.12751099999999999,-0.037935,-0.015359999999999999,-0.010957
350,2.291341,-1.290257,-2.499614,0.20797600000000002,0.9609059999999999,0.18261,0.311898,0.116211,0.11266400000000001,-0.025558,0.005418,0.019371
351,2.273324,-1.292885,-2.521171,0.209304,0.9616299999999999,0.177201,0.315338,0.15673099999999998,0.09981799999999999,-0.034332,0.005288,0.028610000000000003
352,2.256004,-1.296017,-2.543102,0.210008,0.962485,0.17164200000000002,0.32410300000000003,0.199345,0.091278,-0.009111,-0.018821,0.058873
353,2.238618,-1.298818,-2.565168,0.210842,0.963241,0.166294,0.329356,0.17166800000000002,0.081737,-0.010738,-0.008072,0.021816
354,2.218214,-1.30177,-2.588575,0.21192199999999997,0.9640299999999999,0.160242,0.349166,0.066149,0.078805,-0.023537,-0.0020399999999999997,0.012655
355,2.194691,-1.304659,-2.612941,0.213371,0.964794,0.153585,0.373182,-0.050051,0.079122,-0.069236,0.022022,0.007486
356,2.1657990000000003,-1.307963,-2.64035,0.215077,0.965658,0.14557,0.403704,-0.160874,0.061318,-0.09087100000000001,0.02598,0.021315999999999998
357,2.13535,-1.311574,-2.66748,0.21646100000000001,0.96659,0.137087,0.397068,-0.24700100000000003,0.027198000000000003,-0.11383,0.043786,0.045469
358,2.10527,-1.31552,-2.692389,0.217202,0.967593,0.128571,0.373314,-0.342661,-0.00596,-0.11078699999999998,0.021024,0.033523000000000004
359,2.075017,-1.319692,-2.715446,0.217454,0.9686389999999999,0.11999000000000001,0.34847399999999995,-0.433029,-0.029518,-0.089769,0.011937,0.015493
360,2.044028,-1.323903,-2.737755,0.21743400000000002,0.969676,0.11133399999999999,0.344053,-0.486201,-0.048708999999999995,-0.073437,0.008458,0.011956999999999999
361,2.012788,-1.328694,-2.759662,0.216602,0.970836,0.1025,0.363137,-0.5160819999999999,-0.051741999999999996,-0.026157,0.010518000000000001,0.006509
362,1.975889,-1.332961,-2.787107,0.21642600000000004,0.97185,0.092806,0.399415,-0.504534,-0.040820999999999996,-0.014491999999999998,0.012479,0.019056
363,1.9383279999999998,-1.33699,-2.816183,0.21610300000000002,0.972792,0.083205,0.388952,-0.44701899999999994,-0.029218,-0.006203,0.025484,0.040116000000000006
364,1.9038130000000002,-1.3403770000000002,-2.8431990000000003,0.215731,0.973571,0.074621,0.33156199999999997,-0.391448,-0.023282,0.008527,0.006959,0.069178
365,1.8741259999999997,-1.34274,-2.866427,0.215653,0.974108,0.067497,0.263546,-0.336864,-0.028099000000000002,0.016006,-0.002931,0.081719
366,1.850812,-1.344732,-2.884234,0.215304,0.974556,0.061915,0.213691,-0.277017,-0.032797,0.036756,-0.020194999999999998,0.083913
367,1.8315869999999999,-1.346282,-2.8987700000000003,0.21499400000000002,0.974902,0.057375,0.172184,-0.252379,-0.030982,0.048694,-0.027667,0.057553999999999994
368,1.8140900000000002,-1.347482,-2.910919,0.214829,0.9751690000000001,0.053323,0.142025,-0.308763,-0.023643,0.040770999999999995,-0.028177999999999998,0.05268
369,1.797914,-1.3482809999999998,-2.920558,0.21490399999999998,0.975345,0.049665,0.138632,-0.360912,-0.033214,0.006959,-0.013599000000000002,0.024263
370,1.779179,-1.349605,-2.9321200000000003,0.214534,0.9756370000000001,0.045364,0.170705,-0.37794,-0.065015,-0.01974,-0.002034,0.016145
371,1.75785,-1.3516780000000002,-2.947019,0.213463,0.976089,0.040401,0.206405,-0.305476,-0.102246,-0.024285,0.004135,0.009876000000000001
372,1.73701,-1.354495,-2.962933,0.211544,0.976698,0.035489,0.207875,-0.24995,-0.13649,-0.035717,0.005282,-0.014554
373,1.714327,-1.3579809999999999,-2.981601,0.20892199999999997,0.97744,0.030194,0.24439299999999997,-0.21590700000000002,-0.156575,-0.013472,0.005821,0.008014
374,1.6884139999999999,-1.361904,-3.003645,0.20582399999999998,0.978261,0.024321000000000002,0.259338,-0.2255,-0.168209,-0.0016920000000000001,0.008845,0.025743000000000002
375,1.6625189999999999,-1.365975,-3.025044,0.202416,0.9790969999999999,0.018618,0.233638,-0.258386,-0.180096,0.004294,-0.009812999999999999,0.071241
376,1.639718,-1.369859,-3.043125,0.198991,0.97988,0.013737000000000001,0.183299,-0.274301,-0.15265399999999998,-0.015397,-0.026282,0.055432
377,1.618107,-1.372843,-3.0592919999999997,0.196319,0.9804709999999999,0.009295,0.158708,-0.267896,-0.134674,0.0,-0.011736,0.030744
378,1.602734,-1.375269,-3.070848,0.19405899999999998,0.9809450000000001,0.0062,0.106715,-0.18045999999999998,-0.11058,0.016909,-0.006229,0.038463
379,1.592837,-1.376525,-3.0767439999999997,0.192876,0.981189,0.004252000000000001,0.042113,-0.23911500000000002,-0.038317000000000004,0.0024219999999999997,-0.005954,0.04627
380,1.590127,-1.3769049999999998,-3.073715,0.19251300000000002,0.9812620000000001,0.003722,-0.05223099999999999,-0.31346599999999997,-0.011106999999999999,-0.017144,0.0054020000000000006,0.069413
381,1.595089,-1.376786,-3.061649,0.19261,0.981239,0.00468,-0.15067,-0.35688000000000003,0.008556999999999999,-0.041471,0.014153,0.069661
382,1.6101809999999999,-1.376463,-3.0386580000000003,0.192834,0.9811770000000001,0.007599,-0.249984,-0.388449,-0.002778,-0.082147,0.041208,0.061386
383,1.6329,-1.375989,-3.006574,0.193074,0.981085,0.012006000000000001,-0.33686,-0.474497,0.012748,-0.075063,0.028681,0.047
384,1.661201,-1.3749200000000001,-2.966789,0.193701,0.980878,0.017559,-0.403499,-0.567012,0.029493000000000002,-0.07427,0.022159,0.016956
385,1.6916919999999998,-1.373976,-2.9243639999999997,0.193994,0.980693,0.023568000000000002,-0.40325900000000003,-0.5349689999999999,0.008089,-0.077921,0.034459,-0.0046159999999999994
386,1.719266,-1.373832,-2.886515,0.193411,0.980665,0.028929000000000003,-0.334362,-0.443412,-0.03748,-0.066275,0.039782,-0.008009
387,1.7428759999999999,-1.374219,-2.854327,0.192299,0.980741,0.033421,-0.294504,-0.373183,-0.052247,-0.033408999999999994,0.021319,0.003139
388,1.7656880000000001,-1.374391,-2.823891,0.19132000000000002,0.9807739999999999,0.037766,-0.288017,-0.342359,-0.040491,-0.010274,0.009964,0.023986
389,1.787449,-1.3741709999999998,-2.794798,0.190664,0.9807309999999999,0.041967000000000004,-0.280606,-0.337131,-0.022286,-0.002188,0.005917,0.032115
390,1.8081919999999998,-1.3735979999999999,-2.766696,0.190299,0.980619,0.046044,-0.27750199999999997,-0.34571599999999997,-0.009434999999999999,-0.010245,-0.000349,0.027091000000000004
391,1.828055,-1.3724379999999998,-2.738555,0.190447,0.980392,0.050104,-0.290673,-0.412842,0.005514,-0.024645,0.004991,-0.0032450000000000005
392,1.846197,-1.370917,-2.7111419999999997,0.190944,0.98009,0.053957000000000005,-0.270556,-0.44700200000000007,0.005699,-0.026942,0.002301,-0.01166
393,1.859909,-1.369458,-2.688018,0.191556,0.9798,0.056977999999999994,-0.21828499999999998,-0.445067,0.009266,-0.020002000000000002,0.0048649999999999995,-0.0036030000000000003
394,1.868181,-1.368069,-2.670484,0.192381,0.9795209999999999,0.058960000000000005,-0.17138599999999998,-0.444208,0.020275,-0.016219,0.006059,0.003006
395,1.8732119999999999,-1.366922,-2.656524,0.193157,0.979289,0.060262,-0.14248,-0.42299899999999996,0.019381,-0.008373,0.01064,0.022868
396,1.878828,-1.3661809999999999,-2.644389,0.19350599999999998,0.979139,0.061564999999999995,-0.1287,-0.220584,0.004263,-0.004953,0.008379000000000001,0.046986
397,1.888018,-1.3651870000000002,-2.632584,0.193856,0.9789370000000001,0.06364500000000001,-0.131339,-0.080022,0.020087999999999998,0.01084,0.007986,0.062485
398,1.898149,-1.363976,-2.621485,0.194323,0.9786889999999999,0.065986,-0.12365599999999999,-0.011951999999999999,0.04035,0.020567,-0.003973,0.047112
399,1.908134,-1.362223,-2.611987,0.195272,0.9783270000000001,0.06849,-0.117005,0.060396000000000005,0.057396,0.010829,0.00031,0.043401999999999996
400,1.9181669999999997,-1.360243,-2.603911,0.19639600000000002,0.977915,0.071105,-0.10925399999999999,0.13701300000000002,0.071239,0.00010700000000000001,0.005605,0.043717
401,1.929357,-1.3578780000000001,-2.5962259999999997,0.197752,0.977418,0.07411000000000001,-0.100451,0.20618699999999998,0.080825,-0.014174,0.000319,0.034258
402,1.939831,-1.355335,-2.590507,0.199284,0.976878,0.077074,-0.10135,0.265756,0.103175,-0.015369999999999998,-0.001902,0.031996
403,1.950777,-1.35236,-2.585043,0.201127,0.9762379999999999,0.080328,-0.104555,0.28167800000000004,0.120224,-0.020845,-0.004009,0.029749
404,1.9610900000000002,-1.349157,-2.58023,0.203181,0.9755379999999999,0.083588,-0.105723,0.274165,0.135181,-0.033259,-0.0035229999999999997,0.030517000000000002
405,1.9701060000000001,-1.345842,-2.5762970000000003,0.205398,0.9748040000000001,0.086674,-0.093088,0.248507,0.147052,-0.045806,0.007633,0.027721
406,1.976027,-1.342732,-2.574801,0.20766700000000002,0.9741059999999999,0.089084,-0.058059000000000006,0.206848,0.145214,-0.054927,0.012405,0.017057
407,1.978632,-1.339826,-2.5761220000000002,0.21003400000000003,0.9734450000000001,0.09074700000000001,-0.032608,0.184341,0.157171,-0.064953,0.020818,0.01756
408,1.9787990000000002,-1.33697,-2.579807,0.21256999999999998,0.9727870000000001,0.09188500000000001,-0.005927,0.1885,0.15948900000000002,-0.073257,0.016715,0.018328999999999998
409,1.9771599999999998,-1.334374,-2.5854,0.21504,0.972182,0.092535,0.019659,0.187332,0.162873,-0.08741499999999999,0.015611000000000002,0.016321000000000002
410,1.9743,-1.331849,-2.5926099999999996,0.21756199999999998,0.9715879999999999,0.09288400000000001,0.028314,0.2203,0.169301,-0.08859500000000001,0.018326,0.018093
411,1.9732020000000001,-1.329046,-2.598757,0.220169,0.9709209999999999,0.093711,0.0006519999999999999,0.252295,0.184022,-0.086792,0.017086,0.020013
412,1.9743279999999999,-1.325721,-2.603189,0.22303299999999998,0.9701190000000001,0.09522699999999999,-0.028091,0.28534299999999996,0.203007,-0.092998,0.018055,0.023319
413,1.9789599999999998,-1.321788,-2.605423,0.22609,0.9691569999999999,0.097773,-0.070478,0.371689,0.22503299999999998,-0.095567,0.01769,0.033544
414,1.986675,-1.317183,-2.60632,0.229411,0.9680120000000001,0.10131699999999999,-0.09259500000000001,0.462208,0.25146799999999997,-0.100031,0.015263999999999998,0.035112
415,1.997746,-1.31196,-2.605379,0.232877,0.9666879999999999,0.10594400000000001,-0.13819800000000002,0.5326420000000001,0.26066999999999996,-0.107984,0.026094,0.012053
416,2.011777,-1.306569,-2.6024830000000003,0.23607899999999998,0.9652950000000001,0.111425,-0.15826700000000002,0.566844,0.24980300000000003,-0.11615999999999999,0.029105000000000002,-0.001607
417,2.027114,-1.3013059999999999,-2.598229,0.238902,0.963907,0.11727,-0.181791,0.5424760000000001,0.236852,-0.114711,0.020743,-0.003546
418,2.044769,-1.2952270000000001,-2.590123,0.24200500000000003,0.9622700000000001,0.124142,-0.284641,0.46818000000000004,0.25759299999999996,-0.11770699999999999,0.029383,0.004123
419,2.069891,-1.287679,-2.573368,0.24518299999999998,0.960189,0.133656,-0.465075,0.43261700000000003,0.249969,-0.107579,0.050065,0.004574
420,2.105602,-1.278697,-2.543812,0.247666,0.957641,0.146715,-0.668,0.323846,0.187802,-0.096345,0.067719,-0.036974
421,2.1468700000000003,-1.269672,-2.506716,0.24864299999999998,0.955003,0.161511,-0.723352,0.261552,0.096696,-0.060226999999999996,0.029310000000000003,-0.048947000000000004
422,2.184817,-1.261371,-2.469541,0.248808,0.952509,0.17539000000000002,-0.687855,0.020947999999999998,0.028886000000000002,-0.051466,-0.005365,-0.087087
423,2.21538,-1.253749,-2.4352400000000003,0.249129,0.95016,0.18726800000000002,-0.648043,-0.153846,0.016569999999999998,-0.013793000000000001,-0.027277999999999997,-0.084012
424,2.243718,-1.246022,-2.405555,0.24945799999999999,0.947723,0.198824,-0.6117,0.137756,0.055974,0.061591999999999994,-0.02333,-0.010134
425,2.272939,-1.2382030000000002,-2.381018,0.24919499999999997,0.945199,0.210808,-0.546687,0.384575,0.08068099999999999,0.08039500000000001,-0.047036,-0.018044
426,2.300598,-1.230567,-2.361802,0.248642,0.942678,0.222425,-0.48543000000000003,0.49616400000000005,0.09378500000000001,0.074737,-0.061071,-0.03877
427,2.323672,-1.222983,-2.345825,0.248656,0.9401200000000001,0.23298600000000003,-0.470146,0.357539,0.115434,0.057726,-0.038005000000000004,-0.07635399999999999
428,2.3439389999999998,-1.2150299999999998,-2.331608,0.249227,0.9373799999999999,0.24319200000000002,-0.44342600000000004,0.37022,0.11774000000000001,0.073787,-0.018785,0.006351
429,2.362289,-1.2073909999999999,-2.322348,0.24974899999999997,0.934692,0.252812,-0.35199,0.5912609999999999,0.172575,0.08872100000000001,-0.010421,0.090724
430,2.379679,-1.200252,-2.319936,0.249916,0.9321299999999999,0.261939,-0.254019,0.843168,0.22848400000000002,0.077568,-0.033922,0.099877
431,2.394625,-1.193832,-2.3233029999999997,0.25003400000000003,0.9297860000000001,0.27003,-0.165355,0.9172309999999999,0.278147,0.045056,-0.063652,0.064458
432,2.404893,-1.188446,-2.331079,0.25061100000000003,0.92779,0.27629000000000004,-0.06428500000000001,0.850843,0.275733,0.015319999999999999,-0.044215,0.025238999999999998
433,2.411621,-1.184499,-2.340932,0.251186,0.9263100000000001,0.280697,0.003735,0.764433,0.247477,-0.006862999999999999,-0.041942,0.028629
434,2.4172860000000003,-1.1805370000000002,-2.350333,0.25202199999999997,0.92481,0.284862,-0.034032,0.667633,0.24520100000000003,-0.068535,-0.018179,0.015599000000000002
435,2.421909,-1.1764219999999999,-2.356595,0.253209,0.9232370000000001,0.28888400000000003,-0.0904,0.428309,0.203453,-0.08826200000000001,-0.004277,0.012843
436,2.424014,-1.172633,-2.3595770000000003,0.254899,0.921775,0.292049,-0.11904,0.174025,0.1491,-0.111024,0.012216,0.007831999999999999
437,2.426079,-1.16848,-2.359445,0.256805,0.920156,0.295462,-0.166442,0.04752,0.12436199999999999,-0.137191,-0.013600999999999999,0.06461499999999999
438,2.427283,-1.1638030000000001,-2.357264,0.259265,0.918315,0.29902,-0.228967,-0.096074,0.124109,-0.15166,-0.023082,0.066718
439,2.427527,-1.1582370000000002,-2.3524979999999998,0.262536,0.916098,0.30294099999999996,-0.304352,-0.26407800000000003,0.11204700000000001,-0.160577,-0.000891,0.071983
440,2.430576,-1.152421,-2.3415209999999997,0.265085,0.91375,0.307774,-0.40591,-0.413509,0.006843000000000001,-0.09604800000000001,0.023582,0.11198
441,2.4349369999999997,-1.1474440000000001,-2.32517,0.26669,0.911717,0.312382,-0.387989,-0.6005,-0.13272899999999999,-0.080899,0.018489,0.11729
442,2.4378830000000002,-1.1456979999999999,-2.306665,0.26679899999999995,0.910998,0.31438,-0.26542,-0.7580640000000001,-0.26306199999999996,-0.050901999999999996,-0.020891999999999997,0.13873
443,2.439192,-1.147626,-2.28808,0.265252,0.911792,0.313388,-0.12110599999999999,-0.796508,-0.364554,-0.016366,-0.037478,0.154828
444,2.438888,-1.1527100000000001,-2.2719139999999998,0.262348,0.913868,0.309765,0.013581999999999999,-0.791438,-0.41703100000000004,0.041821,-0.048251999999999996,0.182621
445,2.43954,-1.159881,-2.256471,0.257907,0.9167549999999999,0.304925,0.133178,-0.60195,-0.488009,0.089505,0.022866,0.183631
446,2.4421209999999998,-1.169133,-2.242297,0.251646,0.9204120000000001,0.299085,0.198909,-0.490192,-0.5208079999999999,0.11630499999999999,-0.00548,0.163714
447,2.44692,-1.178734,-2.227761,0.24453899999999998,0.9241229999999999,0.293486,0.203622,-0.401748,-0.531571,0.134123,-0.028829,0.13524
448,2.452693,-1.188439,-2.213104,0.23712800000000003,0.927788,0.287955,0.21641999999999997,-0.402858,-0.5314800000000001,0.136621,-0.022194,0.104379
449,2.457665,-1.198173,-2.197909,0.22997399999999998,0.931376,0.282115,0.201105,-0.494388,-0.5389470000000001,0.11202100000000001,-0.010477,0.048817
450,2.461916,-1.206963,-2.1801630000000003,0.22361799999999998,0.9345389999999999,0.27671100000000004,0.12225599999999999,-0.706117,-0.536022,0.050262,-0.022354,-0.004342
451,2.465194,-1.214717,-2.160212,0.218166,0.937271,0.271782,0.093192,-0.761418,-0.534018,-0.004131,-0.041533999999999995,-0.010033
452,2.468886,-1.221544,-2.140339,0.213169,0.939629,0.267575,0.0643,-0.73593,-0.489387,-0.015735,-0.107704,0.010608
453,2.471674,-1.227367,-2.121394,0.20901999999999998,0.9416059999999999,0.263873,0.012620999999999999,-0.7754260000000001,-0.42453599999999997,-0.015538,-0.10434,-0.013369999999999998
454,2.47403,-1.232012,-2.101283,0.20568699999999998,0.943159,0.26092600000000005,-0.040029,-0.848785,-0.415195,0.001436,-0.064955,-0.00038199999999999996
455,2.477406,-1.236168,-2.080108,0.20238699999999998,0.9445319999999999,0.258531,-0.061237,-0.795545,-0.390843,0.020849,-0.036436,0.027556999999999998
456,2.4859299999999998,-1.238718,-2.056645,0.198706,0.945367,0.258336,-0.171251,-0.59167,-0.397214,0.049081,0.019157,0.098475
457,2.504685,-1.241047,-2.028074,0.19251600000000002,0.946124,0.260245,-0.174119,-0.347441,-0.464844,0.086857,0.041319,0.056436
458,2.523129,-1.244143,-2.000028,0.18598299999999998,0.9471219999999999,0.261362,-0.11495999999999999,-0.46488100000000004,-0.451462,0.10481900000000001,0.019034,0.026861000000000003
459,2.535664,-1.247571,-1.9758470000000001,0.180841,0.948216,0.26100100000000004,-0.056809000000000005,-0.522848,-0.39116100000000004,0.11904,-0.035054,0.054734000000000005
460,2.542289,-1.2505600000000001,-1.9577380000000002,0.177508,0.949161,0.259851,-0.029488,-0.512706,-0.287366,0.135999,-0.052752999999999994,0.070425
461,2.5473689999999998,-1.2514370000000001,-1.9435490000000002,0.17572000000000002,0.9494370000000001,0.26006,-0.112416,-0.356192,-0.19521,0.13963399999999998,-0.02126,0.069927
462,2.551823,-1.2514450000000001,-1.931627,0.174555,0.9494389999999999,0.260833,-0.08278300000000001,-0.37136399999999997,-0.156528,0.117727,-0.026358999999999997,0.013656999999999999
463,2.549106,-1.250925,-1.924309,0.175539,0.949276,0.260767,-0.078595,-0.531551,-0.061222000000000006,0.110731,-0.057293,-0.018672
464,2.5396240000000003,-1.248733,-1.923127,0.17918199999999998,0.948584,0.260806,-0.091809,-0.492616,0.07002699999999999,0.128054,-0.04412,0.022275
465,2.52756,-1.24494,-1.9276119999999999,0.184387,0.947377,0.261565,-0.110644,-0.315033,0.16580799999999998,0.12928800000000001,-0.02773,0.026475
466,2.51762,-1.240322,-1.933703,0.18953299999999998,0.945888,0.26326900000000003,-0.129192,-0.14143499999999998,0.193228,0.11964000000000001,-0.028713,0.031089
467,2.50968,-1.235341,-1.9401509999999997,0.194399,0.944261,0.26555500000000004,-0.136434,-0.072244,0.212317,0.126494,-0.035401,0.029169
468,2.500275,-1.230624,-1.9480009999999999,0.199551,0.9426969999999999,0.267282,-0.083326,-0.11826199999999999,0.219156,0.12228800000000001,-0.029443,0.025153000000000002
469,2.487767,-1.226959,-1.9578229999999999,0.204979,0.9414680000000001,0.267507,-0.015234000000000001,-0.171717,0.20794899999999997,0.095421,-0.017533,0.016153999999999998
470,2.473281,-1.224811,-1.9695610000000001,0.21008600000000002,0.940742,0.266097,0.085219,-0.153881,0.1894,0.046245999999999995,-0.025259999999999998,0.021317
471,2.457933,-1.224557,-1.9836529999999999,0.21429600000000001,0.9406559999999999,0.263027,0.17542,-0.059245000000000006,0.154658,0.008452,-0.01788,0.011555
472,2.4438869999999997,-1.225429,-1.9988279999999998,0.217442,0.940951,0.259362,0.21442600000000003,0.058924000000000004,0.139824,-0.005222999999999999,-0.031649000000000004,0.006309
473,2.431276,-1.2267700000000001,-2.014789,0.219873,0.9414040000000001,0.255642,0.24264899999999998,0.162175,0.13561600000000001,0.01081,-0.036482,0.018406
474,2.420178,-1.228877,-2.0308740000000003,0.221386,0.9421129999999999,0.251697,0.271847,0.228206,0.114371,0.039066000000000004,-0.024114,0.035533999999999996
475,2.410479,-1.231496,-2.046559,0.22216799999999998,0.9429879999999999,0.24769899999999997,0.27421599999999996,0.267665,0.101518,0.062027,-0.018992,0.039395
476,2.401998,-1.234045,-2.061688,0.22263899999999998,0.943833,0.244029,0.259438,0.30287,0.101369,0.07213,-0.019715,0.035283
477,2.3946709999999998,-1.2361309999999999,-2.0765119999999997,0.223083,0.94452,0.240946,0.23935,0.350848,0.108645,0.075669,-0.015581,0.036808999999999995
478,2.388023,-1.238026,-2.091468,0.22345500000000001,0.945141,0.23815300000000003,0.241632,0.388108,0.11288599999999999,0.073801,-0.013119,0.038245
479,2.380841,-1.239499,-2.107821,0.2242,0.9456209999999999,0.235533,0.25465,0.439183,0.11611600000000001,0.049985,0.000195,0.041902999999999996
480,2.375293,-1.24137,-2.124088,0.22427600000000003,0.9462280000000001,0.23301,0.251838,0.528664,0.11918699999999999,0.043837,0.000397,0.046820999999999995
481,2.370641,-1.242966,-2.141004,0.224304,0.946743,0.23088000000000003,0.25635,0.590404,0.126617,0.029907,-0.003872,0.046738
482,2.365992,-1.244474,-2.158631,0.22437600000000002,0.9472280000000001,0.228816,0.257431,0.60739,0.140489,0.021993000000000002,-0.00634,0.034276
483,2.360796,-1.245695,-2.176718,0.22474699999999997,0.9476180000000001,0.226825,0.24981,0.5881810000000001,0.155416,0.017319,-0.007097,0.023862
484,2.354604,-1.246668,-2.194845,0.22549299999999997,0.9479290000000001,0.224777,0.23881999999999998,0.525334,0.163965,0.010865000000000001,-0.012092,0.015305000000000001
485,2.347532,-1.2472860000000001,-2.212385,0.22666,0.948125,0.22276700000000002,0.21608000000000002,0.45402700000000007,0.167103,0.008875,-0.013677000000000002,0.010449
486,2.340596,-1.247417,-2.228726,0.228111,0.948167,0.22110300000000002,0.18068199999999998,0.417905,0.173311,0.013222,-0.02292,0.013591999999999998
487,2.335013,-1.246825,-2.2435560000000003,0.229748,0.9479790000000001,0.220216,0.135879,0.43079799999999996,0.184732,0.024753,-0.020793,0.020431
488,2.331552,-1.245466,-2.256765,0.231442,0.9475450000000001,0.220307,0.092248,0.468184,0.197198,0.038013,-0.009694,0.033339999999999995
489,2.329494,-1.243485,-2.269381,0.23325700000000002,0.94691,0.22112199999999999,0.077412,0.508644,0.215202,0.034107,0.003728,0.045617000000000005
490,2.327156,-1.241407,-2.282869,0.23520500000000003,0.94624,0.221926,0.096625,0.519195,0.223869,0.024866,0.002048,0.0417
491,2.323352,-1.239599,-2.29725,0.237296,0.9456540000000001,0.2222,0.116699,0.47014399999999995,0.21873099999999998,0.008965,-0.004369,0.027724000000000002
492,2.3181,-1.23793,-2.311847,0.239617,0.94511,0.222023,0.12176500000000001,0.404104,0.212441,-0.005898,-0.011699,0.009774
493,2.312353,-1.236479,-2.325894,0.2419,0.944635,0.221568,0.128075,0.36686599999999997,0.195442,-0.022188999999999997,-0.014947,0.006520999999999999
494,2.306837,-1.235423,-2.3393610000000002,0.243858,0.9442870000000001,0.2209,0.13558599999999998,0.357329,0.176278,-0.028663,-0.017925999999999997,0.015290999999999999
495,2.301977,-1.2347780000000002,-2.352036,0.245381,0.944075,0.22011799999999998,0.13672,0.351019,0.15492999999999998,-0.03272,-0.017072999999999998,0.022634
496,2.297834,-1.234489,-2.363687,0.246495,0.9439799999999999,0.219281,0.134606,0.33512800000000004,0.134639,-0.033437,-0.013361000000000001,0.032656
497,2.294151,-1.234304,-2.374295,0.247432,0.9439190000000001,0.218487,0.12065,0.302209,0.120697,-0.032588,-0.012308,0.033054
498,2.291243,-1.234142,-2.383322,0.24818099999999998,0.943865,0.217867,0.102389,0.26290399999999997,0.10886900000000001,-0.025265,-0.010683,0.035977999999999996
499,2.288646,-1.233951,-2.391188,0.24888200000000002,0.943802,0.21734099999999998,0.089486,0.225725,0.093872,-0.022625,-0.005966,0.039632
500,2.286236,-1.233797,-2.398046,0.24951399999999999,0.943751,0.216836,0.079783,0.191716,0.082097,-0.021639,-0.006144,0.041175
501,2.2840380000000002,-1.233743,-2.404144,0.250029,0.943733,0.21631999999999998,0.075458,0.166216,0.069281,-0.021269,-0.003288,0.041279
502,2.282039,-1.233855,-2.40959,0.250381,0.9437700000000001,0.21575100000000003,0.076501,0.146032,0.054359000000000005,-0.025054,-0.002578,0.044824
503,2.279859,-1.2342090000000001,-2.414677,0.250596,0.943887,0.21498699999999998,0.07966799999999999,0.12158800000000002,0.037321,-0.026811,0.001883,0.047937
504,2.277517,-1.23492,-2.419311,0.250587,0.9441219999999999,0.21396199999999999,0.09236,0.080066,0.020371,-0.029258999999999997,-0.001998,0.056485
505,2.274052,-1.2362520000000001,-2.42354,0.250367,0.9445600000000001,0.21227800000000002,0.10703299999999999,-0.021016,-0.022126,-0.049301,0.0024920000000000003,0.052233
506,2.2699380000000002,-1.2376559999999999,-2.425432,0.250221,0.9450200000000001,0.210392,0.047656,-0.17952200000000001,-0.025542,-0.106148,-0.0006389999999999999,0.029033999999999997
507,2.262721,-1.238321,-2.4270959999999997,0.251249,0.9452370000000001,0.208179,0.051099,-0.33942100000000003,-0.001812,-0.147276,-0.01172,0.041988
508,2.252702,-1.239295,-2.42948,0.252608,0.9455549999999999,0.20507199999999998,0.077363,-0.425817,0.002755,-0.195723,0.049837,0.071112
509,2.239891,-1.239074,-2.432741,0.255378,0.945483,0.201948,0.019985,-0.52079,0.093275,-0.222358,-0.0023829999999999997,0.028856
510,2.225448,-1.238834,-2.436851,0.258449,0.9454049999999999,0.198378,0.070434,-0.518571,0.027395,-0.100215,0.05426,0.047288
511,2.213561,-1.241009,-2.440102,0.259142,0.946111,0.19405899999999998,0.136352,-0.396037,-0.036395,-0.004763,-0.015356,0.044711
512,2.2032540000000003,-1.24472,-2.445056,0.258295,0.947306,0.189301,0.19830799999999998,-0.207434,-0.102434,0.078573,-0.027583,0.040069
513,2.197611,-1.249853,-2.449716,0.255417,0.948938,0.18498499999999998,0.203043,0.031583,-0.205256,0.14572100000000002,-0.032175,0.020215
514,2.2041880000000003,-1.2551889999999999,-2.4468900000000002,0.250108,0.950608,0.18366,0.06782200000000001,0.28470700000000004,-0.251391,0.19080999999999998,-0.050263,-0.033437
515,2.220631,-1.260106,-2.438638,0.243329,0.9521229999999999,0.184916,0.047602,0.500097,-0.284923,0.264331,-0.022588,-0.000849
516,2.2399869999999997,-1.265405,-2.4306520000000003,0.23574299999999998,0.953729,0.18645799999999998,0.07915,0.642705,-0.277408,0.297719,-0.051859,0.021838999999999997
517,2.26001,-1.270559,-2.424246,0.228165,0.955266,0.18801099999999998,0.089035,0.73841,-0.244344,0.313202,-0.078649,0.05088
518,2.2823189999999998,-1.274194,-2.417506,0.221282,0.956335,0.19078499999999998,0.0038450000000000003,0.836461,-0.18204,0.29290900000000003,-0.058874,0.067928
519,2.305734,-1.274732,-2.410437,0.216373,0.956492,0.19556800000000002,-0.082012,0.823575,-0.08221,0.205411,-0.00857,0.062214
520,2.325921,-1.272789,-2.4053169999999997,0.21373499999999998,0.955923,0.20117000000000002,-0.13204200000000002,0.733775,0.040401,0.104548,-0.0018219999999999998,0.039491000000000005
521,2.339974,-1.2685629999999999,-2.404467,0.21378699999999998,0.954674,0.20696199999999998,-0.15441,0.617284,0.153626,-0.0014,-0.0485,0.0169
522,2.348321,-1.262995,-2.407031,0.215838,0.953002,0.212466,-0.172592,0.483729,0.26797,-0.088961,-0.063628,0.022443
523,2.3496810000000004,-1.256653,-2.41292,0.219846,0.9510620000000001,0.21700100000000003,-0.153328,0.28223400000000004,0.29079499999999997,-0.13383299999999998,0.016636,0.02624
524,2.348693,-1.250807,-2.418108,0.224018,0.9492389999999999,0.220683,-0.137766,0.140673,0.247288,-0.171482,0.070628,0.051183
525,2.343502,-1.2465629999999999,-2.424269,0.22804499999999997,0.947895,0.22232800000000003,-0.034865,-0.035274,0.202299,-0.190432,0.066204,0.05599199999999999
526,2.331548,-1.2447219999999999,-2.4338610000000003,0.23195,0.947307,0.22078899999999999,0.089411,-0.203835,0.156381,-0.19957,0.0033759999999999997,0.055899000000000004
527,2.314963,-1.24498,-2.445313,0.23539899999999997,0.94739,0.216746,0.164875,-0.33061,0.092977,-0.163972,-0.018343,0.043523
528,2.298286,-1.2470290000000002,-2.454514,0.237531,0.948044,0.21149899999999996,0.177428,-0.44864799999999994,0.030191000000000003,-0.12041900000000001,-0.014403999999999998,0.029589999999999998
529,2.282396,-1.250191,-2.4607069999999998,0.23859,0.949045,0.20573899999999998,0.177318,-0.538931,-0.035924,-0.07767,0.003378,0.018642
530,2.268032,-1.254204,-2.464414,0.238598,0.9503020000000001,0.199844,0.171094,-0.5504220000000001,-0.087227,-0.032162,0.001114,0.020112
531,2.255579,-1.258652,-2.466951,0.237792,0.951677,0.194181,0.17376,-0.47144300000000006,-0.126834,0.018632,-0.014284,0.033922
532,2.246068,-1.263147,-2.468989,0.23628600000000002,0.953048,0.18923399999999999,0.160639,-0.324311,-0.146342,0.059659000000000004,-0.027052999999999997,0.038044999999999995
533,2.240618,-1.267363,-2.4699299999999997,0.23416199999999998,0.9543159999999999,0.185447,0.131423,-0.178265,-0.146733,0.071075,-0.03531,0.042732
534,2.2387479999999997,-1.2710190000000001,-2.469388,0.23176599999999997,0.9554020000000001,0.182846,0.09336599999999999,-0.095062,-0.141765,0.06362899999999999,-0.032093,0.052369000000000006
535,2.239062,-1.273759,-2.4672169999999998,0.22965100000000002,0.956208,0.181294,0.046372000000000003,-0.091762,-0.127142,0.040735,-0.031495,0.054362
536,2.24032,-1.275533,-2.4633830000000003,0.22809200000000002,0.9567260000000001,0.18053,0.007696,-0.140672,-0.116667,0.021054,-0.016464,0.056241
537,2.241022,-1.276685,-2.458756,0.22710100000000003,0.95706,0.180005,-0.010814,-0.20990599999999998,-0.10282100000000001,0.019694999999999997,-0.007123999999999999,0.057635000000000006
538,2.2399,-1.2776100000000001,-2.454666,0.226609,0.9573280000000001,0.179201,-0.002625,-0.27071999999999996,-0.086663,0.028076,-0.012838999999999998,0.058485
539,2.236465,-1.278491,-2.4521319999999998,0.226559,0.9575819999999999,0.177901,0.024916999999999998,-0.301761,-0.073612,0.054477,-0.014009,0.054933
540,2.230325,-1.280226,-2.45225,0.226333,0.958081,0.17548699999999998,0.080437,-0.291306,-0.07216900000000001,0.060776,-0.017849,0.05823099999999999
541,2.22149,-1.282546,-2.455692,0.226106,0.958743,0.17213399999999998,0.149903,-0.2681,-0.074918,0.084899,-0.027483999999999998,0.064926
542,2.209635,-1.2857809999999998,-2.463222,0.22563899999999998,0.959657,0.16759100000000002,0.212035,-0.21185700000000002,-0.074556,0.103799,-0.04236,0.07484099999999999
543,2.1951419999999997,-1.2893629999999998,-2.474493,0.225252,0.960658,0.16229200000000002,0.25911100000000004,-0.168401,-0.060396000000000005,0.11559900000000001,-0.040569,0.076173
544,2.1781479999999998,-1.292893,-2.489185,0.22519,0.961633,0.156504,0.286898,-0.13025899999999999,-0.032477,0.121154,-0.037728,0.074255
545,2.158805,-1.295892,-2.5069150000000002,0.225775,0.9624510000000001,0.150518,0.296451,-0.10380999999999999,0.004943,0.124582,-0.020587,0.063364
546,2.138663,-1.297878,-2.525933,0.227149,0.962988,0.14491199999999999,0.267531,-0.08365299999999999,0.050649,0.117654,-0.018042,0.043930000000000004
547,2.119103,-1.298562,-2.5448560000000002,0.229377,0.963173,0.140099,0.233334,-0.049632,0.097368,0.100243,-0.012565,0.041618
548,2.100198,-1.298208,-2.563754,0.23227899999999999,0.9630770000000001,0.13591,0.21405900000000003,-0.032652999999999995,0.130327,0.06464199999999999,-0.008029999999999999,0.03273
549,2.0809759999999997,-1.29734,-2.582765,0.23557899999999998,0.962843,0.131829,0.206447,-0.053975,0.140983,0.026430000000000002,-0.005186,0.015983
550,2.061267,-1.2962,-2.601856,0.239101,0.962535,0.12767799999999999,0.210594,-0.072134,0.149581,-0.011165000000000001,0.006551,0.008034
551,2.039905,-1.29528,-2.622287,0.242563,0.9622850000000001,0.12294200000000001,0.24359,-0.09565900000000001,0.143432,-0.04867,0.017665,0.001463
552,2.016986,-1.2947600000000001,-2.643774,0.245768,0.9621430000000001,0.117567,0.262775,-0.11272,0.13077,-0.066126,0.007873,0.001574
553,1.993687,-1.294959,-2.665936,0.248265,0.962198,0.11173,0.29713,-0.09779299999999999,0.097876,-0.07936599999999999,-0.003625,0.0023899999999999998
554,1.9692290000000001,-1.2961479999999999,-2.689032,0.24986999999999998,0.962521,0.105182,0.320668,-0.12540199999999999,0.055346000000000006,-0.08448,-0.004681,0.003582
555,1.943501,-1.2982870000000002,-2.712713,0.250575,0.9630989999999999,0.097969,0.354774,-0.16693,0.021455000000000002,-0.07516,-0.005243,0.000999
556,1.91545,-1.301736,-2.7383290000000002,0.250096,0.9640209999999999,0.08978,0.40415700000000004,-0.15303599999999998,-0.032697000000000004,-0.032475,-0.006639,0.001544
557,1.8847900000000002,-1.305519,-2.767819,0.24925999999999998,0.9650200000000001,0.080944,0.44291800000000003,-0.090255,-0.048530000000000004,-0.018516,-0.0037770000000000004,0.009404000000000001
558,1.852673,-1.309743,-2.799646,0.247813,0.9661190000000001,0.071763,0.46874399999999994,-0.063624,-0.07081699999999999,0.00173,0.010764,0.025374
559,1.8185380000000002,-1.3141610000000001,-2.8335779999999997,0.24597600000000003,0.96725,0.062216999999999995,0.480455,-0.072174,-0.073929,0.012355,0.031025999999999998,0.034524
560,1.7833310000000002,-1.3174549999999998,-2.868873,0.244898,0.9680799999999999,0.052847000000000005,0.474102,-0.021181000000000002,-0.033446,0.026846,0.073683,0.051614
561,1.747986,-1.32003,-2.905863,0.244157,0.968722,0.043720999999999996,0.469113,0.038561,-0.050649,0.002455,0.004224,0.055812
562,1.719423,-1.323325,-2.937262,0.242146,0.969535,0.036257,0.394104,0.130728,-0.12393,-0.0028120000000000003,-0.008582,0.040785
563,1.6933610000000001,-1.3268799999999998,-2.967451,0.23958400000000002,0.9704,0.029512,0.39851,0.16478900000000002,-0.12073800000000001,0.008249,-0.001467,0.05700499999999999
564,1.6667610000000002,-1.329573,-2.9980860000000003,0.237683,0.971046,0.022879,0.365159,0.140254,-0.083552,0.017154,0.01635,0.066781
565,1.644573,-1.331282,-3.023063,0.23647800000000002,0.971453,0.017478,0.280479,0.079718,-0.056291999999999995,0.015781,-0.003237,0.088418
566,1.6274680000000001,-1.3325850000000001,-3.042196,0.235477,0.9717620000000001,0.013359000000000001,0.212133,0.068226,-0.05355,0.031445,-0.022726,0.080086
567,1.616174,-1.3338649999999999,-3.055348,0.23437,0.9720629999999999,0.010642,0.134372,0.088764,-0.060529,0.03835,-0.016038999999999998,0.07181599999999999
568,1.610994,-1.335382,-3.063405,0.232947,0.972418,0.009369,0.097459,0.158237,-0.086512,0.036691,0.025919,0.059921
569,1.608198,-1.337704,-3.070621,0.230715,0.972957,0.008633,0.11398499999999999,0.219123,-0.142022,-0.01375,0.005422,0.042316
570,1.6019510000000001,-1.340123,-3.080883,0.22841,0.973513,0.007118000000000001,0.1083,0.171085,-0.11209000000000001,-0.043321,0.009581000000000001,0.03112
571,1.598661,-1.34233,-3.087694,0.22628099999999998,0.974015,0.006307,0.090135,0.148842,-0.128212,-0.048820999999999996,0.000533,0.036402
572,1.59248,-1.344992,-3.096522,0.22372199999999998,0.974614,0.004852,0.12208800000000002,0.11367000000000001,-0.151444,-0.035719,2.6000000000000002e-05,0.017655
573,1.583925,-1.348182,-3.1077310000000002,0.22064299999999998,0.975324,0.002897,0.12958,0.114726,-0.155666,-0.025651,-0.001309,0.008471
574,1.57637,-1.3513190000000002,-3.1181419999999997,0.21759499999999998,0.9760110000000001,0.001213,0.11468199999999999,0.12754400000000002,-0.151514,-0.011798999999999999,-0.006148,0.02076
575,1.5639120000000002,-1.354904,-3.132431,0.21409,0.976786,-0.001474,0.183789,0.052819000000000005,-0.1723,-0.016337,-0.010157,0.021844
576,1.545441,-1.358365,3.1309169999999997,0.210644,0.9775209999999999,-0.005342,0.224291,0.040972,-0.175207,-0.01231,-0.017774,0.034624
577,1.524778,-1.361716,3.109442,0.20721399999999998,0.9782219999999999,-0.009542,0.23264400000000002,0.0036450000000000002,-0.171896,-0.003631,-0.019344999999999998,0.024572
578,1.499741,-1.36491,3.0845380000000002,0.203791,0.97888,-0.014505,0.244164,-0.050699,-0.178155,0.011007,-0.008772,0.018793
579,1.477293,-1.367887,3.0633369999999998,0.200511,0.979484,-0.018803,0.187304,-0.103833,-0.161392,0.010824,-0.00457,0.013005000000000001
580,1.454948,-1.370384,3.04315,0.19760999999999998,0.979985,-0.022996,0.199828,-0.138077,-0.133487,0.008062999999999999,-0.004429,0.032075
581,1.431114,-1.372249,3.0218220000000002,0.195196,0.9803540000000001,-0.027444,0.199708,-0.151976,-0.120652,-0.010366,-0.007026,0.019174
582,1.406862,-1.37385,3.00073,0.192925,0.980669,-0.031913,0.19301400000000002,-0.20314200000000002,-0.10674600000000001,-0.010186,-0.014847999999999998,-0.000298
583,1.383264,-1.3751440000000001,2.981386,0.19087,0.9809209999999999,-0.03622,0.16397899999999999,-0.244625,-0.09728200000000001,-0.006605,-0.016276,-0.006917
584,1.3643319999999999,-1.376049,2.967337,0.189281,0.9810969999999999,-0.039645,0.114731,-0.25309499999999996,-0.067705,0.013753,-0.021838,0.009219
585,1.3467719999999999,-1.376479,2.95515,0.188143,0.9811799999999999,-0.042868,0.107774,-0.337386,-0.028120999999999997,0.005079,-0.028879000000000002,0.009452
586,1.3311709999999999,-1.376401,2.946647,0.187529,0.981165,-0.045817000000000004,0.072538,-0.3288,-0.013423,0.00345,-0.017113999999999997,0.001429
587,1.3243850000000001,-1.376,2.94544,0.187596,0.981087,-0.047185000000000005,-0.023273,-0.237035,0.031724,-0.010884,-0.017464,-0.007181999999999999
588,1.320337,-1.375541,2.942197,0.18784,0.9809979999999999,-0.048055,0.080603,0.064166,0.009631,0.009304,0.006917,0.057012
589,1.312463,-1.3743370000000001,2.931942,0.18859700000000001,0.980764,-0.049833999999999996,0.097673,0.085326,0.031087,-0.030088999999999998,0.025355000000000003,-0.004487
590,1.307082,-1.3741809999999999,2.925887,0.188475,0.980733,-0.050889,0.055027,0.019719,-0.041766000000000005,-0.036742000000000004,0.069712,-0.004912
591,1.294505,-1.3756389999999998,2.9122,0.186443,0.981017,-0.052864999999999995,0.155897,0.038986,-0.15218099999999998,-0.08903,0.087907,0.026391
592,1.2771629999999998,-1.378183,2.891241,0.183107,0.981507,-0.05536699999999999,0.13685799999999998,0.281,-0.184671,-0.101869,0.063445,0.0924
593,1.264869,-1.382075,2.871593,0.178766,0.982245,-0.056462,0.12467400000000001,0.341011,-0.262813,-0.098611,0.067361,0.041477999999999994
594,1.248126,-1.386688,2.848786,0.173493,0.9831,-0.058008000000000004,0.119091,0.266538,-0.281984,-0.104019,0.032861,0.0319
595,1.2328569999999999,-1.3910959999999999,2.828577,0.168495,0.9838969999999999,-0.059212,0.095131,0.196159,-0.243606,-0.12107000000000001,0.018285,0.001946
596,1.217075,-1.394723,2.809831,0.164188,0.9845389999999999,-0.060627,0.10409000000000002,0.101125,-0.195351,-0.137515,0.026905000000000002,-0.025051
597,1.1944219999999999,-1.397052,2.78517,0.160638,0.984944,-0.063487,0.21700999999999998,0.088909,-0.168909,-0.110909,0.030269,-0.016531
598,1.155042,-1.3977680000000001,2.7425349999999997,0.157368,0.985068,-0.069476,0.38579,0.146867,-0.157123,-0.073063,-0.01142,-0.011151000000000001
599,1.106832,-1.397361,2.691445,0.154198,0.9849979999999999,-0.07716,0.391554,0.046544,-0.115293,-0.037208,-0.038648,-0.0555
600,1.067869,-1.395527,2.653524,0.152659,0.9846799999999999,-0.083979,0.29217,-0.12503,-0.013218,-0.023707,-0.05577000000000001,-0.029973000000000003
601,1.044956,-1.3930870000000002,2.632996,0.152774,0.984251,-0.088661,0.184038,-0.14408800000000002,0.051213,0.006207,-0.05769199999999999,0.006157
602,1.023361,-1.391178,2.6141520000000003,0.15242999999999998,0.9839120000000001,-0.092919,0.201266,-0.139763,0.020349000000000003,0.038198,-0.004298,-0.008079000000000001
603,1.0084790000000001,-1.38932,2.599555,0.152577,0.9835780000000001,-0.096151,0.112599,0.054497000000000004,0.002389,0.094463,0.016071000000000002,0.037145
604,1.0043870000000001,-1.388456,2.5934169999999996,0.152898,0.9834219999999999,-0.09723,0.06151,0.089795,0.010533,0.324397,-0.03457,0.107682
605,0.9996860000000001,-1.388059,2.586995,0.15276800000000001,0.98335,-0.098159,0.053219,0.112323,-0.021601,0.155826,-0.015790000000000002,0.12107799999999999
606,0.997274,-1.388476,2.57977,0.152186,0.983426,-0.098304,0.051121,0.300051,-0.07954,0.04746,0.008014,0.0886
607,0.9907020000000001,-1.389099,2.564209,0.151023,0.9835379999999999,-0.098966,0.134406,0.5257069999999999,-0.10595299999999999,0.004815,0.022106999999999998,0.10918900000000001
608,0.9837299999999999,-1.389209,2.5438169999999998,0.150239,0.983558,-0.09995599999999999,0.145846,0.703543,-0.099692,0.026914999999999998,-0.0022960000000000003,0.07964700000000001
609,0.98265,-1.38945,2.52969,0.14993399999999998,0.9836020000000001,-0.099987,0.05764,0.573763,-0.069163,-0.024461,0.00088,0.01199
610,0.983815,-1.390007,2.520664,0.149593,0.9837020000000001,-0.099508,0.077526,0.479983,-0.07745,-0.155193,0.030565,-0.062403
611,0.973736,-1.39001,2.5008209999999997,0.148581,0.9837030000000001,-0.10101,0.181098,0.468027,-0.10768900000000001,-0.172171,0.025865,-0.060779
612,0.957382,-1.389566,2.474479,0.147266,0.9836229999999999,-0.10367699999999999,0.205612,0.45412700000000006,-0.11604600000000001,-0.150806,0.02187,-0.0297
613,0.943881,-1.389614,2.453864,0.145814,0.9836309999999999,-0.105628,0.121577,0.297722,-0.090795,-0.082063,0.023815,0.018027
614,0.932739,-1.389573,2.4365669999999997,0.14466099999999998,0.9836239999999999,-0.10727,0.127926,0.304018,-0.072599,-0.031639,0.017734,0.041749
615,0.922406,-1.3893520000000001,2.418524,0.143718,0.983584,-0.108891,0.12084600000000001,0.41579499999999997,-0.047155,0.061909000000000006,-0.009036,0.054798
616,0.919834,-1.389106,2.408056,0.14363,0.98354,-0.10940699999999999,0.037137,0.35517,0.001477,-0.015944999999999997,0.011501,0.014283
617,0.9237690000000001,-1.389114,2.4060479999999997,0.144053,0.983541,-0.10883499999999999,0.011154,0.27216399999999996,0.00247,-0.067118,0.025507,0.000544
618,0.925952,-1.3889209999999999,2.403178,0.144441,0.983506,-0.108635,0.045245,0.241233,-0.017549000000000002,-0.06564500000000001,0.013396000000000002,-0.007729000000000001
619,0.92435,-1.3883969999999999,2.396773,0.144678,0.983411,-0.109176,0.082598,0.22626500000000002,-0.035431,-0.041392,-0.001813,0.001586
620,0.9176270000000001,-1.387865,2.385628,0.14435599999999998,0.9833149999999999,-0.110464,0.10494,0.202789,-0.044857999999999995,-0.025963,0.000664,0.014776
621,0.908954,-1.387451,2.373151,0.143714,0.983239,-0.11196199999999999,0.09408,0.16658199999999998,-0.038479,-0.019736,0.009192,0.028176
622,0.902423,-1.387139,2.3635200000000003,0.14322000000000001,0.983182,-0.11308800000000001,0.06296399999999999,0.14743399999999998,-0.018375,-0.022904,0.019686000000000002,0.054097000000000006
623,0.9005629999999999,-1.386953,2.35858,0.143152,0.9831479999999999,-0.11346700000000001,0.022413,0.154994,-0.009054000000000001,-0.014641999999999999,0.017203,0.048678
624,0.902789,-1.387038,2.357297,0.14333800000000002,0.9831639999999999,-0.113096,-0.0009519999999999999,0.183817,-0.003913000000000001,-0.007825,0.018911,0.034025
625,0.908331,-1.3874739999999999,2.359293,0.143625,0.983243,-0.112036,-0.040507999999999995,0.171151,0.001168,-0.016199,0.011996,0.027563
626,0.9174629999999999,-1.388295,2.365695,0.143999,0.9833930000000001,-0.11022799999999999,-0.084508,0.122267,0.009469,-0.026079,0.007864,0.017531
627,0.929367,-1.38932,2.375838,0.14449,0.9835780000000001,-0.1079,-0.108199,0.079713,0.015767,-0.024327,0.008319,0.022405
628,0.9418860000000001,-1.390401,2.387673,0.144966,0.983773,-0.105455,-0.10956300000000001,0.021097,0.02331,-0.051200999999999997,0.008964,0.038195
629,0.951017,-1.391239,2.3973,0.145251,0.983923,-0.103648,-0.077788,-0.038635,0.015063,-0.065875,0.014521000000000001,0.036555000000000004
630,0.9545239999999999,-1.391713,2.402289,0.145233,0.984007,-0.102868,-0.034219,-0.087748,0.004748,-0.069168,0.014466999999999999,0.033044
631,0.953727,-1.392,2.4037479999999998,0.14491700000000002,0.984059,-0.102818,-0.011973000000000001,-0.12404100000000001,0.003882,-0.055394000000000006,0.002987,0.021748
632,0.950845,-1.392098,2.403927,0.144542,0.9840760000000001,-0.10317899999999999,0.004881,-0.172037,0.004061,-0.043726999999999995,0.001245,0.023986
633,0.9451350000000001,-1.391866,2.402272,0.14413499999999999,0.984035,-0.10413599999999999,0.02595,-0.220096,0.01602,-0.028443,-0.003932,0.025324
634,0.938866,-1.391351,2.400712,0.143887,0.983943,-0.10533599999999999,0.027949,-0.23931999999999998,0.026741,-0.009076,-0.000773,0.028783
635,0.932667,-1.390706,2.399137,0.14374,0.983828,-0.106603,0.030101999999999997,-0.223396,0.038486,0.002424,0.0010810000000000001,0.040731
636,0.930753,-1.389818,2.401414,0.144236,0.983668,-0.1074,-0.004013,-0.19673,0.059578,0.010549,0.0065969999999999996,0.050134
637,0.9340860000000001,-1.38911,2.409148,0.145154,0.98354,-0.107333,-0.049071,-0.232869,0.078538,0.017856,0.009531999999999999,0.056597
638,0.9405030000000001,-1.3886399999999999,2.421082,0.146214,0.983455,-0.106672,-0.080288,-0.28075300000000003,0.09226799999999999,0.021481,0.001438,0.052076
639,0.950463,-1.388118,2.436826,0.14768499999999998,0.983361,-0.10550799999999999,-0.10806500000000001,-0.267958,0.11342200000000001,0.012272,-0.000786,0.048837
640,0.9651299999999999,-1.387643,2.456871,0.149601,0.983274,-0.10359600000000001,-0.147529,-0.248714,0.13021300000000002,0.014965000000000001,0.00049,0.051869000000000005
641,0.983826,-1.387143,2.481314,0.15192,0.983183,-0.10105399999999999,-0.161614,-0.288114,0.138711,-0.003803,0.003496,0.050852
642,0.9993629999999999,-1.386624,2.503531,0.1539,0.983088,-0.098957,-0.14465,-0.327525,0.122857,-0.015212999999999999,0.011632,0.039737
643,1.0109270000000001,-1.386128,2.521922,0.155446,0.9829969999999999,-0.097429,-0.11678699999999999,-0.32114499999999996,0.10167899999999999,-0.025991000000000004,0.01653,0.02855
644,1.020977,-1.38575,2.538351,0.15673399999999998,0.982928,-0.096055,-0.10273499999999999,-0.300872,0.081455,-0.014963999999999998,0.017315999999999998,0.042878
645,1.0281639999999999,-1.385522,2.5517790000000002,0.157612,0.982886,-0.095042,-0.097353,-0.30190900000000004,0.069743,-0.00774,0.013727000000000001,0.043635
646,1.03548,-1.3854790000000001,2.565343,0.158339,0.982878,-0.093908,-0.10690699999999999,-0.29865,0.06219500000000001,-5.9999999999999995e-05,0.008623,0.04453
647,1.043563,-1.385902,2.5793909999999998,0.15873199999999998,0.9829559999999999,-0.092415,-0.127038,-0.27723600000000004,0.052413,0.023763,0.006775,0.046318
648,1.054574,-1.3865370000000001,2.595988,0.159196,0.983072,-0.090353,-0.156824,-0.260079,0.050046,0.023055000000000003,0.00495,0.036153
649,1.068868,-1.387394,2.615776,0.15973199999999999,0.9832290000000001,-0.087662,-0.186696,-0.258913,0.050904000000000005,0.022824,-0.000273,0.038560000000000004
650,1.086735,-1.3883379999999998,2.639306,0.160452,0.983401,-0.084363,-0.217707,-0.265235,0.06031,0.02775,-0.001772,0.035764
651,1.107634,-1.389219,2.6659990000000002,0.161403,0.98356,-0.080604,-0.23804,-0.270525,0.06872,0.02924,-0.00028399999999999996,0.039603
652,1.1305379999999998,-1.389983,2.694664,0.162525,0.983698,-0.076565,-0.24869899999999998,-0.259869,0.077178,0.028789999999999996,-0.0037939999999999996,0.052105
653,1.1536959999999998,-1.390432,2.723273,0.163849,0.983778,-0.072601,-0.22944699999999998,-0.24397800000000003,0.082633,0.032425,-0.0032329999999999998,0.067261
654,1.174798,-1.390415,2.749284,0.16535899999999998,0.983775,-0.069134,-0.201594,-0.20895999999999998,0.092397,0.031006,-0.004695,0.075863
655,1.192813,-1.389967,2.7713259999999997,0.166986,0.9836950000000001,-0.06630599999999999,-0.149035,-0.162207,0.076681,0.029058999999999998,0.010965,0.10105
656,1.204227,-1.389509,2.784376,0.168151,0.983612,-0.064557,-0.081218,-0.045195,0.059913,-0.03543,-0.001389,0.068387
657,1.21299,-1.3888639999999999,2.7953919999999997,0.169303,0.9834959999999999,-0.063303,-0.057987000000000004,-0.10915,0.049475,-0.034446,0.020716,0.063043
658,1.215937,-1.388087,2.799055,0.170207,0.983355,-0.063069,0.021569,0.007826000000000001,0.031721,-0.023631,0.002531,0.095403
659,1.211804,-1.387186,2.794046,0.170774,0.983191,-0.064084,0.09224600000000001,0.047070999999999995,0.012936000000000001,-0.026655,0.005075,0.078137
660,1.20094,-1.3862459999999999,2.781483,0.170931,0.9830190000000001,-0.06626900000000001,0.150154,0.093818,-0.005947,-0.030427999999999997,0.005934,0.076706
661,1.1862700000000002,-1.385471,2.7639970000000003,0.170646,0.982876,-0.06905499999999999,0.18243800000000002,0.141699,-0.01967,-0.028114,0.008579,0.067835
662,1.1718870000000001,-1.384725,2.74645,0.170312,0.9827389999999999,-0.071788,0.16109600000000002,0.130098,-0.030486000000000003,-0.023873,0.012912999999999999,0.027812
663,1.1595440000000001,-1.384588,2.732107,0.169536,0.982713,-0.073938,0.11604300000000001,0.056828,-0.049935,-0.033825,0.042128,-0.042349
664,1.150073,-1.384966,2.722779,0.168488,0.982783,-0.075389,0.05036,-0.06867999999999999,-0.041687,-0.036576,0.025167,-0.086751
665,1.146571,-1.385525,2.722893,0.167722,0.982886,-0.075751,-0.040162,-0.243177,-0.015390000000000001,0.024081,-0.004279,-0.059335
666,1.144958,-1.38604,2.7270119999999998,0.16713699999999998,0.982981,-0.075812,-0.0287,-0.28484,0.003971,0.090462,-0.037943,0.00041900000000000005
667,1.141705,-1.385858,2.72808,0.167052,0.9829479999999999,-0.07643,-0.001602,-0.16466,0.029644,0.103914,-0.052818,0.022154
668,1.141224,-1.385207,2.729565,0.167597,0.982828,-0.076777,-0.022599,-0.059244000000000005,0.059272000000000005,0.057027999999999995,-0.0022670000000000004,0.059092
669,1.149017,-1.384524,2.7378869999999997,0.168803,0.982701,-0.075744,-0.082079,0.002738,0.061982,0.040379000000000005,0.017054,0.07159299999999999
670,1.165617,-1.384319,2.754169,0.170221,0.982664,-0.07301,-0.162983,0.044558,0.0635,0.027913999999999998,0.033892,0.076504
671,1.18902,-1.3841780000000001,2.776998,0.172011,0.9826370000000001,-0.06905800000000001,-0.191747,0.038334,0.047281000000000004,-0.008971,0.028761000000000002,0.058758000000000005
672,1.20645,-1.384554,2.7943849999999997,0.172842,0.982707,-0.06591699999999999,-0.121334,0.010502,0.020035,-0.027714999999999997,0.021917,0.040755
673,1.2138360000000001,-1.3848530000000001,2.801138,0.173049,0.9827620000000001,-0.064536,-0.016345,0.059329999999999994,-0.027364,-0.050276,0.016017,-0.025887
674,1.212647,-1.385471,2.798125,0.172401,0.982876,-0.064528,0.030832,0.091205,-0.047372000000000004,-0.024467,0.0044740000000000005,-0.028901
675,1.212346,-1.3862809999999999,2.796643,0.17163599999999998,0.983025,-0.064301,-0.020718,0.02636,-0.036967,-0.002416,-0.002053,-0.015456999999999999
676,1.218002,-1.387237,2.803627,0.17111400000000002,0.9832,-0.06300399999999999,-0.10476300000000001,-0.11944400000000001,0.0010890000000000001,0.06581000000000001,-0.024613,0.021317
677,1.229152,-1.387845,2.8190180000000002,0.171241,0.983311,-0.060890999999999994,-0.16093,-0.229147,0.044635,0.070779,-0.024174,0.029794
678,1.240795,-1.387883,2.835411,0.171903,0.983318,-0.058880999999999996,-0.127795,-0.20480399999999999,0.055517,0.049395,-0.021556,0.041212
679,1.249133,-1.3875629999999999,2.846775,0.17268499999999998,0.98326,-0.057545000000000006,-0.07391,-0.09840800000000001,0.04187,0.024458,-0.012801,0.057133
680,1.2556610000000001,-1.386874,2.854144,0.173702,0.9831340000000001,-0.056627,-0.040415,-0.006903,0.03985,-0.003582,-0.0013830000000000001,0.063829
681,1.261256,-1.386092,2.85915,0.174749,0.982991,-0.055889,-0.020891,0.05485399999999999,0.030294,-0.009771,0.008373,0.08391900000000001
682,1.265463,-1.385519,2.861621,0.175519,0.982885,-0.055322,-0.00249,0.10277,0.019679,-0.008877,0.008265,0.082162
683,1.268019,-1.385023,2.862193,0.176124,0.9827940000000001,-0.055018,0.012398000000000001,0.089943,0.017662999999999998,-0.018134,0.0019320000000000001,0.060114
684,1.268106,-1.3845969999999999,2.860788,0.17653,0.982715,-0.055127999999999996,0.03151,0.06327,0.011420999999999999,-0.0141,0.003583,0.043012
685,1.265728,-1.384274,2.857434,0.176703,0.982655,-0.055643,0.043116,0.030223000000000003,0.007271,-0.00643,0.003704,0.021342
686,1.2637129999999999,-1.383983,2.855343,0.17686300000000002,0.9826010000000001,-0.056086000000000004,0.016196000000000002,-0.020834000000000002,0.011422,0.005556,-0.000393,0.012903
687,1.2641870000000002,-1.383686,2.856951,0.177169,0.9825459999999999,-0.05609,-0.013997999999999998,-0.077248,0.026238,0.013536000000000001,-0.002565,0.017531
688,1.266091,-1.3833360000000001,2.861082,0.177601,0.9824809999999999,-0.055854999999999995,-0.034508,-0.125135,0.031497000000000004,0.019740999999999998,-0.001875,0.028252
689,1.269475,-1.3831719999999998,2.867445,0.17794200000000002,0.98245,-0.055302,-0.06339,-0.15162799999999999,0.021716,0.01264,0.015047,0.015078999999999999
690,1.275326,-1.383466,2.87669,0.177985,0.982505,-0.054175,-0.099639,-0.163151,0.004386,0.014122999999999998,0.014504,0.011939
691,1.284701,-1.384101,2.889406,0.177885,0.9826229999999999,-0.052328,-0.133726,-0.151314,0.004132,0.021501,0.013134999999999999,0.018331
692,1.298618,-1.3845020000000001,2.906342,0.17821700000000001,0.9826969999999999,-0.049741,-0.16145,-0.128923,0.023138,0.055166,-0.01883,0.062437
693,1.3124200000000001,-1.3845459999999998,2.923336,0.178844,0.982706,-0.047266,-0.144572,-0.150373,0.044648,0.047672000000000006,-0.021036000000000003,0.086038
694,1.324898,-1.3840700000000001,2.9387790000000003,0.179875,0.982617,-0.045145,-0.125306,-0.12067699999999999,0.060767999999999996,0.033320999999999996,-0.00639,0.107294
695,1.336458,-1.383291,2.952269,0.18112899999999998,0.9824719999999999,-0.04324,-0.100505,-0.064295,0.058732000000000006,0.008721,0.010676999999999999,0.11314
696,1.346144,-1.382586,2.962825,0.182213,0.982341,-0.041637,-0.070326,-0.019563999999999998,0.035385,-0.017098,0.025258000000000003,0.10795199999999999
697,1.353164,-1.382356,2.969723,0.182722,0.982298,-0.040406,-0.04328,0.027358999999999998,-0.0008060000000000001,-0.039366000000000005,0.030733,0.091584
698,1.356761,-1.382952,2.972445,0.182293,0.982409,-0.039624,-0.008819,0.049806,-0.049732,-0.051601999999999995,0.024717,0.063458
699,1.3559620000000001,-1.3842940000000001,2.9705880000000002,0.180971,0.9826590000000001,-0.039488,0.024416,0.050896,-0.084753,-0.045885,0.018104,0.05255
700,1.351783,-1.386003,2.9652939999999997,0.179161,0.982974,-0.039878,0.043657999999999995,0.048741,-0.09529800000000001,-0.024071000000000002,0.012218999999999999,0.052252999999999994
701,1.346143,-1.387737,2.958736,0.177268,0.983291,-0.040507,0.047830000000000004,0.033787,-0.08884,-0.010320999999999999,0.001129,0.060985000000000004
702,1.33975,-1.389263,2.951658,0.175542,0.983568,-0.041296,0.049877,0.027337,-0.075999,-0.001042,-0.0011,0.068868
703,1.333992,-1.39059,2.9449520000000002,0.174031,0.983807,-0.041999,0.044624000000000004,0.052891999999999995,-0.068591,0.0008349999999999999,-0.001248,0.06691699999999999
704,1.329312,-1.391741,2.938687,0.172729,0.9840120000000001,-0.042541,0.049031,0.086953,-0.065399,-0.004912,0.007504,0.061904999999999995
705,1.324035,-1.392819,2.931186,0.171471,0.9842040000000001,-0.043193,0.05559,0.116779,-0.070733,-0.007606999999999999,0.011844,0.062449
706,1.318567,-1.3940549999999998,2.922739,0.170052,0.9844219999999999,-0.043825,0.07183300000000001,0.156194,-0.08455700000000001,-0.018059,0.014205,0.052141
707,1.3108600000000001,-1.3953360000000001,2.911251,0.168489,0.9846459999999999,-0.04481,0.094433,0.192364,-0.091923,-0.009720999999999999,0.008258,0.048563999999999996
708,1.3015,-1.3965020000000001,2.897602,0.166953,0.984849,-0.046079,0.111546,0.207197,-0.08648099999999999,-0.000541,0.000655,0.044447
709,1.289986,-1.397422,2.88158,0.16553800000000002,0.985008,-0.047747000000000005,0.132888,0.215615,-0.078865,0.0023239999999999997,0.000572,0.041841
710,1.277533,-1.398133,2.8644849999999997,0.164259,0.985131,-0.049601,0.13500299999999998,0.219834,-0.07031,0.00281,-0.002846,0.034816
711,1.266094,-1.398643,2.848292,0.163201,0.985218,-0.051326,0.125392,0.22728600000000002,-0.060773,0.005118999999999999,0.000286,0.034801
712,1.256258,-1.398936,2.833657,0.162412,0.985268,-0.052839,0.11467999999999999,0.228346,-0.050167,0.004321,-0.000893,0.034207999999999995
713,1.2475459999999998,-1.399111,2.820136,0.161781,0.985298,-0.054197,0.109331,0.229413,-0.045932,0.004723,0.00161,0.035886
714,1.238967,-1.399222,2.806641,0.161207,0.985317,-0.055547000000000006,0.113642,0.240046,-0.044848,0.000384,0.00481,0.037404
715,1.229708,-1.399298,2.792173,0.160614,0.9853299999999999,-0.057012,0.12226300000000001,0.256008,-0.048013,0.000732,0.001578,0.03275
716,1.2196040000000001,-1.3992879999999999,2.776537,0.16003900000000001,0.9853290000000001,-0.058635,0.13297,0.267676,-0.044748,0.002909,-0.001778,0.030039999999999997
717,1.2090319999999999,-1.3991280000000001,2.760328,0.159558,0.985301,-0.060379999999999996,0.134027,0.269786,-0.040471,0.0069310000000000005,-0.003215,0.029464999999999998
718,1.200156,-1.398814,2.745777,0.159304,0.985247,-0.061905999999999996,0.12332,0.272972,-0.028799,0.005796,-0.004077,0.02887
719,1.192169,-1.398395,2.732241,0.159189,0.985176,-0.063329,0.1179,0.261243,-0.021344,0.0020210000000000002,0.002343,0.027562
720,1.183993,-1.397826,2.718817,0.159186,0.9850780000000001,-0.06484,0.12100899999999999,0.248419,-0.013829,-0.003546,0.0020280000000000003,0.029089
721,1.1757309999999999,-1.3970209999999998,2.7055029999999998,0.159378,0.9849389999999999,-0.066459,0.130529,0.23770300000000003,-0.006271,-0.008423,0.00047400000000000003,0.026938
722,1.166359,-1.3959840000000001,2.69122,0.159689,0.984759,-0.068352,0.141151,0.23231500000000002,-0.0008460000000000001,-0.009863,0.0032020000000000004,0.030251
723,1.156418,-1.3947319999999999,2.676391,0.160132,0.984541,-0.070434,0.149653,0.23225500000000002,0.006691,-0.011496,0.0033439999999999998,0.032438999999999996
724,1.1456389999999999,-1.39336,2.6608330000000002,0.16059600000000002,0.9842989999999999,-0.072713,0.15814,0.22263400000000003,0.007831,-0.012754000000000001,0.00772,0.031347
725,1.134709,-1.391966,2.64528,0.16103800000000001,0.984052,-0.075045,0.152791,0.21627399999999997,0.0045969999999999995,-0.015134,0.007281,0.029742
726,1.125249,-1.3907260000000001,2.631366,0.161423,0.9838309999999999,-0.077092,0.13673,0.20460699999999998,0.005568,-0.015534000000000001,0.011271,0.030612999999999998
727,1.117336,-1.389571,2.619526,0.16183,0.9836239999999999,-0.078865,0.114168,0.172715,0.008656,-0.025417,0.007984,0.027351
728,1.110954,-1.3886479999999999,2.610089,0.162138,0.983457,-0.080299,0.096095,0.13045,0.005293,-0.015119,0.010394,0.021629
729,1.104241,-1.387832,2.6009130000000003,0.16231199999999998,0.983309,-0.081747,0.09068,0.107054,-5.6000000000000006e-05,-0.012333,0.00688,0.022588
730,1.099304,-1.38725,2.593856,0.162415,0.983203,-0.08280599999999999,0.059712,0.099709,-0.0013310000000000002,-0.012222,0.006954999999999999,0.020138
731,1.096231,-1.386894,2.588533,0.16247,0.983137,-0.083465,0.056574,0.11463,-0.000304,0.000478,0.00551,0.034408
732,1.093375,-1.386428,2.5834770000000002,0.16263699999999998,0.983052,-0.084138,0.047918999999999996,0.093333,0.005004,0.001258,0.00468,0.031221
733,1.0914709999999999,-1.385958,2.580295,0.16288699999999998,0.982966,-0.084661,0.029547000000000004,0.045443,0.00921,-0.005676,0.004308,0.028722
734,1.0908799999999998,-1.385675,2.579129,0.16308399999999998,0.982914,-0.084886,0.014477,0.01885,0.012343999999999999,-0.009626000000000001,0.002163,0.020677
735,1.092119,-1.385465,2.580405,0.163373,0.982875,-0.084779,-0.016638999999999998,-0.015151,0.017511000000000002,-0.0076879999999999995,-0.0005139999999999999,0.020967
736,1.096026,-1.385394,2.5852619999999997,0.163766,0.9828620000000001,-0.084172,-0.044627,-0.060899,0.026987999999999998,-0.002389,0.0028399999999999996,0.040501999999999996
737,1.101343,-1.385327,2.592332,0.164268,0.98285,-0.083329,-0.060812,-0.090713,0.037596,-0.002982,0.004790999999999999,0.054795
738,1.1075059999999999,-1.385278,2.600535,0.164819,0.982841,-0.082336,-0.065108,-0.096029,0.038641,-0.0036409999999999997,0.00509,0.06762699999999999
739,1.11332,-1.385258,2.6082560000000004,0.16530999999999998,0.9828370000000001,-0.081384,-0.05966900000000001,-0.0811,0.030114,-0.0047420000000000006,0.005093,0.06261599999999999
740,1.118623,-1.385365,2.614953,0.16564600000000002,0.982857,-0.080461,-0.052023,-0.055504,0.016247,-0.013607,0.014838999999999998,0.062242
741,1.122287,-1.385629,2.619634,0.165705,0.9829049999999999,-0.07973999999999999,-0.033767,-0.043789999999999996,0.001405,-0.022791,0.013706999999999999,0.06364199999999999
742,1.123995,-1.385946,2.622207,0.16555999999999998,0.982964,-0.079323,-0.016649,-0.041685,-0.007024,-0.016009,0.005531,0.06027999999999999
743,1.123753,-1.386128,2.62284,0.16538,0.9829969999999999,-0.079286,0.003602,-0.044956,-0.00581,-0.013311000000000002,0.0029649999999999998,0.05230800000000001
744,1.1213030000000002,-1.3861620000000001,2.621394,0.165156,0.9830030000000001,-0.079676,0.022758,-0.056736,-0.00673,-0.013147999999999998,0.002653,0.042094
745,1.117049,-1.386103,2.61844,0.16486800000000001,0.982993,-0.080404,0.035479000000000004,-0.074891,-0.0066170000000000005,-0.006925,0.005472,0.034276999999999995
746,1.111859,-1.385872,2.614867,0.164652,0.98295,-0.081359,0.040708,-0.090918,0.000917,-0.002482,-0.00023799999999999998,0.040313
747,1.106644,-1.385461,2.61157,0.16458599999999998,0.982875,-0.082397,0.03954,-0.104797,0.009473,0.003582,-0.005396,0.042327
748,1.10218,-1.384895,2.609178,0.164712,0.98277,-0.08338200000000001,0.034148000000000005,-0.10801199999999998,0.019053,0.00492,-0.006406,0.044762
749,1.0985639999999999,-1.384311,2.607671,0.164919,0.982662,-0.084237,0.025627999999999998,-0.10478699999999999,0.018989,-0.000597,0.003865,0.03695
750,1.095761,-1.383937,2.606894,0.165008,0.982593,-0.084866,0.016087999999999998,-0.102576,0.00717,-0.002303,0.015683000000000002,0.02905
751,1.093116,-1.383879,2.606445,0.164832,0.982582,-0.085328,0.0021809999999999998,-0.12165899999999999,-0.003585,-0.0008609999999999999,0.016625,0.018769
752,1.091715,-1.384085,2.6081689999999997,0.16453199999999998,0.98262,-0.085465,-0.022606,-0.176967,-0.0036880000000000003,-0.000592,0.01146,0.02327
753,1.090439,-1.384384,2.6108860000000003,0.164163,0.982675,-0.08553999999999999,-0.027018,-0.20784899999999998,-0.002611,0.0044009999999999995,-0.000589,0.028013999999999997
754,1.089599,-1.384703,2.614317,0.16381300000000001,0.982735,-0.08553200000000001,-0.039839,-0.206761,0.002639,0.011937,-0.008034,0.037833
755,1.091782,-1.385095,2.620268,0.163656,0.982807,-0.084996,-0.066372,-0.167287,0.010948999999999999,0.014887000000000001,-0.006611,0.058034
756,1.09748,-1.385545,2.629049,0.163743,0.9828899999999999,-0.08386,-0.086546,-0.137423,0.019316,0.0072310000000000004,0.009038,0.068968
757,1.1044100000000001,-1.386001,2.638754,0.163918,0.982974,-0.082521,-0.084355,-0.126769,0.017181000000000002,-0.012490000000000001,0.020169,0.060716
758,1.108783,-1.386371,2.6455740000000003,0.16395,0.983042,-0.08164,-0.042599,-0.109806,0.001428,-0.034785,0.024221,0.049214999999999995
759,1.107383,-1.386644,2.645922,0.16359500000000002,0.983092,-0.08175,0.018505,-0.072624,-0.025967,-0.040182,0.024873,0.035989
760,1.100614,-1.38689,2.640063,0.162823,0.983137,-0.082746,0.060314,-0.043943,-0.041735,-0.015286000000000001,0.008135,0.027997
761,1.092702,-1.387092,2.6329380000000002,0.161987,0.983174,-0.08394,0.051712,-0.050339,-0.033241,0.010864,-0.003743,0.028856
762,1.0878889999999999,-1.387198,2.6294150000000003,0.16149000000000002,0.983193,-0.08467100000000001,0.013059999999999999,-0.079069,-0.007837,0.023096000000000002,-0.009301,0.031662
763,1.086865,-1.387335,2.630226,0.16128399999999998,0.983218,-0.084774,-0.013774000000000002,-0.092914,0.014426,0.034898,-0.008136,0.041056999999999996
764,1.0882,-1.387254,2.6332139999999997,0.161468,0.983203,-0.084596,-0.020104,-0.069485,0.021828999999999998,0.019943000000000002,0.000653,0.036545999999999995
765,1.089948,-1.3871229999999999,2.635885,0.16172999999999998,0.9831790000000001,-0.084373,-0.014534,-0.026855,0.0122,0.015455000000000002,0.005438,0.040122000000000005
766,1.0909520000000001,-1.387089,2.636945,0.16184400000000002,0.983173,-0.084226,-0.002569,0.010443000000000001,-0.0016510000000000001,0.009558,0.007794,0.043407999999999995
767,1.092083,-1.3870040000000001,2.63758,0.16201400000000002,0.983158,-0.084082,0.0060810000000000005,0.028553,-0.009092,0.008121,0.0043,0.051427999999999995
768,1.091791,-1.3870149999999999,2.63654,0.16197999999999999,0.98316,-0.084124,0.011459,0.041305,-0.005866,0.008811,0.004084,0.052828
769,1.091378,-1.386941,2.635167,0.162011,0.983146,-0.084225,0.017889,0.048735,-0.004762,0.007559000000000001,0.001549,0.052212
770,1.0911950000000001,-1.386836,2.6339599999999996,0.162088,0.9831270000000001,-0.084303,0.020027,0.048732,-0.005816,0.003058,0.006055,0.046583
771,1.090036,-1.386762,2.631653,0.162055,0.9831129999999999,-0.084524,0.023285,0.058321000000000005,-0.009009999999999999,0.002846,0.006541,0.042776
772,1.088574,-1.3867040000000002,2.6288669999999996,0.161983,0.9831030000000001,-0.084788,0.027596,0.06577100000000001,-0.011126,0.001957,0.005468,0.043422
773,1.087713,-1.3866209999999999,2.6264060000000002,0.161984,0.983088,-0.084966,0.033888,0.08274,-0.011233,-0.004848,0.013174000000000002,0.044698
774,1.0855860000000002,-1.3865239999999999,2.622329,0.161886,0.9830700000000001,-0.085355,0.039313,0.098718,-0.015488,-0.002462,0.012398000000000001,0.046002
775,1.083097,-1.386396,2.617625,0.16178199999999998,0.9830459999999999,-0.085815,0.045772,0.11254000000000002,-0.014393000000000001,-0.001946,0.008820999999999999,0.041092000000000004
776,1.081256,-1.3861729999999999,2.613141,0.16181700000000002,0.9830049999999999,-0.086215,0.050112000000000004,0.13380899999999998,-0.009049,0.00394,0.002987,0.031467
777,1.078544,-1.3858190000000001,2.6075880000000002,0.161888,0.9829399999999999,-0.08681799999999999,0.056532000000000006,0.138047,-0.009009,-0.002388,0.006423999999999999,0.034710000000000005
778,1.0760450000000001,-1.385515,2.6020950000000003,0.161934,0.982885,-0.087364,0.051254999999999995,0.14766600000000002,-0.012263,-0.006065,0.008708,0.0373
779,1.07477,-1.385342,2.597741,0.161972,0.9828530000000001,-0.087652,0.042725,0.1477,-0.013391,-0.00502,0.004071,0.038411
780,1.07369,-1.385182,2.593709,0.16201500000000002,0.982823,-0.08790099999999999,0.036281,0.141318,-0.010223000000000001,-0.004605,0.004894,0.040553
781,1.072913,-1.385041,2.5901099999999997,0.16206700000000002,0.9827969999999999,-0.08809299999999999,0.034113,0.13493,-0.009162,-0.0062450000000000006,0.005362,0.046299
782,1.0724360000000002,-1.384934,2.586951,0.162115,0.982777,-0.088219,0.029822,0.129618,-0.009184999999999999,-0.011206,0.008083,0.044289
783,1.0719370000000001,-1.384873,2.583759,0.162123,0.982766,-0.088328,0.028779000000000002,0.13176600000000002,-0.0124,-0.009017,0.006843000000000001,0.045711
784,1.071785,-1.384866,2.5809580000000003,0.162114,0.982765,-0.08835499999999999,0.025555,0.12645,-0.012415,-0.008092,0.005181,0.040977
785,1.071664,-1.384844,2.578402,0.16212100000000002,0.9827610000000001,-0.088384,0.024416,0.113658,-0.009202,-0.008678,0.008054,0.039189999999999996
786,1.071179,-1.384771,2.575752,0.16214,0.9827469999999999,-0.088497,0.024353,0.10193200000000001,-0.007051000000000001,-0.00792,0.004863,0.037807
787,1.071218,-1.384707,2.573815,0.162198,0.982735,-0.08852,0.020028,0.092346,-0.003865,-0.009015,0.0058969999999999995,0.037174
788,1.071374,-1.38466,2.572275,0.162253,0.982727,-0.088518,0.014632,0.07851699999999999,-0.003885,-0.011664,0.00647,0.039705000000000004
789,1.071812,-1.384624,2.5712029999999997,0.162323,0.98272,-0.088464,0.010256999999999999,0.071181,-0.002833,-0.012055,0.00782,0.0411
790,1.07245,-1.3846889999999998,2.570507,0.162324,0.9827319999999999,-0.08832999999999999,0.008095,0.062675,-0.004973,-0.014466,0.009868,0.043483999999999995
791,1.072977,-1.384699,2.5697970000000003,0.16236199999999998,0.982734,-0.08824,0.006998999999999999,0.05947,-0.001772,-0.015939,0.005853,0.042265
792,1.073256,-1.384622,2.568998,0.162454,0.98272,-0.08823099999999999,0.0112,0.049846,0.00361,-0.014551,0.002907,0.040227
793,1.073496,-1.384503,2.568365,0.162578,0.982698,-0.08824800000000001,0.014338,0.038109,0.005784,-0.015880000000000002,0.009414,0.04183
794,1.073185,-1.384308,2.5674069999999998,0.16272,0.982661,-0.08839,0.015362,0.028517,0.005803,-0.017287999999999998,0.008458,0.043148
795,1.072491,-1.384101,2.566239,0.16283599999999998,0.9826229999999999,-0.0886,0.015319,0.018930000000000002,0.005815,-0.016656999999999998,0.008725,0.043082999999999996
796,1.071951,-1.3839190000000001,2.565454,0.162946,0.9825889999999999,-0.088774,0.01052,0.006295,0.005894,-0.012754000000000001,0.009170999999999999,0.041792
797,1.071799,-1.383775,2.565327,0.163056,0.982562,-0.088866,0.005118,-0.006478,0.008009,-0.013337,0.008893,0.042662
798,1.071911,-1.383691,2.56573,0.16314,0.982547,-0.088888,-0.000273,-0.019243,0.007987000000000001,-0.010964,0.006131,0.039647
799,1.072285,-1.3836540000000002,2.566626,0.163205,0.98254,-0.088844,-0.003522,-0.029883999999999997,0.007978,-0.009992000000000001,0.00594,0.041298
