,attitude.roll,attitude.pitch,attitude.yaw,gravity.x,gravity.y,gravity.z,rotationRate.x,rotationRate.y,rotationRate.z,userAcceleration.x,userAcceleration.y,userAcceleration.z
0,1.62239,-1.260485,1.275449,0.30494299999999996,0.9522379999999999,0.015747,0.03978,0.031195999999999998,0.007863,-0.000408,0.0015429999999999999,-0.009644
1,1.620846,-1.260411,1.2730350000000001,0.305037,0.952216,0.015280000000000002,0.03611,0.042083999999999996,0.004144,0.003404,-0.0035619999999999996,-0.00524
2,1.619486,-1.260364,1.270624,0.305103,0.952202,0.014866999999999998,0.036154,0.051672,0.0041329999999999995,0.007245000000000001,0.002052,0.004527000000000001
3,1.618485,-1.260332,1.268429,0.305148,0.952192,0.014563,0.0287,0.054894000000000005,0.004076,0.00218,0.006533,0.005106
4,1.617682,-1.260307,1.266625,0.305184,0.952184,0.014319,0.02437,0.038938,0.00193,-5.4000000000000005e-05,0.007761,-0.0032259999999999997
5,1.61638,-1.2602879999999999,1.264651,0.30522,0.9521780000000001,0.013923,0.030728,0.028267,0.0009199999999999999,-0.000532,0.0070799999999999995,-0.010795
6,1.615149,-1.260263,1.262567,0.305261,0.9521709999999999,0.013548,0.031876,0.047434,0.001972,0.0014869999999999998,0.008309,-0.011976
7,1.614414,-1.2602149999999999,1.260575,0.305318,0.952156,0.013326,0.032996,0.060209000000000006,0.003031,0.0036420000000000003,-0.002846,-0.005268999999999999
8,1.61386,-1.260192,1.2587709999999999,0.305347,0.952149,0.013158000000000001,0.022313,0.058112,0.004028,-0.000171,0.000793,0.012034999999999999
9,1.6141290000000001,-1.260181,1.257762,0.30535500000000004,0.9521459999999999,0.01324,0.011668000000000001,0.060292,0.000746,-0.002483,0.0037259999999999997,0.01212
10,1.614456,-1.260238,1.2571459999999999,0.305296,0.9521629999999999,0.013337,0.0038520000000000004,0.041122000000000006,-0.003965,-0.000746,0.010865000000000001,-0.00995
11,1.614642,-1.260308,1.2566950000000001,0.30522699999999997,0.952184,0.013392,0.008048,0.025128,-0.003915,-0.002462,0.011256,-0.018213
12,1.6143889999999999,-1.260375,1.256001,0.305167,0.952205,0.013312000000000001,0.014425,0.019778999999999998,-0.003863,0.001275,0.0045520000000000005,-0.016531
13,1.614157,-1.260464,1.255154,0.305086,0.952232,0.013237,0.016611,0.032551,-0.002796,0.006651000000000001,0.0022199999999999998,-0.00023700000000000001
14,1.6138940000000002,-1.260548,1.254163,0.30500900000000003,0.9522579999999999,0.013153,0.013411000000000001,0.033623,-0.0017519999999999999,0.002532,0.004072,0.001861
15,1.613905,-1.2606389999999998,1.253599,0.304923,0.952285,0.013153,0.002704,0.023016,-0.00395,0.001199,0.0038759999999999997,-0.0009460000000000001
16,1.614028,-1.2606629999999999,1.253465,0.304898,0.9522930000000001,0.013189,-0.003764,0.011308,-0.000775,0.002445,0.005089,-0.0074670000000000005
17,1.614422,-1.260612,1.253577,0.304942,0.952277,0.013312000000000001,-0.00054,0.018744999999999998,0.001374,0.002034,0.004815,-0.013861000000000002
18,1.614645,-1.260586,1.253266,0.304964,0.952269,0.013381,0.007744,0.031883,0.001052,0.00099,0.0046700000000000005,-0.013259
19,1.614707,-1.260637,1.2527270000000001,0.30491399999999996,0.952285,0.013397999999999998,0.006653,0.022316,-0.0032159999999999997,-0.0019210000000000002,0.003159,-0.000779
20,1.6146459999999998,-1.260756,1.25254,0.304802,0.9523209999999999,0.013374,0.000156,-0.003211,-0.007502,0.002098,0.002696,0.0028309999999999997
21,1.6149120000000001,-1.260851,1.252789,0.304709,0.95235,0.013451,-0.008341,0.008524,-0.004371,0.006143,0.005993,0.005058
22,1.615679,-1.260856,1.253139,0.304693,0.9523520000000001,0.013685,-0.00935,0.027676999999999997,0.002006,-3.6e-05,0.00886,0.0015279999999999998
23,1.616775,-1.2608540000000001,1.25383,0.30468,0.9523510000000001,0.014019,-0.012603,0.01491,0.000932,-0.005562,0.008846,-0.0036880000000000003
24,1.61752,-1.260853,1.254629,0.30467,0.9523510000000001,0.014246,-0.009493999999999999,-0.007464,-0.0011539999999999999,-0.002653,0.003948,-0.012445
25,1.6178780000000001,-1.2608489999999999,1.254979,0.304669,0.95235,0.014355000000000001,-0.0023469999999999997,0.010523999999999999,-0.002514,0.00246,0.000562,-0.008679000000000001
26,1.618717,-1.260845,1.255321,0.304661,0.952348,0.014611,-0.006533,0.03077,-0.000433,-0.000172,0.002424,0.006141
27,1.619585,-1.2609190000000001,1.255692,0.304577,0.952371,0.014872,-0.005509,0.019057,-0.002547,-0.005993,0.006751000000000001,0.0050100000000000006
28,1.6198270000000001,-1.261049,1.255819,0.30445,0.952411,0.014939,-0.0045049999999999995,0.0009609999999999999,-0.006790000000000001,-0.002722,0.009381,-0.007814
29,1.619757,-1.261212,1.255891,0.304296,0.9524600000000001,0.01491,-0.003471,-0.008621,-0.008907,0.000926,0.005227000000000001,-0.011706
30,1.6199299999999999,-1.261348,1.25615,0.304164,0.9525020000000001,0.014957,-0.003438,0.002018,-0.005716,0.005268999999999999,0.0020570000000000002,-0.008456
31,1.620527,-1.261408,1.256558,0.304098,0.95252,0.015135,-0.004457,0.016919,-0.001469,0.00445,0.006129,-1.4000000000000001e-05
32,1.621321,-1.261422,1.256888,0.30407199999999995,0.9525239999999999,0.015375999999999999,-0.009748,0.029708,0.0016820000000000001,-0.000865,0.006872,0.0033770000000000002
33,1.622578,-1.2613729999999999,1.257602,0.30409899999999995,0.952509,0.015761,-0.012972,0.025454,0.0027329999999999998,-0.003211,0.007833,-0.000502
34,1.623464,-1.261358,1.2583010000000001,0.30409899999999995,0.9525049999999999,0.016031,-0.011606,0.001552,-0.002822,-0.000983,0.010981,-0.010019
35,1.623891,-1.261341,1.258982,0.304109,0.9525,0.016162,-0.009563,-0.014450999999999999,0.001485,0.0054009999999999996,0.012451,-0.010759999999999999
36,1.624215,-1.26131,1.2593889999999999,0.304133,0.95249,0.016262000000000002,-0.003076,0.00364,0.000439,0.003973,0.0035340000000000002,-0.008892
37,1.624477,-1.261333,1.2594239999999999,0.304106,0.9524969999999999,0.01634,0.0012439999999999999,0.014282,-0.000612,-4.4e-05,-0.0013859999999999999,-0.003843
38,1.6246180000000001,-1.261336,1.259327,0.304101,0.952498,0.016383,-0.0009279999999999999,0.007889,0.001517,0.002082,0.005403,-0.008631999999999999
39,1.6246129999999999,-1.261275,1.2593889999999999,0.30416,0.9524790000000001,0.016385,-0.007411,-0.008076,0.003629,0.008020000000000001,0.00562,-0.011502
40,1.625438,-1.2611569999999999,1.260432,0.304258,0.952443,0.016641999999999997,-0.024480000000000002,-0.004833,0.00671,0.010485,0.0018260000000000001,-0.007929
41,1.627238,-1.260934,1.2621930000000001,0.30444,0.952375,0.017200999999999998,-0.027614,0.014336000000000002,0.010936,-0.000775,0.007936,-0.009541
42,1.6289420000000001,-1.260631,1.263291,0.304698,0.952283,0.017737,-0.009352,0.046213,0.015296,-0.005306,0.017733000000000002,-0.0060490000000000006
43,1.6293090000000001,-1.260327,1.262335,0.304981,0.95219,0.017866,0.028107999999999998,0.070592,0.01339,-0.016971,0.018406,0.011202
44,1.627342,-1.26019,1.2588629999999998,0.30514600000000003,0.952148,0.017273,0.060123,0.062001,0.002942,-0.036698,0.011993,0.026702999999999998
45,1.623497,-1.260546,1.254569,0.304872,0.952257,0.016082,0.063046,-0.029504000000000002,-0.02683,-0.019518,0.018568,0.014161000000000002
46,1.619558,-1.2613860000000001,1.251997,0.304133,0.9525129999999999,0.014842,0.021256,-0.085753,-0.043073,0.021291,-0.0071400000000000005,0.005986
47,1.6201530000000002,-1.2622010000000001,1.2539209999999998,0.303349,0.9527610000000001,0.014985,-0.047966,-0.044021,-0.029723000000000003,0.057689,-0.039751,-0.014985
48,1.6248879999999999,-1.26245,1.258923,0.30303800000000003,0.952837,0.016408000000000002,-0.083,0.022038,-0.0022789999999999998,0.049181,-0.033769,-0.017903
49,1.631145,-1.262094,1.264292,0.303268,0.952729,0.018324,-0.072245,0.07194400000000001,0.028711,0.021043,-0.009049,-0.023663999999999998
50,1.635784,-1.261209,1.2673860000000001,0.304019,0.9524600000000001,0.019785,-0.031699,0.086661,0.042862,-0.007509999999999999,0.024881,-0.023722
51,1.6370360000000002,-1.2602879999999999,1.266896,0.304869,0.9521780000000001,0.020224000000000002,0.023797,0.086484,0.038977,-0.021514,0.038482999999999996,-0.023337
52,1.634665,-1.259484,1.263257,0.30568,0.951932,0.01955,0.058830999999999994,0.026791000000000002,0.017934000000000002,-0.034974,0.041857,-0.0020329999999999997
53,1.629356,-1.259367,1.257876,0.30589099999999997,0.951896,0.017933,0.08540700000000001,-0.020071000000000002,-0.007458,-0.032499,0.014091999999999999,0.020243999999999998
54,1.623027,-1.259955,1.252199,0.305438,0.9520770000000001,0.015968,0.081067,-0.058316,-0.029872000000000003,-0.011432,-0.008198,0.014718
55,1.617949,-1.261015,1.248067,0.304507,0.9524,0.014369,0.048062,-0.047531,-0.034388999999999996,0.03549,-0.019249000000000002,-0.012598999999999999
56,1.616714,-1.261606,1.247196,0.303962,0.95258,0.013966999999999999,-0.004085,-0.002671,-0.018788,0.034356,-0.011266,-0.011129
57,1.6197700000000002,-1.261691,1.249767,0.30383699999999997,0.952606,0.014891999999999999,-0.054127,0.0464,0.0075060000000000005,0.024471,-0.0005639999999999999,-0.010024
58,1.625184,-1.261288,1.2541959999999999,0.304135,0.952483,0.016557,-0.066298,0.06062000000000001,0.022238,-0.005185,0.017472,-0.00229
59,1.6297469999999998,-1.2606950000000001,1.25752,0.30462100000000003,0.952303,0.017979,-0.041698,0.075443,0.023459,-0.014033000000000002,0.016722,-0.003437
60,1.6317549999999998,-1.260175,1.25819,0.305079,0.9521440000000001,0.018619999999999998,0.0009720000000000001,0.059375,0.008822,-0.022165999999999998,0.01415,-0.012578
61,1.630354,-1.260232,1.256341,0.30505,0.952161,0.01819,0.039187,-0.005651,-0.01326,-0.011271999999999999,0.009326000000000001,-0.018494999999999998
62,1.626824,-1.260772,1.253263,0.30459899999999995,0.952326,0.017084000000000002,0.049774,-0.039713,-0.029166,0.003278,0.000982,-0.013849
63,1.623241,-1.2615180000000001,1.250346,0.30395,0.9525530000000001,0.015955,0.041257999999999996,-0.036483,-0.030298000000000002,0.020101,-0.003106,-0.003443
64,1.621314,-1.262026,1.248799,0.303496,0.952708,0.015345,0.012492,-0.010884,-0.01344,0.024506,-0.003489,0.001104
65,1.6215620000000002,-1.2621360000000001,1.248912,0.30338899999999996,0.952741,0.015415,-0.011989,0.018961000000000002,0.003442,0.017641,0.00722,-0.003177
66,1.622955,-1.261858,1.249689,0.303631,0.952657,0.015851,-0.016186000000000002,0.040119999999999996,0.017281,0.004947,0.008708,-0.014158
67,1.624425,-1.26138,1.2504540000000002,0.304062,0.9525110000000001,0.016322,-0.011956,0.033705,0.019455,-0.0065769999999999995,0.008182,-0.015758
68,1.62534,-1.26098,1.25088,0.30442800000000003,0.95239,0.016621,-0.0023829999999999997,0.019853,0.012062,-0.015823,0.009509,-0.0073290000000000004
69,1.625297,-1.2608270000000001,1.250629,0.30457399999999996,0.952343,0.016616,0.007209,0.004957,-0.00067,-0.010003,0.013386000000000002,0.000184
70,1.6243610000000002,-1.260961,1.249775,0.304462,0.952384,0.016324,0.014662,-0.008875,-0.011283,-0.009463,0.009256,0.003848
71,1.623125,-1.261279,1.248642,0.30418,0.9524809999999999,0.015931999999999998,0.015763,-0.004605,-0.014485,-0.0032310000000000004,0.007114,-0.0077069999999999994
72,1.622295,-1.26163,1.247742,0.303859,0.9525879999999999,0.015662,0.011538,0.0071189999999999995,-0.012393000000000001,0.009206,0.004917,-0.007911
73,1.622303,-1.2618639999999999,1.247382,0.303636,0.952659,0.015653,0.003042,0.022037,-0.006062,0.010832,0.002648,-0.002592
74,1.623041,-1.261965,1.247567,0.303529,0.9526889999999999,0.015872,-0.004471,0.032111,-0.0018960000000000001,0.005263,0.002358,-0.002124
75,1.6244020000000001,-1.261963,1.248151,0.30350900000000003,0.9526889999999999,0.016285,-0.009767,0.044896,0.0023239999999999997,0.001667,0.004297,-0.0039109999999999995
76,1.6258059999999999,-1.261916,1.248659,0.303531,0.952674,0.016714,-0.006547,0.047024,0.000207,-0.004718,0.006065999999999999,-0.008261
77,1.626482,-1.261968,1.24858,0.30346999999999996,0.9526899999999999,0.016916,0.006207,0.029961,-0.006091,-0.006122,0.0071790000000000005,-0.011225
78,1.62572,-1.262218,1.247428,0.303245,0.952766,0.016672,0.023234,0.011826,-0.014495,-0.001945,0.007225,-0.01182
79,1.624274,-1.262528,1.245666,0.30297199999999996,0.95286,0.016218,0.028577999999999996,0.013937,-0.014459999999999999,0.007117,0.0045060000000000005,-0.013837
80,1.622718,-1.262792,1.243641,0.302746,0.952941,0.015733,0.029654000000000003,0.022430000000000002,-0.008054,0.009662,0.0032670000000000004,-0.00044400000000000006
81,1.621734,-1.262925,1.241989,0.302636,0.952981,0.015429,0.022169,0.033597,-0.001727,0.009376,0.001609,0.002729
82,1.62147,-1.262936,1.240928,0.302629,0.952984,0.015347999999999999,0.010448,0.040016,0.0013880000000000001,0.005675,0.005222,-0.0043619999999999996
83,1.621408,-1.262848,1.240154,0.302714,0.9529569999999999,0.015334,0.01039,0.031477,0.005671,0.007298999999999999,0.013763,-0.014235
84,1.6211209999999998,-1.262708,1.239166,0.30285100000000004,0.952915,0.015253999999999998,0.016806,0.037834,0.008912999999999999,0.001852,0.010204000000000001,-0.012140999999999999
85,1.620227,-1.262535,1.237088,0.303029,0.9528629999999999,0.014990999999999999,0.040397,0.063322,0.007976,-0.002644,0.007114,-0.0013039999999999998
86,1.618267,-1.2625469999999999,1.233771,0.30304699999999996,0.952866,0.014397,0.051088999999999996,0.055879,-0.004758,-0.016562999999999998,0.003173,0.008812
87,1.617067,-1.2628489999999999,1.231301,0.302777,0.952958,0.01402,0.028747,0.057074,-0.017734,-0.002927,0.008743,-0.002454
88,1.61555,-1.26329,1.2293180000000001,0.302377,0.953091,0.013541999999999998,0.032732,-0.010036,-0.021893,0.014747,0.006488,-0.01876
89,1.6131280000000001,-1.263742,1.22743,0.301978,0.9532280000000001,0.012791,0.020886000000000002,-0.030251999999999998,-0.017677000000000002,0.020089,-0.002636,-0.014225
90,1.61327,-1.264025,1.227378,0.301707,0.953313,0.012822,-0.007825,0.036389,-0.008388,0.010305,-0.012990999999999999,-0.004903
91,1.615235,-1.264038,1.228007,0.301669,0.953317,0.013413999999999999,-0.004471,0.084259,0.005461,0.00279,0.0043549999999999995,0.0030039999999999997
92,1.616916,-1.263865,1.227519,0.301809,0.9532649999999999,0.013928999999999999,0.007418000000000001,0.119368,0.006568000000000001,-0.011251,0.021146,0.023821000000000002
93,1.6191,-1.263774,1.227542,0.30186399999999997,0.9532379999999999,0.014593,-0.009738,0.089642,-0.004196,-0.015655000000000002,0.022180000000000002,0.020197
94,1.620024,-1.263962,1.22804,0.301672,0.9532950000000001,0.014863,-0.003773,-0.021112,-0.0179,-0.009862000000000001,0.014311,-0.006363000000000001
95,1.6180889999999999,-1.2644360000000001,1.227327,0.301249,0.9534379999999999,0.014256999999999999,0.019506,-0.073354,-0.027284,0.002676,0.007529999999999999,-0.015050999999999998
96,1.616,-1.265098,1.226253,0.300648,0.9536370000000001,0.0136,0.017555,-0.037110000000000004,-0.031617,0.012966,-0.011346,-0.017703999999999998
97,1.615437,-1.265719,1.2260030000000002,0.300064,0.953824,0.013404,0.003635,-0.007759,-0.025328,0.029099,-0.010891,-0.023521
98,1.616282,-1.266023,1.226647,0.299762,0.953915,0.013644,-0.017654,0.021005000000000003,-0.007354,0.030926,-0.0068319999999999995,-0.02341
99,1.619132,-1.26593,1.229103,0.299811,0.953887,0.014503,-0.050789,0.025309,0.010569,0.021891,0.005082,-0.024024
100,1.622787,-1.2654290000000001,1.232607,0.30023299999999997,0.9537370000000001,0.015623,-0.05729600000000001,0.012506,0.021222,0.00418,0.000319,-0.029936
101,1.625155,-1.264961,1.2350219999999998,0.30064,0.9535959999999999,0.016359000000000002,-0.029586,-0.000349,0.015022999999999998,0.0017280000000000002,-0.005338,-0.033754
102,1.626123,-1.264793,1.236058,0.300784,0.9535450000000001,0.016659,-0.020950999999999997,-0.00028900000000000003,-0.007349,0.019727,0.002357,-0.028347000000000004
103,1.626689,-1.26488,1.236702,0.300692,0.953571,0.016824000000000002,-0.003871,0.002843,-0.006166,0.015378999999999999,0.020214,-0.017831
104,1.625357,-1.2650219999999999,1.235218,0.300578,0.953614,0.016416,0.036655,-0.0036780000000000003,-0.009079,-0.0009570000000000001,0.000762,-0.004804
105,1.622072,-1.26538,1.2328569999999999,0.30029,0.953722,0.015411000000000001,0.017012,-0.082842,-0.02191,0.009021,-0.022524000000000002,0.012375
106,1.6199299999999999,-1.2656100000000001,1.2329940000000001,0.300102,0.9537909999999999,0.014757,-0.017348,-0.116871,-0.007151,0.007056999999999999,-0.009394,-0.001634
107,1.619286,-1.265392,1.23385,0.300319,0.953725,0.014574,-0.008544,-0.032843000000000004,0.017372,-0.00349,0.0056560000000000004,-0.0028239999999999997
108,1.619634,-1.265034,1.233374,0.300656,0.9536180000000001,0.014695,0.017549000000000002,0.072542,0.014214,-0.060086,0.034328,0.0065450000000000005
109,1.6193620000000002,-1.264968,1.231431,0.300722,0.953598,0.014616,0.035767,0.07149,-0.0048850000000000005,-0.041826999999999996,0.039139,0.007311
110,1.618642,-1.265217,1.2295479999999999,0.30049499999999996,0.953673,0.014388999999999999,0.02395,0.043872,-0.014546000000000002,-0.019093000000000002,0.0338,0.004715
111,1.618383,-1.265533,1.228574,0.300198,0.9537680000000001,0.014296000000000001,0.007871,0.029006,-0.012503,0.013812,-0.003176,-0.00299
112,1.619055,-1.266111,1.228803,0.299638,0.953941,0.014471000000000001,-0.007061,0.017391,-0.025411000000000003,0.015028999999999999,-0.007301,-0.00939
113,1.6204889999999998,-1.266836,1.230215,0.298927,0.954159,0.014866999999999998,-0.025478999999999998,-0.008665,-0.032905000000000004,0.017052,-0.007931,-0.012395
114,1.622416,-1.267514,1.232716,0.29825100000000004,0.954361,0.015409,-0.039473,-0.027825,-0.024432,0.027538999999999998,-0.0008550000000000001,-0.032758999999999996
115,1.624407,-1.267766,1.235322,0.29798,0.9544370000000001,0.01599,-0.036301,-0.022557,-0.012666,0.019952,0.005417,-0.038756
116,1.625572,-1.2677770000000002,1.236983,0.297951,0.95444,0.016337,-0.021389,-0.018387,-0.002954,0.003089,0.004895,-0.022684
117,1.6264299999999998,-1.2676530000000001,1.238099,0.298056,0.9544030000000001,0.016599000000000003,-0.014963999999999998,-0.0035340000000000002,0.006686,-0.002081,0.003452,-0.0155
118,1.627033,-1.267406,1.238261,0.298281,0.9543290000000001,0.016791999999999998,-0.003022,0.042232,0.006711,-0.012301000000000001,0.0034649999999999998,-0.008171
119,1.6272280000000001,-1.267344,1.23757,0.29833699999999996,0.954311,0.016854,0.0034130000000000002,0.039056,-0.003922,-0.003689,0.013371000000000001,-0.016075
120,1.627116,-1.267432,1.237283,0.298255,0.9543370000000001,0.016815,0.004254,-0.012076,-0.004919,0.001656,0.010919,-0.019257
121,1.625944,-1.267517,1.2366549999999998,0.298194,0.954362,0.016461,0.010569,-0.029151,-0.0027170000000000002,0.006661,0.01039,-0.015622
122,1.624284,-1.267626,1.235306,0.298117,0.9543950000000001,0.015961000000000003,0.023053999999999998,-0.010804000000000001,-0.000421,-0.002722,0.00465,0.004837
123,1.622565,-1.267696,1.233574,0.298078,0.9544159999999999,0.015444999999999999,0.024168000000000002,-0.001216,-0.0014939999999999999,-0.006268999999999999,0.002829,0.014386000000000001
124,1.621408,-1.26783,1.23225,0.297967,0.954456,0.015093,0.012514,0.009507999999999999,-0.009067,-0.010553,0.000638,0.015958
125,1.621299,-1.268159,1.23195,0.297655,0.9545540000000001,0.015045,-0.0034549999999999997,0.007470999999999999,-0.01879,-0.005129,0.00237,0.004517
126,1.622306,-1.2686030000000001,1.23309,0.297218,0.954686,0.015323,-0.02485,-0.011603,-0.025324,0.0046159999999999994,0.001369,-0.014804
127,1.624788,-1.269025,1.236102,0.296777,0.9548110000000001,0.016038999999999998,-0.052654999999999993,-0.021115000000000002,-0.020165,0.015906,-0.00043499999999999995,-0.02022
128,1.629313,-1.26919,1.24086,0.296545,0.95486,0.017373,-0.073916,0.012980000000000002,-0.003266,0.016611,0.0010869999999999999,-0.014306000000000001
129,1.634884,-1.2689549999999998,1.2459,0.296667,0.954791,0.019039,-0.07411000000000001,0.05154299999999999,0.012884,0.0066159999999999995,0.004667,-0.013819999999999999
130,1.639953,-1.268458,1.249823,0.297041,0.954643,0.020575,-0.048471,0.069521,0.023722,-0.001615,0.014518999999999999,-0.016089
131,1.642161,-1.2679719999999999,1.250982,0.297458,0.954498,0.021263999999999998,-0.009079,0.045968,0.018686,-0.022632,0.023606,-0.022073
132,1.6419009999999998,-1.267733,1.250213,0.297691,0.954427,0.021203,0.017516,0.013977000000000002,0.003958,-0.018409000000000002,0.020762,-0.023187
133,1.639536,-1.267918,1.2477260000000001,0.297565,0.9544819999999999,0.020487000000000002,0.044177999999999995,-0.008406,-0.016123,-0.001743,0.000657,-0.021463
134,1.636031,-1.268546,1.2445959999999998,0.297036,0.9546690000000001,0.019405000000000002,0.043063,-0.032848,-0.029987,0.015097999999999999,-0.016009,-0.006221
135,1.633183,-1.269324,1.2425110000000001,0.296349,0.9549,0.018512,0.020606,-0.046610000000000006,-0.032262,0.028679000000000003,-0.016087999999999998,0.0057799999999999995
136,1.632247,-1.2699049999999998,1.2425620000000002,0.29581199999999996,0.955073,0.018201,-0.016806,-0.048665,-0.018634,0.032236,-0.006296,0.0022
137,1.633793,-1.270019,1.245091,0.295675,0.9551069999999999,0.018650999999999997,-0.051018,-0.036253,0.00048300000000000003,0.02624,-0.0019210000000000002,-0.004232
138,1.637229,-1.269665,1.2491,0.29594699999999996,0.955001,0.01969,-0.064834,-0.007509999999999999,0.017440999999999998,0.013059000000000001,0.00058,-0.006094
139,1.641275,-1.2690629999999998,1.253126,0.29643800000000003,0.954823,0.020927,-0.05727,0.019074,0.022801,0.003077,0.0011710000000000002,-0.002311
140,1.644498,-1.268484,1.2559040000000001,0.29691999999999996,0.954651,0.021922999999999998,-0.034789,0.032857,0.019736,-0.00122,-0.000458,-0.001537
141,1.646196,-1.2681799999999999,1.257026,0.297172,0.9545600000000001,0.022449,-0.008094,0.025358000000000002,0.0071129999999999995,-0.000953,0.001663,-0.00124
142,1.6456520000000001,-1.268055,1.256318,0.29730300000000004,0.954523,0.022296,0.017415,-0.002403,0.000917,-0.005067,0.011084,-0.008823000000000001
143,1.64383,-1.268073,1.254609,0.297325,0.954528,0.021753,0.026978,-0.010959,0.000995,-0.007301,0.016281999999999998,-0.008341
144,1.642062,-1.26799,1.2529,0.297441,0.9545030000000001,0.021233000000000002,0.019515,-0.001379,0.009476,0.0015550000000000002,0.018946,-0.009133
145,1.641848,-1.267675,1.252243,0.297746,0.9544090000000001,0.021190999999999998,0.0024980000000000002,0.03665,0.022313,-0.007875,0.007077,-0.0062829999999999995
146,1.643271,-1.267203,1.252548,0.298165,0.954268,0.021647,-0.012333,0.06226,0.024313,-0.014108,0.002961,-0.008372
147,1.6454060000000001,-1.2668059999999999,1.2537,0.298496,0.95415,0.022312000000000002,-0.024102000000000002,0.046356,0.015705,-0.013508000000000001,0.004301,-0.015125
148,1.6476060000000001,-1.266636,1.2553,0.298608,0.954099,0.022981,-0.026293,0.020849,0.002904,-0.003106,0.010912999999999999,-0.022951
149,1.649382,-1.2666030000000001,1.257099,0.298599,0.954089,0.023514,-0.029585000000000004,-0.003624,-0.0013599999999999999,0.006241,0.010694,-0.023957
150,1.650871,-1.266689,1.258877,0.298481,0.9541149999999999,0.023952,-0.027489999999999997,-0.015337,-0.004535,0.006862,0.005129,-0.022686
151,1.651511,-1.266836,1.260214,0.29832600000000004,0.954159,0.024132,-0.01906,-0.041985,-0.007647,0.009687999999999999,0.005879,-0.020988
152,1.6510639999999999,-1.2669629999999998,1.260942,0.298216,0.954197,0.023989,-0.009564,-0.062272,-0.00435,0.011675,0.005229999999999999,-0.018266
153,1.6502439999999998,-1.266941,1.261199,0.298257,0.95419,0.023746,-0.009445,-0.042270999999999996,0.0033,0.005515,0.005832,-0.004611
154,1.650282,-1.266746,1.261736,0.298442,0.954132,0.023772,-0.01255,-0.013527,0.010719,0.001302,0.0063479999999999995,0.007188
155,1.6509459999999998,-1.2664799999999998,1.262534,0.298679,0.954052,0.02399,-0.014631,-0.000741,0.011756,-0.003239,0.006016,0.010693000000000001
156,1.651462,-1.2662129999999998,1.263142,0.298921,0.9539719999999999,0.024165,-0.012502,-0.003936,0.009639,-0.0028239999999999997,0.005287,0.001698
157,1.6518529999999998,-1.266032,1.263741,0.299084,0.953918,0.024296,-0.010381999999999999,-0.010322,0.006456999999999999,-0.0005,0.0056619999999999995,-0.006901000000000001
158,1.6520569999999999,-1.265945,1.264235,0.299161,0.953892,0.024364,-0.006115,-0.014581,0.002219,-2.8000000000000003e-05,0.0042840000000000005,-0.008173999999999999
159,1.652355,-1.265898,1.264723,0.299199,0.9538770000000001,0.024457,-0.006062,-0.003924,0.0011380000000000001,0.00085,0.005168,-0.0072900000000000005
160,1.652581,-1.265858,1.2651350000000001,0.29923099999999997,0.953865,0.024527,-0.006104999999999999,-0.01245,0.0022170000000000002,0.005227000000000001,0.00521,-0.002768
161,1.652825,-1.265803,1.265672,0.299277,0.953849,0.024605000000000002,-0.008042,-0.013716999999999998,0.003467,0.008431000000000001,0.004388,-0.0038829999999999997
162,1.6528650000000003,-1.265695,1.265933,0.29937800000000003,0.953817,0.024625,-0.002702,-0.009487,0.006703,0.003967,0.010034999999999999,-0.0048649999999999995
163,1.652454,-1.265548,1.265751,0.299527,0.953772,0.024513,0.00367,-0.013779,0.00889,0.0015279999999999998,0.010781,-0.008995
164,1.6516369999999998,-1.265369,1.265188,0.299717,0.9537190000000001,0.024281999999999998,0.010071,-0.013802000000000002,0.008934000000000001,0.003246,0.010469,-0.009008
165,1.6504849999999998,-1.2651569999999999,1.264245,0.29994699999999996,0.9536549999999999,0.023953,0.015401,-0.012764,0.011106999999999999,0.0006360000000000001,0.00536,-0.006177
166,1.6490810000000002,-1.264983,1.262926,0.300145,0.9536020000000001,0.023545,0.020778,-0.0053170000000000005,0.008998,0.001521,0.0052899999999999996,-0.004227000000000001
167,1.6471049999999998,-1.264904,1.2610379999999999,0.300267,0.9535790000000001,0.022956999999999998,0.030361000000000003,-0.012794,0.00587,0.002025,1.9e-05,-0.001076
168,1.6448310000000002,-1.264853,1.258956,0.300367,0.9535629999999999,0.022278,0.029307999999999997,-0.010656,0.004792,0.003207,-0.007351000000000001,-0.002198
169,1.6429759999999998,-1.264826,1.257132,0.300433,0.9535549999999999,0.021723,0.025345,-0.002234,0.00279,0.004849,0.002301,-0.008783
170,1.641661,-1.264874,1.255774,0.300417,0.953569,0.021325,0.016848,-4.8e-05,-0.0036810000000000002,0.011931,0.002302,-0.007989
171,1.6405869999999998,-1.265016,1.254687,0.300304,0.9536120000000001,0.020993,0.019006,0.001027,-0.007941,0.011021,-0.004302,-0.001431
172,1.63959,-1.2652290000000002,1.253212,0.30012300000000003,0.953676,0.020679,0.024503,0.035105000000000004,-0.010081999999999999,0.008212,-0.006228,0.009869
173,1.638693,-1.265423,1.251374,0.299956,0.953735,0.020397,0.026666000000000002,0.04255,-0.009009,0.013032,3.1e-05,0.010578
174,1.638516,-1.2655610000000002,1.250151,0.299829,0.9537760000000001,0.020335,0.009658,0.061763,-0.003811,0.008399,0.000798,0.010808
175,1.640368,-1.265506,1.250225,0.299844,0.95376,0.020894,-0.008334999999999999,0.104395,0.006691,0.009101,0.003851,0.003672
176,1.6432689999999999,-1.2651860000000001,1.250825,0.300085,0.9536629999999999,0.021786,-0.007229000000000001,0.118218,0.012022,-0.009909000000000001,0.010799,-0.020962
177,1.6461270000000001,-1.265068,1.251636,0.300133,0.953628,0.022652000000000002,-0.016584,0.089388,-0.0018690000000000002,0.005608,-0.001846,-0.032708
178,1.648939,-1.265046,1.253159,0.300089,0.9536209999999999,0.023497999999999998,-0.024201,0.059574,0.0013210000000000001,0.017554,-0.006431999999999999,-0.040649
179,1.6512380000000002,-1.264885,1.254386,0.300187,0.953573,0.0242,-0.016781,0.057383,0.009921,0.005554,0.008234,-0.052596000000000004
180,1.6521919999999999,-1.2648059999999999,1.254248,0.300239,0.953549,0.024492,0.01202,0.047729,0.0015890000000000001,0.002313,0.012607,-0.044663999999999995
181,1.6506759999999998,-1.264972,1.2524110000000002,0.300118,0.953599,0.024024,0.033132,-0.011962,-0.007801000000000001,0.005027,0.018340000000000002,-0.038383
182,1.6471419999999999,-1.265191,1.249682,0.299992,0.953665,0.022948,0.035059,-0.060958000000000005,-0.01093,0.009929,0.018609999999999998,-0.023726
183,1.643001,-1.265417,1.2470299999999999,0.299871,0.9537329999999999,0.02169,0.033877,-0.08546000000000001,-0.009838,0.008662000000000001,0.008761,-0.016181
184,1.639784,-1.26562,1.245254,0.299745,0.953794,0.020711,0.012636,-0.060897,-0.006813,0.005217,-5.9e-05,-0.0048579999999999995
185,1.6391200000000001,-1.2656459999999998,1.245334,0.299734,0.953802,0.020511,-0.011406,-0.021534,0.003607,0.001352,-0.0049039999999999995,-0.002353
186,1.6401080000000001,-1.2655,1.246342,0.29985300000000004,0.953758,0.020817,-0.019787,0.015768,0.006705,5.9e-05,-0.001503,0.001232
187,1.641635,-1.2653,1.247386,0.300012,0.9536979999999999,0.021287999999999998,-0.017605000000000003,0.027474000000000002,0.007773,-0.00271,0.00492,-0.0036490000000000003
188,1.642975,-1.265172,1.24854,0.300106,0.953659,0.021699,-0.017697,0.001929,0.002464,-0.0015220000000000001,0.009216,-0.010681999999999999
189,1.643707,-1.265199,1.249516,0.300063,0.953667,0.021917,-0.012401,-0.0151,-0.006023,0.00557,0.007972,-0.012121
190,1.6438279999999998,-1.265344,1.2499770000000001,0.299923,0.9537110000000001,0.021943,-0.0017219999999999998,-0.014068,-0.007018000000000001,0.010151,0.007608,-0.012589
191,1.6433119999999999,-1.265478,1.249733,0.299806,0.953751,0.021779,0.007859999999999999,-0.01624,-0.004811,0.009901,0.006271,-0.014316999999999998
192,1.6422290000000002,-1.2656,1.249096,0.299714,0.953788,0.021446,0.008879000000000001,-0.026897000000000004,-0.004790999999999999,0.006576,0.0031969999999999998,-0.014351
193,1.641044,-1.265715,1.24843,0.29963,0.953822,0.021083,0.007098999999999999,-0.024659,-0.004893,0.005576,0.002904,-0.010265
194,1.640298,-1.265771,1.248097,0.299592,0.953839,0.020856,0.002846,-0.018265,-0.001726,0.005538,0.003192,-0.009228
195,1.6397529999999998,-1.265774,1.247919,0.299601,0.9538399999999999,0.020692,0.0007030000000000001,-0.018267,0.000395,0.006673999999999999,0.0049,-0.011003
196,1.639327,-1.265723,1.247788,0.299657,0.953825,0.020568,-0.0014119999999999998,-0.011876000000000001,0.002509,0.0024980000000000002,0.004336,-0.010909
197,1.639032,-1.265732,1.2476040000000002,0.299654,0.9538280000000001,0.020479,0.005028,-0.006559000000000001,-0.0006580000000000001,0.00128,0.00447,-0.011583
198,1.6383780000000001,-1.2658280000000002,1.2472020000000001,0.299576,0.9538559999999999,0.020277,0.003942,-0.017183,-0.007061,0.003143,-0.00024300000000000002,-0.012968
199,1.6375540000000002,-1.2659770000000001,1.2468780000000002,0.29945,0.953901,0.02002,0.002832,-0.028888,-0.00919,0.00922,-0.000593,-0.002885
200,1.6367610000000001,-1.266103,1.246621,0.299347,0.953939,0.019775,0.00498,-0.022517,-0.005979,0.004929,-0.00038700000000000003,0.001847
201,1.635907,-1.266202,1.2460209999999998,0.299269,0.9539690000000001,0.019513,0.009391,-0.009584,-0.005018,0.002076,0.004298,-0.005215999999999999
202,1.634903,-1.266319,1.245211,0.299178,0.9540040000000001,0.019205,0.010443000000000001,-0.013845,-0.006074,0.003922999999999999,0.007803,-0.009867
203,1.6339489999999999,-1.266424,1.2444879999999998,0.299097,0.9540350000000001,0.018914,0.010448,-0.010657999999999999,-0.003941,0.0022489999999999997,0.005147,-0.011895000000000001
204,1.633545,-1.266481,1.2440129999999998,0.29905,0.954052,0.01879,0.0052049999999999996,0.010662,-0.002937,0.002967,0.000705,-0.009055
205,1.633721,-1.266527,1.243814,0.299003,0.954066,0.01884,0.00098,0.021325,-0.001912,0.0011220000000000002,-0.0006360000000000001,-0.0052899999999999996
206,1.63419,-1.266575,1.243926,0.298948,0.954081,0.018977,-0.0011769999999999999,0.013884,-0.004054,0.000505,0.002539,-0.007731
207,1.633987,-1.26664,1.243693,0.29889,0.9541,0.018912,0.004071,-0.004248,-0.002926,0.005582999999999999,0.005556,-0.017875
208,1.633672,-1.266746,1.2435260000000001,0.298795,0.954132,0.018812,0.0008609999999999999,-0.007428,-0.004012,0.010379000000000001,0.008927,-0.020368
209,1.633466,-1.266838,1.243488,0.298711,0.954159,0.018744999999999998,-0.00021099999999999998,-0.008490000000000001,-0.004018,0.004603,-0.004391,-0.019096000000000002
210,1.633638,-1.2668979999999999,1.243717,0.298651,0.954177,0.018793,-0.005561,0.002878,-0.003073,0.004038,0.005174,-0.015909
211,1.633759,-1.2669629999999998,1.2438790000000002,0.298586,0.954197,0.018825,-0.0034700000000000004,-0.006717,-0.003046,0.0024850000000000002,0.011593000000000001,-0.014063999999999998
212,1.633524,-1.266994,1.244067,0.298562,0.954206,0.018753,-0.0067670000000000004,-0.02695,-0.001975,0.0034700000000000004,0.009677,-0.018188
213,1.6329559999999999,-1.266991,1.244175,0.298575,0.954205,0.018583000000000002,-0.00148,-0.03656,-0.000858,0.0019309999999999998,0.010043999999999999,-0.021467
214,1.631722,-1.266985,1.243722,0.298603,0.954203,0.018215000000000002,0.007045,-0.03766,0.000271,0.001141,0.00588,-0.020382
215,1.630333,-1.267023,1.243009,0.298591,0.9542149999999999,0.017797999999999998,0.011336,-0.03447,-0.0018390000000000001,-0.0009689999999999999,0.00242,-0.021262
216,1.6290870000000002,-1.2670629999999998,1.242461,0.298576,0.954226,0.017424000000000002,0.003863,-0.03551,-0.0018899999999999998,-0.000221,0.003461,-0.015806999999999998
217,1.628067,-1.267147,1.242134,0.298514,0.954252,0.017115000000000002,0.0037689999999999998,-0.03373,-0.004058,0.000269,0.0048850000000000005,-0.010828
218,1.627268,-1.267266,1.241902,0.298413,0.9542870000000001,0.01687,-0.001518,-0.02412,-0.005175,0.002627,0.006481999999999999,-0.006311
219,1.627356,-1.26735,1.2423170000000001,0.29833200000000004,0.954312,0.016891999999999997,-0.01,-0.012372,-0.00525,-0.000297,0.007051999999999999,-0.005249
220,1.627752,-1.2673889999999999,1.243053,0.29828899999999997,0.954324,0.017008000000000002,-0.013229,-0.015569999999999999,-0.0020629999999999997,-0.000758,0.008124,-0.012827000000000002
221,1.6283100000000001,-1.267408,1.2439799999999999,0.298261,0.9543299999999999,0.017172999999999997,-0.015363,-0.014500999999999998,-0.001011,0.0005059999999999999,0.005707,-0.017371
222,1.6289930000000001,-1.267435,1.2449629999999998,0.298224,0.9543379999999999,0.017375,-0.014277000000000001,-0.011304999999999999,-0.002076,0.000986,0.006431999999999999,-0.016184999999999998
223,1.629737,-1.267471,1.245865,0.298177,0.954349,0.017595,-0.014234,-0.002779,-0.0031550000000000003,0.002742,0.004727,-0.011003
224,1.6304,-1.267563,1.246583,0.298078,0.954376,0.017787999999999998,-0.009947,-0.001715,-0.006331,-0.003675,0.006455,-0.005764
225,1.630682,-1.267662,1.246902,0.297978,0.954405,0.017866,-0.004646,-0.0007650000000000001,-0.006288,-0.002705,0.008317,-0.012999
226,1.6306770000000002,-1.267755,1.246953,0.297889,0.954433,0.017859,0.00065,-0.007184,-0.004107,-0.002418,0.006595999999999999,-0.017661000000000003
227,1.630119,-1.2678610000000001,1.246599,0.297799,0.954465,0.017687,0.004908,-0.01039,-0.005141,0.002098,0.007006999999999999,-0.020052
228,1.629801,-1.267952,1.246365,0.297717,0.954492,0.017587000000000002,0.0028120000000000003,0.000262,-0.0030329999999999997,0.00398,0.003867,-0.014505
229,1.629808,-1.2680049999999998,1.246224,0.297666,0.954508,0.017586,0.000717,0.009852,-0.001991,0.00162,0.0070090000000000005,-0.007698999999999999
230,1.630053,-1.2680280000000002,1.24631,0.29764,0.954515,0.017658,-0.004637,0.006670999999999999,-0.0009570000000000001,-0.00049,0.007415000000000001,-0.009493999999999999
231,1.630319,-1.268016,1.24652,0.297647,0.9545110000000001,0.017738,-0.004665,0.0024010000000000004,0.001185,0.001196,0.012681999999999999,-0.015144
232,1.630436,-1.267957,1.246704,0.29770100000000005,0.9544940000000001,0.017776,-0.002594,-0.008272,0.004418,0.0029739999999999996,0.015324,-0.02008
233,1.630155,-1.267831,1.246756,0.29782600000000004,0.954456,0.017699,-0.003807,-0.02094,0.006611,0.0067090000000000006,0.010891,-0.021117
234,1.629653,-1.267633,1.246774,0.29802399999999996,0.9543969999999999,0.017561,-0.000668,-0.028433,0.013052000000000001,0.007808,0.009531,-0.015638
235,1.628865,-1.267323,1.246483,0.298333,0.954304,0.017343,0.002547,-0.021005000000000003,0.017338,0.0029519999999999998,0.012996,-0.004312
236,1.6277139999999999,-1.266982,1.245732,0.298677,0.954202,0.017018000000000002,0.012144,-0.022104,0.017406,-0.004961,0.012366,-0.004339
237,1.625757,-1.266707,1.244356,0.29897199999999996,0.9541200000000001,0.016447999999999997,0.021688,-0.039164,0.013222,-0.009498000000000001,0.008206,-0.008666
238,1.623127,-1.266608,1.242559,0.299109,0.95409,0.015667,0.024903,-0.04659,0.002571,-0.006827,-0.004353,-0.015652000000000003
239,1.620835,-1.266615,1.241141,0.299138,0.954092,0.014981,0.018535,-0.042293,-0.000683,0.0023,-0.007864,-0.011502
240,1.619391,-1.266598,1.240173,0.299175,0.9540870000000001,0.01455,0.010091,-0.01778,0.0034990000000000004,0.013203,-0.004212,-0.004723
241,1.619269,-1.266463,1.2403170000000001,0.29930500000000004,0.954047,0.014518999999999999,-0.012381,-0.005906000000000001,0.010883,0.008846,0.0033810000000000003,0.0044009999999999995
242,1.6205450000000001,-1.266191,1.241638,0.299545,0.953965,0.014913999999999998,-0.024093,0.000523,0.011862000000000001,0.003907,0.006712999999999999,0.000161
243,1.621572,-1.2659049999999998,1.2428569999999999,0.299802,0.95388,0.015236000000000001,-0.017744,-0.010157,0.012988,-0.000989,0.013146000000000001,-0.009956
244,1.6217780000000002,-1.265631,1.243333,0.30006,0.9537969999999999,0.015311000000000002,-0.003861,-0.011253,0.008813,0.0015,0.003966,-0.026983999999999998
245,1.6211959999999999,-1.265528,1.243097,0.300167,0.953766,0.015141,0.007851,-0.021925999999999998,0.003568,0.0055119999999999995,-0.004364,-0.024753999999999998
246,1.620276,-1.265583,1.242474,0.300129,0.953783,0.014862,0.010066,-0.011251,-0.003908,0.009746,-0.005739,-0.020661000000000002
247,1.6196760000000001,-1.265785,1.241742,0.299946,0.953844,0.014672999999999999,0.009153,0.016475,-0.010359,0.0016899999999999999,-0.00818,-0.005319
248,1.620414,-1.2660719999999999,1.241787,0.299661,0.95393,0.014881,-0.009902,0.0432,-0.016936,0.003775,-0.007168000000000001,-0.012515
249,1.622789,-1.2664549999999999,1.243365,0.299261,0.954044,0.015572999999999998,-0.031287,0.042543,-0.020209,0.008509000000000001,-0.00655,-0.015924
250,1.626103,-1.266702,1.24569,0.298971,0.954119,0.016552,-0.038669,0.06811,-0.013884,0.00773,0.003218,-0.019053999999999998
251,1.629224,-1.266923,1.247681,0.298707,0.9541850000000001,0.017473,-0.027038999999999997,0.043572,-0.014838999999999998,0.009840999999999999,-0.003288,-0.019533000000000002
252,1.6313600000000001,-1.267248,1.249958,0.29835900000000004,0.954282,0.018092,-0.041176,-0.020278,-0.019129,0.022959999999999998,-0.008709999999999999,-0.017588
253,1.633782,-1.267356,1.252969,0.298213,0.954314,0.018808000000000002,-0.045506,-0.017135,-0.002072,0.014759999999999999,0.011781,-0.026650999999999998
254,1.6356709999999999,-1.267156,1.254899,0.298367,0.954254,0.019384000000000002,-0.022987,0.020024,0.009788,-0.008054,0.025757,-0.023977000000000002
255,1.636987,-1.266981,1.255506,0.298509,0.954202,0.019787,-0.00473,0.040226,0.003481,-0.022981,0.023763999999999997,-0.011364
256,1.6364049999999999,-1.2670569999999999,1.254581,0.29844699999999996,0.954225,0.019609,0.020745,-0.000297,-0.00804,-0.010712000000000001,0.010909,-0.009355
257,1.6344940000000001,-1.267284,1.2526979999999999,0.298268,0.9542930000000001,0.019025,0.027207,6.8e-05,-0.012181,-0.002538,0.0064010000000000004,-0.005399
258,1.633211,-1.2675809999999998,1.251112,0.298009,0.9543809999999999,0.018624,0.015544,0.016087999999999998,-0.012283,-0.0048259999999999996,0.005091,-0.0026030000000000003
259,1.633504,-1.267889,1.251099,0.29771,0.9544729999999999,0.018693,-0.011123000000000001,0.018308,-0.011404000000000001,0.00066,0.004190999999999999,-0.004823
260,1.636056,-1.268037,1.252942,0.29752,0.9545170000000001,0.019444,-0.036598,0.056708,-0.002017,0.009226999999999999,0.0016589999999999999,-0.01273
261,1.6401880000000002,-1.2678559999999999,1.25548,0.297609,0.954464,0.020685,-0.037531,0.09821,0.009673000000000001,0.004836,-0.009548000000000001,-0.018213
262,1.6437810000000002,-1.2677610000000001,1.257336,0.297623,0.954435,0.021759999999999998,-0.022628,0.080091,-0.0008820000000000001,0.010543,0.009234000000000001,-0.023347
263,1.6456970000000002,-1.267862,1.258329,0.29748600000000003,0.954465,0.022324,-0.013203999999999999,0.035338,-0.006099,0.001297,0.012713,-0.031127999999999996
264,1.647561,-1.267887,1.259639,0.297419,0.9544729999999999,0.022876,-0.024992,0.025782999999999997,-0.004033,-0.0017350000000000002,0.015788,-0.034488
265,1.649389,-1.267903,1.261331,0.297363,0.954477,0.023419,-0.029327,0.000516,-0.002909,0.014237,0.00321,-0.031155000000000002
266,1.650844,-1.267917,1.2629620000000001,0.29731399999999997,0.9544819999999999,0.02385,-0.023974000000000002,0.004758,-0.002877,0.015857,-0.0020280000000000003,-0.020982
267,1.651775,-1.268006,1.263776,0.29720799999999997,0.954508,0.02412,-0.010085,0.004727,-0.007053,0.014925999999999998,0.00826,-0.017345
268,1.651829,-1.2681790000000002,1.263822,0.29704200000000003,0.9545600000000001,0.024123,0.0005549999999999999,-0.000641,-0.0059039999999999995,0.006837,0.009109,-0.019408
269,1.65155,-1.268131,1.263454,0.297094,0.9545459999999999,0.024044,0.0037649999999999997,0.012088,0.004785,0.008036,0.015486000000000002,-0.009945
270,1.651499,-1.267929,1.2630290000000002,0.297288,0.954485,0.024044,0.002712,0.020593,0.010107,0.001632,0.004469,-0.002209
271,1.6518529999999998,-1.267708,1.262836,0.297489,0.954419,0.024166,-0.003646,0.028081000000000002,0.007917,-0.002597,-0.005109000000000001,0.0020329999999999997
272,1.652337,-1.2676479999999999,1.263201,0.297535,0.954401,0.024315,-0.011238,-0.008078,-0.0006360000000000001,0.015804,-0.002741,-0.020455
273,1.653144,-1.267674,1.264526,0.297489,0.9544090000000001,0.024553,-0.024142,-0.026748,-0.0039689999999999994,0.019863,0.00031800000000000003,-0.021532
274,1.654412,-1.267663,1.2666469999999999,0.29746999999999996,0.954406,0.024931000000000002,-0.034901999999999996,-0.044828,-0.001884,0.02327,0.006043,-0.021071
275,1.65593,-1.267624,1.269266,0.297468,0.9543940000000001,0.025386000000000002,-0.041326999999999996,-0.049071,-0.0008550000000000001,0.007784,0.0040100000000000005,-0.016658000000000003
276,1.6575529999999998,-1.267564,1.271872,0.297484,0.954376,0.025874,-0.038083,-0.038433999999999996,0.00022200000000000003,0.002565,0.006775,-0.016627
277,1.6588630000000002,-1.267555,1.273963,0.297458,0.954374,0.026264,-0.028429000000000003,-0.032055,-0.00506,8.9e-05,0.008013,-0.01099
278,1.6597950000000001,-1.267636,1.275611,0.297356,0.954398,0.026534,-0.027324,-0.030964,-0.012531,-0.000481,0.003793,-0.017135
279,1.660842,-1.267857,1.277355,0.297118,0.954464,0.026826999999999997,-0.027305,-0.029885000000000002,-0.015737,0.005448,0.002598,-0.02051
280,1.661991,-1.268059,1.279123,0.29689499999999996,0.9545239999999999,0.02715,-0.026238,-0.024584,-0.010395,0.006509999999999999,0.00266,-0.021047
281,1.6632080000000002,-1.26815,1.280702,0.296775,0.954551,0.027504,-0.025071,-0.006235,-0.004033,0.0038689999999999996,0.003899,-0.012642
282,1.6644290000000002,-1.268149,1.2819040000000002,0.296742,0.954551,0.027866000000000002,-0.014353999999999999,0.008625,0.000295,0.000484,0.005303,-0.010517
283,1.665368,-1.268057,1.2827309999999998,0.29680300000000004,0.954523,0.028152999999999997,-0.016512,0.006489,0.003488,-0.000248,0.00411,-0.01764
284,1.666243,-1.2680129999999998,1.2838100000000001,0.296819,0.9545100000000001,0.028417,-0.017665,-0.017987,-0.00183,0.004145,0.01369,-0.013890999999999999
285,1.666377,-1.2680120000000001,1.284515,0.296817,0.9545100000000001,0.028457,-0.0059770000000000005,-0.02762,-0.000668,0.003186,0.021488,-0.0005480000000000001
286,1.6657119999999999,-1.267916,1.283967,0.296927,0.9544809999999999,0.028268,0.013359999999999999,0.010628,0.007964,-0.00762,0.014741999999999998,0.005439
287,1.664944,-1.267774,1.28249,0.297084,0.9544389999999999,0.028052999999999998,0.020953,0.040421,0.010115,-0.019145,0.0035689999999999997,0.003182
288,1.664237,-1.267685,1.280961,0.297188,0.954412,0.027851,0.018819,0.035124,0.004765999999999999,-0.0037770000000000004,-0.002889,-0.0017280000000000002
289,1.6644580000000002,-1.2677,1.28037,0.297168,0.954417,0.027915,0.002031,0.044777,-0.00064,-0.008777,-0.002879,0.000741
290,1.6660650000000001,-1.267759,1.280916,0.297067,0.954435,0.028387,-0.011761,0.057626,-0.005025,-0.012536,0.005343,-0.00021899999999999998
291,1.6681419999999998,-1.267902,1.281736,0.29687199999999997,0.954477,0.028991000000000003,-0.00957,0.06934,-0.006093,-0.005643,0.013037,-0.0037070000000000002
292,1.6704139999999998,-1.267974,1.282276,0.296737,0.954499,0.029657999999999997,-0.0062450000000000006,0.10339200000000001,0.000296,-0.0027760000000000003,0.009170000000000001,-0.011058
293,1.672682,-1.2679040000000001,1.281944,0.29673499999999997,0.954478,0.030338,0.013103,0.14058800000000002,0.005724,-0.007978,0.013479,-0.016895
294,1.673619,-1.267886,1.279963,0.296722,0.954472,0.030618,0.038717,0.140507,0.0037670000000000004,-0.021851,0.01823,-0.011972
295,1.6730779999999998,-1.2680200000000001,1.2765389999999999,0.296612,0.954512,0.030444,0.056849000000000004,0.134073,-0.001439,-0.006527,0.013658000000000002,-0.008944
296,1.671666,-1.268275,1.272297,0.296412,0.9545879999999999,0.030001,0.064326,0.128751,-0.008858,0.006719,0.007326000000000001,-0.00757
297,1.669909,-1.26865,1.268058,0.296107,0.9547,0.029444,0.061331,0.102781,-0.010898,0.029623000000000003,-0.004123,-0.009165000000000001
298,1.668241,-1.269033,1.264723,0.295792,0.9548139999999999,0.028914999999999996,0.038735000000000006,0.060249000000000004,-0.011002,0.044342,-0.01475,-0.024154
299,1.6680599999999999,-1.2692940000000001,1.263737,0.29554899999999995,0.954892,0.028837,0.00016,0.02416,-0.010157,0.053541,-0.017712000000000002,-0.034575
300,1.669571,-1.26936,1.265654,0.295444,0.9549110000000001,0.029276999999999997,-0.047108,-0.042809,-0.00506,0.059247,-0.021485,-0.044292000000000005
301,1.672568,-1.26915,1.270515,0.295554,0.954849,0.030182999999999998,-0.086893,-0.103425,0.003286,0.067087,-0.019119,-0.05562
302,1.67585,-1.268744,1.276869,0.29583899999999996,0.954728,0.031194,-0.104203,-0.156629,0.0032329999999999998,0.038542,-0.0029,-0.053197
303,1.678669,-1.268457,1.283778,0.296022,0.954643,0.032057,-0.104394,-0.204544,-0.002048,0.029921,0.002663,-0.051222000000000004
304,1.680366,-1.26813,1.2902280000000002,0.296279,0.9545450000000001,0.032594,-0.102342,-0.22796599999999997,-0.007345,0.004869,0.000258,-0.03621
305,1.6815849999999999,-1.268,1.296542,0.296362,0.954506,0.032969,-0.09705599999999999,-0.24500300000000003,-0.013696000000000002,-0.001745,0.0019760000000000003,-0.025904000000000003
306,1.6819849999999998,-1.26805,1.30239,0.29630100000000004,0.954521,0.033082,-0.089336,-0.268793,-0.017825,0.005487,0.004111999999999999,-0.030427
307,1.681655,-1.268169,1.30805,0.296199,0.954557,0.032972,-0.08517000000000001,-0.289057,-0.015634000000000002,0.008549,0.005755,-0.018644
308,1.6813639999999999,-1.268191,1.313434,0.296187,0.9545629999999999,0.032882999999999996,-0.079715,-0.253956,-0.007095000000000001,-0.001174,0.008037,-0.003616
309,1.681323,-1.268098,1.317984,0.29627800000000004,0.954536,0.032881,-0.064554,-0.19651400000000002,0.00041500000000000006,-0.022077,0.011132,0.011095
310,1.681741,-1.267906,1.32195,0.296446,0.954478,0.033025,-0.062252999999999996,-0.158176,0.00145,-0.03166,0.01891,0.012568000000000001
311,1.6823240000000002,-1.267785,1.325823,0.296541,0.954442,0.03321,-0.058999,-0.150713,-0.00281,-0.029238,0.0171,0.010445
312,1.683329,-1.267752,1.329589,0.296539,0.954432,0.033512,-0.054554,-0.112374,-0.003896,-0.028914999999999996,0.014852,0.005444
313,1.684765,-1.267765,1.332789,0.296477,0.9544360000000001,0.033936,-0.039939999999999996,-0.061257000000000006,-0.0037719999999999997,-0.030241000000000004,0.0067,0.0072629999999999995
314,1.6864310000000002,-1.267858,1.335097,0.29633200000000004,0.954464,0.03442,-0.026898000000000002,-0.005915999999999999,-0.001616,-0.032492,0.012897,0.006764
315,1.6880709999999999,-1.267911,1.3364790000000002,0.296225,0.9544799999999999,0.0349,-0.013951,0.023875,-0.0037,-0.026724,0.015125,0.004987
316,1.689096,-1.268043,1.3369149999999999,0.296063,0.954519,0.035189,4e-06,0.040879,-0.005761,-0.020978,0.01829,-0.000322
317,1.6903,-1.2681950000000002,1.336717,0.295877,0.954565,0.035528,0.007654,0.08663799999999999,-0.000425,-0.006967,0.005869,-0.009771
318,1.691643,-1.268343,1.335911,0.29569,0.954609,0.035907999999999995,0.017385,0.113245,-0.002527,-0.0076040000000000005,0.004605,-0.0026739999999999997
319,1.6924259999999998,-1.268499,1.334284,0.295512,0.9546549999999999,0.036121,0.030206999999999998,0.117461,-0.002443,-0.008433,0.007961,0.0009119999999999999
320,1.6921400000000002,-1.268745,1.3314540000000001,0.29528699999999997,0.954728,0.036008,0.05264,0.12483499999999999,-0.001228,-0.013427000000000001,0.016082,0.017488999999999998
321,1.690913,-1.268839,1.3270600000000001,0.295243,0.9547559999999999,0.035635,0.073486,0.170473,0.00639,-0.019669,0.028673,0.0254
322,1.6889939999999999,-1.268916,1.320814,0.29523699999999997,0.954779,0.03506,0.105698,0.215106,0.00549,-0.021296000000000002,0.030358999999999997,0.034459
323,1.6856360000000001,-1.269141,1.312702,0.295141,0.9548459999999999,0.034044,0.124911,0.21716999999999997,0.005621,-0.029546,0.028383999999999996,0.042067
324,1.682103,-1.269347,1.3045,0.295064,0.954907,0.032979,0.120648,0.217189,0.004523,-0.022497,0.021426,0.033656
325,1.6787159999999999,-1.269636,1.2965149999999999,0.2949,0.954993,0.03195,0.120619,0.204431,-0.00187,-0.01008,0.009973000000000001,0.022494
326,1.676231,-1.270047,1.289599,0.294588,0.9551149999999999,0.031175,0.098258,0.208792,-0.007373,0.023084999999999998,-0.033163,-0.010728
327,1.675289,-1.270506,1.284286,0.29418099999999997,0.9552510000000001,0.030851999999999997,0.07685399999999999,0.191831,-0.009637,0.037423000000000005,-0.030964999999999996,-0.026396
328,1.6745869999999998,-1.270669,1.280427,0.294047,0.955299,0.030629000000000003,0.049799,0.123679,0.007353,0.047307999999999996,-0.0149,-0.028843999999999998
329,1.6744990000000002,-1.270369,1.27826,0.294333,0.95521,0.030632999999999997,0.020794,0.089637,0.026474,0.044031,0.001302,-0.030739999999999996
330,1.67537,-1.269714,1.277372,0.294929,0.955016,0.030955,0.005804999999999999,0.083277,0.031718,0.027993,0.020768000000000002,-0.036814
331,1.675646,-1.269076,1.2762,0.295526,0.9548270000000001,0.0311,0.018545,0.064078,0.026491000000000004,0.001562,0.019096000000000002,-0.041323
332,1.674149,-1.26863,1.273531,0.29599699999999995,0.954694,0.030701,0.047317000000000005,0.048033,0.018167,-0.009727,0.017566,-0.040269
333,1.6703709999999998,-1.268432,1.268699,0.296299,0.954635,0.029602,0.079308,0.036237,0.009859,-0.016209,0.016358,-0.02951
334,1.66468,-1.268523,1.2625790000000001,0.296377,0.9546620000000001,0.027906999999999998,0.087714,-0.0063479999999999995,-0.003914,-0.005758,0.004581,-0.030837
335,1.659391,-1.268938,1.257448,0.296127,0.954786,0.026304,0.065305,-0.022188999999999997,-0.019006,0.006287,0.002581,-0.028517
336,1.656051,-1.2695020000000001,1.254493,0.295678,0.954953,0.025269,0.027974000000000002,-0.026294,-0.02567,0.025490000000000002,-0.011838,-0.028504
337,1.6547720000000001,-1.27017,1.2541229999999999,0.295075,0.955151,0.024838,-0.007927,-0.061083000000000005,-0.028994,0.055816,-0.020337,-0.035838999999999996
338,1.655116,-1.270607,1.255958,0.29465,0.9552809999999999,0.024904,-0.037895,-0.071674,-0.018508,0.053142999999999996,-0.027287,-0.040849
339,1.6556790000000001,-1.2708629999999999,1.258815,0.29439299999999996,0.955356,0.025049000000000002,-0.044608,-0.13771,-0.015265,0.074199,-0.024631,-0.048365
340,1.6571740000000001,-1.27053,1.2629920000000001,0.294671,0.9552579999999999,0.025516,-0.080785,-0.07914299999999999,0.021795,-0.033532,-0.0052,-0.026325
341,1.661905,-1.269824,1.267523,0.295219,0.9550489999999999,0.026972000000000003,-0.055614,0.062447,0.022857,-0.054404999999999995,0.0042710000000000005,-0.027063
342,1.6646,-1.269419,1.268892,0.295531,0.9549290000000001,0.027804000000000002,-0.008577,0.06448999999999999,0.003954999999999999,-0.044875,0.0075959999999999995,-0.021608000000000002
343,1.662971,-1.269285,1.266629,0.295703,0.954889,0.027333999999999997,0.048785,0.000407,-0.004108,-0.001666,0.025031,-0.001394
344,1.657602,-1.269643,1.262031,0.295504,0.954995,0.025716000000000003,0.075111,-0.090178,-0.017695,0.01251,0.036704,0.003474
345,1.648768,-1.2703309999999999,1.2570860000000001,0.295065,0.955199,0.023053,0.064731,-0.263833,-0.016355,0.038613999999999996,0.035417000000000004,0.022296
346,1.6427900000000002,-1.270413,1.255185,0.295119,0.9552229999999999,0.021284,0.0032979999999999997,-0.133778,0.014027000000000001,-0.030989999999999997,0.004951,0.032763
347,1.643743,-1.269966,1.2560209999999998,0.295525,0.955091,0.021596,-0.017176,0.069715,0.025374,-0.048744,-0.001066,0.008647
348,1.6471,-1.269404,1.257577,0.295984,0.954924,0.022629,-0.030944,0.09213400000000001,0.025249,-0.008524,-0.012999,-0.016891
349,1.651331,-1.268782,1.2604,0.296479,0.9547389999999999,0.023929,-0.047072,0.065554,0.026239,0.020156,-0.025144,-0.034961
350,1.655198,-1.2681850000000001,1.263335,0.296952,0.9545620000000001,0.025123,-0.037551999999999995,0.049533,0.028462,0.012069,-0.000323,-0.039878
351,1.65743,-1.267792,1.2644879999999998,0.29727,0.9544440000000001,0.025818,-0.004388,0.059047,0.017999,-0.014754,0.020455,-0.040497000000000005
352,1.6570799999999999,-1.267626,1.262999,0.297437,0.9543950000000001,0.025727999999999997,0.034024,0.049368,0.007598000000000001,-0.016996,0.026486000000000003,-0.030611000000000003
353,1.654796,-1.267683,1.259768,0.297441,0.954412,0.025044,0.052740999999999996,0.035188,-0.003907,-0.008515,0.021952,-0.028401
354,1.651213,-1.267855,1.255572,0.297365,0.954463,0.023965,0.06227100000000001,0.014931999999999999,-0.008087,0.012190000000000001,0.00182,-0.021371
355,1.64694,-1.268151,1.251139,0.297183,0.9545520000000001,0.022673,0.063213,-0.011708,-0.006979000000000001,0.018688999999999997,-0.0026780000000000003,-0.014311
356,1.6428490000000002,-1.268377,1.247403,0.297057,0.9546190000000001,0.021440999999999998,0.046033,-0.031905,-0.0028,0.020768000000000002,-0.007673999999999999,-0.007662
357,1.6403150000000002,-1.268404,1.245416,0.297086,0.954627,0.020686000000000003,0.015069999999999998,-0.028635,0.005526,0.024661000000000002,-0.005255,-0.007991
358,1.63995,-1.268138,1.2455610000000001,0.297347,0.954548,0.020595,-0.019084,-0.022163,0.014893,0.02144,0.000424,-0.012279
359,1.641774,-1.267671,1.247962,0.297754,0.954408,0.021169999999999998,-0.048999,-0.028463,0.017896000000000002,0.014746,0.005843,-0.001715
360,1.644282,-1.26719,1.251519,0.298156,0.9542649999999999,0.02195,-0.05658200000000001,-0.054002999999999995,0.017876,0.01326,0.0040479999999999995,-0.002647
361,1.645919,-1.266759,1.2546540000000002,0.29853,0.9541360000000001,0.022469,-0.041757,-0.080678,0.015877000000000002,0.010964,0.006664,-0.005577
362,1.645615,-1.2663440000000001,1.256429,0.298931,0.954011,0.022407,-0.022049000000000003,-0.10444400000000001,0.012863,0.000554,0.009459,-0.022591
363,1.6444919999999998,-1.266025,1.2571700000000001,0.29925999999999997,0.953915,0.022094,-0.008069,-0.081052,0.011862000000000001,-0.008931,0.009845,-0.023116
364,1.643356,-1.265794,1.2573379999999998,0.299505,0.9538459999999999,0.021769999999999998,0.0006,-0.054437,0.008684,-0.014044,0.006267,-0.017482
365,1.642139,-1.265716,1.256857,0.299606,0.953823,0.021411000000000003,0.007159,-0.028855000000000002,-0.000917,-0.020095,0.000904,0.000546
366,1.640966,-1.265835,1.256076,0.29951700000000003,0.953858,0.021052,0.011508,-0.017127,-0.007311,-0.013094999999999999,-0.001176,-0.0004980000000000001
367,1.6402849999999998,-1.266038,1.255498,0.29933899999999997,0.9539190000000001,0.020834000000000002,0.005203,0.002079,-0.009516,-0.004982,0.0034170000000000003,-0.008261
368,1.640507,-1.266253,1.2553809999999999,0.29913,0.953984,0.020886000000000002,-2.6000000000000002e-05,0.026595,-0.008516,-0.001263,0.01115,-0.004697
369,1.6411529999999999,-1.266473,1.255109,0.29890700000000003,0.95405,0.021065,0.008648000000000001,0.05745700000000001,-0.008495,-0.001132,0.008978,0.010306999999999998
370,1.641896,-1.266666,1.254514,0.298707,0.954108,0.021274,0.006847,0.062626,-0.007453,-0.004945000000000001,0.0046170000000000004,0.01254
371,1.6427650000000003,-1.266813,1.255007,0.298548,0.954152,0.021523,-0.016969,-0.01293,-0.0064540000000000005,0.016393,0.0024980000000000002,-0.00037400000000000004
372,1.6436110000000002,-1.266818,1.2571350000000001,0.298525,0.954153,0.021776,-0.041819,-0.07466,0.0009289999999999999,0.039152,-0.00469,-0.019806999999999998
373,1.645301,-1.2665790000000001,1.2602389999999999,0.298716,0.954082,0.022297,-0.048191000000000005,-0.056575,0.012612,0.028249,0.007375,-0.025334
374,1.64667,-1.2662129999999998,1.262844,0.299033,0.9539719999999999,0.022732,-0.035403,-0.05451,0.01804,-0.000388,0.014549000000000001,-0.030255
375,1.647455,-1.265843,1.264501,0.299367,0.9538610000000001,0.022994,-0.017137,-0.030056,0.013863,-0.026235,0.019451,-0.030744999999999998
376,1.646653,-1.265668,1.264089,0.299552,0.953808,0.022767,0.017122,-0.016275,0.001266,-0.027777,0.010837000000000001,-0.028168000000000002
377,1.6438720000000002,-1.2658639999999999,1.261527,0.299427,0.953867,0.02192,0.048726,-0.017753,-0.014521000000000001,-0.010868000000000001,0.010426999999999999,-0.012139
378,1.639602,-1.266283,1.257506,0.299119,0.953993,0.020613999999999997,0.061528,-0.020981,-0.017632,-0.010606,0.007645999999999999,0.004518
379,1.635055,-1.266761,1.253263,0.298755,0.9541360000000001,0.019224,0.06041799999999999,-0.025259999999999998,-0.012293,-0.005405,0.003078,0.008959
380,1.631661,-1.26693,1.249694,0.298657,0.9541870000000001,0.0182,0.047793,0.027993,0.001437,-0.005414,0.0026920000000000004,0.005527000000000001
381,1.63026,-1.266877,1.2465629999999999,0.29873299999999997,0.9541709999999999,0.017785,0.047037999999999996,0.105727,0.009878,-0.006435,0.005836,-0.0036850000000000003
382,1.629357,-1.266789,1.2430729999999999,0.298831,0.954145,0.017519999999999997,0.057783,0.122734,0.009931,-0.008426000000000001,0.016177,-0.016559
383,1.6275190000000002,-1.266774,1.238472,0.298877,0.95414,0.016971,0.076001,0.13229200000000002,0.001501,-0.0054659999999999995,0.019888999999999997,-0.020359
384,1.624883,-1.266902,1.232737,0.298799,0.9541780000000001,0.016177,0.092086,0.148223,-0.000544,-0.007127,0.016052,-0.026644
385,1.621874,-1.266877,1.226328,0.298871,0.9541709999999999,0.015279,0.095998,0.161637,0.011094,-0.006619,-0.0011220000000000002,-0.023366
386,1.619006,-1.2669290000000002,1.2199229999999999,0.298865,0.9541860000000001,0.014419,0.091778,0.157451,-0.003885,-0.000739,-0.007943,-0.024155000000000003
387,1.61645,-1.267215,1.214245,0.298628,0.9542719999999999,0.013643,0.074651,0.140483,-0.008256,0.022386,-0.029283999999999998,-0.017275
388,1.615315,-1.267518,1.2101549999999999,0.298354,0.954363,0.013290999999999999,0.047975,0.134206,-0.013775,0.031174,-0.020204,-0.019349
389,1.615381,-1.267882,1.208181,0.298006,0.954471,0.013295,0.014619,0.069349,-0.016061000000000002,0.049757,-0.010181,-0.036504
390,1.616581,-1.268043,1.209055,0.29783699999999996,0.954519,0.013646,-0.03275,-0.012563,-0.003469,0.07341,0.0038090000000000003,-0.04308
391,1.618344,-1.267832,1.212609,0.298012,0.954456,0.014181000000000001,-0.065316,-0.124355,0.009266,0.074165,0.000393,-0.040166
392,1.620024,-1.267472,1.2181110000000002,0.298331,0.954349,0.014698,-0.095529,-0.198824,0.010218000000000001,0.039544,0.000149,-0.032458999999999995
393,1.622107,-1.26718,1.2249219999999998,0.298579,0.954261,0.015334,-0.10661,-0.231756,0.000405,0.015187,-0.00373,-0.023711000000000003
394,1.623725,-1.266972,1.231414,0.29875300000000005,0.954199,0.015827,-0.09798899999999999,-0.21473299999999998,-0.001693,-0.005784,0.0008179999999999999,-0.019047
395,1.625446,-1.266715,1.237017,0.298971,0.9541219999999999,0.016355,-0.080718,-0.164747,0.003704,-0.023382,0.012872999999999999,-0.013883000000000001
396,1.6264370000000001,-1.266356,1.2411290000000001,0.299295,0.954015,0.016669999999999997,-0.053954999999999996,-0.132929,0.015600999999999999,-0.031748,0.016794999999999997,-0.0058969999999999995
397,1.626496,-1.265911,1.2435450000000001,0.299718,0.953881,0.016711,-0.030320999999999997,-0.09679199999999999,0.015719999999999998,-0.050069,0.016349000000000002,0.022519
398,1.6260629999999998,-1.265708,1.244394,0.29991799999999996,0.9538209999999999,0.016592,-0.006548,-0.039311,0.0061979999999999995,-0.053534000000000005,0.020468,0.018411
399,1.6256899999999999,-1.2658280000000002,1.244305,0.299811,0.953857,0.016474000000000003,0.0022170000000000002,-0.003062,-0.008742,-0.042883,0.022065,0.008916
400,1.6253959999999998,-1.266245,1.243808,0.29941799999999996,0.953982,0.016364,0.010886,0.014003,-0.021522,-0.015925,0.010069,-0.002341
401,1.625718,-1.266885,1.243732,0.29880300000000004,0.9541729999999999,0.016427,0.002281,0.0229,-0.024938,0.016169,-0.001186,-0.014199000000000002
402,1.627082,-1.26741,1.244502,0.29828000000000005,0.9543299999999999,0.016807,-0.015806999999999998,0.036799,-0.021878,0.015502000000000002,-0.006363000000000001,-0.019553
403,1.629883,-1.2678399999999999,1.2465979999999999,0.297822,0.9544590000000001,0.017618,-0.037163999999999996,0.037918,-0.016687,0.016646,-0.003394,-0.027277
404,1.63331,-1.268076,1.249657,0.297535,0.9545290000000001,0.018624,-0.049038,0.014493,-0.009263,0.018612,-0.003189,-0.031076
405,1.636548,-1.2681559999999998,1.253102,0.297396,0.9545530000000001,0.019583,-0.050244,-0.014274,-0.007098,0.025098,0.001273,-0.023
406,1.63917,-1.26819,1.256359,0.297313,0.9545629999999999,0.02036,-0.047101,-0.022824,-0.002792,0.024053,0.0030629999999999998,-0.019261
407,1.64058,-1.268096,1.258333,0.297373,0.954535,0.020786000000000002,-0.021544,-0.031444,-0.000466,-0.001627,0.02865,-0.017412999999999998
408,1.6398599999999999,-1.268147,1.258524,0.29734,0.95455,0.020568,0.005074,-0.046438,-0.0034649999999999998,-0.001594,0.028635,-0.017196
409,1.638133,-1.268194,1.2576530000000001,0.29733000000000004,0.954564,0.020052,0.012534,-0.050254,-0.007776000000000001,-0.003751,-0.0009660000000000001,-0.026063
410,1.635592,-1.26845,1.256657,0.297136,0.9546399999999999,0.019280000000000002,0.012371,-0.0939,-0.015198,0.026655,-0.013203999999999999,-0.005852
411,1.633828,-1.268729,1.2567409999999999,0.296904,0.954723,0.018739,-0.012133,-0.083174,-0.012179,0.028444,-0.007443000000000001,-0.000307
412,1.6343379999999998,-1.26881,1.2587190000000001,0.296817,0.9547479999999999,0.018886,-0.038766,-0.062888,-0.00064,0.028850999999999998,0.002467,0.00033999999999999997
413,1.636259,-1.268606,1.261831,0.29697399999999996,0.9546870000000001,0.019469,-0.055812,-0.042648,0.014169999999999999,0.002663,0.011895999999999999,-0.012129000000000001
414,1.639043,-1.268041,1.265255,0.297457,0.954518,0.020332,-0.048257999999999995,-0.008645,0.029133999999999997,-0.006869,0.008052,-0.011848000000000001
415,1.641684,-1.267387,1.2674040000000002,0.298025,0.954324,0.021162,-0.023431999999999998,0.052002,0.026025,-0.025213,0.009483,-0.011183
416,1.6432490000000002,-1.266875,1.267468,0.298479,0.9541700000000001,0.021662999999999998,0.009822,0.082817,0.016604,-0.040544,0.016624,-0.013393
417,1.643042,-1.2667629999999999,1.2658639999999999,0.29859,0.9541370000000001,0.021609,0.02939,0.050406,0.0017760000000000002,-0.030905000000000002,0.012934999999999999,-0.013797
418,1.6415669999999998,-1.266843,1.263614,0.298546,0.954161,0.021164,0.032523,0.032298,-0.001384,-0.010856999999999999,0.012789,-0.010223000000000001
419,1.640318,-1.266969,1.2615049999999999,0.298453,0.954198,0.020782,0.029347,0.039758,0.000721,0.002558,0.007624,-0.0077209999999999996
420,1.639504,-1.266987,1.259623,0.298452,0.954204,0.020538,0.025103,0.053587,0.009219,0.013743,0.00713,-0.006302
421,1.6390619999999998,-1.266916,1.257961,0.298529,0.954183,0.020411000000000002,0.023008,0.05999500000000001,0.0070599999999999994,0.023844,-0.001836,-0.01063
422,1.6389490000000002,-1.266881,1.2563870000000001,0.298563,0.9541719999999999,0.020380000000000002,0.02096,0.074933,0.0027530000000000002,0.027364,-0.007258,-0.014794999999999999
423,1.639493,-1.26688,1.255603,0.298554,0.9541719999999999,0.020541999999999998,0.002732,0.052634,0.000518,0.026702999999999998,-0.004571,-0.019382
424,1.6405779999999999,-1.266829,1.256316,0.29858,0.954156,0.020869,-0.019892,0.001588,-0.0017109999999999998,0.0145,0.004675,-0.023753
425,1.642209,-1.266851,1.258384,0.298525,0.9541629999999999,0.021355000000000002,-0.037058,-0.023901,-0.006071,0.015425,0.006576,-0.023048
426,1.644198,-1.266812,1.2611350000000001,0.298519,0.954151,0.021951,-0.041855,-0.03392,-0.0007610000000000001,0.012486,0.0020559999999999997,-0.020868
427,1.645672,-1.266645,1.263558,0.298644,0.954102,0.022403,-0.036592,-0.045673000000000005,0.003564,0.009065,0.005036,-0.031223
428,1.646889,-1.266453,1.265709,0.298799,0.954044,0.02278,-0.033363,-0.035049000000000004,0.007845999999999999,0.007734,0.005688,-0.030761
429,1.6482849999999998,-1.266191,1.2676399999999999,0.29901700000000003,0.953965,0.023216999999999998,-0.030105,-0.019094,0.011053,0.0035039999999999997,0.010588,-0.030282
430,1.6490479999999998,-1.2658719999999999,1.2689139999999999,0.299302,0.9538700000000001,0.023469,-0.019465,-0.023400999999999998,0.013269,-0.008073,0.004413,-0.021195
431,1.649361,-1.265582,1.269635,0.29957,0.953783,0.023584,-0.009815,-0.013843000000000001,0.012256,-0.009744,0.006834000000000001,-0.012933000000000002
432,1.648665,-1.265403,1.2691059999999998,0.299757,0.953729,0.023389,0.014769999999999998,-0.008581,0.0070799999999999995,-0.012586,0.013831,0.006885
433,1.646095,-1.2655319999999999,1.266777,0.299693,0.9537680000000001,0.022609,0.040508999999999996,-0.027145,-0.014078,-0.022715,-0.000124,0.027135000000000003
434,1.642223,-1.2661229999999999,1.263733,0.299216,0.953945,0.021408,0.044714,-0.06010700000000001,-0.033235,-0.020590999999999998,0.000782,0.030853
435,1.6389490000000002,-1.266984,1.262025,0.29846500000000004,0.954203,0.020373,0.012584,-0.092997,-0.038758,0.019452,-0.005717,0.014112000000000001
436,1.638855,-1.2676100000000001,1.263785,0.297871,0.95439,0.020304,-0.045036,-0.07795,-0.022088,0.025463,-0.005476,-0.007807
437,1.643189,-1.267644,1.268907,0.297748,0.9544,0.021592,-0.084242,0.007306999999999999,0.003166,0.01669,-0.007348,-0.016023
438,1.6500709999999998,-1.267258,1.274817,0.29796,0.954285,0.02367,-0.082859,0.093526,0.019089,-0.012819,0.019699,-0.021
439,1.6562599999999998,-1.266701,1.278397,0.29833699999999996,0.954118,0.025559000000000002,-0.032448000000000005,0.154066,0.020431,-0.022106999999999998,0.026076,-0.019883
440,1.658221,-1.266308,1.277608,0.298659,0.954,0.026177,0.029291,0.11659100000000001,0.014500999999999998,-0.026167000000000003,0.037301999999999995,-0.023644
441,1.6567189999999998,-1.266305,1.274478,0.298701,0.9539989999999999,0.025727999999999997,0.050742,0.047914,-0.004379,-0.018229,0.027354000000000003,-0.027056
442,1.6531,-1.266723,1.270705,0.29839499999999997,0.954125,0.024613999999999997,0.056889,-0.025543,-0.021333,0.013097999999999999,0.0038829999999999997,-0.025240000000000002
443,1.649007,-1.267392,1.267299,0.29785700000000004,0.954325,0.023343,0.046163,-0.044655,-0.027793,0.043833,-0.018671,-0.022626
444,1.645732,-1.2678770000000001,1.264958,0.297471,0.95447,0.022333000000000002,0.027872000000000004,-0.060642999999999996,-0.009741,0.061019000000000004,-0.021501,-0.011590999999999999
445,1.642969,-1.267847,1.263695,0.29756,0.954461,0.021513,0.010597,-0.081987,0.014735,0.036241,-0.014367,-0.002516
446,1.641373,-1.267177,1.2636690000000002,0.298232,0.954261,0.021083,-0.014028,-0.07242799999999999,0.043393,-0.010709999999999999,0.013024,0.002705
447,1.642118,-1.265997,1.265442,0.29933899999999997,0.953907,0.021386000000000002,-0.039484,-0.027645,0.054908000000000005,-0.054802,0.030452999999999997,0.011161
448,1.644697,-1.264792,1.267763,0.300429,0.9535450000000001,0.022241999999999998,-0.036971,0.046955000000000004,0.045216,-0.077925,0.024696,0.006108
449,1.647262,-1.264271,1.268938,0.30086599999999997,0.9533879999999999,0.023051,-0.005321,0.076343,0.003754,-0.058694,0.0053219999999999995,-0.011042
450,1.6472930000000001,-1.2647110000000001,1.2678719999999999,0.30044699999999996,0.953521,0.023028,0.028785,0.033753,-0.031205,-0.0123,-0.009108,-0.028308
451,1.645947,-1.26557,1.2661229999999999,0.299661,0.953779,0.022562,0.026588999999999998,0.014606999999999998,-0.036537,0.013907,-0.006712,-0.036982
452,1.645521,-1.266471,1.265068,0.298813,0.9540489999999999,0.022369999999999998,0.014953999999999999,0.039141,-0.034513,0.027344,0.004370000000000001,-0.029389
453,1.6462689999999998,-1.267098,1.2646469999999999,0.2982,0.9542370000000001,0.022549,0.0032670000000000004,0.066811,-0.017537999999999998,0.031756,-0.001356,-0.02145
454,1.6486040000000002,-1.267259,1.265347,0.297993,0.954285,0.023233,-0.019075,0.095591,-0.0027760000000000003,0.02441,-0.003922,-0.016595
455,1.6515389999999999,-1.267182,1.266142,0.29799499999999995,0.954262,0.024113,-0.008343999999999999,0.11470799999999999,0.0026149999999999997,0.016,-0.0007559999999999999,-0.017903
456,1.6531779999999998,-1.267168,1.265625,0.297968,0.9542579999999999,0.024603,0.012944999999999998,0.098675,-0.0025570000000000002,0.01026,0.006161,-0.019613
457,1.6532229999999999,-1.267328,1.264332,0.297815,0.954306,0.024604,0.019116,0.040093000000000004,-0.009916,0.005148,0.009699,-0.021093999999999998
458,1.6522189999999999,-1.26748,1.263209,0.297696,0.9543510000000001,0.024293000000000002,0.012667,-0.015288,-0.008856999999999999,0.013217,0.013193,-0.019197
459,1.651344,-1.267549,1.263247,0.29765199999999997,0.9543719999999999,0.024027,-0.011025,-0.05678099999999999,-0.001492,0.023103,0.011189,-0.016047
460,1.651574,-1.267464,1.2646629999999999,0.297727,0.954347,0.024102000000000002,-0.027018,-0.051411,0.001594,0.027833999999999998,0.003875,-0.005074
461,1.651974,-1.267323,1.266324,0.29785300000000003,0.954304,0.024232,-0.024985,-0.067423,0.008038,0.015136000000000002,0.005915999999999999,-0.007692
462,1.6516549999999999,-1.267089,1.2676370000000001,0.298083,0.954234,0.024155000000000003,-0.019732,-0.08236900000000001,0.011299,0.0031260000000000003,0.005391,-0.016663
463,1.650824,-1.266759,1.2684600000000001,0.298417,0.9541360000000001,0.023933000000000003,-0.011178,-0.076015,0.013487,-0.010056,0.005703,-0.020026
464,1.650152,-1.266433,1.268989,0.298742,0.9540379999999999,0.023757,-0.008896,-0.045122,0.011327,-0.014913999999999998,0.008059,-0.009840999999999999
465,1.649719,-1.266241,1.269156,0.29893600000000004,0.9539799999999999,0.023642,-0.000236,-0.023821000000000002,0.004951,-0.010835,0.004302,-0.008154
466,1.648873,-1.266154,1.268637,0.299038,0.9539540000000001,0.023396,0.009691,-0.014022,0.003897,-0.0040100000000000005,0.002802,-0.007481
467,1.647715,-1.26614,1.267636,0.299079,0.95395,0.02305,0.01614,-0.004453,0.002861,-0.008597,0.005629,-0.0037479999999999996
468,1.646516,-1.266178,1.266059,0.29907,0.9539610000000001,0.022688999999999997,0.025891,0.026414999999999998,0.000753,-0.003614,0.0072510000000000005,-0.005279
469,1.645461,-1.266252,1.264219,0.299023,0.953984,0.022368,0.027014999999999997,0.038133,-0.000322,0.003925,0.0073349999999999995,-0.00421
470,1.6446490000000002,-1.266265,1.2626540000000002,0.299029,0.953987,0.022124,0.019494,0.029624,0.002841,0.008618,0.0061259999999999995,-0.010223000000000001
471,1.6443990000000002,-1.266253,1.261968,0.299045,0.953984,0.022050999999999998,0.002348,0.01264,0.0027429999999999998,0.01231,0.002254,-0.015047
472,1.644939,-1.2662280000000001,1.2624600000000001,0.299056,0.9539770000000001,0.022213999999999998,-0.011579,-0.0011560000000000001,0.0015949999999999998,0.01291,0.003604,-0.017972
473,1.6459009999999998,-1.26614,1.263544,0.299119,0.95395,0.022508,-0.01771,-0.0032159999999999997,0.003711,0.008651,0.005553,-0.01677
474,1.6470580000000001,-1.265994,1.2647950000000001,0.29923099999999997,0.9539059999999999,0.022864,-0.019844,-0.001086,0.00583,0.0016120000000000002,0.008648999999999999,-0.022407
475,1.647836,-1.265841,1.265582,0.29935900000000004,0.9538610000000001,0.023108,-0.010223000000000001,0.0020800000000000003,0.004825,-0.00343,0.009396,-0.028051999999999997
476,1.647689,-1.265784,1.26555,0.299417,0.953843,0.023068,0.004661,-0.012872999999999999,0.001743,0.002432,0.0030510000000000003,-0.026029000000000004
477,1.6465290000000001,-1.265794,1.2649299999999999,0.299435,0.9538459999999999,0.022719999999999997,0.009899,-0.035258,0.00074,0.001759,0.00613,-0.021927000000000002
478,1.645198,-1.265801,1.2640719999999999,0.299458,0.9538479999999999,0.022321,0.013186000000000002,-0.016094,0.0007379999999999999,-0.0008900000000000001,0.006082,-0.014753
479,1.644045,-1.2657909999999999,1.2630620000000001,0.299492,0.9538459999999999,0.021977,0.013224000000000001,-0.007572,0.000728,-0.00023700000000000001,0.007657,-0.011616
480,1.6429610000000001,-1.265806,1.262314,0.299502,0.95385,0.021651,0.006745999999999999,-0.025655,-0.000362,0.000745,0.00367,-0.009612
481,1.642022,-1.2658,1.261976,0.299528,0.9538479999999999,0.02137,0.001485,-0.028730000000000002,0.0016649999999999998,0.006136,0.005425999999999999,-0.015236000000000001
482,1.641766,-1.2657209999999999,1.262161,0.299608,0.953824,0.021299000000000002,-0.008078,-0.016991,0.004788000000000001,0.003447,0.004122,-0.006055
483,1.642479,-1.265575,1.262916,0.299732,0.95378,0.021523,-0.014374000000000001,0.008589,0.006847,0.001003,0.0014960000000000002,-0.005074
484,1.643693,-1.265412,1.2639209999999999,0.299861,0.953731,0.021897999999999997,-0.016493,0.011793000000000001,0.006828,-0.0033520000000000004,0.005146,-0.010713
485,1.644597,-1.265299,1.264845,0.29995,0.9536969999999999,0.022177000000000002,-0.014417,-0.005242,0.002592,-0.00132,0.009315,-0.021627
486,1.645288,-1.265292,1.265779,0.29994,0.9536950000000001,0.022385,-0.013359999999999999,-0.010559,-0.000599,0.004228,0.01153,-0.021408
487,1.64573,-1.265268,1.266411,0.299953,0.9536879999999999,0.022519,-0.008011,-0.006321,0.000502,0.001866,0.006135,-0.0173
488,1.645946,-1.265211,1.2667190000000002,0.300002,0.9536709999999999,0.022588,-0.005877,-0.003146,0.0037170000000000003,-0.003173,0.005146,-0.015111000000000001
489,1.645957,-1.265132,1.2668549999999998,0.300076,0.9536469999999999,0.022596,-0.000524,-0.005751,0.003796,0.000202,0.0030789999999999997,-0.013594
490,1.6457560000000002,-1.2650489999999999,1.266658,0.300161,0.953622,0.022542,0.0005809999999999999,0.003829,0.0048590000000000005,0.000666,0.004019,-0.012532
491,1.645852,-1.2649270000000001,1.26663,0.300275,0.953586,0.022580000000000003,-0.001557,0.004893,0.00698,-0.001996,0.007474,-0.015347
492,1.645937,-1.264804,1.2666680000000001,0.30038899999999996,0.953549,0.022614,-0.001567,0.00064,0.004849,-0.0011949999999999999,0.0071909999999999995,-0.014222
493,1.64579,-1.2647760000000001,1.266646,0.300419,0.9535399999999999,0.022572,-0.001596,-0.009995,0.000589,0.002758,0.005917,-0.009968000000000001
494,1.645805,-1.264787,1.266894,0.300408,0.953543,0.022576,-0.005849,-0.007845999999999999,-0.000512,0.003242,0.004739,-0.009514
495,1.646291,-1.264775,1.267467,0.30040900000000004,0.9535399999999999,0.022722,-0.012221,-0.0014320000000000001,-0.0005639999999999999,0.003958,0.007199,-0.011141
496,1.647038,-1.264721,1.268199,0.30044299999999996,0.9535239999999999,0.022951,-0.013283000000000001,0.0038810000000000003,0.003694,0.000368,0.010054,-0.016588
497,1.6476419999999998,-1.2645819999999999,1.268741,0.300562,0.9534819999999999,0.023143,-0.006881999999999999,0.008103,0.008006000000000001,-0.002451,0.0073030000000000005,-0.014704
498,1.647933,-1.264408,1.2687469999999998,0.300721,0.9534290000000001,0.023243,0.000725,0.018737,0.008034,-0.008942,0.0075239999999999994,-0.012897
499,1.647703,-1.264307,1.268051,0.300821,0.953399,0.023181,0.014622999999999999,0.020836,0.003855,-0.008569,0.004929,-0.006763
500,1.646728,-1.264361,1.2667329999999999,0.300792,0.953415,0.022884,0.021013999999999998,0.010195000000000001,-0.004632,-0.003399,0.003372,-0.006053
501,1.645686,-1.264549,1.2655450000000001,0.300637,0.953472,0.022557,0.015675,0.003843,-0.010001999999999999,0.001121,0.003163,-0.007741
502,1.6451470000000001,-1.264784,1.264879,0.300426,0.953542,0.022378,0.005026,0.0070810000000000005,-0.011149,0.008046,-0.000463,-0.008004
503,1.6457119999999998,-1.26494,1.26525,0.300265,0.9535889999999999,0.022537,-0.013116,0.012445,-0.004873,0.013333000000000001,0.0017329999999999997,-0.015212999999999999
504,1.6470240000000003,-1.2649350000000001,1.26631,0.30024,0.9535879999999999,0.022931,-0.017398,0.01563,0.0015019999999999999,0.015068000000000002,0.002757,-0.018476
505,1.648581,-1.264753,1.267519,0.300377,0.953533,0.023412,-0.018486000000000002,0.023022,0.011051,0.008903,0.008244,-0.020894
506,1.649818,-1.264458,1.268283,0.300628,0.9534440000000001,0.023806,-0.009946,0.026179,0.013243000000000001,0.0011300000000000001,0.009095,-0.022050999999999998
507,1.6504869999999998,-1.264171,1.268449,0.300885,0.953358,0.024029,-0.000339,0.02615,0.012242,-0.009534,0.01025,-0.022930000000000002
508,1.6501869999999998,-1.263976,1.267674,0.301078,0.953299,0.023953,0.016730000000000002,0.020784999999999998,0.007026999999999999,-0.007834,0.008034999999999999,-0.024274
509,1.6484459999999999,-1.263959,1.265456,0.301134,0.9532940000000001,0.02343,0.04023,0.020729,0.000782,-0.0042439999999999995,0.005736,-0.018318
510,1.6459259999999998,-1.264089,1.262314,0.30107,0.953333,0.022662,0.048813,0.027107999999999997,-0.003439,-0.002043,0.001639,-0.0012230000000000001
511,1.6433669999999998,-1.264316,1.259176,0.30091100000000004,0.953401,0.021876,0.040244,0.015437000000000001,-0.007756999999999999,0.0032119999999999996,0.00511,0.00855
512,1.64198,-1.2645680000000001,1.257635,0.300701,0.953477,0.021440999999999998,0.011382,-0.000429,-0.011143,0.011936,-0.001451,0.006803
513,1.6424419999999997,-1.2648059999999999,1.258204,0.300464,0.953549,0.021564,-0.019572,-0.0035159999999999996,-0.011355,0.019711000000000003,-0.0024690000000000003,0.0018579999999999998
514,1.6449790000000002,-1.264915,1.260722,0.300306,0.9535819999999999,0.022318,-0.04621,0.014762,-0.004143,0.022158,-0.0026089999999999998,-0.020396
515,1.6486330000000002,-1.264745,1.264003,0.30038400000000004,0.9535309999999999,0.023428,-0.047267,0.029627999999999998,0.008648999999999999,0.014053999999999999,0.001258,-0.031698000000000004
516,1.651518,-1.2643870000000001,1.266283,0.300654,0.9534229999999999,0.024322,-0.025906000000000002,0.041246,0.015193,0.002263,0.010612,-0.032958999999999995
517,1.652759,-1.2640360000000002,1.2665620000000002,0.300958,0.953317,0.024723,0.007219,0.050726,0.013276,-0.010217,0.018073,-0.022724
518,1.651615,-1.263903,1.264471,0.301113,0.953277,0.024388999999999997,0.040273,0.034679,0.001777,-0.017757,0.012025,-0.010946
519,1.648654,-1.2640959999999999,1.261108,0.301,0.953335,0.023483,0.051903,-0.0015300000000000001,-0.010914,-0.011617,0.008457,-0.007324
520,1.645166,-1.264513,1.257951,0.300684,0.953461,0.022403,0.045406,-0.032362,-0.020534,-0.001062,0.0012050000000000001,-0.009372
521,1.6427150000000001,-1.265061,1.256082,0.300217,0.953626,0.021628,0.014556,-0.029994999999999997,-0.021892,0.033645999999999995,-0.007795000000000001,-0.007011
522,1.642914,-1.265342,1.256691,0.29994499999999996,0.9537110000000001,0.021669,-0.020632,-0.009696,-0.006141,0.032743,-0.0018059999999999999,-0.007692
523,1.645328,-1.2652079999999999,1.259097,0.300019,0.95367,0.022402000000000002,-0.045136,0.014823,0.010748,0.027908,0.002995,-0.010012
524,1.6484009999999998,-1.264818,1.2619989999999999,0.300319,0.9535530000000001,0.023353,-0.044112,0.012659,0.018236000000000002,0.0052380000000000005,0.014175,-0.022071
525,1.6507009999999998,-1.2643309999999999,1.2642520000000002,0.300728,0.953406,0.024081,-0.029205000000000002,0.006215,0.018348,-0.006661,0.009515000000000001,-0.024554
526,1.651348,-1.264041,1.26491,0.30098800000000003,0.953318,0.024298,-0.0014759999999999999,-0.006623,0.007876000000000001,-0.01278,0.008352,-0.026251
527,1.6497990000000002,-1.2640049999999998,1.2637459999999998,0.301059,0.953308,0.023834,0.023023,-0.027962,-0.004744,-0.003986,0.002381,-0.017029
528,1.647382,-1.264268,1.261846,0.30086599999999997,0.9533870000000001,0.023087,0.03052,-0.030085,-0.013235,-0.00022200000000000003,-7.900000000000001e-05,-0.012269
529,1.645057,-1.264601,1.260008,0.300603,0.9534870000000001,0.022364,0.023155000000000002,-0.026775999999999998,-0.013377000000000002,0.004954,-0.000286,-0.002802
530,1.6436220000000001,-1.2648760000000001,1.259119,0.300373,0.95357,0.021914,0.004975,-0.029934,-0.007091,0.012813999999999999,0.005704,-0.009234000000000001
531,1.64353,-1.264931,1.259491,0.300323,0.9535870000000001,0.021882,-0.013133,-0.016052,0.00024300000000000002,0.012971000000000002,0.002529,-0.015321000000000001
532,1.644914,-1.2648059999999999,1.260972,0.30041,0.953549,0.022306,-0.030116000000000004,0.008487999999999999,0.0054340000000000005,0.001485,-0.000134,-0.01103
533,1.6473959999999999,-1.264616,1.263176,0.300535,0.953492,0.023066,-0.034316,0.024477000000000002,0.006451999999999999,0.001284,0.011932,-0.013484000000000001
534,1.6495229999999999,-1.264406,1.264904,0.300685,0.953428,0.023721000000000003,-0.023681,0.020166,0.009737,-0.009639,0.004091,-0.019204
535,1.6506889999999999,-1.264243,1.2659790000000002,0.30081199999999997,0.9533799999999999,0.024084,-0.014128,-6.9e-05,0.000215,-0.012497,0.0076950000000000005,-0.022024000000000002
536,1.6506169999999998,-1.26439,1.2660040000000001,0.300675,0.9534239999999999,0.024051,0.007243,-0.004358,-0.01138,-0.008194,0.008597,-0.02071
537,1.649589,-1.2646979999999999,1.265085,0.300406,0.9535170000000001,0.023719,0.019029,-0.008722,-0.014559,0.0037170000000000003,0.007497,-0.017814
538,1.648347,-1.265028,1.2638479999999999,0.300121,0.953616,0.023321,0.013733,0.0019399999999999999,-0.012473,0.008732,0.002424,-0.0147
539,1.648119,-1.265325,1.263452,0.299844,0.9537049999999999,0.023231,0.002036,0.010504000000000001,-0.012565999999999999,0.011634,0.002716,-0.010536
540,1.6489639999999999,-1.2654809999999999,1.2638989999999999,0.299676,0.953752,0.023472999999999997,-0.010714,0.028631999999999998,-0.006268999999999999,0.013633000000000001,0.001173,-0.008519
541,1.650723,-1.265439,1.2651139999999998,0.299673,0.9537399999999999,0.024003,-0.024626,0.029702999999999997,0.004315,0.006037,0.006435,-0.005006
542,1.652671,-1.265296,1.2664959999999998,0.299763,0.9536969999999999,0.024598,-0.020349000000000003,0.031819,0.004342,-0.002003,0.007256,-0.013337
543,1.6542419999999998,-1.265279,1.267685,0.29974,0.953691,0.02507,-0.017187,0.015859,-0.003093,-0.007809,0.005964,-0.017532
544,1.6552369999999998,-1.265328,1.2685879999999998,0.299668,0.9537059999999999,0.025365000000000002,-0.010839,0.000935,-0.006234,-0.0010539999999999998,0.005751,-0.016011
545,1.6551049999999998,-1.265469,1.268489,0.299538,0.953749,0.025314,0.008355,-0.002323,-0.007164,-0.001656,0.0027489999999999997,-0.010528000000000001
546,1.654453,-1.265655,1.267715,0.299377,0.9538040000000001,0.025103999999999998,0.013694,0.009133,-0.00826,-0.0007480000000000001,0.004646,-0.006456999999999999
547,1.6537709999999999,-1.265893,1.2669569999999999,0.299168,0.9538760000000001,0.024880000000000003,0.008307,-0.004688,-0.010416,0.006664,0.010449,-0.006875
548,1.653389,-1.266065,1.266867,0.29901500000000003,0.9539270000000001,0.024753,-0.004587,-0.020640000000000002,-0.006213000000000001,0.013699000000000001,0.002676,-0.014941
549,1.654134,-1.2660799999999999,1.268019,0.298981,0.953932,0.024974,-0.024838,-0.009942,4.1e-05,0.013441999999999999,-0.00128,-0.018016
550,1.656264,-1.265959,1.270184,0.29904200000000003,0.953896,0.025620999999999998,-0.035443999999999996,0.009249,0.0052840000000000005,0.00624,0.003059,-0.020158000000000002
551,1.6580580000000003,-1.2657479999999999,1.271981,0.299196,0.953832,0.026175,-0.021623,0.001731,0.008594,-0.00168,0.005045,-0.021703999999999998
552,1.6587560000000001,-1.265536,1.272728,0.299379,0.9537690000000001,0.026400999999999997,-0.00883,-0.00044400000000000006,0.008686,-0.007509,0.011441,-0.021442
553,1.6585290000000001,-1.26537,1.2724600000000001,0.29954200000000003,0.9537190000000001,0.026347000000000002,0.010329000000000001,0.0013,0.006664,-0.010815,0.016191,-0.017085
554,1.657082,-1.2653809999999999,1.2710299999999999,0.29957,0.953722,0.025913,0.026331999999999998,-0.008305,-0.002826,-0.0071200000000000005,0.008222,-0.014103000000000001
555,1.6549599999999998,-1.2655459999999998,1.269113,0.29946799999999996,0.953772,0.025263999999999998,0.02737,-0.018945,-0.007078,-0.00302,0.005716,-0.009547
556,1.65304,-1.265768,1.267426,0.29930500000000004,0.953839,0.024672,0.021006999999999998,-0.0104,-0.007134000000000001,0.002774,0.0036659999999999996,-0.005308
557,1.651993,-1.265916,1.2663959999999999,0.29919,0.953883,0.024347,0.0093,0.000276,-0.002956,0.006367,0.0033009999999999997,-0.004983
558,1.6522009999999998,-1.265927,1.266459,0.299175,0.953886,0.024408000000000003,-0.008803,0.012041,0.001175,0.006169,0.002184,-0.008905
559,1.6533080000000002,-1.265814,1.267435,0.299255,0.953852,0.024748,-0.018456999999999998,0.005661,0.006456999999999999,0.003998,0.0032549999999999996,-0.010863
560,1.654534,-1.265665,1.268676,0.29936599999999997,0.953807,0.025127,-0.019538999999999997,0.00034700000000000003,0.00432,-0.001255,0.003453,-0.018397999999999998
561,1.655227,-1.2656370000000001,1.2695530000000002,0.299375,0.953799,0.025337000000000002,-0.008893999999999999,-0.011382,-0.002,-0.00048600000000000005,0.003843,-0.015662
562,1.655016,-1.265716,1.2695969999999999,0.299304,0.953823,0.025266999999999998,0.0017809999999999998,-0.01153,-0.005146,0.001294,0.001591,-0.011519
563,1.654441,-1.265871,1.269167,0.299171,0.9538690000000001,0.025082,0.008215,-0.008339,-0.009378000000000001,0.0018390000000000001,0.0052369999999999995,-0.009564
564,1.653566,-1.266078,1.268571,0.29899699999999996,0.953931,0.024804,0.007104999999999999,-0.017922999999999998,-0.009373000000000001,0.003814,0.0021379999999999997,-0.006952
565,1.653091,-1.2662280000000001,1.268484,0.298865,0.953976,0.024651,-0.003582,-0.018963999999999998,-0.006242,0.006142,0.003604,-0.009926
566,1.653407,-1.266278,1.269112,0.29880999999999996,0.9539920000000001,0.024741,-0.012103000000000001,-0.010433,-0.0009710000000000001,0.007114,0.005741,-0.01316
567,1.654298,-1.266229,1.2701850000000001,0.298835,0.9539770000000001,0.025012,-0.017412999999999998,-0.001905,0.0021850000000000003,0.003518,0.007845999999999999,-0.011446
568,1.6555630000000001,-1.266124,1.271414,0.298904,0.953945,0.025398,-0.019504,0.008751,0.003225,-0.0034479999999999997,0.006901000000000001,-0.012748
569,1.6567020000000001,-1.266043,1.272309,0.298951,0.9539209999999999,0.025745,-0.011931,0.016142,7.4e-05,-0.006653,0.007169,-0.014347
570,1.657355,-1.2660790000000002,1.272786,0.29890100000000003,0.953932,0.025937,-0.004497,0.004415,-0.004131,-0.004574,0.006304,-0.017621
571,1.6572209999999998,-1.266248,1.272807,0.298744,0.953983,0.025883,0.002919,-0.012634000000000001,-0.009399,-0.002479,0.006375,-0.021488999999999998
572,1.656608,-1.266445,1.272499,0.298572,0.954041,0.025684,0.003971,-0.015833,-0.009387000000000001,0.007244,0.004424,-0.020938
573,1.656336,-1.266633,1.2723209999999998,0.29839899999999997,0.954098,0.025587000000000002,0.0019089999999999999,0.002275,-0.007289,0.006731,0.003635,-0.018172
574,1.6563900000000003,-1.266684,1.2721770000000001,0.298349,0.9541129999999999,0.025599,0.000857,0.012902,0.000168,0.0048119999999999994,0.002933,-0.013316
575,1.65672,-1.266684,1.272265,0.298342,0.9541129999999999,0.025698000000000002,-0.004487,0.010790000000000001,0.000133,0.000852,0.00777,-0.014544
576,1.6572380000000002,-1.266677,1.2726790000000001,0.298336,0.954111,0.025852999999999998,-0.007712,0.004414,-0.000949,0.0043219999999999995,0.005026,-0.015262999999999999
577,1.657816,-1.266653,1.2731940000000002,0.29834299999999997,0.9541040000000001,0.026026999999999998,-0.008676999999999999,0.0053100000000000005,0.000178,0.0050479999999999995,0.005018,-0.017711
578,1.658348,-1.266638,1.273617,0.29834299999999997,0.954099,0.026187000000000002,-0.0065439999999999995,0.005302,0.000193,0.006543000000000001,0.0051140000000000005,-0.018192
579,1.658675,-1.26663,1.273887,0.29834099999999997,0.954097,0.026285000000000003,-0.004419,0.003164,0.00021099999999999998,0.006575,0.004536,-0.014551
580,1.659018,-1.26664,1.2741200000000001,0.298323,0.9541,0.026387,-0.004386,0.009559999999999999,-0.000866,0.002809,0.0033280000000000002,-0.013951
581,1.6594060000000002,-1.2666110000000002,1.274322,0.29834099999999997,0.954091,0.026505,-0.005472,0.007425,0.001266,0.002318,0.001384,-0.014863
582,1.659823,-1.266569,1.274745,0.29836999999999997,0.9540790000000001,0.026632999999999997,-0.007658,-0.005347,0.000199,0.009812000000000001,0.002937,-0.0185
583,1.6599599999999999,-1.266583,1.275202,0.298352,0.954083,0.026673000000000002,-0.008764,-0.015987,-0.0019320000000000001,0.00899,0.00072,-0.013718000000000001
584,1.6605029999999998,-1.266523,1.275945,0.298396,0.9540649999999999,0.02684,-0.012997,-0.00321,0.0033640000000000002,0.00385,0.007453,-0.01326
585,1.6610220000000002,-1.266427,1.276451,0.29847199999999996,0.9540360000000001,0.027002999999999996,-0.007495999999999999,0.004138,0.004516,0.0011949999999999999,0.008564,-0.0115
586,1.6614669999999998,-1.266337,1.2768329999999999,0.298546,0.954009,0.027144,-0.007490999999999999,0.003082,0.002381,-0.000343,0.009797,-0.012312
587,1.6616849999999999,-1.266282,1.277146,0.298592,0.953993,0.027214,-0.00541,-0.009705,0.001343,-0.00013000000000000002,0.0069299999999999995,-0.014656
588,1.661548,-1.266259,1.277348,0.298618,0.9539860000000001,0.027175,-0.004391,-0.021422,0.000297,0.002255,0.004312,-0.007735
589,1.6615380000000002,-1.266238,1.277657,0.298638,0.9539790000000001,0.027173000000000003,-0.0064670000000000005,-0.007571,0.001333,6.8e-05,0.005325,-0.00813
590,1.6619099999999998,-1.266176,1.278043,0.298687,0.9539610000000001,0.02729,-0.007501000000000001,0.003073,0.004517,0.0017579999999999998,0.006702,-0.007484
591,1.66219,-1.2660879999999999,1.278316,0.298763,0.9539340000000001,0.027381,-0.0032329999999999998,0.001997,0.0034799999999999996,-0.0019649999999999997,0.008879999999999999,-0.015662
592,1.662236,-1.26603,1.278422,0.298817,0.953917,0.0274,-6.1e-05,-0.0054670000000000005,0.002443,0.003689,0.008882,-0.019556999999999998
593,1.6618849999999998,-1.266001,1.278362,0.298854,0.953908,0.027298000000000003,-0.000133,-0.021446,0.002463,0.007161,0.005778,-0.011367
594,1.661625,-1.265908,1.2784309999999999,0.298948,0.953881,0.027228,-0.0032340000000000003,-0.008693000000000001,0.006743000000000001,0.002092,0.006447,-0.002219
595,1.661729,-1.26575,1.278616,0.29909600000000003,0.953833,0.027273000000000002,-0.003215,-0.0033710000000000003,0.0078049999999999994,-0.001916,0.00863,-0.0060479999999999996
596,1.661456,-1.2655889999999999,1.278492,0.299257,0.953785,0.027205,0.001019,-0.010843,0.007844,-0.000459,0.006848000000000001,-0.010619
597,1.6608040000000002,-1.265427,1.278159,0.299428,0.953736,0.027024,0.004196,-0.01618,0.007873,0.001048,0.00415,-0.018219
598,1.6601290000000002,-1.265311,1.277758,0.299557,0.953701,0.026831999999999998,0.0063479999999999995,-0.015109000000000001,0.004682,0.004536,0.00806,-0.018027
599,1.659214,-1.265236,1.2772299999999999,0.299652,0.953679,0.026563999999999997,0.00632,-0.021501,0.00469,0.006836,0.0030629999999999998,-0.006743000000000001
600,1.658552,-1.265117,1.276877,0.29978299999999997,0.953643,0.026375,0.004215,-0.011918999999999999,0.007867,0.005286,0.006242,-0.001778
601,1.6581439999999998,-1.264918,1.276724,0.299982,0.953583,0.026269999999999998,0.0020570000000000002,-0.014055000000000002,0.011059999999999999,0.004492,0.006987999999999999,-0.00065
602,1.6574650000000002,-1.2646959999999998,1.2763360000000001,0.300212,0.953516,0.026083999999999996,0.004298,-0.01401,0.011134999999999999,-0.0025440000000000003,0.006872,-0.010017
603,1.6568900000000002,-1.264519,1.27596,0.300394,0.953462,0.025925999999999998,0.007527,-0.009752,0.009016,-0.002726,0.006926000000000001,-0.009859
604,1.655903,-1.2643790000000001,1.275223,0.300552,0.953421,0.025641000000000004,0.011776,-0.01615,0.006917,0.002579,0.002482,-0.014440999999999999
605,1.6548009999999997,-1.2642799999999998,1.274406,0.300675,0.953391,0.025318,0.011795,-0.01295,0.005845,0.003936,0.003793,-0.006885
606,1.653875,-1.264203,1.273601,0.300771,0.953367,0.025044999999999998,0.011833,-0.005489,0.004768,0.002986,0.002275,-0.007315
607,1.6532060000000002,-1.2641440000000002,1.27301,0.300844,0.953349,0.024849,0.005442,-0.005458,0.0025859999999999998,0.002363,0.0015609999999999999,-0.006966
608,1.6528630000000002,-1.264125,1.272774,0.300871,0.9533440000000001,0.024746999999999998,0.001188,-0.00543,-0.000648,0.004656,-0.008641,-0.013044
609,1.6530080000000003,-1.264143,1.272869,0.30085100000000004,0.953349,0.024789,-0.003954999999999999,0.009521,-0.002774,0.007056000000000001,-0.00587,-0.016046
610,1.654366,-1.264307,1.273652,0.300661,0.953399,0.025185,-0.016556,0.043697,-0.013588,0.005232,-0.005385,-0.019356
611,1.6566130000000001,-1.264606,1.27468,0.300318,0.9534889999999999,0.025836,-0.01213,0.075653,-0.016803,-0.001475,0.01784,-0.010333
612,1.658162,-1.264874,1.274437,0.30002399999999996,0.95357,0.026279000000000004,0.016709,0.089375,-0.010209000000000001,-0.009375,0.014143000000000001,-0.005023
613,1.6576919999999997,-1.265082,1.272744,0.29983899999999997,0.9536319999999999,0.026119999999999997,0.024990000000000002,0.032886,-0.010079000000000001,-0.00806,0.001583,-0.004239
614,1.656987,-1.265326,1.271865,0.299626,0.9537059999999999,0.025889,0.005638000000000001,-0.0032530000000000002,-0.013373,0.029293,0.000579,-0.021357
615,1.6565,-1.2654940000000001,1.271587,0.299478,0.9537559999999999,0.025729000000000002,0.00558,-0.007548,-0.004822,0.02384,0.0015810000000000002,-0.027148000000000002
616,1.6564419999999997,-1.265457,1.271196,0.29951500000000003,0.9537450000000001,0.025715,0.0067670000000000004,0.029689999999999998,0.005821,0.009674,0.006292,-0.029575
617,1.65652,-1.265447,1.2706620000000002,0.29952199999999995,0.953742,0.025738999999999998,0.009043,0.021181000000000002,-0.001598,0.0018390000000000001,0.013222999999999999,-0.015699
618,1.6561849999999998,-1.265518,1.269937,0.29946300000000003,0.9537629999999999,0.025633,0.011211,0.025448,-0.004793,0.003912,0.011981,-0.01248
619,1.656897,-1.265623,1.26978,0.29934499999999997,0.9537950000000001,0.025838,-0.002553,0.048931999999999996,-0.004919,0.002367,0.011308,-0.008519
620,1.658136,-1.265775,1.270524,0.299169,0.9538399999999999,0.026195999999999997,-0.0187,0.008542000000000001,-0.013526,0.001734,0.005175,-0.016888
621,1.659339,-1.26606,1.2721790000000002,0.29886599999999997,0.953926,0.026532,-0.02525,-0.028702999999999996,-0.017797,0.012948,0.006934999999999999,-0.023831
622,1.6605900000000002,-1.26627,1.274139,0.298632,0.953989,0.026888,-0.029550999999999997,-0.028718,-0.01035,0.017317,0.0035299999999999997,-0.035936
623,1.6611369999999999,-1.266314,1.275408,0.298575,0.954002,0.027047,-0.013628999999999999,-0.039456,-0.002747,0.010675,0.006188,-0.034234
624,1.6601830000000002,-1.266484,1.275672,0.298439,0.954053,0.026748,0.001206,-0.07355,-0.01435,0.006675,-0.001279,-0.029708
625,1.658653,-1.266822,1.275668,0.298159,0.9541540000000001,0.026262999999999998,-0.003949,-0.072395,-0.018665,0.011274,0.003213,-0.011431
626,1.6578700000000002,-1.267092,1.276462,0.29792199999999996,0.954235,0.026007,-0.018948,-0.084069,-0.016618,0.015325,0.0030399999999999997,-0.014609
627,1.657577,-1.267308,1.278412,0.297725,0.9543,0.025901999999999998,-0.036209,-0.120254,-0.010283,0.015569,0.004028,-0.012596
628,1.658047,-1.2672940000000001,1.281441,0.297725,0.9542959999999999,0.026043,-0.05115,-0.11065699999999999,0.00028199999999999997,0.006474,0.00121,-0.007854
629,1.659454,-1.267075,1.2845030000000002,0.297896,0.9542299999999999,0.02648,-0.040261,-0.053203999999999994,0.008831,-0.006957,0.009927,-0.003668
630,1.6602430000000001,-1.266897,1.286152,0.298045,0.954177,0.02673,-0.017775,-0.039417,0.004697,-0.008433,0.007585,-0.002026
631,1.660093,-1.26683,1.2868870000000001,0.298113,0.9541569999999999,0.026691000000000003,-0.010274,-0.038352,-0.001661,-0.009812999999999999,0.003821,-0.004612
632,1.660496,-1.266873,1.287887,0.298061,0.9541700000000001,0.026808,-0.018732,-0.024461,-0.004943,0.001118,0.025138999999999998,-0.012662999999999999
633,1.661024,-1.26691,1.289126,0.298012,0.954181,0.026962,-0.017676,-0.040277999999999994,-0.0017920000000000002,0.004723,0.01875,-0.012558
634,1.661373,-1.2668059999999999,1.2902870000000002,0.298101,0.95415,0.027075,-0.020867,-0.028588,0.007784999999999999,0.006816,0.0033090000000000003,-0.007634999999999999
635,1.662277,-1.2665819999999999,1.291282,0.29829,0.954083,0.027364,-0.01005,0.008642,0.012085,-0.006435,0.004993,-0.011602
636,1.6620169999999999,-1.266412,1.2909059999999999,0.298458,0.954032,0.027301,0.012364,0.005389,0.006905,-0.017178,-0.000739,-0.016071000000000002
637,1.6613,-1.266438,1.289872,0.298453,0.954039,0.027085,0.01566,0.015012000000000001,-0.004835,-0.011725,0.011613,-0.009629
638,1.6603439999999998,-1.2666520000000001,1.288988,0.298275,0.9541040000000001,0.026782,0.011273,-0.019031,-0.012299,-0.0008210000000000001,0.011122,-0.00043
639,1.6594950000000002,-1.266896,1.288646,0.298067,0.954176,0.026507999999999997,0.0016469999999999998,-0.022202,-0.010226,0.008086,0.001603,0.005765
640,1.6597849999999998,-1.267074,1.289096,0.29789,0.9542299999999999,0.026579000000000002,-0.009992000000000001,0.002327,-0.007134000000000001,0.009925,0.00036,0.0049
641,1.6604349999999999,-1.2671649999999999,1.28966,0.29778699999999997,0.954257,0.026764999999999997,-0.005729,0.005490999999999999,-0.002836,0.004841,0.001935,9.1e-05
642,1.6605830000000001,-1.267147,1.289688,0.2978,0.954252,0.026810000000000004,0.002771,0.004525,0.0035369999999999998,0.004889,0.004275,-0.009202
643,1.6605169999999998,-1.267076,1.2895889999999999,0.29786999999999997,0.9542299999999999,0.026797,0.000618,0.000272,0.0035280000000000003,0.0045130000000000005,0.00892,-0.006564
644,1.6602,-1.26704,1.289272,0.297913,0.9542200000000001,0.026706,0.0070290000000000005,-0.0008029999999999999,0.00036899999999999997,0.003036,0.0014990000000000001,-0.00101
645,1.659657,-1.2670700000000001,1.288658,0.29789899999999997,0.9542290000000001,0.026541000000000002,0.011339,0.007708,-0.0006799999999999999,0.001906,-0.0023239999999999997,0.00023799999999999998
646,1.659248,-1.2670569999999999,1.287864,0.297921,0.954225,0.026420999999999997,0.010325,0.022613,0.0024980000000000002,-0.006462999999999999,0.000396,-0.006981
647,1.659557,-1.26692,1.2874709999999998,0.298043,0.954184,0.026524000000000002,0.000771,0.040726,0.009886,-0.013543000000000001,0.008554,-0.019169
648,1.660953,-1.266633,1.287808,0.29827800000000004,0.954098,0.026965,-0.010892,0.062051,0.015118000000000001,-0.016066999999999998,0.012684,-0.023577
649,1.6631060000000002,-1.266353,1.288569,0.298485,0.9540139999999999,0.027632,-0.011892,0.072725,0.010825,-0.006951000000000001,0.030437,-0.036512
650,1.6648009999999998,-1.266225,1.2889110000000001,0.29856,0.953976,0.028149,-0.001292,0.063975,0.003437,-0.004752,0.021473,-0.037945
651,1.665547,-1.266308,1.2885799999999998,0.29846100000000003,0.954,0.028364,0.006143,0.048004000000000005,-0.005037,-0.0027300000000000002,0.011393,-0.038847
652,1.6653099999999998,-1.266571,1.287648,0.298217,0.9540790000000001,0.02827,0.015668,0.023499000000000003,-0.012416,-0.0024100000000000002,0.009635,-0.033885000000000005
653,1.6644029999999999,-1.266952,1.286568,0.297881,0.9541930000000001,0.027964999999999997,0.016634,-0.00418,-0.017715,0.0011,0.002838,-0.019329
654,1.6629,-1.267449,1.285485,0.29745,0.954342,0.027474000000000002,0.014394999999999998,-0.033975,-0.024102000000000002,0.010106,0.0030859999999999998,-0.00512
655,1.6613669999999998,-1.267906,1.28481,0.297056,0.954478,0.026979000000000003,0.006845,-0.046752999999999996,-0.018797,0.007662,-0.00022400000000000002,0.00183
656,1.6601400000000002,-1.268225,1.284409,0.296786,0.954574,0.026587,0.0036590000000000004,-0.03718,-0.012423,0.005369,-0.0043630000000000006,0.005487
657,1.6597810000000002,-1.268415,1.284413,0.296615,0.95463,0.026463999999999998,-0.0036090000000000002,-0.004085,-0.008142,0.004029,-0.00062,0.007243
658,1.6606759999999998,-1.268497,1.284908,0.296512,0.9546549999999999,0.026722000000000003,-0.009876000000000001,0.030008999999999997,-0.0039570000000000004,0.004452,0.0016600000000000002,0.005214
659,1.662359,-1.2684600000000001,1.2859260000000001,0.296502,0.954644,0.027225,-0.017334,0.037471,0.001323,0.011009,0.006431,-0.002246
660,1.664321,-1.268374,1.2871110000000001,0.29653,0.9546180000000001,0.027814,-0.015186000000000002,0.04172,0.0024010000000000004,0.011667,0.0071129999999999995,-0.009565
661,1.665456,-1.268259,1.287582,0.296608,0.954583,0.028161000000000002,-0.0024649999999999997,0.026749000000000002,0.005713,0.01165,0.001227,-0.019906
662,1.665678,-1.268152,1.287392,0.296703,0.9545520000000001,0.028236,0.006036,0.018201,0.004715,0.008412000000000001,0.0084,-0.027489
663,1.6649759999999998,-1.26815,1.286309,0.296725,0.954551,0.028027999999999997,0.019915000000000002,0.014978,-0.000525,0.006162,0.000557,-0.025206
664,1.6637979999999999,-1.2682879999999999,1.28488,0.296627,0.954592,0.027667,0.020982,0.007548,-0.007984999999999999,0.008869,0.003156,-0.01546
665,1.6625849999999998,-1.268459,1.2835020000000001,0.29649899999999996,0.954643,0.027292,0.019128,0.003973,-0.006831,-0.000616,0.000145,-0.003137
666,1.662003,-1.268598,1.282678,0.296383,0.954685,0.027107,0.0074459999999999995,0.014671,-0.007994,-0.003017,0.008709999999999999,0.0034869999999999996
667,1.6619959999999998,-1.2687680000000001,1.282443,0.296222,0.954735,0.027089999999999996,0.001006,0.006171,-0.008028,0.004941,0.007164,-0.004248
668,1.662307,-1.26892,1.282627,0.296069,0.95478,0.027169,-0.004309,0.010451,-0.008071,0.005964,0.006005,-0.009744
669,1.663225,-1.26904,1.283219,0.29593,0.954816,0.02743,-0.010662,0.021126,-0.008129,0.0058130000000000005,0.004825,-0.013682
670,1.6645759999999998,-1.2691780000000001,1.284067,0.29575999999999997,0.954857,0.027818,-0.010624,0.029648,-0.008140000000000001,0.012237999999999999,0.001411,-0.015352000000000001
671,1.665491,-1.269312,1.284584,0.295607,0.9548969999999999,0.028076,-0.0064329999999999995,0.01365,-0.007022,0.016984,0.001234,-0.018601
672,1.665744,-1.269413,1.28475,0.295504,0.9549270000000001,0.028142,-0.001161,0.001905,-0.004833,0.014204,0.000365,-0.021153
673,1.6657520000000001,-1.2694889999999999,1.2846899999999999,0.29543200000000003,0.9549489999999999,0.028138,0.001208,0.005645000000000001,-0.003679,0.0022670000000000004,0.000281,-0.019196
674,1.6655779999999998,-1.269541,1.28433,0.295388,0.954965,0.028082,0.0087,0.010945,-0.0036340000000000005,-0.001656,-0.004113,-0.01824
675,1.665303,-1.2696459999999998,1.283735,0.295296,0.954996,0.027991000000000002,0.006595,0.015222,-0.00579,0.000816,0.009558,-0.015707
676,1.665082,-1.269729,1.283319,0.295223,0.9550209999999999,0.027918000000000002,0.0033369999999999997,0.004572,-0.0036630000000000005,0.001347,0.009594,-0.003443
677,1.6651880000000001,-1.269751,1.283316,0.295198,0.9550270000000001,0.027947000000000003,-0.0041270000000000005,0.008846,-0.000516,-4.8e-05,0.006581999999999999,-0.004098
678,1.66586,-1.26981,1.283782,0.295123,0.955045,0.02814,-0.009442,0.008882,-0.0048259999999999996,5.7999999999999994e-05,0.004733,-0.016315
679,1.6662080000000001,-1.269935,1.2841989999999999,0.294996,0.955082,0.028232,-0.005227000000000001,-0.007095000000000001,-0.009049,0.005007,1.2e-05,-0.023471000000000002
680,1.6666130000000001,-1.270106,1.284734,0.294821,0.955132,0.028335000000000003,-0.009470000000000001,-0.002814,-0.010152,0.010416,0.0036079999999999997,-0.021057
681,1.667377,-1.2702950000000002,1.285627,0.29462,0.9551879999999999,0.028543000000000002,-0.014686000000000001,-0.006906,-0.01123,0.005841,-0.000339,-0.009989
682,1.668698,-1.270443,1.287142,0.29444000000000004,0.955232,0.028919,-0.025353999999999998,-0.0047469999999999995,-0.009170999999999999,0.005517,0.000609,-0.0036200000000000004
683,1.669907,-1.270551,1.288599,0.294302,0.9552639999999999,0.029264,-0.020068,-0.014357,-0.008053,0.009866,0.009473,-0.0074140000000000005
684,1.670791,-1.270609,1.289906,0.294222,0.9552809999999999,0.029519,-0.019035,-0.016513,-0.002702,0.007963,0.009761,-0.014108
685,1.6711639999999999,-1.270559,1.290476,0.294259,0.955266,0.029633999999999997,-0.004079,-0.005938000000000001,0.0037979999999999997,-0.002572,0.007136,-0.024064
686,1.670928,-1.27045,1.290367,0.294369,0.955234,0.029574,0.004456,-0.005968,0.003858,-0.006375,0.006024,-0.020221
687,1.6702830000000002,-1.270415,1.289831,0.294421,0.955224,0.029388,0.008737,-0.007031,-0.000384,-0.0032229999999999997,0.00344,-0.001953
688,1.669829,-1.27042,1.2893350000000001,0.29443,0.955225,0.029254000000000002,0.005604,0.008955,0.000642,-0.0033829999999999997,0.004705,0.006253
689,1.66973,-1.2704600000000001,1.288951,0.29439499999999996,0.9552370000000001,0.029220999999999997,0.001399,0.013191999999999999,-0.001429,-0.0013039999999999998,0.008722,-0.003113
690,1.6704400000000001,-1.270458,1.289611,0.294376,0.9552370000000001,0.02943,-0.017877,-0.000598,0.00059,-0.002353,0.005777,-0.00848
691,1.6717689999999998,-1.27041,1.291199,0.29438200000000003,0.9552219999999999,0.029826,-0.026474,-0.014417,0.0005480000000000001,0.007864,0.003625,-0.023219
692,1.6728020000000001,-1.270365,1.292853,0.294394,0.955209,0.030133999999999998,-0.023355,-0.033598,-0.00047400000000000003,0.019495,0.009146,-0.025831
693,1.673713,-1.2702579999999999,1.294516,0.294468,0.955177,0.030413,-0.024426,-0.029355000000000003,0.004854,0.018658,0.009514,-0.019106
694,1.6748779999999999,-1.270011,1.296066,0.294667,0.9551040000000001,0.030781,-0.024364,-0.007018000000000001,0.013372,-0.013295,0.010579,-0.014484
695,1.6758560000000002,-1.269801,1.297105,0.294836,0.9550420000000001,0.031089999999999996,-0.014695,-0.0006259999999999999,0.004886,-0.026128,0.008795,-0.015785
696,1.6757819999999999,-1.269908,1.297498,0.29473699999999997,0.955073,0.031056999999999998,-0.0009220000000000001,-0.038956,-0.012061,-0.019865,0.009023,-0.015478
697,1.674623,-1.270205,1.2972629999999998,0.29449000000000003,0.9551620000000001,0.030686,0.005475,-0.044495,-0.017254,0.005222999999999999,0.005959000000000001,-0.00937
698,1.673502,-1.270534,1.2968600000000001,0.294211,0.955259,0.030324,0.006576,-0.031737,-0.011922,0.0034270000000000004,0.0066549999999999995,0.012584
699,1.673107,-1.2706870000000001,1.2967959999999998,0.294077,0.955304,0.030193,-0.002968,-0.010431999999999999,-0.0034700000000000004,-0.0008640000000000001,-0.000424,0.012883000000000002
700,1.673861,-1.27073,1.297574,0.294013,0.955317,0.030410000000000003,-0.017828,0.009848,-0.000395,0.0006799999999999999,0.004247,0.005936
701,1.6754959999999999,-1.2706469999999999,1.299031,0.294043,0.955292,0.030899,-0.024248,0.007731,0.0016989999999999998,0.009179000000000001,0.008651,-0.008881
702,1.677112,-1.270477,1.300906,0.294155,0.955242,0.031392,-0.028635,-0.01252,0.008104,0.017064,0.006062,-0.017003
703,1.6785619999999999,-1.270174,1.302545,0.294396,0.955152,0.031849,-0.021148,-0.0019190000000000001,0.014552,0.009955,0.003176,-0.021061
704,1.679175,-1.26987,1.303248,0.294666,0.9550620000000001,0.032061,-0.00514,-0.00197,0.013595,-0.002873,0.010819,-0.019015
705,1.678984,-1.2697,1.3029709999999999,0.294833,0.9550120000000001,0.032022,0.007701,0.0009220000000000001,0.005267,-0.0033439999999999998,0.010320000000000001,-0.017266999999999998
706,1.677629,-1.269672,1.301734,0.294903,0.9550040000000001,0.031626,0.022627,-0.006566,3.9e-05,-0.004422,0.003065,-0.008112000000000001
707,1.6759939999999998,-1.2697319999999999,1.300034,0.294898,0.9550209999999999,0.031138,0.023722999999999998,-0.001239,-0.0010279999999999998,-0.004294,0.00346,-0.004542
708,1.6740669999999997,-1.269822,1.298211,0.294871,0.955048,0.030560000000000004,0.024746999999999998,-0.01083,-0.001009,0.0016530000000000002,0.002624,0.00278
709,1.6731919999999998,-1.269857,1.297275,0.294864,0.955058,0.030299,0.006701,0.011595000000000001,0.000973,0.00436,0.0011949999999999999,0.005147
710,1.6736,-1.269767,1.297189,0.294937,0.955032,0.030427999999999997,-0.001771,0.03184,0.007297,0.006836,0.006592,0.006940999999999999
711,1.674364,-1.269611,1.297274,0.295063,0.9549860000000001,0.030669,-0.001771,0.03184,0.007297,0.0032770000000000004,0.006547,-0.001998
712,1.6750759999999998,-1.269426,1.297374,0.295217,0.95493,0.030897000000000004,-0.000709,0.031832,0.008373,-0.0021260000000000003,0.009425,-0.00633
713,1.675513,-1.269344,1.2972,0.295281,0.9549059999999999,0.031034,0.0036030000000000003,0.027333,0.002149,-0.001092,0.00861,-0.010603
714,1.675471,-1.269336,1.296777,0.29529,0.9549040000000001,0.031023000000000002,0.007837,0.016678,-0.0010119999999999999,-1.7e-05,0.0044469999999999996,-0.015290999999999999
715,1.67524,-1.26938,1.296165,0.29525500000000005,0.954917,0.03095,0.008912999999999999,0.017744,-0.002074,0.0034969999999999997,0.003503,-0.01647
716,1.6746459999999999,-1.269443,1.2953620000000001,0.295213,0.954936,0.030769,0.013119,0.0038799999999999998,-0.002027,0.006804000000000001,0.005162,-0.011923999999999999
717,1.6738110000000002,-1.269509,1.294448,0.295177,0.9549549999999999,0.030516,0.013104,0.002807,0.00011100000000000001,0.010777,0.009965,-0.006376
718,1.6730349999999998,-1.269511,1.293531,0.295198,0.9549559999999999,0.030286,0.013119,0.008124,0.00224,0.009856,0.00911,-0.005598
719,1.672278,-1.269428,1.292659,0.2953,0.954931,0.030070999999999997,0.0077269999999999995,-0.000396,0.006487000000000001,0.00922,0.007319,-0.015331000000000001
720,1.6717990000000003,-1.269289,1.292309,0.295446,0.95489,0.029943,0.003407,-0.012098999999999999,0.006470999999999999,0.009349,0.0016829999999999998,-0.020696
721,1.671098,-1.269144,1.291903,0.295605,0.9548469999999999,0.029749,0.005635,-0.015411000000000001,0.007679000000000001,0.004459,-0.002576,-0.014552
722,1.670405,-1.268943,1.291353,0.29581599999999997,0.954787,0.029564,0.00674,-0.00371,0.010877,0.000678,0.005052,-0.012062
723,1.669561,-1.26884,1.2907629999999999,0.29593800000000003,0.954757,0.029324,0.008820999999999999,-0.023923,0.0023710000000000003,0.006232,0.0085,-0.009594
724,1.668088,-1.268859,1.289967,0.29596300000000003,0.9547620000000001,0.028886000000000002,0.010912,-0.037762000000000004,-0.0018690000000000002,0.011165999999999999,0.011073000000000001,-0.005906000000000001
725,1.6666830000000001,-1.268812,1.289282,0.296048,0.9547479999999999,0.028474,0.008759000000000001,-0.034589,0.005589,0.003711,0.005213000000000001,-0.0039380000000000005
726,1.665672,-1.268664,1.288728,0.296217,0.9547040000000001,0.028188,0.004554,-0.017542,0.008743,-0.002455,0.003471,-0.00237
727,1.665036,-1.2684870000000001,1.288327,0.296403,0.9546520000000001,0.028016000000000003,0.0035210000000000003,-0.010081999999999999,0.008726000000000001,-0.008362999999999999,0.0043939999999999995,-0.0018780000000000001
728,1.6643849999999998,-1.268342,1.287825,0.296559,0.954608,0.027836,0.009927,-0.011161,0.006634999999999999,-0.001165,0.008481,-0.004627
729,1.663272,-1.268291,1.286921,0.296639,0.954593,0.027510000000000003,0.015499,-0.012107999999999999,0.000349,0.001335,0.004712,-0.001998
730,1.662025,-1.268356,1.285819,0.296611,0.9546129999999999,0.027135000000000003,0.015537,-0.006769,-0.002862,0.0014550000000000001,0.007606999999999999,0.004207
731,1.661157,-1.26843,1.284968,0.296564,0.954635,0.026871,0.011284,-0.0024980000000000002,-0.001829,-0.000681,0.003327,-0.0033880000000000004
732,1.6607060000000002,-1.268499,1.28452,0.29651,0.9546549999999999,0.026731,0.004897,-0.00033999999999999997,-0.002945,0.005782,0.0014609999999999998,-0.010313
733,1.660607,-1.2685440000000001,1.284302,0.29646999999999996,0.9546680000000001,0.026698000000000003,0.0017350000000000002,0.009254,-0.001911,0.008203,0.006391,-0.013408000000000002
734,1.6607009999999998,-1.268528,1.284133,0.296483,0.954664,0.026726999999999997,0.0038640000000000002,0.012425,0.002373,0.004909,0.007418000000000001,-0.015634000000000002
735,1.6604619999999999,-1.268489,1.28369,0.296525,0.9546520000000001,0.026660000000000003,0.009189,0.009215000000000001,0.0013460000000000002,0.003157,0.002196,-0.014086000000000001
736,1.659859,-1.268548,1.2828959999999998,0.296485,0.95467,0.026476,0.014542,0.007091,-0.005023,-0.00225,-0.002872,-0.015901
737,1.6592930000000001,-1.268753,1.282097,0.29630500000000004,0.954731,0.026291000000000002,0.010328,0.012458,-0.011469,0.002523,0.008709,-0.011963
738,1.658643,-1.2690709999999998,1.281525,0.29601900000000003,0.954825,0.026070999999999997,0.008318,-0.018227,-0.017817,0.010376999999999999,0.0018399999999999998,-0.014016999999999998
739,1.658205,-1.2693450000000002,1.281319,0.29577,0.954907,0.025919,0.000898,-0.001182,-0.011481,0.010473999999999999,0.003254,-0.015436000000000002
740,1.6585349999999999,-1.269493,1.281299,0.295622,0.95495,0.026004000000000003,0.000989,0.024363,-0.0061719999999999995,0.0037409999999999995,0.00112,-0.011173
741,1.6591040000000001,-1.26962,1.281244,0.295485,0.954988,0.026162,-4.4e-05,0.031823000000000004,-0.006189,0.00551,0.003187,-0.015694
742,1.65955,-1.269706,1.281189,0.29539299999999996,0.9550139999999999,0.026286,0.002032,0.020094,-0.005091,0.002978,0.0045509999999999995,-0.021098
743,1.659702,-1.269811,1.28103,0.29529,0.955045,0.026322,0.0009609999999999999,0.015849000000000002,-0.008298,0.004835,0.002734,-0.013886
744,1.6601139999999999,-1.270047,1.281142,0.295055,0.9551149999999999,0.026424,-0.00223,0.013747,-0.01259,0.0062,0.002695,-0.009075
745,1.6606400000000001,-1.270326,1.281479,0.294775,0.955197,0.026555000000000002,-0.005445,0.009501,-0.013675999999999999,0.007089,0.0037869999999999996,-0.007863
746,1.6612900000000002,-1.270549,1.28198,0.29454600000000003,0.955263,0.026728,-0.00965,0.007379999999999999,-0.011587,0.00355,0.005918,-0.019434
747,1.662078,-1.270727,1.2826549999999999,0.294356,0.9553159999999999,0.026944,-0.009669,0.006302,-0.008381999999999999,0.00374,0.005866,-0.01965
748,1.662634,-1.270807,1.283175,0.294265,0.95534,0.027101,-0.006506999999999999,0.002013,-0.004081,-0.00027400000000000005,0.010221,-0.019487
749,1.6630610000000001,-1.270839,1.283391,0.294223,0.955349,0.027224,-0.0011,0.019034,-0.002997,-0.007571,0.008976000000000001,-0.011889
750,1.663501,-1.270945,1.283416,0.29411,0.9553799999999999,0.027344,-1.9e-05,0.019043,-0.006194,-0.007534999999999999,0.005771,-0.009934
751,1.663805,-1.271115,1.283455,0.29394000000000003,0.9554309999999999,0.027418,-0.002177,0.00948,-0.01047,-0.004328,0.00331,-0.007719
752,1.664079,-1.271304,1.283603,0.29375300000000004,0.9554860000000001,0.027482,-0.005392,0.0073560000000000006,-0.009420999999999999,0.00245,0.007603,-0.017991
753,1.664534,-1.2714370000000002,1.28407,0.293614,0.955526,0.027604000000000004,-0.0065260000000000006,-0.004371,-0.006209,0.00259,0.007562999999999999,-0.018113
754,1.6648189999999998,-1.271541,1.284478,0.293507,0.955556,0.027677999999999998,-0.007639,-0.003375,-0.003066,0.00761,0.007533,-0.014891
755,1.6655490000000002,-1.271531,1.285131,0.293496,0.9555530000000001,0.027893,-0.00972,0.012595,0.001172,0.001823,0.006437000000000001,-0.007187000000000001
756,1.6661700000000002,-1.2715040000000002,1.285466,0.293504,0.9555450000000001,0.028078,-0.002251,0.011508,0.00015800000000000002,-0.0018170000000000003,0.007925,-0.007737999999999999
757,1.6660439999999999,-1.271564,1.285267,0.29345,0.9555629999999999,0.028035,0.0062450000000000006,-0.001288,-0.00404,-0.002816,0.007404000000000001,-0.008764
758,1.665302,-1.271662,1.284618,0.293379,0.955592,0.027808999999999997,0.009417,-0.007691,-0.004009,9.4e-05,0.0062,-0.013908000000000002
759,1.664548,-1.2717479999999999,1.284043,0.293317,0.955617,0.02758,0.008345,-0.008753,-0.0040149999999999995,0.000522,0.005107,-0.016319
760,1.6638060000000001,-1.271851,1.283425,0.29323899999999997,0.9556479999999999,0.027353,0.011555,-0.005572,-0.0029289999999999997,0.006184,0.001185,-0.008081
761,1.663283,-1.271894,1.282733,0.293211,0.9556600000000001,0.027195999999999998,0.008305,0.013741999999999999,0.000139,0.004427,0.003278,0.001827
762,1.663143,-1.271898,1.2822870000000002,0.293211,0.9556610000000001,0.027154,0.004013,0.009492,0.001182,0.000978,0.00375,-0.0021449999999999998
763,1.6629040000000002,-1.271859,1.281927,0.29325500000000004,0.95565,0.027088,0.003999,0.008418,0.0033200000000000005,-0.000637,0.008187,-0.000522
764,1.662944,-1.271823,1.281751,0.293288,0.9556389999999999,0.027103,0.001875,0.009495,0.002236,-4.4e-05,0.011859,-0.008075
765,1.662969,-1.271795,1.281634,0.29331399999999996,0.9556309999999999,0.027112,0.000798,0.005246,9.7e-05,0.002188,0.003887,-0.007108
766,1.6628470000000002,-1.271771,1.281387,0.29334099999999996,0.955624,0.027079000000000002,0.007195,0.006281,0.002277,0.005182,-0.000576,-0.004755
767,1.6624709999999998,-1.2717479999999999,1.280794,0.29337199999999997,0.955617,0.026969999999999997,0.007219,0.011607,0.00227,0.005013,0.001551,-0.0030440000000000003
768,1.66255,-1.2717530000000001,1.280586,0.29336599999999996,0.955619,0.026993,-0.001287,0.014844999999999999,-0.000998,-0.002548,0.005197,0.000183
769,1.6629330000000002,-1.271799,1.280708,0.293311,0.9556319999999999,0.027101,-0.002507,0.016007,-0.004253,-0.000479,0.004832,-3.2e-05
770,1.66389,-1.271933,1.281217,0.293158,0.955672,0.02737,-0.009893,0.028838,-0.009662,0.003839,0.004106,-0.005077
771,1.665558,-1.2720879999999999,1.282161,0.292964,0.955717,0.027844999999999998,-0.011974,0.042685,-0.007558,0.009511,0.003832,-0.00987
772,1.666795,-1.272143,1.282541,0.292877,0.9557329999999999,0.028201999999999998,0.0008089999999999999,0.045806,5e-06,0.003266,0.008073,0.003322
773,1.667203,-1.272108,1.2819969999999998,0.292898,0.955723,0.028325,0.008248,0.042571,0.003266,-0.006567,0.012279,0.01208
774,1.6675060000000002,-1.2721559999999998,1.281756,0.29284299999999996,0.9557370000000001,0.028408999999999997,-0.000349,0.019204,-0.006378,0.001529,0.002484,-0.000471
775,1.668145,-1.2722440000000002,1.282258,0.29274,0.9557629999999999,0.028588,-0.011109,0.0032450000000000005,-0.00216,0.014587000000000001,-0.003325,-0.015237
776,1.6692,-1.272141,1.2832219999999999,0.292808,0.9557329999999999,0.028907,-0.013252000000000002,0.010671,0.007429000000000001,0.011895000000000001,0.000337,-0.027121
777,1.6702259999999998,-1.271842,1.28397,0.293062,0.9556450000000001,0.029235,-0.012317,0.022254,0.019239,0.00215,0.007978,-0.022964
778,1.6716330000000001,-1.271436,1.284659,0.29340700000000003,0.955525,0.029687,-0.010058,0.048882999999999996,0.018152,-0.008373,0.016536000000000002,-0.013162
779,1.672897,-1.271224,1.284729,0.293571,0.955463,0.030079,-0.000303,0.068084,0.0032409999999999995,-0.025444,0.012173,-0.003925
780,1.6735689999999999,-1.27131,1.284243,0.293469,0.9554879999999999,0.030267000000000002,0.012384000000000001,0.032924,-0.00624,-0.004208,0.023378,-0.006601
781,1.671802,-1.271521,1.2830270000000001,0.29332199999999997,0.95555,0.029727999999999997,0.017345,-0.05442999999999999,-0.010366,0.000745,0.0007480000000000001,0.001216
782,1.6697819999999999,-1.271816,1.281996,0.293102,0.9556370000000001,0.029108,0.014206,-0.043753,-0.013606,0.0027199999999999998,-0.004786,0.002829
783,1.668914,-1.272096,1.281631,0.29286,0.9557200000000001,0.028827,0.001509,-0.016028999999999998,-0.009457,0.004549,0.000594,-0.000904
784,1.669502,-1.2721790000000002,1.282354,0.29276399999999997,0.955744,0.028992,-0.016613,-0.00322,1.4000000000000001e-05,0.011222,0.00292,-0.011795
785,1.6712740000000001,-1.27203,1.284465,0.292854,0.9557,0.029525,-0.039113,-0.01702,0.007352,0.015938,0.007648,-0.011336
786,1.673813,-1.271762,1.287579,0.293033,0.9556209999999999,0.030294,-0.050927999999999994,-0.026731,0.007408,0.012402,0.001059,-0.007559000000000001
787,1.676364,-1.271585,1.291081,0.293123,0.955569,0.03106,-0.052052999999999995,-0.044815,0.0020829999999999998,0.008681,-0.0016359999999999999,-0.008385
788,1.678564,-1.271433,1.2944200000000001,0.293199,0.9555239999999999,0.03172,-0.047827999999999996,-0.054417999999999994,0.002125,0.002653,0.0045130000000000005,-0.013134999999999999
789,1.6800110000000001,-1.271368,1.2973270000000001,0.293215,0.9555049999999999,0.032151,-0.040418,-0.07359299999999999,-0.004208,0.0007610000000000001,0.008744,-0.012239
790,1.68068,-1.271347,1.299896,0.293213,0.955499,0.032349,-0.038375,-0.094901,-0.005235,0.009704,0.012579,-0.006425
