,attitude.roll,attitude.pitch,attitude.yaw,gravity.x,gravity.y,gravity.z,rotationRate.x,rotationRate.y,rotationRate.z,userAcceleration.x,userAcceleration.y,userAcceleration.z
0,1.6515669999999998,-1.458928,-2.0350349999999997,0.111266,0.993749,0.009007,-0.000926,0.0070030000000000005,-0.011667,0.00551,-0.00414,0.004696
1,1.6520860000000002,-1.459077,-2.034339,0.11111199999999999,0.993766,0.009052,-0.002127,-0.014333000000000002,-0.0031030000000000003,-0.000517,0.008095999999999999,0.011181
2,1.654709,-1.459136,-2.031515,0.111029,0.993772,0.009339,-0.019135,-0.0036079999999999997,-0.00644,-0.0036829999999999996,0.006379999999999999,0.008804000000000001
3,1.657784,-1.459339,-2.028489,0.110799,0.9937950000000001,0.009663,-0.010523000000000001,0.004919,-0.014936000000000001,0.001384,-0.004217,-0.00041600000000000003
4,1.6591040000000001,-1.459632,-2.027319,0.110497,0.993828,0.009783,-0.0031309999999999997,0.008205,-0.017015,0.007469,0.000344,0.0025
5,1.660826,-1.459942,-2.025662,0.110172,0.9938620000000001,0.009946,-0.008508,0.000759,-0.014906,0.013730000000000001,0.000843,0.001086
6,1.663429,-1.460133,-2.0230479999999997,0.109957,0.993883,0.010215,-0.011747,-0.000325,-0.00745,0.007123999999999999,-0.003023,0.003076
7,1.6648330000000002,-1.460284,-2.021815,0.109794,0.9939,0.010355,-0.0031309999999999997,0.016694,-0.00848,0.005899000000000001,-0.0008269999999999999,0.006261999999999999
8,1.665557,-1.46046,-2.021504,0.10961199999999999,0.993919,0.010418,-0.0009630000000000001,0.022021000000000002,-0.010608,0.007896,-0.0021739999999999997,0.010593
9,1.667604,-1.460613,-2.019916,0.10943599999999999,0.993936,0.010627,-0.01268,0.025262,-0.011762,-0.003052,0.002188,0.005379
10,1.670986,-1.4608219999999998,-2.017026,0.10919300000000001,0.993959,0.010976999999999999,-0.01267,0.025269999999999997,-0.013899000000000002,-0.0008560000000000001,0.003386,0.000376
11,1.6735080000000002,-1.460987,-2.014869,0.10900399999999999,0.993977,0.011235,-0.007431,0.01553,-0.010584,0.0016829999999999998,0.0012779999999999998,0.007411
12,1.6753330000000002,-1.46118,-2.013236,0.10879200000000001,0.9939979999999999,0.011414,-0.007465,0.007012000000000001,-0.011641,0.001559,0.0045520000000000005,0.006194
13,1.678436,-1.4614559999999999,-2.010386,0.108483,0.994028,0.011722,-0.015923,0.01772,-0.018123,0.0041719999999999995,0.006033,0.005047
14,1.681775,-1.461857,-2.007388,0.108049,0.994072,0.012041,-0.011661,0.012395999999999999,-0.022359999999999998,0.018996000000000002,-0.0078049999999999994,-0.001131
15,1.683587,-1.4620950000000001,-2.0054,0.10779100000000001,0.9940979999999999,0.012209999999999999,-0.00759,-0.015380000000000001,-0.006272,0.012921,-0.004825,-0.001757
16,1.6848319999999999,-1.462117,-2.003796,0.107754,0.9941,0.012341,-0.005489,-0.016478,0.000153,0.0016059999999999998,-0.00037200000000000004,0.005252000000000001
17,1.685684,-1.462028,-2.0026740000000003,0.10782699999999999,0.994091,0.012443000000000001,-0.005485,-0.01223,0.0033520000000000004,0.000174,-0.006359,0.009972
18,1.686479,-1.461897,-2.001763,0.107945,0.9940760000000001,0.012543,-0.005432,-0.000512,0.0033380000000000003,0.0019030000000000002,-0.0033079999999999997,0.011901
19,1.6874419999999999,-1.461702,-2.001114,0.108126,0.9940549999999999,0.01267,-0.005344,0.024741,0.006589,0.003721,0.001169,0.008616
20,1.687687,-1.461632,-2.001447,0.10819200000000001,0.9940469999999999,0.012705,0.008554,0.02684,0.002411,-0.005974,-0.0009289999999999999,-0.011255
21,1.684704,-1.461576,-2.004784,0.10828499999999999,0.994041,0.012388,0.022313,0.007595,0.007873,-0.006189,-0.00035800000000000003,-0.00839
22,1.681584,-1.461343,-2.007878,0.108551,0.994016,0.012076,0.011539,-0.008376,0.015295,-0.005065999999999999,-0.000181,0.007745999999999999
23,1.6811049999999998,-1.461065,-2.0082009999999997,0.108833,0.993986,0.012054,-0.001234,-0.006184,0.01093,-0.000389,0.0034200000000000003,0.013611000000000002
24,1.681198,-1.460944,-2.008082,0.10895099999999999,0.993972,0.012077,-0.0033009999999999997,0.0023710000000000003,0.004496,0.002194,0.009278,0.01374
25,1.683091,-1.460901,-2.006386,0.10896900000000001,0.9939680000000001,0.012288,-0.01496,0.014150999999999999,-0.000942,0.000589,0.008413,0.010539
26,1.6856509999999998,-1.460965,-2.004066,0.108873,0.993975,0.01256,-0.004291,0.010931,-0.004068,-0.012636,-0.002947,0.001524
27,1.6854349999999998,-1.4611129999999999,-2.004367,0.10873,0.993991,0.012519,0.007406,-0.001876,-0.008243,-0.012188,-0.002368,0.007698
28,1.6861580000000003,-1.461252,-2.003531,0.108583,0.994006,0.012582,-0.006464,-0.007377,-0.008225,0.000471,0.0023469999999999997,0.014426
29,1.6890189999999998,-1.461324,-2.000568,0.10847799999999999,0.994014,0.012884999999999999,-0.0182,-0.003092,-0.004039,0.004086,0.0019879999999999997,0.011362
30,1.6913,-1.461403,-1.9982520000000001,0.108367,0.994023,0.013122,-0.006459,-0.001006,-0.002892,0.008241,-0.001423,0.000534
31,1.6921580000000003,-1.461466,-1.99741,0.108294,0.994029,0.013208000000000001,-0.00112,0.001101,-0.001789,0.00031800000000000003,0.008534,0.0026309999999999997
32,1.694064,-1.461475,-1.9955990000000001,0.108258,0.99403,0.013413,-0.010712000000000001,0.005386999999999999,0.000275,0.007587000000000001,0.003954999999999999,0.001709
33,1.696362,-1.461349,-1.9935470000000002,0.108352,0.994017,0.013677000000000002,-0.009602,0.019215,0.004538,0.012605,-0.000776,0.005625
34,1.6967560000000002,-1.461199,-1.993707,0.108493,0.994,0.013739,0.006453,0.031938,0.0057020000000000005,0.008496,-0.004529,0.004313
35,1.694993,-1.461171,-1.996091,0.108544,0.9939969999999999,0.013550999999999999,0.014988,0.028725,0.002561,0.002707,-0.006342,0.006683
36,1.693658,-1.4611809999999998,-1.997957,0.108554,0.9939979999999999,0.013405000000000002,0.003315,0.023233,-0.001621,-0.010058,0.004064,0.008415
37,1.694936,-1.461135,-1.996968,0.108581,0.993993,0.013549,-0.00743,0.007287999999999999,-0.000608,0.0016489999999999999,1e-05,0.008729
38,1.696225,-1.461035,-1.9956189999999998,0.108661,0.9939819999999999,0.013701,-0.007502,-0.002325,0.0058130000000000005,0.002468,0.003561,0.009415999999999999
39,1.6971450000000001,-1.46084,-1.9948009999999998,0.108839,0.9939610000000001,0.013825,-0.002139,0.008292,0.01011,0.003542,0.001629,0.006515000000000001
40,1.6967560000000002,-1.460695,-1.9954880000000002,0.10898800000000002,0.9939450000000001,0.013800999999999999,0.009644,0.017842,0.009112,0.00617,-0.00545,0.002373
41,1.694804,-1.46061,-1.9978049999999998,0.109099,0.993936,0.013599000000000002,0.013921000000000001,0.013591999999999998,0.002738,0.013550999999999999,-0.002114,0.010998
42,1.693728,-1.460542,-1.999067,0.109181,0.993928,0.01349,1.9e-05,0.009366,0.005850999999999999,0.015483000000000002,0.001281,0.015105
43,1.696641,-1.460384,-1.996637,0.109296,0.9939110000000001,0.013827,-0.016791999999999998,0.035788,0.004866,0.0010710000000000001,0.004441,0.0037359999999999997
44,1.6987740000000002,-1.4602389999999998,-1.9954599999999998,0.109411,0.9938950000000001,0.014079,0.002464,0.050621,0.008187,0.006509999999999999,-0.004957,-0.008327
45,1.6963560000000002,-1.46004,-1.998884,0.109641,0.993873,0.013838999999999999,0.024825,0.0452,0.012623,0.003824,-0.006629,-0.005493
46,1.69305,-1.4598209999999998,-2.002856,0.109903,0.993849,0.013503,0.019419,0.026056,0.009405,-0.005227000000000001,-0.001234,0.019653999999999998
47,1.6925419999999998,-1.459692,-2.003847,0.110036,0.993834,0.013463,-0.0018989999999999999,0.025087,0.003915999999999999,-0.012806999999999999,0.009584,0.012126000000000001
48,1.69448,-1.4596360000000002,-2.0024509999999998,0.11006500000000001,0.993828,0.013683,-0.006152,0.027237,0.002815,-0.008167,0.007896,0.004002
49,1.6946689999999998,-1.459462,-2.002795,0.110234,0.993809,0.013725,0.006620999999999999,0.027166000000000003,0.009314,0.011515000000000001,-0.002644,-0.0044329999999999994
50,1.692135,-1.4592379999999998,-2.005895,0.110492,0.993784,0.013472999999999999,0.024738999999999997,0.028147000000000002,0.014780000000000001,0.006711,-0.007059,-0.002334
51,1.6877520000000001,-1.459144,-2.010881,0.110641,0.9937729999999999,0.012999,0.026911,0.029235,0.007317000000000001,0.002548,-0.000609,0.007692
52,1.6857209999999998,-1.459148,-2.0133959999999997,0.11066199999999998,0.9937739999999999,0.012773999999999999,0.005715,0.019518,0.0009880000000000002,0.005213000000000001,0.00232,0.013944
53,1.6870060000000002,-1.459026,-2.0124400000000002,0.110765,0.9937600000000001,0.01293,-0.012431000000000001,0.019573,0.0029980000000000002,-0.0030989999999999998,0.005202,0.008951
54,1.689577,-1.459006,-2.010349,0.110752,0.993758,0.013217,-0.010211,0.029191,-0.006613,-0.00629,0.004335,0.001492
55,1.6902139999999999,-1.459227,-2.010305,0.110527,0.993783,0.013262000000000001,0.006883,0.028091,-0.012901,0.007103,0.00011399999999999999,0.001371
56,1.689689,-1.45936,-2.011277,0.110404,0.9937969999999999,0.013188,0.011049,0.015255000000000001,-0.003242,0.004647,-0.006569,0.004664
57,1.6887169999999998,-1.4594049999999998,-2.012338,0.110373,0.9938020000000001,0.013075999999999999,0.004548,-0.00391,-5.7999999999999994e-05,0.000573,0.001757,0.0045780000000000005
58,1.6891189999999998,-1.459325,-2.011631,0.110445,0.993793,0.013129,-0.009422,-0.017744,0.008408,-0.004137,0.002316,0.004601
59,1.690864,-1.4590889999999999,-2.00966,0.11065599999999999,0.993767,0.01335,-0.009265,-0.005158,0.009571,-0.001419,-0.0035020000000000003,-0.00183
60,1.690019,-1.458911,-2.010577,0.110845,0.9937469999999999,0.013278,0.014263,0.0054210000000000005,0.007585,0.000651,-0.005039,-0.0030399999999999997
61,1.685907,-1.458833,-2.014748,0.110975,0.9937389999999999,0.012831,0.025979000000000002,-0.001003,0.005539,0.001604,-0.0032450000000000005,0.004854
62,1.682655,-1.458804,-2.017843,0.111047,0.993735,0.012473999999999999,0.009932999999999999,-0.012657,0.0033049999999999998,-0.004464,0.007165,0.019829
63,1.6829759999999998,-1.458824,-2.0172369999999997,0.111023,0.9937379999999999,0.012506999999999999,-0.01138,-0.013622,-0.003252,-0.00528,0.009923999999999999,0.019369
64,1.685898,-1.458877,-2.014081,0.11093399999999999,0.9937440000000001,0.012825,-0.017757,-0.009334,-0.004370000000000001,-0.001269,0.003922,0.005943
65,1.687499,-1.458855,-2.012193,0.11093599999999999,0.993741,0.013006,-0.00075,-0.016876,0.002168,-0.000523,-0.004026,-0.008336
66,1.6844560000000002,-1.4588780000000001,-2.0148349999999997,0.110951,0.9937440000000001,0.012665000000000001,0.023763999999999997,-0.025471,-0.0008550000000000001,0.001995,-0.0015869999999999999,-0.004547
67,1.681511,-1.4589459999999999,-2.017205,0.110919,0.993751,0.012331,0.00678,-0.030951999999999997,-0.000889,0.005307,0.0033799999999999998,0.014722999999999998
68,1.683688,-1.458974,-2.014412,0.11086300000000002,0.9937540000000001,0.012569,-0.024131,-0.026574,-0.003247,0.002982,0.00266,0.018284
69,1.687389,-1.459076,-2.010371,0.11071600000000001,0.993766,0.012968,-0.016562,-0.010596,-0.009623999999999999,0.0034799999999999996,0.001718,0.003771
70,1.688073,-1.459179,-2.0095970000000003,0.110607,0.993777,0.013032,-0.001616,-0.00109,-0.002055,0.005131,-0.001925,-0.005738
71,1.6868150000000002,-1.459099,-2.010823,0.110703,0.993768,0.012902,0.014324000000000002,-0.004385,0.008743,0.007812,-0.006174,-0.007851
72,1.683587,-1.458882,-2.013817,0.11096099999999999,0.9937440000000001,0.012569,0.017444,-0.016138999999999997,0.015189,0.010728,-0.000153,2e-05
73,1.682137,-1.458741,-2.015015,0.11111900000000001,0.9937280000000001,0.012423,0.001532,-0.008576,0.00225,0.0052450000000000005,0.00293,0.009503
74,1.683502,-1.4587809999999999,-2.013544,0.111062,0.993733,0.012570999999999999,-0.01227,-0.0010400000000000001,-0.005334,0.005759,0.006847,0.010485
75,1.6856360000000001,-1.458918,-2.011524,0.110901,0.993748,0.012792,-0.008993000000000001,0.009627,-0.011734,0.000153,0.006481000000000001,0.004298
76,1.686795,-1.4591290000000001,-2.010511,0.110676,0.993772,0.012896000000000001,-0.0036270000000000004,0.003953,-0.012768,-0.000767,-0.00021099999999999998,0.000699
77,1.68842,-1.45937,-2.008784,0.11041500000000001,0.993798,0.013047999999999999,-0.010067,-0.008790000000000001,-0.01707,0.010053,0.0034240000000000004,0.009886
78,1.6910630000000002,-1.459701,-2.0060290000000003,0.110053,0.993835,0.0133,-0.013215000000000001,0.000817,-0.01924,0.016152,0.00232,0.009146
79,1.693668,-1.460032,-2.003802,0.10969200000000001,0.993872,0.013546,-0.005613,0.033801,-0.016025,0.015308,-0.000982,0.009113
80,1.6965150000000002,-1.460353,-2.0020830000000003,0.109339,0.993907,0.013819,-0.010779,0.06686,-0.020376,0.00704,0.014744,0.001333
81,1.702704,-1.461035,-1.997148,0.108581,0.9939819999999999,0.014406,-0.030938999999999998,0.060663,-0.051488,0.010545,0.004873,-0.00255
82,1.7126830000000002,-1.4624059999999999,-1.9887860000000002,0.107084,0.994132,0.015297,-0.035904000000000005,0.102389,-0.092168,0.060351,-0.000113,0.018685
83,1.722965,-1.464477,-1.9817330000000002,0.104886,0.994353,0.016085,-0.010873,0.20410799999999998,-0.11036900000000001,0.084506,0.018174,0.021100999999999998
84,1.732215,-1.466137,-1.978343,0.1031,0.9945280000000001,0.016788,-0.004011,0.35197399999999995,-0.064577,0.090656,0.039361,0.023205
85,1.74187,-1.466486,-1.977154,0.102591,0.9945649999999999,0.017724,-0.005963,0.462488,0.00577,0.032511,0.003665,0.015311000000000002
86,1.75577,-1.465904,-1.9731869999999998,0.102907,0.994504,0.019255,-0.045254,0.519021,0.021447,-0.009691,-0.001202,0.005388
87,1.779505,-1.4654340000000001,-1.9598389999999999,0.102876,0.994455,0.021788,-0.079274,0.509698,-0.015099000000000001,-0.053666,0.002478,-0.026366000000000004
88,1.7994970000000001,-1.465515,-1.949048,0.102342,0.9944629999999999,0.023822,-0.030409,0.434008,-0.043502,-0.037689999999999994,-0.009401000000000001,-0.033191000000000005
89,1.80807,-1.466135,-1.94782,0.101533,0.9945280000000001,0.024554,0.022411,0.332561,-0.028048000000000003,-0.039338,-0.010351,-0.020342
90,1.8040630000000002,-1.466265,-1.957538,0.101504,0.994542,0.024117,0.070868,0.251204,0.02901,-0.03731,-0.008564,-0.013527
91,1.789567,-1.465746,-1.9769130000000001,0.102344,0.9944870000000001,0.022754,0.084325,0.230198,0.083539,-0.046542,-0.008235,0.030407999999999998
92,1.7770709999999998,-1.4639280000000001,-1.993373,0.10439100000000001,0.994295,0.021844,0.044425,0.170541,0.11858800000000001,-0.059057000000000005,-0.005113,0.033744
93,1.771471,-1.46189,-2.00152,0.10649700000000001,0.9940760000000001,0.021662999999999998,0.011082999999999999,0.095086,0.10242799999999999,-0.06745,0.004917,0.031712
94,1.7676189999999998,-1.46056,-2.006185,0.107875,0.99393,0.021511000000000002,0.011939,0.012137,0.066221,-0.06312100000000001,-0.007845999999999999,0.038899
95,1.766361,-1.459699,-2.007374,0.108742,0.993835,0.021541,-0.009364,-0.006856999999999999,0.039391,-0.046196,0.0033880000000000004,0.038380000000000004
96,1.770468,-1.4593559999999999,-2.003103,0.10898800000000002,0.9937969999999999,0.022056,-0.023147,-0.01522,0.011531999999999999,-0.006998000000000001,0.010964,0.015969
97,1.773137,-1.4593129999999999,-1.999859,0.108972,0.993792,0.022355,-0.005121,-0.037662,0.013822999999999998,0.022543,-0.006793,0.013106
98,1.772073,-1.4592610000000001,-2.0002299999999997,0.109046,0.9937860000000001,0.02225,0.015207,-0.031316000000000004,0.007547,0.026147000000000004,-0.011136,0.015165000000000001
99,1.768331,-1.459667,-2.003543,0.108733,0.9938309999999999,0.021762,0.029254000000000002,-0.018475,-0.019076,0.040849,0.000935,0.017697
100,1.766951,-1.460541,-2.0045479999999998,0.10790999999999999,0.993928,0.021443,0.001697,0.003922,-0.051401999999999996,0.045135,-0.0057079999999999995,0.020321000000000002
101,1.7758049999999999,-1.461595,-1.996248,0.10669000000000001,0.994043,0.022184,-0.048163,0.04891,-0.06996799999999999,0.037246,-0.021967,0.011599
102,1.7885330000000002,-1.462744,-1.984823,0.10528199999999999,0.994168,0.023293,-0.039518,0.076565,-0.066738,0.033726,-0.023297,-0.005104
103,1.793873,-1.463457,-1.9808580000000002,0.104466,0.994245,0.023698,0.006161,0.064559,-0.034357,0.031398,0.012958,-0.008897
104,1.7924900000000001,-1.463644,-1.983324,0.10431800000000001,0.994265,0.023513,0.021972,0.046294999999999996,-0.009654000000000001,0.012824,0.007840999999999999,0.017106
105,1.790386,-1.463781,-1.9861919999999997,0.104236,0.9942790000000001,0.023264,0.01015,0.029283999999999998,-0.007579000000000001,0.003995,-0.003953,0.017353999999999998
106,1.7896869999999998,-1.463858,-1.987163,0.10417799999999999,0.994288,0.023175,0.0025859999999999998,0.009065,-0.006537,-0.0062770000000000005,-0.005732,0.005741
107,1.7883689999999999,-1.463842,-1.988582,0.10422100000000001,0.994286,0.02304,0.007836,-0.000562,-0.003315,0.001843,0.001075,-0.002258
108,1.7842310000000001,-1.463878,-1.992527,0.10428299999999999,0.99429,0.022602,0.03013,-0.015591999999999998,0.006474,0.006328,-0.0035210000000000003,0.004589
109,1.778252,-1.4637850000000001,-1.99835,0.10450699999999999,0.9942799999999999,0.021997,0.029106,-0.0028179999999999998,0.009655,0.0034950000000000003,0.00011999999999999999,0.022192
110,1.7745819999999999,-1.463658,-2.001995,0.10471099999999998,0.994266,0.021639,0.015208000000000001,-0.0081,0.010633,-0.013524000000000001,0.003476,0.015776
111,1.771911,-1.463535,-2.004273,0.10488900000000001,0.994253,0.021384,0.007664,-0.026179,0.009535,-0.017425,0.00683,0.014535
112,1.770475,-1.463436,-2.005291,0.10501400000000001,0.994242,0.021252,0.002397,-0.018674,0.0020109999999999998,-0.013858,0.000875,0.019305000000000003
113,1.7689549999999998,-1.463449,-2.006535,0.10503299999999999,0.994244,0.02109,0.014166,-0.012319,0.001017,-0.0026920000000000004,-0.007077,0.014844999999999999
114,1.765261,-1.463478,-2.010053,0.10507999999999999,0.9942469999999999,0.020696,0.02271,-0.007035,0.004275,-0.00805,0.002183,0.015773
115,1.7620189999999998,-1.463557,-2.013318,0.10506900000000001,0.9942549999999999,0.02034,0.017443,0.004714,0.001018,-0.007732999999999999,0.010887,0.021041999999999998
116,1.761773,-1.463694,-2.013752,0.10494,0.9942700000000001,0.020288,-0.000646,0.009064000000000001,-0.005522999999999999,0.0036869999999999997,0.003182,0.013312000000000001
117,1.763061,-1.463841,-2.012495,0.104771,0.994286,0.020396,0.000373,-0.001592,-0.005502,0.011242,0.002434,0.0030269999999999997
118,1.761153,-1.463904,-2.014459,0.104747,0.994292,0.020184,0.022777000000000002,0.004695,0.0010550000000000002,0.010274,0.000123,0.003956
119,1.756666,-1.463902,-2.0191529999999998,0.10484,0.994292,0.019714,0.027039999999999998,0.012103000000000001,0.009622,0.012225,0.002168,0.018143
120,1.7553590000000001,-1.463765,-2.0210220000000003,0.105001,0.9942780000000001,0.019602,0.0005070000000000001,0.037784,0.004062,0.001628,-0.0030210000000000002,0.023489
121,1.7554450000000001,-1.463746,-2.021823,0.105018,0.994276,0.019615,0.0144,0.039879000000000005,0.0009519999999999999,-0.013099000000000001,-0.0010960000000000002,0.009529000000000001
122,1.7509279999999998,-1.463702,-2.026744,0.105149,0.9942709999999999,0.019148,0.031293,0.003587,0.004321,-0.013413,-0.007148999999999999,0.004656
123,1.742792,-1.463645,-2.034336,0.105358,0.994265,0.018302000000000002,0.044913,-0.045489,0.010888,-0.003628,0.0006389999999999999,0.006829000000000001
124,1.734546,-1.463649,-2.041922,0.105502,0.994265,0.017432,0.039742,-0.019861,0.00013700000000000002,0.007077,0.000425,0.022331999999999998
125,1.7296220000000002,-1.463833,-2.047046,0.105406,0.9942850000000001,0.016883000000000002,0.028207,0.027043,0.002133,0.036409,-0.000755,0.027092
126,1.7262549999999999,-1.463737,-2.0515830000000004,0.105558,0.994275,0.016543000000000002,0.021988,0.07709400000000001,0.011639,0.031252999999999996,-0.0055969999999999995,0.028073
127,1.7244599999999999,-1.463797,-2.0555779999999997,0.105529,0.994281,0.016345,0.029738999999999998,0.12188199999999999,-0.006523999999999999,0.004014,-0.011691,0.025509999999999998
128,1.719479,-1.464075,-2.063214,0.10533599999999999,0.9943110000000001,0.015778,0.050053,0.13139800000000001,-0.0063939999999999995,-0.007252,-0.009066,0.021789
129,1.7104150000000002,-1.464217,-2.074548,0.105331,0.994326,0.014802000000000001,0.071184,0.090822,-0.0008529999999999999,-0.029663,-0.013903,0.015059000000000001
130,1.700546,-1.464634,-2.085489,0.10506199999999999,0.9943700000000001,0.013709,0.06361499999999999,0.030282,-0.039284,-0.000677,0.059875,0.045433999999999995
131,1.698223,-1.466106,-2.088572,0.10364100000000001,0.994525,0.013279,-0.008586,0.059489,-0.087896,0.0063289999999999996,0.061322,0.043637
132,1.715844,-1.4681030000000002,-2.072082,0.101424,0.994732,0.014815,-0.092821,0.040728,-0.118371,0.014818000000000001,0.025776,-0.008864
133,1.7414009999999998,-1.469904,-2.047212,0.099244,0.994915,0.017098,-0.100543,0.012943000000000001,-0.089547,0.001967,-0.002559,-0.049355
134,1.7539349999999998,-1.471028,-2.033427,0.097919,0.995027,0.018136000000000003,-0.021185,-0.10250899999999999,-0.057865999999999994,-0.014606000000000001,-0.026826999999999997,-0.048623
135,1.7493990000000001,-1.472098,-2.0352349999999997,0.096953,0.995133,0.017502,0.039372000000000004,-0.146449,-0.044568,-0.00804,-0.044541000000000004,-0.011353
136,1.738637,-1.472601,-2.0430349999999997,0.09664,0.995183,0.016374,0.043429,-0.148773,0.000328,0.004053,-0.015262999999999999,-0.003145
137,1.72228,-1.472059,-2.056532,0.097426,0.995129,0.014872,0.06346900000000001,-0.141622,0.059211,0.0094,0.023471000000000002,-0.00323
138,1.7019099999999998,-1.470613,-2.074199,0.09913999999999999,0.994986,0.013074,0.071865,-0.13859200000000002,0.093449,0.0061909999999999995,0.018366,0.002948
139,1.681689,-1.468901,-2.091909,0.101077,0.994813,0.011255,0.08365800000000001,-0.120545,0.098849,0.025814999999999998,0.001174,0.020865
140,1.661837,-1.467101,-2.110205,0.10306300000000002,0.9946280000000001,0.009409,0.08076900000000001,-0.052351999999999996,0.097674,0.033915,-0.014434,0.046881
141,1.649532,-1.465574,-2.1228290000000003,0.10468499999999999,0.994469,0.00826,0.046157,0.053337999999999997,0.070591,0.031286,-0.007195,0.050105000000000004
142,1.644025,-1.4646709999999998,-2.130426,0.10562,0.994374,0.0077480000000000005,0.034901,0.12595399999999998,0.036236000000000004,0.013826,-0.001805,0.033054
143,1.6408200000000002,-1.4642680000000001,-2.136362,0.10604200000000001,0.994331,0.007437999999999999,0.033958999999999996,0.13031199999999998,0.012723,0.005836,0.002419,0.011071
144,1.635896,-1.464233,-2.143466,0.106109,0.9943270000000001,0.006917,0.04777,0.0952,-0.009568,0.011674,-0.000675,0.012812
145,1.6301379999999999,-1.464917,-2.151149,0.10546099999999999,0.9944,0.006266,0.051200999999999997,0.10494200000000001,-0.051217,0.017447999999999998,0.00824,0.027150999999999998
146,1.626223,-1.466273,-2.157798,0.104137,0.994542,0.005778,0.040833999999999995,0.148749,-0.074847,0.019413999999999997,0.005671,0.023153
147,1.625043,-1.467773,-2.162116,0.102655,0.994698,0.005574,0.020588,0.157329,-0.07179400000000001,0.021125,0.001076,0.013956999999999999
148,1.626672,-1.468942,-2.163616,0.101484,0.9948170000000001,0.005676,0.014091,0.15620499999999998,-0.051542,0.019305000000000003,-0.006628,0.015091
149,1.625306,-1.469681,-2.167902,0.100757,0.994892,0.005497999999999999,0.032012,0.13473,-0.024684,0.019071,-0.008427,0.012232999999999999
150,1.6186559999999999,-1.469771,-2.1768520000000002,0.100699,0.994901,0.004823,0.060549,0.100439,0.0011970000000000001,0.002695,-0.015684,0.008803
151,1.607251,-1.4695850000000001,-2.190041,0.100927,0.994883,0.0036810000000000002,0.070007,0.073752,0.006638,-0.00617,0.0020350000000000004,0.009120999999999999
152,1.596423,-1.469506,-2.202425,0.101036,0.994875,0.00259,0.063649,0.078057,0.001247,-0.000404,0.005827000000000001,0.010563
153,1.585115,-1.469408,-2.2154849999999997,0.10115299999999999,0.994865,0.001448,0.071122,0.086523,0.008766,0.005369,0.003564,0.009141
154,1.5727959999999999,-1.469064,-2.2296419999999997,0.101501,0.9948299999999999,0.00020299999999999997,0.073227,0.09073400000000001,0.019457,0.00911,0.007734,0.006633
155,1.561265,-1.468685,-2.243054,0.10187,0.994791,-0.0009710000000000001,0.06684,0.09183,0.017275,0.0014470000000000002,-0.00123,0.011895999999999999
156,1.5533549999999998,-1.468592,-2.2529,0.101948,0.9947819999999999,-0.001778,0.042393,0.09199700000000001,-0.003192,-0.002461,-0.000183,0.012062999999999999
157,1.547576,-1.46882,-2.260287,0.10171000000000001,0.9948049999999999,-0.002362,0.038073,0.066501,-0.017077000000000002,-0.001551,0.005226,0.004453
158,1.540508,-1.469142,-2.268336,0.101371,0.9948379999999999,-0.003071,0.042211,0.036663,-0.018078,-0.007194,0.015156999999999999,-0.004665
159,1.5333629999999998,-1.469437,-2.275723,0.10105399999999999,0.994868,-0.003785,0.035748,-0.007857,-0.013756,-0.007548,0.005255,-0.009948
160,1.526337,-1.4694690000000001,-2.281992,0.100996,0.994871,-0.004493,0.030126,-0.054778,0.003356,-0.018734999999999998,0.000475,-0.008568000000000001
161,1.519217,-1.46923,-2.287839,0.1012,0.9948469999999999,-0.005224,0.035336,-0.071884,0.014097,-0.036213,-0.005406,-0.002802
162,1.5085979999999999,-1.468836,-2.296493,0.10152699999999999,0.994807,-0.006323,0.053214,-0.123106,0.020696,-0.048655000000000004,-0.004542,-0.006815000000000001
163,1.493932,-1.468348,-2.307864,0.101909,0.994757,-0.007849,0.06250900000000001,-0.191316,0.020849,-0.04098,0.005304,-0.00535
164,1.4775989999999999,-1.467862,-2.319969,0.10225,0.994707,-0.009557,0.061302999999999996,-0.222205,0.020880000000000003,-0.020859,0.010801,0.005086
165,1.4647780000000001,-1.467442,-2.328427,0.10253399999999999,0.994664,-0.010911,0.033612,-0.21251599999999998,0.019606000000000002,-0.016307,0.000667,0.011217
166,1.456021,-1.467263,-2.3331020000000002,0.10261400000000001,0.9946450000000001,-0.01183,0.020901,-0.202842,0.008822,-0.02075,0.008971,0.000736
167,1.4478229999999999,-1.46746,-2.337041,0.10232000000000001,0.9946659999999999,-0.012646,0.014505,-0.22297399999999998,-0.012561,-0.016565,0.022394,-0.009616
168,1.442012,-1.467977,-2.337917,0.101734,0.994719,-0.013175,-0.0048189999999999995,-0.262271,-0.025463999999999997,-0.013736000000000002,0.013246,-0.010003
169,1.439381,-1.468575,-2.334794,0.101108,0.9947799999999999,-0.013364,-0.023176,-0.300546,-0.026583999999999997,-0.018162,-0.005156,-0.013171
170,1.435592,-1.469384,-2.332292,0.100261,0.9948620000000001,-0.013638999999999998,-0.011445,-0.319689,-0.044638,-0.021144,-0.002522,-0.01871
171,1.4275950000000002,-1.470538,-2.3338330000000003,0.099012,0.994978,-0.014275999999999999,0.002477,-0.32605700000000004,-0.062692,-0.004956,0.0047469999999999995,-0.018149000000000002
172,1.419524,-1.4719200000000001,-2.335285,0.09753200000000001,0.995116,-0.014866999999999998,-0.009278,-0.33664299999999997,-0.06917000000000001,0.020159,0.010316,-0.015208000000000001
173,1.414728,-1.473239,-2.3332610000000003,0.096164,0.995245,-0.015131,-0.027496,-0.341957,-0.056472,0.032527999999999994,-0.002325,-0.015493
174,1.413342,-1.4742979999999999,-2.3282689999999997,0.09510199999999999,0.995348,-0.015099000000000001,-0.035892,-0.29830300000000004,-0.043768,0.027808,-0.007387,-0.017066
175,1.411194,-1.475292,-2.3250669999999998,0.094091,0.9954430000000001,-0.015146000000000001,-0.020711,-0.246148,-0.045864999999999996,0.020106,0.001017,-0.019094999999999997
176,1.407928,-1.476119,-2.3241669999999996,0.09322899999999999,0.9955209999999999,-0.015319999999999999,-0.013803,-0.177634,-0.042752,0.044634,-0.003914,0.010406
177,1.407429,-1.476885,-2.322725,0.09246900000000001,0.9955940000000001,-0.015241999999999999,-0.010052,-0.046652,-0.034348000000000004,0.056732000000000005,-0.003025,0.016554
178,1.4055540000000002,-1.4772100000000001,-2.325048,0.092127,0.995624,-0.015363,0.010578,0.053330999999999996,-0.014036000000000002,0.053198,0.008908,0.009184000000000001
179,1.404307,-1.477347,-2.327815,0.091974,0.9956370000000001,-0.015456000000000001,0.009626000000000001,0.081023,-0.011941,0.037741000000000004,-0.000993,0.005995
180,1.4036950000000001,-1.477438,-2.329975,0.091876,0.9956450000000001,-0.015497,0.009607,0.072518,-0.016204,-0.007831,-0.005075,0.007012999999999999
181,1.401845,-1.4774639999999999,-2.333121,0.091824,0.995648,-0.015663,0.013763999999999998,0.057551,-0.006541,-0.013347999999999999,0.001179,0.017769
182,1.4047180000000001,-1.4775690000000001,-2.331402,0.091766,0.995657,-0.015382,-0.025675999999999997,0.05878,-0.013228,-0.016479,0.008401,0.021959
183,1.414671,-1.4780149999999999,-2.322429,0.091477,0.995699,-0.014399,-0.048109,0.041856,-0.024045,-0.011903,0.011656,0.001551
184,1.423117,-1.478568,-2.314356,0.09105099999999999,0.99575,-0.013544999999999998,-0.029075999999999998,0.00912,-0.016179,-0.005220000000000001,-0.003471,-0.011128
185,1.4249829999999999,-1.478742,-2.312593,0.090904,0.995766,-0.01335,0.003915,0.004688,-0.0020559999999999997,-0.004981,-0.003594,-0.010851000000000001
186,1.425052,-1.478687,-2.312627,0.090959,0.995761,-0.013350999999999998,-0.002515,0.008929000000000001,0.008576,-0.012620999999999999,-0.002902,4.6e-05
187,1.429027,-1.478624,-2.3089720000000002,0.091073,0.995755,-0.012999,-0.017403000000000002,0.020694999999999998,0.009525,-0.01951,0.000278,-0.001375
188,1.431133,-1.4782899999999999,-2.307291,0.09143,0.9957239999999999,-0.012853,0.002781,0.019486,0.027828,-0.018112,0.004001,-0.0022530000000000002
189,1.429289,-1.477349,-2.309144,0.092337,0.9956370000000001,-0.013153999999999999,0.017419999999999998,-0.017965000000000002,0.05682,-0.018300999999999998,0.011901,-0.003875
190,1.42956,-1.476246,-2.308118,0.093429,0.995533,-0.013284,-0.011476,-0.042349,0.052376,-0.031372000000000004,0.018627,0.011101999999999999
191,1.437775,-1.47583,-2.299056,0.093945,0.9954940000000001,-0.012570999999999999,-0.049706,-0.040996,0.013651,-0.02963,0.006169,0.001371
192,1.4469809999999999,-1.4759790000000002,-2.28888,0.093912,0.995508,-0.011687999999999999,-0.041138,-0.053728,-0.006569,-0.017877,-0.002298,-0.008088
193,1.449997,-1.47625,-2.284452,0.09368,0.995534,-0.011372,-0.013724,-0.079989,-0.004069,0.015283000000000001,-0.004399,-0.016552
194,1.450288,-1.476321,-2.2825889999999998,0.09361599999999999,0.99554,-0.011336,-0.006265,-0.071535,0.006654,0.045911,-0.0013390000000000001,-0.004029
195,1.4500899999999999,-1.4759209999999998,-2.2818009999999997,0.09400900000000001,0.995503,-0.011403,0.0033840000000000003,-0.03333,0.034447000000000005,0.057404,-0.000889,0.001027
196,1.450408,-1.47488,-2.281331,0.095045,0.9954040000000001,-0.011498,0.00020800000000000001,0.001715,0.06429,0.033250999999999996,0.000293,0.012123
197,1.453771,-1.473474,-2.278043,0.096474,0.995268,-0.011342,-0.01581,0.0060030000000000005,0.07165,-0.007973000000000001,-0.005217,0.006749
198,1.458001,-1.472126,-2.27373,0.097853,0.995136,-0.011084,-0.005179,-0.007862000000000001,0.066401,-0.01599,-0.00716,0.002494
199,1.455531,-1.4705270000000001,-2.275849,0.09940700000000001,0.994977,-0.011509,0.034203,-0.021874,0.073103,-0.000927,-0.01518,0.01009
200,1.448424,-1.468692,-2.28246,0.101136,0.994792,-0.012438,0.044666000000000004,-0.024356,0.088202,0.006164,0.002034,0.036761
201,1.444957,-1.466856,-2.285821,0.102904,0.994603,-0.013018,0.018152,0.007708,0.084771,-0.001036,0.007884,0.039064999999999996
202,1.447344,-1.4654340000000001,-2.2837709999999998,0.104341,0.994455,-0.012947,-0.014772,0.02281,0.066362,-0.017946,0.002478,0.038017
203,1.4578440000000001,-1.464704,-2.2739580000000004,0.105196,0.9943770000000001,-0.011933,-0.058263999999999996,0.04016,0.02758,-0.02109,0.020286000000000002,0.017075
204,1.471517,-1.464825,-2.260933,0.10523099999999999,0.99439,-0.010482,-0.071975,0.032922,-0.015235,-0.011131,0.015512999999999999,0.009687999999999999
205,1.483551,-1.465603,-2.24959,0.10457999999999999,0.9944719999999999,-0.009147,-0.047279,0.044648,-0.038579,0.021595,-0.006222,0.005592
206,1.490272,-1.466373,-2.244052,0.103876,0.994553,-0.008383,-0.016273,0.071125,-0.026645,0.037176999999999995,-0.006104,0.007879
207,1.493417,-1.466666,-2.242711,0.103612,0.994583,-0.008033,-0.0055850000000000006,0.098691,-0.003105,0.025065999999999998,0.010818000000000001,0.02169
208,1.5008219999999999,-1.466651,-2.237314,0.103682,0.994582,-0.007267,-0.044016,0.101987,0.005168,-0.013914,0.02028,0.021275
209,1.513496,-1.466719,-2.226077,0.10369600000000001,0.994589,-0.005947999999999999,-0.061352,0.053437,-0.009801,-0.028881999999999998,0.009012000000000001,-0.020693
210,1.521886,-1.46704,-2.217845,0.103425,0.9946219999999999,-0.005063000000000001,-0.030682,-0.015875,-0.019112,-0.023133,0.000388,-0.022616999999999998
211,1.5245739999999999,-1.467454,-2.2142169999999997,0.103027,0.9946649999999999,-0.004765999999999999,-0.015961000000000003,-0.057116999999999994,-0.025294,-0.015578999999999999,-0.018362,0.000478
212,1.5282360000000001,-1.468065,-2.209345,0.10243900000000002,0.9947280000000001,-0.0043619999999999996,-0.029830000000000002,-0.059190999999999994,-0.027525,0.001458,0.014244,0.018385
213,1.535609,-1.468683,-2.20097,0.10185599999999999,0.994791,-0.0035859999999999998,-0.052148,-0.037816,-0.025572,0.012737,0.019735,0.012893
214,1.5450110000000001,-1.469209,-2.190841,0.101364,0.9948440000000001,-0.002614,-0.052162,-0.033583999999999996,-0.0181,0.019745,0.0074140000000000005,-0.006846
215,1.553056,-1.469339,-2.182077,0.101252,0.994858,-0.001796,-0.03946,-0.03478,0.003355,0.019293,-0.0050810000000000004,-0.0045509999999999995
216,1.558426,-1.469067,-2.176229,0.101531,0.9948299999999999,-0.001256,-0.021304,-0.013606,0.020546000000000002,0.015443,-0.006259000000000001,0.001348
217,1.560945,-1.4685350000000001,-2.173715,0.102065,0.994776,-0.001005,-0.004158,0.009745,0.027045,0.009034,-0.013375999999999999,0.005888
218,1.561312,-1.468061,-2.1737919999999997,0.102539,0.994727,-0.000973,-0.0008230000000000001,0.026829000000000002,0.014228,-0.005204,-0.00193,0.016964
219,1.564771,-1.468048,-2.171052,0.102558,0.994726,-0.000618,-0.024136,0.039784,-0.008384,-0.006458,0.00387,0.020668000000000002
220,1.572647,-1.4683540000000002,-2.1640650000000003,0.102256,0.994757,0.00018899999999999999,-0.04137,0.048361,-0.020877,-0.002052,0.000558,0.017435
221,1.580591,-1.46878,-2.156997,0.101827,0.994801,0.000997,-0.029644,0.043007,-0.023993,0.006601999999999999,0.006954000000000001,0.00042199999999999996
222,1.586532,-1.4692889999999998,-2.151837,0.101316,0.9948530000000001,0.001594,-0.025381,0.038743,-0.027162000000000002,0.005372999999999999,0.011343,0.013237
223,1.596012,-1.469853,-2.143052,0.100739,0.9949100000000001,0.002541,-0.053134,0.034584,-0.028419,-0.0022890000000000002,0.001444,0.018272
224,1.6084530000000001,-1.470223,-2.1311080000000002,0.100333,0.9949469999999999,0.0037799999999999995,-0.057516,0.022825,-0.014547,-0.002311,-0.011869,0.001698
225,1.617104,-1.470207,-2.122538,0.100313,0.9949450000000001,0.004649,-0.033188999999999996,-0.005034,0.004886,-0.0011,-0.013912,-0.005717
226,1.619475,-1.469881,-2.119571,0.100626,0.9949120000000001,0.004902,-0.0056619999999999995,-0.037149,0.020075,-0.004053,-0.002984,0.004848
227,1.62144,-1.469317,-2.116972,0.101175,0.9948549999999999,0.005128,-0.022708000000000002,-0.021153,0.030617000000000002,-0.006920999999999999,0.0009939999999999999,0.012556999999999999
228,1.628053,-1.468658,-2.110263,0.101793,0.9947879999999999,0.005835,-0.036456999999999996,0.005527000000000001,0.030487,-0.004122,0.001397,0.017908
229,1.632807,-1.468019,-2.105654,0.1024,0.9947229999999999,0.006358,-0.018311,0.008656,0.031678,0.0013289999999999999,0.0017670000000000001,0.007161
230,1.6345020000000001,-1.467403,-2.104061,0.103,0.99466,0.006571,-0.007629,0.003121,0.028548,0.0028350000000000003,-0.004883,0.009161
231,1.635438,-1.46696,-2.1031020000000002,0.103434,0.9946139999999999,0.006695,-0.006552,-0.00324,0.020018,0.004186,-0.0008849999999999999,0.011386
232,1.6377059999999999,-1.466577,-2.100886,0.103797,0.994574,0.006954999999999999,-0.011839,0.007431,0.019968,0.012979,-0.001074,0.01369
233,1.640564,-1.466205,-2.098484,0.104145,0.9945350000000001,0.007278,-0.012771,0.033018,0.015655000000000002,0.010998,-0.001097,0.01526
234,1.644294,-1.465945,-2.09578,0.104374,0.994508,0.007684999999999999,-0.015804,0.063948,0.009184999999999999,0.001568,-0.002153,0.01679
235,1.649393,-1.465753,-2.092156,0.104523,0.9944879999999999,0.008232,-0.019985,0.07889299999999999,0.004864,-0.016907,0.006823999999999999,0.016562999999999998
236,1.654267,-1.465608,-2.088674,0.104626,0.9944729999999999,0.008754000000000001,-0.014728,0.06289199999999999,0.005989,-0.011028,0.002018,0.014425
237,1.656708,-1.465342,-2.08727,0.104867,0.994445,0.009032,-0.0041600000000000005,0.047911,0.01356,-0.004235,-0.002669,0.012804
238,1.6574060000000002,-1.465044,-2.08732,0.105156,0.9944129999999999,0.00913,0.00020299999999999997,0.031708999999999994,0.013087999999999999,-0.009819,0.0048850000000000005,0.014566999999999998
239,1.6602259999999998,-1.4650290000000001,-2.084962,0.105147,0.9944120000000001,0.009428,-0.017915,0.016935,-0.006247,-0.018675999999999998,0.009586,0.018144
240,1.665111,-1.465259,-2.080279,0.104872,0.9944360000000001,0.00992,-0.022182,0.008462,-0.014812,-0.015517,0.009179999999999999,0.014950999999999999
241,1.669555,-1.465506,-2.075971,0.104584,0.9944620000000001,0.010362,-0.014747999999999999,0.004162,-0.01155,-0.0039369999999999995,-0.004746,0.009489000000000001
242,1.6706299999999998,-1.4655690000000001,-2.0747310000000003,0.10451099999999999,0.994469,0.010468,-0.001037,-0.017247,0.00246,0.0033539999999999998,-0.004601,0.0071400000000000005
243,1.671434,-1.4654559999999999,-2.073293,0.10461400000000001,0.9944569999999999,0.010564,-0.013959000000000001,-0.03959,0.006670999999999999,-0.003982,-0.002391,0.008983
244,1.675254,-1.4653610000000001,-2.0684720000000003,0.10466600000000001,0.994447,0.010973,-0.026819,-0.056572000000000004,0.00233,-0.018866,0.00392,0.009367
245,1.67835,-1.465363,-2.0639540000000003,0.10463,0.994447,0.011297,-0.014088,-0.078962,-0.003961,-0.010468,-0.003282,0.000117
246,1.677066,-1.465399,-2.063689,0.104609,0.994451,0.011159,0.005111,-0.07691100000000001,-0.000625,0.005361,-0.0018059999999999999,0.006251
247,1.6747470000000002,-1.465279,-2.064565,0.104753,0.9944379999999999,0.010929000000000001,0.001325,-0.070079,0.010870999999999999,0.0166,-0.0014269999999999999,0.01141
248,1.6735349999999998,-1.465126,-2.064343,0.10491900000000001,0.9944219999999999,0.010817,-0.001875,-0.07219,0.008715,0.014619,0.004495,0.009781999999999999
249,1.674714,-1.465021,-2.061835,0.10500899999999999,0.994411,0.010952,-0.020997,-0.060379999999999996,0.002157,0.008272,0.008809,0.016529
250,1.6792779999999998,-1.4650530000000002,-2.056243,0.10492699999999999,0.9944139999999999,0.011428,-0.02835,-0.045397,-0.008596,0.010429,-0.001143,0.009141
251,1.682709,-1.465114,-2.052021,0.104827,0.9944209999999999,0.011781,-0.013386000000000002,-0.036936000000000004,-0.006365,0.014436000000000001,-0.008261,-0.004807
252,1.681978,-1.4652370000000001,-2.051844,0.10471199999999999,0.994434,0.01169,0.005746,-0.05298200000000001,-0.006211,0.011346,-0.007358,0.001829
253,1.680405,-1.4652479999999999,-2.052364,0.10472000000000001,0.9944350000000001,0.011524,-0.003861,-0.047648,0.000124,0.002778,0.008312,0.020702
254,1.683184,-1.465208,-2.0487759999999997,0.104727,0.994431,0.01182,-0.022355,-0.035699,-0.002251,-0.005209,-0.00116,0.007605
255,1.685727,-1.465177,-2.045554,0.104728,0.9944270000000001,0.01209,-0.012758,-0.034676,-4.9e-05,-0.008246999999999999,-0.005307,0.000239
256,1.686948,-1.4652049999999999,-2.043438,0.10468499999999999,0.9944299999999999,0.012214000000000001,-0.010668,-0.052759,-0.008556999999999999,-0.002939,-0.006531,-0.003074
257,1.6885270000000001,-1.4653120000000002,-2.040554,0.10455999999999999,0.994442,0.012367,-0.012863999999999999,-0.064478,-0.006421,0.00895,0.0034219999999999997,0.0074849999999999995
258,1.689371,-1.465354,-2.0386740000000003,0.10450799999999999,0.9944459999999999,0.01245,-0.004267,-0.044293,2.3e-05,0.012847999999999998,0.001342,0.00734
259,1.6879709999999999,-1.46529,-2.039335,0.10458900000000002,0.994439,0.012312,0.005359,-0.033694999999999996,0.005417,0.007807,-0.00216,0.008501
260,1.687268,-1.465264,-2.039398,0.104624,0.9944370000000001,0.012241,-0.005266,-0.031498000000000005,-0.002137,-0.000131,0.002741,0.012371
261,1.690047,-1.465408,-2.0357790000000002,0.104447,0.994452,0.012515,-0.024503,-0.051619000000000005,-0.015064,0.000976,-0.000708,0.007184
262,1.6937939999999998,-1.465647,-2.030713,0.10415999999999999,0.994477,0.012875999999999999,-0.022432,-0.067597,-0.017166,0.010448,0.0037530000000000003,-0.004622
263,1.696134,-1.465977,-2.027057,0.103805,0.9945120000000001,0.013078999999999999,-0.008867,-0.062264,-0.021515,0.015977,-0.00295,0.002866
264,1.697645,-1.466391,-2.0245490000000004,0.103376,0.994555,0.013184,-0.013028999999999999,-0.039874,-0.022640999999999998,0.019899,0.007429000000000001,0.014206
265,1.702396,-1.466753,-2.0192919999999996,0.102958,0.994592,0.013628,-0.033202999999999996,-0.016375999999999998,-0.020675,0.015175999999999999,0.001929,0.004454
266,1.709638,-1.466787,-2.011743,0.102823,0.9945959999999999,0.014369,-0.040763,-0.016431,-0.00043200000000000004,0.0071319999999999995,-0.008665,-0.007075
267,1.7136240000000003,-1.4665219999999999,-2.007234,0.103024,0.994568,0.014816,-0.009943,-0.033622000000000006,0.009419,-0.001477,-0.011719,-0.017165
268,1.7091759999999998,-1.466278,-2.0107630000000003,0.10333099999999999,0.9945430000000001,0.014391,0.027301,-0.051875,0.012908000000000001,0.006562999999999999,-0.005697,0.005369
269,1.7046849999999998,-1.466085,-2.014284,0.103583,0.9945229999999999,0.013952,0.004954,-0.044318,0.0074010000000000005,0.0035189999999999996,0.00476,0.028162
270,1.707077,-1.466042,-2.011216,0.103592,0.994518,0.014206,-0.025855,-0.02818,-0.005654,-0.000962,0.00745,0.01883
271,1.7105169999999998,-1.46613,-2.007229,0.10345399999999999,0.9945280000000001,0.014549000000000001,-0.014547,-0.028572000000000004,-0.009015,0.010591,-0.004415,-0.011147
272,1.710768,-1.466256,-2.0061459999999998,0.103326,0.994541,0.014558000000000001,-0.000778,-0.048869,-0.006756,0.012641,-0.001041,0.00028900000000000003
273,1.711138,-1.466344,-2.004769,0.10323399999999999,0.99455,0.014584,-0.0125,-0.045632,-0.006842,0.013816,0.009401999999999999,0.008686
274,1.7147560000000002,-1.466473,-2.0005509999999997,0.10305399999999999,0.994563,0.014939,-0.017695,-0.020026,-0.012253,0.007923000000000001,0.008107,0.009261
275,1.716659,-1.466668,-1.9983669999999998,0.10282999999999999,0.994584,0.015106,-0.00805,-0.009411,-0.011131,0.006437999999999999,0.00061,0.0038909999999999995
276,1.718547,-1.4667370000000002,-1.9964,0.102736,0.994591,0.015290999999999999,-0.012317,-0.0019690000000000003,-0.003692,-0.000625,-0.0017469999999999999,0.005370000000000001
277,1.720978,-1.466644,-1.993885,0.10279,0.9945809999999999,0.015553999999999998,-0.010236,-0.0073290000000000004,0.002738,-0.002037,-0.010038,0.001673
278,1.721005,-1.4665,-1.9937060000000002,0.10293499999999998,0.994566,0.015578999999999999,0.0052060000000000006,-0.006362,0.009093,-0.000152,-0.004011,0.0016179999999999999
279,1.719582,-1.466308,-1.9951139999999998,0.103147,0.9945459999999999,0.015461,0.006306,0.001091,0.009091,0.0017420000000000003,0.0035009999999999998,0.0068319999999999995
280,1.7187560000000002,-1.466174,-1.996057,0.10329,0.994532,0.015394999999999999,0.003154,0.009633,0.006922,-0.0007509999999999999,-0.000758,0.0067599999999999995
281,1.71879,-1.466138,-1.996287,0.103327,0.9945280000000001,0.015404,0.0010630000000000001,0.013923,0.0015609999999999999,0.0053,0.0044340000000000004,0.010291
282,1.7200799999999998,-1.466189,-1.995194,0.10325699999999999,0.994534,0.01553,-0.009606,0.007594,-0.004915,0.0031420000000000003,0.011082,0.008243
283,1.723353,-1.46625,-1.992034,0.10314300000000001,0.99454,0.015858,-0.015997,0.008686,-0.006029,-0.004801,0.004255,0.0008960000000000001
284,1.724635,-1.466344,-1.9910150000000002,0.103031,0.99455,0.015976,0.006426,0.016052,-0.002677,-0.003101,-0.006772,0.001709
285,1.722545,-1.466331,-1.993395,0.103075,0.994548,0.015763,0.010641,0.012806999999999999,0.005902,-0.002306,-0.00143,0.015625
286,1.723525,-1.4661950000000001,-1.9926279999999998,0.10319300000000001,0.994534,0.015884,-0.013902000000000001,0.009706000000000001,0.0035979999999999996,-0.005079,0.006519,0.005173
287,1.725909,-1.466183,-1.990445,0.103165,0.994533,0.016132,-0.002732,0.014513,-0.000695,0.019607,-0.004589,-0.0036200000000000004
288,1.723812,-1.466208,-1.993022,0.103175,0.9945360000000001,0.015912,0.018653,0.028274,0.002641,0.020666,-0.008101,0.006305
289,1.721845,-1.4661030000000002,-1.9956909999999999,0.103308,0.994525,0.015724000000000002,0.008008,0.038943,0.007894,0.005136,-0.000491,0.016395
290,1.7236349999999998,-1.466069,-1.994792,0.103316,0.9945209999999999,0.015915000000000002,-0.010056,0.044375,-0.002921,-0.011977,0.010316,0.006104
291,1.7277060000000002,-1.4662030000000001,-1.991227,0.10312,0.9945350000000001,0.016315,-0.019759,0.012489,-0.012562,-0.009064000000000001,0.0067469999999999995,-0.002582
292,1.730416,-1.466377,-1.9883009999999999,0.102902,0.994553,0.016566,-0.007104999999999999,-0.019518,-0.011364,0.0021850000000000003,0.0011279999999999999,-0.004222
293,1.730215,-1.4665219999999999,-1.9880639999999998,0.10276300000000001,0.994568,0.016523,0.0035399999999999997,-0.021698,-0.008083,0.00266,-0.006043,0.003039
294,1.7308700000000001,-1.4667780000000001,-1.986955,0.102501,0.9945950000000001,0.016549,-0.008181,-0.022705,-0.012436,0.0037770000000000004,-0.0032770000000000004,0.013923
295,1.734503,-1.467077,-1.982952,0.102146,0.994626,0.016873,-0.019456,-0.0143,-0.01679,0.013562000000000001,0.004733,0.01662
296,1.7381360000000001,-1.4672290000000001,-1.97925,0.101936,0.994642,0.017218999999999998,-0.014079,0.005879,-0.006096,0.018593000000000002,0.002215,0.004113
297,1.739481,-1.467149,-1.978259,0.101994,0.994633,0.01737,0.001948,0.026003,0.008945,0.013453999999999999,-0.003392,-0.0055899999999999995
298,1.7375029999999998,-1.466901,-1.98085,0.10227,0.994608,0.017209000000000002,0.018999000000000002,0.029110000000000004,0.016538,0.007669,-0.008264,-0.007137999999999999
299,1.7334919999999998,-1.4664760000000001,-1.9853439999999998,0.102754,0.9945639999999999,0.016867,0.018908,0.01948,0.027232,0.003721,-0.006572,0.006494
300,1.731094,-1.465986,-1.988028,0.103277,0.9945120000000001,0.016697999999999998,0.003948,0.008901000000000001,0.0218,-0.003729,0.002939,0.015727
301,1.732184,-1.465662,-1.9871439999999998,0.103574,0.9944780000000001,0.016862000000000002,-0.014103000000000001,0.013285,0.006712999999999999,-0.008939,0.012357,0.005599
302,1.735395,-1.4657040000000001,-1.98423,0.103476,0.994483,0.017188,-0.01465,0.019706,-0.012454999999999999,0.004053,0.012902,-0.002844
303,1.738753,-1.466105,-1.981271,0.103023,0.994525,0.017468,-0.010316,0.01975,-0.02738,0.010136,0.009046,-0.005520000000000001
304,1.7417150000000001,-1.466709,-1.9786549999999998,0.102379,0.9945879999999999,0.017671,-0.007081999999999999,0.02083,-0.033768,0.014625999999999998,-0.002736,0.0019370000000000001
305,1.7458470000000001,-1.467378,-1.9751310000000002,0.10165,0.994657,0.017978,-0.015535,0.037908,-0.034917000000000004,0.007053,-0.005018,0.008832
306,1.752652,-1.467927,-1.9692869999999998,0.100991,0.994714,0.018571,-0.030423000000000002,0.053917999999999994,-0.0297,0.000938,0.004493,0.011519
307,1.7594599999999998,-1.468137,-1.963568,0.100658,0.994735,0.019219,-0.024108,0.05488,-0.009361,-0.001338,-0.0030210000000000002,-0.001534
308,1.76105,-1.467991,-1.962878,0.10077,0.99472,0.019407,0.009844,0.036558,0.0144,-0.003602,-0.012709999999999999,-0.013531999999999999
309,1.7556720000000001,-1.467527,-1.968812,0.101328,0.9946719999999999,0.01895,0.031027999999999997,0.020432,0.032729,-0.011072,-0.006314999999999999,0.000109
310,1.7486419999999998,-1.4669219999999998,-1.9762,0.102052,0.99461,0.018343,0.031336,0.015997,0.036026,-0.004487,0.001408,0.010709999999999999
311,1.743838,-1.4664,-1.9814509999999999,0.10265,0.994556,0.017942,0.015419,0.024618,0.025222,0.003368,0.007047,0.018313
312,1.742859,-1.466061,-1.9831349999999999,0.103002,0.9945200000000001,0.0179,-0.001531,0.042821,0.016534,0.008235,0.010408,0.017089
313,1.746041,-1.465825,-1.9810619999999999,0.103173,0.9944959999999999,0.018268,-0.018466,0.06422,0.007843000000000001,-0.003228,0.00703,0.006909
314,1.7498630000000002,-1.465694,-1.9785169999999999,0.10323099999999999,0.994482,0.018685,-0.00886,0.059947,0.002574,-0.003698,0.003321,-0.0012900000000000001
315,1.751021,-1.4657129999999998,-1.9782790000000001,0.103192,0.994484,0.018802000000000003,0.004928,0.038606,-0.0005070000000000001,0.0020629999999999997,-0.000755,0.010724
316,1.752066,-1.46567,-1.9778189999999998,0.10321300000000001,0.9944790000000001,0.018917,-0.0068790000000000006,0.023729,0.0004980000000000001,-0.007037000000000001,0.003247,0.010440999999999999
317,1.7558060000000002,-1.465614,-1.974445,0.10319500000000001,0.9944729999999999,0.019313,-0.022882,0.020602000000000002,-0.002815,-0.011352,0.003894,0.005025
318,1.761045,-1.465673,-1.969671,0.10303499999999999,0.9944799999999999,0.019842,-0.021748,0.028085000000000002,-0.010294,-0.00988,-0.000125,0.003565
319,1.763622,-1.465802,-1.967715,0.10285799999999999,0.9944930000000001,0.020083,-0.000175,0.032744999999999996,-0.004762,0.010515,-0.003206,0.007581
320,1.762664,-1.4656639999999999,-1.969339,0.10301500000000001,0.9944790000000001,0.020011,0.01145,0.030483999999999997,0.017755,0.0054600000000000004,-0.0039700000000000004,0.010583
321,1.7597619999999998,-1.4652690000000002,-1.972798,0.103457,0.9944370000000001,0.019786,0.015674,0.027248,0.024197999999999997,-0.002718,-0.000968,0.006139
322,1.75748,-1.464995,-1.9756340000000001,0.10376800000000001,0.994408,0.0196,0.010388,0.027308999999999996,0.013479,-0.005242,0.000831,0.016853
323,1.7566669999999998,-1.46482,-1.977014,0.10395399999999999,0.99439,0.019548,0.0029530000000000003,0.029487,0.008083,0.007633,0.002055,0.021193
324,1.7571130000000001,-1.464605,-1.977282,0.104156,0.994367,0.019634,-0.00021899999999999998,0.039072,0.011253,0.008347,0.003009,0.018895
325,1.7575330000000002,-1.46443,-1.977672,0.10431900000000001,0.994348,0.01971,0.004068,0.040136,0.008076999999999999,0.000264,0.001242,0.008916
326,1.757859,-1.46436,-1.978132,0.10438299999999999,0.994341,0.019757,-0.001052,0.039303,0.002773,-0.001356,0.004301,0.018146000000000002
327,1.760446,-1.464374,-1.976243,0.10431800000000001,0.9943420000000001,0.020024,-0.011720999999999999,0.032974,-0.003703,-0.001336,0.004071,0.017817
328,1.762731,-1.464289,-1.9744240000000002,0.104354,0.994333,0.020279,-0.0032920000000000002,0.019058000000000002,0.005988,-0.002136,-0.006739,0.005982
329,1.7619770000000001,-1.464072,-1.975513,0.104582,0.99431,0.020241,0.012659,0.014711000000000002,0.013583000000000001,-0.001173,-0.005327,0.00315
330,1.7588110000000001,-1.463798,-1.9789029999999999,0.10491099999999999,0.994281,0.01996,0.013682,0.008303,0.016803,0.004541,-0.003208,0.006132
331,1.7583810000000002,-1.4635340000000001,-1.97955,0.105176,0.994253,0.019964,-0.004397,0.015844,0.011326000000000001,0.010135,0.009348,0.016916
332,1.7601799999999999,-1.46327,-1.9784529999999998,0.105398,0.994225,0.020203,-0.005315,0.048871,0.011276999999999999,0.000223,0.007561,0.009948
333,1.759913,-1.463109,-1.9800119999999999,0.10556199999999999,0.994207,0.020205,0.015046,0.06798,0.010326,-0.003404,-0.000723,0.005247
334,1.756473,-1.4630379999999998,-1.984852,0.1057,0.9942,0.019855,0.02907,0.06686900000000001,0.006185,-0.00545,-0.005536999999999999,0.011746
335,1.753866,-1.463017,-1.9887029999999999,0.105772,0.9941969999999999,0.019583,0.014106,0.057346,0.002888,-0.0034460000000000003,0.001225,0.023828
336,1.7551619999999999,-1.463057,-1.988452,0.105709,0.994202,0.019712999999999998,-0.006174,0.04786,-0.004719,-0.008846,0.004867,0.019548
337,1.757177,-1.4631299999999998,-1.9871860000000001,0.105597,0.99421,0.019912,-0.003031,0.036126,-0.0036130000000000003,-0.007285,-0.001778,0.002915
338,1.7566830000000002,-1.463164,-1.988407,0.105574,0.9942129999999999,0.019854,0.012933000000000002,0.034975,0.0039770000000000005,-0.001159,-0.003872,0.008709999999999999
339,1.75416,-1.463071,-1.991625,0.105716,0.9942030000000001,0.019605,0.017172,0.033874,0.009349,-0.006365999999999999,-0.001268,0.013644
340,1.751943,-1.463011,-1.9943819999999999,0.10581600000000001,0.9941969999999999,0.019381,0.013933000000000001,0.020058000000000003,0.0040030000000000005,-0.005841,0.00179,0.005888
341,1.751002,-1.46309,-1.9955720000000001,0.10575599999999999,0.9942049999999999,0.019267,0.005379,0.0084,-0.0035189999999999996,-0.001066,0.002545,0.010823000000000001
342,1.7515020000000001,-1.463243,-1.995473,0.105599,0.9942219999999999,0.019293,0.001227,0.027614999999999997,-0.009982,0.002357,0.00677,0.005564
343,1.7519099999999999,-1.46348,-1.995795,0.105359,0.9942469999999999,0.019293,0.005679,0.039997000000000005,-0.007764,0.02106,0.005738,-0.0017
344,1.751838,-1.463508,-1.996689,0.105333,0.99425,0.019281,0.0066879999999999995,0.042064,0.007195,0.030242,-0.007159,-0.008187999999999999
345,1.749491,-1.463363,-1.9999689999999999,0.105519,0.9942350000000001,0.019059,0.021629,0.047320999999999995,0.011566,0.019221000000000002,-0.004961,-0.004319
346,1.746548,-1.463199,-2.0040139999999997,0.105736,0.994217,0.018777000000000002,0.015271000000000002,0.05587,0.010442,0.005378,0.004684000000000001,0.010215
347,1.747416,-1.4629940000000001,-2.00437,0.10592,0.994195,0.018905,-0.004956,0.06340599999999999,0.008154999999999999,-0.004983,0.004981,0.014146
348,1.7483689999999998,-1.462857,-2.004657,0.10603699999999999,0.99418,0.019030000000000002,0.005727,0.06126,0.002891,-0.009784000000000001,-0.008279,-7.8e-05
349,1.7457779999999998,-1.462854,-2.0082709999999997,0.10608900000000002,0.99418,0.018755,0.022701,0.039895,0.003037,-0.00020800000000000001,0.006690000000000001,-0.0048850000000000005
350,1.742519,-1.462882,-2.0119279999999997,0.10612100000000001,0.994183,0.018405,0.015103,0.007976,-0.00018,0.0009339999999999999,-0.002026,0.006954999999999999
351,1.742668,-1.46284,-2.011807,0.10615899999999999,0.9941780000000001,0.018428,-0.008322,-0.00115,0.004966,0.000103,0.005989,0.01856
352,1.744743,-1.462811,-2.009564,0.106148,0.994175,0.018653,-0.008327,-0.011764,-0.004635,-0.014596000000000001,-0.001591,0.008279
353,1.7438509999999998,-1.463022,-2.010048,0.10595999999999998,0.9941979999999999,0.018522,0.007642,-0.027764999999999998,-0.013047999999999999,-0.013094999999999999,0.003208,0.003557
354,1.742778,-1.4632889999999998,-2.010226,0.105718,0.9942270000000001,0.018363,-0.001003,-0.051175,-0.01201,0.005458,-0.001795,0.010629000000000001
355,1.74232,-1.463418,-2.009712,0.105599,0.99424,0.018292,0.00325,-0.044837,-0.002375,0.015556,-0.002907,0.004535
356,1.740266,-1.4634049999999998,-2.010891,0.105649,0.994239,0.018078,0.008546,-0.044889,0.006208,0.021151,-0.0009220000000000001,0.005543
357,1.7393889999999999,-1.463249,-2.011057,0.10581900000000001,0.9942219999999999,0.018011000000000003,-0.0073939999999999995,-0.028863,0.008213,0.020402,0.0015660000000000001,0.011331
358,1.741157,-1.463158,-2.0089669999999997,0.105877,0.9942129999999999,0.018213999999999998,-0.009389,-0.006451,-0.000376,0.011631,0.005787,0.009267000000000001
359,1.7418799999999999,-1.463211,-2.008336,0.10581199999999999,0.994218,0.018281,0.002483,0.005531,-0.006834999999999999,0.004281,-0.002412,-0.006135
360,1.740563,-1.4632459999999998,-2.009547,0.105799,0.9942219999999999,0.018136000000000003,0.007683,-0.015827,0.001775,0.005301,-0.006765,-0.0012289999999999998
361,1.73852,-1.4630729999999998,-2.011041,0.106004,0.9942030000000001,0.017948,0.0065060000000000005,-0.031836,0.010333,0.0043619999999999996,-0.002916,0.004192
362,1.7376080000000003,-1.462936,-2.011256,0.106155,0.994189,0.017874,-0.0009480000000000001,-0.034981,0.003875,-0.003616,0.0048189999999999995,0.011026000000000001
363,1.737166,-1.462897,-2.011099,0.106201,0.994185,0.017833,0.000172,-0.026449,0.000668,-0.001968,0.0044729999999999995,0.007862000000000001
364,1.735909,-1.462898,-2.012002,0.106225,0.994185,0.0177,0.006620999999999999,-0.015819,0.000699,0.002173,0.000307,0.007873999999999999
365,1.734089,-1.4628370000000002,-2.013486,0.10631600000000001,0.9941780000000001,0.017516,0.00765,-0.01904,0.006052,0.00135,-0.00035800000000000003,0.010071
366,1.733412,-1.4627809999999999,-2.013867,0.10638,0.994172,0.017453,-0.000813,-0.011519,-0.0025629999999999997,-0.002468,0.002639,0.009662
367,1.7340360000000001,-1.463003,-2.0129919999999997,0.106152,0.9941959999999999,0.017484,-0.00079,-0.013438999999999998,-0.013412,0.003573,-0.001001,0.010272
368,1.734593,-1.4632459999999998,-2.012219,0.105906,0.9942219999999999,0.017504,-0.001852,-0.008126000000000001,-0.009153,0.0038659999999999996,0.000178,0.011534
369,1.736289,-1.463329,-2.010447,0.105795,0.994231,0.017669999999999998,-0.010372,-0.000657,-0.004949,0.000254,0.004548,0.011017
370,1.73786,-1.463307,-2.008747,0.10578800000000001,0.9942290000000001,0.01784,-0.0029809999999999997,-0.011361,0.001525,-0.001906,-0.002361,-0.007494
371,1.7362689999999998,-1.4632690000000002,-2.010004,0.10585399999999999,0.994224,0.017678,0.012983000000000001,-0.018878,0.002715,0.009609,-0.0056229999999999995,0.000465
372,1.732941,-1.463265,-2.013034,0.10591700000000001,0.994224,0.017325999999999998,0.016222,-0.010367,0.002727,0.013529,-0.003868,0.008843
373,1.732027,-1.463154,-2.01415,0.10603900000000001,0.9942120000000001,0.017246,-0.001794,0.021633000000000003,0.007901,0.004221,0.006490000000000001,0.021922999999999998
374,1.734101,-1.463015,-2.012696,0.10613900000000001,0.9941969999999999,0.017488999999999998,-0.011339,0.033389,0.006751000000000001,-0.0013880000000000001,0.0072829999999999995,0.018476
375,1.7349919999999999,-1.4628379999999999,-2.0121689999999997,0.106296,0.9941780000000001,0.017612,0.00123,0.006769,0.008876,-0.0023989999999999997,-0.003776,0.002362
376,1.7319470000000001,-1.462575,-2.014911,0.106608,0.99415,0.01733,0.019194,-0.026338999999999998,0.014385,-0.000437,0.001227,0.006992
377,1.7279380000000002,-1.46245,-2.0183259999999996,0.106799,0.994136,0.016922,0.014955000000000001,-0.029481999999999998,0.004745,0.001065,0.004323,0.00946
378,1.7259380000000002,-1.462556,-2.019908,0.10672899999999999,0.9941479999999999,0.016692,0.006531,-0.0145,-0.004947,0.014182,0.005867,0.016128999999999998
379,1.726955,-1.462608,-2.018948,0.10666099999999999,0.9941530000000001,0.016793000000000002,-0.011477,0.015387,-0.004043,0.019804,0.008471,0.019065000000000002
380,1.7306700000000002,-1.4626370000000002,-2.0157849999999997,0.10656900000000001,0.994157,0.017184,-0.013529,0.034565,-0.003013,0.004469,0.0021969999999999997,0.011715999999999999
381,1.732418,-1.462685,-2.014753,0.106492,0.9941620000000001,0.017363,0.002464,0.031317000000000005,-0.003966,-0.004594,-0.005255,0.0011769999999999999
382,1.7312299999999998,-1.462754,-2.016248,0.106445,0.9941690000000001,0.017225999999999998,0.016204,0.00569,-0.0006320000000000001,0.00235,-0.012586,0.005235
383,1.727672,-1.4627709999999998,-2.0198560000000003,0.10648699999999998,0.9941709999999999,0.016844,0.019208000000000003,0.000343,0.001407,0.007328,-0.008011,0.0074329999999999995
384,1.726231,-1.462709,-2.021507,0.106572,0.9941639999999999,0.0167,0.0032869999999999996,0.01957,0.002339,0.018672,0.005698,0.020013
385,1.7287569999999999,-1.462618,-2.0196560000000003,0.10662,0.9941540000000001,0.016983,-0.014744,0.043069,0.002183,0.010217,0.006639,0.01384
386,1.7312619999999999,-1.462607,-2.018053,0.106591,0.9941530000000001,0.017252,-0.00299,0.044106,-0.000941,-0.005013,0.004107,0.0018210000000000001
387,1.73143,-1.46265,-2.018591,0.106546,0.994158,0.017263999999999998,0.006555,0.027045,-0.005125,-0.013987000000000001,-0.001894,0.001596
388,1.730733,-1.462833,-2.019519,0.106379,0.9941780000000001,0.017159999999999998,0.0075450000000000005,0.00257,-0.012564,-0.006906999999999999,-0.005484,0.011496
389,1.7310919999999999,-1.463123,-2.0190580000000002,0.10608900000000002,0.994209,0.017153,-0.003153,-0.008028,-0.016898,0.0040950000000000005,0.002602,0.022123
390,1.733956,-1.463418,-2.016171,0.10575,0.99424,0.017409,-0.016959000000000002,0.004808,-0.018078999999999998,0.007852,0.011131,0.022752
391,1.7375509999999998,-1.463774,-2.012875,0.10533599999999999,0.9942790000000001,0.017730000000000003,-0.011681,0.022394999999999998,-0.017059,-0.0016530000000000002,-0.002228,0.012147
392,1.740103,-1.46409,-2.010732,0.10497999999999999,0.9943120000000001,0.017946,-0.006385,0.015976,-0.014878,-0.009353,-0.003941,0.0013570000000000001
393,1.741075,-1.464391,-2.009702,0.10466700000000001,0.994344,0.017997,0.0030629999999999998,-0.016024,-0.012634000000000001,-0.002311,-0.005468,0.00158
394,1.740329,-1.4645540000000001,-2.009893,0.104521,0.9943620000000001,0.017891,0.002967,-0.030963,-0.006206000000000001,0.006257,-0.004448,0.005302
395,1.7401919999999997,-1.464661,-2.009487,0.10442,0.994373,0.017859,-0.001266,-0.022430000000000002,-0.005179,0.018535,0.004132,0.016259
396,1.7414060000000002,-1.464724,-2.0081689999999996,0.10433599999999998,0.9943799999999999,0.017976,-0.009662,0.009553,-0.00421,0.014194,0.006353,0.011793999999999999
397,1.743625,-1.4647809999999999,-2.006367,0.10424000000000001,0.9943860000000001,0.018197,-0.006399,0.024451,-0.0031379999999999997,0.004967,0.0043630000000000006,0.002799
398,1.743537,-1.464789,-2.006846,0.10423199999999999,0.9943860000000001,0.018186,0.010598,0.011595999999999999,0.000202,0.008011,-0.006745999999999999,-0.00456
399,1.7396790000000002,-1.464724,-2.010672,0.104367,0.9943799999999999,0.017795,0.022102,-0.00775,0.008803,0.010532,-0.009242,-0.00037
400,1.73616,-1.464559,-2.014049,0.104592,0.9943620000000001,0.017455000000000002,0.010371,-0.005582999999999999,0.009787,0.0060799999999999995,0.005072999999999999,0.014558000000000001
401,1.73662,-1.464422,-2.013713,0.104717,0.994348,0.017526,-0.00978,0.014754,0.003211,0.00041600000000000003,0.005668,0.022575
402,1.7387830000000002,-1.4644139999999999,-2.011926,0.10468699999999999,0.994347,0.017753,-0.005464,0.017963999999999997,-0.004241,-0.002529,0.001045,0.009285
403,1.7385560000000002,-1.4645350000000001,-2.012352,0.104572,0.99436,0.017709,0.005152,0.0040869999999999995,-0.006285,-0.002536,0.0015970000000000001,0.004019
404,1.738319,-1.464644,-2.0124009999999997,0.10447100000000001,0.9943709999999999,0.017667,-0.001355,-0.018265,-0.005234,-0.006540000000000001,0.000227,0.010928
405,1.739104,-1.464721,-2.011054,0.10438099999999999,0.9943790000000001,0.017736000000000002,-0.00569,-0.033164,-0.0052450000000000005,-0.002589,-0.001841,0.008967000000000001
406,1.740216,-1.464753,-2.009249,0.10432899999999999,0.994383,0.017846,-0.010056,-0.032075,-0.0021100000000000003,0.002513,0.004686999999999999,0.013907
407,1.7429689999999998,-1.4647649999999999,-2.006038,0.10426700000000001,0.994384,0.018131,-0.017443,-0.016061000000000002,-0.004319,0.0031550000000000003,0.003083,0.007397
408,1.744446,-1.4647940000000002,-2.00432,0.10421300000000001,0.9943870000000001,0.018281,-0.0014349999999999999,-0.010808,5.9e-05,0.010823000000000001,-0.004397,-0.001328
409,1.742129,-1.4647940000000002,-2.006353,0.104255,0.9943870000000001,0.018039,0.014524,-0.017268000000000002,0.0033840000000000003,0.00782,-0.002337,0.005703
410,1.739866,-1.464744,-2.008308,0.104344,0.994382,0.017812,0.007070999999999999,-0.014046000000000001,0.003327,0.004542,-0.00010400000000000001,0.012111
411,1.739695,-1.4646629999999998,-2.0082619999999998,0.10442699999999999,0.994373,0.017807,-0.000383,-0.009762999999999999,0.004338,0.007343000000000001,0.001217,0.017547
412,1.7398930000000001,-1.464547,-2.007972,0.10453699999999999,0.994361,0.017847,-0.0035310000000000003,0.0009050000000000001,0.0032340000000000003,-0.002395,0.0026030000000000003,0.008886
413,1.7410130000000001,-1.464532,-2.006981,0.104531,0.994359,0.017967,-0.003478,0.007318000000000001,-0.0021149999999999997,-0.000283,0.000178,0.005654
414,1.740705,-1.464566,-2.007341,0.104503,0.9943629999999999,0.017929,0.004995,-0.003378,0.001163,0.00536,-0.000848,0.002396
415,1.7397880000000001,-1.464492,-2.008131,0.104592,0.9943549999999999,0.017845,0.0048590000000000005,-0.008736,0.00433,0.007026,-0.001923,0.006554000000000001
416,1.738735,-1.4644190000000001,-2.0091330000000003,0.104682,0.994347,0.017747,0.007045,0.001913,0.003264,0.002007,-0.000924,0.010512
417,1.7380360000000001,-1.464486,-2.0100580000000003,0.104628,0.9943540000000001,0.017662999999999998,0.003945000000000001,0.015806999999999998,-0.0053219999999999995,-0.000563,0.001678,0.011558
418,1.739465,-1.464633,-2.009129,0.10446,0.9943700000000001,0.017787999999999998,-0.007709000000000001,0.028651999999999997,-0.010761,0.000551,0.0009609999999999999,0.01366
419,1.740378,-1.4647780000000001,-2.00866,0.10430199999999999,0.9943850000000001,0.017859,0.008218000000000001,0.015796,-0.00636,0.004981,-0.008468999999999999,0.00303
420,1.7370029999999999,-1.464802,-2.012152,0.10433900000000002,0.9943879999999999,0.017503,0.0209,0.000791,0.005497999999999999,0.006959,-0.006122,0.003691
421,1.7349869999999998,-1.4646649999999999,-2.014139,0.10450799999999999,0.994373,0.017315,0.00274,-0.001289,0.008579,0.003692,0.008099,0.018512999999999998
422,1.73636,-1.464582,-2.012979,0.104564,0.9943649999999999,0.017472,-0.006781000000000001,0.018816,-0.0021579999999999998,-0.004543,0.004186,0.014495
423,1.7374080000000003,-1.464713,-2.012445,0.10441800000000001,0.9943780000000001,0.01756,0.0018210000000000001,0.027333,-0.008519,-0.00458,0.003958,0.013705000000000002
424,1.7381939999999998,-1.464833,-2.012044,0.10428599999999999,0.994391,0.017622,-0.00148,0.010279,-0.003179,0.008262,-0.002509,0.004717
425,1.7371740000000002,-1.464806,-2.013085,0.10432999999999999,0.9943879999999999,0.017519999999999997,0.013355,-0.004717,0.004422,0.011683,-0.0060149999999999995,0.009061
426,1.7332319999999999,-1.464772,-2.0170150000000002,0.10443,0.9943850000000001,0.017113999999999997,0.020847,0.002706,0.006601,0.012483,-0.0014039999999999999,0.015403
427,1.732591,-1.464713,-2.017959,0.104499,0.9943780000000001,0.017056,-0.003585,0.021983000000000003,0.002133,0.004388,0.0035159999999999996,0.024524
428,1.734595,-1.464691,-2.016548,0.104486,0.994376,0.017269,-0.004575,0.033726,-0.00323,-0.0018559999999999998,0.0046630000000000005,0.014728
429,1.7355580000000002,-1.4648709999999998,-2.01619,0.10429300000000001,0.994395,0.017341,0.0018260000000000001,0.024155000000000003,-0.012787,-0.007369,0.004979,0.01188
430,1.7364650000000001,-1.465055,-2.01551,0.104098,0.9944149999999999,0.017405,-0.0025570000000000002,0.003908,-0.007451,-0.001726,-0.00027400000000000005,0.01209
431,1.736321,-1.465152,-2.015539,0.104006,0.994425,0.017375,0.007991,-0.01226,-0.001911,-0.001361,-0.0035189999999999996,0.007238
432,1.734162,-1.465214,-2.0173490000000003,0.103984,0.994431,0.01714,0.010081999999999999,-0.021855,-0.001884,0.0015609999999999999,0.001876,0.015666
433,1.734247,-1.465276,-2.016849,0.103921,0.9944379999999999,0.017138999999999998,-0.008026,-0.018583000000000002,-0.005220000000000001,0.001731,0.0054399999999999995,0.020641999999999997
434,1.736578,-1.465443,-2.014265,0.103718,0.9944559999999999,0.017353999999999998,-0.007949,-0.008966,-0.012709,-0.001469,0.001104,0.014293
435,1.736977,-1.46573,-2.013651,0.10343,0.9944860000000001,0.017348,0.0037770000000000004,-0.012198,-0.013691,0.006693000000000001,-0.0034729999999999995,0.004915
436,1.7366700000000002,-1.465873,-2.013635,0.10329200000000001,0.994501,0.017292,0.001576,-0.018616,-0.005152,0.013209,-0.002908,0.008404
437,1.7362630000000001,-1.465869,-2.0137400000000003,0.10330299999999999,0.9945,0.017251,0.0015710000000000001,-0.013316,0.00125,0.012175,0.002097,0.012504000000000001
438,1.736291,-1.4658879999999999,-2.013574,0.10328399999999999,0.994502,0.017251,0.000557,-0.004777,-0.001973,0.004,0.0028120000000000003,0.011344
439,1.735314,-1.465924,-2.01445,0.10326300000000001,0.994506,0.017144,0.008012,-0.00698,-0.002904,0.0054859999999999996,0.0017399999999999998,0.007423000000000001
440,1.7335669999999999,-1.465953,-2.016007,0.10326300000000001,0.994509,0.016958,0.007983,-0.012311,-0.001829,0.008767,-0.002611,0.008066
441,1.732132,-1.466025,-2.017138,0.103217,0.994516,0.016799,0.006906,-0.01762,-0.005034,0.004129,-0.001871,0.008836
442,1.7316880000000001,-1.466105,-2.0171360000000003,0.103148,0.994525,0.01674,-0.0016719999999999999,-0.026117,-0.0040149999999999995,0.006517,4.3e-05,0.011992000000000001
443,1.731783,-1.4661899999999999,-2.0166049999999998,0.103065,0.994534,0.016737000000000002,-0.000566,-0.017598,-0.004018,0.002861,0.00217,0.015916999999999997
444,1.7317200000000001,-1.466273,-2.016473,0.102986,0.994542,0.016717,0.00162,-0.0069489999999999994,-0.005085,0.005611,0.003825,0.014639
445,1.731827,-1.466359,-2.016266,0.1029,0.9945510000000001,0.016715,0.000544,-0.008015000000000001,-0.004023,-0.000376,-0.0017079999999999999,0.012445
446,1.731607,-1.466461,-2.016189,0.10280399999999999,0.9945620000000001,0.016676,0.003701,-0.019735,-0.006122,-0.001058,-0.0039,0.0063950000000000005
447,1.729856,-1.466565,-2.017419,0.10273,0.9945729999999999,0.016479,0.011106999999999999,-0.027157999999999998,-0.0017420000000000003,0.003639,-0.003942,0.006287
448,1.7281810000000002,-1.466632,-2.018641,0.10268900000000002,0.9945799999999999,0.016296,0.004759,-0.0186,-0.005002,0.008182,0.001468,0.017287999999999998
449,1.7289310000000002,-1.466818,-2.0177810000000003,0.102495,0.994599,0.016344,-0.00579,0.002763,-0.010444,0.012098999999999999,0.007888,0.020353
450,1.73058,-1.4670040000000002,-2.016419,0.102285,0.994618,0.016484,-0.00358,0.018739,-0.011517,0.009211,-0.002507,0.006876999999999999
451,1.7306669999999997,-1.4673120000000002,-2.016699,0.10198099999999999,0.99465,0.016444,0.010304,0.016581,-0.016759,0.01188,0.0021449999999999998,-0.001124
452,1.729669,-1.467622,-2.017904,0.10169299999999999,0.994682,0.016294,0.004912,0.005939,-0.014646000000000001,0.008704,0.005592,0.00044500000000000003
453,1.732616,-1.467926,-2.014907,0.10134800000000001,0.994713,0.016544999999999997,-0.020712,-0.004599,-0.021221,0.001267,0.007240000000000001,0.0021620000000000003
454,1.735912,-1.468073,-2.0115950000000002,0.101147,0.9947290000000001,0.016854,-0.001585,0.005869,-0.002898,0.009021,-0.011681,0.007788
455,1.7304220000000001,-1.468008,-2.017322,0.101303,0.9947219999999999,0.016309,0.04319,0.012048999999999999,0.011294,0.008316,-0.015489,0.017488999999999998
456,1.7251619999999999,-1.4681110000000002,-2.022814,0.101286,0.994732,0.01576,0.013404,0.007986,-0.01241,-0.014691999999999998,0.0059689999999999995,0.028231
457,1.7304509999999997,-1.4686629999999998,-2.01755,0.100659,0.9947889999999999,0.016209,-0.039848,-0.00023500000000000002,-0.041613,0.007999,0.026543,0.008587000000000001
458,1.7406169999999999,-1.4692889999999998,-2.007225,0.099874,0.9948530000000001,0.017126,-0.042068,-0.009853,-0.032001999999999996,0.042933,-0.007670000000000001,-0.010426999999999999
459,1.7443490000000001,-1.4695120000000002,-2.003135,0.099591,0.994875,0.01746,-0.0016809999999999998,-0.017558,-0.005005,0.046481,-0.027041000000000003,-0.010166
460,1.7420849999999999,-1.469366,-2.0053400000000003,0.099771,0.9948600000000001,0.017259,0.017523,0.006778,0.019667,-0.009149,-0.0027489999999999997,0.021117
461,1.7385439999999999,-1.468824,-2.009177,0.100361,0.9948049999999999,0.016995,0.015350999999999998,0.012056,0.033532,-0.027821,-0.0047539999999999995,0.030963
462,1.733096,-1.468284,-2.014422,0.100981,0.99475,0.016535,0.026966000000000004,-0.023104,0.025113,-0.032774,-0.008239,0.021506
463,1.72848,-1.4680389999999999,-2.018479,0.101296,0.994725,0.016106,0.008847,-0.027344,0.000463,-0.004464,0.014491,0.003135
464,1.729393,-1.468308,-2.017127,0.10102,0.9947530000000001,0.016156999999999998,-0.007022,-0.018681,-0.021023,0.026773,0.00215,-0.0012029999999999999
465,1.732319,-1.468942,-2.014018,0.10035,0.9948170000000001,0.016350999999999997,-0.008997,-0.001557,-0.039219,0.030631,-0.0035450000000000004,0.007391
466,1.7380959999999999,-1.470021,-2.00829,0.099195,0.994926,0.016752,-0.023814,0.002846,-0.061761,0.015536000000000001,6.9e-05,0.026324
467,1.7469740000000002,-1.471099,-1.999377,0.097988,0.995034,0.017444,-0.040922,-0.001372,-0.057602,-0.005337,0.007468000000000001,0.023906999999999998
468,1.7550459999999999,-1.471934,-1.990911,0.097028,0.995117,0.018082,-0.026192,-0.032376999999999996,-0.042504,-0.006589,0.0026550000000000002,0.00028900000000000003
469,1.756619,-1.472309,-1.98815,0.096635,0.9951540000000001,0.018167,-0.00197,-0.07412300000000001,-0.01344,0.017394,-0.006522,-0.012033
470,1.753141,-1.472404,-1.989971,0.096606,0.9951629999999999,0.017813,0.017131999999999998,-0.082768,0.000592,0.030225,-0.008042,-0.0029059999999999997
471,1.748113,-1.472327,-1.9938349999999998,0.09676799999999999,0.9951559999999999,0.017341,0.0173,-0.036995,0.00908,0.033267000000000005,-0.008355,0.009895999999999999
472,1.746514,-1.4722979999999999,-1.995557,0.096823,0.9951530000000001,0.017190999999999998,0.0058460000000000005,0.028068,-0.001673,0.013208000000000001,0.001322,0.035193
473,1.747916,-1.4724,-1.995052,0.096701,0.9951629999999999,0.017309,-0.007898,0.049448,-0.008206,-0.0006320000000000001,0.014633000000000002,0.020685
474,1.7519360000000002,-1.4723709999999999,-1.9920069999999999,0.09665900000000001,0.99516,0.017703,-0.018624,0.046251,0.0013369999999999999,-0.011469,0.019717,0.009992000000000001
475,1.753641,-1.472133,-1.9909169999999998,0.096861,0.995137,0.017911,0.002564,0.019518999999999998,0.007929,-0.015196000000000001,0.001323,0.011753
476,1.7527009999999998,-1.472248,-1.991905,0.096764,0.9951479999999999,0.017799000000000002,0.005731,-0.009169,-0.013377000000000002,-0.019829,0.005797999999999999,0.018685
477,1.753789,-1.472564,-1.990313,0.096435,0.995179,0.017847,-0.009276999999999999,-0.030400999999999997,-0.018796,-0.029906,-0.012833,0.022696
478,1.754521,-1.472918,-1.9887810000000001,0.096078,0.9952139999999999,0.017853,0.002299,-0.046269,-0.015387,-0.016152,-0.002202,0.012603
479,1.754066,-1.473151,-1.988003,0.095859,0.995236,0.017766999999999998,-0.006370000000000001,-0.069701,-0.009008,0.010373,0.003543,0.015740999999999998
480,1.756114,-1.473236,-1.984414,0.095739,0.995245,0.017948,-0.017077000000000002,-0.075003,-0.005872,0.024806,-0.0018059999999999999,0.015590999999999999
481,1.758072,-1.473535,-1.981241,0.095412,0.995274,0.018080000000000002,-0.004092,-0.049422,-0.020769,0.014406,-0.000386,0.012727
482,1.7574040000000002,-1.474091,-1.9812599999999998,0.094878,0.9953280000000001,0.017913,0.009926,-0.022813,-0.027114999999999997,0.001725,-0.010693000000000001,0.019364
483,1.756563,-1.474487,-1.981709,0.09450800000000001,0.995366,0.017761000000000002,0.000276,-0.017516999999999998,-0.011165000000000001,-0.002635,-0.007634,0.025192
484,1.7582240000000002,-1.4744110000000001,-1.979666,0.094552,0.995359,0.017932,-0.014750999999999998,-0.019668,0.0068920000000000006,-0.00515,0.011004,0.019833
485,1.7605259999999998,-1.474026,-1.977068,0.094887,0.9953209999999999,0.018222,-0.008388,-0.016541,0.018683,-0.003273,0.003915999999999999,0.000226
486,1.7569119999999998,-1.4736690000000001,-1.98017,0.095299,0.995287,0.017943999999999998,0.023574,-0.027301,0.017852,0.01284,-0.005968,0.000992
487,1.751991,-1.473591,-1.984789,0.095462,0.9952790000000001,0.017488999999999998,0.016182,-0.010058,0.001928,0.012921,0.00054,0.010877
488,1.7517310000000001,-1.473589,-1.9850560000000002,0.095471,0.9952790000000001,0.017465,-0.000825,0.0027890000000000002,0.000724,0.0036810000000000002,0.005698,0.018027
489,1.7512310000000002,-1.473578,-1.985653,0.09548999999999999,0.9952780000000001,0.017419,0.0077,0.0016899999999999999,0.001853,-0.008347,0.0025399999999999997,0.010581
490,1.750229,-1.473617,-1.986425,0.09547,0.995282,0.017317,0.000151,-0.023819999999999997,-0.005644,-0.009181,-0.001324,0.013978999999999998
491,1.750402,-1.473802,-1.985486,0.09528500000000001,0.9953,0.0173,-0.003098,-0.044011,-0.015255000000000001,-0.006753,-0.005538,0.017933
492,1.7509669999999997,-1.474116,-1.983989,0.094968,0.9953299999999999,0.017297999999999997,-0.0041600000000000005,-0.045064,-0.017397,-0.003797,-0.000365,0.019552
493,1.752,-1.474293,-1.982068,0.094776,0.995347,0.017363999999999997,-0.002074,-0.042992,-0.004567,0.0044670000000000005,-0.008302,0.017136000000000002
494,1.748982,-1.474107,-1.984392,0.09501,0.9953290000000001,0.017111,0.019219999999999998,-0.028251,0.020132,-0.00361,-0.000746,0.01008
495,1.7429560000000002,-1.473627,-1.990048,0.09558,0.995283,0.01662,0.023483,-0.01766,0.031899000000000004,-0.010009,0.00078,0.010404
496,1.739248,-1.4729299999999999,-1.993348,0.096326,0.995215,0.016382,0.00312,-0.020715,0.041555,0.005007,0.012582,0.014105000000000001
497,1.7385169999999999,-1.472102,-1.9936919999999998,0.09715,0.995134,0.016449000000000002,-0.005377000000000001,-0.015346,0.038284,0.007051999999999999,0.010817,0.011521
498,1.7374060000000002,-1.4716,-1.994947,0.097663,0.995084,0.016424,0.010879999999999999,0.018775999999999998,0.015921,0.007226000000000001,0.0042450000000000005,0.004572
499,1.7340939999999998,-1.4714459999999998,-1.998786,0.097867,0.9950690000000001,0.016125,0.022654,0.023013,0.011725,0.008502,-0.013897999999999999,0.008548
500,1.729775,-1.471207,-2.003476,0.09817000000000001,0.9950450000000001,0.01574,0.017266999999999998,0.014497,0.014903,-0.003947,-0.009327,0.010597
501,1.7270020000000001,-1.471017,-2.006341,0.098399,0.9950260000000001,0.015497,0.014009,-0.002519,0.010629000000000001,-0.010692,0.008239,0.010367
502,1.7236049999999998,-1.47084,-2.009427,0.098624,0.995008,0.015189,0.015027,-0.023547,0.011017,0.004129,-0.009565,0.013757
503,1.7208169999999998,-1.470696,-2.011652,0.09880599999999999,0.994994,0.014934999999999999,0.004368,-0.026683999999999996,0.005606,0.010416,-0.005462,0.020755000000000003
504,1.720545,-1.470585,-2.011647,0.098919,0.994983,0.014925,0.001263,-0.007489,0.003423,0.004612,0.002545,0.027739
505,1.7178650000000002,-1.470524,-2.0142290000000003,0.099022,0.994977,0.014669,0.020443,-0.006517,0.009965,0.0028309999999999997,-0.003034,0.015025
506,1.7140490000000002,-1.4703709999999999,-2.018071,0.099229,0.9949620000000001,0.014313,0.010889,0.006291,0.012018000000000001,0.006942,0.001254,0.019516
507,1.713238,-1.46994,-2.019126,0.099664,0.9949180000000001,0.014293,0.003387,0.014776,0.027977999999999996,0.007178,0.0051270000000000005,0.017308
508,1.710702,-1.4692100000000001,-2.0220029999999998,0.100422,0.9948450000000001,0.014141999999999998,0.019328,0.017847,0.045176999999999995,0.005168,0.002165,0.001895
509,1.7062279999999999,-1.468381,-2.0270490000000003,0.101301,0.9947600000000001,0.013803999999999999,0.020481,0.032774,0.040893,-0.00218,0.0008449999999999999,0.002325
510,1.703446,-1.467857,-2.030708,0.101855,0.994706,0.013590999999999999,0.013175999999999998,0.047799,0.019459,0.0050479999999999995,0.0039049999999999996,0.0072829999999999995
511,1.701548,-1.4676559999999998,-2.033578,0.102079,0.9946860000000001,0.013423,0.017539,0.045982999999999996,0.010188,0.023532,-0.003399,0.009448999999999999
512,1.6980400000000002,-1.46751,-2.03793,0.102271,0.9946709999999999,0.013084,0.02284,0.036386,0.008101,-0.00962,0.010243,0.013482
513,1.6964009999999998,-1.467536,-2.040202,0.102266,0.9946729999999999,0.012912999999999999,-0.001674,0.025883,-0.00808,-0.016862000000000002,0.02437,0.015087
514,1.701039,-1.467852,-2.035669,0.101892,0.994706,0.013346,-0.025227,-0.006998999999999999,-0.023157,-0.000177,0.006881,0.005132
515,1.703916,-1.4680469999999999,-2.0322419999999997,0.101659,0.994726,0.013613,-0.004096,-0.036965,-0.006948,0.013621000000000001,-0.017736000000000002,-0.002688
516,1.700712,-1.468141,-2.034543,0.10161,0.9947360000000001,0.013275,0.017179,-0.049826999999999996,-0.005715,0.001906,-0.006790000000000001,0.010955
517,1.6995650000000002,-1.468373,-2.034856,0.10139400000000001,0.9947590000000001,0.013129,-0.008325,-0.031611,-0.010189,0.009293000000000001,0.010473999999999999,0.026712
518,1.702955,-1.4684709999999999,-2.031308,0.101253,0.994769,0.01346,-0.015653999999999998,0.008856999999999999,-0.000678,0.018208000000000002,-0.002353,0.023512
519,1.7026189999999999,-1.468107,-2.0322009999999997,0.101617,0.994732,0.013474000000000002,0.013191999999999999,0.034747,0.027535000000000004,0.026663,-0.007855,0.007278
520,1.697243,-1.467302,-2.038336,0.10248399999999999,0.994649,0.013028,0.030175,0.036733,0.049016000000000004,0.011590999999999999,-0.008947,0.0077540000000000005
521,1.690937,-1.4664270000000001,-2.045298,0.103426,0.994559,0.012486,0.03549,0.029269999999999997,0.045857999999999996,-0.006335,-0.003149,0.016277
522,1.6852080000000003,-1.46564,-2.051602,0.104274,0.994476,0.011982,0.026975,0.025072999999999998,0.037258,-0.011545999999999999,0.008621,0.021434
523,1.681566,-1.465055,-2.055751,0.104896,0.9944149999999999,0.011667,0.014219999999999998,0.024099000000000002,0.025419,-0.010872,0.005799,0.02738
524,1.6795759999999997,-1.4646350000000001,-2.0582580000000004,0.105334,0.9943700000000001,0.011504,0.01213,0.028388999999999998,0.020058000000000003,-0.01047,0.001876,0.027589
525,1.6782970000000001,-1.4643059999999999,-2.060029,0.105674,0.9943350000000001,0.011404000000000001,0.008886,0.01563,0.016847,-0.018484999999999998,0.005649,0.0189
526,1.675914,-1.463997,-2.062267,0.10600799999999999,0.994302,0.011184,0.011914,-0.017874,0.019196,-0.018545,0.001044,0.016724
527,1.6732490000000002,-1.46375,-2.064491,0.10628299999999999,0.994276,0.010927,0.013,-0.023165,0.009595999999999999,-0.022619,-0.0022559999999999998,0.023816999999999998
528,1.67061,-1.463731,-2.0666900000000004,0.10632799999999999,0.994274,0.010648000000000001,0.011976,-0.022062000000000002,0.001042,-0.01804,0.002781,0.030320999999999997
529,1.670061,-1.4638,-2.066875,0.10626600000000001,0.994281,0.010583,-0.00185,-0.016669999999999997,-0.003334,-0.008320000000000001,0.005261,0.028769
530,1.670877,-1.463881,-2.065769,0.10617599999999999,0.99429,0.010662,-0.0029170000000000003,-0.014544999999999999,-0.001208,0.003015,-0.0017670000000000001,0.015049000000000002
531,1.6689459999999998,-1.4638639999999998,-2.06734,0.10621300000000002,0.994288,0.010458,0.015166999999999998,-0.018899000000000003,0.0064010000000000004,0.009692000000000001,-0.006587000000000001,0.006784
532,1.665268,-1.463865,-2.070736,0.106251,0.994288,0.010068,0.02054,-0.014639,0.0021609999999999997,0.017315,-0.000743,0.012088
533,1.6632349999999998,-1.463899,-2.072476,0.10623800000000001,0.994292,0.009849,0.006666,-0.013534000000000001,0.0041990000000000005,0.017404,0.004381,0.022637
534,1.663934,-1.463678,-2.071777,0.10645,0.994268,0.009943,-0.005012,0.008839,0.013703,0.017009,0.006296,0.019857
535,1.66314,-1.463339,-2.072896,0.10679300000000001,0.994232,0.009890000000000001,0.013019999999999999,0.017762,0.017996,0.016712,-0.00267,0.004713
536,1.658623,-1.462897,-2.077629,0.107275,0.994185,0.009446,0.030008999999999997,0.005959000000000001,0.024539,0.014688,-0.007978,0.006712999999999999
537,1.652455,-1.4623389999999998,-2.083903,0.107885,0.994124,0.008829,0.031018,0.002721,0.034164,0.015802,-0.002471,0.007756999999999999
538,1.6469049999999998,-1.461597,-2.08967,0.10866700000000001,0.994044,0.008286,0.032123,0.015484,0.038429000000000005,0.016272,-0.002512,0.016265
539,1.6415240000000002,-1.4608299999999999,-2.095567,0.109471,0.9939600000000001,0.007756,0.026837,0.027216000000000004,0.039445,0.01704,-0.001391,0.019008
540,1.637801,-1.4600870000000001,-2.099883,0.11023599999999999,0.993878,0.007397,0.016187,0.026208999999999996,0.034031,-0.000784,0.00246,0.018359
541,1.635284,-1.4595129999999998,-2.102766,0.110822,0.993814,0.007156999999999999,0.01402,0.009211,0.024423,-0.012128,0.0069180000000000005,0.006225
542,1.632319,-1.45907,-2.10568,0.11128199999999999,0.993765,0.006855,0.017149,-0.009962,0.021265,-0.004959000000000001,0.0035340000000000002,0.002193
543,1.62726,-1.458676,-2.110277,0.111705,0.993721,0.006314,0.030704000000000002,-0.032168,0.018989,0.004415,-0.002022,0.009006
544,1.621425,-1.458393,-2.115533,0.112022,0.9936889999999999,0.005676,0.025408,-0.029993000000000002,0.01254,0.006768000000000001,0.002633,0.023788
545,1.619538,-1.458259,-2.1169740000000004,0.11216300000000001,0.993674,0.005471,-0.003315,-0.017088,0.006981,0.000538,0.008309,0.029363999999999998
546,1.6217290000000002,-1.458216,-2.1144849999999997,0.112196,0.99367,0.005719,-0.016075,-0.015944,-0.001655,-0.009519,0.000608,0.008822
547,1.621952,-1.458293,-2.1138220000000003,0.11211700000000001,0.9936780000000001,0.0057399999999999994,0.006286,-0.029854000000000002,-0.005754,-0.003993,-0.0024059999999999997,-9.499999999999999e-05
548,1.617882,-1.458356,-2.1172470000000003,0.11208,0.993685,0.005281,0.026508999999999998,-0.036333,-0.001332,0.007717,-0.000338,0.008116
549,1.6128209999999998,-1.458258,-2.1216209999999998,0.112201,0.993674,0.004718,0.023265,-0.035299000000000004,0.009327,0.016416,0.001428,0.018201
550,1.609544,-1.458118,-2.124284,0.112357,0.993658,0.0043560000000000005,0.012449,-0.027732,0.00581,0.008905,0.00036,0.020135
551,1.608889,-1.458115,-2.12448,0.11235999999999999,0.993658,0.004282,-0.006683,-0.019112999999999998,-0.001812,0.007147,0.010324,0.017553
552,1.612101,-1.458318,-2.1210139999999997,0.11214400000000001,0.9936809999999999,0.004635,-0.020441,-0.010478,-0.017942,0.003563,0.001955,0.004673
553,1.614235,-1.458717,-2.118616,0.111738,0.993726,0.004857,-0.0023190000000000003,-0.017981,-0.022078999999999998,0.011431,-0.007504,-0.006337
554,1.611881,-1.459103,-2.120398,0.111365,0.993769,0.0045780000000000005,0.019979,-0.03513,-0.015491999999999999,0.014947,-0.004252000000000001,0.002975
555,1.608533,-1.459308,-2.123031,0.111177,0.993792,0.004197,0.011415999999999999,-0.036186,-0.010209000000000001,0.015547,0.0034159999999999998,0.011977
556,1.6089879999999999,-1.4594989999999999,-2.121999,0.11098599999999999,0.993813,0.004241,-0.015193,-0.022244999999999997,-0.010413,0.009223,0.007988,0.02324
557,1.613238,-1.459708,-2.117466,0.11076099999999998,0.993836,0.004704,-0.025795,-0.009415999999999999,-0.01264,0.0059229999999999994,-0.004075,0.00259
558,1.6145200000000002,-1.459843,-2.115918,0.11062000000000001,0.993851,0.00484,0.005086,-0.015941,-0.006006,0.017279,-0.005478,-0.010699
559,1.6108149999999999,-1.459768,-2.119087,0.11071099999999999,0.993843,0.0044329999999999994,0.024916999999999998,-0.033224000000000004,0.008708,0.029302999999999996,-0.004417,-0.0037310000000000004
560,1.606796,-1.459439,-2.1225650000000003,0.11105599999999999,0.993806,0.004,0.015335,-0.01938,0.018237,0.01576,0.001448,0.024565
561,1.606859,-1.459156,-2.122493,0.11133499999999999,0.993775,0.004017,-0.007973000000000001,0.008433,0.009493000000000001,0.00953,0.004104,0.023235
562,1.608775,-1.4590370000000001,-2.120839,0.111445,0.993761,0.004235,-0.011116,0.015922,0.00412,-0.002696,0.0018899999999999998,0.009666
563,1.610149,-1.45894,-2.119591,0.111534,0.993751,0.004391,-0.0047729999999999995,-6.6e-05,0.00098,-6.9e-05,-0.004722,-0.0040100000000000005
564,1.6088200000000001,-1.458887,-2.120562,0.11159200000000001,0.9937450000000001,0.0042450000000000005,0.015359000000000001,-0.028908,0.0032939999999999996,0.0051530000000000005,-0.005418,-0.004657
565,1.604891,-1.458812,-2.12384,0.11168199999999999,0.9937360000000001,0.0038090000000000003,0.017478,-0.032111,0.0033130000000000004,0.0173,0.003532,0.012457
566,1.604473,-1.4588709999999998,-2.123898,0.111625,0.993743,0.003761,-0.007978,-0.007486,-0.005442,0.011742,0.0029460000000000003,0.023324
567,1.6079860000000001,-1.459088,-2.120523,0.11139500000000001,0.993767,0.004145,-0.018808000000000002,0.013906,-0.014438999999999999,0.008264,0.000572,0.017019
568,1.611092,-1.459422,-2.117623,0.111051,0.9938040000000001,0.004477,-0.015622,0.006455,-0.018680000000000002,0.0060149999999999995,0.000992,0.011316
569,1.613544,-1.4597149999999999,-2.115057,0.110749,0.9938370000000001,0.004737,-0.012512,-0.010613,-0.015432,-0.0018620000000000002,-0.000886,0.005074
570,1.615178,-1.460062,-2.113023,0.110398,0.993875,0.004903,-0.005072999999999999,-0.022336,-0.020706,-0.003144,0.000677,0.004405
571,1.615106,-1.46046,-2.1126009999999997,0.11000399999999999,0.993919,0.004877,0.0013039999999999998,-0.026624000000000002,-0.019588,0.01344,-0.001274,0.0069180000000000005
572,1.61535,-1.460734,-2.111889,0.10973,0.993949,0.0048920000000000005,-0.005097,-0.019174,-0.012165,0.020321000000000002,0.0016870000000000001,0.018774000000000002
573,1.617879,-1.460977,-2.109138,0.109476,0.993976,0.005158,-0.016751,-0.005268,-0.016537,0.013602000000000001,0.00253,0.019119
574,1.621224,-1.461298,-2.105829,0.10914000000000001,0.9940110000000001,0.005508,-0.018188,0.0064010000000000004,-0.017069,0.006034,0.0015789999999999999,0.014145
575,1.624335,-1.461603,-2.1028290000000003,0.10882,0.994044,0.005832,-0.011791,0.006374,-0.015956,0.002691,0.000279,0.010098000000000001
576,1.625613,-1.46185,-2.1015919999999997,0.10856500000000001,0.9940709999999999,0.005957,-0.001185,-0.001146,-0.009463,0.00525,-0.002509,0.006737999999999999
577,1.62656,-1.462024,-2.100563,0.10838800000000001,0.9940899999999999,0.00605,-0.006523999999999999,-0.006436,-0.013766999999999998,0.002574,0.000401,0.014244
578,1.6294389999999999,-1.462274,-2.09748,0.108124,0.994117,0.0063479999999999995,-0.020403,-0.009579,-0.014928,0.002105,0.001748,0.021911
579,1.633943,-1.462525,-2.092753,0.10784500000000001,0.994144,0.0068189999999999995,-0.024669999999999997,-0.009564,-0.014958,-0.003597,0.004192,0.015871
580,1.637429,-1.4627709999999998,-2.0888880000000003,0.107576,0.9941709999999999,0.0071790000000000005,-0.014074000000000001,-0.023459,-0.012729,0.0041329999999999995,-0.003143,0.0037159999999999997
581,1.63799,-1.4629299999999998,-2.087724,0.10741500000000001,0.994188,0.007229000000000001,-0.001343,-0.030994,-0.004085,0.008062999999999999,-0.0019399999999999999,0.0031780000000000003
582,1.637146,-1.462955,-2.0879369999999997,0.107394,0.9941909999999999,0.007136,0.00502,-0.032112,0.003438,0.012676999999999999,-0.001408,0.010473
583,1.635903,-1.462918,-2.088706,0.107438,0.994187,0.007005,0.002574,-0.018054,0.000865,0.014327000000000001,-0.00029,0.022246000000000002
584,1.6378,-1.46297,-2.086696,0.10737100000000001,0.994192,0.007205,-0.020782,0.001228,-0.005732,0.013387,0.003855,0.023389
585,1.643737,-1.463162,-2.080839,0.10713800000000001,0.9942129999999999,0.007829000000000001,-0.031383,0.008752,-0.013293000000000001,0.010232999999999999,0.006687,0.016677
586,1.6489610000000001,-1.463423,-2.075913,0.10683800000000002,0.9942409999999999,0.008368,-0.017437,0.020443,-0.018552000000000003,0.002843,0.005179,0.0072109999999999995
587,1.650434,-1.4637,-2.074698,0.10655099999999999,0.9942709999999999,0.008503,0.000603,0.006501000000000001,-0.01093,0.005067,0.001258,0.004192
588,1.649919,-1.463714,-2.075154,0.10654300000000001,0.9942719999999999,0.008448,0.0058130000000000005,-0.008482,0.0019440000000000002,0.007318000000000001,-0.005915,0.01383
589,1.6496819999999999,-1.4636639999999999,-2.075066,0.10659300000000001,0.994267,0.008426000000000001,-0.003841,-0.022289,-0.000242,0.011709,-0.004536,0.019207
590,1.6521169999999998,-1.4635989999999999,-2.072136,0.10663900000000001,0.99426,0.008690999999999999,-0.023059,-0.022234999999999998,0.0028280000000000002,0.016683,-0.000669,0.023856
591,1.656737,-1.463425,-2.067289,0.106769,0.9942409999999999,0.009198,-0.026458999999999996,-0.00055,0.0068709999999999995,0.014584,0.004645000000000001,0.012728
592,1.6598419999999998,-1.463303,-2.0644169999999997,0.10686,0.9942280000000001,0.009541,-0.007154000000000001,0.018571,0.003776,0.009747,0.004688,0.005352
593,1.660322,-1.463262,-2.06434,0.106898,0.994224,0.009595999999999999,0.000323,0.018553,0.0016920000000000001,0.005864,0.002938,0.015169
594,1.662608,-1.463257,-2.062334,0.10687999999999999,0.994223,0.009840999999999999,-0.016756,0.010116,-0.0048259999999999996,0.0038829999999999997,0.00271,0.017869
595,1.666664,-1.463331,-2.058435,0.106767,0.994231,0.010267,-0.018875,0.009076,-0.009112,-0.010423,-0.001632,0.013567
596,1.670161,-1.463519,-2.055005,0.106544,0.994251,0.010622,-0.015704,0.000551,-0.011215000000000001,-0.011909000000000001,-0.00038500000000000003,0.01248
597,1.6722580000000002,-1.463644,-2.052742,0.106398,0.994265,0.010833,-0.007259999999999999,-0.014413999999999998,-0.005796,0.00081,-0.003725,0.011842
598,1.672873,-1.4636120000000001,-2.051886,0.106421,0.9942610000000001,0.010901000000000001,-0.00316,-0.005573,0.000509,4e-05,0.0052049999999999996,0.016687
599,1.673914,-1.463638,-2.05087,0.106385,0.9942639999999999,0.011009,-0.006289,0.007234,-0.0027329999999999998,-0.000123,0.004118999999999999,0.017937
600,1.676072,-1.463806,-2.0489490000000004,0.10619400000000001,0.994282,0.011221,-0.009413,0.015801,-0.011312000000000001,-0.0022670000000000004,-0.001118,0.021172999999999997
601,1.678605,-1.464105,-2.04685,0.105871,0.9943139999999999,0.011458,-0.008269,0.026476,-0.017727,-0.0055899999999999995,0.002497,0.019731
602,1.680957,-1.46448,-2.045082,0.105475,0.9943540000000001,0.011666,-0.006111,0.030733999999999997,-0.018786,-0.004111,0.004319,0.017005000000000003
603,1.683605,-1.464857,-2.043013,0.10506800000000001,0.994394,0.011903,-0.007193000000000001,0.025419999999999998,-0.020923,-0.0021620000000000003,0.004065,0.010145999999999999
604,1.6855900000000001,-1.465247,-2.0413959999999998,0.10465899999999999,0.9944350000000001,0.012067,-0.000849,0.013675,-0.019795,0.000535,-0.005497,0.0077540000000000005
605,1.686009,-1.465519,-2.041254,0.10438599999999999,0.9944639999999999,0.01208,0.00016999999999999999,0.013628999999999999,-0.009106,0.005111,-0.0012230000000000001,0.018941
606,1.68865,-1.4656,-2.038934,0.104274,0.9944719999999999,0.012346,-0.015833,0.017929,-0.00495,0.003804,0.001912,0.022244999999999997
607,1.691988,-1.465731,-2.035854,0.104101,0.9944860000000001,0.012678,-0.010549,0.010805,-0.006959,0.006174,0.000647,0.012743
608,1.6938849999999999,-1.465876,-2.034132,0.103934,0.994501,0.012858000000000001,-0.007343000000000001,0.009737,-0.009072,-0.001334,0.002829,0.013479
609,1.696757,-1.4661170000000001,-2.031561,0.10365999999999999,0.994526,0.013127000000000002,-0.011549,0.016174,-0.016587,-0.0037,0.004589,0.011576999999999999
610,1.6994799999999999,-1.466373,-2.029068,0.10337,0.994553,0.013375999999999999,-0.009463,0.011879,-0.010157,0.010369,0.004043,0.012334999999999999
611,1.702446,-1.466435,-2.026551,0.103269,0.994559,0.013674,-0.013677000000000002,0.028917,-0.004867,0.00873,-0.0008759999999999999,0.017972
612,1.7044290000000002,-1.466515,-2.025086,0.10316199999999999,0.994568,0.013868,-0.000909,0.022477,-0.0037020000000000004,0.007022,-0.006072999999999999,0.012284999999999999
613,1.7045029999999999,-1.466603,-2.025456,0.103072,0.994577,0.013863999999999998,0.0033590000000000004,0.022462,-0.003672,-0.0073230000000000005,-0.003747,0.011725
614,1.7053490000000002,-1.466744,-2.025039,0.102923,0.994591,0.013933000000000001,-0.0019760000000000003,0.017175,-0.009044,-0.009066,-0.0014730000000000001,0.020186000000000003
615,1.7071049999999999,-1.466903,-2.023427,0.102744,0.994608,0.014091999999999999,-0.007367,0.004411,-0.009065,0.000589,-1e-05,0.020911000000000003
616,1.709623,-1.467109,-2.021064,0.102506,0.9946290000000001,0.014322999999999999,-0.011467,0.010128,-0.016397,0.0014529999999999999,0.007019,0.018926
617,1.711472,-1.46747,-2.019272,0.102124,0.994667,0.014462000000000001,-0.00298,-0.002677,-0.018458000000000002,0.007509999999999999,0.001214,0.014438
618,1.713163,-1.467792,-2.017471,0.10178200000000001,0.9947,0.014588999999999998,-0.0072569999999999996,-0.00267,-0.016350999999999997,0.0050149999999999995,0.001592,0.016142
619,1.71623,-1.468113,-2.0143619999999998,0.10142000000000001,0.994733,0.014855000000000002,-0.013647999999999999,-0.00264,-0.018532,0.0036829999999999996,0.002032,0.015907
620,1.718433,-1.4684110000000001,-2.011963,0.10109299999999999,0.994763,0.015034,-0.005171,-0.011209,-0.014188999999999998,0.009747,-0.003339,0.014461000000000002
621,1.7198229999999999,-1.468659,-2.0103560000000003,0.100828,0.9947879999999999,0.015137999999999999,-0.006222999999999999,-0.008009,-0.014200999999999998,0.006426,0.000664,0.02104
622,1.7207810000000001,-1.46881,-2.009223,0.100664,0.9948040000000001,0.015212,-0.003934,-0.007778,-0.005461,0.00659,-0.001274,0.01735
623,1.721121,-1.468859,-2.008874,0.10061200000000001,0.994809,0.015238999999999999,0.0025,0.001779,-0.0032920000000000002,0.002873,-0.001141,0.010440999999999999
624,1.720189,-1.468915,-2.009761,0.10057100000000001,0.994815,0.015137000000000001,0.0077870000000000005,-0.00677,-0.0011070000000000001,0.007034,-0.0036340000000000005,0.010329999999999999
625,1.718718,-1.46891,-2.0109369999999998,0.1006,0.994814,0.01499,0.005596,-0.017424000000000002,0.001027,0.012147,-0.002215,0.01719
626,1.7188419999999998,-1.46891,-2.010523,0.100597,0.994814,0.015003,-0.00502,-0.009913,-0.003329,0.004947999999999999,0.00688,0.020718
627,1.7205279999999998,-1.469034,-2.008814,0.100448,0.994827,0.015153999999999999,-0.006006,0.002895,-0.008694,0.003953,0.003266,0.009276000000000001
628,1.721453,-1.469174,-2.007924,0.10029400000000001,0.994841,0.015225,-0.000695,-0.000328,-0.006516,0.00255,-0.0007,0.007465
629,1.7207439999999998,-1.469222,-2.0084619999999997,0.100256,0.9948459999999999,0.015147,0.004553,-0.013155000000000002,-5.4000000000000005e-05,0.0036409999999999997,-0.0006900000000000001,0.009542
630,1.719523,-1.4692450000000001,-2.009287,0.100254,0.994848,0.015021000000000001,0.0077150000000000005,-0.023809999999999998,-0.002154,0.0010949999999999998,-0.004782,0.012994
631,1.7182279999999999,-1.469317,-2.0100569999999998,0.100201,0.9948549999999999,0.014881,0.003698,-0.025783999999999998,-0.003094,0.0025210000000000002,0.000857,0.018124
632,1.7188560000000002,-1.4693969999999998,-2.008941,0.100113,0.994864,0.014931999999999999,-0.007999,-0.020404,-0.0063880000000000004,0.010346,0.0049380000000000005,0.016593
633,1.7194099999999999,-1.4694209999999999,-2.00809,0.100079,0.994866,0.014984,0.002684,-0.010879999999999999,8.4e-05,0.012073,-0.0047079999999999995,0.009049
634,1.717485,-1.469417,-2.009978,0.100114,0.994866,0.014792,0.012338,0.000805,0.00013700000000000002,0.004027,0.00106,0.01153
635,1.716643,-1.469486,-2.010739,0.10005700000000001,0.994873,0.014697,-0.001564,-0.010848,-0.004219,0.000391,0.001374,0.015378
636,1.718075,-1.469596,-2.008887,0.09992899999999999,0.994884,0.014825,-0.008018,-0.025726,-0.007449,0.003358,0.005528,0.014823
637,1.7194330000000002,-1.469626,-2.007012,0.099879,0.9948870000000001,0.014956,-0.0091,-0.021491,1.4999999999999999e-05,0.0074659999999999995,0.002107,0.011533
638,1.719746,-1.46953,-2.006467,0.099971,0.994877,0.015002000000000001,0.0026739999999999997,-0.006644,0.006488,0.002278,-0.008045,0.002271
639,1.717082,-1.469466,-2.009042,0.100074,0.99487,0.014745,0.016802,-0.0067670000000000004,0.004684000000000001,0.004479,-0.006940000000000001,0.005168
640,1.714435,-1.469543,-2.011473,0.100037,0.994878,0.014469,0.008272,-0.018404,-0.008179,0.001358,0.001704,0.020062
641,1.7148310000000002,-1.469681,-2.010532,0.099895,0.994892,0.014488999999999998,-0.009913,-0.028993,-0.008293,0.005345,0.011364,0.024208
642,1.7187080000000001,-1.469791,-2.006246,0.099728,0.9949030000000001,0.014859,-0.023706,-0.012962000000000001,-0.009478,0.002781,0.008270999999999999,0.0152
643,1.721469,-1.469958,-2.003361,0.099522,0.99492,0.01511,-0.004454,-0.004497999999999999,-0.011491,0.004924,-0.006959,-0.002949
644,1.7201419999999998,-1.470223,-2.004443,0.09928300000000001,0.9949469999999999,0.014939,0.011486,-0.018402,-0.011361,0.011328,-0.002378,0.0046229999999999995
645,1.7189830000000001,-1.470404,-2.00516,0.099123,0.994965,0.014797,-0.000283,-0.021574,-0.007167,0.012434,0.000213,0.014194
646,1.719702,-1.470488,-2.004121,0.099031,0.994973,0.014856,-0.0021550000000000002,-0.012240000000000001,-0.001599,0.015105,0.000174,0.014394999999999998
647,1.719732,-1.470481,-2.003977,0.099039,0.994973,0.014861000000000001,-0.00105,-0.00266,-0.000535,0.011526,-0.003182,0.015092
648,1.7203709999999999,-1.470474,-2.003279,0.099036,0.994972,0.014925,-0.005308,-0.000515,-0.0005679999999999999,0.0046170000000000004,0.001702,0.016386
649,1.7219470000000001,-1.470413,-2.001806,0.09907,0.994966,0.015090000000000001,-0.006336,0.010133,0.0015480000000000001,0.002187,0.001738,0.012208
650,1.722048,-1.470352,-2.001851,0.099129,0.9949600000000001,0.015109000000000001,0.005361,0.0026309999999999997,0.002707,0.005195,-0.0032450000000000005,0.003843
651,1.720018,-1.4702819999999999,-2.003748,0.09923,0.9949530000000001,0.014918,0.009551,-0.012306000000000001,0.0048920000000000005,0.009626000000000001,-0.005649,0.012059
652,1.719368,-1.470215,-2.004094,0.099307,0.9949459999999999,0.014863999999999999,-0.003246,-0.013318,0.002668,0.0032170000000000002,0.005832,0.02072
653,1.7214310000000002,-1.470184,-2.00189,0.099303,0.994943,0.015073,-0.010647,-0.002623,-0.0016710000000000002,0.000459,0.001303,0.008197
654,1.721325,-1.470191,-2.00197,0.099297,0.994944,0.015061000000000001,0.006418000000000001,-0.001626,0.000584,-0.000207,-0.002222,0.0034020000000000005
655,1.7191720000000001,-1.470209,-2.004059,0.099311,0.9949450000000001,0.014844,0.011958,-0.00607,-0.0012109999999999998,0.002373,-0.003658,0.010454999999999999
656,1.7180520000000001,-1.470321,-2.005077,0.099218,0.994957,0.014717,0.003457,-0.004949,-0.007681,-0.001425,0.004143,0.020850999999999998
657,1.719789,-1.470488,-2.003268,0.09902899999999999,0.994973,0.014865,-0.012527,-0.002754,-0.009932,0.00021400000000000002,0.0082,0.017286000000000003
658,1.723026,-1.470621,-2.000044,0.098852,0.9949870000000001,0.015165999999999999,-0.013580000000000002,0.003628,-0.006743000000000001,0.006022,0.0021899999999999997,0.012819
659,1.7240349999999998,-1.4706860000000002,-1.999168,0.098773,0.994993,0.015256,0.0034950000000000003,0.007817000000000001,-0.003425,-0.00072,-0.004286,0.006793
660,1.722643,-1.4708,-2.000832,0.098682,0.9950040000000001,0.015101,0.00993,0.014190000000000001,-0.004456,-0.001285,0.002432,0.009451000000000001
661,1.721481,-1.470832,-2.002189,0.098669,0.995008,0.014981,0.006648,0.00458,0.004079,0.001062,0.00041500000000000006,0.009433
662,1.720682,-1.470681,-2.002998,0.098829,0.994993,0.014925,0.004476,0.00031,0.008342,0.006945000000000001,-0.004194,0.01251
663,1.719587,-1.470546,-2.004228,0.098977,0.9949790000000001,0.014836000000000002,0.0023989999999999997,0.012039,0.007244,0.008659,0.000596,0.016658000000000003
664,1.721226,-1.4703979999999999,-2.002973,0.099098,0.994964,0.015021000000000001,-0.012331,0.024867,0.005232,0.003914,0.00528,0.019479
665,1.7231040000000002,-1.47031,-2.001583,0.09915399999999999,0.994956,0.01522,0.000466,0.021634999999999998,0.0031899999999999997,-0.000308,-0.001425,-0.00041900000000000005
666,1.720916,-1.470284,-2.003836,0.099212,0.9949530000000001,0.015007,0.016321000000000002,-0.010383,0.00441,0.0036009999999999996,-0.002781,-0.0030440000000000003
667,1.7180849999999999,-1.470158,-2.0062189999999998,0.09938,0.9949399999999999,0.014744,0.007679999999999999,-0.028484,0.009714,0.008942,-0.0025239999999999998,0.006876999999999999
668,1.716811,-1.469947,-2.006893,0.099603,0.994919,0.014648,0.001265,-0.029536,0.011807,0.018956999999999998,0.0008699999999999999,0.012955000000000001
669,1.716525,-1.469717,-2.00676,0.099834,0.9948959999999999,0.014653,-0.005055,-0.011404000000000001,0.011739,0.017353,0.001198,0.011333
670,1.7182490000000001,-1.469565,-2.005075,0.099957,0.9948799999999999,0.014846999999999999,-0.010269,0.008879999999999999,0.005267,0.008289,0.003746,0.008468999999999999
671,1.719538,-1.469452,-2.004078,0.10005,0.994869,0.014991999999999998,-0.001623,0.015394999999999999,0.0033659999999999996,0.012284999999999999,0.00043099999999999996,0.007286
672,1.718969,-1.469381,-2.0048470000000003,0.100128,0.9948620000000001,0.014946000000000001,0.005807,0.005786,0.002362,0.008042,-0.002751,0.011681
673,1.719007,-1.469291,-2.004745,0.100216,0.9948530000000001,0.014962999999999999,-0.005982,-0.0058909999999999995,0.0022949999999999997,0.004963,0.00266,0.021429
674,1.721768,-1.46925,-2.0019720000000003,0.100215,0.994849,0.015246000000000001,-0.015521,0.003747,-0.0020570000000000002,-0.0019329999999999998,0.000848,0.019071
675,1.724316,-1.469183,-1.9996169999999998,0.10024,0.994842,0.015511000000000002,-0.008034,0.013287,0.003324,-0.00024900000000000004,-0.005325,0.008476000000000001
676,1.723573,-1.469063,-2.000597,0.10037,0.9948299999999999,0.015455000000000002,0.013250999999999999,0.007859999999999999,0.009889,0.010058,-0.00606,0.005129
677,1.719438,-1.468776,-2.00467,0.100714,0.9948,0.015082,0.021651,-0.012448,0.019588,0.014154,-0.0073739999999999995,0.010614
678,1.715616,-1.468367,-2.008245,0.101174,0.9947590000000001,0.014755,0.012034999999999999,-0.011366,0.023791999999999997,0.011558,0.001182,0.019867
679,1.7144549999999998,-1.467958,-2.009334,0.101595,0.994717,0.014696,-0.00275,0.001744,0.018507,0.013517,0.008533,0.025495
680,1.7171919999999998,-1.4676879999999999,-2.006878,0.10182100000000001,0.9946889999999999,0.015013,-0.018604,0.022091,0.0055509999999999995,0.014024000000000002,0.007844,0.018052000000000002
681,1.721081,-1.4676280000000002,-2.0036709999999998,0.101822,0.994683,0.015419,-0.012073,0.041282,-0.0040420000000000005,0.004471,0.003181,0.004158
682,1.7231189999999998,-1.46773,-2.002277,0.10169199999999999,0.994693,0.015611000000000002,-0.00041500000000000006,0.021013999999999998,-0.007139,0.0026320000000000002,-0.007648,0.004988
683,1.7229759999999998,-1.467768,-2.0024029999999997,0.101656,0.9946969999999999,0.015590000000000001,0.001542,-0.012042,-0.000674,0.005598,-0.00402,0.015324
684,1.7231509999999999,-1.467629,-2.001889,0.10178999999999999,0.994683,0.015629,-0.008118,-0.016304,0.007809999999999999,0.007494,0.0041270000000000005,0.017863999999999998
685,1.724375,-1.4673829999999999,-2.000492,0.102011,0.994658,0.015791,-0.005940999999999999,-0.004602,0.009947,0.006906,0.000231,0.018694
686,1.724998,-1.467147,-2.0000240000000002,0.10223600000000001,0.994633,0.015891,-0.004778,0.016699000000000002,0.009928,0.004164,0.0034439999999999996,0.015832
687,1.726205,-1.467014,-1.9993419999999997,0.10234700000000001,0.994619,0.016035,-0.00038500000000000003,0.028656,0.002581,0.002084,-0.0010429999999999999,0.015397999999999998
688,1.7256610000000001,-1.4669780000000001,-2.000416,0.102392,0.994616,0.015985,0.010264,0.022234999999999998,0.0005269999999999999,0.002344,-0.0036490000000000003,0.016501
689,1.7245099999999998,-1.466962,-2.0018569999999998,0.102427,0.9946139999999999,0.01587,0.003815,0.011604999999999999,0.000496,-0.003215,-0.001603,0.017471
690,1.7262060000000001,-1.466992,-2.0003509999999998,0.10237,0.994617,0.016038999999999998,-0.008976999999999999,0.008475,-0.0049299999999999995,-0.014205,0.003674,0.023146
691,1.7281380000000002,-1.467034,-1.998503,0.102296,0.9946219999999999,0.01623,-0.005825,0.002055,-0.000627,-0.003389,-0.0009390000000000001,0.014256999999999999
692,1.727761,-1.466991,-1.9988720000000002,0.102345,0.994617,0.016198,0.006934,-0.0022719999999999997,0.004808,0.003947,-0.002216,0.010917
693,1.72485,-1.466957,-2.001651,0.102425,0.9946139999999999,0.015905000000000002,0.016498,-0.010827,0.004886,0.017661000000000003,-0.001572,0.014338
694,1.723359,-1.466906,-2.002885,0.102499,0.994608,0.01576,-0.000529,-0.010634999999999999,0.000587,0.006022,0.002813,0.025668
695,1.7248439999999998,-1.467091,-2.0013650000000003,0.10229400000000001,0.994627,0.015884,-0.006795999999999999,0.0033,-0.015498,-0.004332,0.006914,0.022156
696,1.727111,-1.4673889999999998,-1.9991869999999998,0.101963,0.994658,0.016069,-0.009983,0.008629000000000001,-0.013391,0.00787,0.004243,0.015226
697,1.72937,-1.467496,-1.997218,0.10182100000000001,0.994669,0.016283000000000002,-0.004639,0.019229,-0.004821,0.009462,-0.000529,0.009718000000000001
698,1.727094,-1.467462,-1.9998150000000001,0.101892,0.9946659999999999,0.016056,0.028348,0.012671,0.008236,0.023367,-0.010581,-0.002064
699,1.721426,-1.46725,-2.00572,0.10219199999999999,0.9946440000000001,0.015511000000000002,0.022966,0.010525,0.016747,0.016751,-0.000183,0.016395
700,1.7207290000000002,-1.466987,-2.00671,0.102461,0.994617,0.015478,-0.003653,0.017031,0.011212,0.006792,0.0048649999999999995,0.020685
701,1.721825,-1.466819,-2.0060290000000003,0.10260799999999999,0.994599,0.015616,-0.0004,0.023433000000000002,0.0058850000000000005,0.007209999999999999,-0.000825,0.007242
702,1.7208009999999998,-1.466701,-2.007593,0.10274000000000001,0.9945870000000001,0.015528,0.010293,0.028722,0.005953,-0.00098,0.001995,0.007741
703,1.719193,-1.4666139999999999,-2.00985,0.102851,0.9945780000000001,0.015375999999999999,0.012444,0.030938,0.002752,0.0012439999999999999,0.0028280000000000002,0.008870000000000001
704,1.7167299999999999,-1.4665700000000002,-2.012818,0.102933,0.9945729999999999,0.015128999999999998,0.017726,0.021324,0.0049380000000000005,0.014972,-0.0056359999999999995,0.012184
705,1.714534,-1.466429,-2.01538,0.103104,0.994559,0.014922999999999999,0.007004000000000001,0.014948,0.010212,0.017425,-0.004889,0.014922999999999999
706,1.7151040000000002,-1.466143,-2.0151220000000003,0.103378,0.9945290000000001,0.015022999999999998,-0.006875,0.01711,0.014385,0.014236000000000002,-0.0022649999999999997,0.018287
707,1.7161689999999998,-1.465912,-2.014509,0.10358699999999998,0.994505,0.015165999999999999,-0.00040599999999999995,0.026695999999999998,0.009077,-0.008265999999999999,0.006197,0.004915
708,1.71462,-1.465877,-2.016668,0.103645,0.994501,0.015009999999999999,0.016711,0.028801,0.000648,-0.006248,0.002234,0.007878
709,1.7110560000000001,-1.465868,-2.020715,0.10370499999999999,0.9945,0.014641999999999999,0.019864,0.02026,0.002817,-0.001227,0.001182,0.009420999999999999
710,1.710407,-1.465839,-2.0217099999999997,0.103744,0.994497,0.014579,-0.0014880000000000002,0.013955,-0.000528,0.005998,-0.000509,0.015954
711,1.711777,-1.465817,-2.020511,0.103747,0.994495,0.014724000000000001,-0.007932999999999999,0.005471,0.001485,0.008298,-0.00629,0.012559
712,1.7142549999999999,-1.465803,-2.017976,0.10372200000000001,0.9944930000000001,0.014983000000000002,-0.016516,-0.010457,-0.003896,0.007408,-0.001924,0.01317
713,1.716725,-1.465809,-2.015237,0.103679,0.9944940000000001,0.015238,-0.009053,-0.009427,-0.001709,0.003621,0.0038729999999999997,0.004614
714,1.715373,-1.465865,-2.01662,0.103646,0.9945,0.015090000000000001,0.019824,0.006451999999999999,-0.001527,0.008962999999999999,-0.001443,0.001603
715,1.710994,-1.465867,-2.021157,0.103709,0.9945,0.014636000000000001,0.023006,0.008545,0.004901,0.017004,-0.004601,0.020078
716,1.709583,-1.4658069999999999,-2.022775,0.10378699999999999,0.9944940000000001,0.014497,-0.00045099999999999996,0.009701000000000001,0.0026,0.009936,-0.000155,0.023558000000000003
717,1.7119060000000001,-1.465816,-2.020581,0.103747,0.994495,0.014738,-0.015378,0.004457,-0.004975,0.0024850000000000002,0.006543000000000001,0.019076
718,1.715169,-1.465878,-2.017423,0.10363800000000001,0.994501,0.015066999999999999,-0.013197,0.005446,-0.008288,0.0035399999999999997,0.00040300000000000004,0.008584
719,1.7158220000000002,-1.465969,-2.016812,0.10353599999999999,0.994511,0.015121,0.0048909999999999995,-0.001026,-0.0038799999999999998,0.0008039999999999999,-0.002827,0.003571
720,1.713544,-1.466001,-2.018884,0.103539,0.9945139999999999,0.014881,0.012268000000000001,-0.017048,0.000465,0.001198,-0.0070409999999999995,0.0052450000000000005
721,1.711587,-1.466013,-2.0203740000000003,0.103555,0.9945149999999999,0.014677,0.007962,-0.026616,-0.000621,0.008459999999999999,0.001594,0.020617
722,1.711788,-1.466049,-2.0196169999999998,0.10351800000000001,0.994519,0.014693000000000001,-0.010154999999999999,-0.024413999999999998,-0.0028870000000000002,0.014584999999999999,0.002338,0.020235
723,1.714689,-1.466072,-2.0165450000000003,0.103453,0.9945209999999999,0.01499,-0.017488999999999998,0.004378,-0.004043,0.010805,0.003999,0.021296000000000002
724,1.7169439999999998,-1.466228,-2.014576,0.10326600000000001,0.9945379999999999,0.015201,-0.001395,0.019258,-0.009290999999999999,0.0071010000000000005,0.001266,0.005338
725,1.716894,-1.466415,-2.015,0.103084,0.994557,0.015168000000000001,0.004978,0.013905,-0.008171,0.001149,-0.002339,0.00981
726,1.715991,-1.466502,-2.015991,0.10300899999999999,0.994566,0.015062,0.005944,-0.002104,-0.0017350000000000002,0.001605,-0.0050030000000000005,0.012586
727,1.71521,-1.466504,-2.016489,0.10302,0.994566,0.014981999999999999,0.002679,-0.01926,-0.0007559999999999999,0.003288,-0.005019,0.01546
728,1.715483,-1.466495,-2.015772,0.10302599999999999,0.994566,0.015011000000000002,-0.007999,-0.020291999999999998,0.000239,0.006334,0.003558,0.018909
729,1.7176200000000001,-1.46655,-2.013452,0.10293900000000002,0.9945709999999999,0.015222999999999999,-0.008951,-0.002149,-0.007268000000000001,0.008343000000000001,0.0047420000000000006,0.016866
730,1.7188130000000001,-1.466685,-2.012449,0.102788,0.994585,0.015326,-0.000325,0.018061,-0.007234,0.009654000000000001,0.003095,0.013757
731,1.719327,-1.466942,-2.012368,0.102528,0.994612,0.015341999999999998,-0.000267,0.021296000000000002,-0.016852000000000002,0.003582,0.0025800000000000003,0.013359999999999999
732,1.7217580000000001,-1.467265,-2.010049,0.102171,0.9946450000000001,0.015541999999999999,-0.013184999999999999,-0.004226,-0.016909,0.008759999999999999,0.001174,0.019202
733,1.727391,-1.467454,-2.004364,0.101898,0.9946649999999999,0.016087999999999998,-0.033436,0.002228,-0.014922,-0.002792,0.005167000000000001,0.020655
734,1.7317060000000002,-1.46759,-2.000089,0.10169199999999999,0.9946790000000001,0.016506,-0.008931999999999999,0.002112,-0.007273000000000001,0.004692,-0.002949,0.004918
735,1.7303439999999999,-1.467601,-2.0014380000000003,0.10170499999999999,0.9946799999999999,0.016366,0.013346,-0.0024920000000000003,0.003482,0.005046,-0.004308,0.001182
736,1.727957,-1.4675120000000001,-2.003721,0.10183099999999999,0.9946709999999999,0.016137000000000002,0.009040000000000001,-0.007816,0.006663,0.007803,-0.000286,0.014288999999999998
737,1.726229,-1.4674260000000001,-2.005243,0.10194299999999999,0.994662,0.015974000000000002,0.00903,-0.013129,0.0034649999999999998,0.001268,-0.000933,0.016572999999999997
738,1.724546,-1.467339,-2.006581,0.10205499999999999,0.9946530000000001,0.015816,0.002591,-0.017385,0.007698999999999999,0.003795,0.00434,0.0214
739,1.725216,-1.4671969999999999,-2.005732,0.102184,0.9946379999999999,0.015906,-0.006925,-0.002421,0.0033399999999999997,-0.0032159999999999997,0.003134,0.012811000000000001
740,1.725496,-1.467069,-2.005561,0.102305,0.994625,0.015954,0.005925,0.01137,0.0066170000000000005,-0.005091,-0.0027890000000000002,0.01287
741,1.7227880000000002,-1.467,-2.008559,0.10241700000000001,0.994618,0.015687,0.018747,0.014525,0.005634,-0.004272,-0.004277,0.021849
742,1.7200380000000002,-1.4669459999999999,-2.0113790000000003,0.102513,0.994612,0.015413999999999999,0.011173,-0.006762000000000001,0.007745,-0.0024760000000000003,0.000123,0.025174000000000002
743,1.7194060000000002,-1.4668510000000001,-2.01157,0.10261500000000001,0.994603,0.015363,-0.003941,-0.030482,0.002209,-0.006194,0.002468,0.019366
744,1.720136,-1.4668219999999998,-2.010175,0.102631,0.9946,0.015441999999999999,-0.007137,-0.031528,5.1e-05,-0.005769,0.0015710000000000001,0.014159999999999999
745,1.720761,-1.4668940000000001,-2.008991,0.102551,0.994607,0.015494999999999998,-0.001754,-0.027260000000000003,-0.006326,0.002734,0.000998,0.006462000000000001
746,1.7203080000000002,-1.4669969999999999,-2.008897,0.10245699999999999,0.994618,0.015434,0.004637,-0.02623,-0.003078,0.010504000000000001,-0.0022010000000000003,0.008858
747,1.7182380000000002,-1.466995,-2.010453,0.10249000000000001,0.994618,0.015222,0.011009999999999999,-0.025217,0.004443,0.013431,-0.00018700000000000002,0.014440999999999999
748,1.715897,-1.466905,-2.012346,0.10261600000000001,0.994608,0.014995,0.007809,-0.022022999999999997,0.007620999999999999,0.016861,0.001302,0.02126
749,1.7152189999999998,-1.466683,-2.012747,0.102844,0.994585,0.014957,-0.0038740000000000003,-0.00602,0.011792,0.002991,0.001112,0.018566
750,1.7153200000000002,-1.466452,-2.0126560000000002,0.10306900000000001,0.994561,0.015,0.001518,0.0046229999999999995,0.009679,-0.002605,-0.001916,0.011489
751,1.7137490000000002,-1.4662819999999999,-2.014199,0.10325899999999999,0.9945430000000001,0.014862,0.010990999999999999,-0.006338,0.008620000000000001,0.002088,-0.002096,0.008773
752,1.7106810000000001,-1.466062,-2.017016,0.103522,0.9945200000000001,0.014575999999999999,0.014119999999999999,-0.017024,0.013996999999999999,0.0035329999999999997,-0.0016769999999999999,0.012126000000000001
753,1.7073669999999999,-1.46581,-2.0200139999999998,0.10381900000000001,0.9944940000000001,0.014266999999999998,0.014124000000000001,-0.014897,0.015062,0.007967,0.00279,0.014968
754,1.7051049999999999,-1.465596,-2.022144,0.10406099999999999,0.9944719999999999,0.014061,0.0078049999999999994,5.2000000000000004e-05,0.011793999999999999,0.012135,0.0026899999999999997,0.018119999999999997
755,1.703486,-1.465437,-2.023893,0.10423900000000001,0.994455,0.013913,0.008929000000000001,0.008587000000000001,0.007518,0.011406999999999999,0.00202,0.009066
756,1.7018790000000001,-1.465278,-2.025702,0.10441800000000001,0.9944379999999999,0.013766,0.006790999999999999,0.009651,0.009639,0.011228,0.002037,0.009212999999999999
757,1.701154,-1.465114,-2.0265779999999998,0.10458900000000002,0.9944209999999999,0.013712,0.005714,0.006462999999999999,0.008567,0.007014,-0.000692,0.002798
758,1.698702,-1.46492,-2.0290880000000002,0.10480999999999999,0.9944,0.013479,0.019531,-0.001059,0.012946000000000001,0.019153,0.004409000000000001,0.008921
759,1.6939490000000001,-1.4646350000000001,-2.033894,0.105155,0.9943700000000001,0.013016,0.021624,0.005169,0.019354,0.017754,0.00743,0.017897999999999997
760,1.6914189999999998,-1.464294,-2.036748,0.105524,0.994334,0.012791,0.007831999999999999,0.0212,0.018169,0.012762,0.0011949999999999999,0.019024
761,1.690812,-1.4639799999999998,-2.038,0.105842,0.994301,0.012764,0.004718,0.037203,0.014922,0.0032890000000000003,-0.004615,0.006508
762,1.6892770000000001,-1.463752,-2.0401689999999997,0.10608699999999999,0.994276,0.012628,0.015343,0.023334999999999998,0.010740999999999999,0.000373,-0.006666,0.006094
763,1.6857080000000002,-1.4635,-2.0439130000000003,0.10638,0.9942489999999999,0.012278,0.017352,-0.001187,0.013991,-0.001644,-0.003786,0.01212
764,1.6828439999999998,-1.463266,-2.046643,0.106646,0.994224,0.012,0.013075,-0.008607,0.00863,-0.004077,-7.000000000000001e-06,0.015588
765,1.6808509999999999,-1.463136,-2.048485,0.106798,0.99421,0.011801,0.003493,-0.006435,0.006423999999999999,0.004529999999999999,0.007392,0.01896
766,1.6824,-1.463063,-2.046864,0.106849,0.994202,0.011974,-0.012436,-0.00325,-0.001094,0.004449,0.006561,0.013203
767,1.68335,-1.462996,-2.0456380000000003,0.106903,0.994195,0.012083,-0.001873,-0.018234999999999998,0.0075450000000000005,0.0077670000000000005,0.0044009999999999995,0.000154
768,1.682666,-1.462717,-2.045916,0.10718599999999999,0.994165,0.012041,0.004476,-0.021487,0.016138999999999997,0.002372,-0.004877,-0.001986
769,1.6796900000000001,-1.4624840000000001,-2.0485130000000003,0.10745199999999999,0.9941399999999999,0.011747,0.01945,-0.019383,0.009831999999999999,0.007325,-0.0061329999999999996,0.010836
770,1.675607,-1.4624540000000001,-2.0520959999999997,0.107527,0.994137,0.011311,0.01624,-0.029991000000000004,0.001277,0.0075239999999999994,0.00018700000000000002,0.021556
771,1.6747299999999998,-1.4623030000000001,-2.052516,0.10768699999999999,0.9941200000000001,0.011233,-0.009336,-0.015022,0.009625,0.008752,0.016073,0.030057999999999998
772,1.677927,-1.462213,-2.0493259999999998,0.10774,0.9941110000000001,0.011587,-0.014503,0.012731999999999999,-6.1e-05,-0.0057810000000000005,-0.005494,0.001795
773,1.6775259999999999,-1.462261,-2.050031,0.107699,0.994116,0.011539,0.014322,0.014771000000000001,-0.001998,-0.003375,-0.006536,0.002362
774,1.675079,-1.462315,-2.052627,0.107672,0.994122,0.011269,0.009973000000000001,-0.003324,-0.002006,-0.008108,-0.00259,0.019706
775,1.6750209999999999,-1.462351,-2.052231,0.10763800000000001,0.9941260000000001,0.011259,-0.006171,-0.03203,-0.000987,-0.0023829999999999997,0.006286,0.020097
776,1.677509,-1.4624110000000001,-2.049019,0.10755,0.994132,0.011521,-0.020006,-0.031952,-0.008561,-0.004767,0.000741,0.016677
