,attitude.roll,attitude.pitch,attitude.yaw,gravity.x,gravity.y,gravity.z,rotationRate.x,rotationRate.y,rotationRate.z,userAcceleration.x,userAcceleration.y,userAcceleration.z
0,-2.715557,-1.373262,-3.119469,-0.081088,0.980554,0.178675,-0.003005,-0.091072,0.0021739999999999997,-0.01318,0.000648,0.004598
1,-2.717346,-1.373349,-3.119614,-0.080734,0.9805709999999999,0.17874400000000001,-0.007205,-0.07614299999999999,0.0021260000000000003,-0.012115,0.004201,-0.006045
2,-2.718937,-1.373376,-3.120058,-0.08044,0.980576,0.178849,0.000368,-0.04849,0.006416,-0.012639,0.003967,-0.005967
3,-2.720637,-1.373359,-3.121111,-0.08014299999999999,0.9805719999999999,0.179002,-0.003822,-0.026125,0.011699,-0.015423,0.006152,-0.014894
4,-2.721136,-1.373623,-3.121475,-0.079948,0.9806239999999999,0.178805,0.020835,0.0036030000000000003,0.015038,-0.009056999999999999,0.004636,-0.02164
5,-2.720308,-1.374392,-3.1210419999999996,-0.079788,0.980775,0.178052,0.041181999999999996,0.024821,0.019426,-0.0023510000000000002,0.007781000000000001,-0.026685000000000004
6,-2.719332,-1.375542,-3.120731,-0.079499,0.9809979999999999,0.17694400000000002,0.067051,0.049261,0.027036,0.000611,0.005894,-0.004062
7,-2.714489,-1.3777760000000001,-3.117877,-0.079446,0.9814290000000001,0.174562,0.12814,0.11083299999999999,0.027382999999999998,-0.009009,0.00038199999999999996,-0.003007
8,-2.709003,-1.3802590000000001,-3.113737,-0.07937999999999999,0.9819030000000001,0.17190899999999998,0.120433,0.044864,0.014594999999999999,-0.007183,-0.00418,-0.0069
9,-2.7028630000000002,-1.382815,-3.108151,-0.079368,0.982383,0.16914400000000002,0.143894,0.034164,0.006227,0.00344,-0.0017929999999999999,-0.026810000000000004
10,-2.693778,-1.386209,-3.099786,-0.079456,0.9830120000000001,0.165409,0.204758,0.040364,0.001303,-0.007519,-0.0097,0.027676
11,-2.685747,-1.389022,-3.091841,-0.079563,0.983525,0.16228,0.10856800000000001,-0.001894,-0.003587,-0.014293,-0.01212,0.058957
12,-2.684952,-1.389114,-3.091171,-0.079653,0.983541,0.16213699999999998,-0.03221,0.020922,0.007151,0.012103000000000001,0.006022,0.017627
13,-2.687329,-1.3883860000000001,-3.094922,-0.079582,0.983409,0.162969,-0.059694000000000004,0.091271,0.020755000000000003,0.027656,0.007145,-0.017629
14,-2.691104,-1.387451,-3.101229,-0.07936599999999999,0.983239,0.16409400000000002,-0.061708000000000006,0.13488599999999998,0.037777,0.010854,0.0037600000000000003,-0.005556
15,-2.695334,-1.3864100000000001,-3.10819,-0.079112,0.983049,0.165351,-0.05004,0.11887,0.036811,-0.013387,0.007475,-0.010368
16,-2.698786,-1.385756,-3.113424,-0.078815,0.982929,0.166202,-0.033119,0.06775,0.018835,-0.027507999999999998,0.01054,-0.018604
17,-2.700036,-1.385574,-3.1159310000000002,-0.078684,0.9828950000000001,0.166463,-0.019197,0.065627,0.0050479999999999995,-0.015874,0.010208,-0.016912
18,-2.699785,-1.38554,-3.1174720000000002,-0.07874,0.9828889999999999,0.166472,-0.00837,0.10498699999999998,0.009346,-0.001491,0.005026,-0.011565
19,-2.698391,-1.385635,-3.118598,-0.078931,0.982907,0.166277,-0.0018679999999999999,0.133701,0.015764,0.002759,0.006077,-0.009096
20,-2.696313,-1.38581,-3.11927,-0.079202,0.9829389999999999,0.165955,-0.000801,0.134759,0.016838,0.003457,0.002703,0.000259
21,-2.694612,-1.385894,-3.1201849999999998,-0.079447,0.9829540000000001,0.165743,-0.00937,0.126271,0.015721000000000002,0.011743,-0.002501,0.010801
22,-2.694159,-1.3858469999999998,-3.122262,-0.079541,0.9829459999999999,0.165748,-0.020077,0.12203,0.019924,0.017102000000000003,0.000529,0.008843
23,-2.695021,-1.385574,-3.125375,-0.079513,0.9828950000000001,0.16605599999999998,-0.030836000000000002,0.099705,0.017741,0.009781,0.0054009999999999996,-0.0008640000000000001
24,-2.696078,-1.3851069999999999,-3.1280799999999997,-0.07953500000000001,0.982809,0.166553,-0.033070999999999996,0.06991499999999999,0.010286,0.008764,0.007379000000000001,-0.007449
25,-2.697511,-1.38471,-3.130958,-0.07946399999999999,0.982736,0.167021,-0.02345,0.076265,0.012482,0.011273,0.0017,-0.005765999999999999
26,-2.6990369999999997,-1.38447,-3.134394,-0.07931,0.982691,0.167354,-0.021230000000000002,0.10073700000000001,0.017807,-0.0028120000000000003,0.005956,-0.003536
27,-2.7001209999999998,-1.384235,-3.137526,-0.07922699999999999,0.982648,0.167647,-0.022316,0.098602,0.019939,-0.004956,0.005252000000000001,-0.009597
28,-2.700825,-1.384203,-3.140272,-0.079121,0.982642,0.167728,-0.009484999999999999,0.103887,0.018953,0.001484,0.007379000000000001,-0.007923000000000001
29,-2.700707,-1.384426,3.140768,-0.079046,0.982683,0.167519,0.002303,0.11556400000000001,0.019021,0.00588,0.006224,-0.0011070000000000001
30,-2.70013,-1.384693,3.139055,-0.07903099999999999,0.982733,0.167237,0.00549,0.111296,0.01798,0.007359999999999999,0.0048920000000000005,0.002639
31,-2.699049,-1.385019,3.137893,-0.079073,0.982793,0.16685899999999998,0.009757,0.11128099999999999,0.018009999999999998,0.003985,0.001887,0.0021780000000000002
32,-2.698064,-1.385419,3.136564,-0.079068,0.982867,0.166425,0.010848,0.118726,0.020145,0.00456,0.00025699999999999996,0.0072510000000000005
33,-2.6972650000000002,-1.385769,3.134836,-0.079052,0.982931,0.166049,0.007670999999999999,0.125124,0.021182,0.005902,0.000223,0.01045
34,-2.697238,-1.385941,3.1325369999999997,-0.078983,0.9829629999999999,0.165892,-0.004136,0.10706500000000001,0.018987,0.007205,-0.0035159999999999996,0.004915
35,-2.6973979999999997,-1.385999,3.130337,-0.078931,0.982973,0.16585,-0.002026,0.10067000000000001,0.017941,0.016019,-0.0033439999999999998,0.002195
36,-2.697235,-1.386095,3.1284110000000003,-0.078916,0.982991,0.165749,-0.002007,0.102809,0.015802,0.011335,0.001338,0.00843
37,-2.697291,-1.3860569999999999,3.126558,-0.078922,0.982984,0.165787,-0.009566,0.07622899999999999,0.009373999999999999,0.006077,-0.000532,0.007034
38,-2.697485,-1.385835,3.12509,-0.078984,0.982943,0.165999,-0.0128,0.061355999999999994,0.001893,0.013768,0.0005769999999999999,0.0018629999999999999
39,-2.697048,-1.385684,3.124273,-0.07912000000000001,0.982916,0.166099,-0.009590000000000001,0.062414,0.0008460000000000001,0.012562,0.000941,0.0009390000000000001
40,-2.696857,-1.385485,3.1233400000000002,-0.079237,0.9828790000000001,0.166262,-0.010705,0.051766,0.000852,0.010633,0.00116,0.001524
41,-2.6968959999999997,-1.385222,3.122432,-0.079342,0.98283,0.166499,-0.013958000000000002,0.037937,-0.0012900000000000001,0.015209,0.004047,-0.000117
42,-2.696726,-1.385061,3.121932,-0.079438,0.982801,0.166628,-0.007576,0.032592,-0.002306,0.016526,0.0025050000000000003,-0.001269
43,-2.6965790000000003,-1.3849719999999999,3.12153,-0.0795,0.982784,0.166695,-0.004409000000000001,0.025124,-0.002275,0.013857,0.005085,-0.0008470000000000001
44,-2.69656,-1.3848719999999999,3.121198,-0.079546,0.982766,0.166783,-0.005534000000000001,0.011284,-0.003333,0.012041,0.002723,-0.007542
45,-2.696724,-1.384808,3.120823,-0.079546,0.9827540000000001,0.166853,-0.0034049999999999996,0.011271999999999999,-0.00225,0.007540000000000001,0.003437,-0.003264
46,-2.696803,-1.384807,3.120551,-0.079533,0.9827540000000001,0.16685999999999998,-0.002348,0.008076999999999999,-0.003307,0.002247,0.0019420000000000001,-0.0035600000000000002
47,-2.6969950000000003,-1.384768,3.1203529999999997,-0.07951799999999999,0.9827469999999999,0.166911,-0.003462,-0.002572,-0.0033009999999999997,0.006169,0.002346,-0.0042369999999999994
48,-2.697121,-1.3847610000000001,3.120286,-0.0795,0.9827450000000001,0.166928,0.000796,-0.002595,-0.001135,0.009966,0.00195,-0.004376
49,-2.6969819999999998,-1.384843,3.120304,-0.079488,0.9827600000000001,0.16684300000000002,0.000863,0.011257,-0.0022199999999999998,-0.005579,0.010662999999999999,-0.004963
50,-2.696543,-1.384758,3.120805,-0.079598,0.9827450000000001,0.16688499999999998,-0.0034770000000000005,-0.011073000000000001,-0.008631,-0.002814,0.002439,-0.012802000000000001
51,-2.6955,-1.384842,3.1217919999999997,-0.079736,0.9827600000000001,0.166727,0.013859999999999999,0.018765999999999998,-0.007495999999999999,0.0016420000000000002,-0.002398,0.0049960000000000004
52,-2.6941740000000003,-1.385003,3.122603,-0.079888,0.9827899999999999,0.16647699999999999,0.00533,0.023044,-0.004357,-0.000495,-0.002169,0.004757
53,-2.693813,-1.384909,3.122814,-0.079988,0.982773,0.16653099999999998,-0.003315,-0.000366,-0.003319,0.004625,-0.001984,0.002689
54,-2.69349,-1.384949,3.123208,-0.080025,0.9827799999999999,0.166471,-0.000148,-0.004651,-8.7e-05,0.012078,0.00689,0.001971
55,-2.693501,-1.3849770000000001,3.123268,-0.080011,0.982785,0.166446,0.0009140000000000001,-0.006781000000000001,-0.001145,0.004038,0.007297,-0.011173
56,-2.693988,-1.384874,3.123207,-0.079974,0.982766,0.166577,-0.002363,-0.024876,-0.0022129999999999997,0.006945999999999999,0.008017,-0.014140999999999999
57,-2.693597,-1.385069,3.123686,-0.079957,0.9828020000000001,0.166374,0.016993,0.011268,1.3000000000000001e-05,0.001588,0.003892,0.00013000000000000002
58,-2.693303,-1.385322,3.123822,-0.079898,0.982849,0.166125,0.007344,-0.000412,-0.001108,0.000384,0.000977,-0.002337
59,-2.693136,-1.385441,3.1242419999999997,-0.079875,0.9828709999999999,0.166007,0.0051530000000000005,-0.014249000000000001,-0.0021739999999999997,0.0025280000000000003,0.00274,-0.0034560000000000003
60,-2.692787,-1.385593,3.124853,-0.079868,0.982899,0.165846,0.003048,-0.012514,-0.003397,0.001667,0.00375,-0.0032479999999999996
61,-2.6926799999999997,-1.385605,3.125338,-0.079881,0.982901,0.165826,0.004091,-0.021027,-0.0065840000000000004,0.00022999999999999998,0.005029,-0.006509
62,-2.692245,-1.385685,3.126139,-0.079919,0.982916,0.165721,0.008368,-0.015729,-0.003356,-0.00023500000000000002,0.00297,-0.006923
63,-2.6915560000000003,-1.385792,3.127066,-0.079987,0.982935,0.165571,0.007349,-0.008255,-0.0065769999999999995,-0.002532,0.002843,-0.005887
64,-2.690871,-1.385872,3.127814,-0.080066,0.98295,0.165445,0.004182,0.00027400000000000005,-0.005542,-0.004101,0.001349,0.001303
65,-2.6902,-1.385934,3.128489,-0.080151,0.9829620000000001,0.16533599999999998,0.0031100000000000004,0.000273,-0.004482,-0.0019260000000000002,0.003123,0.002404
66,-2.689726,-1.385942,3.128981,-0.080226,0.9829629999999999,0.16529100000000002,0.0009720000000000001,0.000276,-0.003428,-0.001424,0.002572,0.001183
67,-2.689146,-1.385985,3.129464,-0.080303,0.9829709999999999,0.165206,0.0021079999999999996,0.008427,-0.00159,-0.0018510000000000002,0.0017399999999999998,-0.001495
68,-2.68873,-1.385991,3.12961,-0.08036900000000001,0.982972,0.165167,0.002132,0.015875,0.000537,-0.004104,0.0034020000000000005,-0.001852
69,-2.688133,-1.386044,3.129807,-0.080444,0.982982,0.165071,0.005361,0.021194,-0.000515,-0.0064849999999999994,0.002827,-0.005571
70,-2.687376,-1.38614,3.1301930000000002,-0.080528,0.982999,0.164927,0.00748,0.017991,-0.000496,-0.0037310000000000004,0.0028399999999999996,-0.006267
71,-2.6865639999999997,-1.3863020000000001,3.130591,-0.080592,0.983029,0.164718,0.009633,0.024367,0.0016469999999999998,-0.000676,0.004703,-0.005309
72,-2.685609,-1.3865120000000002,3.131041,-0.08065800000000001,0.983068,0.164455,0.011772,0.026486000000000003,0.002727,0.0015869999999999999,0.00233,0.000798
73,-2.6846389999999998,-1.386744,3.131524,-0.080717,0.98311,0.164171,0.010686,0.023288999999999997,0.0037920000000000002,0.004224,0.0017530000000000002,0.001127
74,-2.68391,-1.386926,3.131783,-0.08075800000000001,0.983143,0.163953,0.006442,0.026508999999999998,0.001622,0.004815,0.00349,0.0016820000000000001
75,-2.683309,-1.38704,3.131893,-0.080807,0.9831639999999999,0.163805,0.0043939999999999995,0.021644999999999998,0.001353,0.001431,0.003149,-0.002184
76,-2.682832,-1.387138,3.132021,-0.080843,0.983182,0.163681,0.004370000000000001,0.014196,-0.0007740000000000001,0.0028710000000000003,0.003054,0.000839
77,-2.682513,-1.387183,3.132094,-0.080875,0.98319,0.163614,0.00116,0.013138,0.000273,0.005588,0.004038,-0.004053
78,-2.682465,-1.387261,3.131902,-0.08085,0.9832049999999999,0.163543,0.0032700000000000003,0.009926,0.002428,0.0055320000000000005,0.008815,0.00021400000000000002
79,-2.682738,-1.387446,3.131571,-0.080724,0.983238,0.163401,0.008523000000000001,-0.002897,0.007823,0.00591,0.008354,0.006032
80,-2.683093,-1.387685,3.1312830000000003,-0.080562,0.983282,0.163219,0.010676,-0.0007650000000000001,0.005699,0.002254,-0.002477,0.00771
81,-2.6829389999999997,-1.387947,3.131296,-0.080473,0.9833299999999999,0.162975,0.008614,0.012038,0.002463,0.000212,-0.01165,0.007770999999999999
82,-2.682819,-1.3879350000000001,3.131236,-0.080498,0.9833270000000001,0.162976,-0.007389,0.0057280000000000005,-0.00405,-0.004219,-0.008825,0.006488
83,-2.6828060000000002,-1.3875629999999999,3.1312279999999997,-0.080662,0.98326,0.163303,-0.01901,0.001353,-0.012806,9.499999999999999e-05,-0.0041340000000000005,0.002987
84,-2.6823259999999998,-1.387101,3.131597,-0.080942,0.983175,0.163672,-0.016833,0.00775,-0.016004,0.010506999999999999,-0.002707,-0.005591
85,-2.6817,-1.386631,3.132123,-0.081249,0.983089,0.164035,-0.017928,0.0034840000000000006,-0.013869999999999999,0.00848,-0.000286,-0.011401
86,-2.681114,-1.386117,3.132638,-0.081569,0.9829950000000001,0.164439,-0.021119,0.006687,-0.012828,0.0054280000000000005,0.006812,-0.012537999999999999
87,-2.680483,-1.3856680000000001,3.1329759999999998,-0.08186900000000001,0.9829129999999999,0.16478299999999999,-0.015742,0.019438,-0.009602,0.004568,0.008024,-0.014805
88,-2.680052,-1.385406,3.132918,-0.08205599999999999,0.982864,0.16498,-0.008269,0.024722,-0.0052840000000000005,0.0008640000000000001,0.010620000000000001,-0.016801
89,-2.679462,-1.385457,3.133047,-0.082131,0.982874,0.16488699999999998,0.0045,0.022525,0.000149,0.005074,0.007361,-0.015
90,-2.678872,-1.3856979999999999,3.13313,-0.082123,0.9829180000000001,0.164627,0.009829000000000001,0.027807,0.006589,0.008316,0.004417,-0.003479
91,-2.678625,-1.385958,3.132736,-0.082049,0.982966,0.164376,0.004534000000000001,0.0334,0.009696,0.004595,0.002294,0.0034549999999999997
92,-2.678662,-1.386134,3.131927,-0.081965,0.9829979999999999,0.164224,-0.000776,0.038745,0.009651999999999999,-0.005727,0.002445,-0.004282
93,-2.6785240000000003,-1.386274,3.131319,-0.081926,0.983024,0.16409,0.000291,0.034497,0.005392,-0.008177,0.0035479999999999995,-0.006314
94,-2.678314,-1.386309,3.130941,-0.081945,0.98303,0.16404200000000002,-0.002919,0.027073000000000003,3.8e-05,0.001059,0.000917,0.0022789999999999998
95,-2.6780779999999997,-1.386201,3.130671,-0.08203200000000001,0.9830110000000001,0.16411900000000001,-0.006125,0.024958,-0.00105,0.0035259999999999996,0.00054,0.0032090000000000005
96,-2.6778619999999997,-1.386103,3.130447,-0.082111,0.982993,0.164188,-0.006163,0.019619,0.0021609999999999997,0.0075569999999999995,0.003076,-0.00011
97,-2.677551,-1.38604,3.130464,-0.08219,0.982981,0.164218,-0.002991,0.011094,5.7999999999999994e-05,0.009223,0.001562,0.003064
98,-2.677554,-1.386031,3.130382,-0.082194,0.982979,0.164227,0.000156,-0.0006349999999999999,9.499999999999999e-05,0.011805,0.001655,0.003452
99,-2.678097,-1.385995,3.129947,-0.082121,0.982973,0.164303,-0.003124,-0.007470999999999999,0.002225,0.012922,0.00247,0.004978
100,-2.678636,-1.385943,3.1296049999999997,-0.08205499999999999,0.9829629999999999,0.164393,-0.003129,-0.011719,-0.000975,0.007836,0.003746,0.000875
101,-2.679072,-1.385913,3.129437,-0.081996,0.982958,0.164455,5.7999999999999994e-05,-0.014925999999999998,-0.0009480000000000001,0.005855,0.0041789999999999996,-0.000408
102,-2.6793970000000003,-1.3858700000000002,3.129522,-0.081961,0.98295,0.16452,4.3e-05,-0.023427,-0.006279,0.003836,0.0021579999999999998,0.003129
103,-2.6797400000000002,-1.385761,3.12978,-0.081953,0.98293,0.164645,-0.003186,-0.031929,-0.008427,0.003065,0.000484,0.001462
104,-2.679831,-1.385682,3.130328,-0.081973,0.982915,0.164722,2.4e-05,-0.029810000000000003,-0.008407,0.00046100000000000004,7.099999999999999e-05,0.00375
105,-2.679936,-1.385594,3.130804,-0.08199400000000001,0.982899,0.16480799999999998,-0.0021190000000000002,-0.029811,-0.006286,-0.002036,0.0016129999999999999,0.003786
106,-2.680434,-1.385426,3.130957,-0.081986,0.9828680000000001,0.164997,-0.00854,-0.032989,-0.005258,0.001663,0.001629,0.001553
107,-2.681275,-1.385258,3.130707,-0.08192,0.9828370000000001,0.165212,-0.00853,-0.025553,7.3e-05,0.004007999999999999,0.004132,0.000223
108,-2.682239,-1.3851040000000001,3.130163,-0.081828,0.982809,0.165428,-0.008597,-0.019619,7.3e-05,-0.002095,0.007258,2.3e-05
109,-2.68295,-1.384992,3.1298880000000002,-0.081759,0.9827879999999999,0.16558499999999998,-0.003268,-0.022825,-0.002022,-0.004331000000000001,0.006973,-0.008603
110,-2.6831,-1.384974,3.130158,-0.081743,0.982785,0.165614,0.0021,-0.017509,-0.004128,-0.004332,0.004795000000000001,-0.003535
111,-2.682668,-1.3850719999999999,3.130875,-0.08177100000000001,0.9828030000000001,0.165492,0.009592,-0.012209000000000001,-0.004083,-0.00644,0.001221,-0.0019329999999999998
112,-2.682049,-1.385198,3.131726,-0.081819,0.982826,0.16533,0.008520999999999999,-0.013269999999999999,-0.004089,-0.004897,0.0014269999999999999,-6.2e-05
113,-2.6814240000000003,-1.38531,3.1325830000000003,-0.081873,0.9828469999999999,0.165181,0.006396,-0.010071,-0.003039,-0.002187,0.0013,0.002391
114,-2.681059,-1.3853540000000002,3.133099,-0.081914,0.9828549999999999,0.16511099999999998,5e-06,-0.005796,-0.000953,-0.002055,-0.000341,0.007069
115,-2.681249,-1.385294,3.1330270000000002,-0.08190900000000001,0.982844,0.16518,-0.003307,-0.008315000000000001,9.300000000000001e-05,-0.00029,0.00205,0.001477
116,-2.6815439999999997,-1.385171,3.132956,-0.081914,0.982821,0.165312,-0.0065260000000000006,-0.013626,-0.00099,0.000127,0.004682,0.000124
117,-2.681813,-1.385069,3.132915,-0.081914,0.9828020000000001,0.165424,-0.004372999999999999,-0.009372,-0.000981,0.002736,0.007462999999999999,-0.001117
118,-2.68206,-1.3849790000000002,3.132833,-0.081912,0.982786,0.165524,-0.003297,-0.007245999999999999,-0.000976,-0.002804,0.003283,-0.00282
119,-2.6820009999999996,-1.3849770000000001,3.1330299999999998,-0.081923,0.982785,0.165521,0.003109,-0.006203,-0.000933,-0.002428,0.0023829999999999997,-0.002527
120,-2.681695,-1.3850639999999999,3.1334619999999997,-0.08193500000000001,0.982801,0.165419,0.007381,-0.005152,-0.000904,-0.001408,0.0014210000000000002,0.0022140000000000003
121,-2.681597,-1.3851719999999998,3.1336459999999997,-0.08190399999999999,0.982821,0.16531500000000002,0.005247,-0.003023,0.001215,-0.002264,0.0030800000000000003,0.002257
122,-2.68148,-1.385306,3.133826,-0.081865,0.9828459999999999,0.165188,0.007381,-0.0019690000000000003,0.0022960000000000003,0.000338,0.0013,0.003116
123,-2.681491,-1.385406,3.1339069999999998,-0.08182,0.982864,0.165101,0.004190999999999999,-0.005576,0.00234,0.000308,0.0031739999999999997,0.003508
124,-2.68166,-1.385512,3.133913,-0.081746,0.982884,0.165021,0.005229,-0.01091,0.0034219999999999997,-0.0008960000000000001,0.0033829999999999997,-0.0015539999999999998
125,-2.681928,-1.385618,3.133855,-0.08165599999999999,0.9829030000000001,0.16495,0.004177,-0.007711,0.0034100000000000003,0.0009519999999999999,0.001105,0.005994
126,-2.682314,-1.385675,3.1335290000000002,-0.081567,0.982914,0.164932,-6.2e-05,-0.00024300000000000002,0.0044399999999999995,0.000665,-0.001438,0.005340999999999999
127,-2.6828830000000004,-1.38568,3.133063,-0.081471,0.982915,0.164973,-0.001157,-0.007692,0.0033729999999999997,0.00043099999999999996,0.000773,0.0026449999999999998
128,-2.683064,-1.3857190000000001,3.133048,-0.081424,0.982922,0.164954,0.005263,-0.007697,-0.0008550000000000001,-0.002072,0.001529,-0.003104
129,-2.68302,-1.385775,3.13325,-0.08140599999999999,0.9829319999999999,0.1649,0.002062,-0.006625,0.00018999999999999998,-0.0037990000000000003,0.002816,0.005144
130,-2.6832529999999997,-1.385769,3.1331599999999997,-0.08137,0.982931,0.16492300000000001,-7.6e-05,-0.007683,0.000176,-0.002156,0.00361,0.0004969999999999999
131,-2.683422,-1.385817,3.133134,-0.081322,0.9829399999999999,0.164895,0.00317,-0.005,0.002352,0.000771,0.000825,0.0017460000000000002
132,-2.6836130000000002,-1.385936,3.1330009999999997,-0.081238,0.9829620000000001,0.164805,0.0042369999999999994,-0.002881,0.004493,0.0017699999999999999,0.002374,0.002722
133,-2.683967,-1.3860430000000001,3.1327689999999997,-0.08113300000000001,0.982982,0.164739,0.003146,-0.008204000000000001,0.004492,-0.0027600000000000003,0.0005690000000000001,0.001689
134,-2.684002,-1.386183,3.132927,-0.081067,0.983007,0.16461900000000002,0.009552,-0.010343999999999999,0.001335,0.0015689999999999999,0.006113,0.00486
135,-2.683794,-1.386328,3.1333159999999998,-0.081038,0.983034,0.164474,0.007442,-0.008193,-0.001887,0.005705,0.0016769999999999999,0.006608
136,-2.683593,-1.38635,3.133609,-0.081062,0.983038,0.164439,0.00107,-0.001779,-0.0019399999999999999,0.005562,-0.00011200000000000001,0.001347
137,-2.68344,-1.386401,3.1338060000000003,-0.081065,0.9830469999999999,0.164382,0.005332,-0.002859,-0.0019089999999999999,-0.004201,0.000443,-0.000319
138,-2.683003,-1.386427,3.134288,-0.081125,0.983052,0.164323,0.004289,-0.000712,-0.005123,-0.004934,0.0017809999999999998,-0.002809
139,-2.682628,-1.386466,3.134652,-0.08117,0.983059,0.164258,0.004365,0.002363,-0.004009,0.006920999999999999,0.0020329999999999997,-0.000272
140,-2.682185,-1.386514,3.135078,-0.081221,0.983068,0.164179,0.0032840000000000005,0.0012929999999999999,-0.0018789999999999998,0.010527,0.003016,0.000479
141,-2.681895,-1.3865610000000002,3.135324,-0.081248,0.9830770000000001,0.164113,0.002208,0.001288,0.00025,0.007807,0.004548,-0.002904
142,-2.681695,-1.38667,3.1355310000000003,-0.081234,0.9830969999999999,0.164002,0.005384000000000001,-0.002989,0.0013460000000000002,0.008083,0.00253,-0.00293
143,-2.681806,-1.3868120000000002,3.135568,-0.081153,0.983123,0.16388599999999998,0.00748,-0.010457,0.002438,0.007392,0.003694,-0.0032259999999999997
144,-2.6819919999999997,-1.386971,3.1356450000000002,-0.081054,0.983152,0.163761,0.007461,-0.014718,0.002444,0.008819,0.002581,0.001553
145,-2.682186,-1.387161,3.135764,-0.080938,0.983186,0.163607,0.008537000000000001,-0.014713999999999998,0.000315,0.005361,0.0014939999999999999,0.0021030000000000003
146,-2.6821349999999997,-1.387361,3.136177,-0.080859,0.983223,0.163427,0.009585,-0.020038999999999998,-0.000739,0.006595,0.0009689999999999999,0.0015660000000000001
147,-2.682184,-1.387566,3.136612,-0.080762,0.98326,0.16325,0.010662999999999999,-0.026323000000000003,0.000407,0.001233,0.0012980000000000001,0.0015300000000000001
148,-2.6825930000000002,-1.387724,3.136756,-0.080626,0.983289,0.163144,0.007458,-0.026316000000000003,0.001452,0.003768,-0.000348,0.004856
149,-2.683063,-1.387834,3.136703,-0.080502,0.983309,0.16308599999999998,0.005367,-0.01566,0.0024920000000000003,0.00343,0.0016920000000000001,-0.00029
150,-2.6835970000000002,-1.387959,3.136428,-0.080361,0.983332,0.163019,0.005377000000000001,-0.012468,0.003557,-0.004188,0.002798,-0.002069
151,-2.683908,-1.388105,3.136456,-0.080247,0.983358,0.162915,0.008558,-0.017800999999999997,0.002517,0.004182,0.0008179999999999999,0.0016359999999999999
152,-2.6839060000000003,-1.388233,3.1367830000000003,-0.080192,0.983381,0.162802,0.006453,-0.014584999999999999,-0.0007059999999999999,0.00373,0.0008560000000000001,0.004251
153,-2.683936,-1.388315,3.1370310000000003,-0.080151,0.9833959999999999,0.162731,0.0043100000000000005,-0.014587000000000001,0.001415,0.0019030000000000002,0.003176,-0.0008810000000000001
154,-2.683846,-1.388396,3.137464,-0.08012999999999999,0.983411,0.162652,0.006439,-0.017781,-0.0007019999999999999,0.000769,0.001849,-0.00335
155,-2.683606,-1.388523,3.138086,-0.080114,0.983434,0.162521,0.009659000000000001,-0.019738,-0.003834,0.0033770000000000002,0.002009,-0.001266
156,-2.6834689999999997,-1.388656,3.138681,-0.080079,0.9834579999999999,0.162394,0.009640000000000001,-0.022938,-0.002762,0.001145,0.001848,-0.000728
157,-2.683545,-1.388827,3.1390990000000003,-0.079993,0.983489,0.162251,0.008544,-0.025082,0.001506,-0.000207,0.0027170000000000002,-0.000401
158,-2.683867,-1.388988,3.139201,-0.07987000000000001,0.983518,0.162134,0.007497,-0.018695,0.0036270000000000004,-0.003214,0.0021079999999999996,0.0020350000000000004
159,-2.6841619999999997,-1.3892229999999999,3.139191,-0.07972,0.983561,0.16195,0.011788,-0.012323,0.004717,-0.004722,0.0036520000000000003,-0.001137
160,-2.684226,-1.389514,3.139382,-0.079584,0.983613,0.161698,0.013922,-0.013391,0.003665,-0.000647,0.0015400000000000001,2.8999999999999997e-05
161,-2.684104,-1.389807,3.139757,-0.079476,0.983666,0.16143,0.014998,-0.011264,0.00367,-0.000526,-0.0001,0.000603
162,-2.683809,-1.390052,3.140182,-0.079417,0.9837100000000001,0.16119,0.011831,-0.004857,0.002571,-0.001348,-0.0009369999999999999,0.0054210000000000005
163,-2.683532,-1.390241,3.140596,-0.07937899999999999,0.9837440000000001,0.161001,0.007531,-0.007842,0.001485,-0.002866,-0.000178,0.0059759999999999995
164,-2.683598,-1.3903219999999998,3.140689,-0.079334,0.983759,0.160936,0.002202,-0.007819,0.00037999999999999997,-0.001843,-0.0011380000000000001,-0.000551
165,-2.683713,-1.390382,3.140725,-0.079289,0.983769,0.160892,0.00434,-0.006761,0.000393,-0.0028179999999999998,0.0008960000000000001,-0.0039700000000000004
166,-2.683695,-1.390467,3.1408810000000003,-0.07925499999999999,0.983785,0.16081600000000001,0.006469,-0.007834,0.00041,-0.0008529999999999999,0.0017649999999999999,-0.000659
167,-2.683591,-1.390512,3.141108,-0.079253,0.983793,0.160768,0.002221,-0.005679999999999999,-0.001759,0.000609,0.0017879999999999999,0.002241
168,-2.683399,-1.390551,3.141382,-0.07926699999999999,0.9838,0.160719,0.004364,-0.002496,-0.0006799999999999999,0.00021099999999999998,0.002254,-0.001371
169,-2.6831970000000003,-1.390631,-3.141582,-0.079264,0.983814,0.160632,0.004359,-0.0025,0.000388,0.002833,0.0016589999999999999,-0.002932
170,-2.683198,-1.390728,-3.141479,-0.079222,0.9838309999999999,0.160548,0.004345,-0.004635,0.001459,0.0008990000000000001,0.00474,-0.001475
171,-2.683237,-1.39083,-3.141411,-0.079172,0.98385,0.16046,0.005343,-0.005518,0.001469,-0.000571,0.000968,0.001893
172,-2.683257,-1.390984,-3.141318,-0.079101,0.983877,0.160327,0.008534,-0.005538,0.003628,-0.00013700000000000002,0.00091,0.003278
173,-2.683207,-1.391152,-3.141089,-0.079036,0.983907,0.160174,0.007462000000000001,-0.008722,0.0014880000000000002,-0.005253,-0.00040199999999999996,0.004102000000000001
174,-2.683154,-1.391305,-3.140896,-0.07897799999999999,0.983935,0.16003499999999998,0.0074670000000000005,-0.0076560000000000005,0.0014869999999999998,-0.004379999999999999,0.0006389999999999999,0.002501
175,-2.683079,-1.391407,-3.1406259999999997,-0.078946,0.9839530000000001,0.159939,0.004267,-0.010828,-0.001736,-0.002536,-0.000493,0.0021550000000000002
176,-2.6829419999999997,-1.39147,-3.140352,-0.078941,0.983964,0.159874,0.004295,-0.0033759999999999997,-0.000678,-0.000466,-0.000123,0.003304
177,-2.6829509999999996,-1.391477,-3.14033,-0.07893700000000001,0.983965,0.159869,-0.001039,-0.001235,0.001419,0.003055,0.00041,0.005018
178,-2.683128,-1.391437,-3.1404959999999997,-0.078926,0.983958,0.159918,-0.002106,-0.001231,0.001411,0.002845,0.003102,0.0017649999999999999
179,-2.68339,-1.391406,-3.14071,-0.07889700000000001,0.9839530000000001,0.159965,-9.9e-05,-0.0031620000000000003,0.002499,0.0038689999999999996,0.004786,-0.0034100000000000003
180,-2.683575,-1.391458,-3.140773,-0.078845,0.9839620000000001,0.159934,0.004158,-0.006368,0.001465,0.003314,0.00345,-0.002891
181,-2.683502,-1.391569,-3.140568,-0.078808,0.983982,0.15983,0.007369,-0.0053100000000000005,0.00041799999999999997,0.002316,0.004391,-0.003107
182,-2.6833099999999996,-1.391732,-3.140317,-0.07876799999999999,0.9840110000000001,0.159671,0.009517,-0.0010609999999999999,0.001495,0.005342,0.000563,-0.001041
183,-2.683061,-1.391938,-3.1400580000000002,-0.078717,0.9840479999999999,0.159469,0.007383,8e-06,0.002547,0.004056000000000001,0.001945,-0.00061
184,-2.683157,-1.392093,-3.14015,-0.078635,0.984075,0.159341,0.004182,1.9e-05,0.002525,0.0032409999999999995,0.000956,-0.00126
185,-2.683263,-1.392233,-3.140263,-0.078557,0.9841,0.159226,0.005254,0.0010810000000000001,0.002531,0.0016530000000000002,0.002945,0.002441
186,-2.6833549999999997,-1.392344,-3.140382,-0.07849400000000001,0.9841200000000001,0.159135,0.0063159999999999996,0.001073,0.003607,0.0032990000000000003,0.00404,0.000212
187,-2.6833139999999998,-1.392516,-3.1403060000000003,-0.078426,0.98415,0.15898099999999998,0.009348,-0.002861,0.002562,0.0010789999999999999,0.00494,0.002747
188,-2.683209,-1.392694,-3.140151,-0.078365,0.984182,0.158815,0.007228,-0.000719,0.0014759999999999999,0.001309,-0.0010429999999999999,0.0033710000000000003
189,-2.682941,-1.39277,-3.13995,-0.078374,0.984195,0.158727,0.002999,0.004635,-0.0017649999999999999,-0.000315,0.002499,0.0034130000000000002
190,-2.68255,-1.392787,-3.13957,-0.078429,0.9841979999999999,0.158681,0.0029850000000000002,-0.001743,-0.004961,-0.001954,-0.002066,0.004894
191,-2.681995,-1.3927479999999999,-3.1388380000000002,-0.078534,0.984191,0.158671,0.001889,-0.010253,-0.007094,0.00015,0.00038199999999999996,0.01061
192,-2.681365,-1.392639,-3.1378310000000003,-0.078682,0.9841719999999999,0.158719,-0.003479,-0.022996,-0.012457,0.002404,-0.00025499999999999996,0.007693000000000001
193,-2.680614,-1.3923649999999999,-3.136503,-0.078921,0.984123,0.158902,-0.009885,-0.029344,-0.017834,0.006091,-0.005593,0.0008880000000000001
194,-2.680081,-1.39191,-3.135425,-0.079205,0.984043,0.15925999999999998,-0.017329,-0.025053,-0.01896,0.00256,-0.004978,-0.000309
195,-2.68038,-1.391292,-3.135207,-0.079428,0.9839319999999999,0.159828,-0.030358,-0.024641999999999997,-0.014799000000000001,0.000266,-0.002228,-0.0038380000000000003
196,-2.681241,-1.3905370000000001,-3.1356580000000003,-0.07962000000000001,0.9837969999999999,0.16056199999999998,-0.035657999999999995,-0.016106,-0.013779,-0.002792,0.006239,-0.016412
197,-2.681881,-1.3898409999999999,-3.136098,-0.079822,0.9836719999999999,0.161228,-0.030289999999999997,-0.006546,-0.011617,0.00066,0.006364,-0.020221
198,-2.6819919999999997,-1.389412,-3.136211,-0.07999099999999999,0.9835950000000001,0.161614,-0.013187,0.004035,-0.008307,0.001347,0.012743,-0.022652000000000002
199,-2.681405,-1.389303,-3.135757,-0.080134,0.983575,0.161664,0.000687,0.009295,-0.003944,0.005549,0.006903,-0.017377
200,-2.6809689999999997,-1.389443,-3.135574,-0.08014299999999999,0.9836010000000001,0.16150499999999998,0.0070739999999999996,0.014565,0.00464,0.006825,0.005337,-0.011496
201,-2.681139,-1.3897549999999999,-3.136018,-0.079979,0.983657,0.161244,0.007031,0.013465999999999999,0.013187,0.001045,0.005906000000000001,4.2e-05
202,-2.681825,-1.3901629999999998,-3.13701,-0.079689,0.9837299999999999,0.160937,0.013408000000000002,0.013422,0.018573,0.000603,0.001667,0.005186
203,-2.6828540000000003,-1.3907180000000001,-3.138255,-0.079282,0.98383,0.16053,0.018498,0.008379000000000001,0.022862,-0.002764,0.0018579999999999998,0.010841
204,-2.684211,-1.3912879999999999,-3.139734,-0.078817,0.9839319999999999,0.160134,0.019541,0.0030489999999999996,0.022876,-0.0063880000000000004,0.000596,0.017814
205,-2.685282,-1.39181,-3.140873,-0.078419,0.984025,0.15975699999999998,0.018493,0.00307,0.018596,-0.009731,-0.001771,0.01491
206,-2.686092,-1.392283,3.141422,-0.078085,0.984109,0.159403,0.017427,0.002013,0.017522,-0.009196,-0.00216,0.015463
207,-2.6868,-1.392708,3.140688,-0.077788,0.9841840000000001,0.159082,0.016368999999999998,-9.7e-05,0.013244,-0.010072,-0.003807,0.016850999999999998
208,-2.687268,-1.392939,3.1402759999999996,-0.077614,0.984225,0.158915,0.008906,-0.005372,0.006789,-0.008842000000000001,-0.0072510000000000005,0.017141
209,-2.687582,-1.39296,3.14007,-0.077556,0.9842290000000001,0.158922,-0.002815,-0.008501,0.000302,-0.005712,-0.008185,0.007719
210,-2.687693,-1.3926889999999998,3.140211,-0.07765599999999999,0.984181,0.159171,-0.014531,-0.014809000000000001,-0.010454000000000001,-0.0030629999999999998,-0.00475,0.006783
211,-2.687653,-1.392161,3.1406419999999997,-0.07789,0.984087,0.159636,-0.020063,-0.020898,-0.013716999999999998,0.003732,0.003614,0.0056630000000000005
212,-2.687908,-1.391649,3.1408669999999996,-0.07807,0.9839959999999999,0.160109,-0.021163,-0.025169,-0.010514,0.005606,0.004331000000000001,0.002993
213,-2.688486,-1.3912360000000001,3.140791,-0.078155,0.983922,0.160519,-0.012652,-0.024159,-0.004047,0.007187000000000001,0.006418999999999999,-0.004055
214,-2.689365,-1.3910870000000002,3.140308,-0.078078,0.9838959999999999,0.160719,-0.00305,-0.017825999999999998,0.0024219999999999997,0.002517,0.00759,-0.005079
215,-2.690065,-1.3912309999999999,3.139872,-0.077905,0.9839209999999999,0.160648,0.010824,-0.011504,0.007852,-0.004783,0.004802000000000001,-0.0061070000000000004
216,-2.690189,-1.391633,3.139973,-0.077712,0.983993,0.160301,0.020435,-0.010468,0.006848999999999999,-0.004228,0.000779,0.00037400000000000004
217,-2.6899990000000003,-1.392059,3.140386,-0.07756,0.9840690000000001,0.159909,0.017244,-0.01151,0.003624,-0.00232,-0.002486,0.010806
218,-2.68965,-1.3923450000000002,3.140941,-0.07749199999999999,0.9841200000000001,0.159629,0.010872,-0.009340000000000001,-0.000697,-0.008216,-0.004155,0.016229
219,-2.689462,-1.392436,3.1413290000000003,-0.07748300000000001,0.984136,0.15953399999999998,0.002154,-0.010185,-0.000789,-0.007188,-0.002538,0.018872
220,-2.689702,-1.392313,3.141349,-0.077497,0.9841139999999999,0.15966,-0.010657999999999999,-0.014393000000000001,-0.003009,-0.004778,-0.0037979999999999997,0.019158
221,-2.690625,-1.391897,3.1406099999999997,-0.077528,0.9840399999999999,0.1601,-0.026618,-0.005811,-0.0042,-0.01172,-0.005631000000000001,0.021662999999999998
222,-2.691749,-1.3912069999999999,3.139484,-0.077644,0.983917,0.160799,-0.036176,0.000627,-0.007479,-0.016396,-0.006103,0.019941999999999998
223,-2.692505,-1.3903299999999998,3.1386220000000002,-0.077896,0.9837600000000001,0.161634,-0.046778,0.008151,-0.015040999999999999,-0.016586,-0.0043289999999999995,0.020998
224,-2.693111,-1.389149,3.137929,-0.078303,0.983547,0.16272899999999998,-0.055322,0.000745,-0.020432,-0.015035,-0.005718,0.01885
225,-2.693696,-1.387909,3.1373889999999998,-0.078736,0.983323,0.163876,-0.055337,-0.004572,-0.022562,-0.012526,-0.001923,0.010761
226,-2.694197,-1.386759,3.1370139999999997,-0.079144,0.9831129999999999,0.164936,-0.047902,-0.007811,-0.018233000000000003,-0.006595,0.004085,0.0034289999999999998
227,-2.694573,-1.3858409999999999,3.136762,-0.079472,0.982944,0.16577999999999998,-0.035188,-0.0055130000000000005,-0.013824000000000001,-0.00025499999999999996,0.007626000000000001,0.0005099999999999999
228,-2.694871,-1.3852149999999999,3.136461,-0.079689,0.9828290000000001,0.16635999999999998,-0.021309,0.003996,-0.006261,0.00309,0.010029999999999999,-0.005868
229,-2.6950060000000002,-1.384947,3.136088,-0.07978099999999999,0.9827799999999999,0.166608,-0.005282,0.015633,0.000245,0.003807,0.011803,-0.01225
230,-2.694717,-1.385069,3.136047,-0.079777,0.9828020000000001,0.166476,0.011769,0.016617,0.005704,0.004612,0.00998,-0.016452
231,-2.69385,-1.385565,3.136586,-0.07971,0.982894,0.165967,0.029905,0.017613999999999998,0.0068980000000000005,0.004529999999999999,0.009568,-0.015424
232,-2.692268,-1.386233,3.13787,-0.079687,0.983017,0.16525,0.035244,0.014417,0.002666,0.005026,-0.003036,0.003924
233,-2.690759,-1.3867909999999999,3.139148,-0.079697,0.9831190000000001,0.16463599999999998,0.023499000000000003,0.010206,0.000453,0.00055,-0.004588,0.01229
234,-2.690004,-1.387091,3.139891,-0.079693,0.983174,0.16430899999999998,0.010643999999999999,-0.00359,-0.001756,0.000103,-0.006809,0.01402
235,-2.6897860000000002,-1.387132,3.140262,-0.079711,0.983181,0.16425599999999999,-0.003237,-0.010831,-0.0028640000000000002,-0.003266,-0.004757,0.01206
236,-2.690172,-1.3869,3.140146,-0.079747,0.983139,0.164491,-0.014972999999999998,-0.013973,-0.006146,-0.001491,-0.001709,0.013075999999999999
237,-2.690729,-1.386496,3.1397310000000003,-0.079828,0.983065,0.164893,-0.01813,-0.0033130000000000004,-0.0051140000000000005,0.0022370000000000003,-0.0011619999999999998,0.007668
238,-2.691494,-1.386066,3.139014,-0.079886,0.982986,0.16533499999999998,-0.019211000000000002,-0.003322,-0.001917,-0.001748,0.008012,-0.006781000000000001
239,-2.6920669999999998,-1.3858,3.138472,-0.079904,0.9829370000000001,0.165615,-0.007476000000000001,-0.001241,0.000299,-0.002386,0.010548,-0.008465
240,-2.6922,-1.38586,3.138305,-0.07985700000000001,0.9829479999999999,0.165574,0.011737000000000001,0.005065999999999999,0.004698,0.004555,0.014351,-0.014908000000000001
241,-2.691642,-1.3863590000000001,3.1386060000000002,-0.079736,0.9830399999999999,0.16508699999999998,0.032041,0.017757,0.010165,0.005838,0.007546,-0.007859999999999999
242,-2.69033,-1.387174,3.139426,-0.079603,0.983189,0.16426,0.043815,0.028360000000000003,0.01237,0.004392,0.004391,-0.0036
243,-2.688368,-1.388023,3.1408549999999997,-0.079559,0.9833430000000001,0.163354,0.039508,0.026400999999999997,0.004793,0.0037840000000000005,-0.005438,0.007865
244,-2.686644,-1.388734,-3.14113,-0.07953400000000001,0.9834719999999999,0.162589,0.029901,0.026431,0.005794,0.003408,-0.006071,0.015527000000000001
245,-2.685375,-1.3891200000000001,-3.1402,-0.079573,0.983542,0.162147,0.016008,0.012665000000000001,-0.0028309999999999997,0.005034,-0.003989,0.023125
246,-2.684752,-1.3891959999999999,-3.139713,-0.07964199999999999,0.983556,0.16203199999999998,-0.002182,0.00101,-0.002943,0.00023500000000000002,-0.004490999999999999,0.012666
247,-2.685244,-1.388923,-3.1400959999999998,-0.079679,0.983507,0.16230999999999998,-0.016069999999999997,-0.0032020000000000004,-0.003035,0.001524,-0.004137,0.013761
248,-2.685796,-1.3886129999999999,-3.14079,-0.079725,0.98345,0.162629,-0.016031999999999998,0.007442,-0.0009119999999999999,-0.0021079999999999996,-0.0026920000000000004,0.009429
249,-2.686477,-1.388177,-3.141425,-0.079803,0.9833709999999999,0.163069,-0.016089,-0.012768,-0.008364,0.005492,0.004376,0.001299
250,-2.686394,-1.387846,-3.14085,-0.07996,0.983311,0.163356,-0.007601999999999999,-0.029817000000000003,-0.014691999999999998,0.002491,0.005640999999999999,-0.000758
251,-2.685684,-1.387656,-3.1395020000000002,-0.08015800000000001,0.9832770000000001,0.163466,-0.000157,-0.027476,-0.014686000000000001,0.003757,0.003906,0.004136
252,-2.68506,-1.387541,-3.138604,-0.080309,0.9832559999999999,0.163517,-0.004367,-0.005129,-0.00513,0.008715,0.0024010000000000004,0.011608
253,-2.685517,-1.387389,-3.139209,-0.0803,0.9832280000000001,0.163687,-0.010725,0.01403,0.004415,0.013055,0.005221,0.009866
254,-2.686409,-1.387342,-3.140531,-0.080174,0.9832190000000001,0.1638,-0.0054,0.019308000000000002,0.011923,0.014165,0.010799,-0.010602
255,-2.686686,-1.387534,-3.141155,-0.080046,0.9832540000000001,0.163652,0.01488,0.017123,0.007795000000000001,0.015486000000000002,0.013358000000000002,-0.017443
256,-2.685537,-1.388179,-3.140231,-0.079955,0.9833719999999999,0.162992,0.042599,0.008520999999999999,0.0037270000000000003,0.010634000000000001,0.008312,-0.011991
257,-2.683636,-1.3890280000000002,-3.1383259999999997,-0.07989600000000001,0.983526,0.162092,0.051115,-1.4000000000000001e-05,-0.00047599999999999997,0.005189,0.002055,-0.005659
258,-2.681309,-1.389958,-3.135941,-0.07986599999999999,0.983693,0.16108499999999998,0.050057,0.00106,-0.001553,0.01082,-0.002996,0.012469
259,-2.679247,-1.390798,-3.133905,-0.079829,0.983844,0.160179,0.037531,0.004477,0.0026920000000000004,0.01623,-6.4e-05,0.022027
260,-2.678286,-1.391392,-3.1330259999999996,-0.079722,0.98395,0.159581,0.023629,0.0013130000000000001,0.006872,0.016276,0.001295,0.00761
261,-2.678369,-1.3917950000000001,-3.132898,-0.07953099999999999,0.984022,0.15923099999999998,0.017156,-0.015705,0.0057810000000000005,0.014041,0.0033590000000000004,-0.0049039999999999995
262,-2.677912,-1.392207,-3.132368,-0.07942300000000001,0.984095,0.158833,0.027939,0.006640999999999999,0.002623,0.009918999999999999,0.006626999999999999,-0.006749
263,-2.676246,-1.392841,-3.130848,-0.079407,0.984208,0.158142,0.04289,0.005541,-0.001544,-0.00238,0.005294,0.005843999999999999
264,-2.6740310000000003,-1.3935520000000001,-3.128549,-0.079443,0.984333,0.157342,0.042861,-0.005095000000000001,-0.005804,0.002798,0.003658,0.004614
265,-2.6713299999999998,-1.394284,-3.125729,-0.07954,0.9844620000000001,0.15648399999999998,0.0461,0.002355,-0.0068590000000000005,0.007275,0.001423,0.007487000000000001
266,-2.6677869999999997,-1.395157,-3.122617,-0.079702,0.984615,0.155437,0.053697,0.034274,-0.0036420000000000003,0.009634,0.001164,0.010334000000000001
267,-2.66405,-1.396053,-3.11964,-0.079877,0.984771,0.154355,0.050516000000000005,0.040668,-0.001536,0.011136,-0.00212,0.011249
268,-2.660993,-1.396823,-3.117296,-0.079999,0.9849049999999999,0.15343800000000002,0.042166,0.036489,-0.000442,0.014003999999999999,0.000599,0.006321
269,-2.658064,-1.397575,-3.115214,-0.080104,0.985035,0.152548,0.044353,0.050321,0.0016920000000000001,0.012903999999999999,0.005963,0.002069
270,-2.6545400000000003,-1.398501,-3.112834,-0.080214,0.985194,0.15145999999999998,0.054007000000000006,0.063067,0.002811,0.010421,0.0037890000000000003,0.000731
271,-2.6504209999999997,-1.399542,-3.109943,-0.080354,0.9853719999999999,0.150224,0.064695,0.065169,0.0007469999999999999,0.010773999999999999,0.005717,-0.005952000000000001
272,-2.645498,-1.400783,-3.1063259999999997,-0.080509,0.985583,0.148749,0.074311,0.069392,0.001877,0.012898,0.005567,-0.0035770000000000003
273,-2.639899,-1.402145,-3.10213,-0.080693,0.9858120000000001,0.147116,0.07753600000000001,0.07470700000000001,0.0018920000000000002,0.013921000000000001,0.003171,-0.00041799999999999997
274,-2.634457,-1.4035520000000001,-3.098117,-0.080818,0.9860469999999999,0.145459,0.078598,0.074699,0.002968,0.015586000000000001,0.0022489999999999997,0.0035280000000000003
275,-2.6289029999999998,-1.4049610000000001,-3.094061,-0.080941,0.986281,0.143795,0.077627,0.081075,0.00406,0.017633000000000003,0.002,0.007220999999999999
276,-2.6233299999999997,-1.406392,-3.090106,-0.081041,0.986516,0.14211400000000002,0.079765,0.084255,0.006208,0.010546,0.004756,0.002601
277,-2.617731,-1.407858,-3.086096,-0.081111,0.9867549999999999,0.140403,0.08189400000000001,0.083183,0.006224,0.008981999999999999,0.004151,-0.002982
278,-2.611615,-1.4094,-3.081611,-0.081197,0.9870040000000001,0.13858900000000002,0.09044400000000001,0.084227,0.004146,0.007679999999999999,0.003368,-0.0055780000000000005
279,-2.60467,-1.411088,-3.076288,-0.081305,0.987274,0.13658800000000001,0.10005499999999999,0.086324,0.00421,0.00968,0.002045,2.4e-05
280,-2.5970169999999997,-1.412896,-3.070369,-0.08142100000000001,0.98756,0.134432,0.104332,0.090561,0.006371,0.006363000000000001,0.0009660000000000001,0.004454
281,-2.589109,-1.41476,-3.0641,-0.081514,0.987851,0.132214,0.10644200000000001,0.083105,0.004259000000000001,0.003038,0.002582,0.006915999999999999
282,-2.580325,-1.416633,-3.056712,-0.08168500000000001,0.98814,0.129923,0.111728,0.067129,-0.001025,0.002248,0.000599,0.000936
283,-2.570551,-1.418521,-3.048181,-0.081941,0.9884280000000001,0.127547,0.11711099999999999,0.072406,-0.007358,0.00583,-0.0014140000000000001,0.006273
284,-2.559974,-1.4204450000000002,-3.039043,-0.08223899999999999,0.988719,0.125082,0.120335,0.078782,-0.006275,0.0011539999999999999,-0.000666,0.012766
285,-2.549175,-1.422303,-3.029704,-0.082558,0.9889950000000001,0.12265999999999999,0.11499100000000001,0.07560900000000001,-0.007377,0.004417,-0.0020109999999999998,0.011328
286,-2.5381270000000002,-1.424069,-3.019886,-0.082914,0.9892549999999999,0.120298,0.11495799999999999,0.06497,-0.010568000000000001,0.0057810000000000005,-0.004239,0.011568
287,-2.526456,-1.425821,-3.00948,-0.083311,0.98951,0.117905,0.12035,0.07349,-0.014813999999999999,0.00575,-0.00135,0.010681
288,-2.513609,-1.427653,-2.9979,-0.083752,0.989772,0.115356,0.12565,0.066015,-0.014768,0.005718,-0.001049,0.009720999999999999
289,-2.500121,-1.429455,-2.985537,-0.084231,0.990028,0.112784,0.13099,0.062817,-0.018999000000000002,0.010027,0.001854,0.004724
290,-2.485059,-1.43137,-2.9715279999999997,-0.084761,0.990296,0.109999,0.140587,0.059596,-0.021064,0.011656,0.0015710000000000001,0.00815
291,-2.469191,-1.4333129999999998,-2.9566630000000003,-0.085296,0.9905639999999999,0.10713299999999999,0.145741,0.053128999999999996,-0.023136,0.008911,0.004324000000000001,0.0028829999999999997
292,-2.451938,-1.4353040000000001,-2.940216,-0.085876,0.990835,0.10412300000000001,0.15106,0.046731,-0.026295,0.008544,0.006220000000000001,0.002811
293,-2.4330540000000003,-1.4373479999999998,-2.922114,-0.086508,0.991109,0.100944,0.161743,0.047768,-0.028357999999999998,0.011129,0.000682,0.007317000000000001
294,-2.412826,-1.4394770000000001,-2.902814,-0.087126,0.99139,0.097598,0.167131,0.060528,-0.027268999999999998,0.007918000000000001,0.001637,0.009015
295,-2.3920169999999996,-1.441632,-2.88294,-0.08768200000000001,0.99167,0.0942,0.169207,0.05198200000000001,-0.022969999999999997,-0.00043799999999999997,0.007201000000000001,0.005745
296,-2.369482,-1.443897,-2.861171,-0.088214,0.991959,0.09059,0.185186,0.044476999999999996,-0.024985,0.0014529999999999999,0.009337999999999999,-0.001586
297,-2.343891,-1.446343,-2.8361560000000003,-0.088768,0.992266,0.08661,0.205423,0.035889,-0.025901,0.004235,0.008818000000000001,0.0008230000000000001
298,-2.314833,-1.44898,-2.807722,-0.089321,0.99259,0.082221,0.230003,0.04539,-0.025742,0.004039,0.00854,0.002206
299,-2.2819849999999997,-1.451885,-2.7754950000000003,-0.08978799999999999,0.9929379999999999,0.077361,0.24915900000000002,0.043158999999999996,-0.017059,0.000768,0.009717,0.008348000000000001
300,-2.246243,-1.455007,-2.740447,-0.090072,0.9933040000000001,0.072162,0.270492,0.051567999999999996,-0.007306999999999999,-0.012299,0.004575,0.008206
301,-2.205598,-1.458468,-2.70073,-0.090158,0.993698,0.066401,0.296115,0.06422699999999999,0.001401,-0.021247,0.007462000000000001,0.003332
302,-2.159052,-1.462108,-2.655463,-0.090135,0.994099,0.060123,0.317529,0.088624,0.008997,-0.022063,0.014537000000000001,-0.00023199999999999997
303,-2.104136,-1.4658209999999998,-2.6029970000000002,-0.090117,0.994495,0.053205999999999996,0.356286,0.17686400000000002,0.019837,-0.024812999999999998,-0.003452,-0.01779
304,-2.045963,-1.469809,-2.547023,-0.089526,0.9949049999999999,0.046058999999999996,0.359084,0.109652,0.042375,-0.032682,0.008298999999999999,-0.049325
305,-1.9795770000000001,-1.4739149999999999,-2.482339,-0.08863,0.9953110000000001,0.038393000000000004,0.388846,0.097778,0.055416999999999994,-0.03814,0.008519,-0.053270000000000005
306,-1.901974,-1.478082,-2.4059459999999997,-0.087413,0.995705,0.030056,0.434462,0.060252999999999994,0.07608,-0.038579,0.009970999999999999,-0.069012
307,-1.8053720000000002,-1.482438,-2.30954,-0.085681,0.996099,0.020475999999999998,0.510989,0.019411,0.100168,-0.052152,0.033564,-0.08263999999999999
308,-1.6807299999999998,-1.486613,-2.184346,-0.083423,0.996459,0.009208,0.595002,-0.015075,0.126436,-0.053311000000000004,0.054933,-0.084495
309,-1.526284,-1.48986,-2.0292380000000003,-0.080611,0.996726,-0.0035909999999999996,0.664296,0.0016120000000000002,0.15574100000000002,-0.047517000000000004,0.0924,-0.10874500000000001
310,-1.35037,-1.491492,-1.8535439999999999,-0.077152,0.996857,-0.017287,0.684724,0.066403,0.185711,0.017582,0.154602,-0.136201
311,-1.174741,-1.490011,-1.6785759999999998,-0.07431,0.9967389999999999,-0.031073000000000003,0.689737,-0.009231999999999999,0.18157,0.004867,0.092586,-0.16198099999999999
312,-0.999102,-1.4874530000000001,-1.49922,-0.069888,0.9965290000000001,-0.044963,0.720724,-0.19051700000000002,0.223681,0.078891,0.039756,-0.072697
313,-0.840533,-1.483108,-1.336941,-0.06514500000000001,0.996158,-0.05832999999999999,0.633352,-0.11796500000000001,0.271048,0.127187,-0.024905,0.046870999999999996
314,-0.714317,-1.47933,-1.2086569999999999,-0.059752,0.99582,-0.068913,0.48643100000000006,-0.084287,0.234727,0.074446,-0.102113,0.117253
315,-0.635141,-1.4737280000000001,-1.123742,-0.057428,0.995293,-0.07792,0.469316,-0.43853400000000003,0.127171,-0.051489,-0.129402,0.107079
316,-0.613989,-1.467209,-1.088964,-0.059508000000000005,0.99464,-0.084424,0.263177,-0.7573850000000001,-0.14305199999999998,-0.065049,-0.14086500000000002,0.097928
317,-0.655913,-1.4628709999999998,-1.115807,-0.06562799999999999,0.994182,-0.08527799999999999,-0.006116,-0.763315,-0.291272,-0.072052,-0.11100299999999999,0.08778
318,-0.735761,-1.460715,-1.1808100000000001,-0.073661,0.9939469999999999,-0.081362,-0.218096,-0.762283,-0.36539299999999997,-0.074884,-0.092046,0.07261799999999999
319,-0.8431639999999999,-1.459819,-1.273663,-0.082623,0.993848,-0.073589,-0.384272,-0.7423770000000001,-0.403967,-0.066852,-0.081586,0.011134999999999999
320,-0.955458,-1.458426,-1.372134,-0.091478,0.993693,-0.064665,-0.359729,-0.725483,-0.387794,-0.11375299999999999,-0.049128,-0.07594400000000001
321,-1.051046,-1.4549370000000001,-1.452626,-0.100244,0.993296,-0.057362,-0.245901,-0.812113,-0.400775,-0.129615,0.000479,-0.119975
322,-1.1240940000000001,-1.449655,-1.509522,-0.10889800000000001,0.9926709999999999,-0.052161,-0.134053,-0.827512,-0.376473,-0.10541199999999999,0.044194,-0.116998
323,-1.175902,-1.44422,-1.544643,-0.116434,0.992,-0.048527999999999995,-0.069435,-0.858917,-0.304411,-0.08811000000000001,0.035618000000000004,-0.11336800000000001
324,-1.2155690000000001,-1.439692,-1.567669,-0.12248099999999999,0.991418,-0.045436000000000004,-0.060029,-0.838966,-0.240277,-0.098039,0.052816999999999996,-0.143895
325,-1.2522309999999999,-1.435794,-1.5869950000000002,-0.127736,0.990901,-0.042127,-0.050806,-0.892387,-0.209166,-0.06631000000000001,0.075673,-0.19731400000000002
326,-1.273426,-1.432461,-1.591777,-0.131758,0.990447,-0.040378,0.058325,-0.7481939999999999,-0.132745,0.012739,-0.011886,-0.113446
327,-1.277328,-1.430517,-1.584503,-0.133757,0.9901770000000001,-0.040421,0.050711,-0.451326,-0.040243,0.031462000000000004,-0.069935,0.033661
328,-1.2923559999999998,-1.43071,-1.592225,-0.134164,0.9902040000000001,-0.038353,-0.143262,-0.351799,0.013822,-0.007345999999999999,-0.086594,0.105736
329,-1.3406799999999999,-1.4326290000000002,-1.63372,-0.134008,0.9904700000000001,-0.031394,-0.39407,-0.36374,0.020631,-0.092814,-0.098899,0.11681199999999999
330,-1.4205290000000002,-1.434584,-1.70655,-0.134169,0.9907370000000001,-0.020314,-0.558429,-0.41308900000000004,-0.016773,-0.180086,-0.058364,0.060002
331,-1.516319,-1.434993,-1.7935729999999999,-0.13509000000000002,0.990793,-0.007367,-0.590742,-0.512984,-0.048917,-0.174801,-0.043375,0.029552999999999996
332,-1.612241,-1.434636,-1.880184,-0.13552899999999998,0.9907440000000001,0.00562,-0.590828,-0.474864,0.008717,-0.066085,-0.052787,0.062815
333,-1.713279,-1.4350399999999999,-1.9748240000000001,-0.133873,0.990799,0.019205,-0.6695270000000001,-0.295057,0.132919,-0.049828,-0.005921,0.049628
334,-1.828591,-1.435409,-2.0861419999999997,-0.130418,0.990849,0.034386,-0.7634920000000001,-0.252362,0.193097,-0.051176,0.078929,0.023979
335,-1.9488029999999998,-1.4336010000000001,-2.201038,-0.127019,0.990603,0.05044,-0.754159,-0.37040500000000004,0.134561,-0.051601,0.110196,0.008093000000000001
336,-2.048083,-1.4287379999999998,-2.2913900000000003,-0.125671,0.989927,0.064993,-0.615788,-0.568522,0.008662999999999999,-0.049683,0.060839,-0.045004
337,-2.12046,-1.422634,-2.350428,-0.12579500000000002,0.989044,0.077067,-0.46696899999999997,-0.782787,-0.084027,-0.01187,0.039368,-0.162196
338,-2.173019,-1.4166159999999999,-2.385271,-0.126477,0.988138,0.08694099999999999,-0.33962600000000004,-0.9610270000000001,-0.109614,0.044659,0.015738,-0.179394
339,-2.215279,-1.411987,-2.409405,-0.126348,0.987416,0.094955,-0.27222199999999996,-0.8592350000000001,-0.049453,0.050405,0.002437,-0.0034939999999999997
340,-2.255988,-1.408295,-2.437627,-0.125202,0.986826,0.102325,-0.322185,-0.514183,0.018122,-0.014736,-0.041451999999999996,0.24951199999999998
341,-2.305864,-1.4034,-2.480538,-0.123527,0.986022,0.111679,-0.50698,-0.30271,0.041129,-0.07120499999999999,-0.014403000000000001,0.369446
342,-2.36835,-1.3959059999999999,-2.540559,-0.121473,0.9847459999999999,0.124463,-0.674094,-0.12884,0.128401,-0.127673,0.066188,0.167499
343,-2.436912,-1.3870049999999998,-2.605668,-0.118336,0.983158,0.139166,-0.742093,-0.322407,0.108946,-0.100368,0.101376,-0.250143
344,-2.4903150000000003,-1.378347,-2.651277,-0.115897,0.9815389999999999,0.152052,-0.413667,-0.43617100000000003,0.035542000000000004,0.019721000000000002,0.14040999999999998,-0.48400699999999997
345,-2.497862,-1.378313,-2.6539040000000003,-0.114766,0.981532,0.152948,0.14710399999999998,-0.087512,0.003761,0.059925,0.061818,-0.199731
346,-2.4827060000000003,-1.3820709999999998,-2.6422830000000004,-0.11481,0.982244,0.14827200000000001,0.225635,0.330719,0.041162,-0.042126,-0.017309,0.08415
347,-2.4635279999999997,-1.385925,-2.631688,-0.115256,0.9829600000000001,0.143092,0.199495,0.451179,0.042961,-0.13126500000000002,-0.059910000000000005,0.18121800000000002
348,-2.454111,-1.388304,-2.626098,-0.11511400000000001,0.9833940000000001,0.140193,0.058630999999999996,-0.043633,0.029793,-0.10461300000000001,-0.098492,0.146856
349,-2.467735,-1.387162,-2.6312450000000003,-0.11389400000000001,0.983187,0.142626,-0.140828,-0.57212,-0.036085,0.11445899999999999,-0.082857,0.126066
350,-2.488539,-1.383894,-2.6414869999999997,-0.112856,0.982584,0.147517,-0.207724,-0.464442,0.000698,0.214998,-0.066813,0.115071
351,-2.517371,-1.380524,-2.662842,-0.110491,0.9819530000000001,0.153395,-0.285605,-0.371863,0.09297000000000001,0.190645,-0.053623000000000004,0.133241
352,-2.553058,-1.376456,-2.6927849999999998,-0.10716500000000001,0.981175,0.16056199999999998,-0.348248,-0.272701,0.124452,0.038516,0.001491,0.128913
353,-2.584784,-1.372249,-2.720163,-0.104199,0.9803540000000001,0.16738499999999998,-0.29467,-0.24615399999999998,0.099155,-0.044757,-0.0019149999999999998,0.04665
354,-2.609434,-1.368844,-2.739577,-0.101735,0.979677,0.172778,-0.217937,-0.299545,0.06450800000000001,-0.050837,-0.003954,0.003461
355,-2.629169,-1.366411,-2.7528200000000003,-0.099475,0.9791860000000001,0.17683,-0.145616,-0.363659,0.051209000000000005,0.021365000000000002,0.002107,0.022358000000000003
356,-2.646436,-1.365057,-2.763003,-0.097037,0.9789100000000001,0.17968800000000001,-0.077337,-0.35328699999999996,0.062354999999999994,0.079886,0.021654,0.049331
357,-2.662032,-1.364782,-2.7731,-0.094347,0.9788540000000001,0.181418,-0.054616,-0.231069,0.1147,0.11540399999999999,0.023618,0.047510000000000004
358,-2.680205,-1.364961,-2.7889369999999998,-0.090956,0.978891,0.182945,-0.068102,-0.088505,0.17210699999999998,0.13716,0.017386000000000002,0.049507
359,-2.701231,-1.365452,-2.809239,-0.086885,0.978991,0.184383,-0.067035,-0.052435,0.208387,0.10222,-0.0007650000000000001,0.030063999999999997
360,-2.7241470000000003,-1.365918,-2.8309,-0.082453,0.979086,0.185909,-0.067241,-0.10779000000000001,0.19884300000000002,0.08227000000000001,-0.011236,0.026341000000000003
361,-2.7451849999999998,-1.366128,-2.849367,-0.078445,0.9791280000000001,0.18741300000000002,-0.060926,-0.172611,0.15303699999999998,0.06793099999999999,-0.009722,0.023418
362,-2.765309,-1.365836,-2.865498,-0.074763,0.9790690000000001,0.189221,-0.071609,-0.224575,0.10389000000000001,0.058115999999999994,-0.005879,0.02515
363,-2.778813,-1.364948,-2.87488,-0.07251,0.9788879999999999,0.191027,-0.077699,-0.201995,0.05681699999999999,0.055862,-0.005698,0.023344
364,-2.7893310000000002,-1.3638299999999999,-2.881912,-0.070874,0.9786590000000001,0.192806,-0.06867000000000001,-0.172852,0.021606,0.069944,-2.1e-05,0.003147
365,-2.797055,-1.362829,-2.886115,-0.069714,0.978453,0.19427,-0.058035,-0.18246800000000002,0.019556,0.068966,0.022921,0.012853
366,-2.806163,-1.3617139999999999,-2.891674,-0.068301,0.9782219999999999,0.195927,-0.074071,-0.170771,0.038657,0.048174,0.023152000000000002,-0.011265
367,-2.815689,-1.360637,-2.899093,-0.066768,0.9779979999999999,0.19756500000000002,-0.07264,-0.069656,0.058834000000000004,0.024471,0.03186,-0.043924
368,-2.824976,-1.359919,-2.908095,-0.065149,0.9778479999999999,0.19884300000000002,-0.058588999999999995,-0.009065,0.07915,0.000391,0.028850999999999998,-0.050559
369,-2.834972,-1.35944,-2.91767,-0.063299,0.9777469999999999,0.199929,-0.048141,-0.050677,0.086754,-0.0051979999999999995,0.025883999999999997,-0.050149
370,-2.8453459999999997,-1.359386,-2.926349,-0.061236,0.977736,0.200624,-0.01847,-0.114621,0.067815,0.017947,-0.00685,-0.004061
371,-2.8535619999999997,-1.3595709999999999,-2.9317849999999996,-0.059534000000000004,0.977775,0.200946,-0.011131,-0.16356800000000002,0.047633,0.043421,-0.01226,0.055416999999999994
372,-2.861176,-1.3596979999999999,-2.935627,-0.05796799999999999,0.977801,0.201274,-0.011275,-0.205075,0.038071,0.061416,-0.016818,0.09022999999999999
373,-2.8685099999999997,-1.359876,-2.939299,-0.05644299999999999,0.9778389999999999,0.201524,-0.0047350000000000005,-0.166778,0.045545999999999996,0.059327,-0.0027559999999999998,0.12090899999999999
374,-2.876147,-1.360034,-2.94468,-0.054861,0.977872,0.201799,-0.016183000000000003,-0.089028,0.059253,0.014669999999999999,-0.00462,0.10015700000000001
375,-2.8830810000000002,-1.359738,-2.950727,-0.053535,0.9778100000000001,0.202456,-0.028658999999999997,-0.027155000000000002,0.048404,-0.023293,-0.001736,0.046338
376,-2.887887,-1.359473,-2.955575,-0.052627,0.9777540000000001,0.202963,-0.011335,0.017573,0.036717,-0.032944,0.006453,0.018503
377,-2.89158,-1.3593469999999999,-2.9601740000000003,-0.051907,0.977728,0.203276,-0.0026609999999999997,0.053741,0.042073,-0.012759,0.005808,0.002947
378,-2.896162,-1.359366,-2.966561,-0.050970999999999995,0.9777319999999999,0.203493,-0.007909000000000001,0.109008,0.07828500000000001,-8.499999999999999e-05,0.007864,-0.012728
379,-2.9031,-1.35951,-2.976861,-0.049525,0.9777620000000001,0.203705,-0.012052,0.181282,0.123029,-0.003973,0.007573999999999999,-0.029648
380,-2.9106099999999997,-1.360158,-2.988457,-0.047848,0.9778979999999999,0.203455,0.018900999999999998,0.188614,0.12750799999999998,-0.005847,-0.004188,-0.029566000000000002
381,-2.916772,-1.361325,-2.998236,-0.04634,0.978141,0.20263299999999998,0.041243,0.151345,0.10421099999999998,0.006194,-0.006141,-0.010846
382,-2.921105,-1.362508,-3.005188,-0.045208,0.9783860000000001,0.201702,0.039051999999999996,0.105678,0.07114,0.025539,-0.0017170000000000002,0.012745000000000001
383,-2.923495,-1.363318,-3.009304,-0.044554,0.978554,0.201035,0.023006,0.0675,0.042234,0.050749,0.005928,0.021835
384,-2.925493,-1.363775,-3.012292,-0.044056,0.9786469999999999,0.200688,0.005855,0.043084,0.035737,0.059605,0.003561,0.021006999999999998
385,-2.928777,-1.363589,-3.01733,-0.043435,0.9786090000000001,0.201009,-0.040862,0.117718,0.059884,0.052194000000000004,0.011442,0.020991
386,-2.934298,-1.362486,-3.0269310000000003,-0.042547,0.978382,0.202301,-0.086325,0.242383,0.092521,0.022268,0.025738,-0.003998
387,-2.940073,-1.3612440000000001,-3.038761,-0.041621,0.978124,0.203733,-0.07756,0.30727899999999997,0.106386,0.006601999999999999,0.020304,-0.028058999999999997
388,-2.9456439999999997,-1.3606129999999999,-3.050537,-0.040606,0.977993,0.204567,-0.036052999999999995,0.28582399999999997,0.107772,-0.001356,0.011295999999999999,-0.034569
389,-2.949882,-1.360922,-3.060025,-0.039681,0.978057,0.204441,0.012869,0.23458800000000002,0.091088,-0.000938,0.008424,-0.028492
390,-2.952649,-1.361699,-3.067357,-0.038972,0.9782190000000001,0.20380299999999998,0.02781,0.214381,0.069854,0.008958,0.007942,-0.005148
391,-2.9531669999999997,-1.362519,-3.0718389999999998,-0.038716,0.978389,0.203033,0.032039,0.178257,0.042156,0.032077999999999995,0.0022789999999999998,0.028152999999999997
392,-2.952433,-1.3635190000000001,-3.074278,-0.038681,0.9785950000000001,0.202042,0.042602,0.147357,0.034791,0.022979,-0.009875,0.061126
393,-2.9529669999999997,-1.364378,-3.077956,-0.038415,0.978771,0.201236,0.026566000000000003,0.15481,0.049625,-0.009420999999999999,-0.015377000000000002,0.062465999999999994
394,-2.954379,-1.36468,-3.082169,-0.038076,0.978833,0.201,-0.004469,0.12088099999999999,0.036633,-0.024256,-0.029202,0.038304000000000005
395,-2.953307,-1.3645,-3.083313,-0.038324000000000004,0.9787959999999999,0.201129,-0.008588,0.106174,-0.011447,-0.004096,-0.020361,0.034253
396,-2.948756,-1.364075,-3.080405,-0.039318,0.978709,0.20135999999999998,-0.011788,0.072233,-0.045609,0.012431999999999999,-0.0014140000000000001,0.034328
397,-2.943705,-1.36327,-3.0764970000000003,-0.04049,0.9785440000000001,0.201931,-0.031054000000000002,0.057391,-0.046793,0.022545,0.0011769999999999999,0.001285
398,-2.938958,-1.362466,-3.0728779999999998,-0.041606,0.9783780000000001,0.202508,-0.021462000000000002,0.061592999999999995,-0.040322000000000004,0.03625,0.013779,-0.014962
399,-2.93474,-1.362057,-3.069557,-0.042542,0.9782930000000001,0.202722,0.0008029999999999999,0.035927,-0.034792000000000003,0.052598,0.026514,-0.008584999999999999
400,-2.9319669999999998,-1.3623020000000001,-3.067059,-0.043055,0.9783440000000001,0.20237,0.032612,0.010176000000000001,-0.016377000000000003,0.045663999999999996,0.028706,0.0021579999999999998
401,-2.930288,-1.363149,-3.065795,-0.04322,0.978519,0.201487,0.050802,0.035624,-0.002396,0.022499,0.012601000000000001,-0.0008789999999999999
402,-2.927896,-1.3643319999999999,-3.064611,-0.043456,0.9787620000000001,0.200251,0.064839,0.07498200000000001,-0.000212,0.014572,0.007704000000000001,0.00205
403,-2.925006,-1.365756,-3.06331,-0.043735,0.9790530000000001,0.198761,0.07237400000000001,0.084564,-0.0055130000000000005,0.017841,-0.005145,0.04152
404,-2.921223,-1.366974,-3.061398,-0.044225,0.9793,0.197427,0.056466999999999996,0.10380299999999999,-0.007784999999999999,0.027166000000000003,-0.002173,0.049201
405,-2.91728,-1.367876,-3.059817,-0.044806,0.979482,0.196388,0.042722,0.129427,-0.01005,0.035987,-0.0020039999999999997,0.049964999999999996
406,-2.9125520000000003,-1.3684450000000001,-3.057944,-0.045607999999999996,0.9795969999999999,0.195631,0.028987,0.152937,-0.016585,0.01599,-0.003019,0.039965
407,-2.907203,-1.368722,-3.055657,-0.04659,0.9796520000000001,0.19511900000000001,0.01407,0.153006,-0.020963,0.009588,-0.0014880000000000002,0.034373
408,-2.902177,-1.368657,-3.053664,-0.047585,0.9796389999999999,0.194943,0.005579,0.15944,-0.024235,-0.001823,-0.00619,0.016346
409,-2.896466,-1.368547,-3.051396,-0.048723,0.979617,0.19477,0.008918,0.182895,-0.031719,-0.000502,-0.000629,-0.005103
410,-2.8896610000000003,-1.368559,-3.0481380000000002,-0.050044,0.97962,0.19442,0.016396,0.180755,-0.035937000000000004,0.008372,0.004908,-0.007775
411,-2.882571,-1.3687719999999999,-3.04467,-0.051366999999999996,0.979662,0.193858,0.023873,0.188164,-0.030552999999999997,0.009665,0.006437000000000001,-0.017771000000000002
412,-2.874877,-1.36914,-3.0407319999999998,-0.052762,0.979736,0.193109,0.034589999999999996,0.191353,-0.03796,0.014493,0.011292,-0.02331
413,-2.86523,-1.369818,-3.034416,-0.054440999999999996,0.979872,0.19195,0.059061,0.15301099999999998,-0.061241,0.039991000000000006,0.010027,-0.012095
414,-2.854736,-1.370926,-3.025634,-0.05614500000000001,0.980092,0.190326,0.08770700000000001,0.059485,-0.075863,0.070839,0.011103,0.007123
415,-2.843814,-1.3722,-3.01511,-0.057852,0.980345,0.188504,0.087568,0.021165,-0.08329299999999999,0.076972,0.006562999999999999,0.011401999999999999
416,-2.8332490000000004,-1.3732209999999998,-3.004778,-0.059537,0.9805450000000001,0.186926,0.068379,0.025488999999999998,-0.08236399999999999,0.073361,0.003311,-0.0028899999999999998
417,-2.8237349999999997,-1.373775,-2.9958560000000003,-0.061141999999999995,0.9806540000000001,0.185833,0.046033,0.046838,-0.074002,0.066223,0.007139,-0.015300999999999999
418,-2.816227,-1.374097,-2.989427,-0.062434,0.9807170000000001,0.18507,0.02791,0.07131799999999999,-0.052795,0.057109,0.0032159999999999997,-0.027554000000000002
419,-2.811591,-1.374159,-2.986246,-0.063273,0.9807290000000001,0.184723,0.007611,0.081973,-0.035858999999999995,0.054697,0.0029289999999999997,-0.040436
420,-2.807778,-1.373939,-2.984541,-0.064046,0.9806860000000001,0.18468199999999999,-0.007209999999999999,0.12350699999999999,-0.019993,0.04627,0.011257,-0.043691
421,-2.804407,-1.373879,-2.983821,-0.064688,0.9806739999999999,0.18452000000000002,0.002411,0.137283,-0.010329000000000001,0.041235,0.015526,-0.052349
422,-2.802416,-1.3742940000000001,-2.9842470000000003,-0.064919,0.9807549999999999,0.184005,0.024662,0.110543,-0.0026620000000000003,0.042,0.016773,-0.049194
423,-2.798338,-1.375162,-2.98295,-0.06538200000000001,0.980925,0.182936,0.052573,0.156223,0.004952000000000001,0.036802,0.025667000000000002,-0.039655
424,-2.794295,-1.376781,-2.982037,-0.065579,0.9812379999999999,0.181174,0.087688,0.149653,0.019093000000000002,0.030133,0.016641,-0.022588999999999998
425,-2.791097,-1.379063,-2.981436,-0.065389,0.981675,0.178858,0.11523499999999999,0.127105,0.03961,0.024327,0.005370000000000001,0.006018
426,-2.790345,-1.381975,-2.983326,-0.064539,0.982226,0.176122,0.12996,0.11943800000000002,0.079247,0.006815000000000001,0.0016300000000000002,0.017756
427,-2.7895529999999997,-1.3848719999999999,-2.985393,-0.063695,0.982766,0.173395,0.11949800000000001,0.150427,0.064179,-0.013316,-0.001275,0.028479
428,-2.788347,-1.387369,-2.9872549999999998,-0.063054,0.983224,0.171013,0.103567,0.151608,0.049111,-0.026637,-0.009103,0.0018390000000000001
429,-2.785352,-1.389533,-2.986782,-0.062823,0.983617,0.168826,0.10669000000000001,0.106967,0.021417,-0.026563,-0.01151,0.002499
430,-2.779966,-1.391725,-2.9828360000000003,-0.062968,0.98401,0.166466,0.120425,0.052688,-0.002987,-0.017629,-0.012772,0.002571
431,-2.7754630000000002,-1.393865,-2.9780349999999998,-0.062961,0.9843879999999999,0.164211,0.12420899999999999,-0.061285,-0.009224,-0.006253,-0.003981,0.012165
432,-2.768764,-1.395729,-2.9704509999999997,-0.06339,0.984715,0.162072,0.098925,-0.003616,-0.023361,-0.006099,-0.005558,0.014411000000000002
433,-2.764021,-1.396758,-2.965994,-0.06378500000000001,0.984893,0.160828,0.038143,0.015721000000000002,-0.010992,-0.0006230000000000001,-0.001495,0.0051719999999999995
434,-2.762384,-1.396765,-2.964472,-0.064045,0.9848950000000001,0.160718,-0.003551,-0.001187,-0.009125,0.000508,0.019819999999999997,0.00047599999999999997
435,-2.761458,-1.396654,-2.9636419999999997,-0.064235,0.984876,0.16076,-0.000298,0.013703,-0.005917,-0.005132,0.015979,-0.004311
436,-2.7610330000000003,-1.396547,-2.963684,-0.064342,0.984857,0.160831,-0.0099,0.022224,0.0025510000000000003,-0.009175,0.009909000000000001,-0.012256
437,-2.760774,-1.39647,-2.963795,-0.064411,0.984844,0.160883,0.001807,0.010487,-0.002693,-0.018322,0.028187,-0.015863
438,-2.761564,-1.396331,-2.963849,-0.064335,0.98482,0.16105999999999998,-0.024186000000000003,-0.070405,0.00257,-0.008373,0.039381,-0.0443
439,-2.770658,-1.3947370000000001,-2.969951,-0.06343700000000001,0.984541,0.163102,-0.140327,-0.23103200000000002,0.045762,0.079321,0.06479,-0.100236
440,-2.7833759999999996,-1.391844,-2.977947,-0.062355999999999995,0.984031,0.16656400000000002,-0.12828,-0.193661,0.013751,0.079949,0.03988,-0.088469
441,-2.7833330000000003,-1.395237,-2.977103,-0.061191999999999996,0.9846290000000001,0.163432,0.346154,0.045135,0.091535,0.057803999999999994,0.040884,0.125539
442,-2.7827330000000003,-1.4039,-2.978483,-0.058289999999999995,0.9861049999999999,0.155397,0.373735,0.112802,0.195258,-0.050597,-0.11144100000000001,0.163024
443,-2.792605,-1.410368,-2.989048,-0.054568,0.987159,0.14996199999999998,0.198041,-0.06442200000000001,0.178235,-0.107526,-0.19007000000000002,0.09916799999999999
444,-2.8080830000000003,-1.413439,-2.999988,-0.051247,0.9876450000000001,0.147919,0.084263,-0.301244,0.09335399999999999,-0.112739,-0.08823099999999999,0.057754
445,-2.8174349999999997,-1.41541,-3.004084,-0.049241,0.987952,0.146545,0.097732,-0.200962,0.04525,-0.08937,0.02897,0.030182
446,-2.817041,-1.416902,-3.002462,-0.048826999999999995,0.988182,0.145125,0.060503999999999995,0.010298999999999999,-0.006556,-0.08281000000000001,0.048485,0.031587
447,-2.81212,-1.416903,-2.998933,-0.049541,0.988182,0.14488399999999999,0.00015800000000000002,0.092622,-0.028447000000000004,-0.094639,0.036644,0.047346
448,-2.8029509999999997,-1.415701,-2.991241,-0.051261,0.9879969999999999,0.145541,-0.037048000000000005,0.057859,-0.093824,-0.143975,0.005106,0.020123
449,-2.785508,-1.414145,-2.974379,-0.054327999999999994,0.9877549999999999,0.146067,-0.015475999999999998,0.031468,-0.172688,-0.099816,-0.006005,0.032202
450,-2.7624020000000002,-1.41246,-2.951828,-0.058303999999999995,0.987491,0.146319,-0.016350999999999997,0.056045000000000005,-0.190885,-0.041763,-0.053058,0.054227
451,-2.743073,-1.4102430000000001,-2.934006,-0.061971000000000005,0.987139,0.14718399999999998,-0.06970900000000001,0.097598,-0.146446,-0.058558000000000006,-0.049746,0.048846
452,-2.730334,-1.4072930000000001,-2.923404,-0.065006,0.986663,0.149053,-0.10707799999999999,0.12316700000000001,-0.114693,-0.079586,0.0070810000000000005,0.013909999999999999
453,-2.719115,-1.404691,-2.914834,-0.067728,0.9862360000000001,0.150658,-0.07710499999999999,0.15286,-0.107044,-0.056296000000000006,0.029251999999999997,-0.012337
454,-2.707583,-1.402665,-2.906747,-0.070302,0.985899,0.15168199999999998,-0.050332999999999996,0.18999100000000002,-0.09195,-0.027658999999999996,0.040605,-0.021677000000000002
455,-2.6971939999999996,-1.401419,-2.900143,-0.072402,0.98569,0.152053,-0.008878,0.187588,-0.059611000000000004,-0.031479,0.051664,-0.037413999999999996
456,-2.687046,-1.401683,-2.893561,-0.073827,0.985734,0.151076,0.067801,0.191444,-0.024897,-0.025431,0.030211000000000002,-0.020949000000000002
457,-2.677381,-1.403195,-2.8884220000000003,-0.074615,0.9859879999999999,0.14902,0.084972,0.249829,0.011468,-0.045014,0.011021,-0.007175
458,-2.669788,-1.404439,-2.885561,-0.075186,0.986194,0.14735399999999998,0.05609,0.225458,0.0038200000000000005,-0.042704,0.011746,-0.017563
459,-2.660778,-1.405776,-2.881567,-0.075899,0.9864149999999999,0.145499,0.088326,0.27966199999999997,0.00718,-0.028547000000000003,0.019322,0.005181
460,-2.650084,-1.4082059999999998,-2.877176,-0.076318,0.9868110000000001,0.14256300000000002,0.139622,0.326244,0.035253,-0.040855,0.05173200000000001,0.026856
461,-2.640088,-1.411089,-2.872288,-0.076369,0.987274,0.139294,0.138008,0.205869,0.036463999999999996,0.009765000000000001,0.002777,0.004047
462,-2.6385110000000003,-1.413518,-2.873965,-0.075431,0.987657,0.13707,0.090644,0.180194,0.104532,-0.058251,-0.092989,0.021987
463,-2.63424,-1.418012,-2.875966,-0.07385800000000001,0.988351,0.132864,0.252527,0.362822,0.113975,-0.15504,0.05966799999999999,0.09513300000000001
464,-2.623222,-1.422256,-2.870948,-0.073236,0.9889879999999999,0.128394,0.203274,0.26522399999999996,0.055002999999999996,0.010598999999999999,-0.059957,0.068597
465,-2.6074509999999997,-1.426939,-2.859518,-0.072892,0.98967,0.123233,0.242761,0.22698400000000002,0.055338,0.022690000000000002,-0.094391,0.080304
466,-2.594255,-1.431298,-2.8517799999999998,-0.072264,0.9902860000000001,0.118572,0.20668899999999998,0.283523,0.066764,-0.03731,-0.060797000000000004,0.048847
467,-2.5781080000000003,-1.434231,-2.8399509999999997,-0.072614,0.9906889999999999,0.11492899999999999,0.16175599999999998,0.179591,-0.010329000000000001,-0.021838,-0.078855,0.027542
468,-2.558135,-1.43523,-2.8225830000000003,-0.07435,0.990825,0.112631,0.062672,0.115336,-0.10601,-0.016516,-0.108302,0.016687
469,-2.543947,-1.43296,-2.80987,-0.077208,0.990516,0.113427,-0.10593499999999999,0.070263,-0.14345,-0.021103999999999998,-0.135047,-0.004021
470,-2.5380700000000003,-1.428547,-2.805978,-0.08035700000000001,0.9899,0.116574,-0.175032,0.120594,-0.149338,-0.070797,-0.064759,-0.026486000000000003
471,-2.52849,-1.424323,-2.798632,-0.083878,0.9892920000000001,0.11922200000000001,-0.11740199999999999,0.101312,-0.17241199999999998,-0.051512999999999996,-0.032917,-0.008015999999999999
472,-2.5168619999999997,-1.420831,-2.787674,-0.087282,0.988776,0.121045,-0.09771200000000001,-0.01068,-0.155039,-0.018461,-0.004661,0.018588999999999998
473,-2.5194900000000002,-1.416985,-2.788125,-0.08918200000000001,0.988194,0.124367,-0.206529,-0.168278,-0.076549,0.011698,0.051524,0.077309
474,-2.5417509999999996,-1.412037,-2.80527,-0.089154,0.987424,0.13036,-0.31311700000000003,-0.313066,-0.006605,-0.036608999999999996,0.097842,0.012402
475,-2.570343,-1.40709,-2.8285139999999998,-0.088034,0.9866299999999999,0.136968,-0.29056,-0.23555500000000001,0.03725,-0.049402,0.124393,-0.026402999999999996
476,-2.591891,-1.40439,-2.848211,-0.08645499999999999,0.986186,0.14110599999999998,-0.136184,-0.026409,0.081858,-0.041292,0.074879,-0.092583
477,-2.602919,-1.404945,-2.861724,-0.084612,0.9862780000000001,0.14157999999999998,0.023594,0.19020499999999999,0.11901600000000001,-0.079084,0.029393,-0.06264700000000001
478,-2.604935,-1.407777,-2.868664,-0.082897,0.986742,0.139347,0.13051,0.235659,0.114363,-0.095372,0.011473,-0.050357
479,-2.600427,-1.4117620000000002,-2.868395,-0.081496,0.987381,0.135598,0.18172,0.21425999999999998,0.09338400000000001,-0.06149400000000001,0.002106,-0.040505
480,-2.59096,-1.4156950000000001,-2.863814,-0.080742,0.9879959999999999,0.13150599999999998,0.184251,0.27084,0.061282,-0.0064930000000000005,-0.010442,-0.056296000000000006
481,-2.576396,-1.4193559999999998,-2.855193,-0.080708,0.988555,0.12725699999999998,0.18772,0.309263,0.039893,0.043629,-0.014464,-0.0006389999999999999
482,-2.5615509999999997,-1.42249,-2.845733,-0.080888,0.989023,0.123451,0.149049,0.237015,0.025827999999999997,0.053177999999999996,-0.010751,0.050011
483,-2.5531349999999997,-1.424209,-2.8403549999999997,-0.080979,0.989275,0.121349,0.051438,0.10638199999999999,0.011427,0.056854999999999996,-0.013734999999999999,0.063542
484,-2.554855,-1.424,-2.8429849999999997,-0.080885,0.989245,0.12166099999999999,-0.068506,0.008783,0.013918999999999999,0.043226,-0.014269,0.041608
485,-2.568161,-1.422326,-2.855789,-0.08015800000000001,0.988999,0.124118,-0.146771,-0.04858,0.04122,0.025165,-0.012268000000000001,0.023847
486,-2.585728,-1.420132,-2.872172,-0.079112,0.9886719999999999,0.127353,-0.157554,-0.080475,0.034776,-0.030247000000000003,-0.001596,0.002987
487,-2.60207,-1.4177110000000002,-2.886231,-0.078252,0.9883049999999999,0.130685,-0.147087,-0.148596,0.011434999999999999,-0.048335,-0.008966,-0.005258
488,-2.615307,-1.415445,-2.896416,-0.07764299999999999,0.987957,0.133652,-0.12784,-0.141198,0.009424,-0.038964,-0.013866999999999999,-0.000717
489,-2.627309,-1.413473,-2.907196,-0.07699299999999999,0.98765,0.136272,-0.127414,-0.027291000000000003,0.028508999999999996,-0.042208999999999997,0.012167,0.012043
490,-2.637695,-1.4115,-2.917711,-0.076514,0.987339,0.13877,-0.12405999999999999,0.0036030000000000003,0.025287999999999998,-0.037712999999999997,0.018749000000000002,-0.032751999999999996
491,-2.645448,-1.4098959999999998,-2.925812,-0.07619,0.987083,0.140752,-0.083399,0.023727,0.019137,-0.015881,0.020087999999999998,-0.040838
492,-2.649581,-1.409284,-2.931465,-0.07589299999999999,0.986985,0.141598,-0.031912,0.10231,0.036488,0.016765000000000002,0.029539999999999997,-0.035336
493,-2.651621,-1.409402,-2.935913,-0.075549,0.9870040000000001,0.14165,-0.003078,0.110722,0.038814999999999995,0.031802,0.025172,-0.014147
494,-2.6535330000000004,-1.409616,-2.939432,-0.075179,0.9870389999999999,0.14160699999999998,-0.009695,0.056442,0.032429,0.049438,0.003989,-0.004416
495,-2.657172,-1.409569,-2.943588,-0.074685,0.987031,0.141922,-0.024846,0.003252,0.02705,0.060021000000000005,-4.7e-05,-0.00013700000000000002
496,-2.662498,-1.409197,-2.94827,-0.074098,0.9869709999999999,0.142644,-0.048591,-0.064813,0.019494,0.074922,-0.010485,-0.01267
497,-2.67048,-1.4083430000000001,-2.9538330000000004,-0.07334,0.986833,0.143982,-0.065006,-0.158492,0.017363,0.052679,-0.006441,-0.027587999999999998
498,-2.680556,-1.407294,-2.959845,-0.07234600000000001,0.986663,0.14564100000000002,-0.071719,-0.230895,0.014204,0.031422000000000005,0.0025329999999999997,-0.035961
499,-2.690423,-1.406172,-2.9645080000000004,-0.071389,0.9864799999999999,0.147345,-0.063323,-0.27879299999999996,-0.002768,0.022606,0.020676,-0.032706
500,-2.698756,-1.4052,-2.966768,-0.070569,0.9863200000000001,0.148801,-0.04532,-0.319294,-0.013271999999999999,0.022824,0.018318,-0.024686000000000003
501,-2.7062939999999998,-1.404475,-2.96767,-0.069746,0.9862,0.149975,-0.032609,-0.337457,-0.011023999999999999,0.019773,0.004385,-0.008969
502,-2.713742,-1.404043,-2.968483,-0.068803,0.986129,0.150877,-0.024065,-0.325807,-0.0013650000000000001,0.00821,-0.006529999999999999,0.014528999999999999
503,-2.7224720000000002,-1.403581,-2.9710360000000002,-0.067669,0.986052,0.151889,-0.042172,-0.303437,0.014503,-0.012058,-0.006117,0.021817
504,-2.7328759999999996,-1.402978,-2.9756299999999998,-0.066321,0.985952,0.15313,-0.043211,-0.286432,0.025156,-0.031197000000000003,0.009898,0.00576
505,-2.742081,-1.4028040000000002,-2.979899,-0.064975,0.985923,0.153891,-0.009859999999999999,-0.221579,0.028511,-0.040768,0.017541,0.009867
506,-2.747475,-1.403123,-2.981852,-0.064023,0.9859760000000001,0.153947,0.0172,-0.147057,0.016854,-0.044253,0.010057,0.032133999999999996
507,-2.7500880000000003,-1.403514,-2.9817560000000003,-0.063473,0.986041,0.153756,0.018387,-0.136344,0.000825,-0.040897,-0.003283,0.050193
508,-2.7511330000000003,-1.403612,-2.979865,-0.063275,0.986057,0.15373199999999998,0.006679999999999999,-0.145826,-0.015268,-0.029833999999999996,-0.008076,0.047715
509,-2.751216,-1.403476,-2.977263,-0.06331200000000001,0.986035,0.153858,-0.0006730000000000001,-0.12447799999999999,-0.019619,-0.013943,-0.015865999999999998,0.049053
510,-2.752491,-1.403166,-2.976258,-0.063231,0.9859829999999999,0.15422,-0.01881,-0.110621,-0.005877,-0.01082,-0.022619,0.051972000000000004
511,-2.7568759999999997,-1.402192,-2.978523,-0.062914,0.98582,0.155384,-0.064737,-0.107325,0.008753,-0.019514,-0.020366,0.031796
512,-2.763305,-1.400535,-2.983069,-0.06251699999999999,0.98554,0.157304,-0.097705,-0.088018,0.004225,-0.01898,-0.004705,0.000471
513,-2.7686509999999998,-1.398666,-2.987134,-0.062346000000000006,0.9852219999999999,0.15935,-0.092188,-0.054983000000000004,-0.003256,-0.004625,0.0020829999999999998,-0.014254
514,-2.7723970000000002,-1.396941,-2.989964,-0.062361,0.984925,0.161166,-0.07827100000000001,-0.049684,-0.008506999999999999,0.010024,0.009154,-0.018283
515,-2.775585,-1.395476,-2.99194,-0.062365,0.984671,0.162714,-0.066617,-0.066773,-0.0073349999999999995,0.020296,0.019205,-0.015024000000000001
516,-2.779171,-1.394432,-2.994133,-0.06214600000000001,0.9844879999999999,0.163901,-0.046423,-0.07115700000000001,0.00563,0.021787,0.019372,-0.013113
517,-2.783444,-1.3941270000000001,-2.997194,-0.061551,0.9844350000000001,0.164446,-0.013216,-0.056225,0.030424,0.020443,0.013383,-0.012469
518,-2.788807,-1.394568,-3.001661,-0.060517999999999995,0.984512,0.164366,0.015541,-0.046819,0.050908999999999996,0.017396000000000002,0.012847999999999998,-0.014571
519,-2.79465,-1.395489,-3.006592,-0.059248,0.9846729999999999,0.163864,0.031491000000000005,-0.052226999999999996,0.057437,0.012358,0.013252000000000002,-0.010529
520,-2.8005139999999997,-1.396662,-3.011459,-0.0579,0.984877,0.16312000000000001,0.045364999999999996,-0.051210000000000006,0.057533,0.009865,0.005449,0.008084000000000001
521,-2.805527,-1.398085,-3.015682,-0.056619,0.985123,0.16208499999999998,0.060368,-0.038471,0.055485,0.005944,0.002426,0.021143000000000002
522,-2.8100549999999997,-1.399521,-3.019549,-0.055424,0.985368,0.161001,0.052934,-0.036293,0.050089,-0.012249,0.001189,0.028696
523,-2.813327,-1.4007969999999998,-3.02236,-0.054491,0.985585,0.159992,0.055221000000000006,-0.013883000000000001,0.038326,-0.024793,0.006511,0.030743
524,-2.813968,-1.4021629999999998,-3.0234,-0.053956,0.985815,0.158752,0.066206,0.041533,0.023375999999999997,-0.064834,-0.003057,0.042297
525,-2.812386,-1.403376,-3.023443,-0.053819000000000006,0.9860180000000001,0.157533,0.051582,0.107645,0.019985,-0.075712,-0.0072120000000000005,0.046232999999999996
526,-2.811042,-1.4041270000000001,-3.025041,-0.05379,0.986143,0.15675899999999998,0.019801,0.165251,0.027167,-0.084714,-0.015547,0.043741
527,-2.81097,-1.403995,-3.028524,-0.053842999999999995,0.9861209999999999,0.156876,-0.029151999999999997,0.170546,0.028895,-0.055272,-0.015937,0.010329999999999999
528,-2.810828,-1.403014,-3.03127,-0.05417999999999999,0.985958,0.15778399999999998,-0.060148,0.121797,-0.007579000000000001,-0.026371,-0.006679000000000001,-0.0035479999999999995
529,-2.807719,-1.401849,-3.03,-0.055046000000000005,0.985762,0.158699,-0.034611,0.079207,-0.03512,0.011406,0.002977,-0.01371
530,-2.801836,-1.401142,-3.025163,-0.056211000000000004,0.985643,0.15903,-0.010265,0.031206,-0.040229,0.089308,0.004835,-0.015125
531,-2.799077,-1.400358,-3.022063,-0.05691,0.985511,0.159604,-0.040530000000000004,-0.041187,-0.025393000000000002,0.095439,-0.008216,-0.007779
532,-2.800086,-1.399125,-3.021788,-0.05715599999999999,0.985301,0.160806,-0.06312100000000001,-0.076288,-0.019096000000000002,0.085552,-0.011012000000000001,-0.011774
533,-2.8024720000000003,-1.397885,-3.0221259999999996,-0.057178,0.985088,0.16209400000000002,-0.060069000000000004,-0.114628,-0.024367,0.031757,-0.000621,-0.034973000000000004
534,-2.803886,-1.396706,-3.021072,-0.057333,0.984885,0.163269,-0.05155800000000001,-0.13059400000000002,-0.034969,0.022055,-0.002859,-0.039215
535,-2.805015,-1.395534,-3.018781,-0.05753,0.9846809999999999,0.164423,-0.04643,-0.18915099999999999,-0.047677,0.017399,-0.000916,-0.038232999999999996
536,-2.805371,-1.394684,-3.015384,-0.057747,0.984532,0.165232,-0.024949000000000002,-0.167877,-0.058236,-0.0025399999999999997,0.011545999999999999,0.007605
537,-2.802664,-1.39378,-3.009731,-0.05849,0.984374,0.165915,-0.035421,-0.132652,-0.0669,-0.018628,0.012346,-0.001212
538,-2.800291,-1.392423,-3.004925,-0.059330999999999995,0.9841340000000001,0.167035,-0.061987,-0.100635,-0.058580999999999994,-0.014094,-0.000354,-0.013486000000000001
539,-2.7989439999999997,-1.391046,-3.002439,-0.060011,0.9838879999999999,0.16823,-0.051079,-0.023006,-0.034035,-0.013597,-0.005113,-0.016786000000000002
540,-2.798132,-1.3901629999999998,-3.00216,-0.06044,0.9837299999999999,0.169,-0.039142,0.047158,-0.008405,-0.016128,0.010578,-0.002908
541,-2.799449,-1.389373,-3.004482,-0.060479,0.9835879999999999,0.169812,-0.053121,0.044986,0.013933000000000001,-0.026602999999999998,0.048929,0.002475
542,-2.801947,-1.388365,-3.0080259999999996,-0.060385,0.983406,0.170898,-0.049854,0.05670599999999999,0.010736,-0.009958,0.045127999999999995,0.002778
543,-2.801381,-1.3886690000000002,-3.0087330000000003,-0.060382000000000005,0.983461,0.17058199999999998,0.051522000000000005,0.0638,0.013572,0.018771,0.012556999999999999,0.026317
544,-2.798691,-1.390584,-3.007094,-0.060205999999999996,0.983806,0.168641,0.105769,0.039062,0.025733,0.029550999999999997,-0.035227999999999995,0.106216
545,-2.7989349999999997,-1.3919270000000001,-3.007118,-0.059721,0.9840459999999999,0.16741099999999998,0.028586,-0.046939,0.021031,0.011915,-0.027472000000000003,0.10569100000000001
546,-2.802833,-1.3912930000000001,-3.0087029999999997,-0.059274,0.983933,0.168229,-0.072015,-0.150848,-0.013722,-0.006125,-0.023041,0.075682
547,-2.805078,-1.388967,-3.008112,-0.059652,0.9835149999999999,0.170523,-0.11111099999999999,-0.11535999999999999,-0.063178,0.010976999999999999,-0.030069,-0.015646
548,-2.8020110000000003,-1.386428,-3.003837,-0.061007000000000006,0.983052,0.172693,-0.090318,-0.026904,-0.09092,0.012972,-0.026050999999999998,-0.044947
549,-2.7947759999999997,-1.3841729999999999,-2.9964459999999997,-0.06300800000000001,0.9826360000000001,0.174332,-0.07509400000000001,0.018923,-0.10903199999999999,0.014455,-0.018418,-0.0495
550,-2.785007,-1.3820780000000001,-2.987943,-0.065427,0.982245,0.17563900000000002,-0.048043999999999996,0.104047,-0.107884,0.027479000000000003,0.002435,-0.060908000000000004
551,-2.773216,-1.381349,-2.9785169999999996,-0.06775199999999999,0.982108,0.175524,0.029866000000000004,0.12926400000000002,-0.088144,0.031894,0.008217,-0.057299
552,-2.7611630000000003,-1.382221,-2.968297,-0.06954400000000001,0.9822719999999999,0.173898,0.084998,0.075713,-0.06419,0.04252,0.026105,-0.016457
553,-2.755073,-1.3830129999999998,-2.9628200000000002,-0.07030800000000001,0.9824209999999999,0.172749,0.029022000000000003,0.017109,-0.012163,0.06071,0.050142,-0.012074
554,-2.756968,-1.383549,-2.965195,-0.069783,0.9825200000000001,0.172395,0.006426,0.036114999999999994,0.049612,0.076573,0.051537,-0.030107
555,-2.7627450000000002,-1.384409,-2.97297,-0.068472,0.9826799999999999,0.172008,0.012,0.136044,0.096525,0.054816,0.04059,-0.011287
556,-2.769142,-1.3855600000000001,-2.983216,-0.066958,0.982893,0.17138599999999998,0.01757,0.197772,0.106098,0.000674,0.012819999999999998,-0.008895
557,-2.773602,-1.3865180000000001,-2.991192,-0.065853,0.9830690000000001,0.170802,0.018584,0.140427,0.06024500000000001,-0.055942,-0.009329,-0.025874
558,-2.772305,-1.38713,-2.991605,-0.065857,0.983181,0.170154,0.027094999999999998,0.056557,-0.018636,-0.067276,-0.025141999999999998,-0.028949000000000003
559,-2.765094,-1.387247,-2.985129,-0.06704,0.983202,0.169567,0.021952,0.044014,-0.07420399999999999,-0.03115,-0.022921,-0.007931
560,-2.755532,-1.386672,-2.976282,-0.06887,0.9830969999999999,0.169441,-0.011063,0.042058,-0.089387,0.013893,-0.021046000000000002,0.024102000000000002
561,-2.7482849999999996,-1.385416,-2.969553,-0.07057000000000001,0.982866,0.170079,-0.050719,0.022936,-0.068275,0.037932,-0.01668,0.054866
562,-2.746524,-1.3837409999999999,-2.9680459999999997,-0.071504,0.982556,0.171475,-0.08406,0.010081,-0.021488999999999998,0.058870000000000006,0.002856,0.059284
563,-2.750381,-1.382212,-2.972007,-0.071416,0.9822709999999999,0.17314200000000002,-0.081138,-0.002909,0.027686000000000002,0.038641,0.02426,-0.005219
564,-2.757625,-1.381621,-2.9792560000000003,-0.070379,0.98216,0.17419600000000002,-0.030081999999999998,-0.0032240000000000003,0.062226,0.025899000000000002,0.038135,-0.023546
565,-2.763056,-1.382414,-2.9851490000000003,-0.06914400000000001,0.982309,0.173852,0.042575,0.019962,0.061636,-0.003244,0.06861,-0.027993
566,-2.766725,-1.384174,-2.9880009999999997,-0.067872,0.9826360000000001,0.172494,0.10946600000000001,-0.072866,0.040857,-0.0075829999999999995,0.014968,-0.024362
567,-2.764145,-1.387478,-2.984995,-0.067118,0.983244,0.169295,0.184626,0.029156,0.036979000000000005,-0.008336,0.01436,-0.021163
568,-2.7600029999999998,-1.391089,-2.9824889999999997,-0.066495,0.9838959999999999,0.165717,0.162922,0.10573800000000001,0.040847,-0.025195,-0.025613999999999998,0.044992000000000004
569,-2.754875,-1.393967,-2.979058,-0.066275,0.984406,0.162747,0.127629,0.06440499999999999,0.018221,-0.033915,-0.029435000000000003,0.060885
570,-2.7499990000000003,-1.395899,-2.974686,-0.06634,0.9847440000000001,0.160662,0.082686,0.010331,-0.006593000000000001,-0.032109,-0.028980000000000002,0.076918
571,-2.746326,-1.396404,-2.970913,-0.06673899999999999,0.9848319999999999,0.159958,0.001614,-0.0074140000000000005,-0.027431999999999998,-0.038318,-0.023589,0.087463
572,-2.744598,-1.394901,-2.968977,-0.067588,0.9845700000000001,0.161209,-0.087897,-0.005946,-0.050492,-0.043389,-0.049237,0.10639900000000001
573,-2.743951,-1.392144,-2.968528,-0.068744,0.9840840000000001,0.163669,-0.143244,0.018765999999999998,-0.055183,-0.044217,-0.044997,0.10569400000000001
574,-2.745854,-1.3883729999999999,-2.970771,-0.069863,0.9834069999999999,0.16722599999999999,-0.201989,0.006179,-0.053440999999999995,-0.047751,-0.041848,0.097225
575,-2.749431,-1.383678,-2.974428,-0.07103,0.9825440000000001,0.171742,-0.218006,0.0041,-0.05248200000000001,-0.042755,-0.005524,0.039928
576,-2.751855,-1.379477,-2.977472,-0.07218200000000001,0.9817540000000001,0.175732,-0.185823,0.041281,-0.054440999999999996,-0.041542,0.013927000000000002,0.02547
577,-2.751897,-1.376061,-2.9783169999999997,-0.073449,0.9810989999999999,0.17883800000000002,-0.133508,0.051743,-0.051953,-0.047905,0.028606,0.0021620000000000003
578,-2.749123,-1.373813,-2.977224,-0.074788,0.980662,0.180672,-0.06501799999999999,0.104742,-0.045133,-0.030116000000000004,0.038564999999999995,-0.01252
579,-2.743996,-1.3730069999999999,-2.974838,-0.07602,0.980503,0.181015,-0.002991,0.157708,-0.024471,-0.01184,0.033809,-0.013244999999999998
580,-2.738381,-1.3731950000000002,-2.97263,-0.076962,0.98054,0.18041300000000002,0.030057,0.17136400000000002,-0.00503,0.008357999999999999,0.012502,-0.015451
581,-2.733669,-1.374008,-2.971247,-0.07749299999999999,0.9807,0.179314,0.046118,0.16609100000000002,0.011208,0.018884,0.009703,-0.009056
582,-2.730057,-1.375055,-2.970801,-0.07772899999999999,0.9809040000000001,0.17809,0.047051,0.14687,0.021921,0.026474,0.005241,0.000713
583,-2.728087,-1.375996,-2.97119,-0.077708,0.981086,0.177089,0.038305,0.098967,0.020853,0.010661,0.001168,-0.010356
584,-2.726403,-1.3768610000000001,-2.9711529999999997,-0.077663,0.981253,0.176181,0.039305,0.076623,0.013411000000000001,-0.0069310000000000005,-0.009101,-0.004321
585,-2.724501,-1.377604,-2.970597,-0.077703,0.9813959999999999,0.175367,0.033928,0.060688,0.006984999999999999,-0.014002,-0.011563,0.0033439999999999998
586,-2.7228529999999997,-1.378123,-2.969888,-0.07778600000000001,0.9814959999999999,0.174775,0.022144,0.041588,-0.0016190000000000002,-0.018268,-0.006000999999999999,0.011016
587,-2.721238,-1.378371,-2.968911,-0.077968,0.981543,0.174427,0.010375,0.029927999999999996,-0.005959000000000001,-0.018391,-0.001258,0.016278
588,-2.7196860000000003,-1.3784399999999999,-2.967852,-0.078211,0.981557,0.174244,0.003959000000000001,0.024633000000000002,-0.008133,-0.01653,0.000118,0.022259
589,-2.718476,-1.378378,-2.967151,-0.078447,0.9815450000000001,0.174205,-0.0008210000000000001,0.026938,-0.004535,-0.024107,0.007561,0.020131
590,-2.717587,-1.378355,-2.966997,-0.078611,0.98154,0.174156,0.000303,0.045022,0.000791,-0.029604000000000002,0.008603,0.0187
591,-2.716358,-1.3784,-2.966952,-0.078808,0.981549,0.17402,0.003585,0.066303,0.003991,-0.03017,0.0052369999999999995,0.00701
592,-2.714787,-1.378526,-2.966679,-0.07902999999999999,0.9815729999999999,0.173785,0.014244,0.063074,0.003002,-0.012232,-0.0016690000000000001,-0.001986
593,-2.7129209999999997,-1.378908,-2.965985,-0.079198,0.9816459999999999,0.173295,0.022755,0.056657000000000006,0.002001,-0.012492,-0.0010550000000000002,0.000762
594,-2.710803,-1.3791790000000002,-2.964906,-0.079454,0.9816969999999999,0.17288599999999998,0.013153999999999999,0.050325,-0.0044670000000000005,-0.008757,-0.00425,0.001598
595,-2.708705,-1.3791200000000001,-2.963702,-0.079841,0.9816860000000001,0.17277,-0.0017870000000000002,0.042946,-0.010971999999999999,0.004081,-0.008862,0.0035600000000000002
596,-2.707169,-1.378975,-2.963011,-0.080166,0.9816590000000001,0.172777,-0.006079,0.042939,-0.00566,0.002545,-0.002639,0.001982
597,-2.7066369999999997,-1.378766,-2.963259,-0.080344,0.981619,0.17292000000000002,-0.011036,0.035134,0.001051,0.00286,0.002909,-0.005089
598,-2.706871,-1.3786100000000001,-2.9641490000000004,-0.08037000000000001,0.9815889999999999,0.17307999999999998,-0.007873999999999999,0.034027999999999996,0.008553,0.004274,0.00921,-0.011703
599,-2.707194,-1.378708,-2.96524,-0.080273,0.981608,0.173018,0.007058,0.037154,0.012925999999999998,0.002072,0.007436,-0.002944
600,-2.707176,-1.3791579999999999,-2.9659169999999997,-0.08009,0.9816940000000001,0.17261600000000002,0.023032,0.033889999999999997,0.016246,0.0030629999999999998,0.005459,0.008445000000000001
601,-2.707073,-1.379764,-2.966339,-0.07985700000000001,0.981809,0.172067,0.028299,0.020018,0.017369,0.001732,0.002414,0.009085
602,-2.706903,-1.380541,-2.96659,-0.079565,0.9819559999999999,0.17136300000000002,0.037905,0.023171999999999998,0.019568000000000002,-0.002054,-0.001106,0.015068999999999999
603,-2.706456,-1.3814540000000002,-2.96647,-0.079264,0.9821280000000001,0.170514,0.041058,0.008264,0.015337,-0.002172,-0.002957,0.024738
604,-2.706402,-1.382187,-2.9662740000000003,-0.07896900000000001,0.982266,0.169855,0.030318,-0.012981999999999999,0.009948,-0.003886,-0.0060090000000000005,0.030539
605,-2.706714,-1.382617,-2.9662290000000002,-0.078738,0.9823459999999999,0.169497,0.014178999999999999,-0.018692,0.005704,-0.0045899999999999995,-0.011276999999999999,0.032727
606,-2.707225,-1.382751,-2.966325,-0.078596,0.9823709999999999,0.16941900000000001,0.002443,-0.023956,0.00028700000000000004,-0.006899,-0.01086,0.03482
607,-2.70776,-1.3825379999999998,-2.966148,-0.07859400000000001,0.982332,0.169651,-0.012555,-0.047302,-0.009401999999999999,-0.001057,-0.008882,0.028408
608,-2.708597,-1.382044,-2.965754,-0.07865499999999999,0.982239,0.170157,-0.02221,-0.064291,-0.014787999999999999,-0.0065650000000000005,-0.00705,0.027292
609,-2.7088200000000002,-1.381404,-2.964918,-0.07888200000000001,0.9821190000000001,0.170747,-0.023157,-0.046144,-0.023364,-0.008856000000000001,-0.010393000000000001,0.023024
610,-2.7087060000000003,-1.380581,-2.963693,-0.07924099999999999,0.9819629999999999,0.17147300000000001,-0.033868999999999996,-0.064182,-0.031961,-0.0048200000000000005,-0.005386,0.018713
611,-2.708759,-1.379549,-2.961912,-0.079657,0.981768,0.172397,-0.038275,-0.102486,-0.039421,0.008047,-0.003618,0.014279
612,-2.709136,-1.378563,-2.960098,-0.079997,0.9815799999999999,0.173305,-0.032993,-0.107857,-0.032968,0.012263,0.0037560000000000002,0.0040030000000000005
613,-2.7099189999999997,-1.377921,-2.95875,-0.080125,0.981457,0.173939,-0.017034,-0.104768,-0.020041,0.011689,0.008884,-0.000126
614,-2.711129,-1.377661,-2.957938,-0.08002000000000001,0.9814069999999999,0.174266,0.002151,-0.097425,-0.008166,0.00021600000000000002,0.017586,-0.008433
615,-2.711839,-1.377952,-2.956782,-0.079777,0.981463,0.174062,0.028845999999999997,-0.086887,-0.002652,-0.003017,0.016477000000000002,-0.010656
616,-2.7112950000000002,-1.378776,-2.954592,-0.07953400000000001,0.981621,0.173284,0.056628,-0.079519,-0.004604,0.006124,0.004051,-0.0028280000000000002
617,-2.709847,-1.37989,-2.951388,-0.079326,0.981833,0.172173,0.064053,-0.089132,-0.00454,0.008251,-0.002386,0.012855000000000002
618,-2.70923,-1.3808799999999999,-2.9488119999999998,-0.079024,0.9820200000000001,0.171239,0.049069,-0.095489,-0.000364,-3.2e-05,-0.009242,0.027415
619,-2.709277,-1.381521,-2.946978,-0.078751,0.9821409999999999,0.17066800000000001,0.026711000000000002,-0.093204,-0.0037340000000000003,-0.009323,-0.009973000000000001,0.022675999999999998
620,-2.710085,-1.381717,-2.945668,-0.07853099999999999,0.9821780000000001,0.17055399999999998,0.00745,-0.113347,-0.01132,-0.008795,0.0005650000000000001,0.00982
621,-2.710969,-1.381652,-2.944057,-0.07840599999999999,0.982166,0.170679,0.004201,-0.129294,-0.016663999999999998,-0.001916,0.003583,-0.003046
622,-2.71215,-1.381632,-2.942629,-0.078212,0.9821620000000001,0.17078800000000002,0.008478,-0.12081199999999999,-0.010235,-0.001591,0.00406,0.001727
623,-2.7129529999999997,-1.3818,-2.941496,-0.07800599999999999,0.982193,0.1707,0.017183,-0.083777,-0.002718,-0.003156,0.0035549999999999996,0.008713
624,-2.713963,-1.382032,-2.9408630000000002,-0.077739,0.982237,0.170571,0.008624,-0.08482999999999999,0.0014960000000000002,-0.007863,0.004763,0.002036
625,-2.715841,-1.382203,-2.940963,-0.077349,0.9822690000000001,0.17056500000000002,0.007519,-0.088043,0.006834000000000001,-0.004407,0.012039,-0.001574
626,-2.717435,-1.382602,-2.940857,-0.076917,0.9823440000000001,0.17033199999999998,0.027813,-0.080666,0.009103,0.000394,0.00635,-0.001143
627,-2.71794,-1.383405,-2.939874,-0.076507,0.9824940000000001,0.169652,0.045998000000000004,-0.072198,0.007081999999999999,0.005507,0.001469,0.00587
628,-2.71778,-1.3841780000000001,-2.937936,-0.076221,0.9826370000000001,0.168946,0.038458,-0.0977,-0.002552,0.011737000000000001,-0.008425,0.011947
629,-2.718372,-1.38465,-2.936385,-0.075929,0.982725,0.168567,0.022417,-0.10510499999999999,-0.001586,0.006014,-0.011015,0.018155
630,-2.719364,-1.3848989999999999,-2.935667,-0.07566200000000001,0.982771,0.168419,0.007615,-0.074165,-0.000661,-0.009497,-0.015455000000000002,0.017082
631,-2.720877,-1.384782,-2.935793,-0.075455,0.982749,0.16864,-0.013528,-0.071477,-0.003832,-0.016998,0.0011070000000000001,-0.0068200000000000005
632,-2.722459,-1.384334,-2.93577,-0.07536699999999999,0.982666,0.16916099999999998,-0.018862,-0.08100800000000001,-0.013471,-0.007,0.008194,-0.007128
633,-2.7229919999999996,-1.384112,-2.934945,-0.075366,0.982625,0.169401,0.003638,-0.054476,-0.008006999999999998,-0.006634999999999999,0.007670000000000001,0.001849
634,-2.72282,-1.384253,-2.934041,-0.075338,0.982651,0.169261,0.012269,-0.026833999999999997,-0.001572,-0.009455,0.007506999999999999,0.00359
635,-2.722807,-1.38449,-2.93341,-0.07524600000000001,0.9826950000000001,0.169047,0.015412,-0.034324,0.0038,-0.0034289999999999998,0.004075,0.008245
636,-2.723131,-1.384949,-2.933104,-0.075008,0.9827799999999999,0.16866,0.02609,-0.026925,0.009207,0.001033,0.002648,0.016491
637,-2.723651,-1.38561,-2.933189,-0.074656,0.982902,0.168104,0.029286000000000003,-0.021636000000000002,0.015631,-0.004018,-0.00196,0.021363999999999998
638,-2.724519,-1.386168,-2.933547,-0.07428799999999999,0.9830049999999999,0.167667,0.021784,-0.030126999999999998,0.014522,-0.008948999999999999,-0.004413,0.023754
639,-2.7253439999999998,-1.386633,-2.9336759999999997,-0.073965,0.9830899999999999,0.167311,0.020663,-0.036616,0.008145999999999999,-0.009241,-0.0026969999999999997,0.021913
640,-2.725998,-1.386935,-2.933503,-0.07373500000000001,0.983145,0.16708699999999999,0.012109,-0.046152,0.002757,-0.002482,-0.005377000000000001,0.024243
641,-2.726989,-1.3869129999999998,-2.9334029999999998,-0.07357899999999999,0.9831409999999999,0.167181,-0.004985,-0.056724000000000004,-0.0026899999999999997,-0.009353,-0.0076159999999999995,0.020548
642,-2.7281419999999996,-1.386584,-2.933624,-0.073516,0.983081,0.167562,-0.018763,-0.038557,-0.004946,-0.020981,-0.009036,0.013102
643,-2.728828,-1.386085,-2.933704,-0.073598,0.9829889999999999,0.16806300000000002,-0.022959,-0.028929000000000003,-0.011397,-0.020701,-0.0076170000000000005,0.017011000000000002
644,-2.728901,-1.385473,-2.933113,-0.07382799999999999,0.982877,0.168621,-0.024021,-0.036348,-0.01994,-0.009653,-0.004102000000000001,0.014851
645,-2.729129,-1.384703,-2.9324209999999997,-0.07409299999999999,0.982735,0.16933199999999998,-0.034752,-0.051221,-0.021064,0.000393,0.002113,0.015437000000000001
646,-2.729658,-1.383782,-2.931963,-0.074367,0.982564,0.170202,-0.041124,-0.042685,-0.018983,-0.009098,0.0010789999999999999,0.024607
647,-2.730469,-1.382926,-2.932188,-0.07456499999999999,0.982404,0.171034,-0.038854,-0.022497,-0.011304,-0.02451,-0.002012,0.016268
648,-2.731257,-1.382108,-2.932773,-0.074752,0.982251,0.17183199999999998,-0.036657999999999996,-0.007595,-0.010239,-0.022889,0.007403,-0.013475999999999998
649,-2.7314,-1.38166,-2.932706,-0.074904,0.982167,0.172248,-0.004671,-0.010907,-0.008943000000000001,0.005141,0.010707,-0.023979
650,-2.730312,-1.382017,-2.9315189999999998,-0.074951,0.982234,0.171844,0.036922,-0.000455,0.005221,0.022628,0.008748,-0.011169
651,-2.729922,-1.3830879999999999,-2.931298,-0.074597,0.982434,0.170852,0.056077999999999996,0.011106,0.027772,0.016843,0.003985,0.006470999999999999
652,-2.73063,-1.384352,-2.9321,-0.07397999999999999,0.98267,0.169765,0.051715,-0.001696,0.036304,0.006841,0.008084000000000001,0.020572999999999998
653,-2.731808,-1.3855389999999999,-2.933252,-0.073314,0.9828889999999999,0.168781,0.047462,-0.0037909999999999997,0.030936,-0.008076,-0.006113,0.017544
654,-2.733152,-1.38644,-2.934155,-0.072736,0.9830540000000001,0.168067,0.031396,-0.029254000000000002,0.019106,-0.016818,-0.01609,0.014367
655,-2.733699,-1.386995,-2.934113,-0.07242699999999999,0.9831559999999999,0.167606,0.024838,-0.033408999999999994,0.0032649999999999997,-0.025458,0.000822,-0.0036810000000000002
656,-2.734023,-1.387271,-2.9333810000000002,-0.072266,0.9832059999999999,0.167381,0.011945,-0.059971000000000003,-0.0032,-0.012268000000000001,-0.0015480000000000001,0.00512
657,-2.733715,-1.387443,-2.932334,-0.072251,0.983238,0.167205,0.013231999999999999,-0.010971999999999999,-0.003254,-0.010116,-0.003776,0.010056
658,-2.732656,-1.3877680000000001,-2.931918,-0.0723,0.983297,0.16683399999999998,0.023059,0.049672,0.007418999999999999,-0.02061,0.013696999999999999,-0.013209
659,-2.7305189999999997,-1.388439,-2.9309689999999997,-0.072393,0.983419,0.166074,0.045545,0.065581,0.00542,0.00057,0.020258,-0.026273
660,-2.726448,-1.389753,-2.928297,-0.072546,0.983656,0.16459300000000002,0.083971,0.070769,0.00675,0.013953,0.006670000000000001,-0.009182
661,-2.722276,-1.391438,-2.9250580000000004,-0.072556,0.983958,0.162771,0.086961,0.029191,0.012165,0.001526,-0.009959,0.061808
662,-2.720915,-1.392567,-2.923339,-0.072323,0.984159,0.161658,0.035443999999999996,-0.04199,0.008692,-0.007953,-0.022276,0.08025499999999999
663,-2.722216,-1.3926450000000001,-2.9236009999999997,-0.07208200000000001,0.984173,0.161682,-0.016096,-0.047518,0.0010199999999999999,-0.010971999999999999,-0.026699,0.070023
664,-2.724815,-1.3920350000000001,-2.9256849999999996,-0.071905,0.984065,0.162419,-0.046925,-0.017603,0.006108,-0.017725,-0.017207,0.046794
665,-2.728878,-1.390854,-2.9293970000000003,-0.071711,0.9838540000000001,0.163775,-0.072558,-0.023905000000000003,0.005937,-0.0333,-0.005338,0.023954
666,-2.733287,-1.389327,-2.93329,-0.071585,0.9835799999999999,0.16547,-0.07788300000000001,-0.028122,-0.000504,-0.033502,0.0019089999999999999,0.0035210000000000003
667,-2.735952,-1.3880190000000001,-2.93577,-0.071653,0.9833430000000001,0.166845,-0.052114999999999995,0.0037630000000000003,-0.004638000000000001,-0.028735000000000004,0.011256,-0.008489
668,-2.736575,-1.387357,-2.9371389999999997,-0.071806,0.9832219999999999,0.16749,-0.015655000000000002,0.05367,0.004099,-0.013704,0.025643,-0.034586
669,-2.735722,-1.3877110000000001,-2.9376029999999997,-0.071812,0.9832870000000001,0.16710899999999998,0.035559,0.066227,0.016191,-0.004116,0.028356,-0.039896
670,-2.733272,-1.3892520000000002,-2.936681,-0.071618,0.9835659999999999,0.16554000000000002,0.09640800000000001,0.086208,0.028341,0.005273,0.027985000000000003,-0.037564
671,-2.729368,-1.391864,-2.934782,-0.071233,0.984034,0.162901,0.13981,0.108976,0.046867,0.014608000000000001,0.016622,0.008364
672,-2.7255979999999997,-1.394863,-2.933192,-0.070653,0.984564,0.159928,0.13871,0.102584,0.047935000000000005,0.010869,0.002146,0.019209999999999998
673,-2.722674,-1.397382,-2.931981,-0.070109,0.985001,0.157452,0.108804,0.08356,0.036001,0.007670000000000001,-0.009995,0.030857
674,-2.718983,-1.399383,-2.930128,-0.06988,0.985345,0.155391,0.084391,0.09224500000000001,0.016590999999999998,-0.0277,-0.034325,0.05365399999999999
675,-2.7158439999999997,-1.400318,-2.927979,-0.069987,0.985504,0.154332,0.027636,0.020107,-0.00935,-0.033283999999999994,-0.034881,0.046215
676,-2.714014,-1.399966,-2.925813,-0.070413,0.9854440000000001,0.15451900000000002,-0.026875,-0.023294,-0.031039999999999998,-0.029212000000000002,-0.035325,0.04647
677,-2.714252,-1.398672,-2.925779,-0.070906,0.985223,0.155698,-0.067363,-0.004007,-0.02387,-0.011781999999999999,-0.019937,0.062274
678,-2.7167220000000003,-1.396828,-2.928485,-0.07127,0.984906,0.157529,-0.10787000000000001,0.015262999999999999,-0.012426999999999999,-0.017398,-0.011502,0.053926999999999996
679,-2.7210099999999997,-1.394392,-2.933089,-0.071574,0.9844809999999999,0.160023,-0.127228,0.009385,-0.009224,-0.012319,0.010879999999999999,0.0065569999999999995
680,-2.725046,-1.392239,-2.937593,-0.071785,0.984101,0.162249,-0.096222,0.029495999999999998,-0.003692,-0.012032,0.024703,-0.017352
681,-2.727186,-1.39104,-2.940568,-0.071913,0.9838870000000001,0.163484,-0.043907999999999996,0.04314,0.001997,-0.011446,0.026779,-0.019868
682,-2.7270380000000003,-1.390772,-2.941573,-0.07204400000000001,0.9838389999999999,0.163715,0.007398,0.067449,0.005529,-0.002282,0.021394,-0.013034
683,-2.7247220000000003,-1.391368,-2.9409419999999997,-0.072186,0.9839459999999999,0.163011,0.040566000000000005,0.09288300000000001,0.010001000000000001,0.0030329999999999997,0.00992,-0.0032670000000000004
684,-2.721577,-1.3924290000000001,-2.939674,-0.07227,0.984135,0.161827,0.057622,0.092811,0.013325,0.008031,-0.004887,0.001961
685,-2.718411,-1.39361,-2.9382200000000003,-0.072304,0.9843430000000001,0.16053399999999998,0.056517,0.083231,0.012261,0.008612999999999999,-0.011275,0.018284
686,-2.7158450000000003,-1.394625,-2.937079,-0.07230199999999999,0.9845219999999999,0.159437,0.043633,0.065167,0.012194,0.0074069999999999995,-0.01005,0.024996
687,-2.7146470000000003,-1.395216,-2.936884,-0.072252,0.984625,0.158821,0.016630000000000002,0.038726,0.009913,0.002123,-0.009268,0.019264
688,-2.714862,-1.395253,-2.9374830000000003,-0.07220399999999999,0.984632,0.158804,-0.008023,0.00688,0.003372,-0.0033729999999999997,-5.7999999999999994e-05,0.004907
689,-2.715358,-1.39506,-2.9380330000000003,-0.072203,0.984598,0.15901300000000002,-0.0069370000000000005,0.004771,-0.0030269999999999997,-0.008638,0.0028899999999999998,0.006620999999999999
690,-2.714904,-1.394981,-2.9377880000000003,-0.072308,0.984584,0.159052,0.0005740000000000001,0.013271000000000002,-0.004053,-0.008823000000000001,0.001713,0.008764
691,-2.7145259999999998,-1.39493,-2.937725,-0.072388,0.984575,0.15906900000000002,-0.000492,0.017519,0.000207,-0.007019,0.004881,0.007908
692,-2.714466,-1.394923,-2.93815,-0.072401,0.984574,0.15907000000000002,-0.00046399999999999995,0.029216000000000002,0.005533,-0.0027949999999999997,0.0041340000000000005,-0.001157
693,-2.7145509999999997,-1.395108,-2.938915,-0.072312,0.984606,0.158911,0.0102,0.035539999999999995,0.013077000000000002,-0.005478,0.005796,-0.002493
694,-2.7142049999999998,-1.395521,-2.9392169999999997,-0.072198,0.9846790000000001,0.15851600000000002,0.022979,0.028047000000000002,0.011039,-0.003012,0.000475,0.002967
695,-2.713341,-1.396017,-2.9388970000000003,-0.072132,0.984765,0.15800899999999998,0.025725,0.029795,0.007781000000000001,-0.001934,-0.000161,0.011806
696,-2.7121880000000003,-1.396554,-2.9384080000000004,-0.072094,0.984858,0.157444,0.025744,0.032995,0.0067090000000000006,-0.004063000000000001,-0.000956,0.015483000000000002
697,-2.711153,-1.396936,-2.937893,-0.0721,0.984924,0.157028,0.015037,0.020266,0.002378,0.001604,-0.005646,0.013581000000000001
698,-2.710476,-1.397094,-2.937333,-0.072141,0.984952,0.156838,0.006426,-0.002054,-0.002995,0.008451,-0.002682,0.011831999999999999
699,-2.710268,-1.3971120000000001,-2.9369490000000003,-0.072167,0.9849549999999999,0.156807,0.0021100000000000003,-0.01163,-0.001945,0.004936,-0.003525,0.016944999999999998
700,-2.710706,-1.397041,-2.9371150000000004,-0.072127,0.984942,0.156901,-0.006458,-0.014813,0.0022719999999999997,0.0037670000000000004,-0.003512,0.013585
701,-2.7118919999999997,-1.396854,-2.938,-0.072017,0.9849100000000001,0.157154,-0.010745000000000001,-0.015875999999999998,0.005449,-0.002568,0.002089,0.0019190000000000001
702,-2.7128229999999998,-1.3967379999999998,-2.938714,-0.07191900000000001,0.9848899999999999,0.157326,-0.005362,-0.008425,0.0022719999999999997,-0.001384,0.002598,-0.000588
703,-2.713409,-1.39673,-2.939094,-0.07182999999999999,0.9848889999999999,0.157374,0.001725,-0.014643000000000002,0.001092,-0.004312,0.002553,0.003575
704,-2.713634,-1.396774,-2.9389220000000003,-0.07177599999999999,0.9848959999999999,0.157351,0.0059689999999999995,-0.022106,-0.001005,-0.0027170000000000002,0.00028700000000000004,0.0037670000000000004
705,-2.7134240000000003,-1.396929,-2.938167,-0.071745,0.984923,0.157196,0.012351,-0.028512,-0.003089,0.0008990000000000001,-2.8999999999999997e-05,0.0053560000000000005
706,-2.713295,-1.397081,-2.93741,-0.07170399999999999,0.984949,0.157051,0.006992,-0.032758999999999996,-0.002053,0.0034049999999999996,-0.00042199999999999996,0.015571000000000002
707,-2.713693,-1.3971200000000001,-2.9371169999999998,-0.071626,0.9849559999999999,0.157046,-0.00048499999999999997,-0.033802,-0.001035,0.002702,-0.00022999999999999998,0.01956
708,-2.714691,-1.397022,-2.937346,-0.071509,0.9849389999999999,0.15720599999999998,-0.008001000000000001,-0.044429,-0.001074,-0.001611,-0.001373,0.008505
709,-2.715984,-1.396831,-2.937648,-0.071383,0.984906,0.157469,-0.008020999999999999,-0.050812,-0.003203,-0.0016300000000000002,0.001193,0.004122
710,-2.716724,-1.396726,-2.937409,-0.07131,0.9848879999999999,0.157617,-0.000529,-0.046572,-0.004224,-0.004404,-0.00062,0.01081
711,-2.71754,-1.3966020000000001,-2.937343,-0.07123099999999999,0.984866,0.15778599999999998,-0.007992,-0.043358999999999995,-0.002144,-0.004788000000000001,0.001004,0.01183
712,-2.718743,-1.396372,-2.937632,-0.071135,0.984827,0.15808,-0.010628,-0.046966,-0.002356,-0.007142,0.000296,0.007097
713,-2.719867,-1.39618,-2.937825,-0.071035,0.984793,0.158333,-0.005289,-0.045919,-0.00232,-0.0073030000000000005,-0.00025,0.011406
714,-2.7206740000000003,-1.396058,-2.93775,-0.07095599999999999,0.984772,0.1585,-0.004212,-0.044854000000000005,-0.003382,-0.009304999999999999,0.000198,0.015283000000000001
715,-2.721514,-1.395933,-2.937675,-0.070874,0.98475,0.158673,-0.0052840000000000005,-0.046976,-0.004455,-0.010043,-0.000558,0.016986
716,-2.722311,-1.39578,-2.937617,-0.070809,0.9847239999999999,0.158868,-0.0063219999999999995,-0.038459,-0.002337,-0.006095000000000001,0.001208,0.016959000000000002
717,-2.723171,-1.395607,-2.93777,-0.070742,0.9846940000000001,0.159084,-0.008437,-0.033129,-0.0012900000000000001,-0.003355,0.000566,0.020451
718,-2.724452,-1.395357,-2.9382919999999997,-0.070638,0.98465,0.159401,-0.013819,-0.041641000000000004,0.000819,-0.006631999999999999,-7.7e-05,0.017113
719,-2.72588,-1.395066,-2.938879,-0.070526,0.984599,0.15976300000000002,-0.014029,-0.043554,-0.001477,-0.009064000000000001,0.002309,0.010693000000000001
720,-2.726714,-1.394908,-2.938869,-0.07045499999999999,0.9845709999999999,0.159965,-0.003341,-0.041451999999999996,-0.003542,-0.007593000000000001,-0.002073,0.012551
721,-2.727293,-1.394817,-2.9387380000000003,-0.070398,0.984556,0.16008599999999998,-0.003312,-0.032938999999999996,-0.001416,-0.011358,0.000567,0.017496
722,-2.72845,-1.394666,-2.939212,-0.070274,0.9845290000000001,0.160306,-0.010814,-0.037186000000000004,0.0017420000000000003,-0.006203,-0.001314,0.011814
723,-2.7294549999999997,-1.394484,-2.939447,-0.070184,0.984497,0.16054100000000002,-0.0076040000000000005,-0.03825,-0.001439,-0.004843,-0.000641,0.015790000000000002
724,-2.730422,-1.3943709999999998,-2.939711,-0.070074,0.984477,0.16071,-0.004403,-0.035078,0.001784,-0.003123,0.000752,0.013774000000000002
725,-2.7315270000000003,-1.394223,-2.940079,-0.069954,0.9844510000000001,0.160922,-0.007613,-0.038258999999999994,0.000697,-0.004188,-0.0017239999999999998,0.016965
726,-2.732641,-1.394023,-2.940483,-0.069853,0.984416,0.16118,-0.009728,-0.035051,-0.00039,-0.0056170000000000005,-0.0024059999999999997,0.013928999999999999
727,-2.7339860000000002,-1.3937979999999999,-2.941097,-0.069725,0.9843770000000001,0.161478,-0.011063,-0.038087,0.001585,-0.009972,0.002592,0.008901000000000001
728,-2.735456,-1.393613,-2.941854,-0.06955900000000001,0.984344,0.161748,-0.008915000000000001,-0.032777,0.003729,-0.013281,0.000153,0.013087
729,-2.736532,-1.393502,-2.942346,-0.06942899999999999,0.984324,0.161925,-0.003547,-0.027461000000000003,0.0016239999999999998,-0.013609999999999999,0.000615,0.014299000000000001
730,-2.737295,-1.393433,-2.942536,-0.069332,0.9843120000000001,0.16204100000000002,-0.0024850000000000002,-0.030652,-0.0005009999999999999,-0.009235,-0.0036450000000000002,0.017218999999999998
731,-2.737892,-1.39336,-2.942509,-0.06926399999999999,0.9842989999999999,0.16215,-0.00248,-0.029586,-0.000503,-0.008342,-0.001115,0.016256
732,-2.738729,-1.3932360000000001,-2.9428650000000003,-0.069175,0.9842780000000001,0.16231800000000002,-0.007795000000000001,-0.023185,0.001588,-0.010308,-0.002268,0.01679
733,-2.739817,-1.393111,-2.9435439999999997,-0.069047,0.9842549999999999,0.16250499999999998,-0.006719,-0.017875,0.004794,-0.008284999999999999,0.000364,0.020569
734,-2.740855,-1.393002,-2.944398,-0.06891900000000001,0.9842360000000001,0.162675,-0.005599,-0.006161,0.004787,-0.012562,0.001451,0.018447
735,-2.741795,-1.392925,-2.9450990000000004,-0.068797,0.984223,0.16281099999999998,-0.004797999999999999,-0.016394,0.0036060000000000003,-0.008733,-0.002716,0.012665000000000001
736,-2.742191,-1.3929040000000001,-2.945185,-0.068741,0.9842190000000001,0.162858,0.001632,-0.013208000000000001,0.000443,-0.010329999999999999,-0.0009880000000000002,0.016692
737,-2.7423610000000003,-1.3929790000000002,-2.945209,-0.06868400000000001,0.984232,0.162803,0.005938000000000001,-0.002579,0.0025960000000000002,-0.014415,-0.0015970000000000001,0.025093999999999998
738,-2.74244,-1.393018,-2.945352,-0.06865700000000001,0.984239,0.162772,-0.000425,0.005966,0.0025399999999999997,-0.014168,-0.0032359999999999997,0.023156
739,-2.742741,-1.3929610000000001,-2.945721,-0.06863,0.9842290000000001,0.162846,-0.002578,0.000651,0.001464,-0.008076,-0.001242,0.016184999999999998
740,-2.742623,-1.392954,-2.945679,-0.068652,0.9842280000000001,0.162846,0.002785,0.004902,-0.000641,-0.0099,-0.002096,0.015650999999999998
741,-2.742294,-1.393011,-2.945392,-0.068685,0.984238,0.162773,0.0059759999999999995,0.002761,-0.000616,-0.009257,-0.000183,0.022606
742,-2.741909,-1.3930790000000002,-2.9450689999999997,-0.068722,0.98425,0.162685,0.0038469999999999997,0.003833,-0.0006320000000000001,-0.005039,-0.001568,0.026295
743,-2.742012,-1.393076,-2.945266,-0.06870599999999999,0.9842489999999999,0.162696,-0.000567,0.0058920000000000005,0.0035329999999999997,-0.007023000000000001,-0.000393,0.016488
744,-2.7423919999999997,-1.3931,-2.9456689999999996,-0.068635,0.9842540000000001,0.1627,0.00045700000000000005,-0.003699,0.0035520000000000005,-0.007033,0.001861,0.013768
745,-2.7426310000000003,-1.393125,-2.945718,-0.068587,0.984258,0.162695,0.003638,-0.011155,0.000379,-0.007142,-0.000386,0.011011
746,-2.742489,-1.393222,-2.9454439999999997,-0.068573,0.984275,0.162597,0.009011,-0.00159,0.0014730000000000001,-0.007645,0.0006190000000000001,0.016618
747,-2.742228,-1.393427,-2.945243,-0.068537,0.984311,0.162393,0.011159,0.00372,0.003617,-0.008688,-0.00018,0.018897
748,-2.741951,-1.393584,-2.944957,-0.068522,0.984339,0.162232,0.007944,-0.002647,0.000399,-0.007176999999999999,0.00057,0.007416
749,-2.7415439999999998,-1.393743,-2.9445330000000003,-0.068527,0.984367,0.16205799999999998,0.010102,0.002671,0.000407,-0.006653,-0.002082,0.013677000000000002
750,-2.741002,-1.3939350000000001,-2.944129,-0.06854099999999999,0.984401,0.161848,0.007992,0.008005,0.00038500000000000003,-0.007737999999999999,-0.003276,0.017702000000000002
751,-2.740641,-1.393975,-2.94387,-0.06858500000000001,0.984408,0.16178900000000002,0.002635,0.003141,-0.00074,-0.012424,-0.001574,0.021836
752,-2.7406639999999998,-1.393939,-2.943899,-0.068595,0.984401,0.161823,-0.002723,-0.001106,0.000296,-0.006540000000000001,-0.000164,0.012218999999999999
753,-2.740805,-1.393897,-2.944074,-0.068587,0.9843940000000001,0.161869,-0.001628,0.006343,0.001363,-0.003907,-0.001911,0.013409
754,-2.740691,-1.3938979999999999,-2.9441040000000003,-0.068605,0.9843940000000001,0.16186,0.001583,0.0074010000000000005,0.00031600000000000004,-0.00601,-0.000538,0.018133
755,-2.740643,-1.39385,-2.9440869999999997,-0.068632,0.9843860000000001,0.1619,-0.002723,-0.002167,-0.0007700000000000001,-0.0048850000000000005,-0.00043799999999999997,0.012537999999999999
756,-2.740609,-1.393846,-2.943998,-0.068638,0.9843850000000001,0.1619,0.0036729999999999996,-0.002193,0.000342,-0.003658,0.002447,0.005855
757,-2.740286,-1.393995,-2.943712,-0.068633,0.984411,0.161742,0.010089,0.003102,0.002517,-0.007951,0.002146,0.007981
758,-2.739983,-1.394183,-2.943451,-0.068609,0.9844440000000001,0.16155,0.009022,0.002045,0.001443,-0.008631,-0.0013050000000000002,0.015726
759,-2.7394,-1.394252,-2.942944,-0.068676,0.984456,0.161446,0.002664,0.0063490000000000005,-0.003948,-0.009876000000000001,-0.007116,0.026466000000000003
760,-2.738991,-1.394126,-2.942662,-0.06879099999999999,0.984434,0.16153199999999998,-0.007923000000000001,0.0049770000000000005,-0.005096,-0.014919,-0.008009,0.032314999999999997
761,-2.7390630000000002,-1.3937389999999998,-2.942784,-0.068928,0.984366,0.161888,-0.023934999999999998,0.00078,-0.007339,-0.016613,-0.009711,0.034417
762,-2.739484,-1.3929,-2.943235,-0.06918400000000001,0.984218,0.162678,-0.049497,0.00303,-0.014998,-0.014038,-0.013912,0.043163
763,-2.740486,-1.391685,-2.944196,-0.069488,0.984002,0.163849,-0.060217999999999994,-0.008651,-0.015058000000000002,-0.014862,-0.009454,0.042983999999999994
764,-2.742363,-1.39038,-2.945744,-0.06967999999999999,0.983769,0.165163,-0.06561499999999999,-0.018237,-0.01081,-0.020255000000000002,0.00088,0.032895999999999995
765,-2.744409,-1.3891040000000001,-2.9474650000000002,-0.069829,0.9835389999999999,0.166467,-0.05921799999999999,-0.017202000000000002,-0.00863,-0.021388,0.005062,0.014426
766,-2.745331,-1.388155,-2.948052,-0.070036,0.983367,0.167392,-0.030389,-0.016221,-0.012703,-0.0015279999999999998,0.007645,-0.009495
767,-2.744473,-1.387964,-2.946996,-0.070252,0.983333,0.167505,0.010333,-0.002806,-0.012459,0.001297,0.008656,-0.009683
768,-2.742484,-1.388268,-2.945019,-0.070469,0.9833879999999999,0.16709000000000002,0.027417,0.004574,-0.008076999999999999,0.005161,0.01237,-0.010718
769,-2.740294,-1.388719,-2.9429220000000003,-0.070662,0.9834700000000001,0.166527,0.031685000000000005,0.006681,-0.005913,0.011061,0.0047810000000000005,-0.007455
770,-2.73822,-1.389343,-2.940972,-0.070766,0.983583,0.16581600000000002,0.039148,0.008773,-0.002659,0.010723,-0.000566,-0.0025629999999999997
771,-2.7365,-1.390025,-2.939315,-0.070787,0.9837049999999999,0.165079,0.033750999999999996,-0.000813,0.0015890000000000001,0.002443,-0.004213000000000001,0.010916
772,-2.736066,-1.3905,-2.938582,-0.070674,0.983791,0.16461800000000001,0.017643,-0.022071,0.00364,-0.006108,-0.000194,0.0037630000000000003
773,-2.736514,-1.390751,-2.938402,-0.070503,0.983836,0.164422,0.009065,-0.033750999999999996,0.001458,-0.0084,0.002706,0.0020510000000000003
774,-2.736957,-1.391008,-2.938333,-0.07032999999999999,0.9838819999999999,0.16422,0.014457,-0.018864,0.0036130000000000003,-0.012495000000000001,-0.000102,0.007076000000000001
775,-2.7371689999999997,-1.3913010000000001,-2.938425,-0.07018200000000001,0.983934,0.16397,0.012477,0.0008609999999999999,0.00674,-0.016579,0.001082,0.009675
776,-2.737639,-1.39155,-2.939034,-0.070009,0.983978,0.163778,0.008232999999999999,0.010445999999999999,0.010971,-0.014952000000000002,0.0038759999999999997,0.007409999999999999
777,-2.737926,-1.391896,-2.939734,-0.069829,0.9840399999999999,0.163486,0.017883,0.025309,0.015291999999999998,-0.014583,0.005493,0.0055509999999999995
778,-2.7380299999999997,-1.3924379999999998,-2.940491,-0.069602,0.984136,0.163002,0.026442,0.033788,0.018546,-0.011926,0.004649,0.010261
779,-2.738157,-1.393124,-2.941347,-0.069316,0.984258,0.16239,0.030704000000000002,0.036952,0.022844,-0.009404000000000001,0.001124,0.010858
780,-2.73831,-1.393891,-2.9422770000000003,-0.068995,0.9843930000000001,0.161707,0.033919,0.040137,0.022862999999999998,-0.009633,-0.0032380000000000004,0.022192
781,-2.738297,-1.394707,-2.943072,-0.068682,0.9845360000000001,0.160966,0.032838,0.036945,0.022859,-0.007856,-0.006417,0.026258999999999998
782,-2.738686,-1.395382,-2.943998,-0.068358,0.9846540000000001,0.16038,0.024236,0.019939,0.020684,-0.007402,-0.00742,0.025472
783,-2.7392060000000003,-1.3958709999999999,-2.944852,-0.06808600000000001,0.9847389999999999,0.159974,0.017832,0.015016999999999999,0.014199000000000002,-0.009703,-0.004912,0.025297999999999998
784,-2.739682,-1.396156,-2.945642,-0.067901,0.9847889999999999,0.159749,0.008249,0.016128,0.010926,-0.01175,-0.0047020000000000005,0.02534
785,-2.740144,-1.396223,-2.94633,-0.067801,0.984801,0.15972,-0.000305,0.007653,0.0066040000000000005,-0.012017,-0.001448,0.021082
786,-2.740525,-1.396248,-2.946893,-0.067731,0.9848049999999999,0.159723,0.001834,0.006589,0.004484,-0.006991,-0.00046100000000000004,0.011358
787,-2.740624,-1.3963079999999999,-2.9471990000000003,-0.06769299999999999,0.984815,0.15967699999999999,0.005058,0.011904000000000001,0.0045,-0.00471,0.00197,0.011068999999999999
