,attitude.roll,attitude.pitch,attitude.yaw,gravity.x,gravity.y,gravity.z,rotationRate.x,rotationRate.y,rotationRate.z,userAcceleration.x,userAcceleration.y,userAcceleration.z
0,-0.32655300000000004,-1.401597,2.615704,-0.054016999999999996,0.98572,-0.159494,-0.016921000000000002,-0.008787,-0.00349,-0.003066,0.008421,0.003244
1,-0.328991,-1.401884,2.613465,-0.054314,0.985768,-0.159094,-0.010511,-0.009862000000000001,-0.00665,-0.005149,0.0045579999999999996,0.00038700000000000003
2,-0.33153299999999997,-1.401884,2.611105,-0.054719000000000004,0.985768,-0.158956,-0.005167000000000001,-0.011994,-0.010884,-0.002746,0.010692,-0.00265
3,-0.332475,-1.4020540000000001,2.610618,-0.054814,0.9857969999999999,-0.158745,-0.008464,-0.032227,-0.009811,0.005085,0.010068,0.002144
4,-0.332892,-1.4024889999999999,2.610887,-0.05474,0.98587,-0.158317,-0.010643000000000001,-0.03648,-0.005503,0.008597,0.005311,0.0034100000000000003
5,-0.333424,-1.402943,2.610948,-0.054676999999999996,0.9859459999999999,-0.157865,-0.012749,-0.026898000000000002,-0.0023239999999999997,0.00971,0.004273,0.006742000000000001
6,-0.33342,-1.4033790000000002,2.611269,-0.054536,0.9860180000000001,-0.15746,-0.00843,-0.009889,0.0030269999999999997,0.010942,0.007375,0.00449
7,-0.330984,-1.403765,2.613664,-0.054028999999999994,0.986083,-0.15723199999999998,-0.004115,0.0060539999999999995,0.008379000000000001,0.006696,0.005327,0.00024900000000000004
8,-0.330273,-1.403897,2.614182,-0.053875,0.9861049999999999,-0.157147,0.00018,0.012431000000000001,0.008401,-0.002003,0.003764,0.0033539999999999998
9,-0.329352,-1.4040059999999999,2.614856,-0.05369500000000001,0.986123,-0.157095,-0.000877,0.013503999999999999,0.007324,-0.0014810000000000001,0.00782,0.001349
10,-0.32807600000000003,-1.404012,2.61586,-0.05349299999999999,0.986124,-0.157158,0.0034,0.016681,0.008418,-0.001179,0.008887,-0.0016710000000000002
11,-0.326717,-1.4039469999999998,2.616804,-0.0533,0.9861129999999999,-0.15729100000000001,0.003443,0.025207,0.007339,-0.0016469999999999998,0.008669,-0.003445
12,-0.325889,-1.403936,2.6170869999999997,-0.053173000000000005,0.9861110000000001,-0.157346,0.00024300000000000002,0.029528,0.000936,-0.001179,0.009662,-0.0006129999999999999
13,-0.32645100000000005,-1.404622,2.616018,-0.053045,0.986225,-0.156675,-0.008319,0.024231,0.000883,-0.0014140000000000001,0.011288,0.010038
14,-0.327166,-1.405098,2.614777,-0.053006,0.986303,-0.156193,-0.015769,0.029580000000000002,0.0018920000000000002,-0.0034969999999999997,0.010140999999999999,0.009998
15,-0.329018,-1.405535,2.612232,-0.053154999999999994,0.986375,-0.155685,-0.018932,0.035991,-0.000276,-0.008307,0.010374,0.0007019999999999999
16,-0.33423400000000003,-1.40539,2.606475,-0.054014,0.986352,-0.155541,-0.018946,0.025366999999999997,-0.007744,-0.015948,0.00402,-0.0052710000000000005
17,-0.33735,-1.405433,2.6029709999999997,-0.054484000000000005,0.986359,-0.155332,-0.014691999999999998,0.016852000000000002,-0.013046,-0.015172,0.005615,-0.005755
18,-0.342486,-1.405249,2.5975740000000003,-0.055341999999999995,0.9863280000000001,-0.155221,-0.013628999999999999,0.008355,-0.020508000000000002,-0.011903,0.009581999999999999,-0.003379
19,-0.34821199999999997,-1.4053280000000001,2.591877,-0.056202999999999996,0.986341,-0.154829,-0.014759,-0.007612000000000001,-0.022634,-0.005229,0.00725,0.002653
20,-0.352121,-1.405529,2.588135,-0.05674,0.986374,-0.154422,-0.01807,-0.012936000000000001,-0.018347,-0.0058969999999999995,0.008605,0.004107
21,-0.357161,-1.406064,2.583339,-0.057333,0.9864620000000001,-0.153639,-0.026612,-0.01185,-0.016273,-0.00474,0.012348,0.006117
22,-0.360441,-1.4065889999999999,2.580216,-0.057654,0.986548,-0.15296600000000002,-0.037285000000000006,-0.010756,-0.014212,-0.00506,0.013635,0.005719
23,-0.36637800000000004,-1.407268,2.574598,-0.058321000000000005,0.9866590000000001,-0.151996,-0.042663,-0.022446999999999998,-0.016373,-0.008787,0.007558,0.000598
24,-0.373039,-1.4077309999999998,2.568553,-0.059165999999999996,0.986734,-0.151178,-0.035263,-0.038448,-0.01737,-0.016472,0.004385,0.000147
25,-0.38022100000000003,-1.40806,2.56224,-0.060129999999999996,0.9867879999999999,-0.150448,-0.036334,-0.047997000000000005,-0.025913,-0.015813,0.003172,-0.002078
26,-0.388831,-1.408383,2.5545869999999997,-0.061301,0.9868399999999999,-0.14962899999999998,-0.03633,-0.049054,-0.028051,-0.010064,0.005363000000000001,1.7e-05
27,-0.396032,-1.408779,2.5482970000000003,-0.062227,0.9869040000000001,-0.148824,-0.035273,-0.046944,-0.023774,-0.006484,0.014057,-0.000682
28,-0.401254,-1.4092209999999998,2.5441740000000004,-0.062833,0.986975,-0.148096,-0.037531,-0.067207,-0.016287,-0.003177,0.010797,-0.0036229999999999995
29,-0.4083,-1.409913,2.538654,-0.063604,0.987086,-0.147022,-0.042983999999999994,-0.079985,-0.01521,-0.006343,0.008107,0.0020329999999999997
30,-0.415529,-1.4104430000000001,2.5329330000000003,-0.064454,0.9871709999999999,-0.14608,-0.047217,-0.075696,-0.018451,-0.0061340000000000006,0.007397,-0.001991
31,-0.42352799999999996,-1.411029,2.526638,-0.06538200000000001,0.9872639999999999,-0.145032,-0.046213,-0.096975,-0.025896,-0.009584,0.009318,-0.001422
32,-0.432963,-1.411508,2.519464,-0.066549,0.98734,-0.14398,-0.044175,-0.126776,-0.03439,-0.009455,0.006068,-0.0010400000000000001
33,-0.447514,-1.4121629999999998,2.5075819999999998,-0.068357,0.9874440000000001,-0.142413,-0.046311,-0.134196,-0.041876,-0.014025,0.009641,0.007723000000000001
34,-0.45999300000000004,-1.4128020000000001,2.4976689999999997,-0.069849,0.9875450000000001,-0.140983,-0.049489,-0.133103,-0.046173,-0.010779,0.014454,0.009926
35,-0.474448,-1.413784,2.485878,-0.071437,0.987699,-0.139097,-0.054817,-0.135198,-0.050482,-0.0034840000000000006,0.014559,0.012083
36,-0.48743800000000004,-1.414636,2.475259,-0.07284299999999999,0.9878319999999999,-0.137413,-0.061183,-0.114934,-0.051598000000000005,0.0030800000000000003,0.014121000000000002,0.001411
37,-0.49867,-1.415447,2.46623,-0.07399800000000001,0.987958,-0.135882,-0.071881,-0.122349,-0.05273099999999999,0.007423999999999999,0.013217,-0.000684
38,-0.512192,-1.4165860000000001,2.455356,-0.075278,0.988133,-0.133889,-0.08799,-0.149973,-0.05708,0.00817,0.014629,0.003075
39,-0.528497,-1.418095,2.4418860000000002,-0.076699,0.9883639999999999,-0.131356,-0.096474,-0.144591,-0.063555,0.001702,0.008676,0.007271
40,-0.544485,-1.419126,2.428318,-0.078261,0.9885200000000001,-0.129241,-0.097412,-0.12006900000000001,-0.067865,0.003203,0.006094,-0.001832
41,-0.559546,-1.420123,2.415175,-0.079676,0.98867,-0.12721300000000002,-0.091991,-0.099852,-0.06678400000000001,0.008722,0.005196,-0.002273
42,-0.571184,-1.421102,2.405243,-0.080627,0.9888170000000001,-0.125462,-0.085566,-0.092425,-0.06461,0.013122,0.004149,-0.003276
43,-0.578619,-1.421934,2.399245,-0.081108,0.9889399999999999,-0.12417,-0.08018600000000001,-0.07436799999999999,-0.056045000000000005,0.014808000000000002,0.000775,-0.00881
44,-0.587771,-1.4227020000000001,2.391295,-0.08182,0.9890540000000001,-0.12279100000000001,-0.075941,-0.068037,-0.044271,0.019915000000000002,0.002294,-0.012051000000000001
45,-0.5921310000000001,-1.4236360000000001,2.388246,-0.081838,0.989192,-0.12166600000000001,-0.077193,-0.081934,-0.032482,0.020086,0.0038659999999999996,-0.011817
46,-0.594907,-1.424588,2.3870169999999997,-0.081648,0.989331,-0.12065899999999999,-0.075114,-0.088357,-0.026045999999999996,0.009611,0.005649,-0.009956
47,-0.6030810000000001,-1.425363,2.380462,-0.082197,0.9894430000000001,-0.11935599999999999,-0.06869199999999999,-0.084118,-0.026006,0.0075049999999999995,0.002012,-0.012938
48,-0.609661,-1.425827,2.3755040000000003,-0.082717,0.98951,-0.11843599999999999,-0.062284000000000006,-0.08944099999999999,-0.032362,0.005111,0.002845,-0.010104
49,-0.619388,-1.426452,2.3673580000000003,-0.083506,0.9896,-0.117122,-0.067536,-0.079801,-0.040956,0.002909,0.009331,-0.003361
50,-0.6313880000000001,-1.427223,2.356716,-0.08445599999999999,0.989711,-0.115496,-0.077076,-0.07122300000000001,-0.046375,0.004667,0.006856,-1.3000000000000001e-05
51,-0.644347,-1.4280540000000002,2.344934,-0.085451,0.9898299999999999,-0.11373399999999999,-0.080219,-0.062673,-0.05068,0.009294,0.006997,0.0036729999999999996
52,-0.655972,-1.429033,2.334189,-0.086176,0.9899680000000001,-0.11196500000000001,-0.07162400000000001,-0.037167,-0.048494999999999996,0.008189,0.007605,0.001934
53,-0.664719,-1.429625,2.3254479999999997,-0.086791,0.990052,-0.110746,-0.067179,0.010722,-0.039979,0.01036,0.0052640000000000004,-0.007081999999999999
54,-0.669469,-1.4305510000000001,2.320347,-0.086747,0.990182,-0.10961300000000002,-0.069379,0.006426,-0.029302999999999996,0.018571,0.0035770000000000003,-0.003668
55,-0.671604,-1.431876,2.31799,-0.086164,0.990366,-0.108401,-0.07365,0.007499,-0.027193000000000002,0.014844999999999999,0.0050869999999999995,-0.004957
56,-0.677852,-1.43266,2.311178,-0.086353,0.990474,-0.10725499999999999,-0.063966,0.029819,-0.02288,0.011295,0.004917,-0.00801
57,-0.679196,-1.433454,2.3089009999999996,-0.086003,0.990583,-0.106528,-0.054314999999999995,0.045744,-0.017488999999999998,0.015111000000000001,0.004168,-0.009775
58,-0.675741,-1.433828,2.311137,-0.08540299999999999,0.990635,-0.10653499999999999,-0.040389,0.06377999999999999,-0.011002,0.01007,-0.00037,-0.014971
59,-0.674445,-1.434074,2.310765,-0.085113,0.990668,-0.106456,-0.018963999999999998,0.092429,-0.001275,0.00946,0.002023,-0.015676
60,-0.6652170000000001,-1.434044,2.3177220000000003,-0.08414500000000001,0.990664,-0.107259,-0.005035,0.120024,0.008434,0.016197,0.004102000000000001,-0.019435
61,-0.64832,-1.4345729999999999,2.331979,-0.082004,0.9907360000000001,-0.108248,-0.0039700000000000004,0.12956700000000002,0.019118,0.026996,0.009812999999999999,-0.010603
62,-0.63963,-1.435179,2.337954,-0.080702,0.990818,-0.108475,-0.012504000000000001,0.137024,0.026529,0.024367,0.008373,-0.010437
63,-0.628845,-1.4360879999999998,2.34585,-0.078998,0.990941,-0.10861099999999999,-0.021009,0.148751,0.031799,0.017703,0.005640999999999999,-0.005754
64,-0.613514,-1.436833,2.3577150000000002,-0.07689800000000001,0.9910399999999999,-0.109205,-0.015522,0.186001,0.036067,0.016763,-0.000669,-0.014603999999999999
65,-0.600479,-1.437338,2.366507,-0.075185,0.991108,-0.109785,0.002736,0.225302,0.048964999999999995,0.018285,-0.00038500000000000003,-0.016924
66,-0.574513,-1.437383,2.387695,-0.072285,0.9911139999999999,-0.11166300000000001,0.027274,0.242189,0.06727999999999999,0.01743,-0.008295,-0.024079
67,-0.552722,-1.437194,2.404554,-0.06993400000000001,0.9910889999999999,-0.113371,0.049662,0.255887,0.085579,0.011706,-0.008987,-0.024752
68,-0.526699,-1.436676,2.4254830000000003,-0.067218,0.9910190000000001,-0.115595,0.073086,0.26215700000000003,0.10608,0.006228,-0.011375,-0.0268
69,-0.496716,-1.4357659999999999,2.450459,-0.064152,0.9908969999999999,-0.118352,0.097522,0.257734,0.12548499999999999,0.004399,-0.008353,-0.028072000000000003
70,-0.463207,-1.434475,2.478991,-0.060723,0.9907229999999999,-0.12157899999999999,0.123076,0.260781,0.14061500000000002,0.004235,-0.01001,-0.026583999999999997
71,-0.420604,-1.432156,2.516564,-0.056427,0.990405,-0.126152,0.15395,0.26166999999999996,0.157924,0.016755000000000003,-0.018144999999999998,-0.02961
72,-0.374808,-1.429246,2.557398,-0.051648,0.9899979999999999,-0.13128399999999998,0.178379,0.2583,0.180534,0.016309,-0.022225,-0.03084
73,-0.329975,-1.426428,2.597419,-0.046616000000000005,0.989597,-0.136106,0.199605,0.254941,0.203121,0.021683,-0.017566,-0.031237
74,-0.280636,-1.422723,2.6421200000000002,-0.040862,0.989057,-0.141761,0.203749,0.235713,0.212792,0.016707,-0.015088999999999998,-0.026116000000000004
75,-0.237846,-1.419249,2.680814,-0.035568999999999996,0.988539,-0.14671700000000001,0.19405,0.21656,0.215955,0.0031899999999999997,0.000582,-0.015575
76,-0.20480399999999999,-1.4162,2.7100720000000003,-0.031316000000000004,0.988074,-0.150763,0.167371,0.202851,0.204034,-0.025782,0.018686,-0.02044
77,-0.180667,-1.413622,2.731039,-0.028125999999999998,0.9876729999999999,-0.153981,0.12261500000000002,0.157502,0.16434100000000001,-0.071346,0.030073000000000003,-0.017345
78,-0.16212100000000002,-1.412356,2.747388,-0.025467,0.987475,-0.155709,0.054437,0.097353,0.080621,-0.103973,0.057844000000000007,-0.002647
79,-0.17565,-1.413238,2.732614,-0.027419,0.987613,-0.15449300000000002,-0.044394,0.068339,-0.037545,-0.108903,0.092144,0.038952999999999995
80,-0.19153399999999998,-1.415151,2.7144619999999997,-0.02951,0.9879120000000001,-0.15218299999999998,-0.165139,0.135326,-0.16773,-0.099427,0.099018,0.059394
81,-0.220072,-1.4187100000000001,2.681237,-0.033073000000000005,0.9884569999999999,-0.147847,-0.257098,0.265855,-0.22942800000000002,-0.004525,0.06462799999999999,0.070241
82,-0.25032600000000005,-1.423081,2.643316,-0.036459,0.98911,-0.142592,-0.283165,0.41714799999999996,-0.21271199999999998,0.048208,0.026851,0.04228
83,-0.274326,-1.427441,2.609591,-0.038702,0.989742,-0.137522,-0.26817199999999997,0.485051,-0.157147,0.077917,-0.00053,0.017558
84,-0.292186,-1.431781,2.581602,-0.039914,0.990353,-0.132696,-0.265007,0.493571,-0.114309,0.069547,-0.006176,0.006765
85,-0.30695,-1.4363219999999999,2.5567509999999998,-0.040508999999999996,0.990972,-0.127803,-0.26516999999999996,0.488121,-0.083325,0.070142,-0.006795000000000001,0.001872
86,-0.318293,-1.4408040000000002,2.535903,-0.040566000000000005,0.991563,-0.123116,-0.24735500000000002,0.44957600000000003,-0.050036000000000004,0.014397,-0.012131999999999999,-0.008856999999999999
87,-0.32683,-1.4448020000000001,2.518742,-0.040343000000000004,0.992073,-0.11900999999999999,-0.20492,0.40995699999999996,-0.035802,-0.03383,-0.012062,0.010337
88,-0.332449,-1.4476440000000002,2.505146,-0.040091,0.992426,-0.11611600000000001,-0.134603,0.389467,-0.034216,-0.06588200000000001,-0.010355,0.024669999999999997
89,-0.336981,-1.4492200000000002,2.492482,-0.040099,0.992619,-0.11445599999999999,-0.08532100000000001,0.41176,-0.057401,-0.07670700000000001,-0.003147,0.038254
90,-0.34433600000000003,-1.4503620000000002,2.4765029999999997,-0.040557,0.992756,-0.11309200000000001,-0.089416,0.42890500000000004,-0.078816,-0.079026,0.013133,0.048562
91,-0.355991,-1.4518149999999999,2.4559330000000004,-0.04137,0.99293,-0.111259,-0.12448800000000002,0.44400100000000003,-0.094036,-0.0845,0.045141,0.06386499999999999
92,-0.372523,-1.453858,2.430389,-0.042464999999999996,0.9931709999999999,-0.10867,-0.166072,0.434619,-0.109269,-0.088029,0.044549,0.063748
93,-0.39519,-1.456552,2.3994009999999997,-0.043887,0.993481,-0.10520999999999998,-0.20679,0.386858,-0.118038,-0.087263,0.041156,0.070755
94,-0.423038,-1.459776,2.364054,-0.045484,0.9938440000000001,-0.101025,-0.238945,0.355008,-0.117154,-0.086383,0.017158,0.061963
95,-0.45516,-1.463324,2.324579,-0.047155,0.99423,-0.096345,-0.258115,0.359349,-0.12049800000000001,-0.079463,0.008104,0.051651999999999997
96,-0.490726,-1.466731,2.281628,-0.048954000000000004,0.99459,-0.091619,-0.24850300000000003,0.35508,-0.126835,-0.058819,-0.008628,0.022923
97,-0.527537,-1.469645,2.237893,-0.050832999999999996,0.9948889999999999,-0.087251,-0.229501,0.31451599999999996,-0.122377,-0.046120999999999995,-0.008133,-0.011169
98,-0.5663090000000001,-1.472025,2.193375,-0.052907,0.9951260000000001,-0.083216,-0.20947,0.251633,-0.131771,-0.04362,-0.0046170000000000004,-0.019399
99,-0.612486,-1.47214,2.142424,-0.056625999999999996,0.995137,-0.080591,-0.180806,0.22063400000000002,-0.130468,-0.035843,-0.014713999999999998,-0.026922
100,-0.646266,-1.4734610000000001,2.104157,-0.058524,0.995267,-0.077584,-0.15326900000000002,0.209749,-0.096079,-0.045404,0.002719,-0.008171
101,-0.687917,-1.473962,2.058606,-0.061387,0.995315,-0.07469500000000001,-0.140752,0.18398699999999998,-0.058577,-0.04251,0.002091,0.004611
102,-0.70954,-1.475492,2.033407,-0.061995,0.9954620000000001,-0.07219400000000001,-0.137728,0.16684200000000002,-0.036101,-0.033967000000000004,-0.004053,0.013996999999999999
103,-0.7384970000000001,-1.477336,2.001421,-0.062824,0.9956360000000001,-0.069012,-0.157121,0.13279100000000002,-0.028717000000000003,-0.005917,-0.001343,0.008495
104,-0.7646930000000001,-1.479425,1.972692,-0.06317,0.9958290000000001,-0.065842,-0.17318599999999998,0.122182,-0.025611000000000002,-0.0019850000000000002,-0.001703,0.008286
105,-0.794737,-1.481959,1.9398369999999998,-0.063318,0.996057,-0.06214600000000001,-0.179497,0.14138299999999998,-0.026747000000000003,0.005746,-0.005273,0.0054600000000000004
106,-0.825285,-1.48394,1.9063330000000003,-0.063737,0.99623,-0.058845,-0.170943,0.14031,-0.032027,0.013429,-0.011703,-0.000786
107,-0.8568469999999999,-1.485703,1.8717130000000002,-0.064234,0.996382,-0.055653999999999995,-0.171976,0.14670999999999998,-0.03311,0.003901,0.006289,-0.013606
108,-0.8851319999999999,-1.487468,1.8401490000000003,-0.06442200000000001,0.9965299999999999,-0.052702,-0.189083,0.170077,-0.001214,-0.00763,0.027716,-0.017794
109,-0.912076,-1.48844,1.8094139999999999,-0.065052,0.996611,-0.050354,-0.189078,0.191297,0.020119,-0.014477,-0.007353,-0.015
110,-0.941183,-1.4901360000000001,1.776268,-0.065123,0.996749,-0.047443,-0.178118,0.198007,0.018241,-0.016679,-0.009795,-0.013163999999999999
111,-0.9747790000000001,-1.490535,1.7384700000000002,-0.066351,0.9967809999999999,-0.045007,-0.17912999999999998,0.20124,0.009678,-0.025705000000000002,-0.004685,-0.012244
112,-1.03197,-1.489657,1.677338,-0.06956699999999999,0.99671,-0.041589,-0.199325,0.196072,-0.012901,-0.037672000000000004,0.002588,-6e-06
113,-1.088311,-1.490183,1.617258,-0.07133300000000001,0.9967530000000001,-0.037363,-0.222769,0.169654,-0.04615,-0.039323000000000004,0.009458,0.0044340000000000004
114,-1.144358,-1.491139,1.557871,-0.072447,0.9968290000000001,-0.032914,-0.239839,0.146372,-0.06974,-0.040666,0.016904,0.012742
115,-1.220425,-1.490657,1.4791969999999999,-0.07518999999999999,0.996791,-0.027478,-0.24633899999999997,0.10811199999999999,-0.086832,-0.035574,0.018606,0.02345
116,-1.28415,-1.490426,1.413243,-0.07700800000000001,0.9967719999999999,-0.022699,-0.24634899999999998,0.096432,-0.09643099999999999,-0.035251,0.016122,0.022226
117,-1.359848,-1.488867,1.335659,-0.080024,0.9966459999999999,-0.017136000000000002,-0.24426199999999998,0.082593,-0.100675,-0.031518,0.0068790000000000006,0.020919999999999998
118,-1.4219030000000001,-1.487696,1.271647,-0.082086,0.996549,-0.012313,-0.252725,0.093297,-0.10608900000000002,-0.020026,0.001315,0.022536
119,-1.494104,-1.485637,1.197127,-0.08480599999999999,0.996376,-0.006517,-0.268635,0.111474,-0.10943,-0.010501,-0.004799,0.018632
120,-1.556553,-1.483646,1.132199,-0.087031,0.9962049999999999,-0.00124,-0.277156,0.111517,-0.112694,-0.004292,0.003963,0.013630000000000001
121,-1.621804,-1.481291,1.06435,-0.089269,0.9959969999999999,0.004557,-0.286706,0.12008599999999998,-0.115976,0.001592,0.00852,0.008764
122,-1.6846279999999998,-1.478974,0.998757,-0.091099,0.9957870000000001,0.010415,-0.291993,0.127574,-0.119225,0.009816,0.007615,0.0010140000000000001
123,-1.7420930000000001,-1.476019,0.9386899999999999,-0.09325,0.9955120000000001,0.016132,-0.286746,0.112625,-0.114896,0.002949,0.004640999999999999,0.007397
124,-1.7976009999999998,-1.472747,0.8809,-0.095385,0.9951969999999999,0.022012999999999998,-0.292192,0.096631,-0.106367,0.002535,0.005352,0.007086
125,-1.8509970000000002,-1.469042,0.8254020000000001,-0.097617,0.994828,0.028091,-0.30499,0.093497,-0.110725,-0.00245,0.014374000000000001,0.014938
126,-1.9131740000000002,-1.4638520000000002,0.761253,-0.10054600000000001,0.994287,0.035836,-0.330529,0.083039,-0.137596,-0.014521000000000001,0.026862,0.039085
127,-1.9609349999999999,-1.458286,0.711561,-0.10383699999999998,0.993677,0.042699,-0.368778,0.076948,-0.179516,-0.016326,0.037481,0.052622
128,-2.0073630000000002,-1.4512200000000002,0.663395,-0.10810399999999999,0.992859,0.05044,-0.41235200000000005,0.062397,-0.232145,-0.014516,0.044647000000000006,0.05367
129,-2.058937,-1.441909,0.610766,-0.11351900000000001,0.991705,0.060279,-0.45825,0.024343,-0.2666,-0.03385,0.054100999999999996,0.060905999999999995
130,-2.101275,-1.4322629999999998,0.567833,-0.119112,0.9904200000000001,0.069866,-0.49664300000000006,0.0032700000000000003,-0.29141100000000003,-0.033902999999999996,0.036573,0.053364
131,-2.140822,-1.422025,0.5286850000000001,-0.124787,0.9889540000000001,0.079989,-0.511886,-0.064854,-0.29143,-0.024123,0.021315,0.047422000000000006
132,-2.1770709999999998,-1.411358,0.493993,-0.130468,0.987317,0.090465,-0.520617,-0.11380499999999999,-0.296769,-0.02653,-0.031964,0.047825
133,-2.210155,-1.40048,0.463146,-0.136016,0.9855309999999999,0.101134,-0.52499,-0.135104,-0.294636,-0.020814,-0.050442,0.036102999999999996
134,-2.239821,-1.3891209999999998,0.43554499999999996,-0.141729,0.983542,0.11205999999999999,-0.515323,-0.11279700000000001,-0.28712,-0.011134,-0.06092,0.022888
135,-2.265735,-1.378594,0.411025,-0.146722,0.9815860000000001,0.12231800000000001,-0.503554,-0.070368,-0.251841,-0.0055450000000000004,-0.034763,-0.001408
136,-2.287777,-1.368825,0.38906999999999997,-0.15121199999999999,0.9796729999999999,0.13181700000000002,-0.48535900000000004,-0.013085,-0.206923,-0.00275,-0.014265,-0.013316999999999999
137,-2.309127,-1.359809,0.36743899999999996,-0.15489,0.977825,0.140955,-0.449196,-0.013309999999999999,-0.182101,0.002699,-0.014522,-0.014428999999999999
138,-2.3253909999999998,-1.351691,0.350932,-0.158355,0.976092,0.14888800000000002,-0.375506,0.009843000000000001,-0.175206,-0.00615,-0.021289,0.002357
139,-2.3353610000000002,-1.344255,0.33966,-0.162096,0.974449,0.155479,-0.306969,0.074556,-0.16733399999999998,-0.004438,0.002129,0.004647
140,-2.340304,-1.337883,0.332398,-0.16578299999999999,0.9729979999999999,0.16059600000000002,-0.26726500000000003,0.11706300000000001,-0.17565699999999998,-0.00037,0.009683,0.001056
141,-2.346333,-1.331507,0.324354,-0.169238,0.971507,0.165932,-0.24497399999999997,0.081873,-0.186136,0.0073420000000000004,0.02744,0.024725999999999998
142,-2.349114,-1.325479,0.320824,-0.172942,0.97006,0.17051,-0.24219000000000002,-0.008694,-0.183864,0.003875,0.050249,0.036139
143,-2.361377,-1.318765,0.31000900000000003,-0.17541600000000002,0.968408,0.177244,-0.271485,-0.107698,-0.175393,0.011094,0.07424,0.055087
144,-2.371314,-1.3124149999999999,0.303188,-0.177924,0.9668049999999999,0.18338800000000002,-0.29113,-0.18653599999999998,-0.156201,0.022697,0.07186100000000001,0.08130599999999999
145,-2.387497,-1.304116,0.290896,-0.180421,0.964651,0.19208499999999998,-0.22182,-0.183618,-0.147175,-0.023787,0.057886,0.113045
146,-2.389855,-1.299747,0.291507,-0.182844,0.96349,0.19558699999999998,-0.11689400000000001,-0.11999100000000001,-0.165752,-0.053605999999999994,0.05897,0.126602
147,-2.385178,-1.296339,0.297061,-0.18600899999999998,0.962572,0.197116,-0.052307000000000006,0.011861,-0.161197,-0.107555,0.07713099999999999,0.16608900000000001
148,-2.378144,-1.292553,0.301653,-0.189909,0.96154,0.198434,-0.13868699999999998,0.21155500000000002,-0.20799,-0.100466,0.029289999999999997,0.175101
149,-2.363824,-1.2849549999999998,0.308831,-0.197852,0.959425,0.20089500000000002,-0.235801,0.46098599999999995,-0.429041,0.013572,-0.012327,0.018557
150,-2.3506150000000003,-1.2735100000000001,0.31663,-0.208283,0.9561350000000001,0.205972,-0.38471500000000003,0.046209,-0.470142,0.129456,-0.050144,-0.136575
151,-2.368989,-1.260934,0.308289,-0.21284,0.952376,0.21835700000000002,-0.622157,-0.847484,-0.282649,0.071483,-0.056790999999999994,-0.09698899999999999
152,-2.411324,-1.248785,0.287537,-0.21111100000000002,0.948601,0.23577199999999998,-0.636279,-1.23471,-0.138041,0.049566000000000006,-0.144035,-0.11220699999999999
153,-2.4522939999999998,-1.24064,0.271271,-0.206184,0.945992,0.250176,-0.368976,-1.204241,0.002656,-0.006966,-0.24585700000000002,-0.171944
154,-2.47686,-1.240191,0.261896,-0.200239,0.945846,0.255499,0.038895,-0.537157,0.126427,-0.02289,-0.134719,-0.09360399999999999
155,-2.479714,-1.2455120000000002,0.26365500000000003,-0.196413,0.9475600000000001,0.252096,0.337506,-0.058944,0.15781099999999998,0.027451999999999997,-0.117222,-0.101339
156,-2.468659,-1.256002,0.273934,-0.19298099999999999,0.95086,0.24212199999999998,0.601371,0.093231,0.235302,0.132831,-0.048714999999999994,-0.125255
157,-2.457131,-1.270553,0.285752,-0.18699100000000002,0.9552649999999999,0.22913699999999998,0.7057869999999999,-0.041894,0.369733,0.12372799999999999,-0.013462,-0.068966
158,-2.450727,-1.287674,0.294026,-0.178006,0.9601879999999999,0.215297,0.75522,-0.073469,0.497237,0.096402,-0.026304,-0.016826
159,-2.448668,-1.306435,0.29728899999999997,-0.166911,0.965259,0.201034,0.73137,-0.052502999999999994,0.602797,0.07365,-0.014591,0.0168
160,-2.455404,-1.3245209999999998,0.291733,-0.15446600000000002,0.969827,0.188615,0.5956060000000001,-0.086225,0.628598,0.03621,0.038428,0.115829
161,-2.467705,-1.339172,0.282209,-0.143251,0.973295,0.179377,0.449604,-0.201223,0.476038,0.031434,0.042666,0.130895
162,-2.472382,-1.349051,0.282638,-0.136439,0.9755149999999999,0.172496,0.35584,-0.263393,0.195753,0.0162,0.035242,0.14407799999999998
163,-2.460761,-1.35475,0.298597,-0.134933,0.9767530000000001,0.166576,0.327531,-0.14943199999999998,-0.0396,-0.046830000000000004,0.109002,0.13448
164,-2.435868,-1.358108,0.326262,-0.136909,0.977467,0.160668,0.292991,-0.108399,-0.147784,-0.072991,0.129024,0.120154
165,-2.417106,-1.358884,0.349173,-0.139396,0.9776299999999999,0.157503,0.11216400000000001,-0.228131,-0.152098,-0.202324,0.031784,0.131575
166,-2.41111,-1.35627,0.35931599999999997,-0.142043,0.9770770000000001,0.15856800000000001,-0.11445999999999999,-0.128114,-0.19226500000000002,-0.21682800000000002,-0.036831,0.151811
167,-2.4050740000000004,-1.3490540000000002,0.364849,-0.14773,0.9755159999999999,0.162926,-0.274777,0.125552,-0.35180700000000004,-0.212302,-0.06539,0.204734
168,-2.38218,-1.3398370000000002,0.381628,-0.157604,0.973447,0.166016,-0.124259,0.471837,-0.49968199999999996,-0.061069000000000005,0.10803499999999999,0.059448
169,-2.332129,-1.333883,0.41894899999999996,-0.169906,0.972067,0.161919,0.23024299999999998,0.75617,-0.516798,0.145171,0.143595,-0.041572000000000005
170,-2.2720119999999997,-1.3320040000000002,0.468217,-0.180723,0.9716239999999999,0.152597,0.41291700000000003,0.454639,-0.39442699999999997,0.203718,0.092859,-0.017068
171,-2.237393,-1.333133,0.501607,-0.185033,0.971891,0.145571,0.25756799999999996,-0.084063,-0.075423,0.195485,-0.023556999999999998,0.113477
172,-2.244048,-1.3353709999999999,0.500097,-0.182359,0.9724149999999999,0.14544300000000002,-0.065662,-0.293829,0.181097,0.13211199999999998,-0.040347,0.183705
173,-2.266057,-1.338618,0.481789,-0.176689,0.973168,0.147397,0.026151,-0.16253,0.300143,0.096733,-0.053855999999999994,0.145465
174,-2.273637,-1.3470520000000001,0.47807200000000005,-0.169299,0.975073,0.143422,0.33064099999999996,-0.23949,0.36753,-0.001279,-0.101386,-0.08102899999999999
175,-2.273861,-1.356683,0.484519,-0.16209400000000002,0.977165,0.137381,0.385955,-0.376698,0.266611,-0.10539200000000001,-0.09301,-0.15997999999999998
176,-2.2573380000000003,-1.365811,0.509782,-0.157437,0.9790639999999999,0.129025,0.575182,-0.412021,0.14513299999999998,-0.137836,-0.055251,-0.168103
177,-2.221091,-1.376214,0.555421,-0.153894,0.9811280000000001,0.11706300000000001,0.714869,-0.452892,0.121592,-0.093115,0.095776,-0.141538
178,-2.178577,-1.386426,0.611266,-0.150497,0.983052,0.104689,0.723282,-0.751063,0.08785,-0.059662,0.12292,-0.049772000000000004
179,-2.135488,-1.3948479999999999,0.674345,-0.147868,0.984561,0.093675,0.6936760000000001,-1.016925,-0.000679,-0.056829,0.103879,-0.000291
180,-2.078344,-1.4008450000000001,0.7498090000000001,-0.147813,0.985593,0.082205,0.7287100000000001,-0.6959350000000001,-0.11621400000000001,0.030808,0.018664,0.052881
181,-1.999352,-1.4045889999999999,0.836743,-0.150482,0.9862190000000001,0.06875099999999999,0.719884,-0.102329,-0.17044700000000002,0.128113,-0.009184000000000001,0.046254
182,-1.919199,-1.40751,0.9138069999999999,-0.15279500000000001,0.986698,0.055498,0.579343,0.328014,-0.041657,0.171044,-0.012882,0.053236
183,-1.86268,-1.4122649999999999,0.964627,-0.15119100000000002,0.98746,0.045427999999999996,0.38606599999999996,0.276654,0.182454,0.20871599999999998,0.032041,0.100187
184,-1.834407,-1.419302,0.988502,-0.145702,0.988547,0.039324,0.217673,0.23188000000000003,0.336227,0.091152,0.044183,0.12101600000000001
185,-1.8183060000000002,-1.427324,1.000006,-0.138624,0.989725,0.035029000000000005,0.175902,0.23081999999999997,0.371188,-0.022067,0.015263999999999998,0.071325
186,-1.800095,-1.434793,1.0143879999999998,-0.132036,0.990766,0.030818,0.197234,0.168142,0.30946,-0.095076,-0.019147,-0.023585
187,-1.772282,-1.440548,1.040707,-0.127252,0.9915299999999999,0.025992,0.26218800000000003,0.036239999999999994,0.20539699999999997,-0.132025,-0.053694000000000006,-0.101325
188,-1.7222549999999999,-1.444534,1.0915549999999998,-0.12448499999999998,0.9920399999999999,0.019,0.421232,-0.051245000000000006,0.100866,-0.148296,-0.057668,-0.129474
189,-1.643825,-1.446487,1.173124,-0.12365899999999999,0.992283,0.009047,0.558738,-0.171726,0.007978,-0.143812,-0.031193000000000002,-0.10766400000000001
190,-1.559742,-1.446248,1.263091,-0.12421900000000001,0.9922540000000001,-0.001373,0.540155,-0.322721,-0.044301,-0.110767,-0.024053,-0.064163
191,-1.488024,-1.4448290000000001,1.343696,-0.125204,0.9920770000000001,-0.010387,0.49261400000000005,-0.455715,-0.044463,-0.049677,-0.017193,-0.037724
192,-1.423028,-1.443301,1.419901,-0.12576500000000002,0.991883,-0.018721,0.48862700000000003,-0.589028,-0.002659,0.023897,0.029158,0.007063
193,-1.358791,-1.441953,1.498794,-0.12561,0.991711,-0.027036,0.519732,-0.754396,0.033020999999999995,0.058792,0.035282,0.061413999999999996
194,-1.2991469999999998,-1.4402700000000002,1.574099,-0.125383,0.9914940000000001,-0.034923,0.46226000000000006,-0.72118,0.034713,0.036302,0.021934,0.084591
195,-1.2524110000000002,-1.438835,1.633436,-0.12496600000000001,0.9913059999999999,-0.041188,0.346792,-0.521637,0.050743,0.026913,0.003949,0.062566
196,-1.214104,-1.438021,1.6792790000000002,-0.124053,0.9911979999999999,-0.046225999999999996,0.288121,-0.26265,0.070297,0.02928,-0.012469,0.038047000000000004
197,-1.170361,-1.437557,1.7272419999999997,-0.12233599999999999,0.991137,-0.051786,0.317133,-0.176626,0.110982,0.020163,-0.010973,-0.039294
198,-1.123126,-1.4370370000000001,1.779993,-0.12022000000000001,0.991067,-0.057727999999999995,0.33778,-0.31948899999999997,0.121992,-0.009770000000000001,-0.01095,-0.061184
199,-1.080047,-1.435967,1.832269,-0.118557,0.990924,-0.063351,0.32751199999999997,-0.48980799999999997,0.09970599999999999,-0.060734,-0.008823000000000001,-0.025379
200,-1.046608,-1.434451,1.876384,-0.117673,0.990719,-0.068031,0.28381799999999996,-0.511893,0.066314,-0.06840800000000001,0.019763,0.009468
201,-1.015382,-1.432239,1.9178080000000002,-0.117354,0.990416,-0.072827,0.318236,-0.475691,0.04087,-0.023790000000000002,0.026872000000000004,0.008771
202,-0.9809329999999999,-1.428939,1.9621099999999998,-0.11749100000000001,0.9899549999999999,-0.07864299999999999,0.364226,-0.468322,0.023023,-0.000521,0.014438999999999999,0.018356
203,-0.94745,-1.424982,2.005109,-0.11797200000000001,0.9893879999999999,-0.084819,0.355902,-0.43839700000000004,0.005834000000000001,-0.013055,0.00402,0.027354000000000003
204,-0.922635,-1.421261,2.038233,-0.11876500000000001,0.9888399999999999,-0.089942,0.27628,-0.368802,-0.012971000000000002,-0.030739999999999996,0.008352,0.036657999999999996
205,-0.904868,-1.417834,2.062932,-0.11981199999999999,0.988324,-0.09412999999999999,0.24671500000000002,-0.313253,-0.026067,0.0028539999999999998,0.029177999999999996,0.009322
206,-0.888775,-1.4143,2.085382,-0.120993,0.9877790000000001,-0.098247,0.24672,-0.31537,-0.029269,0.024405,0.030989,0.019405000000000002
207,-0.8799309999999999,-1.413419,2.102016,-0.12079000000000001,0.987642,-0.099868,0.253736,-0.404914,-0.020556,0.01729,0.040511,0.034133
208,-0.8650950000000001,-1.409966,2.125147,-0.12189000000000001,0.9870950000000001,-0.10386,0.24103000000000002,-0.38038099999999997,-0.017471,-0.040982,-0.018711000000000002,0.037485000000000004
209,-0.8765700000000001,-1.404426,2.120151,-0.127275,0.986192,-0.105952,0.202321,-0.24587399999999998,-0.054249,-0.050047,-0.02559,0.023891
210,-0.8677860000000001,-1.4007969999999998,2.1327380000000002,-0.12906900000000002,0.985585,-0.10937899999999999,0.19747,-0.160544,-0.076825,-0.015798,-0.005116,-0.008144
211,-0.859136,-1.397046,2.144858,-0.130917,0.984943,-0.11290499999999999,0.20272300000000001,-0.175489,-0.07356499999999999,-0.000401,0.002346,-0.005076
212,-0.8532379999999999,-1.393964,2.155363,-0.132535,0.984406,-0.11567100000000001,0.19824,-0.25303200000000003,-0.061607,0.003293,0.006149,0.021859
213,-0.845981,-1.390282,2.169279,-0.134404,0.983751,-0.119032,0.22436999999999999,-0.367133,-0.05486900000000001,-0.023967,0.018171,0.029202999999999996
214,-0.8392290000000001,-1.3863299999999998,2.1845,-0.136489,0.983034,-0.12253299999999999,0.23800900000000003,-0.421497,-0.057908,-0.029693999999999998,0.010237000000000001,0.009038
215,-0.839549,-1.380774,2.1922099999999998,-0.140592,0.982,-0.126135,0.215943,-0.355338,-0.0667,-0.016528,-0.004446,-0.000666
216,-0.833676,-1.3771129999999998,2.204913,-0.14251,0.981302,-0.129373,0.21489,-0.327735,-0.042173,0.010841,-0.018762,-0.000342
217,-0.821896,-1.3740219999999999,2.223863,-0.143196,0.9807020000000001,-0.133107,0.242337,-0.366288,-0.015224000000000001,0.013359000000000001,-0.017415,0.000768
218,-0.811584,-1.370293,2.242671,-0.14446900000000001,0.979966,-0.137094,0.27723600000000004,-0.42822200000000005,-0.008491,0.016005000000000002,-0.009462,0.0044340000000000004
219,-0.7991199999999999,-1.3658860000000002,2.2643869999999997,-0.145842,0.979079,-0.141894,0.32951199999999997,-0.42734300000000003,-0.007059,0.015241999999999999,0.00734,-0.060972000000000005
220,-0.777137,-1.3596059999999999,2.2942,-0.14699700000000002,0.9777819999999999,-0.149446,0.303228,-0.365374,-0.029751999999999997,0.0047079999999999995,0.005235,-0.039748
221,-0.7704840000000001,-1.355081,2.3080380000000003,-0.149079,0.976824,-0.153594,0.24388600000000002,-0.312818,-0.067621,0.004258,-0.000993,0.028227999999999996
222,-0.7667729999999999,-1.350759,2.317028,-0.151436,0.9758889999999999,-0.157185,0.21448899999999999,-0.222106,-0.082898,0.021126,-0.003325,0.024037
223,-0.7626649999999999,-1.3480159999999999,2.3256490000000003,-0.15263800000000002,0.9752870000000001,-0.15974100000000002,0.216527,-0.229622,-0.070053,0.015553,0.008463,0.016217
224,-0.75995,-1.3441299999999998,2.3339369999999997,-0.154813,0.9744209999999999,-0.1629,0.199212,-0.286013,-0.072238,-0.025744,0.035192,0.011807999999999999
225,-0.762167,-1.339267,2.337277,-0.158444,0.973317,-0.165982,0.198406,-0.232729,-0.07658999999999999,-0.016253999999999998,-0.043248,-0.010104
226,-0.759994,-1.3352959999999998,2.343419,-0.160745,0.972398,-0.169127,0.19226300000000002,-0.182609,-0.084174,-0.013022999999999998,-0.035371,-0.012575
227,-0.7571060000000001,-1.3311959999999998,2.351191,-0.162993,0.971433,-0.172487,0.22486599999999998,-0.27120500000000003,-0.06781000000000001,-0.006959999999999999,-0.019269,-0.012740000000000001
228,-0.753383,-1.325487,2.3618419999999998,-0.166141,0.9700620000000001,-0.177135,0.26610900000000004,-0.35443600000000003,-0.068485,-0.017865,0.027329000000000003,-0.020756
229,-0.748582,-1.320575,2.373079,-0.16852899999999998,0.968858,-0.181419,0.272951,-0.253271,-0.065362,0.014889,0.015380000000000001,-0.0019
230,-0.7432380000000001,-1.3162280000000002,2.382612,-0.170405,0.967772,-0.185416,0.21561799999999998,-0.17961300000000002,-0.054105999999999994,0.032832,0.017457,0.009192
231,-0.73363,-1.315764,2.396832,-0.168917,0.9676549999999999,-0.187378,0.179926,-0.262675,-0.030737999999999998,0.028094,0.015621000000000001,0.010864
232,-0.7322489999999999,-1.3128030000000002,2.4039610000000002,-0.170573,0.9669040000000001,-0.18974100000000002,0.167128,-0.27005300000000004,-0.039363999999999996,-0.04131,0.013992,-0.0076159999999999995
233,-0.737765,-1.307599,2.403163,-0.174999,0.965563,-0.192519,0.167803,-0.16866099999999998,-0.08756699999999999,-0.034123,0.020017,-0.005495
234,-0.73721,-1.303761,2.40536,-0.17738199999999998,0.964557,-0.195358,0.149285,-0.042786000000000005,-0.11456300000000001,0.004988,0.012828999999999998,0.003249
235,-0.73697,-1.301923,2.406895,-0.178526,0.9640709999999999,-0.196712,0.10949500000000001,-0.095975,-0.098746,0.019072,0.014216,0.013424
236,-0.739683,-1.299174,2.4069119999999997,-0.180845,0.9633370000000001,-0.198184,0.098553,-0.149231,-0.091277,-0.016024,0.021008000000000002,-0.0005610000000000001
237,-0.746577,-1.295051,2.403233,-0.18490299999999998,0.9622229999999999,-0.199847,0.086797,-0.160882,-0.097759,-0.05083,0.018047999999999998,-0.025861000000000002
238,-0.7511,-1.292445,2.401875,-0.18751600000000002,0.9615100000000001,-0.20084100000000002,0.07827200000000001,-0.16508699999999998,-0.10422200000000001,-0.055267,0.01487,-0.029231
239,-0.75579,-1.289692,2.3999200000000003,-0.19027,0.96075,-0.20188399999999998,0.088104,-0.12141500000000001,-0.111687,-0.040092,0.01035,-0.010457
240,-0.759362,-1.287053,2.398391,-0.192735,0.9600139999999999,-0.203042,0.075383,-0.09689400000000001,-0.105398,-0.017837000000000002,0.002464,-0.01406
241,-0.763343,-1.284694,2.396178,-0.195107,0.9593510000000001,-0.203908,0.057299,-0.085113,-0.10553900000000001,-0.024361,0.010269,-0.016825
242,-0.767433,-1.282492,2.3930700000000003,-0.197406,0.958727,-0.204629,0.041579000000000005,-0.024328,-0.10786300000000001,-0.028165,0.015745,-0.006064
243,-0.773356,-1.279914,2.386343,-0.20034000000000002,0.957991,-0.205224,0.010976999999999999,0.06414199999999999,-0.094308,-0.014458000000000002,0.012102,-0.002341
244,-0.776848,-1.2787620000000002,2.381379,-0.201829,0.9576600000000001,-0.20531,-0.018919,0.05998099999999999,-0.093443,-0.003982,0.037701,-0.004651
245,-0.780536,-1.27867,2.375785,-0.202647,0.957634,-0.204627,-0.033652,0.099473,-0.100004,0.002878,0.029457,-0.002038
246,-0.786223,-1.276576,2.367883,-0.205225,0.9570290000000001,-0.20488699999999999,-0.069002,0.071879,-0.094878,-0.022207,-0.000181,-0.017022
247,-0.800459,-1.271462,2.353857,-0.21163099999999999,0.955533,-0.20535100000000003,-0.048243,-0.061344,-0.096714,-0.062874,0.009524,-0.023958
248,-0.808179,-1.270117,2.347422,-0.21414,0.9551350000000001,-0.204598,-0.014013,-0.074114,-0.129573,-0.071063,-0.0032770000000000004,-0.025245
249,-0.8207709999999999,-1.266101,2.335984,-0.21950300000000003,0.953939,-0.20449900000000001,-0.032001,-0.07498300000000001,-0.16282,-0.055476,0.009746,-0.020980000000000002
250,-0.8313780000000001,-1.264245,2.327076,-0.22296799999999997,0.9533799999999999,-0.203352,-0.036522000000000006,-0.121878,-0.153178,-0.023996,0.008870000000000001,-0.009524
251,-0.8416049999999999,-1.262651,2.318826,-0.226169,0.9528979999999999,-0.202073,-0.045043,-0.103798,-0.13830499999999998,-0.003796,5.9e-05,0.00022999999999999998
252,-0.8512129999999999,-1.261666,2.310186,-0.228805,0.952599,-0.200509,-0.059802,-0.054782000000000004,-0.128856,0.016037,0.006996,0.0034270000000000004
253,-0.8598709999999999,-1.260683,2.302179,-0.23124299999999998,0.952299,-0.199132,-0.059860000000000003,-0.049527999999999996,-0.110704,0.039485,0.002932,0.005086
254,-0.867999,-1.2600129999999998,2.294577,-0.23334000000000002,0.952094,-0.197658,-0.071596,-0.035694,-0.09691699999999999,0.028186000000000003,0.0056689999999999996,0.015406999999999999
255,-0.874662,-1.2596209999999999,2.287641,-0.23493899999999998,0.951974,-0.196338,-0.062946,0.013184999999999999,-0.073418,0.022735,0.006018,0.014408
256,-0.879107,-1.259439,2.282832,-0.235942,0.9519190000000001,-0.195403,-0.045038999999999996,-0.006181,-0.041221,0.018413,-0.000915,0.011565
257,-0.882124,-1.2595370000000001,2.280282,-0.236459,0.9519489999999999,-0.194631,-0.024009,-0.043664,-0.010048,0.005166,-0.008986,0.007817000000000001
258,-0.8839899999999999,-1.259706,2.279778,-0.236697,0.952,-0.19408699999999998,0.015163,-0.081205,0.020183,-0.0022559999999999998,-0.001637,-0.005315
259,-0.883194,-1.259433,2.282913,-0.23674299999999998,0.951917,-0.19444,0.043643,-0.12403499999999999,0.050345999999999995,-0.0072299999999999994,-0.0026829999999999996,-0.002764
260,-0.882712,-1.259257,2.286926,-0.236779,0.9518629999999999,-0.194661,0.061444000000000006,-0.179569,0.069767,-0.016395,0.000682,0.001637
261,-0.883856,-1.258779,2.290209,-0.237354,0.951716,-0.194679,0.065606,-0.20514200000000002,0.067688,-0.032971,0.01,0.014259
262,-0.881958,-1.258775,2.296323,-0.236986,0.951715,-0.195131,0.06679299999999999,-0.191246,0.05486,-0.014143000000000001,0.010245,0.015199
263,-0.8827450000000001,-1.259419,2.299591,-0.236666,0.9519120000000001,-0.194555,0.05417999999999999,-0.18353,0.05595,-0.0031100000000000004,0.015083000000000001,0.016394
264,-0.8816200000000001,-1.2604549999999999,2.3050580000000003,-0.235686,0.9522290000000001,-0.194194,0.070022,-0.220862,0.053974,0.015593000000000001,0.013865,0.013392
265,-0.8827290000000001,-1.262297,2.308949,-0.234546,0.9527899999999999,-0.19281800000000002,0.075378,-0.226162,0.042270999999999996,0.011554,0.021605000000000003,0.02195
266,-0.883971,-1.263118,2.311698,-0.23418000000000003,0.953039,-0.192031,0.050162,-0.15888,0.021713999999999997,0.011066,0.021555,0.027022000000000004
267,-0.886231,-1.264355,2.312261,-0.2337,0.953413,-0.190755,0.023701,-0.124644,0.0076,0.030543999999999998,0.031007,0.032063999999999995
268,-0.8884860000000001,-1.264302,2.312704,-0.23416900000000002,0.9533969999999999,-0.19025999999999998,-0.004076,-0.139435,0.001016,0.014763,0.020693,0.024397
269,-0.8944040000000001,-1.265393,2.309733,-0.23448000000000002,0.9537260000000001,-0.18822,-0.029664999999999997,-0.14039000000000001,-0.004502,0.004347,0.021128,0.022433
270,-0.899517,-1.2658200000000002,2.306898,-0.23512,0.9538540000000001,-0.18676500000000001,-0.02947,-0.105202,-0.013092,0.003247,-0.000683,0.004895
271,-0.903143,-1.2660770000000001,2.305081,-0.235603,0.953931,-0.18575899999999998,-0.006995,-0.09460700000000001,-0.018289,0.006492,0.00016999999999999999,0.00627
272,-0.905443,-1.26624,2.305096,-0.235908,0.9539799999999999,-0.185121,0.01736,-0.125624,-0.008464,0.010703,0.004302,0.007081999999999999
273,-0.9063690000000001,-1.266915,2.306855,-0.235571,0.954182,-0.184505,0.030045,-0.137442,0.005529,0.009101,0.007259000000000001,0.005642
274,-0.907424,-1.26773,2.309136,-0.23515300000000003,0.954426,-0.183778,0.044732999999999995,-0.17590799999999998,0.021706,0.008834999999999999,0.012081,0.008927
275,-0.9074620000000001,-1.267971,2.313056,-0.234979,0.954498,-0.18362699999999998,0.058504999999999995,-0.188773,0.030366000000000004,0.008645,0.010178,0.008136
276,-0.906407,-1.268997,2.31777,-0.234014,0.9548030000000001,-0.18327100000000002,0.058612,-0.163212,0.031405,0.013951,0.015472999999999999,0.012067
277,-0.9071299999999999,-1.271393,2.32051,-0.232344,0.955513,-0.18169200000000002,0.050093,-0.165284,0.023875999999999998,0.015867,0.022637,0.01769
278,-0.9081610000000001,-1.271817,2.3229130000000002,-0.232211,0.9556379999999999,-0.181203,0.040570999999999996,-0.15881199999999998,0.012052,0.011890000000000001,0.018605,0.018208000000000002
279,-0.911116,-1.272685,2.322911,-0.232091,0.955893,-0.180008,0.017273,-0.133109,-0.002029,0.007176,0.014215,0.015015
280,-0.9132520000000001,-1.2730270000000001,2.323257,-0.23221599999999998,0.955993,-0.179312,0.015238,-0.119219,-0.010606,0.006462000000000001,0.0071719999999999996,0.003271
281,-0.91471,-1.272874,2.324016,-0.232593,0.9559479999999999,-0.179062,0.017434,-0.11068299999999999,-0.015941,0.0052060000000000006,0.0061329999999999996,-0.000213
282,-0.916384,-1.272738,2.324809,-0.23299499999999998,0.955908,-0.178752,0.023729,-0.132019,-0.013732,0.005104999999999999,0.008752,0.001277
283,-0.9168870000000001,-1.272532,2.3271509999999997,-0.23324099999999998,0.9558479999999999,-0.178754,0.039669,-0.141679,-0.009334,0.005534000000000001,0.004647,-0.001208
284,-0.916711,-1.2720879999999999,2.330017,-0.23354699999999998,0.955717,-0.179054,0.048266,-0.12573800000000002,-0.007156999999999999,0.012112000000000001,0.0052049999999999996,-0.0008470000000000001
285,-0.9159370000000001,-1.27267,2.333282,-0.232967,0.955889,-0.178895,0.04824,-0.124699,-0.000745,0.024562,0.011701999999999999,0.011293000000000001
286,-0.915294,-1.273471,2.336812,-0.23224499999999998,0.956124,-0.178578,0.047026,-0.141799,0.014227000000000002,0.01882,0.0067670000000000004,0.011036
287,-0.9147879999999999,-1.273824,2.339948,-0.23188699999999998,0.956227,-0.17849,0.05140599999999999,-0.11518699999999998,0.015294,0.008911,0.003368,0.010674
288,-0.913856,-1.2737180000000001,2.3432060000000003,-0.23180100000000003,0.9561959999999999,-0.178768,0.05895,-0.10453399999999999,0.008924,0.004063000000000001,0.008006999999999998,0.006176
289,-0.9128940000000001,-1.273368,2.346461,-0.23189400000000002,0.9560930000000001,-0.179196,0.057852999999999995,-0.110922,0.008925,0.0018670000000000002,0.007209,0.0033079999999999997
290,-0.912165,-1.273051,2.349544,-0.23200199999999999,0.956,-0.17955,0.056813999999999996,-0.102405,0.011043,6.9e-05,0.012216,0.004364
291,-0.910008,-1.2727030000000001,2.35358,-0.231877,0.9558979999999999,-0.180254,0.065444,-0.07688500000000001,0.015344,0.003667,0.006992,0.0008410000000000001
292,-0.908434,-1.272853,2.3571,-0.23148000000000002,0.955942,-0.180531,0.059993,-0.09712799999999999,0.020675,0.0017289999999999999,0.013632,0.008487999999999999
293,-0.907043,-1.2725469999999999,2.3607259999999997,-0.23146,0.955852,-0.181033,0.062153999999999994,-0.096049,0.015347,0.000152,0.010472,0.009004999999999999
294,-0.9056299999999999,-1.272373,2.36365,-0.231334,0.955801,-0.18146199999999998,0.049595,-0.053347000000000006,0.0034549999999999997,0.0034130000000000002,0.014780000000000001,0.005833
295,-0.905176,-1.272699,2.365206,-0.23100700000000002,0.9558969999999999,-0.181375,0.037905,-0.052202,-0.00624,0.003285,0.016163999999999998,0.005533
296,-0.9053760000000001,-1.272151,2.366157,-0.23145500000000002,0.955736,-0.181652,0.029431,-0.048934,-0.016986,-0.003912,0.016356,0.002987
297,-0.9068280000000001,-1.271344,2.365216,-0.23232600000000003,0.955498,-0.181791,0.016891999999999997,-0.007276,-0.034219,-0.009053,0.009437000000000001,0.001478
298,-0.910111,-1.270737,2.3618930000000002,-0.233379,0.955319,-0.181383,0.0031219999999999998,0.004533,-0.045014,-0.005803,0.0067480000000000005,0.008837000000000001
299,-0.9121459999999999,-1.269946,2.3599200000000002,-0.23434499999999997,0.9550850000000001,-0.18137,0.0030399999999999997,-0.011454,-0.042858,-0.009078,0.001519,-0.005718
300,-0.9136139999999999,-1.2685879999999998,2.358725,-0.23563800000000001,0.9546819999999999,-0.181818,0.014738999999999999,-0.014712000000000001,-0.037433,-0.013508000000000001,0.000244,-0.010183
301,-0.914271,-1.267492,2.358266,-0.23658600000000002,0.954355,-0.182302,0.02437,-0.008354,-0.037375,-0.010591,0.0016690000000000001,-0.007319
302,-0.914819,-1.266412,2.357891,-0.23750300000000002,0.954032,-0.182801,0.023294,-0.01048,-0.037380000000000004,-0.009415,0.004632,-0.00035
303,-0.9152440000000001,-1.265444,2.357653,-0.238312,0.953741,-0.183263,0.028633,-0.00625,-0.034144,0.000657,0.005518,0.000722
304,-0.914933,-1.264634,2.358021,-0.238868,0.9534969999999999,-0.183808,0.027556999999999998,-0.003072,-0.028814,0.000754,0.009012000000000001,-0.0024100000000000002
305,-0.9148860000000001,-1.263986,2.358402,-0.239348,0.9533020000000001,-0.184196,0.023163999999999997,-0.022266,-0.020274,-0.002763,0.007086,-0.000588
306,-0.9147850000000001,-1.263136,2.358901,-0.239972,0.953045,-0.18471400000000002,0.024294,-0.012665000000000001,-0.024552,-0.003314,-0.0008349999999999999,-0.0063100000000000005
307,-0.9135690000000001,-1.262168,2.360086,-0.240477,0.952751,-0.185569,0.032955,0.007575,-0.031994999999999996,-0.000337,0.009239,-0.008629000000000001
308,-0.912845,-1.26131,2.360645,-0.24099,0.95249,-0.18624300000000002,0.029735,0.003326,-0.032012,0.001396,0.015268,-0.004568
309,-0.9125620000000001,-1.260692,2.360878,-0.241403,0.9523020000000001,-0.186672,0.028663,0.009691,-0.024549,-0.001243,0.010345,0.0009720000000000001
310,-0.9120090000000001,-1.260102,2.360855,-0.24174299999999999,0.9521219999999999,-0.187149,0.013875,0.038523,-0.028962,0.000776,0.011242,0.000244
311,-0.911818,-1.259701,2.360008,-0.242009,0.9519989999999999,-0.18742899999999998,0.0011300000000000001,0.050289999999999994,-0.030133999999999998,0.006307,0.007581,0.000676
312,-0.9132129999999999,-1.258937,2.3577619999999997,-0.242846,0.951765,-0.18753499999999998,-0.002133,0.038575,-0.028007,-0.015912,-0.002088,-0.00439
313,-0.913278,-1.258095,2.356725,-0.243493,0.951506,-0.18800899999999998,0.007532,0.053451,-0.026892000000000003,-0.013969,-0.000136,-0.008203
314,-0.912642,-1.257348,2.356087,-0.24393499999999999,0.951276,-0.188599,0.012012,0.065359,-0.027839,-0.005806,0.007586,0.001648
315,-0.91289,-1.256669,2.354745,-0.244493,0.951066,-0.188933,0.011945,0.048323000000000005,-0.029955000000000002,-0.011106999999999999,0.012602,-1e-06
316,-0.9136270000000001,-1.255909,2.353296,-0.245205,0.950831,-0.189195,0.0076,0.031294,-0.029963999999999998,-0.018833000000000003,0.002248,0.001466
317,-0.914557,-1.254813,2.35169,-0.246206,0.950491,-0.189602,0.012962999999999999,0.036606,-0.031004000000000004,-0.01356,0.005487,-0.0021550000000000002
318,-0.9147790000000001,-1.2539040000000001,2.350723,-0.246932,0.9502079999999999,-0.190074,0.011883,0.034475,-0.029942,-0.00525,0.008959,-0.002934
319,-0.914724,-1.253339,2.350192,-0.24734699999999998,0.950032,-0.190415,0.011825,0.022753,-0.028858999999999996,-0.000776,0.008464,-0.00028900000000000003
320,-0.915341,-1.252735,2.349183,-0.247919,0.949844,-0.190613,0.011824,0.025936,-0.025658999999999998,-0.00707,0.008149,0.002868
321,-0.9158780000000001,-1.252122,2.347757,-0.248484,0.949651,-0.190834,0.003428,0.053675,-0.028957999999999998,-0.006612000000000001,0.008494,0.000817
322,-0.9172620000000001,-1.251699,2.345132,-0.24906599999999998,0.949519,-0.190734,-0.010399,0.064372,-0.028000999999999998,-0.009004999999999999,0.010334999999999999,0.005782
323,-0.918657,-1.251473,2.342254,-0.24950300000000003,0.949448,-0.19051700000000002,-0.022073,0.0772,-0.029168,-0.011025,0.01213,0.008587000000000001
324,-0.9222799999999999,-1.2510629999999998,2.337031,-0.250502,0.949319,-0.18984700000000002,-0.033796,0.077253,-0.032457,-0.025133000000000003,0.011801,0.005978
325,-0.9273879999999999,-1.249844,2.3307450000000003,-0.252394,0.9489350000000001,-0.18925899999999998,-0.040307,0.043225,-0.042078,-0.036516,0.004495,-0.002284
326,-0.933342,-1.248192,2.323944,-0.254776,0.948413,-0.188686,-0.038073,0.048612,-0.059167,-0.037766,0.003858,-0.000478
327,-0.938316,-1.246983,2.3176349999999997,-0.25663600000000003,0.9480290000000001,-0.188094,-0.041154,0.061461,-0.07309500000000001,-0.015047,0.012191,0.001143
328,-0.94263,-1.2459770000000001,2.312309,-0.258216,0.947708,-0.18754500000000002,-0.035992,0.01991,-0.076211,-0.008232999999999999,0.006439,-0.0028539999999999998
329,-0.9478129999999999,-1.24482,2.3069509999999998,-0.260075,0.9473389999999999,-0.186844,-0.036112,-0.006722,-0.07618,-0.012598999999999999,0.004169,-0.0
330,-0.9531229999999999,-1.243929,2.3012900000000003,-0.261751,0.947053,-0.185949,-0.042423,0.01354,-0.076251,-0.006651000000000001,0.011443,0.00031099999999999997
331,-0.956894,-1.242987,2.2969720000000002,-0.26318,0.94675,-0.185474,-0.042474,0.007128,-0.07090199999999999,-0.0033450000000000003,-0.00036899999999999997,-0.007168000000000001
332,-0.9609770000000001,-1.242009,2.292881,-0.264694,0.946434,-0.184929,-0.033035,-0.022758,-0.064389,-0.010452,-0.00248,-0.010262
333,-0.9650219999999999,-1.240597,2.2893470000000002,-0.26653899999999997,0.9459780000000001,-0.184618,-0.017098,-0.036667,-0.063194,-0.012041,-0.001123,-0.009001
334,-0.9675590000000001,-1.239169,2.287331,-0.26811799999999997,0.945514,-0.18470599999999998,-0.008575,-0.03777,-0.060998000000000004,-0.006464,0.0055969999999999995,-0.013536000000000001
335,-0.9690270000000001,-1.238451,2.286427,-0.268948,0.9452799999999999,-0.184697,0.0052710000000000005,-0.029351,-0.047024,0.011197,0.00339,-0.0023
336,-0.968333,-1.2385030000000001,2.287035,-0.268779,0.9452969999999999,-0.184856,0.001124,0.010029000000000001,-0.034281,0.028208999999999998,0.003907,-0.000951
337,-0.96552,-1.23963,2.2890759999999997,-0.267383,0.945664,-0.185005,6.1e-05,0.035502,-0.009745,0.025516,0.0054009999999999996,-0.001442
338,-0.964283,-1.239959,2.289777,-0.266898,0.9457709999999999,-0.185158,0.0009460000000000001,0.019422,0.014852,0.012747,0.009094,-0.0020670000000000003
339,-0.9630770000000001,-1.2402790000000001,2.290926,-0.266426,0.945875,-0.185307,0.00827,0.002292,0.02988,-0.009789,0.006365,-0.003445
340,-0.9617,-1.239307,2.292339,-0.266924,0.945559,-0.186199,0.020051,0.004411,0.022478,-0.019834,0.001463,-0.015308
341,-0.959751,-1.238972,2.294437,-0.26682,0.945449,-0.186901,0.032826,-0.008391,0.016173,-0.014413999999999998,0.005906000000000001,-0.010851999999999999
342,-0.95826,-1.238736,2.296454,-0.26672399999999996,0.9453729999999999,-0.187427,0.033835000000000004,-0.022239,0.015128999999999998,-0.002884,0.0054329999999999995,0.002704
343,-0.9575049999999999,-1.239411,2.297713,-0.266061,0.945592,-0.18726099999999998,0.026532999999999998,-0.012428,0.017309,0.006783,0.017008000000000002,0.0118
344,-0.956008,-1.239825,2.299366,-0.26546,0.9457270000000001,-0.187434,0.013772999999999999,0.0035700000000000003,0.02361,0.003635,0.016888999999999998,0.002558
345,-0.955571,-1.2401790000000001,2.299655,-0.26510500000000004,0.945842,-0.187356,-0.003221,0.015368999999999999,0.018135,-0.008546,0.012959,0.0035340000000000002
346,-0.955615,-1.240374,2.299228,-0.264962,0.9459049999999999,-0.18723800000000002,-0.010617,0.021825,0.008459999999999999,-0.012259,0.010317,0.0008820000000000001
347,-0.955982,-1.240398,2.298438,-0.26501199999999997,0.9459129999999999,-0.187128,-0.0063159999999999996,0.019718,-0.0011220000000000002,-0.010897,0.007135,-0.0019440000000000002
348,-0.956334,-1.24025,2.29772,-0.26519299999999996,0.945865,-0.187115,-0.0052439999999999995,0.016535,-0.005384000000000001,-0.00385,0.007031,-0.0011330000000000001
349,-0.9566969999999999,-1.240315,2.296957,-0.26521,0.945886,-0.18698299999999998,-0.004178,0.022897,0.001025,-0.002597,0.007559000000000001,0.000368
350,-0.9566520000000001,-1.240514,2.296653,-0.265048,0.945951,-0.186887,-0.003169,0.015416,0.006382,-0.001539,0.009081,0.003629
351,-0.9566709999999999,-1.240788,2.296264,-0.26484,0.94604,-0.18673199999999998,-0.002043,0.025051,0.009677,-0.0022960000000000003,0.005559000000000001,0.003886
352,-0.956177,-1.240964,2.296348,-0.264611,0.946097,-0.18676700000000002,-0.00101,0.01759,0.009694,-0.004737,0.006143,-0.00021400000000000002
353,-0.955483,-1.240961,2.296838,-0.264484,0.9460959999999999,-0.186953,0.001086,0.008,0.008652,-0.0072900000000000005,0.0052899999999999996,-0.005384000000000001
354,-0.9556600000000001,-1.241005,2.296597,-0.26448299999999997,0.94611,-0.186882,-0.0021100000000000003,0.005893,0.0054280000000000005,-0.003171,0.011303,0.00309
355,-0.9553729999999999,-1.241351,2.296708,-0.264162,0.9462219999999999,-0.18676900000000002,-0.004201,0.011244,0.001134,0.00609,0.01142,0.00168
356,-0.9549040000000001,-1.2416260000000001,2.29668,-0.263862,0.946311,-0.18674200000000002,-0.009468,0.02936,0.004279,0.006217,0.004052,0.0010119999999999999
357,-0.954089,-1.242125,2.296694,-0.263324,0.946472,-0.186684,-0.010516,0.039991000000000006,0.010669,0.003192,0.006363000000000001,-0.000801
358,-0.9530549999999999,-1.242604,2.29697,-0.262762,0.946627,-0.186693,-0.004177,0.034608,0.019266,-0.004435000000000001,0.01425,-0.001966
359,-0.9524379999999999,-1.242879,2.297189,-0.262434,0.946715,-0.18670499999999998,-0.004268999999999999,0.015616999999999999,0.020472,-0.009645,0.005845,-0.001085
360,-0.952674,-1.242658,2.2966740000000003,-0.26264899999999997,0.946644,-0.186764,0.001142,0.020972,0.008751,-0.014008000000000001,0.001552,-0.001438
361,-0.952842,-1.242665,2.29623,-0.262675,0.9466459999999999,-0.18671600000000002,0.001132,0.013536000000000001,0.003418,-0.005193,0.013619999999999998,0.004907
362,-0.9525299999999999,-1.242939,2.2962849999999997,-0.262405,0.946734,-0.186648,0.0032649999999999997,0.018833000000000003,0.008768000000000001,0.0008849999999999999,0.013822,0.006701
363,-0.9515950000000001,-1.2437280000000002,2.296708,-0.26162199999999997,0.9469879999999999,-0.18645899999999999,-0.003109,0.029492,0.012985,0.012492,0.009143,0.004315
364,-0.9516100000000001,-1.24447,2.2960529999999997,-0.26105300000000004,0.947226,-0.186048,-0.010574,0.035887999999999996,0.018266,-0.0037020000000000004,0.011209,0.010205
365,-0.951715,-1.244924,2.295117,-0.26072199999999995,0.9473719999999999,-0.185771,-0.016894,0.048714,0.012863999999999999,-0.009373999999999999,0.01146,0.008448
366,-0.9528770000000001,-1.245185,2.2930599999999997,-0.260736,0.9474549999999999,-0.185324,-0.017972,0.040221,0.006456,-0.010976999999999999,0.00625,0.002539
367,-0.9533879999999999,-1.2451729999999999,2.292091,-0.26084,0.9474520000000001,-0.185197,-0.014881,0.012739,0.001342,-0.008844,0.010831,-0.006117
368,-0.9545440000000001,-1.245134,2.290723,-0.26108400000000004,0.9474389999999999,-0.184917,-0.009504,0.013819,-0.007169,-0.007562,0.007012999999999999,0.003078
369,-0.9563020000000001,-1.245317,2.2884860000000002,-0.261267,0.9474969999999999,-0.184358,-0.020078,0.027733999999999998,-0.014738,-0.000268,0.011212,0.009202
370,-0.958254,-1.2459200000000001,2.285929,-0.26115900000000003,0.9476899999999999,-0.18351900000000002,-0.026481,0.025635,-0.016915,0.00733,0.009311,0.010744
371,-0.959757,-1.2463950000000001,2.283846,-0.26106599999999996,0.947842,-0.182868,-0.032897,0.022461000000000002,-0.016954,0.005618,0.009815,-0.00045099999999999996
372,-0.9614360000000001,-1.246484,2.281565,-0.261303,0.9478700000000001,-0.182381,-0.032888,0.024592,-0.016957,-0.004261,0.009878,-0.001838
373,-0.96334,-1.246497,2.279089,-0.26164,0.947874,-0.181876,-0.029697,0.019267,-0.020133,-0.003268,0.008119,-0.001169
374,-0.9649049999999999,-1.246429,2.277238,-0.26197800000000004,0.947852,-0.181503,-0.022328999999999998,0.001115,-0.015785,-0.000336,0.000863,-0.00264
375,-0.965458,-1.246398,2.2765470000000003,-0.262102,0.947843,-0.181375,-0.01273,0.004475,-0.015659,0.0049759999999999995,0.0033439999999999998,-0.004981
376,-0.9655819999999999,-1.246499,2.276191,-0.262045,0.947875,-0.181288,-0.00952,0.009778,-0.012437,0.006461,0.009340000000000001,-0.0033280000000000002
377,-0.965981,-1.246832,2.275474,-0.261858,0.947981,-0.181004,-0.013791999999999999,0.012972,-0.008197,0.007219,0.011659000000000001,0.0024
378,-0.966363,-1.247559,2.274804,-0.26136,0.948212,-0.18051199999999998,-0.015999,0.009732,0.004612,0.011359999999999999,0.007354,0.006028
379,-0.966174,-1.248045,2.274737,-0.260947,0.9483659999999999,-0.1803,-0.014903,0.011876000000000001,0.000346,0.008657999999999999,0.000288,-0.002592
380,-0.966184,-1.248222,2.274349,-0.260811,0.948422,-0.180202,-0.008459,0.018259,-0.002821,-0.0030440000000000003,0.011309999999999999,-0.002568
381,-0.967203,-1.248308,2.272904,-0.260927,0.94845,-0.17988900000000002,-0.013751,0.023621,-0.007137999999999999,-0.004729,0.015158000000000001,0.0026739999999999997
382,-0.9684440000000001,-1.248477,2.271202,-0.261017,0.9485030000000001,-0.179475,-0.021244,0.016198,-0.009318,-0.001876,0.007689,0.0067599999999999995
383,-0.9697479999999999,-1.24864,2.269532,-0.26112399999999997,0.9485549999999999,-0.179047,-0.022266,0.020672,-0.019814,0.005326,0.007897,0.000519
384,-0.9707469999999999,-1.248887,2.2679110000000002,-0.26110900000000004,0.948633,-0.178654,-0.023324,0.023868,-0.018756000000000002,0.0047469999999999995,0.010946,0.002415
385,-0.9726889999999999,-1.2489860000000002,2.265662,-0.261378,0.948664,-0.178093,-0.026612,0.005765,-0.017687,-0.004796,0.006673,-0.001732
386,-0.974332,-1.2488860000000002,2.263802,-0.26174899999999995,0.948633,-0.177717,-0.021238999999999997,0.010025,-0.021928,-0.0026550000000000002,0.0034549999999999997,-0.003252
387,-0.9758540000000001,-1.248705,2.261862,-0.262162,0.948575,-0.17741500000000002,-0.020119,0.018556,-0.025136000000000002,-1.4999999999999999e-05,0.005175,0.00026000000000000003
388,-0.977419,-1.248758,2.259989,-0.262397,0.948592,-0.176976,-0.02022,0.001491,-0.019773,-0.0013050000000000002,0.010713,0.000584
389,-0.9793639999999999,-1.2487110000000001,2.258412,-0.262778,0.948577,-0.17649,-0.018274000000000002,-0.028391000000000003,-0.007970999999999999,-0.006235,0.007203,-0.0015949999999999998
390,-0.9807030000000001,-1.2486959999999998,2.257229,-0.26302600000000004,0.948573,-0.176146,-0.011724,0.008854,-0.003701,0.005183,0.003408,-0.005647
391,-0.980449,-1.249025,2.257041,-0.26272199999999996,0.948677,-0.176039,-0.008531,0.016447999999999997,-0.000267,0.007824,0.002343,0.001891
392,-0.980725,-1.249239,2.25678,-0.26260100000000003,0.948744,-0.175853,-0.005484,-0.009164,0.008333,0.000226,0.0049299999999999995,0.002208
393,-0.982083,-1.2494,2.255634,-0.26271300000000003,0.948795,-0.17541199999999998,-0.004385,-0.004894,0.00513,-0.006665000000000001,0.003414,0.006528
394,-0.982833,-1.249509,2.2550060000000003,-0.262759,0.94883,-0.17515799999999998,-0.001185,-0.008088,0.001952,-0.0047740000000000005,0.004982,0.008715
395,-0.983324,-1.249617,2.254896,-0.262759,0.9488639999999999,-0.17497200000000002,0.002991,-0.023038,0.0073409999999999994,-0.0030489999999999996,0.003239,0.0026850000000000003
396,-0.9839399999999999,-1.249487,2.254969,-0.262969,0.948823,-0.174878,0.012511,-0.033755,0.014897,-0.013916999999999999,-0.00010800000000000001,0.00256
397,-0.984555,-1.249223,2.255154,-0.263286,0.9487389999999999,-0.17485499999999998,0.018887,-0.032737999999999996,0.021348,-0.013936000000000002,-0.00036,0.0052840000000000005
398,-0.9838530000000001,-1.249142,2.256972,-0.263227,0.948714,-0.175082,0.032617,-0.059435,0.02575,-0.009097,4.7e-05,0.001727
399,-0.98298,-1.249284,2.259286,-0.262962,0.948759,-0.17523699999999998,0.044308999999999994,-0.054065999999999996,0.03563,-0.002221,0.006609,0.008535
400,-0.9813379999999999,-1.2497,2.261994,-0.262346,0.94889,-0.175449,0.033649,-0.04235,0.045155,-0.004118,0.009927,0.012012
401,-0.981309,-1.250143,2.263657,-0.261991,0.9490299999999999,-0.175223,0.034503,-0.08392100000000001,0.050554,-0.015673,0.00524,0.005988
402,-0.9818879999999999,-1.250089,2.265176,-0.262135,0.9490129999999999,-0.1751,0.034502,-0.084982,0.049484,-0.02206,0.003151,0.008108
403,-0.982136,-1.250038,2.266497,-0.262219,0.948997,-0.175062,0.030391,-0.056179999999999994,0.043006,-0.018925,0.006966,0.005643
404,-0.981577,-1.2502469999999999,2.268534,-0.261957,0.9490620000000001,-0.175099,0.026037,-0.076401,0.041932,-0.019019,0.005802000000000001,0.005726
405,-0.983432,-1.249738,2.269014,-0.262682,0.948902,-0.174879,0.034446,-0.113678,0.03242,-0.033781,0.0075650000000000005,0.003401
406,-0.9858120000000001,-1.248907,2.2691529999999998,-0.263756,0.9486389999999999,-0.174689,0.032389,-0.109359,0.019577,-0.029274,0.005951,0.002479
407,-0.9869700000000001,-1.248551,2.270484,-0.264239,0.948527,-0.17457,0.032307999999999996,-0.12418,0.019783000000000002,-0.023313,0.001302,0.002908
408,-0.9886469999999999,-1.248133,2.27192,-0.264863,0.9483940000000001,-0.174344,0.040665,-0.155137,0.028424,-0.013549,0.004288,0.001188
409,-0.990066,-1.247925,2.274004,-0.265275,0.9483280000000001,-0.174077,0.043793,-0.165822,0.033799,-0.012512,0.005132,0.0046890000000000005
410,-0.990535,-1.247854,2.27724,-0.265412,0.948306,-0.173989,0.045831000000000004,-0.182891,0.038107,-0.012191,0.003675,-0.000801
411,-0.991634,-1.2472020000000001,2.280468,-0.266121,0.948099,-0.174036,0.055294,-0.21912199999999998,0.032876,-0.023018,0.004553,-0.009115999999999999
412,-0.9931469999999999,-1.246301,2.283897,-0.2671,0.9478120000000001,-0.174099,0.065901,-0.234069,0.031898,-0.020635,0.0066560000000000005,-0.004229999999999999
413,-0.9937280000000001,-1.245749,2.288264,-0.26763899999999996,0.947636,-0.17423,0.067997,-0.239416,0.035123,-0.006439,-0.001072,-0.0028640000000000002
414,-0.9932629999999999,-1.245623,2.294294,-0.267658,0.9475950000000001,-0.17441900000000002,0.081617,-0.280003,0.050225,0.004627,-0.005686,-0.003315
415,-0.9913780000000001,-1.245596,2.3021409999999998,-0.26735,0.9475870000000001,-0.17493699999999998,0.09543,-0.282161,0.061189999999999994,0.0036479999999999998,0.0035240000000000002,-0.006809999999999999
416,-0.988625,-1.245683,2.310874,-0.26679899999999995,0.947614,-0.175627,0.10178,-0.282229,0.072986,0.00386,0.00783,-0.008165
417,-0.9856020000000001,-1.2460579999999999,2.319848,-0.265971,0.947734,-0.17623699999999998,0.10283699999999998,-0.269509,0.087933,0.004755,0.009404000000000001,-0.004397
418,-0.98119,-1.246695,2.3297380000000003,-0.264689,0.947937,-0.177073,0.100762,-0.24929099999999998,0.095372,0.009607,0.010498,-0.007421
419,-0.9759180000000001,-1.247693,2.340358,-0.262968,0.948255,-0.17793499999999998,0.10071000000000001,-0.25251999999999997,0.103924,0.017088,0.0060149999999999995,-0.009656
420,-0.970075,-1.248597,2.351874,-0.26121700000000003,0.948541,-0.17898499999999998,0.105887,-0.270715,0.121077,0.01082,0.001471,-0.011674
421,-0.963039,-1.249425,2.36464,-0.259306,0.9488030000000001,-0.180369,0.11763,-0.255896,0.135029,0.010313,-0.003399,-0.01566
422,-0.9545040000000001,-1.250591,2.378214,-0.25685399999999997,0.9491709999999999,-0.181936,0.116718,-0.217559,0.139249,0.020128999999999998,0.0014210000000000002,-0.013895
423,-0.9434819999999999,-1.252273,2.393534,-0.25354,0.949699,-0.183819,0.124328,-0.18348299999999998,0.145847,0.035981,0.00512,-0.016071000000000002
424,-0.930899,-1.254016,2.409927,-0.249879,0.9502430000000001,-0.186006,0.12118699999999999,-0.166442,0.150082,0.033418,0.009336,-0.017363
425,-0.918932,-1.255559,2.425164,-0.24647,0.950723,-0.188093,0.116042,-0.129121,0.145729,0.024515000000000002,0.009299,-0.011675
426,-0.9090360000000001,-1.256843,2.437966,-0.243633,0.9511200000000001,-0.189773,0.10119700000000001,-0.128987,0.125332,0.011531,0.026999000000000002,-0.008012
427,-0.9026850000000001,-1.257886,2.4475130000000003,-0.241643,0.951442,-0.190701,0.093829,-0.136298,0.09538200000000001,0.0025989999999999997,0.03658,0.003064
428,-0.89866,-1.258842,2.453937,-0.240162,0.951735,-0.191106,0.07182899999999999,-0.070076,0.070576,0.006077,0.022340000000000002,0.018269999999999998
429,-0.8965059999999999,-1.260342,2.457127,-0.23863499999999999,0.9521950000000001,-0.19073199999999998,0.032619,-0.026198000000000003,0.054224,0.010699,0.021057,0.030864999999999997
430,-0.895911,-1.261479,2.458524,-0.237675,0.952542,-0.190197,0.005954999999999999,-0.031402,0.046568,-0.007228,0.019413,0.030498
431,-0.8972899999999999,-1.262373,2.45758,-0.23727199999999998,0.9528129999999999,-0.189338,-0.014094999999999998,0.0007030000000000001,0.033713,-0.030215,0.0048130000000000004,0.031714
432,-0.8999520000000001,-1.262477,2.454736,-0.237697,0.952845,-0.188644,-0.013866,0.021066,0.002707,-0.038929000000000005,0.00147,0.023208000000000003
433,-0.900175,-1.2624799999999998,2.453678,-0.23773699999999998,0.9528459999999999,-0.188589,-0.013636,0.054162,-0.015493999999999999,-0.038493,0.003743,0.018164
434,-0.9006049999999999,-1.2625819999999999,2.4517700000000002,-0.237742,0.9528770000000001,-0.188426,-0.038145,0.067005,-0.009272,-0.0333,-0.020046,0.02029
435,-0.9052040000000001,-1.262881,2.446672,-0.238382,0.952968,-0.187155,-0.031010000000000003,-0.001219,-0.003796,-0.029639,0.014668,0.013647
436,-0.906292,-1.2631,2.446452,-0.238421,0.953034,-0.18676700000000002,-0.003621,-0.066349,0.009297,-0.039564,0.00592,0.005645000000000001
437,-0.9115,-1.2626760000000001,2.443496,-0.23970999999999998,0.9529049999999999,-0.18577,-0.017731,-0.12593,0.002862,-0.047323000000000004,0.005789,0.006784
438,-0.9200459999999999,-1.261459,2.4378889999999998,-0.24221199999999998,0.952535,-0.184417,-0.009235,-0.14190999999999998,-0.004543,-0.036505,0.006769,0.0009449999999999999
439,-0.924169,-1.260897,2.436801,-0.24339699999999997,0.952364,-0.18374000000000001,0.006692,-0.152644,0.001989,-0.028102999999999996,0.0032020000000000004,-0.004294
440,-0.924385,-1.260118,2.439677,-0.244029,0.9521270000000001,-0.184133,0.032227,-0.147492,0.023524,0.005717,-0.006706999999999999,-0.019449
441,-0.9218620000000001,-1.2603540000000002,2.444846,-0.243385,0.952199,-0.184613,0.034367,-0.11778599999999999,0.05234400000000001,0.018012,-0.000233,-0.011691
442,-0.920739,-1.261058,2.448543,-0.24264299999999997,0.952413,-0.184481,0.018262999999999998,-0.127369,0.065063,0.012449,0.01034,0.00316
443,-0.9198799999999999,-1.26201,2.451668,-0.24176399999999998,0.9527030000000001,-0.184139,0.021736000000000002,-0.07727,0.054340999999999993,0.00156,0.015315,0.007305
444,-0.9178790000000001,-1.2625790000000001,2.454109,-0.24096399999999998,0.9528760000000001,-0.184293,0.004079,0.015527000000000001,0.040212,0.005063000000000001,0.012731000000000001,0.018354
445,-0.916049,-1.263447,2.455272,-0.23997,0.953139,-0.18423,-0.021454,0.041145,0.049615,0.003718,0.014162000000000001,0.019802
446,-0.9153479999999999,-1.264968,2.455469,-0.238691,0.953598,-0.183515,-0.030163,0.015557,0.062405999999999996,-0.010805,0.011231,0.002393
447,-0.9147799999999999,-1.26643,2.456398,-0.23748200000000003,0.9540370000000001,-0.1828,-0.030417000000000003,-0.035597000000000004,0.06781000000000001,-0.045172000000000004,0.005054,-0.022690000000000002
448,-0.9154639999999999,-1.2660040000000001,2.457239,-0.237929,0.953909,-0.182885,-0.0018100000000000002,-0.082561,0.065928,-0.064912,-0.007147,-0.025108000000000002
449,-0.913761,-1.2667709999999999,2.460701,-0.237038,0.954139,-0.182843,0.028129,-0.073056,0.060784000000000005,-0.044563,-0.012123,-0.008838
450,-0.911006,-1.267334,2.465209,-0.236109,0.954308,-0.183166,0.039764,-0.089102,0.06729500000000001,-0.009741,-0.002419,0.013212999999999999
451,-0.910206,-1.268234,2.468972,-0.23528400000000002,0.954576,-0.182828,0.043642,-0.15948900000000002,0.08343500000000001,-0.005484,0.003691,0.01553
452,-0.9078930000000001,-1.269076,2.4754680000000002,-0.234227,0.9548270000000001,-0.182877,0.056161,-0.211774,0.09427200000000001,-0.01469,0.002861,0.0064849999999999994
453,-0.908015,-1.2690190000000001,2.480159,-0.234292,0.95481,-0.182882,0.066853,-0.216034,0.084735,-0.036322,0.005884,0.0024010000000000004
454,-0.905208,-1.269336,2.487266,-0.23354,0.9549040000000001,-0.183352,0.074489,-0.188325,0.075138,-0.004451,0.008338,-0.000227
455,-0.902126,-1.269762,2.494377,-0.232654,0.9550299999999999,-0.183818,0.064844,-0.185147,0.087886,0.012195000000000001,0.011644,0.0071519999999999995
456,-0.8992600000000001,-1.2716040000000002,2.50135,-0.23074899999999998,0.955575,-0.18339,0.043404000000000005,-0.192589,0.102703,0.027441000000000004,0.010947,0.027353
457,-0.896882,-1.272804,2.5076330000000002,-0.22941599999999998,0.9559280000000001,-0.183222,0.030702999999999998,-0.16911199999999998,0.103653,0.004075,0.010869,0.014445
458,-0.894259,-1.273984,2.513507,-0.228055,0.956274,-0.183116,0.028745999999999997,-0.13711700000000002,0.09612000000000001,-0.015964,0.006922,0.0034590000000000003
459,-0.8935,-1.274731,2.516839,-0.227359,0.956492,-0.182842,0.020441,-0.10080900000000001,0.081059,-0.020337,0.007711,0.005092
460,-0.8957200000000001,-1.275563,2.516983,-0.22714299999999998,0.956734,-0.181839,0.008707,-0.10500899999999999,0.075638,-0.017028,0.011253,0.01384
461,-0.8995549999999999,-1.276973,2.515952,-0.226782,0.9571440000000001,-0.180128,0.006426,-0.13483900000000001,0.077794,-0.013453,0.0075780000000000005,0.01991
462,-0.901949,-1.2780049999999998,2.516999,-0.226438,0.957442,-0.178972,0.022272999999999998,-0.165801,0.08114600000000001,-0.012744,0.0039380000000000005,0.008836
463,-0.903618,-1.278484,2.519104,-0.22637600000000002,0.9575799999999999,-0.17831,0.030768,-0.176476,0.07908,-0.017811,0.000229,0.007776999999999999
464,-0.9066110000000001,-1.278938,2.5202880000000003,-0.226566,0.9577110000000001,-0.17736300000000002,0.028555,-0.19988,0.072681,-0.019391,0.010870999999999999,0.010463
465,-0.910365,-1.279388,2.521202,-0.22689,0.9578399999999999,-0.17624700000000001,0.031687,-0.223294,0.064184,-0.019158,0.013946,0.010520999999999999
466,-0.913432,-1.279764,2.5228080000000004,-0.227144,0.9579479999999999,-0.17532999999999999,0.034986,-0.21154499999999998,0.053507000000000006,-0.009428,0.0045,0.010215
467,-0.91464,-1.280559,2.5257259999999997,-0.226752,0.958176,-0.174591,0.033027,-0.188026,0.045135,0.005683,0.003646,0.01207
468,-0.916876,-1.281867,2.527812,-0.226147,0.95855,-0.173321,0.022159,-0.227421,0.049384,0.006497,0.010795,0.017131999999999998
469,-0.9211239999999999,-1.282931,2.529476,-0.226069,0.958852,-0.171742,0.021749,-0.31797,0.049498,-0.004964,0.017237,0.008061
470,-0.92475,-1.2826739999999999,2.532734,-0.226888,0.958779,-0.17107,0.035581,-0.333967,0.042135,-0.017848,0.005164,-0.014385
471,-0.925673,-1.281641,2.5380119999999997,-0.227836,0.958485,-0.171455,0.045493,-0.285981,0.021845,-0.003426,-0.008839,-0.021797
472,-0.923018,-1.281461,2.546076,-0.22751799999999997,0.958434,-0.172164,0.051951,-0.272162,0.024012000000000002,0.027444,0.0015119999999999999,-0.02231
473,-0.91805,-1.2822360000000002,2.5568,-0.22607,0.9586549999999999,-0.172841,0.065592,-0.30212100000000003,0.045517,0.040859,-0.001425,-0.01292
474,-0.9183819999999999,-1.282284,2.562935,-0.226091,0.9586680000000001,-0.172738,0.06977799999999999,-0.308575,0.057304999999999995,0.021974,0.013622,-0.007682
475,-0.91771,-1.282211,2.569707,-0.22603,0.9586469999999999,-0.172932,0.061397,-0.28082199999999996,0.050802,-0.007277,0.016206,-0.006267
476,-0.917585,-1.282184,2.575007,-0.226029,0.9586399999999999,-0.172976,0.055245,-0.22965,0.046419999999999996,-0.005569,0.015649,-0.0062840000000000005
477,-0.915215,-1.282224,2.5813900000000003,-0.225588,0.958651,-0.173488,0.046942000000000005,-0.16893699999999998,0.055899000000000004,0.002916,0.003599,-0.012089
478,-0.9131040000000001,-1.283449,2.586561,-0.224291,0.9589989999999999,-0.173246,0.022446,-0.14440999999999998,0.070654,0.00249,0.007126,0.014646000000000001
479,-0.9153049999999999,-1.284478,2.588555,-0.22389,0.95929,-0.17215,0.011364,-0.245535,0.061091,-0.030261,0.012298,0.017594
480,-0.918221,-1.2849629999999999,2.5918,-0.224021,0.959427,-0.171214,0.028203,-0.319008,0.03887,-0.058251,0.012085,0.002513
481,-0.920791,-1.2849760000000001,2.5951049999999998,-0.224451,0.9594309999999999,-0.17063,0.042413,-0.258277,0.023936000000000002,-0.059439,0.004437,-0.0009390000000000001
482,-0.924668,-1.2839049999999999,2.596078,-0.22593000000000002,0.9591280000000001,-0.170377,0.044705,-0.226314,0.020703,-0.033164,0.001168,0.001737
483,-0.9262319999999999,-1.283959,2.599828,-0.22615500000000002,0.959144,-0.169992,0.04115,-0.282851,0.043183,-0.007716,-0.019477,-0.006689
484,-0.927278,-1.2842930000000001,2.605371,-0.226077,0.9592379999999999,-0.16956400000000002,0.063204,-0.334169,0.070108,-0.007139,-0.025003,-0.009712
485,-0.925645,-1.284232,2.614168,-0.225847,0.9592209999999999,-0.169968,0.105736,-0.343994,0.09285,-0.000807,-0.020973,-0.003204
486,-0.920708,-1.284359,2.626719,-0.224908,0.959257,-0.171007,0.154605,-0.359203,0.12418900000000001,0.027932,-0.008298,0.015902
487,-0.9116219999999999,-1.2853569999999999,2.643321,-0.222588,0.9595379999999999,-0.172457,0.184437,-0.328572,0.163885,0.024635,0.004344,0.015550999999999999
488,-0.8996,-1.28616,2.6621330000000003,-0.21989499999999998,0.959764,-0.17464100000000002,0.181203,-0.288273,0.21188,0.021393000000000002,0.019515,0.009251
489,-0.885583,-1.287631,2.682554,-0.21633200000000002,0.960176,-0.176813,0.17469200000000001,-0.274555,0.250273,0.0032890000000000003,0.012114,-0.013571000000000001
490,-0.8685450000000001,-1.288894,2.705804,-0.212362,0.960528,-0.17968900000000002,0.18646300000000002,-0.267138,0.250347,0.0021420000000000002,0.0013859999999999999,-0.03047
491,-0.8524700000000001,-1.290114,2.727443,-0.208564,0.960867,-0.182308,0.185722,-0.212734,0.23211199999999999,0.007499,0.008584999999999999,-0.027302
492,-0.8343709999999999,-1.29128,2.749623,-0.2044,0.961189,-0.1853,0.172265,-0.147597,0.205231,0.01838,0.026862999999999998,-0.014773
493,-0.8195979999999999,-1.291944,2.768021,-0.201174,0.9613719999999999,-0.187864,0.157377,-0.152807,0.189111,0.019869,0.031136,-0.007693000000000001
494,-0.807168,-1.292573,2.783998,-0.19838699999999998,0.9615450000000001,-0.189932,0.124525,-0.131275,0.16108,0.006523,0.038394,-0.007075
495,-0.79751,-1.2935809999999999,2.795799,-0.19585,0.9618209999999999,-0.191162,0.07171799999999999,-0.051036,0.12108499999999998,0.00658,0.047654,0.010757
496,-0.791312,-1.29453,2.80228,-0.194011,0.962081,-0.19172999999999998,0.005004,0.020729,0.08100299999999999,0.01675,0.039552,0.017459
497,-0.789307,-1.295849,2.803558,-0.192726,0.9624389999999999,-0.191225,-0.056629,0.043443999999999997,0.048496,0.026253,0.026422,0.017702000000000002
498,-0.789543,-1.2987790000000001,2.80229,-0.190768,0.963231,-0.189193,-0.07786,0.051044,0.03125,0.033831,0.001918,0.032623
499,-0.790705,-1.300176,2.79946,-0.190031,0.9636049999999999,-0.188025,-0.07331900000000001,0.097956,0.017335,0.031278,0.01253,0.02767
500,-0.790909,-1.3026149999999999,2.796592,-0.188398,0.9642540000000001,-0.186333,-0.064525,0.138478,-0.0008119999999999999,0.028348,0.018396,0.025444
501,-0.792108,-1.3034139999999999,2.792498,-0.188072,0.9644659999999999,-0.185565,-0.067696,0.134271,-0.011511,0.021889,0.022045,-0.0005009999999999999
502,-0.793894,-1.304561,2.7879680000000002,-0.187615,0.9647680000000001,-0.184453,-0.08479600000000001,0.123695,-0.015889,0.009178,-0.005784,0.0040939999999999995
503,-0.796125,-1.3055860000000001,2.782811,-0.187319,0.965037,-0.183343,-0.083652,0.14816300000000002,-0.008434,0.006334,-0.0036880000000000003,0.00808
504,-0.798004,-1.307139,2.777663,-0.186589,0.965443,-0.181943,-0.09109199999999999,0.149276,-0.013828,0.009937999999999999,0.009319,0.00633
505,-0.8010109999999999,-1.308382,2.771963,-0.186274,0.965767,-0.180546,-0.082697,0.107743,-0.024397,-0.0036829999999999996,0.025078,-0.004649
506,-0.806042,-1.3088540000000002,2.764834,-0.186851,0.9658889999999999,-0.179291,-0.084783,0.09824400000000001,-0.044697,-0.012107999999999999,0.022987999999999998,-0.0051259999999999995
507,-0.812949,-1.308581,2.755322,-0.188277,0.9658180000000001,-0.178178,-0.097359,0.131381,-0.061921000000000004,-0.010209000000000001,0.0036950000000000004,-0.004454
508,-0.818445,-1.309587,2.746566,-0.18854400000000002,0.9660780000000001,-0.176477,-0.11003299999999999,0.1517,-0.070579,0.015143,0.008745000000000001,0.0036710000000000002
509,-0.8216870000000001,-1.310825,2.7395490000000002,-0.18823900000000002,0.966397,-0.17505,-0.09825,0.180349,-0.052371,0.028480000000000002,0.010912999999999999,0.00081
510,-0.821915,-1.312408,2.735257,-0.187157,0.9668030000000001,-0.173965,-0.097207,0.18563,-0.041683,0.017785,0.0004969999999999999,-0.002076
511,-0.823894,-1.313209,2.729021,-0.186934,0.967007,-0.173068,-0.091786,0.20690799999999998,-0.039535,0.0016,0.002338,-0.004224
512,-0.826498,-1.313858,2.721588,-0.186921,0.967173,-0.172155,-0.09485700000000001,0.23992600000000003,-0.035325999999999996,-0.002516,0.000769,0.002264
513,-0.8293659999999999,-1.3144850000000001,2.713778,-0.186967,0.967332,-0.171209,-0.092824,0.228158,-0.024616,-0.006712999999999999,0.00418,-0.002589
514,-0.8319209999999999,-1.314927,2.7070119999999998,-0.187088,0.9674440000000001,-0.170443,-0.08237,0.18548900000000001,-0.019148,-0.012054,0.008905,-0.005705
515,-0.835384,-1.3148600000000001,2.70011,-0.187725,0.967427,-0.16983800000000002,-0.059,0.15879200000000002,-0.023227,-0.019153,0.00613,-0.002495
516,-0.8383649999999999,-1.314478,2.693924,-0.188506,0.9673299999999999,-0.169525,-0.047244,0.156646,-0.029554,-0.015336,0.004564,-0.003266
517,-0.8388450000000001,-1.314619,2.6900169999999997,-0.188486,0.967366,-0.169343,-0.043981,0.171544,-0.028482,0.004647999999999999,0.008938,-0.0025629999999999997
518,-0.836967,-1.3156459999999999,2.687998,-0.18742899999999998,0.967625,-0.169031,-0.049232,0.193924,-0.018751,0.019049,0.010326,0.003168
519,-0.834433,-1.3170680000000001,2.68629,-0.185981,0.967983,-0.16858099999999998,-0.0535,0.20561100000000002,-0.0070420000000000005,0.019888999999999997,0.0071909999999999995,0.004122
520,-0.831242,-1.318463,2.684955,-0.184444,0.968333,-0.16826300000000002,-0.050238,0.226875,0.000434,0.016291999999999997,0.008749,3.5e-05
521,-0.8267260000000001,-1.3195620000000001,2.684439,-0.1829,0.968606,-0.168374,-0.045879,0.25452800000000003,0.007909000000000001,0.010414,0.012687,-0.006370000000000001
522,-0.8223209999999999,-1.320461,2.683552,-0.181518,0.968829,-0.16858499999999998,-0.052274,0.253494,0.005731,0.006804999999999999,0.0033229999999999996,-0.004129
523,-0.81973,-1.321434,2.681205,-0.180391,0.9690700000000001,-0.16841099999999998,-0.057679999999999995,0.23329,0.0014470000000000002,0.005007,-0.00296,-0.000869
524,-0.818394,-1.322163,2.6778049999999998,-0.17965,0.96925,-0.168169,-0.057679999999999995,0.232229,0.00037999999999999997,-0.0043100000000000005,0.002705,-0.001539
525,-0.818121,-1.322925,2.673325,-0.179065,0.9694370000000001,-0.167714,-0.054447,0.23437,-0.004942,-0.0074730000000000005,0.014480000000000002,0.00446
526,-0.819055,-1.32339,2.6675,-0.178892,0.969551,-0.167238,-0.055414,0.24295100000000003,-0.018848,-0.009142,0.006279,0.002184
527,-0.819146,-1.323523,2.662387,-0.178814,0.969583,-0.167134,-0.044674,0.249344,-0.028395999999999998,-0.011814,0.000982,3.5e-05
528,-0.819853,-1.323086,2.656535,-0.179241,0.969476,-0.167297,-0.031843,0.25569000000000003,-0.028317000000000002,-0.01099,-0.0036409999999999997,0.000701
529,-0.818628,-1.323035,2.653104,-0.179073,0.969464,-0.16755,-0.028906,0.206639,-0.018621000000000002,-0.010045,0.008152,-0.000113
530,-0.818472,-1.3231549999999999,2.6497599999999997,-0.17896099999999998,0.969493,-0.167498,-0.020645,0.15862,-0.005684000000000001,-0.009363,0.007664,0.004686
531,-0.820249,-1.3231389999999998,2.644866,-0.17927,0.9694889999999999,-0.16719,-0.022737,0.168215,-0.005713,-0.015356,0.011193,0.009552
532,-0.820315,-1.323377,2.6409580000000004,-0.17911300000000002,0.969548,-0.167022,-0.031048000000000003,0.202397,-0.021838999999999997,-0.010844,0.0044670000000000005,0.013122
533,-0.8210299999999999,-1.323328,2.636031,-0.179266,0.9695360000000001,-0.166925,-0.0256,0.207785,-0.042105000000000004,-0.008631,0.009101999999999999,0.013041
534,-0.823673,-1.323148,2.6292560000000003,-0.179835,0.969492,-0.16657,-0.035204,0.200391,-0.049641000000000005,-0.016714,0.010596,0.012348999999999999
535,-0.827147,-1.322933,2.62183,-0.180566,0.9694389999999999,-0.16608499999999998,-0.045912,0.186601,-0.05504,-0.01937,0.018156,0.015053
536,-0.834324,-1.322846,2.611004,-0.181816,0.969417,-0.16484200000000002,-0.066195,0.170748,-0.069051,-0.01342,0.008167,0.017122
537,-0.842683,-1.3227520000000001,2.5993,-0.183255,0.9693940000000001,-0.163377,-0.07476100000000001,0.150592,-0.082973,-0.011722,0.008068,0.011964
538,-0.8494659999999999,-1.322398,2.589459,-0.184617,0.9693069999999999,-0.162357,-0.079057,0.128301,-0.098998,-0.01036,0.008154999999999999,0.010944
539,-0.85861,-1.321592,2.577607,-0.186685,0.969109,-0.161172,-0.067289,0.122984,-0.111729,-0.02024,0.012687,0.0025570000000000002
540,-0.868175,-1.31992,2.56518,-0.18945499999999998,0.9686950000000001,-0.16042599999999999,-0.053305,0.136831,-0.123402,-0.017043,-0.002478,0.001353
541,-0.8757860000000001,-1.318333,2.5546450000000003,-0.191851,0.9683,-0.15996400000000002,-0.048024000000000004,0.125094,-0.123352,-0.008726000000000001,0.007408,-0.000269
542,-0.8834,-1.317231,2.544874,-0.19388699999999998,0.968024,-0.159175,-0.054728,0.070737,-0.11051,-0.003134,0.008554,0.004222
543,-0.8936219999999999,-1.3162129999999999,2.533736,-0.196272,0.9677680000000001,-0.157803,-0.058212,0.015324,-0.10298800000000001,-0.01523,0.00617,0.003887
544,-0.902751,-1.314697,2.5244590000000002,-0.198856,0.967385,-0.15691300000000002,-0.045525,-0.011348,-0.10393499999999999,-0.027476999999999998,0.009528,-0.007882
545,-0.909308,-1.3123120000000001,2.517731,-0.201701,0.966779,-0.157022,-0.020918,0.00242,-0.104852,-0.012594,-0.001294,-0.017279
546,-0.9114329999999999,-1.310908,2.515167,-0.20310699999999998,0.966419,-0.157425,0.001426,0.010775,-0.082273,0.018414,-0.011447,-0.007843000000000001
547,-0.913435,-1.3098370000000001,2.513095,-0.204241,0.966143,-0.15765,0.016094,-0.008614,-0.041553,0.033953,-0.0152,-0.008304
548,-0.9116780000000001,-1.309931,2.515571,-0.20389200000000002,0.966167,-0.157953,0.010329000000000001,-0.06096699999999999,0.002273,0.032123,-0.000408,-0.009161
549,-0.910114,-1.3094780000000001,2.518739,-0.20399,0.96605,-0.15854000000000001,0.017616999999999997,-0.08768,0.016244,-0.022527000000000002,0.002288,-0.016936
550,-0.9089719999999999,-1.3083930000000001,2.521621,-0.20463499999999998,0.9657690000000001,-0.159418,0.047577,-0.076036,0.008959,-0.027756,0.000173,-0.022696
551,-0.9071459999999999,-1.306781,2.52489,-0.20556999999999997,0.96535,-0.16075,0.061576,-0.06113,0.0017050000000000001,-0.028607,-0.002093,-0.019625
552,-0.904726,-1.3060889999999998,2.528747,-0.205706,0.965169,-0.16166,0.058308000000000006,-0.071788,0.0059689999999999995,-0.010512,0.0028179999999999998,-0.000236
553,-0.904658,-1.305674,2.530733,-0.20600900000000003,0.96506,-0.161921,0.043213,-0.093097,0.019777,-0.014480000000000002,0.011731,0.010828
554,-0.903156,-1.305628,2.534246,-0.205801,0.9650479999999999,-0.16225699999999998,0.035707,-0.093105,0.02827,-0.017985,0.009285999999999999,0.010478
555,-0.9017270000000001,-1.305563,2.537651,-0.205618,0.965031,-0.162591,0.03895,-0.090956,0.020812,-0.035867,0.008601000000000001,-0.004035
556,-0.9032709999999999,-1.304446,2.5378439999999998,-0.206715,0.9647379999999999,-0.16294,0.034865,-0.068498,0.002592,-0.038600999999999996,0.004912,0.000144
557,-0.9037940000000001,-1.303977,2.538708,-0.207156,0.964615,-0.16311199999999998,0.014666,-0.07366900000000001,-0.018907,-0.035764,0.007859,0.008570999999999999
558,-0.915665,-1.302722,2.529266,-0.210037,0.964283,-0.161379,-0.002633,-0.130044,-0.025371,-0.042831,0.013637999999999999,0.01996
559,-0.927892,-1.300541,2.520268,-0.213678,0.9637030000000001,-0.16005899999999998,-0.0016589999999999999,-0.15029,-0.025346,-0.052451,0.004483,0.0027559999999999998
560,-0.9338350000000001,-1.298905,2.516952,-0.215892,0.9632649999999999,-0.159724,0.004915,-0.115146,-0.028554000000000003,-0.048329000000000004,0.000404,-0.007619
561,-0.9381639999999999,-1.297166,2.515165,-0.21793200000000001,0.9627959999999999,-0.159778,0.011174,-0.14288199999999998,-0.024205,-0.017480000000000002,0.000842,-0.007687
562,-0.9440459999999999,-1.295709,2.513413,-0.220004,0.9624020000000001,-0.159316,0.022459,-0.236692,-0.0176,-0.021787,0.003114,-0.0010689999999999999
563,-0.949794,-1.29447,2.512987,-0.221886,0.9620639999999999,-0.158743,0.039443,-0.263354,-0.024927,-0.023536,-0.002027,0.0014089999999999999
564,-0.955398,-1.293492,2.512391,-0.22354000000000002,0.9617969999999999,-0.158039,0.041733,-0.23139099999999999,-0.028158,0.00022799999999999999,0.003169,0.008229
565,-0.957383,-1.29398,2.51496,-0.22346999999999997,0.96193,-0.157325,0.034206,-0.23141599999999998,-0.015387999999999999,0.016911000000000002,0.009948,-0.00019099999999999998
566,-0.960124,-1.2935299999999998,2.517184,-0.224254,0.961807,-0.15696,0.039377999999999996,-0.24643299999999999,0.006032,0.017696,0.010071,-0.000556
567,-0.958943,-1.293339,2.5231169999999996,-0.224219,0.9617549999999999,-0.15733,0.044747,-0.226262,0.018864,0.006263,0.008673,-0.015811000000000002
568,-0.9537709999999999,-1.293794,2.532025,-0.223046,0.961879,-0.158235,0.043946,-0.164484,0.021988,0.026330000000000003,-0.000667,-0.003432
569,-0.951807,-1.294627,2.536609,-0.22208200000000003,0.9621069999999999,-0.158208,0.028166000000000004,-0.11230799999999999,0.033679,0.032721,0.007879,0.006215
570,-0.950155,-1.296352,2.54055,-0.22046999999999997,0.962576,-0.157609,0.016352000000000002,-0.11551800000000001,0.047491000000000005,0.016323,0.015909,0.007631000000000001
571,-0.950799,-1.2968620000000002,2.542456,-0.22017199999999998,0.962714,-0.157182,0.02069,-0.115469,0.031498000000000005,-0.010938,0.0142,0.000947
572,-0.9513159999999999,-1.296118,2.543734,-0.220836,0.962513,-0.15748399999999999,0.026361000000000002,-0.062139,0.010102,-0.020725999999999998,0.011425,-0.009417
573,-0.950319,-1.295419,2.545642,-0.22122600000000003,0.9623229999999999,-0.158095,0.026506000000000002,-0.037607999999999996,0.002593,-0.00526,0.009693,-0.008378
574,-0.9490069999999999,-1.2958459999999998,2.5479130000000003,-0.220685,0.9624389999999999,-0.158146,0.017865,-0.053587,0.010033,0.018429,0.000254,0.008579
575,-0.9488219999999999,-1.297321,2.549443,-0.21950100000000003,0.962838,-0.157359,0.0017109999999999998,-0.06745599999999999,0.029169,0.020297,0.007575,0.016108
576,-0.9509219999999999,-1.298738,2.548812,-0.21871999999999997,0.9632200000000001,-0.156105,-0.008989,-0.064262,0.038705,-0.001266,0.017356,0.01551
577,-0.9520870000000001,-1.299018,2.54871,-0.218683,0.9632950000000001,-0.155694,0.004,-0.034432,0.027005,-0.017401,0.0041270000000000005,-0.001258
578,-0.952465,-1.2982049999999998,2.548623,-0.21938000000000002,0.963076,-0.156065,0.008522,0.003975,0.008825,-0.026104000000000002,0.0040100000000000005,-0.009081
579,-0.952789,-1.297626,2.5481529999999997,-0.21988400000000002,0.9629209999999999,-0.156317,0.017138999999999998,0.009322,-0.003942,-0.009394,0.005448,0.002523
580,-0.9519110000000001,-1.297757,2.549042,-0.219644,0.9629559999999999,-0.156437,0.017071,-0.002408,-0.000722,0.010598999999999999,0.006298,0.0069310000000000005
581,-0.950327,-1.298616,2.550636,-0.218723,0.9631870000000001,-0.156303,0.009581999999999999,0.003967,0.009902,0.01929,0.006462999999999999,0.009009999999999999
582,-0.94915,-1.299792,2.551688,-0.21761799999999998,0.9635030000000001,-0.155901,0.001031,0.008228000000000001,0.017318,0.016187,0.009566,0.011339
583,-0.9499190000000001,-1.301009,2.5506580000000003,-0.216784,0.963828,-0.155051,-0.007445,0.024228,0.019375999999999997,-0.001539,0.013315,0.01171
584,-0.950349,-1.301379,2.549456,-0.216561,0.9639260000000001,-0.154751,-0.01686,0.04883,0.002187,-0.006691,0.0059229999999999994,0.011563
585,-0.952782,-1.301458,2.546009,-0.21687399999999998,0.9639469999999999,-0.15417899999999998,-0.027429000000000002,0.050018,-0.019254,-0.00624,0.005886,0.005772
586,-0.955253,-1.3014649999999999,2.542407,-0.21724899999999997,0.963949,-0.153639,-0.029481999999999998,0.059647000000000006,-0.027826999999999998,-0.0022789999999999998,0.017374,0.003966
587,-0.957067,-1.301563,2.5388580000000003,-0.21745100000000003,0.963975,-0.15319100000000002,-0.028272000000000002,0.093723,-0.025725,-0.000384,0.013015,0.011299
588,-0.959299,-1.3019479999999999,2.534576,-0.21748800000000001,0.9640780000000001,-0.15249200000000002,-0.035727999999999996,0.098006,-0.024714,0.0042,0.010395,0.009044
589,-0.9604299999999999,-1.302103,2.5314520000000003,-0.217538,0.9641190000000001,-0.15216,-0.036843,0.09054,-0.021507,0.001397,0.017556,0.000671
590,-0.9640340000000001,-1.302029,2.525995,-0.218144,0.9640989999999999,-0.151416,-0.043293,0.086275,-0.015138999999999998,-0.020595,0.013547,0.005252000000000001
591,-0.968374,-1.301707,2.5201689999999997,-0.219054,0.9640139999999999,-0.150643,-0.041199,0.07031799999999999,-0.022585,-0.020219,0.009604000000000001,0.004296
592,-0.971,-1.3016729999999999,2.515891,-0.21947600000000003,0.9640040000000001,-0.150086,-0.048547,0.08,-0.03974,-0.018836000000000002,0.007599,0.005601
593,-0.974824,-1.301747,2.5099549999999997,-0.21999000000000002,0.964024,-0.149206,-0.053752999999999995,0.105598,-0.043014,0.0008730000000000001,0.012569,0.0026149999999999997
594,-0.97836,-1.3020530000000001,2.504094,-0.220271,0.9641049999999999,-0.14826199999999998,-0.056954,0.10985299999999999,-0.038768000000000004,0.002741,0.008444,0.00872
595,-0.9817799999999999,-1.3023209999999998,2.498369,-0.22056199999999998,0.964176,-0.147365,-0.06554700000000001,0.104527,-0.031343,0.001797,0.002529,0.00648
596,-0.9881709999999999,-1.3025360000000001,2.489661,-0.22132600000000002,0.964233,-0.14583800000000002,-0.051585,0.124722,-0.032341,-0.019106,0.011398,0.029001
597,-0.9908100000000001,-1.3022610000000001,2.484234,-0.22193200000000002,0.964161,-0.145399,-0.03123,0.134277,-0.041826,-0.01789,0.027798000000000003,0.008619
598,-0.990827,-1.3014780000000001,2.481178,-0.222565,0.9639530000000001,-0.145808,-0.034281,0.150335,-0.058960000000000005,-0.005553,0.011816,-0.016896
599,-0.994742,-1.3011110000000001,2.474211,-0.223431,0.9638549999999999,-0.145129,-0.062149,0.12485299999999999,-0.055917999999999995,-0.002734,-0.005023,0.012637
600,-0.9960110000000001,-1.301267,2.471303,-0.223489,0.9638959999999999,-0.144763,-0.07446699999999999,0.026763,-0.02383,0.016885,-0.012267,-0.037212999999999996
601,-0.9988370000000001,-1.301765,2.468616,-0.223494,0.9640290000000001,-0.143871,-0.014063999999999998,-0.025800999999999998,0.015115,0.001478,-0.047449,-0.037999
602,-0.9951549999999999,-1.301936,2.472014,-0.22282399999999997,0.964074,-0.144603,0.05237000000000001,0.061225999999999996,0.038969,-0.01973,-0.036355,-0.013050999999999998
603,-0.984848,-1.301204,2.479863,-0.22191,0.96388,-0.147282,0.09758700000000001,0.167532,0.055170000000000004,0.003053,-0.002912,-0.024257
604,-0.970735,-1.300904,2.491493,-0.220048,0.9638,-0.150563,0.155896,0.11500999999999999,0.08555499999999999,0.035692,-0.023568000000000002,-0.0008039999999999999
605,-0.954074,-1.301132,2.507166,-0.21733000000000002,0.96386,-0.154081,0.15873199999999998,0.053137000000000004,0.10488399999999999,0.023024,0.000465,-0.0012380000000000002
606,-0.940198,-1.301082,2.520381,-0.21520999999999998,0.9638469999999999,-0.15711,0.1343,0.064988,0.092948,0.006683,0.025029,0.006581999999999999
607,-0.9278,-1.3008520000000001,2.531103,-0.213423,0.963786,-0.159899,0.11547,0.121621,0.066038,0.009611,0.027913,0.021791
608,-0.918809,-1.302306,2.537953,-0.21086300000000002,0.9641719999999999,-0.160961,0.073916,0.11863399999999999,0.049733,0.044328,0.022858,0.030971
609,-0.909768,-1.3023770000000001,2.543994,-0.209344,0.964191,-0.16281800000000002,0.060400999999999996,0.201756,0.053804,0.021432,0.018764,0.01519
610,-0.8994209999999999,-1.302949,2.549388,-0.207217,0.9643430000000001,-0.164632,0.050091000000000004,0.268956,0.040829000000000004,0.005297,0.040508999999999996,0.022421
611,-0.890739,-1.303124,2.553591,-0.205648,0.9643889999999999,-0.166319,0.033729,0.194422,0.046151,-0.004007,0.054059,0.02545
612,-0.887235,-1.3039,2.5546580000000003,-0.204485,0.9645940000000001,-0.16656700000000002,0.012041,0.10500699999999999,0.041941,-0.031691000000000004,0.036718,-0.001356
613,-0.8831709999999999,-1.304134,2.557163,-0.203631,0.964656,-0.16725299999999999,0.026905000000000002,0.069878,0.022862,-0.042569,0.025991000000000004,-0.027007
614,-0.879685,-1.302545,2.559014,-0.204228,0.9642360000000001,-0.168939,0.030386,0.10725,-0.001734,-0.029674000000000002,-0.012865999999999999,-0.020544999999999997
615,-0.8760680000000001,-1.302101,2.560092,-0.20394400000000001,0.964118,-0.16995,0.017713999999999997,0.12650799999999998,-0.011462,-0.012059,-0.031943,-0.012773999999999999
616,-0.87345,-1.301433,2.560454,-0.203992,0.9639409999999999,-0.170897,0.017585,0.109417,0.000309,-0.002062,-0.012235,0.00035
617,-0.8688819999999999,-1.301089,2.562974,-0.203463,0.963849,-0.172041,0.048462,0.10713099999999999,0.012278,-0.022978,0.007587000000000001,0.023161
618,-0.867323,-1.300405,2.562134,-0.203697,0.963666,-0.172785,0.033825,0.15944,-0.002849,-0.040566000000000005,0.023272,0.016016
619,-0.86335,-1.300217,2.56118,-0.203147,0.963616,-0.17371,-0.026325,0.284389,-0.022604,-0.043481,0.019172,0.012791
620,-0.8668950000000001,-1.300072,2.552322,-0.203868,0.963577,-0.17307999999999998,-0.060654,0.228108,-0.03773,-0.038945,0.017929,0.028395999999999998
621,-0.870135,-1.300137,2.546412,-0.204379,0.9635950000000001,-0.172377,-0.053862,0.05984299999999999,-0.055626999999999996,-0.067212,0.028532,0.018569
622,-0.8818870000000001,-1.2978610000000002,2.534395,-0.208083,0.9629840000000001,-0.17135699999999998,-0.031454,0.009901,-0.106688,-0.085801,0.015349000000000002,-0.006743000000000001
623,-0.888625,-1.296308,2.5253669999999997,-0.210394,0.962564,-0.17089400000000002,-0.05401,0.171008,-0.149781,-0.060663,0.008565999999999999,-0.003529
624,-0.897285,-1.294341,2.5115060000000002,-0.21334499999999998,0.9620290000000001,-0.170246,-0.090991,0.24891100000000002,-0.152279,0.006679999999999999,-0.000298,0.009617
625,-0.905109,-1.293417,2.499948,-0.21536999999999998,0.9617760000000001,-0.169121,-0.088615,0.096444,-0.12108800000000002,0.033745,0.007645,0.021507
626,-0.913703,-1.2927030000000002,2.490553,-0.21735900000000002,0.9615809999999999,-0.167684,-0.07627300000000001,0.006866,-0.10806900000000001,-0.011553,0.016599000000000003,0.009038
627,-0.9219860000000001,-1.291625,2.480298,-0.21956599999999998,0.961284,-0.16650399999999999,-0.084013,0.145533,-0.140274,-0.042549000000000003,0.004841,-0.0077670000000000005
628,-0.928624,-1.290284,2.4686529999999998,-0.22169899999999998,0.9609139999999999,-0.16581400000000002,-0.090968,0.249993,-0.15007,-0.017833,-0.002799,-0.00275
629,-0.9346690000000001,-1.289234,2.4576740000000004,-0.22350799999999998,0.960623,-0.16507,-0.086013,0.197649,-0.117922,0.00958,-0.004797,-0.001861
630,-0.939584,-1.288613,2.449727,-0.22479899999999997,0.96045,-0.164322,-0.06313099999999999,0.105796,-0.07812000000000001,0.019477,0.00563,0.0053560000000000005
631,-0.9444,-1.288114,2.442886,-0.225976,0.960311,-0.163518,-0.063213,0.086626,-0.079164,0.0012439999999999999,0.000489,-0.014063999999999998
632,-0.949213,-1.287507,2.435542,-0.22723400000000002,0.960141,-0.162768,-0.066188,0.129278,-0.086717,-0.017943999999999998,-0.0055509999999999995,-0.025052
633,-0.953159,-1.286841,2.428573,-0.22839600000000002,0.9599549999999999,-0.162241,-0.05341,0.130273,-0.08022,-0.00134,0.002768,-0.006933
634,-0.9563200000000001,-1.2861280000000002,2.423166,-0.229467,0.9597549999999999,-0.161912,-0.035532,0.08329500000000001,-0.069353,0.005895,0.005745,0.0035409999999999994
635,-0.960935,-1.285971,2.417214,-0.23033499999999998,0.9597110000000001,-0.160938,-0.036726999999999996,0.05237000000000001,-0.06390900000000001,0.004719,0.009039,0.013447
636,-0.960217,-1.284864,2.415993,-0.23109000000000002,0.959399,-0.16171300000000002,-0.034321,0.098226,-0.077838,0.009226999999999999,-0.00336,-0.018494
637,-0.958357,-1.283986,2.415273,-0.23147800000000002,0.959151,-0.162626,-0.018296,0.113042,-0.067061,0.019518,-0.005568,-0.023714
638,-0.9554600000000001,-1.283413,2.415691,-0.23145500000000002,0.958989,-0.163613,-0.017376,0.10547999999999999,-0.041405000000000004,0.020669999999999997,-0.006825,-0.021369
639,-0.953784,-1.283406,2.415326,-0.231186,0.958987,-0.16400499999999998,-0.017537999999999998,0.089421,-0.021088,0.002731,0.004514,0.000263
640,-0.954752,-1.283441,2.413125,-0.231316,0.958997,-0.163761,-0.012501,0.036088,-0.008166,-0.0055,0.012851,0.0045049999999999995
641,-0.9555620000000001,-1.281984,2.4120060000000003,-0.23259000000000002,0.958583,-0.16438,0.003436,0.017935,-0.01124,-0.025833,0.005208,-0.012118
642,-0.9572729999999999,-1.2801930000000001,2.409132,-0.23427399999999998,0.9580709999999999,-0.16497,-0.00041799999999999997,0.090465,-0.030593000000000002,-0.023355,0.007917,-0.005118999999999999
643,-0.9570120000000001,-1.279511,2.407178,-0.234765,0.9578760000000001,-0.165408,-0.009991,0.103256,-0.024268,-0.012717000000000001,0.008676999999999999,-0.0018440000000000002
644,-0.958568,-1.2796040000000002,2.404468,-0.234949,0.957902,-0.164991,-0.014687,0.029682,-0.0028420000000000003,-0.004995,0.001326,0.00926
645,-0.9611149999999999,-1.279336,2.401925,-0.23557899999999998,0.957825,-0.16453900000000002,-0.0030960000000000002,-0.0055,-0.0059229999999999994,-0.014436000000000001,0.004897,0.0035740000000000004
646,-0.965269,-1.2783069999999999,2.397991,-0.237071,0.9575290000000001,-0.16412000000000002,0.0044280000000000005,-0.002293,-0.015491999999999999,-0.0304,0.016592,0.004116
647,-0.9665959999999999,-1.27731,2.3963229999999998,-0.23807399999999998,0.957241,-0.164347,0.001477,0.040379000000000005,-0.028388,-0.025903,0.007892,-0.004842
648,-0.9685790000000001,-1.276626,2.3931299999999998,-0.23893899999999998,0.957043,-0.164246,-0.01124,0.057477,-0.030637,-0.001067,0.004871,0.011933
649,-0.971872,-1.277107,2.389558,-0.239098,0.957182,-0.163199,-0.01377,-0.02138,-0.022006,0.0018239999999999999,0.014603999999999999,0.015982
650,-0.977891,-1.2767899999999999,2.384952,-0.240328,0.95709,-0.161926,-0.018279,-0.07569,-0.023038999999999997,-0.022382,0.009767,0.00557
651,-0.983891,-1.275296,2.379681,-0.24248499999999998,0.956657,-0.161273,-0.02001,-0.007421,-0.044507,-0.028404000000000002,0.002938,0.001361
652,-0.988182,-1.274127,2.375108,-0.24410900000000002,0.9563149999999999,-0.16084600000000002,-0.020929,0.013934,-0.056292999999999996,-0.010026,0.008223000000000001,-0.003811
653,-0.9911190000000001,-1.273362,2.371899,-0.24519200000000002,0.956092,-0.160529,-0.030617000000000002,-0.004146,-0.05527000000000001,0.0005639999999999999,0.004571,-0.002221
654,-0.995423,-1.273036,2.368129,-0.246142,0.955996,-0.159642,-0.030889999999999997,-0.053194000000000005,-0.043458,0.00021600000000000002,0.007795000000000001,0.005559000000000001
655,-1.000426,-1.272168,2.364607,-0.24763600000000002,0.955741,-0.158857,-0.025733,-0.091567,-0.042306,-0.016416999999999998,0.009316,-0.01018
656,-1.004852,-1.270271,2.36158,-0.249867,0.955181,-0.15873099999999998,-0.0234,-0.057447000000000005,-0.051952,-0.026073000000000002,-0.001263,-0.014975
657,-1.008298,-1.268851,2.358307,-0.25155900000000003,0.95476,-0.158592,-0.025235,0.00011899999999999999,-0.060586,-0.005185,0.004896,-0.009895999999999999
658,-1.01158,-1.268958,2.355008,-0.251992,0.954792,-0.157712,-0.031858,-0.032945,-0.044564,0.013969999999999998,0.017209000000000002,0.007825
659,-1.0169549999999998,-1.2695319999999999,2.351284,-0.25237,0.9549620000000001,-0.156067,-0.039764,-0.113944,-0.028489999999999998,0.004614,0.010232999999999999,0.007797
660,-1.023362,-1.26901,2.347033,-0.253791,0.954807,-0.15470599999999998,-0.045002,-0.10216900000000001,-0.038158,-0.016107,0.00285,-0.006519
661,-1.0286,-1.267685,2.343005,-0.255681,0.954412,-0.154027,-0.03083,-0.049958999999999996,-0.053084000000000006,-0.018047,0.0009710000000000001,-0.011134
662,-1.032007,-1.2666879999999998,2.340227,-0.257021,0.9541139999999999,-0.153643,-0.032952999999999996,-0.041455,-0.046701,-0.002165,0.005755,-0.010862
663,-1.0344719999999998,-1.26671,2.3385990000000003,-0.25738,0.9541209999999999,-0.152998,-0.025623000000000003,-0.060702,-0.034873,0.015391,0.006572,-0.0029920000000000003
664,-1.037068,-1.2671219999999999,2.337701,-0.257439,0.9542440000000001,-0.15213,-0.015280000000000002,-0.11301800000000001,-0.014435,0.014412000000000001,0.0076549999999999995,-0.00026000000000000003
665,-1.0404440000000001,-1.267033,2.336999,-0.258023,0.954218,-0.151303,-0.015452,-0.141818,-0.004785,-0.008258,0.003592,-0.010929000000000001
666,-1.043191,-1.266483,2.3362540000000003,-0.258892,0.954053,-0.150858,-0.009743,-0.0736,-0.019788999999999998,-0.017674000000000002,-0.0008060000000000001,-0.019034
667,-1.043191,-1.266059,2.337055,-0.25924200000000003,0.953926,-0.151061,-0.001082,-0.04381,-0.01763,0.009073999999999999,0.009590999999999999,-0.012955000000000001
668,-1.041377,-1.266897,2.340176,-0.258277,0.954177,-0.15112799999999998,0.007147,-0.086551,0.008124,0.032462,0.010697,-0.0034590000000000003
669,-1.040691,-1.2684950000000002,2.343259,-0.256857,0.9546540000000001,-0.150533,0.016403,-0.13251400000000002,0.039231,0.026068,0.012525,0.004919
670,-1.0377530000000001,-1.268723,2.348616,-0.256226,0.954722,-0.151177,0.025075,-0.09953200000000001,0.042454,-0.010406,-0.001627,-0.021598
671,-1.034124,-1.268512,2.3531720000000003,-0.25585,0.954659,-0.15220899999999998,0.045793,-0.013265,0.029669,-0.008753,-0.000679,-0.026472000000000002
672,-1.024216,-1.268255,2.363233,-0.254538,0.954583,-0.154863,0.0671,-0.019858,0.040611,0.021521000000000002,0.008856999999999999,-0.022017
673,-1.018169,-1.268933,2.3704549999999998,-0.25304699999999997,0.954784,-0.15606,0.071075,-0.065755,0.059927999999999995,0.028956,0.013722,-0.002936
674,-1.015045,-1.270801,2.375934,-0.251042,0.9553379999999999,-0.155908,0.06224,-0.12328399999999999,0.06849,0.020283000000000002,0.018066,0.022684
675,-1.013139,-1.271514,2.380398,-0.250166,0.955548,-0.156026,0.044328,-0.099678,0.041629,-0.00583,0.009356999999999999,0.00032599999999999996
676,-1.010257,-1.2714860000000001,2.384441,-0.24973800000000002,0.95554,-0.15676099999999998,0.051185,-0.022903,0.01701,0.009565,0.019252000000000002,-0.006966
677,-1.0055969999999999,-1.271639,2.3895,-0.24888200000000002,0.955585,-0.157845,0.052217999999999994,-0.023997,0.02343,0.024730000000000002,0.019574,-0.009529000000000001
678,-1.000348,-1.272788,2.395717,-0.247125,0.955923,-0.158556,0.028566,-0.054844000000000004,0.032923,0.02424,0.024088,-0.000883
679,-0.999122,-1.2736969999999999,2.397973,-0.24619899999999997,0.95619,-0.158388,0.007271,-0.047304,0.03063,0.019178999999999998,0.025744,0.006869
680,-0.9981459999999999,-1.274636,2.400195,-0.24529,0.956464,-0.158142,-0.0034939999999999997,-0.075999,0.023116,0.006809999999999999,0.017703,-0.009506
681,-0.9986010000000001,-1.274996,2.401518,-0.245073,0.956569,-0.157844,-0.006698000000000001,-0.092967,0.007093,-0.000533,0.015034,-0.010186
682,-1.001064,-1.274926,2.40093,-0.245517,0.956549,-0.157276,-0.00344,-0.10141499999999999,-0.014237999999999999,0.004901,0.010767,-0.006313
683,-1.002797,-1.2752370000000002,2.40112,-0.24553899999999998,0.9566389999999999,-0.156691,-0.004397,-0.092825,-0.030275999999999997,0.022196,-0.000386,0.006514
684,-1.003794,-1.2760610000000001,2.401449,-0.24503000000000003,0.956879,-0.156022,-5.4000000000000005e-05,-0.064124,-0.018528,0.031697,-0.006546,0.006883
685,-1.00432,-1.276493,2.40233,-0.244763,0.9570049999999999,-0.155671,-0.0034460000000000003,-0.08338,0.0049759999999999995,0.029751,-0.010548,-1.4000000000000001e-05
686,-1.004646,-1.277282,2.40387,-0.24417600000000003,0.957233,-0.155186,0.008154999999999999,-0.097333,0.0211,0.009373999999999999,-0.002124,0.003087
687,-1.0033729999999998,-1.277404,2.407156,-0.24388,0.957268,-0.155434,0.029426,-0.09852799999999999,0.035137,-0.003602,0.005043,-0.010993000000000001
688,-1.0028,-1.277785,2.409949,-0.243484,0.9573780000000001,-0.155378,0.038955000000000004,-0.106053,0.043759,-0.007478,0.013783000000000002,0.009306
689,-1.002267,-1.277993,2.413267,-0.243233,0.9574389999999999,-0.1554,0.071868,-0.13283399999999998,0.052568,-0.010903,0.006825,0.0038350000000000003
690,-0.996732,-1.27748,2.421106,-0.24278200000000003,0.95729,-0.15701099999999998,0.098814,-0.061597000000000006,0.063346,-0.007768000000000001,-0.002975,-0.01024
691,-0.986268,-1.277523,2.431524,-0.24109099999999997,0.957303,-0.15952,0.115297,0.059727999999999996,0.078261,0.01288,-0.008694,-0.013697999999999998
692,-0.9697020000000001,-1.278602,2.4466419999999998,-0.23756300000000002,0.957614,-0.162908,0.127039,0.088339,0.10608499999999998,0.039428,0.00015,-0.007365000000000001
693,-0.955266,-1.280809,2.460268,-0.233461,0.958247,-0.165099,0.113924,0.040362999999999996,0.127425,0.030443,0.012242,0.015013999999999998
694,-0.9461459999999999,-1.28226,2.4696990000000003,-0.230817,0.9586610000000001,-0.166408,0.08493400000000001,-0.00426,0.12300799999999999,0.0050479999999999995,0.017046000000000002,0.024471
695,-0.9403299999999999,-1.283576,2.4759830000000003,-0.22882600000000003,0.9590350000000001,-0.16700399999999999,0.049884,0.009796,0.10138,-0.010752,0.014232,0.025463999999999997
696,-0.936672,-1.284332,2.478691,-0.22763000000000003,0.959249,-0.16741,0.028072000000000003,0.099527,0.058382,-0.035279000000000005,0.029719,0.011496
697,-0.930773,-1.2846739999999999,2.48132,-0.226375,0.9593450000000001,-0.168554,0.013769,0.205181,0.022895,-0.002079,0.019918,0.024496
698,-0.9276690000000001,-1.285413,2.4797130000000003,-0.225284,0.9595540000000001,-0.16883099999999998,-0.014780000000000001,0.249013,0.008753,0.002475,0.011149,0.030083
699,-0.924217,-1.285993,2.47847,-0.224255,0.959717,-0.169273,-0.039495,0.21605,0.015031999999999998,-0.018299,-0.008011,0.026511
700,-0.9265190000000001,-1.2861280000000002,2.4721349999999997,-0.224541,0.9597549999999999,-0.168678,-0.054409000000000006,0.21081799999999998,0.004249,-0.048836000000000004,-0.002449,0.022987
701,-0.925426,-1.2866360000000001,2.468096,-0.223966,0.9598969999999999,-0.16863,-0.060389,0.275936,-0.024719,-0.057985,0.0057090000000000005,0.021199000000000003
702,-0.928525,-1.285773,2.458524,-0.22515100000000002,0.9596549999999999,-0.168431,-0.057853999999999996,0.34419,-0.046158,-0.06833600000000001,0.012421,0.01563
703,-0.926441,-1.285578,2.4531560000000003,-0.22495,0.9596,-0.16901300000000002,-0.054505,0.367653,-0.055778999999999995,-0.09151799999999999,0.024592,-0.005487
704,-0.928085,-1.283736,2.444013,-0.226642,0.9590799999999999,-0.169701,-0.061911,0.370802,-0.057891,-0.083966,0.0065260000000000006,-0.011268
705,-0.926751,-1.283431,2.4378830000000002,-0.226648,0.958994,-0.170179,-0.060905999999999995,0.347401,-0.067468,-0.049017000000000005,-0.018702,-0.016878
706,-0.9270940000000001,-1.283151,2.4312110000000002,-0.22692199999999998,0.958915,-0.170262,-0.074063,0.272861,-0.063192,-0.033699,0.022438999999999997,-0.024318
707,-0.928264,-1.283318,2.424691,-0.226992,0.9589620000000001,-0.169901,-0.08169900000000001,0.255762,-0.042927,-0.021558,0.013053,-0.007406
708,-0.9288549999999999,-1.283826,2.4179459999999997,-0.22670300000000002,0.9591059999999999,-0.169476,-0.09639099999999999,0.31969200000000003,-0.033497000000000006,-0.001599,-0.003097,0.001675
709,-0.9282590000000001,-1.2846799999999998,2.4112970000000002,-0.225946,0.959347,-0.16911900000000002,-0.103753,0.361191,-0.015441999999999999,0.009179999999999999,-0.010464,0.018897
710,-0.926417,-1.285979,2.405173,-0.22463699999999998,0.9597129999999999,-0.168786,-0.11010199999999999,0.398395,0.010103000000000001,0.009793000000000001,-0.008357999999999999,0.028558
711,-0.923292,-1.287674,2.400029,-0.22281199999999998,0.9601879999999999,-0.168507,-0.10913099999999999,0.399367,0.032541,-0.015241,-0.004896,0.0116
712,-0.919811,-1.28954,2.395515,-0.220797,0.960708,-0.168195,-0.099564,0.390782,0.035881,-0.045972000000000006,-0.015380000000000001,-0.007205
713,-0.9148270000000001,-1.290875,2.392292,-0.21894,0.9610770000000001,-0.168511,-0.059903,0.413091,0.016901,-0.06952699999999999,-0.012423,-0.023704
714,-0.908457,-1.291436,2.390358,-0.217437,0.961232,-0.169571,-0.026807,0.40344800000000003,0.0021899999999999997,-0.074433,-0.0045060000000000005,-0.024002000000000002
715,-0.901732,-1.2918129999999999,2.389416,-0.216008,0.9613360000000001,-0.17080399999999998,-0.024874,0.36930999999999997,0.012929,-0.045725999999999996,0.009459,0.010786
716,-0.896315,-1.292668,2.387687,-0.214437,0.961571,-0.171458,-0.059153,0.344903,0.019131,-0.030802999999999997,0.013588,0.018779
717,-0.893094,-1.293742,2.383901,-0.213079,0.961865,-0.1715,-0.079323,0.348246,-0.00024300000000000002,-0.006923,0.0255,0.023368
718,-0.891383,-1.2945799999999998,2.3781939999999997,-0.21215799999999999,0.962094,-0.17135899999999998,-0.09407599999999999,0.36543600000000004,-0.023869,0.004685,0.010959,0.025286000000000003
719,-0.890498,-1.295601,2.371063,-0.211243,0.9623719999999999,-0.170928,-0.11741800000000001,0.402769,-0.015534000000000001,-0.007248,0.016433,0.024031999999999998
720,-0.88982,-1.297169,2.363182,-0.209954,0.9627969999999999,-0.170121,-0.138772,0.411339,-0.000676,-0.027594999999999998,0.018633,0.017411000000000003
721,-0.8895270000000001,-1.299007,2.355187,-0.208529,0.963292,-0.169068,-0.142097,0.388959,0.0046700000000000005,-0.036725,-0.000218,0.004639
722,-0.889417,-1.30077,2.347594,-0.207191,0.963764,-0.168021,-0.129414,0.362282,0.004793,-0.046380000000000005,-0.014301,0.001242
723,-0.888525,-1.302342,2.340993,-0.20586500000000002,0.964182,-0.16725,-0.111268,0.36647199999999996,0.007051000000000001,-0.055654999999999996,-0.014994,0.0038590000000000005
724,-0.8927959999999999,-1.302432,2.329574,-0.20651,0.9642059999999999,-0.16631500000000002,-0.103907,0.344069,0.008193,-0.049532,-0.008365000000000001,0.008631
725,-0.8972610000000001,-1.3025799999999998,2.318836,-0.207139,0.964245,-0.165302,-0.09349,0.297125,0.016866,-0.050399,-0.00465,0.010135
726,-0.901114,-1.302677,2.309669,-0.20770100000000002,0.9642709999999999,-0.164445,-0.08201,0.252295,0.028748000000000003,-0.051392999999999994,-0.007911,0.0054329999999999995
727,-0.9038360000000001,-1.302622,2.3025900000000004,-0.20818899999999999,0.964256,-0.163911,-0.066291,0.205303,0.044935,-0.053087,-0.006783,0.001207
728,-0.9006200000000001,-1.3041209999999999,2.3021540000000003,-0.20652800000000002,0.9646520000000001,-0.163682,-0.043077,0.168997,0.062270000000000006,-0.05575499999999999,-0.0076359999999999996,-0.000106
729,-0.8998700000000001,-1.3042200000000002,2.3001139999999998,-0.206331,0.964678,-0.163778,-0.023023,0.136904,0.07847,-0.03575,-0.009844,0.000127
730,-0.90261,-1.303509,2.295519,-0.207317,0.964491,-0.16363699999999998,-0.023274,0.096362,0.093466,-0.026402,-0.000731,0.001772
731,-0.9008450000000001,-1.304634,2.2961169999999997,-0.206177,0.9647870000000001,-0.163328,-0.026719999999999997,0.055838,0.107377,-0.040115,0.015132,-0.003435
732,-0.902559,-1.304583,2.29367,-0.206496,0.964774,-0.16300499999999998,-0.020291,0.061144000000000004,0.10633900000000002,-0.03998,0.001458,-3.5e-05
733,-0.8977379999999999,-1.306466,2.297039,-0.204286,0.965268,-0.162866,-0.028672000000000003,0.088897,0.09983600000000001,-0.035704,0.005527000000000001,0.0031829999999999996
734,-0.9006639999999999,-1.3079129999999999,2.292631,-0.20366800000000002,0.9656450000000001,-0.1614,-0.042569,0.088922,0.105075,-0.025443,0.009514,0.016030000000000003
735,-0.9005280000000001,-1.309757,2.291579,-0.20225,0.9661219999999999,-0.160321,-0.05235,0.059088999999999996,0.114657,-0.030539,0.006961,0.009519
736,-0.9011709999999999,-1.3115139999999998,2.290273,-0.201022,0.9665739999999999,-0.159138,-0.051389,0.03671,0.115757,-0.036756,0.002695,0.008137
737,-0.901891,-1.312755,2.289189,-0.200195,0.966892,-0.158249,-0.035397000000000005,0.027096,0.1084,-0.044601999999999996,-0.003696,0.0054009999999999996
738,-0.9056069999999999,-1.313197,2.285345,-0.200445,0.9670040000000001,-0.15724000000000002,-0.025812,0.022803999999999998,0.107397,-0.031123,-0.001215,0.010069
739,-0.908382,-1.314682,2.282596,-0.199748,0.967382,-0.1558,-0.031255,0.011056,0.119121,-0.024937,-0.00040199999999999996,0.015541
740,-0.9086209999999999,-1.316969,2.28249,-0.19804000000000002,0.967959,-0.154391,-0.051613,0.002561,0.12967,-0.027027999999999996,0.004621,0.017199000000000002
741,-0.911876,-1.319392,2.2793099999999997,-0.196687,0.968564,-0.15231,-0.059051,0.018531,0.13814,-0.021255,-0.000516,0.012295
742,-0.9118290000000001,-1.321547,2.2789759999999997,-0.195028,0.9690979999999999,-0.15104,-0.063291,0.034486,0.1477,-0.021768,-0.003232,0.000161
743,-0.909849,-1.3242180000000001,2.280511,-0.192685,0.9697530000000001,-0.149836,-0.069797,0.021682,0.158351,-0.028735000000000004,-0.0024219999999999997,-0.001149
744,-0.912516,-1.325365,2.278206,-0.19220399999999999,0.970033,-0.148642,-0.059292,-0.016697,0.156329,-0.048549,-0.011567000000000001,-0.003901
745,-0.914967,-1.325595,2.276584,-0.192391,0.970088,-0.148034,-0.032616,-0.028457,0.143703,-0.053276,-0.012737,-0.004951
746,-0.9129370000000001,-1.326845,2.2798439999999998,-0.19113,0.970391,-0.14768299999999998,-0.006122,-0.067965,0.14393499999999998,-0.050172,-0.017815,-0.004524
747,-0.9090879999999999,-1.327715,2.286009,-0.189894,0.970601,-0.147899,0.0021219999999999998,-0.120243,0.156873,-0.022462,-0.00182,-0.011327
748,-0.904,-1.329634,2.294104,-0.187675,0.9710610000000001,-0.14770999999999998,0.001974,-0.141595,0.168648,-0.013985,0.01516,-0.005717
749,-0.898816,-1.332292,2.302284,-0.184887,0.971692,-0.147074,-0.012909,-0.12876400000000002,0.169596,-0.011143,0.020953,-0.003332
750,-0.8932379999999999,-1.335497,2.3103119999999997,-0.181636,0.9724450000000001,-0.14615,-0.025611000000000002,-0.106349,0.169479,0.019969,0.011152,-0.000182
751,-0.887884,-1.338386,2.317943,-0.178671,0.9731139999999999,-0.145347,-0.019177,-0.101036,0.167381,0.046835,0.00035099999999999997,0.003165
752,-0.881451,-1.34121,2.32648,-0.175611,0.9737610000000001,-0.144745,-0.012756,-0.08937,0.17488800000000002,0.050397000000000004,-0.002508,0.002014
753,-0.874468,-1.344381,2.3353080000000004,-0.172226,0.974477,-0.143986,-0.035179,-0.07657699999999999,0.191807,0.057434000000000006,0.0006349999999999999,0.010701
754,-0.8680530000000001,-1.348041,2.3433770000000003,-0.168576,0.975292,-0.142782,-0.053311000000000004,-0.068021,0.199147,0.055219000000000004,0.007267,0.013693
755,-0.8604280000000001,-1.351666,2.35226,-0.164801,0.976087,-0.141757,-0.034002,-0.041469,0.202452,0.037222000000000005,0.01311,0.002841
756,-0.8490200000000001,-1.3550149999999999,2.364505,-0.160719,0.976809,-0.141467,0.0033520000000000004,-0.022489,0.218712,0.022886,0.007626999999999999,-0.010053
757,-0.8344280000000001,-1.3581809999999999,2.380402,-0.156345,0.977482,-0.141719,0.029722000000000002,-0.069534,0.23925300000000002,0.017902,-0.006886,-0.012486
758,-0.817768,-1.3611440000000001,2.3997580000000003,-0.151849,0.9781030000000001,-0.142323,0.057057000000000004,-0.148503,0.250227,0.018288,-0.012969999999999999,-0.013697999999999998
759,-0.792475,-1.364323,2.429468,-0.14598599999999998,0.9787600000000001,-0.14393399999999998,0.071517,-0.24340900000000001,0.262204,0.01917,0.006439,-0.015581
760,-0.7664810000000001,-1.367752,2.4619299999999997,-0.13986600000000002,0.979457,-0.145261,0.095558,-0.339426,0.277456,0.026508999999999998,0.017476,-0.009723
761,-0.743905,-1.370474,2.49233,-0.134746,0.9800030000000001,-0.146419,0.11783199999999999,-0.393731,0.25204699999999997,0.03361,0.013345,0.0020859999999999997
762,-0.7185819999999999,-1.373733,2.526625,-0.128893,0.9806459999999999,-0.147379,0.112373,-0.436262,0.23711500000000002,0.045641,0.01824,0.0028179999999999998
763,-0.6970069999999999,-1.3757620000000002,2.557013,-0.12440599999999999,0.9810409999999999,-0.1486,0.124276,-0.421299,0.21475100000000003,0.05806,0.01725,0.003992
764,-0.679793,-1.376788,2.582549,-0.121196,0.981239,-0.14993599999999999,0.109421,-0.38403899999999996,0.233828,0.070842,0.015266,0.008975
765,-0.653697,-1.379456,2.616327,-0.11565,0.98175,-0.15096800000000002,0.108497,-0.36587,0.21991799999999997,0.071201,-0.001602,0.0047740000000000005
766,-0.638368,-1.3805690000000002,2.6402,-0.11267100000000001,0.9819610000000001,-0.151846,0.083682,-0.437118,0.210222,0.039139,0.011279,-0.0006349999999999999
767,-0.626099,-1.381399,2.663092,-0.110322,0.982118,-0.152557,0.10465899999999999,-0.542551,0.184867,0.001466,0.018019,-0.005311
768,-0.6144930000000001,-1.381218,2.686089,-0.10864700000000001,0.9820840000000001,-0.153972,0.151721,-0.5404869999999999,0.160624,-0.01617,0.001025,-0.018483000000000003
769,-0.602746,-1.379746,2.709938,-0.10765,0.9818049999999999,-0.15642799999999998,0.167371,-0.609823,0.170434,-0.019517,-0.002908,-0.022115
770,-0.590386,-1.378531,2.736409,-0.10637200000000001,0.981574,-0.158737,0.210571,-0.73035,0.17089100000000002,-0.015865999999999998,0.004083,-0.009643
771,-0.578789,-1.376514,2.764495,-0.10560699999999999,0.9811860000000001,-0.161618,0.24107399999999998,-0.831641,0.166961,-0.013335,0.007339,0.009427
772,-0.569692,-1.374135,2.7913580000000002,-0.10539100000000001,0.9807239999999999,-0.164537,0.239911,-0.873102,0.14670899999999998,-0.000779,0.008747,0.020173
773,-0.563839,-1.3717190000000001,2.815287,-0.10569300000000001,0.9802489999999999,-0.167153,0.22284,-0.884602,0.12741,0.017939,0.020178,0.019280000000000002
774,-0.5604779999999999,-1.3693629999999999,2.8374040000000003,-0.106357,0.9797809999999999,-0.169462,0.21511799999999998,-0.94634,0.12209400000000001,0.017307,0.058168,0.028975
775,-0.560096,-1.367046,2.858993,-0.107498,0.9793149999999999,-0.171426,0.21448499999999998,-1.085893,0.12333599999999999,0.010865000000000001,0.12381900000000001,0.087274
