,attitude.roll,attitude.pitch,attitude.yaw,gravity.x,gravity.y,gravity.z,rotationRate.x,rotationRate.y,rotationRate.z,userAcceleration.x,userAcceleration.y,userAcceleration.z
0,0.19228900000000002,-0.9867889999999999,-0.5911649999999999,0.105371,0.83426,-0.541209,-1.593867,0.630603,0.692476,-0.085076,-0.3369,0.32603000000000004
1,0.2316,-1.017717,-0.560412,0.120577,0.8509110000000001,-0.511284,-1.7177580000000001,0.7166399999999999,0.330441,-0.051378,-0.594075,0.311974
2,0.2628,-1.052084,-0.541212,0.12879200000000002,0.868458,-0.47874099999999997,-1.845984,0.715629,-0.104151,0.006004,-0.821751,0.199078
3,0.281468,-1.0928200000000001,-0.533778,0.127768,0.887928,-0.441882,-2.120098,0.520254,-0.557673,0.028681,-1.017093,0.07175
4,0.282379,-1.140456,-0.540327,0.11624300000000001,0.908824,-0.40065700000000004,-2.275486,0.24102600000000002,-0.923733,0.0047740000000000005,-1.03445,0.048424
5,0.263823,-1.1877149999999999,-0.563896,0.097472,0.927517,-0.360848,-2.045545,0.1272,-1.162331,0.020768000000000002,-0.9920620000000001,-0.0043560000000000005
6,0.229192,-1.230401,-0.605071,0.07585,0.942623,-0.325129,-1.7895919999999998,0.253433,-1.250435,0.081026,-0.79359,-0.113729
7,0.181301,-1.2659340000000001,-0.6607529999999999,0.054122,0.953888,-0.295242,-1.4327299999999998,0.22412100000000001,-1.156038,0.025193,-0.33368000000000003,-0.07157899999999999
8,0.139652,-1.293955,-0.71062,0.038044999999999995,0.961923,-0.270658,-1.149976,0.35591999999999996,-0.7762319999999999,-0.005834000000000001,-0.154321,-0.050722
9,0.118122,-1.310367,-0.740502,0.030345,0.9662790000000001,-0.255701,-0.45841800000000005,0.405916,-0.292902,-0.21451900000000002,0.420104,0.126948
10,0.136021,-1.3090709999999999,-0.729796,0.035087,0.965945,-0.256357,0.24416300000000002,0.249513,0.380913,-0.647925,1.182615,0.132929
11,0.190058,-1.312894,-0.6877800000000001,0.048183,0.9669270000000001,-0.25046,-0.7493310000000001,1.345164,0.572327,-0.8713489999999999,1.641243,-0.109571
12,0.347408,-1.333689,-0.580627,0.079972,0.9720219999999999,-0.22085900000000003,-1.533608,3.102141,1.167074,-0.084793,-0.480887,0.235614
13,0.507546,-1.344529,-0.47101899999999997,0.109037,0.974511,-0.19606099999999999,-0.573501,2.342337,0.667349,0.043261,-0.574547,0.5125430000000001
14,0.570625,-1.340775,-0.442938,0.123155,0.973662,-0.191875,0.409763,1.394485,0.287667,0.12686,-0.32903899999999997,0.21439699999999998
15,0.524071,-1.314841,-0.518183,0.12668800000000002,0.9674219999999999,-0.219192,1.970564,1.7014650000000002,-0.5766979999999999,1.055898,3.836121,-0.679307
16,0.513862,-1.285311,-0.5561119999999999,0.13843,0.959525,-0.245252,1.206483,0.45433500000000004,1.072103,0.670484,0.373162,0.222318
17,0.5185609999999999,-1.2728979999999999,-0.538618,0.145474,0.9559549999999999,-0.254925,0.030902,-0.863259,0.189638,0.151096,-0.546974,0.420116
18,0.508948,-1.279785,-0.534415,0.13980499999999998,0.9579540000000001,-0.250556,-0.583796,-0.6992689999999999,-0.326544,0.192379,-0.36489099999999997,-0.181009
19,0.492515,-1.300664,-0.535573,0.126182,0.963736,-0.235141,-1.018026,-0.673473,-0.54005,0.167397,0.11683099999999999,-0.030285000000000003
20,0.507428,-1.32159,-0.511594,0.119848,0.969108,-0.215558,-1.071074,-0.333394,-0.025974,0.168406,0.183266,0.045469
21,0.552321,-1.3384040000000001,-0.46392700000000003,0.120833,0.973118,-0.19606099999999999,-0.958232,0.16126400000000002,0.050024,0.07118300000000001,0.25114000000000003,0.248903
22,0.603161,-1.351449,-0.421654,0.123429,0.97604,-0.179198,-0.7255560000000001,0.629286,0.023275999999999998,-0.16128599999999998,0.010838,0.19300699999999998
23,0.645374,-1.362866,-0.39281900000000003,0.12417,0.97846,-0.164916,-0.584651,0.679683,-0.180903,-0.19623800000000002,-0.09635,0.1044
24,0.652071,-1.374067,-0.397353,0.11861300000000001,0.9807110000000001,-0.155359,-0.305596,0.51267,-0.48104600000000003,-0.247169,-0.298842,-0.191946
25,0.624326,-1.382425,-0.43884799999999996,0.109463,0.982311,-0.15193399999999999,0.026699,0.74845,-0.591191,-0.07775499999999999,-0.36172,-0.147596
26,0.582387,-1.385749,-0.49861400000000006,0.1012,0.982928,-0.153662,0.255218,0.8889530000000001,-0.49470299999999995,0.020489,-0.38806399999999996,-0.107675
27,0.55064,-1.383517,-0.5500550000000001,0.097419,0.9825139999999999,-0.158666,0.386656,0.957759,-0.233227,0.150704,-0.535249,-0.066065
28,0.5436770000000001,-1.3777059999999999,-0.575257,0.099263,0.981416,-0.164224,0.373979,0.78625,0.043574,0.16442400000000001,-0.476289,-0.072013
29,0.546593,-1.368109,-0.583451,0.10463299999999999,0.9795290000000001,-0.17197300000000001,0.5046039999999999,0.390784,0.25863800000000003,0.147931,-0.40129699999999996,-0.066278
30,0.549313,-1.3544260000000001,-0.579697,0.11208800000000001,0.976683,-0.183102,0.5844520000000001,-0.377374,0.47916499999999995,0.231952,-0.122893,-0.038212
31,0.546087,-1.33816,-0.566164,0.11973199999999999,0.9730620000000001,-0.19701400000000002,0.638789,-1.021331,0.56476,0.351596,-0.022806,-0.034523000000000005
32,0.527668,-1.320508,-0.55874,0.124714,0.968841,-0.213995,0.763058,-1.464589,0.48287399999999997,0.525021,-0.068359,0.011022
33,0.48187399999999997,-1.300287,-0.568905,0.12384200000000001,0.963635,-0.23679299999999998,1.106284,-1.967805,0.287227,0.45966999999999997,-0.273068,0.031563
34,0.40602,-1.27216,-0.608031,0.116203,0.9557379999999999,-0.270298,1.786529,-1.864668,0.013041,0.280968,-0.177052,0.117222
35,0.309948,-1.229862,-0.665337,0.101985,0.942443,-0.31843499999999997,2.611293,-2.273735,-0.168681,0.070409,0.074906,0.13297899999999999
36,0.20983800000000002,-1.1698600000000001,-0.720037,0.08129600000000001,0.920696,-0.38171900000000003,3.471259,-2.499375,-0.164521,-0.128735,0.49692200000000003,0.017477
37,0.1295,-1.096507,-0.755408,0.058977999999999996,0.889618,-0.45288199999999995,3.77355,-2.343074,-0.086766,-0.335681,0.9433290000000001,-0.127074
38,0.077196,-1.029407,-0.766251,0.039742,0.856994,-0.513792,3.017557,-1.959164,0.19908599999999999,-0.490242,1.017579,-0.048769
39,0.055339,-0.981035,-0.758968,0.030762,0.831074,-0.555311,2.090359,-1.0406879999999998,0.41789499999999996,-0.48288000000000003,0.544842,0.078306
40,0.051346,-0.9453530000000001,-0.748926,0.030048000000000002,0.810704,-0.584685,1.583807,-0.374871,0.3195,-0.233341,0.177852,-0.043199
41,0.064887,-0.922301,-0.73814,0.039162999999999996,0.7969930000000001,-0.6027170000000001,0.8354459999999999,0.6125430000000001,0.459354,-0.3603,0.24066500000000002,-0.29247
42,0.087211,-0.912378,-0.724734,0.05329400000000001,0.7909609999999999,-0.609541,0.265248,0.499507,0.450175,0.007436,0.523675,-0.22885300000000003
43,0.113134,-0.913267,-0.706295,0.068996,0.791505,-0.607256,-0.348389,0.63835,0.62624,0.0042,0.144546,-0.043927999999999995
44,0.150544,-0.927818,-0.67767,0.089923,0.8003140000000001,-0.5928,-1.1380350000000001,0.808599,0.826673,-0.101016,-0.013159,0.107601
45,0.199811,-0.9556520000000001,-0.638442,0.114541,0.8166899999999999,-0.565595,-1.792257,0.856299,0.920319,-0.1484,-0.145013,0.257169
46,0.252636,-0.9916659999999999,-0.5933039999999999,0.1368,0.836939,-0.5299229999999999,-2.153616,0.747491,0.7384729999999999,-0.087438,-0.373148,0.310044
47,0.30101100000000003,-1.0340040000000001,-0.55238,0.151617,0.859353,-0.488389,-2.463741,0.6150770000000001,0.288891,-0.15044200000000002,-0.599618,0.191956
48,0.340868,-1.0864770000000001,-0.517011,0.155655,0.884992,-0.438817,-2.933268,0.356567,-0.190484,-0.135193,-0.791898,0.085698
49,0.37215,-1.1471799999999999,-0.48723599999999995,0.14946900000000002,0.911609,-0.382921,-3.099941,0.16478299999999999,-0.569553,0.001196,-0.920932,0.11961600000000001
50,0.398557,-1.2082030000000001,-0.461898,0.137655,0.9349799999999999,-0.326899,-2.935891,0.141599,-0.774544,0.03979,-0.921568,0.08027100000000001
51,0.416804,-1.267209,-0.444992,0.121025,0.9542700000000001,-0.273352,-2.736014,0.037256,-0.9610219999999999,0.074257,-0.7390760000000001,0.08887300000000001
52,0.414862,-1.318106,-0.44147,0.10077,0.9682430000000001,-0.228802,-2.009322,-0.458291,-1.00979,0.00061,-0.211896,0.132381
53,0.357431,-1.3473760000000001,-0.482872,0.077519,0.975145,-0.207563,-0.630794,-1.074853,-0.931004,-0.13808099999999998,0.298567,0.019483
54,0.28703,-1.3504559999999999,-0.529265,0.061876,0.975823,-0.20961999999999997,0.279485,-1.304434,-0.25244,-0.244997,0.33165700000000004,-0.071935
55,0.261852,-1.3408200000000001,-0.535596,0.059011,0.973672,-0.22018400000000002,0.577372,-0.619969,0.148278,-0.324849,0.290702,-0.07008400000000001
56,0.265044,-1.327041,-0.531986,0.063222,0.9704389999999999,-0.23292,0.632234,0.326332,0.283113,-0.701237,0.25089,-0.216375
57,0.30104200000000003,-1.317827,-0.515868,0.074212,0.968174,-0.239024,0.194616,1.48681,0.297797,-0.8015369999999999,0.806454,-0.044027
58,0.368458,-1.318311,-0.49564899999999995,0.089976,0.9682950000000001,-0.23304499999999997,-0.164233,3.017988,0.24846300000000002,-0.385234,0.357572,0.514112
59,0.460661,-1.3174540000000001,-0.471332,0.11142,0.9680799999999999,-0.224514,0.096858,3.2034580000000004,0.273442,0.175323,-0.112291,0.653622
60,0.518709,-1.3125129999999998,-0.464541,0.126627,0.96683,-0.221823,0.038068,2.379491,0.185425,0.416555,-0.26767199999999997,0.461264
61,0.581343,-1.318092,-0.43771000000000004,0.137299,0.96824,-0.20895100000000003,-0.683573,1.444018,0.052328,0.721511,-0.08191799999999999,0.026349
62,0.6322810000000001,-1.334277,-0.399751,0.13848,0.972159,-0.189022,-0.963598,0.29273000000000005,-0.04002,0.527047,0.26926500000000003,-0.649998
63,0.657568,-1.341026,-0.369373,0.139202,0.973719,-0.180263,-0.171638,-0.28128000000000003,0.029273,1.160267,3.118932,-0.34328200000000003
64,0.716147,-1.3331950000000001,-0.311105,0.15451800000000002,0.9719049999999999,-0.17755,-0.41677299999999995,0.011053,1.459671,0.42108999999999996,0.13106099999999998,0.236404
65,0.8102050000000001,-1.325793,-0.20900500000000002,0.175717,0.970137,-0.167208,-0.435596,-0.396075,0.726193,-0.041775,-0.352613,0.039141
66,0.822192,-1.326063,-0.184298,0.177517,0.970202,-0.16491199999999998,-0.200647,-0.679128,-0.08685599999999999,-0.0173,-0.27807800000000005,-0.144704
67,0.803409,-1.331872,-0.182977,0.170329,0.971593,-0.164302,-0.204942,-1.24974,-0.176954,0.08585,0.022304,0.104121
68,0.786149,-1.337907,-0.175047,0.16331600000000002,0.9730040000000001,-0.163071,-0.350436,-1.076754,-0.153623,0.099685,0.11861,0.202835
69,0.798528,-1.3452709999999999,-0.148637,0.160185,0.974677,-0.156033,-0.522173,-0.445049,-0.003944,-0.181135,-0.078711,0.141125
70,0.831218,-1.352708,-0.11164400000000001,0.159839,0.9763129999999999,-0.145824,-0.562141,-0.047692,0.028382,-0.283542,-0.180018,0.11407
71,0.8729370000000001,-1.358855,-0.07005,0.161181,0.9776239999999999,-0.13517200000000001,-0.511486,0.10219,0.064864,-0.306734,-0.211923,0.089014
72,0.908165,-1.3641299999999998,-0.037598,0.161773,0.97872,-0.126236,-0.345111,0.213917,-0.047349,-0.246704,-0.310965,-0.050445
73,0.917711,-1.367682,-0.03689,0.160209,0.9794430000000001,-0.122573,0.042529000000000004,0.637075,-0.177643,-0.105262,-0.391507,-0.093628
74,0.8951469999999999,-1.366492,-0.078499,0.15831199999999998,0.979202,-0.126886,0.573596,1.007208,-0.225683,-0.046084,-0.444641,-0.11046500000000001
75,0.846088,-1.3585459999999998,-0.149294,0.15772,0.9775590000000001,-0.13965,0.9069149999999999,0.982158,-0.111159,0.114329,-0.38812800000000003,-0.16609000000000002
76,0.794693,-1.344875,-0.217482,0.159861,0.9745879999999999,-0.156916,1.068336,0.494148,0.04335,0.23525100000000002,-0.001428,0.020791999999999998
77,0.726568,-1.327508,-0.279548,0.160029,0.970551,-0.180059,1.142941,-0.8911959999999999,0.100125,0.278555,0.145034,0.060568
78,0.655406,-1.306397,-0.32674899999999996,0.159275,0.96525,-0.207182,1.218749,-1.368531,0.323457,0.45132,0.169073,0.017241
79,0.598333,-1.280708,-0.360836,0.161115,0.958219,-0.23634499999999997,1.389382,-1.114654,0.35636999999999996,0.44171400000000005,-0.07058400000000001,-0.067732
80,0.529179,-1.2505879999999998,-0.41074099999999997,0.158901,0.9491700000000001,-0.271712,1.884954,-1.091602,0.023312,0.41687399999999997,-0.2879,0.0050490000000000005
81,0.43068100000000004,-1.213014,-0.487069,0.146204,0.9366760000000001,-0.318218,2.470509,-1.5595649999999999,-0.406764,0.251562,-0.246704,0.168667
82,0.314103,-1.162427,-0.573751,0.12269300000000001,0.9177700000000001,-0.377684,3.262048,-1.846744,-0.671127,0.044833,0.010361,0.059203
83,0.20887600000000003,-1.095942,-0.647608,0.094807,0.88936,-0.44727100000000003,3.72108,-1.995468,-0.639957,-0.180577,0.517089,-0.14696700000000001
84,0.125591,-1.0293700000000001,-0.695937,0.064555,0.856975,-0.5113,3.2377290000000003,-1.9662490000000001,-0.6017100000000001,-0.4779,1.106908,-0.103736
85,0.07013899999999999,-0.976029,-0.723023,0.039268,0.8282790000000001,-0.558938,2.409129,-1.377474,-0.335855,-0.536567,1.011519,0.270181
86,0.044285000000000005,-0.937572,-0.730011,0.026197,0.8061229999999999,-0.591167,1.652457,-0.8383079999999999,0.019227,-0.327359,0.28112600000000004,0.19154000000000002
87,0.041831,-0.9131229999999999,-0.72572,0.025563,0.791417,-0.610742,0.9637450000000001,0.25173,0.284348,-0.370488,-0.039418,-0.10701600000000001
88,0.070966,-0.899848,-0.720385,0.044084,0.783233,-0.620164,0.5300199999999999,1.5951959999999998,0.08945399999999999,-0.271974,0.203035,-0.24665700000000002
89,0.099325,-0.8954629999999999,-0.7182350000000001,0.061992,0.7804979999999999,-0.622077,-0.029356,1.0824790000000002,0.121455,-0.086177,0.22478099999999998,-0.049829000000000005
90,0.122768,-0.90443,-0.710296,0.075697,0.7860729999999999,-0.613481,-0.745947,0.8213159999999999,0.252448,-0.09400700000000001,-0.021394,0.10223600000000001
91,0.156729,-0.9278059999999999,-0.692651,0.093589,0.8003060000000001,-0.592242,-1.51865,1.156799,0.408991,-0.172095,-0.237806,0.216937
92,0.20668699999999998,-0.965197,-0.665586,0.11682200000000001,0.822161,-0.557139,-2.24708,1.509579,0.46433900000000006,-0.15321400000000002,-0.39728,0.191737
93,0.26869299999999996,-1.012448,-0.630297,0.14064300000000002,0.848131,-0.510777,-2.644711,1.636334,0.279801,-0.11836500000000001,-0.5777,0.12259300000000001
94,0.32452600000000004,-1.066134,-0.6000979999999999,0.154172,0.875338,-0.45827299999999993,-2.861004,1.376224,-0.28539699999999996,-0.078046,-0.792376,-0.034204000000000005
95,0.35941599999999996,-1.1248049999999998,-0.586187,0.151719,0.902184,-0.40379,-2.822834,0.938636,-0.9105479999999999,-0.021149,-0.8635639999999999,-0.082676
96,0.362194,-1.181278,-0.590992,0.134553,0.925092,-0.355106,-2.442961,0.004016,-1.1459780000000002,0.05281,-0.790555,-0.082486
97,0.337642,-1.229191,-0.6098140000000001,0.110973,0.942218,-0.31608600000000003,-1.9330479999999999,-0.460188,-1.119389,0.318409,-0.392169,0.011459
98,0.30298,-1.26576,-0.638758,0.089607,0.953836,-0.286648,-1.410128,-0.235881,-0.923744,0.277733,-0.26679400000000003,-0.013828
99,0.27796,-1.2914459999999999,-0.664543,0.075659,0.9612350000000001,-0.265148,-0.925796,0.08919500000000001,-0.586424,0.05549,0.180229,0.009044
100,0.268462,-1.303747,-0.679756,0.069996,0.9645540000000001,-0.254434,-0.324268,0.390377,-0.236504,-0.069691,0.29646300000000003,0.029443
101,0.281648,-1.3070950000000001,-0.677478,0.07244600000000001,0.965432,-0.25038499999999997,-0.169321,0.562052,0.120076,-0.580533,0.371864,0.037357
102,0.31565,-1.3139319999999999,-0.653017,0.07886599999999999,0.967191,-0.241498,-0.59024,0.48980100000000004,0.171708,-0.865151,0.759737,-0.045825
103,0.355943,-1.327409,-0.621537,0.083979,0.970527,-0.225886,-0.818141,0.6150979999999999,0.20413800000000001,-0.9564010000000001,0.9191969999999999,-0.07953400000000001
104,0.43175,-1.335602,-0.572096,0.097515,0.972469,-0.21164699999999997,-0.384943,1.864118,0.49825600000000003,-0.17805,-0.030833999999999997,0.18303699999999998
105,0.5048729999999999,-1.328986,-0.540036,0.115826,0.9709059999999999,-0.20958400000000002,0.437615,2.04045,0.443956,0.238208,-0.096913,0.27100100000000005
106,0.5416979999999999,-1.315421,-0.54063,0.130243,0.967569,-0.216444,0.471905,1.6660400000000002,0.27269099999999996,0.407049,0.007865,0.01573
107,0.566868,-1.311025,-0.532679,0.137932,0.966449,-0.216683,0.07207100000000001,0.392869,0.128388,0.466683,0.7470680000000001,-0.497596
108,0.556704,-1.306463,-0.548165,0.138051,0.965267,-0.221815,0.361694,0.29893800000000004,-0.07563500000000001,0.883251,1.370488,-0.224962
109,0.572925,-1.3019889999999998,-0.5319159999999999,0.14397000000000001,0.964088,-0.22317399999999998,-0.146923,-0.329789,0.41834099999999996,0.310147,0.153313,0.047316000000000004
110,0.5906819999999999,-1.306109,-0.502866,0.145696,0.965174,-0.217281,-0.47741300000000003,-0.422955,0.03685,0.12649000000000002,-0.169902,0.021159999999999998
111,0.604392,-1.320079,-0.482523,0.140985,0.968735,-0.204148,-0.878808,-0.29786,-0.26201199999999997,0.164908,-0.014648,-0.071136
112,0.631202,-1.338781,-0.44782299999999997,0.135691,0.9732049999999999,-0.185634,-1.03326,-0.35428899999999997,-0.1359,0.188375,0.03949,0.076519
113,0.676376,-1.355172,-0.395561,0.133931,0.976843,-0.166854,-0.975774,-0.23470700000000003,0.012831,0.12006700000000001,0.007669,0.163909
114,0.7357199999999999,-1.3686129999999999,-0.332308,0.134767,0.9796299999999999,-0.14887,-0.912384,-0.071136,0.078226,0.006940999999999999,-0.116853,0.189092
115,0.795244,-1.379664,-0.27060300000000004,0.13564600000000002,0.9817899999999999,-0.133001,-0.746689,-0.052322,0.024880000000000003,-0.089244,-0.213525,0.155813
116,0.838526,-1.3885100000000001,-0.225111,0.13480899999999998,0.983432,-0.12119500000000001,-0.525595,-0.085759,-0.063263,-0.13961600000000002,-0.284152,0.014643000000000002
117,0.864237,-1.395356,-0.196898,0.13275599999999999,0.98465,-0.11331600000000001,-0.34830900000000004,-0.09257699999999999,-0.11008599999999999,-0.164128,-0.306717,-0.12981800000000002
118,0.8674620000000001,-1.3996620000000002,-0.194132,0.129887,0.985392,-0.110144,-0.012095999999999999,0.113169,-0.172095,-0.166905,-0.313212,-0.14147300000000002
119,0.8376040000000001,-1.3994030000000002,-0.22953400000000002,0.12673,0.985348,-0.11414400000000001,0.376239,0.331328,-0.186753,-0.111517,-0.412121,-0.101539
120,0.7845770000000001,-1.393548,-0.292362,0.12457599999999999,0.984333,-0.12478099999999999,0.723525,0.489762,-0.14821099999999998,0.014003999999999999,-0.512836,-0.10227
121,0.7198220000000001,-1.382088,-0.367736,0.123669,0.982247,-0.14105299999999998,0.956593,0.422652,-0.08454,0.128544,-0.505868,-0.127593
122,0.655833,-1.367016,-0.437733,0.12341099999999999,0.979309,-0.160389,1.0453780000000001,0.073699,-0.009765000000000001,0.213625,-0.394973,-0.129956
123,0.597651,-1.347637,-0.490598,0.12453299999999999,0.975203,-0.18295,1.1953049999999998,-0.581583,0.160901,0.33375,-0.184859,-0.016818
124,0.531431,-1.3199670000000001,-0.533142,0.125783,0.968707,-0.213975,1.624087,-1.5757219999999998,0.38095,0.46866899999999995,0.016446000000000002,-0.031645
125,0.44699399999999995,-1.280031,-0.583388,0.123922,0.958025,-0.258519,2.368846,-1.8900709999999998,0.291484,0.49079399999999995,-0.043932,0.187031
126,0.342319,-1.2246629999999998,-0.647525,0.113881,0.940692,-0.31957800000000003,3.2989319999999998,-2.406933,0.068975,0.21598299999999998,-0.061694000000000006,0.252119
127,0.23404299999999997,-1.1530209999999999,-0.706196,0.094093,0.9139940000000001,-0.39466599999999996,4.015821,-2.811485,-0.082526,-0.050026,0.290718,0.086103
128,0.140963,-1.0712899999999999,-0.747748,0.06729700000000001,0.877819,-0.47424099999999997,4.142478,-2.792145,-0.23335300000000003,-0.243216,0.932667,-0.245867
129,0.057168,-1.00434,-0.779093,0.030662000000000002,0.843808,-0.5357689999999999,2.856366,-2.7193869999999998,-0.529782,-0.346962,1.207065,-0.239454
130,0.009663,-0.963353,-0.7934180000000001,0.005515,0.82111,-0.5707439999999999,1.6529459999999998,-1.138013,-0.14604,-0.624305,0.501186,0.10095599999999999
131,0.004856,-0.940733,-0.790307,0.002861,0.80799,-0.5891890000000001,0.8790049999999999,0.060652,0.200599,-0.414055,0.010781,-0.0021190000000000002
132,0.033886,-0.927825,-0.778209,0.020313,0.800318,-0.599232,0.508781,1.483126,0.43867700000000004,-0.469181,-0.004404,-0.166469
133,0.078671,-0.923127,-0.766354,0.047415,0.797492,-0.601464,-0.0015199999999999999,1.789956,0.34071599999999996,-0.19776,0.435327,-0.158134
134,0.124003,-0.932217,-0.749586,0.073723,0.8029430000000001,-0.591479,-0.838467,1.441437,0.576734,-0.043038,0.33403499999999997,-0.040708
135,0.176172,-0.9576209999999999,-0.716421,0.100858,0.817825,-0.5665600000000001,-1.7050419999999997,1.201462,0.866886,-0.072156,0.079834,0.099885
136,0.23890300000000003,-0.9941840000000001,-0.666813,0.129011,0.8383139999999999,-0.5297029999999999,-2.264727,0.985442,1.02776,-0.10084299999999999,-0.168515,0.16968699999999998
137,0.306847,-1.0372860000000002,-0.606511,0.153613,0.8610270000000001,-0.484804,-2.6382529999999997,0.764886,0.8299489999999999,-0.06451699999999999,-0.444233,0.163012
138,0.366872,-1.089123,-0.552006,0.166171,0.8862209999999999,-0.43243400000000004,-3.020075,0.5263180000000001,0.083037,-0.024294999999999997,-0.720221,0.079621
139,0.40620100000000003,-1.151443,-0.518583,0.160882,0.913352,-0.37403800000000004,-3.2236,0.41233400000000003,-0.804863,0.01876,-0.844764,0.016493999999999998
140,0.424461,-1.218972,-0.502033,0.141921,0.9387459999999999,-0.31403000000000003,-3.168502,-0.058221,-1.192708,0.029054000000000003,-0.843332,-0.048473
141,0.41748599999999997,-1.283103,-0.49716800000000005,0.115047,0.958901,-0.259371,-2.770962,-0.911625,-1.24118,0.19315,-0.6184930000000001,-0.090849
142,0.377023,-1.3340100000000001,-0.5124310000000001,0.08636100000000001,0.972097,-0.21810300000000002,-1.9148599999999998,-1.402986,-1.117066,0.222431,-0.352193,-0.03829
143,0.30594,-1.362239,-0.556489,0.062361,0.978331,-0.197434,-0.670208,-1.383159,-0.7612260000000001,0.11520599999999999,0.002001,0.031708
144,0.240877,-1.360552,-0.596468,0.049786000000000004,0.97798,-0.202673,0.690186,-1.228416,-0.14624,-0.451672,0.212907,-0.026376999999999998
145,0.21368600000000001,-1.3379379999999998,-0.598815,0.048936,0.9730110000000001,-0.225512,1.147391,-1.255687,0.41566899999999996,-0.6688390000000001,0.304898,0.0057090000000000005
146,0.218732,-1.323652,-0.572558,0.053084000000000006,0.969615,-0.23880700000000002,0.291313,-0.644411,0.40676999999999996,-0.669921,0.56313,-0.164452
147,0.22667199999999998,-1.327329,-0.5642689999999999,0.054176999999999996,0.970508,-0.23490300000000003,-0.43458100000000005,0.139049,-0.14943900000000002,-0.00396,-0.13663,0.927301
148,0.21774200000000002,-1.324086,-0.576412,0.052757000000000005,0.9697209999999999,-0.23844899999999997,0.588154,0.437407,0.009009999999999999,0.18676099999999998,-0.26774000000000003,0.37025399999999997
149,0.274962,-1.3252110000000001,-0.545245,0.066011,0.969995,-0.23399099999999998,-0.831939,1.697122,0.566839,0.6107020000000001,-0.48734399999999994,-0.052187
150,0.360116,-1.339816,-0.479203,0.08067200000000001,0.973442,-0.214247,-0.502352,0.437039,0.513072,0.442568,3.4972449999999995,-1.130693
151,0.346168,-1.328605,-0.493825,0.081374,0.970815,-0.225604,0.605611,0.552063,-0.439668,0.441866,3.4998730000000005,-1.119336
152,0.42952299999999993,-1.321337,-0.41798500000000005,0.10280999999999998,0.969046,-0.22445500000000002,-0.422954,-0.17002899999999999,1.473667,0.20488299999999998,0.46087,0.707533
153,0.462754,-1.318746,-0.366227,0.111331,0.968403,-0.22316100000000003,-0.030598,-1.057778,0.163633,0.158582,-0.48956700000000003,-0.198776
154,0.437645,-1.328168,-0.374299,0.101822,0.9707100000000001,-0.217611,-0.620239,-0.684504,-0.496853,0.380524,-0.252616,-0.264719
155,0.406673,-1.3455469999999998,-0.39863000000000004,0.08834700000000001,0.9747379999999999,-0.205134,-0.626123,-0.194056,-0.596867,0.294984,0.005425,0.012339
156,0.39311999999999997,-1.359032,-0.41238500000000006,0.08051599999999999,0.977662,-0.194152,-0.577114,0.100672,-0.284981,0.12248699999999998,-0.026733999999999997,0.19908
157,0.40679299999999996,-1.371737,-0.399586,0.07824199999999999,0.980253,-0.18161,-0.6597390000000001,0.01152,-0.030139,0.124761,-0.029325,0.186539
158,0.44886400000000004,-1.384592,-0.359268,0.080336,0.982714,-0.166791,-0.802363,0.22558000000000003,0.108527,-0.268232,-0.09067,-0.11104100000000001
159,0.49502700000000005,-1.398942,-0.320641,0.08123899999999999,0.9852690000000001,-0.150481,-0.741112,0.548087,-0.14249,-0.248842,-0.211252,-0.111375
160,0.506925,-1.411486,-0.325462,0.077017,0.9873370000000001,-0.13868699999999998,-0.396523,0.975194,-0.423709,-0.159521,-0.253343,-0.035782
161,0.490853,-1.420563,-0.364064,0.070551,0.9887360000000001,-0.131998,-0.17987,1.16432,-0.48232200000000003,0.187063,-0.300214,-0.079413
162,0.4633,-1.425717,-0.414113,0.064609,0.9894950000000001,-0.12933,-0.001802,0.967434,-0.41780100000000003,0.314267,-0.357903,-0.07922699999999999
163,0.41905200000000004,-1.426885,-0.468553,0.058355,0.989663,-0.13100599999999998,0.20111400000000001,0.117486,-0.362951,0.356257,-0.371605,-0.050131
164,0.345477,-1.423261,-0.531507,0.049781,0.989136,-0.13831500000000002,0.39048,-0.942099,-0.351725,0.41793100000000005,-0.295563,-0.073904
165,0.25813600000000003,-1.416782,-0.590418,0.039161,0.9881629999999999,-0.148323,0.48067299999999996,-1.719179,-0.306302,0.452568,-0.255787,-0.078667
166,0.168296,-1.407835,-0.63902,0.027176,0.986751,-0.159949,0.5493100000000001,-2.324605,-0.278341,0.42146300000000003,-0.221782,-0.038110000000000005
167,0.069738,-1.393908,-0.6841550000000001,0.012262,0.9843959999999999,-0.17554,0.885782,-2.952141,-0.281596,0.388175,-0.196035,0.059237
168,-0.033227,-1.369905,-0.7223069999999999,-0.006629,0.9798889999999999,-0.199433,1.41964,-3.446774,-0.391533,0.364585,-0.164551,0.183304
169,-0.127945,-1.332199,-0.741206,-0.030156,0.97167,-0.234408,2.142633,-3.9650339999999997,-0.351636,0.151372,-0.10842,0.264285
170,-0.2035,-1.28135,-0.7357630000000001,-0.057683000000000005,0.9584020000000001,-0.279532,2.8573720000000002,-4.0110790000000005,-0.378629,0.044469,0.091723,0.274939
171,-0.255112,-1.216987,-0.716208,-0.087434,0.93806,-0.33526,3.3517940000000004,-3.064291,-0.48000600000000004,-0.25845300000000004,0.535054,0.144266
172,-0.28528400000000004,-1.154059,-0.697878,-0.113917,0.914415,-0.388418,2.866835,-2.048299,-0.522083,-0.398077,0.64453,0.14324
173,-0.29914,-1.103954,-0.686046,-0.132635,0.8929940000000001,-0.43008100000000005,2.284986,-0.603259,-0.415836,-0.421015,0.345715,0.20806599999999997
174,-0.2755,-1.062106,-0.6705949999999999,-0.132487,0.873383,-0.46866800000000003,1.9904819999999999,1.077702,-0.14978699999999998,-0.34473200000000004,0.132217,0.038843
175,-0.21260900000000002,-1.0286950000000001,-0.644475,-0.108868,0.856626,-0.504321,1.644152,2.6036040000000003,0.575434,-0.652057,0.488757,-0.398511
176,-0.110357,-1.007922,-0.5933149999999999,-0.05876900000000001,0.845725,-0.530374,0.949778,2.865271,1.2742069999999999,-0.280998,0.7369020000000001,-0.400382
177,-0.027089999999999996,-1.000512,-0.541401,-0.014624000000000002,0.8417469999999999,-0.539674,0.164581,1.3579219999999999,1.418069,0.055487,0.555485,-0.195968
178,0.032592,-1.008875,-0.485522,0.017362,0.846233,-0.5325300000000001,-0.803579,0.39364499999999997,1.508682,0.239946,-0.045528,-0.137285
179,0.086702,-1.033245,-0.426382,0.044338999999999996,0.858965,-0.510111,-1.534766,0.005516,1.435705,0.306186,-0.21635700000000002,-0.036047
180,0.126641,-1.066023,-0.372135,0.061080999999999996,0.8752840000000001,-0.47973599999999994,-1.8923990000000002,-0.556836,0.9190450000000001,0.38204899999999997,-0.366007,0.037613
181,0.137355,-1.104517,-0.340265,0.06155599999999999,0.8932469999999999,-0.44533199999999995,-2.061331,-1.0489879999999998,0.265812,0.260419,-0.56822,0.24710500000000002
182,0.122796,-1.14707,-0.330687,0.050362,0.9115629999999999,-0.408064,-2.182203,-1.173203,-0.266848,0.11423499999999999,-0.556949,0.23278600000000002
183,0.085351,-1.192626,-0.34783600000000003,0.031475,0.929342,-0.36787600000000004,-2.2326509999999997,-1.00811,-0.7491800000000001,0.075184,-0.535741,0.178011
184,0.019854,-1.236298,-0.400325,0.006517,0.944575,-0.32823,-2.045651,-0.6693020000000001,-1.189483,0.006575,-0.452449,0.100172
185,-0.07257899999999999,-1.272417,-0.48802299999999993,-0.021318,0.9558139999999999,-0.293198,-1.7408549999999998,-0.385467,-1.3052219999999999,-0.100844,-0.346851,-0.036956
186,-0.164364,-1.3037729999999998,-0.569701,-0.043174000000000004,0.9645610000000001,-0.260306,-1.639873,-0.9903770000000001,-0.636103,-0.368264,0.035607,-0.23179
187,-0.226235,-1.326101,-0.601374,-0.054340999999999993,0.970211,-0.236087,-0.722183,-1.7906360000000001,-0.041145,-0.36542800000000003,0.456653,-0.061092999999999995
188,-0.259741,-1.321785,-0.600564,-0.063295,0.9691569999999999,-0.238179,0.718093,-1.583567,-0.059124,-0.33457800000000004,0.523077,-0.120433
189,-0.24933000000000002,-1.300426,-0.5630930000000001,-0.06590499999999999,0.963672,-0.258829,1.302585,-1.095559,0.470967,-0.201551,0.331723,-0.310537
190,-0.174646,-1.280504,-0.47084,-0.049735,0.95816,-0.281878,1.128825,-0.30544099999999996,1.2325190000000001,-0.01635,-0.062988,-0.445859
191,-0.072585,-1.2704719999999998,-0.386365,-0.021454,0.955241,-0.295051,0.308027,1.86575,1.105431,-0.045607999999999996,-0.650462,-0.40635
192,0.040021,-1.272751,-0.322929,0.011748999999999999,0.9559120000000001,-0.293417,-0.252027,2.810438,0.8450030000000001,0.09458899999999999,-0.823787,-0.241648
193,0.136873,-1.278226,-0.27827199999999996,0.039353,0.957506,-0.285717,-0.352622,2.56213,0.424808,-0.082902,-0.48602399999999996,0.022762
194,0.15483,-1.279823,-0.286175,0.044241,0.957965,-0.283453,0.12918,0.174528,-0.444709,0.031580000000000004,0.10545,0.395483
195,0.098569,-1.2814969999999999,-0.32765900000000003,0.028074,0.9584440000000001,-0.283896,-0.220953,-1.096027,-0.487188,0.202806,1.0268620000000002,0.293921
196,0.084075,-1.2873290000000002,-0.32508899999999996,0.023487,0.9600920000000001,-0.278698,-0.213914,-0.759987,0.185411,0.262676,0.430335,0.372768
197,0.095452,-1.292147,-0.29717,0.026215,0.9614280000000001,-0.273806,-0.420892,-0.745368,0.438183,0.492904,0.025480000000000003,0.327074
198,0.101717,-1.305205,-0.27474499999999996,0.026652999999999996,0.964938,-0.261123,-0.7660170000000001,-0.825486,-0.0053,0.377675,1.007932,0.324096
199,0.065828,-1.3163719999999999,-0.286437,0.016556,0.967808,-0.251143,-0.418991,-1.526371,-0.056458,0.5151359999999999,1.540096,0.100752
200,0.071259,-1.323421,-0.256651,0.017434,0.969558,-0.24423899999999998,-0.407455,-0.893279,0.38612399999999997,0.168876,0.599594,-0.06642999999999999
201,0.06704500000000001,-1.333978,-0.243364,0.015718,0.972089,-0.23408400000000001,-0.6264109999999999,-0.884466,-0.028819,-0.30148400000000003,-0.292325,0.286437
202,0.031882,-1.349668,-0.264585,0.006992,0.97565,-0.219219,-0.8786729999999999,-0.609542,-0.36315,-0.113101,-0.109516,0.303204
203,0.0070290000000000005,-1.37333,-0.282362,0.001379,0.980567,-0.19618,-1.377605,-0.23294299999999998,-0.07015199999999999,0.077814,0.38758200000000004,0.021498
204,0.012934999999999999,-1.403875,-0.27674299999999996,0.002149,0.986101,-0.166133,-1.513951,0.178223,0.055487,0.050020999999999996,0.218016,0.06739400000000001
205,0.022018,-1.430228,-0.274843,0.003085,0.990137,-0.140072,-1.2051889999999998,0.393871,-0.061204999999999996,-0.013705000000000002,-0.100351,0.21207800000000002
206,0.004196,-1.4526,-0.29767,0.000495,0.993023,-0.117921,-1.0914709999999999,0.126773,-0.23098400000000002,-0.016257,-0.30772,0.258882
207,-0.070561,-1.4738790000000002,-0.37348600000000004,-0.006822,0.9953069999999999,-0.096525,-1.0653629999999998,0.009359000000000001,-0.461387,-0.021025,-0.41713599999999995,0.184324
208,-0.244991,-1.492567,-0.549407,-0.018955,0.996942,-0.075817,-1.022356,0.084729,-0.698329,-0.008892,-0.418771,0.163616
209,-0.555607,-1.505285,-0.8669,-0.03453,0.9978549999999999,-0.05561699999999999,-1.038206,0.45499300000000004,-0.8377829999999999,0.098906,-0.41677,0.07395800000000001
210,-0.9848809999999999,-1.5098049999999998,-1.309492,-0.050787,0.998141,-0.033705,-1.191717,0.717593,-0.84026,0.15354,-0.313845,0.035979000000000004
211,-1.4207100000000001,-1.503249,-1.7588599999999999,-0.066736,0.99772,-0.010092,-1.2055690000000001,0.529968,-0.7941819999999999,0.178903,-0.23345300000000002,-0.051569000000000004
212,-1.7227880000000002,-1.487567,-2.0697360000000002,-0.082175,0.9965379999999999,0.012587000000000001,-1.144908,0.284637,-0.763582,0.196768,-0.076464,-0.19933900000000002
213,-1.9172939999999998,-1.467467,-2.26724,-0.097015,0.9946659999999999,0.035029000000000005,-1.126961,0.043667000000000004,-0.724692,0.30842600000000003,0.12304000000000001,-0.286112
214,-2.035324,-1.447282,-2.385533,-0.110145,0.992382,0.05519400000000001,-0.9082899999999999,-0.096011,-0.616163,0.431404,0.143284,-0.147403
215,-2.1003950000000002,-1.431392,-2.446002,-0.11991800000000001,0.9902989999999999,0.070198,-0.628412,-0.334115,-0.45580600000000004,0.500579,0.132931,-0.10041
216,-2.139424,-1.4195959999999999,-2.477729,-0.126922,0.988591,0.081108,-0.418045,-0.42156899999999997,-0.346335,0.5628810000000001,0.18867,-0.233329
217,-2.150504,-1.41131,-2.478214,-0.132865,0.987309,0.086993,-0.095716,-0.647397,-0.361953,0.537864,0.245571,-0.330158
218,-2.123926,-1.4071770000000001,-2.432241,-0.138602,0.9866440000000001,0.085575,0.418282,-1.164828,-0.348086,0.616888,0.470738,-0.31955300000000003
219,-2.055432,-1.413546,-2.332353,-0.138569,0.987662,0.07295900000000001,1.119413,-1.6685159999999999,0.062313,0.434666,0.600214,-0.12448800000000002
220,-1.903042,-1.430634,-2.147626,-0.132063,0.990193,0.045567,1.8795490000000001,-1.478549,0.381436,0.316069,0.292338,0.120235
221,-1.625573,-1.450549,-1.835025,-0.119778,0.9927790000000001,0.006568000000000001,2.314595,-1.716664,0.676405,0.233654,0.12978,0.113443
222,-1.2108700000000001,-1.4587370000000002,-1.378168,-0.10465899999999999,0.9937280000000001,-0.039385,2.6682900000000003,-2.142532,0.841791,0.089477,-0.145568,0.18091
223,-0.779946,-1.441899,-0.892488,-0.090395,0.9917040000000001,-0.091386,2.943606,-2.75743,0.927823,-0.060087,-0.036779,0.11276300000000002
224,-0.48577,-1.4044729999999999,-0.541121,-0.077297,0.9862,-0.146405,3.048973,-2.522589,0.9827379999999999,-0.14119400000000001,0.271917,0.25202600000000003
225,-0.313154,-1.3547280000000002,-0.324815,-0.066045,0.976748,-0.203964,3.051542,-1.577292,0.881131,-0.144282,0.713773,0.21160900000000002
226,-0.19974,-1.3041639999999999,-0.19296300000000002,-0.052279,0.964664,-0.258245,2.681648,-0.254259,0.945219,0.029588999999999997,0.564542,0.017111
227,-0.093649,-1.258817,-0.08453,-0.028702999999999996,0.951728,-0.305598,2.379669,0.135073,1.346398,0.146898,0.47733400000000004,0.041438
228,-0.007017,-1.214854,0.015884,-0.002445,0.937319,-0.348465,2.1720349999999997,-0.937983,1.606969,0.313053,0.350157,0.110885
229,0.036819,-1.173555,0.103823,0.014241,0.922132,-0.386614,1.992473,-2.356618,1.684445,0.32571,0.288592,0.234636
230,0.058112,-1.133446,0.18679300000000001,0.024599,0.905877,-0.42282600000000004,1.861674,-2.8222959999999997,1.8358150000000002,0.32465900000000003,0.23131500000000002,0.277959
231,0.06871100000000001,-1.098186,0.266572,0.031254000000000004,0.890383,-0.454138,1.443187,-3.325901,1.864516,0.214718,0.078764,0.292288
232,0.056919000000000004,-1.075166,0.33924499999999996,0.027056,0.879669,-0.47481599999999996,0.817809,-3.9984699999999997,1.7029130000000001,0.147169,-0.1389,0.44092700000000007
233,0.033618,-1.062944,0.404916,0.016345,0.873791,-0.48602700000000004,0.385176,-4.029392,1.552516,0.099194,-0.28204,0.545551
234,0.003936,-1.059075,0.462954,0.001927,0.8719030000000001,-0.489675,0.024607,-3.9953220000000003,1.337377,0.08744299999999999,-0.41955600000000004,0.5258079999999999
235,-0.030833999999999997,-1.063674,0.513346,-0.014972,0.8741459999999999,-0.485433,-0.34015700000000004,-3.8953910000000005,1.172332,0.028675,-0.498474,0.49611400000000005
236,-0.06782300000000001,-1.074605,0.556933,-0.032264999999999995,0.879402,-0.47498500000000005,-0.585881,-3.647844,1.0186110000000002,0.011925,-0.48158999999999996,0.49354
237,-0.101579,-1.091792,0.594727,-0.046737,0.8874540000000001,-0.45852,-0.900126,-3.158475,0.922853,-0.039628,-0.37207399999999996,0.37185
238,-0.126149,-1.1149639999999998,0.6283479999999999,-0.055385000000000004,0.8978950000000001,-0.436712,-1.147445,-2.45432,0.868949,-0.103627,-0.318839,0.258856
239,-0.137724,-1.141458,0.659133,-0.057149,0.909241,-0.41232700000000005,-1.249215,-1.6675080000000002,0.797795,-0.16389,-0.268586,0.151982
240,-0.135819,-1.1678389999999998,0.6872520000000001,-0.053097000000000005,0.919905,-0.388529,-1.222058,-0.927977,0.716921,-0.207981,-0.142729,0.015588999999999999
241,-0.12425399999999999,-1.1933799999999999,0.71326,-0.045672000000000004,0.9296200000000001,-0.365679,-1.1516170000000001,-0.522051,0.642117,-0.200605,0.082465,-0.161573
242,-0.10487,-1.212132,0.747796,-0.036745,0.936366,-0.349096,-0.622021,-0.7609640000000001,0.788196,-0.15869,0.435673,-0.22542800000000002
243,-0.081251,-1.216658,0.790674,-0.028145999999999997,0.937946,-0.345638,0.10669400000000001,-0.829249,0.716462,0.096688,0.704587,-0.188725
244,-0.059494000000000005,-1.205869,0.8372860000000001,-0.02122,0.93415,-0.35625,0.9069299999999999,-1.378056,0.869101,0.11683099999999999,0.581414,-0.232052
245,-0.045752,-1.182403,0.891968,-0.01732,0.9255190000000001,-0.378306,1.278197,-2.057009,0.906747,0.25216900000000003,0.0021550000000000002,-0.21785500000000002
246,-0.051328,-1.1635950000000002,0.932535,-0.020319,0.918233,-0.395519,0.73607,-2.125393,0.629583,0.058832,-0.636189,-0.12980999999999998
247,-0.068481,-1.156264,0.9557959999999999,-0.02756,0.9153049999999999,-0.401818,0.229981,-1.7688689999999998,0.355331,0.221606,-0.773474,-0.122322
248,-0.081724,-1.1544219999999998,0.97206,-0.033016000000000004,0.9145610000000001,-0.403098,0.101719,-1.1419059999999999,0.321585,0.18194200000000002,-0.413463,-0.137735
249,-0.074192,-1.150507,0.9888889999999999,-0.030244,0.9129709999999999,-0.406902,0.324829,0.098264,0.347192,-0.08463899999999999,0.204049,0.058681
250,-0.058490999999999994,-1.142444,1.004984,-0.024281999999999998,0.909652,-0.414662,0.24063800000000002,-0.096585,0.13000499999999998,0.686239,1.7526099999999998,0.024250999999999998
251,-0.035021,-1.158353,1.020548,-0.014034999999999999,0.9161440000000001,-0.400604,-1.1335959999999998,0.627475,0.8693700000000001,0.20774600000000001,0.918008,0.601333
252,0.002172,-1.172903,1.07017,0.000842,0.9218790000000001,-0.38747600000000004,-0.287534,-0.8803559999999999,0.7853439999999999,0.149763,-0.288472,0.351526
253,-0.000721,-1.174143,1.09269,-0.000279,0.922359,-0.386333,-0.173728,-1.2769270000000001,0.226899,0.320393,-0.376537,0.33361399999999997
254,-0.035549000000000004,-1.187067,1.085642,-0.013306,0.927275,-0.374145,-0.956458,-1.501045,-0.323074,0.380814,-0.425383,0.49525399999999997
255,-0.098352,-1.2133459999999998,1.05199,-0.034357,0.936792,-0.348196,-1.5103440000000001,-1.592751,-0.61845,0.337305,-0.017053,0.46100399999999997
256,-0.18329,-1.241356,0.9952030000000001,-0.058965,0.9462229999999999,-0.31809499999999996,-1.482474,-1.493106,-0.786094,0.262243,0.262944,0.406351
257,-0.256058,-1.268359,0.9426450000000001,-0.075436,0.9546129999999999,-0.288137,-1.569957,-0.931529,-0.22233499999999998,-0.009647,0.575797,0.19159500000000002
258,-0.27931999999999996,-1.304418,0.928599,-0.072576,0.9647309999999999,-0.253037,-1.8943020000000002,-0.22060100000000002,0.49340200000000006,0.061925,0.184561,0.098389
259,-0.277363,-1.344542,0.931391,-0.061426,0.974513,-0.215756,-1.8905020000000001,-0.00894,0.572205,0.041788,0.055684000000000004,0.092907
260,-0.289723,-1.3796700000000002,0.922175,-0.054270000000000006,0.981791,-0.18204700000000001,-1.582471,-0.354043,0.29385700000000003,0.026042000000000003,-0.20746799999999999,0.141566
261,-0.338398,-1.4067290000000001,0.887544,-0.054222,0.9865709999999999,-0.154069,-1.275706,-0.952789,0.043598000000000005,0.096108,-0.25045700000000004,0.102708
262,-0.41916899999999996,-1.42893,0.829744,-0.05754600000000001,0.9899540000000001,-0.129151,-1.1796520000000001,-1.253247,-0.026917,0.12554,-0.291132,0.05790700000000001
263,-0.5279189999999999,-1.449656,0.745015,-0.060874,0.9926709999999999,-0.10439200000000001,-1.167548,-1.177632,-0.03017,0.140677,-0.263927,0.044577
264,-0.6759390000000001,-1.4675280000000002,0.616614,-0.064493,0.9946729999999999,-0.08041799999999999,-1.121114,-0.928069,-0.14232899999999998,0.15374200000000002,-0.18316400000000002,0.12138800000000001
265,-0.872266,-1.480664,0.434069,-0.06892899999999999,0.995941,-0.057885,-1.087373,-0.5839340000000001,-0.184195,0.101095,-0.116317,0.204965
266,-1.155483,-1.4902520000000001,0.155001,-0.07361799999999999,0.996758,-0.032463,-1.3846399999999999,-0.069242,-0.23393200000000003,0.040659,0.007011,0.13815999999999998
267,-1.5404879999999999,-1.490682,-0.234215,-0.079992,0.996793,-0.002425,-1.561864,0.23767800000000003,-0.376569,0.032293,0.071811,-0.043244
268,-1.879374,-1.4772290000000001,-0.578332,-0.089019,0.995626,0.028376,-1.552869,0.196678,-0.520664,0.10760399999999999,-0.005605,-0.215204
269,-2.083358,-1.455345,-0.783979,-0.100392,0.993343,0.056492999999999995,-1.321017,-0.030770999999999996,-0.584982,0.177815,-0.003948,-0.252477
270,-2.188046,-1.434423,-0.888093,-0.110864,0.9907159999999999,0.078688,-0.947641,-0.165677,-0.472175,0.34234000000000003,0.108924,-0.122557
271,-2.233143,-1.420195,-0.9324600000000001,-0.118309,0.9886809999999999,0.092266,-0.506955,0.008974,-0.308019,0.340431,0.161313,-0.12299700000000001
272,-2.239328,-1.414307,-0.938207,-0.122302,0.9877799999999999,0.096602,-0.071438,-0.034667,-0.161779,0.342959,0.203855,-0.172377
273,-2.220698,-1.4133209999999998,-0.9176629999999999,-0.124855,0.987626,0.09489600000000001,0.196476,-0.213625,-0.129768,0.42803199999999997,0.263442,-0.251833
274,-2.192678,-1.414699,-0.8791110000000001,-0.126358,0.987842,0.090568,0.310665,-0.661519,-0.109168,0.46083100000000005,0.222241,-0.249702
275,-2.161972,-1.41889,-0.8303309999999999,-0.125641,0.988484,0.084338,0.573969,-1.043309,0.034165,0.44497700000000007,0.273219,-0.115435
276,-2.074153,-1.432421,-0.7187819999999999,-0.120826,0.990441,0.066535,1.318767,-1.075397,0.21993800000000002,0.44245100000000004,0.314353,0.090081
277,-1.8843279999999998,-1.454998,-0.505163,-0.10990699999999999,0.993303,0.035635,1.863335,-1.236767,0.674739,0.24841100000000002,0.204649,-0.009634
278,-1.5563209999999998,-1.480212,-0.142835,-0.09045,0.9959,-0.001309,2.1201,-1.839129,1.104593,0.012615000000000001,0.018244999999999997,0.062192
279,-0.9530860000000001,-1.489296,0.504899,-0.066366,0.9966809999999999,-0.04715,2.724234,-2.278848,1.3198159999999999,-0.11458800000000001,-0.014152000000000001,0.154527
280,-0.388045,-1.454923,1.122147,-0.043746,0.993294,-0.107018,3.3655169999999996,-2.5015810000000003,1.31924,-0.272523,0.241554,0.150491
281,-0.14036500000000002,-1.390958,1.415151,-0.025025,0.983873,-0.177111,3.719523,-1.755418,1.161591,-0.20658800000000002,0.689879,0.200899
282,-0.034809,-1.320252,1.542857,-0.008628,0.968778,-0.247781,3.505813,-0.5238010000000001,1.041016,-0.136208,0.824283,0.306848
283,0.051627,-1.257499,1.635946,0.015903999999999998,0.9513229999999999,-0.307786,2.8775459999999997,-0.010099,1.525215,0.089442,0.44279700000000005,0.25657800000000003
284,0.14669200000000002,-1.204444,1.731296,0.052359,0.9336399999999999,-0.354365,2.2052240000000003,0.22666399999999998,2.039371,0.177729,0.430282,0.089183
285,0.226753,-1.160331,1.828009,0.089709,0.9169350000000001,-0.388821,1.640616,-1.043064,2.242153,0.201413,0.511898,0.082776
286,0.27016799999999996,-1.1203299999999998,1.916661,0.116202,0.900244,-0.419592,1.408024,-2.1716889999999998,2.3017950000000003,0.157419,0.516519,0.208823
287,0.288366,-1.0824770000000001,1.9912869999999998,0.133418,0.883123,-0.449771,1.310058,-2.631548,2.035713,6.6e-05,0.18998199999999998,0.236179
288,0.277942,-1.049642,2.050552,0.136607,0.867245,-0.478774,1.074517,-3.391036,1.694278,-0.123103,-0.127957,0.388381
289,0.244034,-1.024782,2.096946,0.125469,0.854601,-0.5039,0.784134,-3.7753410000000005,1.348775,-0.163982,-0.40042300000000003,0.5069670000000001
290,0.204532,-1.0096889999999998,2.134624,0.108079,0.846666,-0.521033,0.3339,-3.4123069999999998,0.996924,-0.17361600000000002,-0.556124,0.42595500000000003
291,0.16961199999999999,-1.0052889999999999,2.163751,0.090451,0.844317,-0.528155,-0.07014,-2.6715430000000002,0.7154149999999999,-0.23707199999999998,-0.574358,0.3324
292,0.147466,-1.010405,2.186707,0.078097,0.8470469999999999,-0.525749,-0.534219,-1.7219240000000002,0.470607,-0.178851,-0.5780350000000001,0.211143
293,0.134022,-1.025987,2.2014009999999997,0.06925,0.855226,-0.513608,-0.9652370000000001,-1.0842559999999999,0.15379,-0.10613,-0.620698,0.14432999999999999
294,0.122974,-1.047487,2.208071,0.061301,0.8661700000000001,-0.495975,-1.133414,-0.71325,-0.039072,-0.076011,-0.584096,0.09375399999999999
295,0.112575,-1.070875,2.2077400000000003,0.05385,0.8776200000000001,-0.476322,-1.172744,-0.36094899999999996,-0.19469,-0.08555700000000001,-0.610546,0.10005599999999999
296,0.10769000000000001,-1.095546,2.203805,0.04918,0.889178,-0.45491000000000004,-1.251635,0.097513,-0.224671,-0.06578099999999999,-0.61365,0.100586
297,0.116855,-1.123129,2.2036540000000002,0.050467000000000005,0.901459,-0.429912,-1.459717,0.669864,-0.118967,-0.022359999999999998,-0.485505,0.181361
298,0.138527,-1.155353,2.207042,0.055729999999999995,0.9149370000000001,-0.39973000000000003,-1.668952,1.066016,-0.17114300000000002,-0.007359999999999999,-0.43465200000000004,0.179774
299,0.157341,-1.187861,2.204193,0.058547,0.927572,-0.369029,-1.499568,1.009922,-0.40917,0.06318700000000001,-0.326391,0.185313
300,0.149007,-1.213244,2.177269,0.051957,0.9367559999999999,-0.346104,-0.9645,0.725274,-0.817401,0.097198,-0.061024,0.15654400000000002
301,0.10943299999999999,-1.228308,2.126003,0.036677999999999995,0.9419219999999999,-0.333823,-0.46421999999999997,0.251418,-1.0322850000000001,0.055409,0.037233999999999996,0.11191400000000001
302,0.056144000000000006,-1.237084,2.0679819999999998,0.018381,0.944833,-0.327036,-0.35924,-0.026333,-0.9286459999999999,-0.181543,0.103598,0.0036420000000000003
303,0.011676,-1.249182,2.023508,0.003691,0.9487260000000001,-0.316077,-0.7527010000000001,-0.12428499999999999,-0.6011880000000001,-0.264937,0.090794,0.018300999999999998
304,-0.013646,-1.269266,1.996639,-0.004052,0.954883,-0.296954,-1.116415,0.157168,-0.341307,-0.22391399999999997,0.098004,0.048816000000000005
305,-0.025910000000000002,-1.292489,1.9737490000000002,-0.007117,0.961522,-0.274636,-1.14103,0.7002010000000001,-0.25564899999999996,-0.36863,0.165752,0.08504600000000001
306,-0.011615,-1.31176,1.971032,-0.002975,0.9666370000000001,-0.256132,-0.8284799999999999,0.836051,0.13198800000000002,-0.36888200000000004,0.405143,-0.077837
307,0.023366,-1.323998,1.9941490000000002,0.0057079999999999995,0.9697,-0.244234,-0.518883,0.595585,0.32460300000000003,-0.001542,0.641232,0.150789
308,0.075376,-1.331758,2.030432,0.017830000000000002,0.971566,-0.236096,-0.34827600000000003,0.771034,0.523191,0.594902,0.173209,0.314877
309,0.113756,-1.331706,2.069152,0.026882,0.9715540000000001,-0.235288,0.190687,-0.27957,0.383023,0.49722700000000003,-0.158413,0.050321
310,0.136079,-1.325818,2.098585,0.032902,0.9701420000000001,-0.24029299999999998,0.210804,-0.313729,0.383208,0.421993,0.188198,-0.170519
311,0.157051,-1.3224129999999998,2.125608,0.03845,0.969311,-0.242811,0.10758699999999999,-0.280237,0.355738,0.439546,0.522861,-0.17769000000000001
312,0.16780499999999998,-1.3223,2.150892,0.041077999999999996,0.969283,-0.242493,-0.131697,-0.8810450000000001,0.295016,0.15676800000000002,0.760484,-0.343613
313,0.180418,-1.318777,2.175853,0.044745,0.968411,-0.245312,0.293062,-0.250257,0.423225,0.125451,0.919956,-0.22300999999999999
314,0.21308400000000002,-1.313399,2.215292,0.053834,0.9670559999999999,-0.24880700000000003,0.034128,-0.549124,0.529662,0.309035,-0.059477999999999996,0.101483
315,0.227992,-1.313118,2.2487220000000003,0.057599000000000004,0.9669840000000001,-0.24824200000000002,-0.16339700000000001,-0.99939,0.34833000000000003,0.386371,-0.164204,0.165982
316,0.231958,-1.31857,2.277166,0.057370000000000004,0.968359,-0.242877,-0.45459499999999997,-1.306965,0.262301,0.385364,-0.17233900000000002,0.190005
317,0.228267,-1.32815,2.3042,0.054371,0.970706,-0.234039,-0.563182,-1.572581,0.180698,0.337032,-0.212115,0.192245
318,0.215705,-1.339707,2.32567,0.049023000000000004,0.973417,-0.22373099999999999,-0.678667,-1.7273189999999998,0.082881,0.101292,-0.287672,0.186393
319,0.200479,-1.354436,2.3441650000000003,0.04275,0.976685,-0.210377,-0.7887,-1.569085,0.034908,0.002782,-0.20185899999999998,0.08459900000000001
320,0.188583,-1.3685260000000001,2.3586720000000003,0.037661,0.979613,-0.19733299999999998,-0.640388,-1.140098,-0.013744,-0.033267000000000005,-0.14897,0.019125
321,0.165739,-1.377212,2.353143,0.031738999999999996,0.9813209999999999,-0.189742,-0.256575,-0.699557,-0.22527199999999997,-0.152955,-0.135786,-0.067094
322,0.119897,-1.377526,2.315762,0.022973,0.981381,-0.19069,0.17246199999999998,-0.363734,-0.395757,-0.160486,-0.17973,-0.069533
323,0.068965,-1.372998,2.27066,0.013541999999999998,0.9805020000000001,-0.196043,0.305184,-0.299092,-0.42589099999999996,-0.089347,-0.244479,-0.049928
324,0.024215999999999998,-1.3663290000000001,2.227922,0.004915999999999999,0.9791690000000001,-0.202987,0.374551,-0.033112,-0.401179,0.000668,-0.205961,-0.079713
325,-0.01183,-1.357607,2.188939,-0.002503,0.977361,-0.211563,0.49813199999999996,0.164598,-0.400569,0.153824,-0.161001,-0.08902
326,-0.04243,-1.342733,2.152584,-0.009590000000000001,0.9741059999999999,-0.225888,0.9137549999999999,0.266611,-0.430911,0.34670300000000004,-0.157196,-0.022754
327,-0.07115,-1.315518,2.119933,-0.017950999999999998,0.967593,-0.25187600000000004,1.6394830000000002,0.022509,-0.488554,0.5676800000000001,-0.20730900000000002,0.234634
328,-0.097331,-1.269213,2.105636,-0.028865,0.954867,-0.295627,2.69389,-1.128219,-0.279957,0.356852,0.167874,0.130511
329,-0.117736,-1.204312,2.12384,-0.042092000000000004,0.933593,-0.35585500000000003,3.568078,-2.11591,0.072451,0.24181399999999997,0.382813,0.031452999999999995
330,-0.124803,-1.12609,2.157156,-0.05355,0.9027370000000001,-0.42684700000000003,4.096305999999999,-1.715627,0.21236,-0.017266,0.596256,-0.06349500000000001
331,-0.13153900000000002,-1.049476,2.182353,-0.065321,0.8671620000000001,-0.49372299999999997,3.6246110000000002,-1.2497129999999999,-0.008381,-0.592928,1.088984,-0.067357
332,-0.13101300000000002,-0.989941,2.199345,-0.071687,0.835994,-0.544036,2.658848,-0.402331,0.173931,-0.6334529999999999,0.646352,0.195693
333,-0.11346500000000001,-0.9469049999999999,2.224253,-0.06614400000000001,0.811611,-0.580441,1.9863939999999998,-0.080914,0.564064,-0.473483,0.45360200000000006,0.271955
334,-0.09626,-0.913977,2.250137,-0.058686,0.791938,-0.607775,1.576942,-0.23514200000000002,0.593448,-0.059065999999999994,-0.050056,0.091936
335,-0.082164,-0.88766,2.270371,-0.051806,0.775597,-0.629099,1.2181879999999998,0.014972,0.428252,0.021013999999999998,-0.126121,-0.061390999999999994
336,-0.07196,-0.872339,2.28155,-0.046232999999999996,0.765835,-0.641373,0.486256,0.098,0.279891,0.017608000000000002,0.017902,-0.062683
337,-0.062618,-0.874361,2.293456,-0.040142000000000004,0.767134,-0.64023,-0.415667,-0.047658,0.457512,-0.031833999999999994,0.061037,0.018526
338,-0.051813,-0.894877,2.308404,-0.032401,0.7801319999999999,-0.624775,-1.3419379999999999,0.024335,0.5727270000000001,-0.08706,-0.095562,0.094777
339,-0.031586,-0.9324889999999999,2.329264,-0.018817,0.803106,-0.595539,-2.131253,0.288246,0.793339,-0.165937,-0.341985,0.129994
340,-0.001024,-0.983933,2.3565009999999997,-0.000567,0.8326819999999999,-0.553751,-2.801629,0.471567,0.818331,-0.157209,-0.509089,0.045618
341,0.034908999999999996,-1.045512,2.386978,0.017502,0.865182,-0.501153,-3.219096,0.525678,0.702114,-0.103272,-0.6152880000000001,-0.070029
342,0.073157,-1.108789,2.417002,0.032581,0.8951600000000001,-0.444553,-3.117152,0.612743,0.41963599999999995,0.016094999999999998,-0.654544,-0.054042999999999994
343,0.102131,-1.1663290000000002,2.438075,0.040122000000000005,0.9193120000000001,-0.391478,-2.78052,0.378655,0.060160000000000005,0.0337,-0.665269,-0.066331
344,0.11698599999999999,-1.2188,2.4511939999999997,0.040242,0.938686,-0.342416,-2.582029,0.014196,-0.077923,0.044475,-0.575863,0.052391999999999994
345,0.12952,-1.269569,2.462443,0.03832,0.954973,-0.294207,-2.4802,0.233785,-0.201407,-0.001959,0.009642,0.235812
346,0.136951,-1.310206,2.459982,0.035175,0.9662379999999999,-0.255238,-1.626735,0.584937,-0.311264,-0.039402,0.345682,0.189045
347,0.14335599999999998,-1.329028,2.4537240000000002,0.034205,0.970916,-0.23696399999999998,-0.5432680000000001,0.678348,-0.101921,-0.34279899999999996,0.754731,-0.01885
348,0.177785,-1.3332979999999999,2.469405,0.041608,0.97193,-0.23156300000000002,-0.188671,1.12733,0.264244,-0.634107,0.3314,-0.25014200000000003
349,0.227812,-1.339887,2.495464,0.051688,0.973459,-0.22295,-0.547154,1.280182,0.179291,-0.5609649999999999,0.019354,-0.265377
350,0.280778,-1.354808,2.5136849999999997,0.059387,0.976765,-0.20592,-0.823715,2.133434,-0.10467699999999999,-0.35368299999999997,-0.09586,0.2168
351,0.313299,-1.364991,2.498358,0.06298200000000001,0.9788969999999999,-0.194407,-0.12780999999999998,2.352811,-0.42376800000000003,0.13461900000000002,0.05835,0.496058
352,0.30382,-1.362727,2.449495,0.061799,0.978432,-0.19710999999999998,0.414992,1.613637,-0.393392,0.27273400000000003,0.049431,0.28764
353,0.30703400000000003,-1.355905,2.424195,0.064448,0.977,-0.203269,0.32669899999999996,1.39063,0.039975,0.63886,0.132055,0.07153999999999999
354,0.35479,-1.351842,2.449897,0.07545700000000001,0.976125,-0.203681,0.001312,0.835182,0.43151999999999996,0.766523,0.09740700000000001,-0.30024
355,0.407276,-1.349785,2.4988799999999998,0.08683400000000001,0.975676,-0.201285,-0.19439700000000001,-0.047936,0.6022,0.596485,-0.023818000000000002,-0.035195
356,0.465199,-1.352191,2.570145,0.097287,0.976201,-0.193822,-0.5921489999999999,-0.9095989999999999,0.644323,0.353671,0.171413,-0.11433
357,0.52658,-1.357197,2.655064,0.10653599999999999,0.977274,-0.18326199999999998,-0.613306,-1.0376370000000001,0.713774,0.26559499999999997,0.811254,-0.166149
358,0.585987,-1.356951,2.731098,0.117362,0.9772219999999999,-0.176814,-0.289028,-0.592349,0.698377,0.149072,0.5693630000000001,0.012843
359,0.638375,-1.34808,2.794074,0.13162000000000001,0.975301,-0.17738099999999998,0.11078299999999999,-0.343692,0.772422,-0.216322,-0.066213,0.166547
360,0.644439,-1.337481,2.810741,0.138896,0.9729049999999999,-0.184833,0.427217,-0.685867,0.287961,-0.336696,-0.390218,0.139423
361,0.609442,-1.328415,2.7907900000000003,0.13738699999999998,0.9707690000000001,-0.196804,0.498929,-0.734825,-0.05117,-0.21963200000000002,-0.39415500000000003,0.018902000000000002
362,0.566947,-1.324897,2.757206,0.130736,0.9699190000000001,-0.20534299999999997,0.281051,-0.35052,-0.329853,-0.166975,-0.32493,-0.100504
363,0.526228,-1.325433,2.717867,0.12200699999999999,0.9700489999999999,-0.21004499999999998,0.21932600000000002,0.024149,-0.46536099999999997,-0.0547,-0.275973,-0.12343599999999999
364,0.487975,-1.3259729999999998,2.671943,0.113639,0.9701799999999999,-0.21409499999999998,0.266363,0.474778,-0.510475,0.069832,-0.23675100000000002,-0.137224
365,0.457487,-1.3248149999999999,2.625686,0.107557,0.969899,-0.218467,0.335858,0.814074,-0.438874,0.157351,-0.18143099999999998,-0.088509
366,0.427464,-1.320447,2.581938,0.10270499999999999,0.9688260000000001,-0.225451,0.5013270000000001,0.42866400000000004,-0.370994,0.21347199999999997,-0.074935,-0.09536499999999999
367,0.388162,-1.311526,2.539055,0.097035,0.966577,-0.23730300000000001,0.684282,-0.07940499999999999,-0.280403,0.286143,0.045111,-0.069414
368,0.345992,-1.297492,2.504994,0.091536,0.962884,-0.253919,0.932701,-0.657274,-0.107012,0.396837,-0.002221,0.042036000000000004
369,0.2977,-1.2746680000000001,2.4719029999999997,0.085597,0.9564729999999999,-0.278983,1.42335,-0.9125559999999999,-0.09577999999999999,0.488255,-0.177482,0.120933
370,0.23381500000000002,-1.241024,2.42849,0.075028,0.946116,-0.31501599999999996,2.056222,-1.2730780000000002,-0.262881,0.47634899999999997,-0.248377,0.21374400000000002
371,0.161072,-1.1918440000000001,2.382482,0.059330999999999995,0.929053,-0.365159,2.880842,-1.583599,-0.313339,0.255092,-0.10993,0.180085
372,0.098113,-1.126836,2.349895,0.042074,0.903058,-0.42745299999999997,3.512308,-1.669621,-0.128288,-0.082082,0.34817800000000004,-0.119101
373,0.057655,-1.05646,2.340716,0.028348,0.870619,-0.49113999999999997,3.3856029999999997,-1.589269,0.13350599999999999,-0.5049560000000001,1.004808,-0.242121
374,0.02144,-1.000959,2.340626,0.011566,0.841989,-0.539371,2.384472,-1.904332,0.1376,-0.5662229999999999,0.954139,-0.019986
375,0.006719,-0.963374,2.354286,0.0038350000000000003,0.8211219999999999,-0.5707399999999999,1.5885850000000001,-0.767672,0.557872,-0.619939,0.709884,0.14688099999999998
376,0.024638999999999998,-0.941941,2.376996,0.014491999999999998,0.808701,-0.588041,0.774472,0.333851,0.723826,-0.44478999999999996,0.077087,0.074934
377,0.06285700000000001,-0.9312229999999999,2.404068,0.037492000000000004,0.80235,-0.595675,0.392966,1.028186,0.8441850000000001,-0.23805300000000001,0.082324,-0.021269
378,0.103647,-0.924652,2.424443,0.062295,0.798411,-0.598881,0.18046500000000001,1.340363,0.483379,-0.100564,0.046361,-0.025111
379,0.143696,-0.926062,2.437189,0.086062,0.799259,-0.594792,-0.324789,1.5684049999999998,0.370598,0.0435,0.027874,0.047566000000000004
380,0.192527,-0.9382520000000001,2.455695,0.11312,0.8065260000000001,-0.580276,-0.9058940000000001,1.75535,0.47739499999999996,-0.036383,-0.091362,0.126952
381,0.24609699999999998,-0.9593200000000001,2.4798299999999998,0.13985699999999998,0.818802,-0.55678,-1.3169899999999999,1.620662,0.417012,-0.07905,-0.158859,0.142504
382,0.293157,-0.9866229999999999,2.503193,0.15937300000000001,0.834168,-0.52798,-1.5927440000000002,1.2508860000000002,0.154914,-0.11497,-0.299302,0.11547400000000001
383,0.328852,-1.020783,2.519733,0.168809,0.852517,-0.49468900000000005,-1.8650939999999998,1.0000040000000001,-0.27182,-0.14294600000000002,-0.427087,0.02478
384,0.351752,-1.063551,2.526769,0.16736900000000002,0.874086,-0.456028,-2.2069,0.725924,-0.69794,-0.147548,-0.498521,-0.044795999999999996
385,0.359149,-1.113416,2.5262729999999998,0.155212,0.8972129999999999,-0.41342299999999993,-2.3564979999999998,0.15128,-0.9856,-0.125808,-0.550335,-0.10354400000000001
386,0.339386,-1.163513,2.511205,0.13187000000000001,0.9182,-0.37352199999999997,-2.1471810000000002,-0.535514,-1.2439040000000001,0.041363,-0.367221,-0.042479
387,0.292618,-1.208156,2.476676,0.102329,0.9349629999999999,-0.339665,-1.767193,-0.80288,-1.31141,0.035656,-0.185147,-0.050548
388,0.240166,-1.24308,2.437184,0.076564,0.94678,-0.31264400000000003,-1.362975,-0.693948,-0.931644,0.014851,-0.106021,-0.072839
389,0.212587,-1.2673159999999999,2.414845,0.063053,0.9543020000000001,-0.292116,-0.922636,-0.027408999999999996,-0.433767,-0.028461,0.128217,-0.07348500000000001
390,0.21537399999999998,-1.278556,2.4086279999999998,0.06157000000000001,0.957601,-0.281442,-0.301399,0.639031,-0.06815399999999999,-0.25555500000000003,0.367167,-0.018973
391,0.24410300000000001,-1.2818690000000001,2.422931,0.068862,0.95855,-0.276477,-0.257454,0.782404,0.269527,-0.317855,0.253272,-0.034329000000000005
392,0.296336,-1.292833,2.4559740000000003,0.08012899999999999,0.961616,-0.262438,-0.956451,1.225827,0.275827,-0.352117,0.14360799999999999,0.15001099999999998
393,0.361821,-1.316315,2.498995,0.089112,0.967794,-0.23544400000000001,-1.3341530000000001,1.013855,0.066225,-0.376663,0.192896,0.365098
394,0.40232199999999996,-1.33565,2.526529,0.091227,0.9724799999999999,-0.21438200000000002,-0.780708,0.535411,-0.11302999999999999,-0.240015,0.031228,0.084713
395,0.403973,-1.343701,2.523196,0.0885,0.974325,-0.207025,-0.100273,0.12021300000000001,-0.234864,-0.13860999999999998,0.060542,-0.037329
396,0.38483,-1.3406639999999999,2.491997,0.085632,0.9736360000000001,-0.211423,0.467134,1.0141959999999999,-0.248069,0.338502,0.233685,-0.000277
397,0.394369,-1.331323,2.471331,0.09113500000000001,0.971463,-0.218984,0.43811000000000005,1.5285799999999998,0.079013,0.381262,0.252963,-0.005763
398,0.425331,-1.329285,2.478144,0.098687,0.9709780000000001,-0.217861,-0.167078,1.055336,0.13628099999999999,0.281974,0.279068,-0.087818
399,0.47314399999999995,-1.334591,2.507133,0.106637,0.972233,-0.208306,-0.464308,0.9836540000000001,0.204799,0.37955300000000003,0.40963299999999997,-0.140739
400,0.525065,-1.3403370000000001,2.540044,0.11450199999999999,0.973562,-0.197654,-0.390752,0.9759180000000001,0.210664,0.415313,0.366831,-0.126839
401,0.5773689999999999,-1.3423889999999998,2.578596,0.12358800000000002,0.9740280000000001,-0.189723,-0.26418800000000003,0.560492,0.359495,0.358956,0.195863,-0.200001
402,0.614791,-1.3413680000000001,2.61205,0.131174,0.9737959999999999,-0.185779,-0.134198,0.015811000000000002,0.327986,0.290259,0.063939,-0.00048499999999999997
403,0.627747,-1.3412979999999999,2.633416,0.133609,0.9737809999999999,-0.184119,-0.147827,-0.603334,0.12892699999999999,0.154461,-0.052974,0.055808
404,0.622039,-1.343245,2.643766,0.131451,0.9742219999999999,-0.183337,-0.153607,-0.845621,-0.015013,0.051928999999999996,-0.136713,0.034137
405,0.612581,-1.347456,2.649816,0.127352,0.9751629999999999,-0.18121400000000001,-0.253905,-0.67669,-0.08216,-0.073839,-0.17519,-0.043883
406,0.614514,-1.353335,2.660259,0.124394,0.976448,-0.176281,-0.31810900000000003,-0.225929,-0.063958,-0.160435,-0.20166800000000001,-0.087681
407,0.631501,-1.358343,2.6751720000000003,0.124482,0.977517,-0.170193,-0.277669,0.299879,0.010426000000000001,-0.167771,-0.213646,-0.082264
408,0.656941,-1.3616190000000001,2.691938,0.126814,0.978202,-0.164435,-0.20114500000000002,0.51675,0.055548,-0.166853,-0.312156,-0.11677
409,0.677481,-1.3620079999999999,2.700168,0.12992599999999999,0.978283,-0.161499,0.019486,0.7024199999999999,0.052578999999999994,-0.096082,-0.309246,-0.12040799999999999
410,0.6902729999999999,-1.359855,2.696678,0.133322,0.977834,-0.161448,0.14281300000000002,0.835184,0.044724,0.051614,-0.26150999999999996,-0.097662
411,0.6966899999999999,-1.356454,2.6907400000000004,0.136489,0.977116,-0.163139,0.186728,0.40781799999999996,0.054124,0.236314,-0.133,-0.022469
412,0.69245,-1.351901,2.6857159999999998,0.13863499999999998,0.976138,-0.167138,0.216608,-0.206273,0.15125999999999998,0.400855,-0.080538,0.039727
413,0.681182,-1.3461530000000002,2.686473,0.140274,0.974874,-0.173046,0.21147800000000003,-0.825371,0.199019,0.48963999999999996,-0.060826,7.2e-05
414,0.652239,-1.339818,2.679672,0.138953,0.9734430000000001,-0.181937,0.379695,-1.2611709999999998,0.078976,0.46430299999999997,-0.073876,-0.039255
415,0.590002,-1.330182,2.647071,0.132581,0.971192,-0.198012,0.779675,-1.714531,-0.113134,0.413501,-0.15873800000000002,0.032149000000000004
416,0.48530500000000004,-1.313094,2.580732,0.11888699999999999,0.9669780000000001,-0.22543200000000002,1.403835,-2.174923,-0.340003,0.320292,-0.189588,0.249556
417,0.352684,-1.280091,2.4932689999999997,0.099006,0.9580420000000001,-0.268986,2.3947279999999997,-2.567864,-0.43619600000000003,0.177086,-0.130115,0.272877
418,0.2264,-1.224134,2.414047,0.076266,0.9405120000000001,-0.33109,3.392757,-2.403255,-0.374956,-0.175799,0.5245,-0.108607
419,0.139803,-1.1524940000000001,2.362564,0.056604999999999996,0.9137799999999999,-0.402246,3.7006940000000004,-1.6707889999999999,-0.264785,-0.448618,0.919243,-0.128805
420,0.0846,-1.0876569999999999,2.3354209999999997,0.039255,0.885541,-0.4629,3.009837,-1.4833399999999999,-0.188666,-0.48713100000000004,0.911868,0.011225
421,0.054751,-1.035023,2.325863,0.027937,0.859874,-0.509741,2.442491,-0.7142689999999999,0.051008,-0.554075,0.340321,0.201345
422,0.058224,-0.994085,2.3297689999999998,0.03173,0.83826,-0.544346,1.7595869999999998,0.462113,0.296831,-0.44342700000000007,0.14169,0.100377
423,0.088012,-0.9684149999999999,2.341629,0.049804,0.823989,-0.564413,0.9701569999999999,1.15541,0.497663,-0.31343000000000004,0.07862999999999999,0.042730000000000004
424,0.122716,-0.953478,2.360319,0.07085599999999999,0.815434,-0.574497,0.573179,0.816339,0.6534220000000001,0.10758,0.003978,0.06901900000000001
425,0.14737,-0.9436200000000001,2.378964,0.086173,0.809688,-0.580499,0.290475,0.241434,0.54643,0.148064,-0.133876,0.098901
426,0.15978900000000001,-0.9440459999999999,2.39148,0.093321,0.809938,-0.579044,-0.318485,0.21712199999999998,0.22815,0.130083,-0.175371,0.12463699999999998
427,0.18019200000000002,-0.958702,2.402289,0.102976,0.818447,-0.56528,-1.048802,0.7705489999999999,0.191361,-0.08993,-0.227001,0.10548699999999998
428,0.21382800000000002,-0.98559,2.419028,0.11721400000000001,0.833598,-0.539792,-1.602176,1.088846,0.193498,-0.12315,-0.314952,0.128201
429,0.252062,-1.021792,2.4381470000000003,0.130147,0.853044,-0.5053489999999999,-2.04718,1.089122,-0.022187000000000002,-0.109319,-0.50905,0.123726
430,0.284002,-1.067648,2.452108,0.135108,0.8760690000000001,-0.46287,-2.424861,0.9269280000000001,-0.425201,-0.10031799999999999,-0.581788,0.088358
431,0.30559899999999995,-1.118862,2.459463,0.131389,0.8996040000000001,-0.416472,-2.510565,0.627708,-0.647606,-0.037364999999999995,-0.6347119999999999,0.033706
432,0.315747,-1.170038,2.461537,0.12114200000000001,0.920766,-0.370831,-2.3918,0.297736,-0.8162010000000001,0.030897000000000004,-0.464574,0.010906
433,0.304035,-1.2181469999999999,2.447509,0.103399,0.9384610000000001,-0.329545,-2.091357,-0.061239999999999996,-1.081766,0.005472,-0.370849,-0.029785000000000002
434,0.264599,-1.261586,2.407348,0.079583,0.952574,-0.293716,-1.779736,-0.006117,-1.28369,-0.061959,0.031923,-0.135651
435,0.21164299999999997,-1.294805,2.35137,0.057242999999999995,0.9621559999999999,-0.26642,-1.142807,-0.024138,-1.059165,-0.30609899999999995,0.773379,-0.195723
436,0.166472,-1.3071190000000001,2.308666,0.043188,0.9654379999999999,-0.257029,-0.093821,-0.271167,-0.399905,-0.413366,0.7141430000000001,-0.12550899999999998
437,0.15256,-1.301701,2.29314,0.040402,0.9640120000000001,-0.262771,0.363057,0.35335300000000003,-0.064229,-0.419187,0.27780900000000003,-0.018646
438,0.187364,-1.302893,2.305262,0.049307,0.9643280000000001,-0.26007800000000003,-0.460284,1.684418,0.248781,-0.248419,0.130261,0.088966
439,0.273384,-1.32075,2.346591,0.06680900000000001,0.968901,-0.23826,-1.194895,2.546479,0.289546,-0.085516,0.22979899999999998,0.401559
440,0.363604,-1.340507,2.389199,0.081179,0.9736,-0.21333600000000003,-0.946213,2.17446,0.133663,-0.032992,0.102114,0.40428400000000003
441,0.42145299999999997,-1.350424,2.418287,0.089424,0.975816,-0.199465,-0.385373,1.1169440000000002,0.104753,0.18528,-0.067857,0.018678999999999998
442,0.45415600000000006,-1.352711,2.433056,0.09491799999999999,0.9763129999999999,-0.194429,-0.037266,0.892241,0.051925,0.445288,0.083379,-0.102095
443,0.461825,-1.350795,2.421771,0.09724,0.9758969999999999,-0.19537000000000002,0.19055999999999998,0.890905,-0.077873,0.5582010000000001,0.126459,-0.091068
444,0.460429,-1.350824,2.412969,0.096954,0.9759040000000001,-0.19547899999999999,-0.074934,-0.0030800000000000003,-0.059354,0.552017,0.125659,-0.063295
445,0.467923,-1.354396,2.42448,0.096844,0.976677,-0.191635,-0.31340300000000004,-0.221202,0.082401,0.459049,0.084877,-0.081939
446,0.49052399999999996,-1.362485,2.45454,0.097425,0.978381,-0.182423,-0.557438,-0.39718200000000004,0.079854,0.229174,0.110028,-0.24671500000000002
447,0.510471,-1.368252,2.482557,0.098286,0.979558,-0.175517,-0.24468,-0.270804,0.172676,0.258938,0.705058,0.09462999999999999
448,0.548025,-1.364758,2.523604,0.106589,0.978849,-0.174624,0.010766,-0.194671,0.625152,0.139215,0.028674,0.134615
449,0.594312,-1.356527,2.5821009999999998,0.11906199999999999,0.977132,-0.176174,0.003411,-0.761854,0.745468,0.004489,-0.30122899999999997,0.101268
450,0.6228239999999999,-1.349025,2.632205,0.128308,0.975509,-0.17865699999999998,-0.015603,-1.116945,0.584489,0.009982,-0.43073999999999996,0.0559
451,0.631901,-1.345326,2.6638490000000004,0.132055,0.9746889999999999,-0.180396,-0.064039,-1.05902,0.260405,-0.019018,-0.412433,-0.053735000000000005
452,0.616045,-1.344544,2.667841,0.129619,0.974514,-0.183089,0.063965,-0.8973690000000001,-0.048692,-0.07789199999999999,-0.31901199999999996,-0.104234
453,0.581573,-1.344343,2.645838,0.123339,0.974469,-0.187611,0.183077,-0.48571800000000004,-0.265237,-0.091692,-0.20788299999999998,-0.143749
454,0.548231,-1.344992,2.6158799999999998,0.11668699999999999,0.974614,-0.191079,0.11355699999999999,-0.094337,-0.311089,-0.01485,-0.022175999999999998,-0.10073
455,0.5159100000000001,-1.3462370000000001,2.585948,0.10985199999999999,0.974892,-0.193694,0.16203900000000002,-0.24039499999999997,-0.32445,0.105342,0.12081099999999999,-0.056611
456,0.476317,-1.344019,2.5514799999999997,0.10309000000000001,0.9743959999999999,-0.199811,0.351351,-0.297815,-0.248279,0.19453199999999998,0.096435,-0.029101
457,0.43664200000000003,-1.3362530000000001,2.516559,0.098281,0.972621,-0.21059499999999998,0.64544,-0.293863,-0.15970299999999998,0.249863,-0.0245,0.027092
458,0.384413,-1.320232,2.474358,0.092985,0.968773,-0.22985500000000003,1.103775,-0.825059,-0.118433,0.251512,-0.100395,-0.006321
459,0.311961,-1.2933569999999999,2.423916,0.084065,0.9617600000000001,-0.26067399999999996,1.782328,-1.3873959999999999,-0.20590799999999998,0.326656,-0.241866,0.084603
460,0.218302,-1.2500639999999998,2.360867,0.068277,0.9490049999999999,-0.30777899999999997,2.651977,-1.814588,-0.422545,0.24707600000000002,-0.186599,0.133997
461,0.12321099999999999,-1.190404,2.299715,0.045631,0.9285190000000001,-0.36846999999999996,3.3671629999999997,-1.8867669999999999,-0.574485,0.054147,0.0001,0.06511
462,0.050044,-1.119069,2.258306,0.021836,0.8996940000000001,-0.435974,3.691161,-1.606075,-0.454009,-0.22157399999999997,0.365717,-0.07753
463,0.007923000000000001,-1.051288,2.2416150000000004,0.003933,0.868064,-0.496438,3.1293849999999996,-1.279034,-0.234026,-0.43197299999999994,0.690607,0.0009390000000000001
464,-0.021074000000000002,-0.999345,2.236273,-0.011397,0.841117,-0.540733,2.304523,-1.137318,-0.060508000000000006,-0.39615,0.5520109999999999,0.18898800000000002
465,-0.026581999999999998,-0.962802,2.2448900000000003,-0.015183000000000002,0.8207959999999999,-0.57102,1.549102,-0.264946,0.349704,-0.2901,0.11465999999999998,0.19309
466,-0.004443,-0.9427190000000001,2.2630220000000003,-0.002611,0.809159,-0.587584,0.7114779999999999,0.6743979999999999,0.6000909999999999,-0.12122899999999999,-0.102677,0.102721
467,0.035087,-0.9318799999999999,2.2890189999999997,0.020919,0.802742,-0.595959,0.47849899999999995,1.077917,0.8553790000000001,-0.125884,-0.038002999999999995,0.072506
468,0.079958,-0.9234389999999999,2.314993,0.04817,0.7976800000000001,-0.601154,0.26715700000000003,1.182433,0.7426729999999999,-0.114027,0.065861,0.052631
469,0.121648,-0.924858,2.341324,0.073046,0.798535,-0.597499,-0.43340200000000006,0.9297270000000001,0.8759040000000001,-0.025896,0.14332899999999998,-0.005696
470,0.168944,-0.939241,2.379162,0.099271,0.80711,-0.5819949999999999,-1.116349,0.841899,1.0539120000000002,-0.00137,0.013156999999999999,0.091654
471,0.222741,-0.9630299999999999,2.423455,0.126144,0.820926,-0.556928,-1.562943,0.87885,0.991993,-0.050704,-0.091998,0.101865
472,0.274192,-0.9929469999999999,2.467006,0.1479,0.8376389999999999,-0.5258189999999999,-1.856716,0.69693,0.6536850000000001,-0.036633,-0.323342,0.139467
473,0.312394,-1.0308030000000001,2.497307,0.15801099999999998,0.857712,-0.48924700000000004,-2.152739,0.604883,-0.045814,-0.08559299999999999,-0.45719899999999997,0.055317
474,0.334574,-1.07723,2.508876,0.15557,0.880649,-0.447499,-2.347184,0.591196,-0.715862,-0.092597,-0.506595,-0.033122000000000006
475,0.333794,-1.1278110000000001,2.498511,0.140435,0.9034760000000001,-0.404981,-2.2545040000000003,0.295682,-1.220105,0.116523,-0.37598000000000004,-0.07495399999999999
476,0.30590700000000004,-1.175945,2.46702,0.115847,0.923054,-0.36681199999999997,-1.962123,-0.111541,-1.401275,0.11796400000000001,-0.10744100000000001,-0.126444
477,0.262563,-1.216969,2.427429,0.089934,0.938053,-0.33461599999999997,-1.6635349999999998,-0.38304099999999996,-1.163832,0.077455,0.20779,-0.172586
478,0.22554200000000002,-1.251,2.3915580000000003,0.07030499999999999,0.9493,-0.306411,-1.402593,0.037826,-0.878402,0.015419,0.375438,-0.190446
479,0.21028899999999998,-1.276348,2.368223,0.060579999999999995,0.9569620000000001,-0.283819,-0.9969549999999999,0.51937,-0.44141899999999995,-0.24197600000000002,0.6043470000000001,-0.10615
480,0.218734,-1.291144,2.364306,0.059895000000000004,0.961151,-0.269445,-0.579709,0.638007,-0.102167,-0.5476270000000001,0.174011,0.030248
481,0.244984,-1.306023,2.375705,0.063471,0.965152,-0.25387600000000005,-0.988593,0.8767450000000001,-0.043372,-0.533563,-0.029559,-0.0307
482,0.289904,-1.33307,2.397133,0.06731799999999999,0.9718760000000001,-0.22566599999999998,-1.522291,1.47539,-0.103414,-0.271465,-0.004499,0.29573499999999997
483,0.35994499999999996,-1.3619629999999998,2.43093,0.073022,0.978273,-0.19403299999999998,-1.397512,1.917136,-0.125541,-0.056635000000000005,0.06550399999999999,0.436572
484,0.41502799999999995,-1.383874,2.454122,0.074932,0.9825809999999999,-0.170059,-0.9140450000000001,1.375772,-0.227225,0.10376400000000001,-0.166541,0.209702
485,0.44586400000000004,-1.396808,2.464722,0.074652,0.984902,-0.15618800000000002,-0.44210600000000005,0.8591479999999999,-0.112171,0.22532,-0.208443,0.031814
486,0.473688,-1.397993,2.474718,0.078436,0.985107,-0.15301199999999998,0.1187,1.00222,0.119094,0.432245,-0.10775699999999999,-0.24063400000000001
487,0.48769300000000004,-1.387656,2.4682009999999996,0.085339,0.9832770000000001,-0.160887,0.679925,0.9017440000000001,0.250261,0.483875,-0.017731,-0.160997
488,0.493496,-1.377077,2.471221,0.091193,0.981295,-0.16954,0.151314,-0.379075,0.265302,0.43360200000000004,0.191114,-0.031174
489,0.517828,-1.378781,2.509385,0.094463,0.9816219999999999,-0.16581700000000002,-0.393057,-0.637251,0.299218,0.347813,0.36330300000000004,-0.118118
490,0.574155,-1.38396,2.575539,0.100887,0.9825969999999999,-0.155967,-0.6463800000000001,-0.294196,0.5095850000000001,0.250035,0.409646,-0.184594
491,0.6802050000000001,-1.387389,2.684965,0.11470899999999999,0.9832280000000001,-0.141791,-0.710205,0.030861000000000003,0.793938,0.20027799999999998,0.440539,-0.108972
492,0.774922,-1.383109,2.780687,0.130548,0.9824379999999999,-0.13331199999999999,-0.225027,-0.021981,0.8006,0.106055,0.349669,0.188473
493,0.817293,-1.371349,2.831096,0.144493,0.980176,-0.13555799999999998,0.232633,-0.602691,0.704128,0.012748,-0.065488,0.161681
494,0.795198,-1.3574700000000002,2.830111,0.15116300000000002,0.977332,-0.148229,0.578944,-1.293819,0.34530500000000003,-0.072031,-0.286673,-0.004328
495,0.739819,-1.34826,2.801071,0.148789,0.975341,-0.16301,0.515625,-1.281417,-0.036508,-0.088227,-0.405715,-0.09150599999999999
496,0.6845979999999999,-1.3438459999999999,2.7625,0.142286,0.9743569999999999,-0.174307,0.385275,-0.580246,-0.244484,-0.067121,-0.324577,-0.20562199999999997
497,0.648324,-1.343473,2.726525,0.13609000000000002,0.974273,-0.179642,0.20261500000000002,0.230361,-0.335461,-0.054166,-0.31396399999999997,-0.278595
498,0.632428,-1.3460159999999999,2.697886,0.131753,0.974843,-0.179784,0.035276,0.75076,-0.326615,0.036704,-0.246648,-0.16604100000000002
499,0.617801,-1.34922,2.670676,0.127299,0.9755520000000001,-0.179145,0.06868400000000001,0.338431,-0.338672,0.172322,-0.081524,-0.10961300000000002
500,0.579917,-1.3506879999999999,2.637414,0.11963800000000001,0.975874,-0.18263900000000002,0.213961,-0.5548420000000001,-0.32155700000000004,0.31552800000000003,0.095308,-0.098824
501,0.526113,-1.346386,2.596045,0.11175,0.974925,-0.192438,0.574596,-0.717233,-0.25046399999999996,0.46802299999999997,0.090809,-0.11685799999999999
502,0.457879,-1.332584,2.546396,0.104308,0.9717610000000001,-0.211659,1.102382,-1.181735,-0.164997,0.550172,-0.12448699999999999,0.024342
503,0.36183200000000004,-1.3050979999999999,2.480437,0.092951,0.964909,-0.245581,1.908121,-1.9320009999999999,-0.252411,0.540563,-0.214024,0.22846
504,0.237475,-1.25924,2.40698,0.072113,0.951858,-0.29793800000000004,2.822747,-3.151334,-0.348077,0.297958,-0.052459000000000006,0.271967
505,0.11905299999999999,-1.197168,2.355027,0.043351,0.931009,-0.362413,3.418689,-3.4316769999999996,-0.288008,-0.151323,0.434363,-0.010176000000000001
506,0.040229,-1.1267049999999998,2.331635,0.017279,0.903001,-0.42928999999999995,3.4959550000000004,-2.470601,-0.13808,-0.445639,0.8523700000000001,0.004898
507,-0.011177,-1.064232,2.319634,-0.005423,0.874417,-0.485145,2.889344,-1.8413680000000001,-0.32472199999999996,-0.6224770000000001,0.718784,0.29291500000000004
508,-0.043959,-1.0143469999999999,2.3112630000000003,-0.023211000000000002,0.8491360000000001,-0.5276649999999999,2.224021,-0.859707,-0.150097,-0.7330760000000001,0.320756,0.22644099999999998
509,-0.036188,-0.980002,2.3230630000000003,-0.020153,0.830499,-0.556656,1.418091,0.364658,0.45693199999999995,-0.383915,0.044196,0.057572000000000005
510,0.001413,-0.9602219999999999,2.345484,0.00081,0.819319,-0.573338,0.8479129999999999,1.208338,0.689013,-0.203706,-0.058592,0.079685
511,0.050905,-0.945799,2.371083,0.029772000000000003,0.8109649999999999,-0.584337,0.613043,1.4762790000000001,0.753259,-0.070101,0.125986,0.093401
512,0.094274,-0.938557,2.393075,0.055629,0.806706,-0.588329,0.089149,1.104689,0.6272310000000001,0.028188,0.193157,0.119747
513,0.127826,-0.944802,2.413093,0.07468999999999999,0.810381,-0.581123,-0.673502,0.789301,0.505871,0.016359000000000002,-0.009156999999999998,0.13941199999999998
514,0.164101,-0.965968,2.436061,0.09289299999999999,0.8226,-0.5609810000000001,-1.40045,0.954757,0.518741,-0.037153,-0.241362,0.175788
515,0.210155,-0.9986780000000001,2.465663,0.112945,0.840756,-0.529502,-1.967071,1.107186,0.4537,-0.034942,-0.44831499999999996,0.146797
516,0.253189,-1.042144,2.49091,0.126341,0.8634870000000001,-0.48828999999999995,-2.42565,1.052491,-0.122001,0.027025,-0.615242,0.11878299999999999
517,0.27693,-1.09702,2.4930689999999998,0.12474,0.8898520000000001,-0.438866,-2.799302,1.128469,-0.948307,-0.016876,-0.64684,-0.028464999999999997
518,0.284438,-1.1604379999999999,2.476163,0.111949,0.9169780000000001,-0.382909,-2.978054,1.086975,-1.338335,0.066914,-0.5400550000000001,-0.12266099999999999
519,0.2694,-1.221752,2.446128,0.09102400000000001,0.9397,-0.329665,-2.623062,0.288995,-1.359408,0.12461300000000002,0.027676999999999997,-0.160127
520,0.220791,-1.272375,2.3971880000000003,0.064389,0.955802,-0.286875,-2.0525349999999998,-0.25304899999999997,-1.366479,-0.13255,0.669397,-0.292013
521,0.174118,-1.310466,2.354953,0.044592,0.966305,-0.253508,-1.562403,-0.303799,-0.556483,-0.357183,0.9326059999999999,-0.26269699999999996
522,0.162733,-1.331811,2.35376,0.038352,0.9715790000000001,-0.23359000000000002,-0.733692,-0.6567149999999999,-0.13256700000000002,-0.61605,0.263437,-0.06342300000000001
523,0.140819,-1.3424719999999999,2.3456799999999998,0.031769,0.9740469999999999,-0.22410500000000003,-0.493432,-0.6711550000000001,-0.192827,-0.448791,-0.402926,0.032485
524,0.134184,-1.354148,2.341688,0.028756999999999998,0.9766229999999999,-0.21302600000000002,-0.568142,0.384342,-0.080402,0.05155,-0.391296,0.42481800000000003
525,0.166167,-1.362941,2.345561,0.034133,0.978476,-0.203519,-0.400814,1.8481990000000001,-0.000992,0.32959099999999997,-0.297873,0.8264290000000001
526,0.203774,-1.371193,2.3537209999999997,0.040125,0.980145,-0.194178,-0.458021,1.031161,0.041316000000000005,0.20252,-0.30149499999999996,0.23031100000000002
527,0.23592399999999997,-1.3785690000000002,2.3791599999999997,0.044655,0.9815809999999999,-0.185753,-0.222239,0.25306300000000004,0.214875,0.222648,-0.292525,-0.09209400000000001
528,0.28437199999999996,-1.370048,2.4149529999999997,0.05594299999999999,0.9799180000000001,-0.191394,0.58498,0.762245,0.5851930000000001,0.439708,-0.19021400000000002,-0.137478
529,0.33103899999999997,-1.354259,2.454809,0.069832,0.9766469999999999,-0.203184,0.649841,0.188148,0.773321,0.39933,0.210975,-0.119478
530,0.376988,-1.334274,2.510002,0.086259,0.972159,-0.21786799999999998,0.682856,-0.83216,0.9543200000000001,0.318495,0.400537,-0.263241
531,0.408692,-1.3201690000000001,2.562484,0.098562,0.968757,-0.227586,0.21659099999999998,-0.813704,0.739532,0.108759,0.430291,-0.18795699999999999
532,0.433404,-1.31436,2.5991169999999997,0.106517,0.9673,-0.230185,0.117298,-0.41587399999999997,0.439226,0.222264,0.520646,-0.052744000000000006
533,0.43578500000000003,-1.306476,2.60889,0.11028099999999999,0.9652700000000001,-0.236837,0.38214499999999996,-0.36892600000000003,0.191052,0.218683,0.13559000000000002,-0.079203
534,0.415087,-1.298347,2.5978689999999998,0.108516,0.9631149999999999,-0.24624000000000001,0.414338,-0.59911,-0.081893,0.10463399999999999,-0.152583,-0.061529999999999994
535,0.37402399999999997,-1.293677,2.571186,0.099959,0.9618469999999999,-0.25467199999999995,0.308738,-0.8225950000000001,-0.312012,0.146517,-0.25200900000000004,-0.190686
536,0.328379,-1.294733,2.540762,0.087906,0.9621360000000001,-0.25800500000000004,-0.019338,-0.8644879999999999,-0.473415,0.254653,-0.21756799999999998,-0.27919499999999997
537,0.275617,-1.299513,2.505773,0.072925,0.9634280000000001,-0.25785399999999997,-0.11227999999999999,-0.9438489999999999,-0.526305,0.46479499999999996,-0.13425,-0.24339699999999997
538,0.22440500000000002,-1.305075,2.473435,0.058437,0.9649030000000001,-0.256021,-0.176495,-1.133617,-0.433575,0.557347,-0.048383999999999996,-0.173987
539,0.175458,-1.308273,2.451833,0.045301,0.9657379999999999,-0.25553400000000004,-0.038469,-1.5599379999999998,-0.234444,0.530367,0.012564,-0.066885
540,0.12439000000000001,-1.306635,2.4399900000000003,0.032395,0.9653120000000001,-0.25908200000000003,0.19029200000000002,-2.271831,-0.09413300000000001,0.383728,0.023702,0.040561
541,0.063546,-1.2981530000000001,2.431124,0.0171,0.9630620000000001,-0.268735,0.617037,-2.751616,-0.09481,0.279149,-0.043751,0.110654
542,-0.006692,-1.2785819999999999,2.41777,-0.001928,0.957608,-0.288067,1.203327,-2.9853959999999997,-0.21539699999999998,0.23464000000000002,-0.108609,0.261654
543,-0.087226,-1.247326,2.4022080000000003,-0.02769,0.9481379999999999,-0.31665,1.770536,-3.426847,-0.333715,0.11390299999999999,-0.1263,0.281891
544,-0.171129,-1.2060620000000002,2.388545,-0.060744000000000006,0.934219,-0.351491,2.355419,-3.4689959999999997,-0.42358199999999996,-0.15886,0.008790000000000001,0.234639
545,-0.22925500000000001,-1.156583,2.392557,-0.091462,0.9154329999999999,-0.39194,2.425565,-2.79713,-0.403656,-0.37801999999999997,0.30194299999999996,0.21481599999999998
546,-0.26222199999999996,-1.110162,2.401798,-0.115231,0.8957709999999999,-0.429321,2.191708,-1.5896270000000001,-0.337403,-0.567615,0.491802,0.168731
547,-0.26409099999999996,-1.072352,2.416985,-0.12478900000000001,0.8783270000000001,-0.46148599999999995,1.718274,-0.252379,-0.009138,-0.6256229999999999,0.188033,0.058516
548,-0.22811199999999998,-1.047722,2.443477,-0.11296700000000001,0.866287,-0.486605,1.133273,1.1685299999999998,0.539362,-0.5453279999999999,0.065445,0.028825999999999997
549,-0.159968,-1.033612,2.4797540000000002,-0.08151,0.8591530000000001,-0.5051859999999999,0.736042,2.099772,0.835565,-0.37073,0.051125,0.012037
550,-0.088095,-1.024883,2.518977,-0.04568,0.8546530000000001,-0.5171859999999999,0.462408,1.694121,1.017907,0.0027719999999999997,0.258872,0.073765
551,-0.023962,-1.021762,2.562912,-0.012504000000000001,0.853029,-0.521714,0.011129,1.152794,1.184228,0.018974,0.314467,0.031861
552,0.032115,-1.0320639999999999,2.608483,0.016474000000000003,0.85836,-0.512784,-0.8530200000000001,0.657369,1.152121,0.165655,0.206963,-0.098148
553,0.081261,-1.056794,2.654673,0.03991,0.870784,-0.490044,-1.524556,0.41738000000000003,1.011005,0.214927,-0.200007,0.067345
554,0.123341,-1.090265,2.694577,0.056870000000000004,0.88675,-0.45873800000000003,-1.868098,0.278408,0.6317020000000001,0.14813199999999999,-0.291962,0.12449500000000001
555,0.14743699999999998,-1.127674,2.71876,0.062987,0.903417,-0.42411099999999996,-1.922146,0.019926,0.051611000000000004,0.052141,-0.418203,0.183632
556,0.14255299999999999,-1.165724,2.716816,0.055987999999999996,0.919074,-0.390088,-1.860084,-0.263523,-0.512682,-0.055546000000000005,-0.43842200000000003,0.096067
557,0.106242,-1.2053909999999999,2.687345,0.037892,0.9339790000000001,-0.355313,-1.932973,-0.550154,-0.9636129999999999,-0.085988,-0.43664899999999995,0.006954999999999999
558,0.036004,-1.246869,2.625968,0.011457,0.947993,-0.31808600000000004,-2.031151,-0.633763,-1.281454,-0.132597,-0.399622,-0.08029
559,-0.058741999999999996,-1.2867709999999999,2.539643,-0.016451,0.959935,-0.27973899999999996,-1.9729009999999998,-0.625859,-1.17744,-0.18137899999999998,-0.197545,-0.246079
560,-0.147668,-1.321467,2.4608790000000003,-0.036305000000000004,0.9690780000000001,-0.24406799999999998,-1.693617,-0.635314,-0.654184,-0.18720499999999998,0.136024,-0.37495
561,-0.208486,-1.34313,2.408139,-0.046716,0.974196,-0.220817,-0.778388,-0.333067,-0.309552,-0.131461,0.475145,-0.358971
562,-0.219902,-1.342128,2.3957610000000003,-0.049447000000000005,0.9739690000000001,-0.221221,0.47616,0.33917800000000004,-0.079461,-0.059501,0.5061180000000001,-0.41061499999999995
563,-0.169356,-1.3239530000000002,2.430966,-0.041184,0.9696889999999999,-0.24084899999999998,1.162972,1.046259,0.455337,0.029617,0.235695,-0.44923
564,-0.077862,-1.307431,2.495859,-0.020249,0.965519,-0.25954299999999997,0.617769,1.625209,0.801164,0.027742000000000003,-0.19755999999999999,-0.28478400000000004
565,0.020681,-1.303484,2.564434,0.005462,0.964484,-0.26408400000000004,0.128609,1.6158299999999999,0.906718,0.219437,-0.486732,-0.139939
566,0.10958599999999999,-1.294278,2.622757,0.029858,0.9620120000000001,-0.27137,0.624271,1.538274,0.691294,0.10152,-0.23596799999999998,0.106423
567,0.136642,-1.279333,2.643436,0.039143,0.957825,-0.284675,0.66561,-0.6990029999999999,0.173157,0.301205,0.060501,0.146721
568,0.077851,-1.274645,2.610156,0.022697,0.956467,-0.290958,-0.043051,-1.256129,-0.812775,0.400963,-0.0008699999999999999,0.550265
569,-0.0025859999999999998,-1.2818450000000001,2.548788,-0.000737,0.958543,-0.284946,-0.305475,-1.20215,-0.76661,0.46021000000000006,-0.058702,0.988849
570,-0.050046,-1.290409,2.528467,-0.013843000000000001,0.9609479999999999,-0.276381,-0.509861,-1.370357,-0.08416,0.300693,0.425374,0.333968
571,-0.08472400000000001,-1.308241,2.522532,-0.021963999999999997,0.96573,-0.25861799999999996,-1.350834,-1.44926,0.13012,0.339575,0.895552,-0.22970900000000002
572,-0.072771,-1.3523,2.553265,-0.01576,0.976224,-0.216189,-2.1593,-0.382274,0.668967,0.33231900000000003,1.709353,-0.317243
573,-0.017343,-1.369416,2.605481,-0.003469,0.979791,-0.199992,-0.282873,0.401017,0.5624979999999999,-0.344111,0.028113,0.262324
574,0.05417999999999999,-1.376957,2.6822169999999996,0.010431000000000001,0.9812719999999999,-0.19234500000000002,-0.48961000000000005,-0.598033,0.69693,-0.297739,-0.113062,0.177055
575,0.055439999999999996,-1.387422,2.701635,0.010104,0.983234,-0.182068,-0.569779,-0.9641549999999999,-0.11500899999999999,-0.011584,-0.078251,0.181473
576,0.002168,-1.4034360000000001,2.670172,0.000361,0.986028,-0.166579,-0.966517,-1.181215,-0.36746599999999996,0.12440999999999999,0.003978,0.12678399999999998
577,-0.068661,-1.42824,2.618161,-0.009747,0.989856,-0.141739,-1.397957,-0.752722,-0.322959,0.094067,-0.102802,0.09996000000000001
578,-0.15598399999999998,-1.457382,2.5364880000000003,-0.017581,0.993575,-0.11179800000000001,-1.532346,-0.091542,-0.383497,0.095401,-0.183196,0.083111
579,-0.299989,-1.485952,2.387343,-0.025042,0.996403,-0.080958,-1.573888,0.376347,-0.40575100000000003,0.09550700000000001,-0.139042,0.094904
580,-0.589332,-1.509525,2.087945,-0.034033,0.998123,-0.050903,-1.445953,0.449982,-0.549162,0.149588,-0.08125299999999999,0.08706699999999999
581,-1.071222,-1.5165620000000002,1.5992709999999999,-0.047583,0.9985299999999999,-0.025968,-1.152762,0.194141,-0.759362,0.220084,-0.069971,0.075392
582,-1.481691,-1.507306,1.185311,-0.063196,0.997985,-0.005646,-0.973506,0.180804,-0.776253,0.18403,-0.10321,-0.007690000000000001
583,-1.7318419999999999,-1.491616,0.928616,-0.078074,0.9968670000000001,0.012683,-0.908063,0.30609899999999995,-0.7310909999999999,0.19192,-0.095851,-0.106769
584,-1.865231,-1.474637,0.789984,-0.091879,0.9953799999999999,0.027862,-0.684952,0.18035199999999998,-0.6471180000000001,0.133429,0.00436,-0.257232
585,-1.918811,-1.460494,0.735809,-0.103479,0.993923,0.03754,-0.36848400000000003,-0.049109,-0.548474,0.180475,0.075642,-0.346821
586,-1.908759,-1.4502629999999999,0.7474609999999999,-0.11344000000000001,0.9927450000000001,0.039868,0.074688,-0.13717200000000002,-0.48865,0.30486199999999997,0.09554299999999999,-0.285931
587,-1.8437580000000002,-1.4435870000000002,0.817443,-0.12217,0.99192,0.034201,0.405538,-0.284528,-0.42205600000000004,0.48423,0.07839299999999999,-0.229438
588,-1.779019,-1.438634,0.892058,-0.128932,0.9912790000000001,0.027241,0.40475500000000003,-0.590684,-0.315916,0.5991310000000001,0.12773900000000002,-0.24512199999999998
589,-1.708178,-1.434862,0.9791850000000001,-0.13424,0.990775,0.018559,0.697641,-0.8997370000000001,-0.272881,0.608956,0.20180599999999999,-0.13997300000000001
590,-1.554207,-1.432167,1.1579629999999999,-0.138167,0.9904059999999999,-0.002292,1.555164,-1.306967,-0.143524,0.650893,0.320949,-0.028789999999999996
591,-1.306834,-1.4291690000000001,1.442109,-0.136265,0.9899879999999999,-0.036828,2.2095380000000002,-1.975734,0.297738,0.48611899999999997,0.244815,0.057809000000000006
592,-0.9972989999999999,-1.418051,1.8003209999999998,-0.12780899999999998,0.9883569999999999,-0.082553,2.8395770000000002,-2.389703,0.71073,0.257631,-0.069931,0.199909
593,-0.6966439999999999,-1.388754,2.159096,-0.11616300000000002,0.983476,-0.138856,3.3669510000000002,-2.767569,0.9755450000000001,0.026548000000000002,0.026656,0.14335799999999999
594,-0.475634,-1.341898,2.438231,-0.1039,0.973917,-0.201719,3.520279,-2.425777,1.149229,-0.104672,0.458471,0.013059000000000001
595,-0.329444,-1.2871700000000001,2.627798,-0.090533,0.960047,-0.26479,3.365451,-1.3648959999999999,1.050649,-0.14462,1.128256,0.264119
596,-0.22918000000000002,-1.234967,2.741836,-0.07486699999999999,0.9441370000000001,-0.32093499999999997,2.7231650000000003,-0.001008,0.9910030000000001,-0.082359,0.984024,0.30387600000000003
597,-0.13589400000000001,-1.193353,2.838466,-0.049929,0.92961,-0.365147,2.161499,0.116271,1.452675,0.325732,0.31855900000000004,0.0045969999999999995
598,-0.048743,-1.158708,2.937782,-0.019515,0.916286,-0.400048,1.7303950000000001,-0.600059,1.941963,0.438933,0.268818,0.081139
599,0.018425,-1.130168,3.0456529999999997,0.007858,0.9044840000000001,-0.426436,1.319803,-2.072413,2.3330189999999997,0.41243,0.253918,0.157942
600,0.064457,-1.10523,-3.121716,0.028916000000000004,0.893567,-0.44799700000000003,1.083477,-3.235344,2.716351,0.373031,0.266391,0.26374699999999995
601,0.092474,-1.080534,-3.0089919999999997,0.04348,0.882209,-0.468846,0.9640040000000001,-3.8362839999999996,2.584895,0.1119,-0.09217,0.396336
602,0.090835,-1.061844,-2.913361,0.0442,0.8732559999999999,-0.485254,0.531237,-4.544027,2.261244,0.08249400000000001,-0.161433,0.458795
603,0.068834,-1.053975,-2.826909,0.033985,0.869394,-0.49294899999999997,0.048797,-4.992291000000001,2.092874,0.10184800000000001,-0.22938000000000003,0.504683
604,0.039996,-1.055612,-2.7465450000000002,0.019701,0.870202,-0.49230100000000004,-0.318818,-4.844293,1.897837,0.132002,-0.334878,0.48593800000000004
605,0.009364,-1.063822,-2.676113,0.004547,0.874218,-0.48551300000000003,-0.513062,-4.452497,1.590467,0.11726400000000001,-0.351451,0.45758999999999994
606,-0.022912000000000002,-1.075344,-2.615771,-0.010892,0.879754,-0.47530500000000003,-0.5812890000000001,-4.151105,1.403733,0.047345,-0.250023,0.412454
607,-0.051334000000000005,-1.087924,-2.559016,-0.023825,0.8856649999999999,-0.463713,-0.587892,-3.780129,1.34446,0.049124,-0.12898199999999999,0.366591
608,-0.070086,-1.102837,-2.500858,-0.031588,0.892491,-0.44995799999999997,-0.720759,-3.369788,1.4070989999999999,0.003618,-0.043675,0.355979
609,-0.07456499999999999,-1.121493,-2.437073,-0.032357,0.90075,-0.43313100000000004,-0.87702,-2.902002,1.510094,-0.0774,0.052801999999999995,0.335444
610,-0.063277,-1.142206,-2.368522,-0.02628,0.9095530000000001,-0.414757,-0.9691850000000001,-2.282752,1.508657,-0.217937,0.158547,0.23639699999999997
611,-0.036566,-1.1647379999999998,-2.300049,-0.01444,0.9186850000000001,-0.394727,-1.104047,-1.520245,1.417007,-0.282267,0.169938,0.180723
612,0.004033,-1.187876,-2.230307,0.001507,0.9275770000000001,-0.373628,-1.119442,-1.01589,1.310499,-0.34460100000000005,0.167576,0.124635
613,0.051275,-1.208652,-2.161537,0.018158,0.9351389999999999,-0.353815,-1.054762,-0.75356,1.186701,-0.167938,0.012218000000000001,-0.162481
614,0.104931,-1.2271020000000001,-2.09058,0.035293,0.941516,-0.335115,-0.9683870000000001,-0.596979,1.1155329999999999,-0.054412999999999996,-0.105426,-0.27673200000000003
615,0.153481,-1.239795,-2.027674,0.049684,0.945717,-0.32116999999999996,-0.602851,-0.5150100000000001,0.813538,0.127898,-0.21566100000000002,-0.38662399999999997
616,0.174494,-1.243967,-1.99247,0.055736,0.9470649999999999,-0.31616700000000003,-0.134535,-0.7491479999999999,0.352433,0.367726,-0.26724000000000003,-0.466945
617,0.157025,-1.242509,-1.985196,0.050421,0.9465959999999999,-0.318456,0.129052,-1.533868,0.027335,0.454172,-0.27858099999999997,-0.43204799999999993
618,0.121544,-1.241191,-1.985359,0.039243,0.9461700000000001,-0.321281,-0.032902,-1.7261090000000001,0.024314,0.559512,-0.30737600000000004,-0.2127
619,0.104577,-1.246528,-1.9768569999999999,0.033259,0.9478840000000001,-0.316875,-0.412121,-0.953131,0.18945399999999998,0.30924,-0.136345,-0.116047
620,0.12518900000000002,-1.257379,-1.9460119999999999,0.038495999999999996,0.9512860000000001,-0.305898,-0.716217,-0.120504,0.5547989999999999,0.32806599999999997,0.561883,-0.039179000000000005
621,0.135818,-1.274008,-1.938981,0.039598,0.9562809999999999,-0.289758,-0.9638629999999999,0.384517,-0.580962,0.8140850000000001,2.389148,0.50039
622,0.119529,-1.3065120000000001,-1.981702,0.031149,0.9652799999999999,-0.259354,-1.583708,1.7728709999999999,-0.385177,0.288416,1.837867,0.942292
623,0.19611800000000001,-1.3190870000000001,-1.925923,0.048533,0.9684879999999999,-0.244285,-0.38144,0.37351100000000004,0.8652200000000001,-0.485209,-0.43116499999999996,0.22583699999999998
624,0.253763,-1.32569,-1.8523610000000001,0.06091900000000001,0.9701110000000001,-0.234888,-0.754104,-1.252406,0.732241,-0.166602,-0.771579,0.132044
625,0.28070100000000003,-1.3450389999999999,-1.787853,0.062011000000000004,0.974625,-0.215083,-1.263201,-1.9594490000000002,0.300166,-0.116256,-0.786209,0.190089
626,0.263409,-1.367082,-1.766702,0.052676,0.9793219999999999,-0.19533,-0.9833940000000001,-1.8172599999999999,-0.33472199999999996,-0.107653,-0.658582,0.24049600000000002
627,0.16306600000000002,-1.385742,-1.8334689999999998,0.029870999999999998,0.982926,-0.181559,-0.666921,-1.711984,-1.0942889999999998,-0.151286,-0.398545,0.221156
628,-0.018604,-1.396671,-1.985512,-0.0032229999999999997,0.984878,-0.173217,-0.296953,-1.4952450000000002,-1.536362,-0.032330000000000005,0.23016399999999998,0.290435
629,-0.229861,-1.3954520000000001,-2.174477,-0.039747000000000005,0.984667,-0.16985899999999998,-0.133599,-1.071521,-1.613744,0.115354,1.050017,0.268858
630,-0.369866,-1.398048,-2.305455,-0.062137,0.985116,-0.16026600000000002,-0.678528,-0.223676,-0.581394,0.20813299999999998,0.466391,0.07435900000000001
631,-0.39663899999999996,-1.4157899999999999,-2.3412990000000002,-0.059641999999999994,0.9880110000000001,-0.1424,-1.05046,0.785936,0.33979499999999996,0.157589,-0.175923,-0.13918599999999998
632,-0.36979,-1.440164,-2.332393,-0.047079,0.9914799999999999,-0.121456,-1.082425,0.786194,0.569239,0.170828,-0.288446,-0.088047
633,-0.331325,-1.4611180000000001,-2.300443,-0.035607,0.993991,-0.103506,-0.8155140000000001,0.048365,0.502614,0.24005900000000002,-0.258029,-0.019267
634,-0.30859200000000003,-1.4771889999999999,-2.268583,-0.028388999999999998,0.9956219999999999,-0.089055,-0.673293,-0.7525689999999999,0.341196,0.249138,-0.20514000000000002,-0.020259
635,-0.328542,-1.491161,-2.26488,-0.025668,0.9968309999999999,-0.075296,-0.664767,-1.3974790000000001,0.172235,0.24347199999999997,-0.124333,0.027368
636,-0.403854,-1.505113,-2.308565,-0.025792000000000002,0.9978440000000001,-0.06035499999999999,-0.7358359999999999,-1.6429080000000003,0.07164,0.229253,-0.096278,0.048225
637,-0.5367460000000001,-1.5190860000000002,-2.4111990000000003,-0.026430000000000002,0.998663,-0.044419,-0.764333,-1.377391,0.030507999999999997,0.140474,-0.032248,0.069337
638,-0.756828,-1.531064,-2.611815,-0.027274,0.9992110000000001,-0.028879000000000002,-0.7398560000000001,-0.735951,-0.026757999999999997,0.095283,-0.018512999999999998,0.02688
639,-1.134607,-1.5387540000000002,-2.9811799999999997,-0.029037,0.9994870000000001,-0.013535,-0.773737,-0.290198,-0.11409200000000001,0.036483999999999996,0.036173000000000004,-0.151595
640,-1.6511310000000001,-1.537868,2.789072,-0.032816000000000005,0.999458,0.0026420000000000003,-0.812128,-0.168142,-0.234158,0.070414,-0.005850999999999999,-0.196017
641,-2.00583,-1.5277,2.43819,-0.039070999999999995,0.9990709999999999,0.018157,-0.714885,-0.25322100000000003,-0.354078,0.115227,-0.018603,-0.199249
642,-2.146593,-1.515182,2.3006029999999997,-0.046622000000000004,0.9984540000000001,0.030266,-0.522035,-0.09932200000000001,-0.379634,0.21709299999999998,0.018315,-0.097039
643,-2.182636,-1.506042,2.268453,-0.05297,0.9979040000000001,0.037167,-0.227343,-0.217802,-0.310126,0.22231199999999998,0.124975,-0.085538
644,-2.159956,-1.5016610000000001,2.299937,-0.057433000000000005,0.997611,0.038385,0.066929,-0.617712,-0.19112200000000001,0.162276,0.13126500000000002,-0.13595
645,-2.103811,-1.50213,2.3715029999999997,-0.059095,0.9976430000000001,0.034865,0.35141,-0.806726,-0.056433000000000004,0.158155,0.130531,-0.066313
646,-1.90562,-1.510102,2.5904540000000003,-0.057289,0.998159,0.019932,1.148959,-1.203342,0.134449,0.285668,0.17425,0.117504
647,-1.3523370000000001,-1.51678,-3.113178,-0.052705999999999996,0.998541,-0.011701000000000001,1.8636490000000001,-1.3098049999999999,0.297674,0.361269,0.28879699999999997,-0.0072959999999999995
648,-0.689973,-1.503968,-2.417059,-0.042506,0.997768,-0.051503999999999994,2.2446349999999997,-1.8135119999999998,0.723997,0.135294,0.22432399999999997,-0.133799
649,-0.278143,-1.463306,-1.966707,-0.029457,0.9942290000000001,-0.10315999999999999,2.925679,-1.8981970000000001,0.798297,-0.020363,0.106724,0.042537
650,-0.117619,-1.402858,-1.7648490000000001,-0.019615,0.985931,-0.165996,3.3641550000000002,-1.9347470000000002,0.767224,-0.132302,0.207947,0.222743
651,-0.048505,-1.335545,-1.65867,-0.011302,0.972456,-0.23281300000000002,3.487072,-1.645428,0.769848,-0.171163,0.522097,0.224573
652,-0.015068999999999999,-1.268312,-1.598496,-0.004489,0.954599,-0.297858,3.233268,-0.804565,0.63347,-0.122617,0.725637,0.347602
653,0.025058,-1.2115719999999999,-1.554698,0.008808,0.9361700000000001,-0.35143800000000003,2.603592,0.30893000000000004,0.842357,0.058086,0.421176,0.191236
654,0.084372,-1.165497,-1.499568,0.033228,0.918985,-0.392891,2.006752,0.25883,1.367022,0.319418,0.375296,-0.00898
655,0.142468,-1.1294030000000002,-1.430807,0.060657,0.904157,-0.422872,1.431798,-0.541719,1.730432,0.274991,0.289523,0.04215
656,0.19204100000000002,-1.09838,-1.3533,0.08685,0.8904709999999999,-0.44667399999999996,1.189411,-1.229215,2.038336,0.167438,0.241304,0.10109299999999999
657,0.223476,-1.0675649999999999,-1.280093,0.106878,0.8760290000000001,-0.47026599999999996,1.095741,-2.005024,1.925445,-0.038015,-0.052375,0.23070300000000002
658,0.22381399999999999,-1.041824,-1.218809,0.112006,0.863326,-0.49206000000000005,0.7862439999999999,-2.9862,1.675644,-0.13178099999999998,-0.21847399999999997,0.37699299999999997
659,0.20472200000000002,-1.024427,-1.1648180000000001,0.10563,0.854417,-0.508738,0.413166,-3.361154,1.460943,-0.14156400000000002,-0.267137,0.41582700000000006
660,0.179774,-1.01565,-1.116357,0.094243,0.849823,-0.518574,0.044451,-3.2301580000000003,1.256305,-0.144308,-0.43135100000000004,0.395283
661,0.156243,-1.015794,-1.074263,0.081997,0.849899,-0.520526,-0.330992,-2.770736,0.9774930000000001,-0.127529,-0.46488900000000005,0.34770500000000004
662,0.13533900000000001,-1.024734,-1.043022,0.07007100000000001,0.854576,-0.5145770000000001,-0.691516,-2.1576459999999997,0.618471,-0.119067,-0.42479700000000004,0.263265
663,0.11720499999999999,-1.0405229999999999,-1.0213709999999998,0.059142999999999994,0.862669,-0.5022989999999999,-0.9388639999999999,-1.6498009999999999,0.373606,-0.078567,-0.360197,0.17219
664,0.10523099999999999,-1.060645,-1.004434,0.051289999999999995,0.8726709999999999,-0.485608,-1.098342,-1.139689,0.28424499999999997,-0.06435199999999999,-0.36762,0.138791
665,0.10273900000000001,-1.083245,-0.9882639999999999,0.048045,0.883483,-0.46599399999999996,-1.199517,-0.653455,0.255141,-0.087077,-0.342375,0.1359
666,0.10819400000000001,-1.107615,-0.97439,0.048246,0.8946360000000001,-0.444184,-1.272561,-0.15848199999999998,0.147174,-0.135969,-0.35734299999999997,0.151673
667,0.12053599999999999,-1.1339569999999999,-0.9634459999999999,0.050873,0.906093,-0.420008,-1.38428,0.291825,0.05395,-0.147171,-0.366833,0.141291
668,0.139375,-1.163533,-0.9541139999999999,0.055027,0.918208,-0.392257,-1.552075,0.615534,-0.033095,-0.143986,-0.30796399999999996,0.110473
669,0.157487,-1.19502,-0.946965,0.057558000000000005,0.9302229999999999,-0.362453,-1.557491,0.483916,-0.147264,-0.104296,-0.22377199999999997,0.094387
670,0.160646,-1.223841,-0.948274,0.054390999999999995,0.940412,-0.335658,-1.313282,0.057617999999999996,-0.311654,-0.062325,-0.179624,0.11626700000000001
671,0.146035,-1.246633,-0.959907,0.046349,0.947917,-0.315126,-0.9636239999999999,-0.310856,-0.37924,0.015372,-0.14995899999999998,0.110795
672,0.121144,-1.2624799999999998,-0.976564,0.036672,0.9528459999999999,-0.30123099999999997,-0.633808,-0.480459,-0.342536,0.008937,-0.132625,0.056419000000000004
673,0.102109,-1.274378,-0.9894809999999999,0.029774000000000002,0.9563889999999999,-0.290576,-0.5873189999999999,-0.197847,-0.195159,-0.044896,-0.13955499999999998,0.006335
674,0.104077,-1.289018,-0.991841,0.028888,0.960562,-0.27656,-0.809728,0.5193939999999999,-0.080127,-0.12326400000000001,-0.051474,-0.025244
675,0.129158,-1.306994,-0.987181,0.033585000000000004,0.965406,-0.258581,-0.9397979999999999,1.307926,-0.024362,-0.219467,0.007647,-0.020441
676,0.172551,-1.326185,-0.9755030000000001,0.041581,0.970231,-0.238583,-0.991822,1.649866,0.023975,-0.320726,0.0043170000000000005,-0.078479
677,0.219815,-1.34755,-0.952976,0.048275,0.975184,-0.216069,-1.1773959999999999,0.979281,0.050243,-0.45603599999999994,0.321432,-0.033412
678,0.25477,-1.369368,-0.9304389999999999,0.050422,0.9797819999999999,-0.19361099999999998,-1.0028059999999999,0.493566,-0.113489,-0.151923,1.0100559999999998,0.331886
679,0.25497,-1.3809639999999999,-0.9355559999999999,0.047592,0.982036,-0.182594,-0.233529,0.202456,-0.175041,0.42794799999999994,0.169926,0.485863
680,0.257873,-1.3807770000000001,-0.9361700000000001,0.048169,0.982001,-0.182633,0.062807,0.172658,0.093055,0.470325,-0.134649,0.124954
681,0.286428,-1.3801809999999999,-0.910752,0.05352899999999999,0.9818879999999999,-0.18174500000000002,-0.13869700000000001,0.20754099999999998,0.33515700000000004,0.541122,-0.077713,-0.002078
682,0.36283899999999997,-1.384594,-0.838007,0.065707,0.982714,-0.173075,-0.609483,0.29284699999999997,0.7216600000000001,0.257657,0.250165,-0.187414
683,0.476574,-1.3871870000000002,-0.727961,0.083756,0.983191,-0.162235,-0.329991,0.225113,0.9010239999999999,0.164703,0.6491939999999999,-0.47527700000000006
684,0.592566,-1.375432,-0.621146,0.10841700000000001,0.9809770000000001,-0.161028,0.1208,0.9274969999999999,1.483317,0.237729,0.745265,-0.018202
685,0.708767,-1.3553950000000001,-0.509849,0.139123,0.976891,-0.16226400000000002,0.12503499999999998,-0.272106,1.239193,0.064933,-0.16021,0.133745
686,0.718205,-1.344109,-0.481129,0.147894,0.974416,-0.169235,0.21715399999999999,-1.1559139999999999,0.268887,0.037821,-0.344122,0.186935
687,0.6768350000000001,-1.343409,-0.49604,0.14119500000000001,0.974259,-0.175738,0.095639,-1.418631,-0.259326,0.059199,-0.376709,0.22005
688,0.619896,-1.347921,-0.525442,0.128411,0.975266,-0.17990899999999999,-0.051418,-1.3607799999999999,-0.47941300000000003,0.004799,-0.32603499999999996,0.201241
689,0.568322,-1.357652,-0.5555829999999999,0.113851,0.9773709999999999,-0.178282,-0.31893699999999997,-0.904658,-0.559847,-0.150503,-0.245513,0.081419
690,0.534592,-1.369437,-0.578954,0.101899,0.9797959999999999,-0.172097,-0.36488000000000004,-0.341383,-0.456204,-0.130601,-0.10153,-0.085426
691,0.518463,-1.377207,-0.596276,0.095334,0.9813200000000001,-0.1671,-0.17606,0.292206,-0.29119,-0.08881900000000001,-0.115323,-0.178374
692,0.503726,-1.3805129999999999,-0.621369,0.091295,0.981951,-0.16564500000000001,0.098087,0.511796,-0.298103,-0.032823000000000005,-0.19856400000000002,-0.117024
693,0.47322600000000004,-1.3774110000000002,-0.660662,0.087589,0.981359,-0.171062,0.407403,0.339936,-0.2124,0.122342,-0.263006,0.014766
694,0.44797600000000004,-1.36981,-0.6906869999999999,0.086471,0.97987,-0.17993699999999999,0.49597299999999994,0.077795,-0.002074,0.200501,-0.24775300000000003,0.026387999999999998
695,0.432892,-1.359815,-0.7004630000000001,0.087851,0.977826,-0.190102,0.480858,-0.49174399999999996,0.18121600000000002,0.220621,-0.22463699999999998,0.07238
696,0.413337,-1.347343,-0.705063,0.089009,0.975138,-0.20293699999999998,0.684945,-0.86649,0.21303200000000003,0.238094,-0.177195,0.009470999999999999
697,0.383783,-1.330884,-0.715685,0.08897100000000001,0.971359,-0.22033200000000003,0.8798549999999999,-0.979929,0.17394600000000002,0.319918,-0.164215,0.042354
698,0.33773200000000003,-1.311428,-0.7395470000000001,0.084981,0.9665520000000001,-0.241981,1.0969959999999999,-1.2782129999999998,-0.012162000000000001,0.405376,-0.209152,0.10678800000000001
699,0.272813,-1.285008,-0.778243,0.075959,0.95944,-0.271487,1.6515540000000002,-1.425697,-0.10744400000000001,0.306975,-0.073041,0.220584
700,0.20955500000000002,-1.242896,-0.81302,0.066996,0.9467209999999999,-0.315011,2.497463,-1.527318,0.063101,0.087103,0.286434,0.092309
701,0.164141,-1.182575,-0.833038,0.061855999999999994,0.925584,-0.373454,3.3335550000000005,-1.147619,0.288509,-0.160611,0.773207,-0.116185
702,0.134102,-1.1107420000000001,-0.843217,0.059363,0.896028,-0.44001,3.6250379999999995,-1.054003,0.33422199999999996,-0.401465,0.756422,-0.083473
703,0.10990599999999999,-1.042633,-0.848275,0.055275,0.863734,-0.500907,3.1919470000000003,-0.854142,0.27966599999999997,-0.5891649999999999,0.5796100000000001,-0.006204
704,0.109628,-0.9879209999999999,-0.84321,0.060221000000000004,0.834883,-0.5471229999999999,2.398644,0.234105,0.5504680000000001,-0.43711400000000006,0.420534,-0.040875
705,0.137975,-0.94936,-0.824896,0.080075,0.8130430000000001,-0.576671,1.538875,0.796259,0.840708,-0.118176,0.179877,0.014552
706,0.16666199999999998,-0.923076,-0.800825,0.100094,0.797461,-0.59501,1.0385959999999999,0.175596,0.9095790000000001,0.083134,0.016717,0.06490399999999999
707,0.181275,-0.903041,-0.781675,0.11163599999999999,0.7852140000000001,-0.609078,0.786841,-0.076021,0.648565,0.12443299999999999,-0.17843299999999998,-0.00315
708,0.189091,-0.892373,-0.768352,0.117961,0.778563,-0.61638,0.173927,-0.17313800000000001,0.42542299999999994,0.041035,-0.053771000000000006,-0.047698000000000004
709,0.197354,-0.8987870000000001,-0.753382,0.12206900000000001,0.782572,-0.610475,-0.760405,-0.132524,0.402821,-0.013243000000000001,-0.066187,0.027361
710,0.214417,-0.920953,-0.731154,0.128744,0.796179,-0.591206,-1.4438030000000002,0.042158,0.46832700000000005,-0.12351,-0.151495,0.139455
711,0.23917199999999997,-0.950483,-0.702299,0.137707,0.813696,-0.564743,-1.7042279999999999,0.059946000000000006,0.508146,-0.234173,-0.24094200000000002,0.206223
712,0.262864,-0.9826379999999999,-0.6722819999999999,0.144171,0.8319639999999999,-0.535771,-1.809934,-0.12862,0.336733,-0.24501599999999998,-0.44023999999999996,0.220036
713,0.275853,-1.019266,-0.650092,0.142718,0.851723,-0.504181,-2.016148,-0.363827,-0.071398,-0.188876,-0.588906,0.21405100000000002
714,0.27720700000000004,-1.0635649999999999,-0.637777,0.132938,0.874093,-0.46721499999999994,-2.351356,-0.5189229999999999,-0.421781,-0.136051,-0.638238,0.125341
715,0.27314499999999997,-1.116352,-0.629628,0.118415,0.8985049999999999,-0.42268999999999995,-2.71781,-0.5659609999999999,-0.5951960000000001,-0.047583999999999994,-0.53704,0.069189
716,0.26748099999999997,-1.174203,-0.624496,0.102094,0.9223819999999999,-0.37254299999999996,-2.824763,-0.48741899999999994,-0.696457,-0.022428,-0.304477,0.021758
717,0.260658,-1.228819,-0.622556,0.086425,0.9420930000000001,-0.324022,-2.474702,-0.41107299999999997,-0.644971,-0.045211,-0.058427,-0.020781
718,0.25158200000000003,-1.270615,-0.625442,0.07360900000000001,0.955283,-0.286385,-1.701882,-0.235158,-0.552204,-0.051499,0.19881600000000002,-0.041464999999999995
719,0.238039,-1.295544,-0.638113,0.064087,0.962357,-0.264126,-0.849773,0.057495000000000004,-0.417372,-0.16030899999999998,0.42343100000000006,-0.051197
720,0.23190300000000003,-1.3043959999999999,-0.6519050000000001,0.060504999999999996,0.964725,-0.256213,-0.14873699999999998,0.5399109999999999,-0.187699,-0.35854,0.464581,-0.056775
721,0.246894,-1.305795,-0.6530229999999999,0.064009,0.9650920000000001,-0.253969,-0.145731,0.978874,0.05851900000000001,-0.542968,0.122966,-0.000792
722,0.293533,-1.317443,-0.637473,0.072523,0.9680770000000001,-0.239931,-0.94399,2.013245,-0.048792,-0.576368,0.07541,0.08719099999999999
723,0.363291,-1.34346,-0.61546,0.08009,0.9742700000000001,-0.210673,-1.3828770000000001,2.491541,-0.197748,-0.512067,0.38364000000000004,0.279384
724,0.42915200000000003,-1.363235,-0.596763,0.085747,0.9785360000000001,-0.187387,-0.707071,2.32208,-0.230199,-0.092629,0.082285,0.266748
725,0.469454,-1.3730209999999998,-0.59965,0.088891,0.980506,-0.175231,-0.327773,1.993624,-0.20469600000000002,0.132971,0.061776,0.037277
726,0.504129,-1.3790280000000001,-0.594102,0.092066,0.981669,-0.166884,-0.30677,1.163983,-0.009068999999999999,0.4699,0.19638599999999998,-0.093934
727,0.557372,-1.383019,-0.560641,0.09874400000000001,0.9824219999999999,-0.158422,-0.30232,0.993527,0.25609899999999997,0.689968,0.21000700000000003,-0.09284400000000001
728,0.608541,-1.381893,-0.525502,0.10735,0.9822110000000001,-0.15407200000000001,-0.062060000000000004,0.6450899999999999,0.33727199999999996,0.598842,0.095014,-0.035656
729,0.651736,-1.381406,-0.48686999999999997,0.114193,0.9821190000000001,-0.149673,-0.315299,0.058046,0.30955,0.38214499999999996,0.205533,-0.066086
730,0.709802,-1.3857979999999999,-0.42376199999999997,0.119874,0.9829370000000001,-0.13952,-0.639212,-0.29461,0.336582,0.279571,0.5860029999999999,-0.083487
731,0.788795,-1.389835,-0.338401,0.127693,0.983671,-0.126829,-0.6659079999999999,-0.15448599999999998,0.482562,0.236244,0.558397,-0.03789
732,0.877128,-1.389247,-0.247766,0.138829,0.9835649999999999,-0.11543900000000001,-0.519786,-0.035137,0.612685,0.129207,0.152772,0.05248099999999999
733,0.950111,-1.38575,-0.16938599999999998,0.149674,0.982928,-0.10700899999999999,-0.422541,-0.342915,0.5069359999999999,0.015562999999999999,-0.101122,0.07408
734,0.9840549999999999,-1.3846459999999998,-0.12292,0.154123,0.9827239999999999,-0.102468,-0.257239,-0.711717,0.151777,-0.074273,-0.219525,0.100271
735,0.982849,-1.388021,-0.10709500000000001,0.151239,0.9833430000000001,-0.100814,-0.218104,-0.8777809999999999,-0.177817,-0.104867,-0.238317,0.10871800000000001
736,0.97455,-1.396218,-0.099635,0.14372200000000002,0.9848,-0.097535,-0.33272399999999996,-0.6743,-0.34765799999999997,-0.154754,-0.181409,0.13636900000000002
737,0.9857469999999999,-1.406455,-0.080427,0.13639300000000001,0.986526,-0.090348,-0.470551,-0.201009,-0.30543000000000003,-0.167201,-0.11456300000000001,0.050141000000000005
738,1.026391,-1.415973,-0.040373,0.131913,0.9880389999999999,-0.079864,-0.531197,0.185446,-0.193117,-0.14972,-0.094423,-0.023972
739,1.0705870000000002,-1.423022,-0.002764,0.129198,0.989101,-0.070616,-0.322195,0.43385100000000004,-0.156724,-0.059709000000000005,-0.18146900000000002,-0.172502
740,1.077728,-1.426658,-0.005256,0.12653,0.9896299999999999,-0.067989,0.102747,0.487833,-0.171985,-0.057041999999999995,-0.181998,-0.175129
741,1.028414,-1.4254149999999999,-0.064478,0.124078,0.989451,-0.074779,0.559062,0.447773,-0.139904,0.149649,-0.264353,-0.120519
742,0.945264,-1.4180780000000002,-0.155747,0.123321,0.988361,-0.089074,0.881936,0.260734,0.000392,0.233796,-0.3111,-0.041632999999999996
743,0.857607,-1.403996,-0.243038,0.125564,0.9861209999999999,-0.108624,1.005551,-0.316682,0.168638,0.24102800000000002,-0.334372,-0.045505000000000004
744,0.775237,-1.3881729999999999,-0.314961,0.127106,0.9833709999999999,-0.129716,0.9870620000000001,-0.679686,0.120904,0.178222,-0.320788,-0.132872
745,0.69528,-1.3732209999999998,-0.380158,0.125745,0.9805450000000001,-0.150728,0.971671,-0.897544,0.003571,0.223406,-0.19429000000000002,-0.068861
746,0.6118319999999999,-1.357329,-0.439266,0.121679,0.977302,-0.17341900000000002,1.012627,-1.53253,-0.011353,0.35787399999999997,-0.040718,0.051028
747,0.5199239999999999,-1.3394780000000002,-0.49413999999999997,0.1139,0.9733649999999999,-0.198966,1.14786,-2.091103,-0.036398,0.42954200000000003,0.015816999999999998,0.059562000000000004
748,0.420741,-1.315182,-0.552149,0.103269,0.967508,-0.230789,1.602449,-2.144587,-0.108998,0.405993,0.111151,0.080154
749,0.32289,-1.277549,-0.608692,0.091722,0.95731,-0.274124,2.3239330000000002,-2.191306,0.026425,0.100173,0.260829,0.1279
750,0.233064,-1.2201870000000001,-0.655725,0.079328,0.9391639999999999,-0.33418400000000004,3.3774610000000003,-2.282465,0.06487899999999999,-0.208173,0.47596700000000003,0.065827
751,0.148228,-1.143191,-0.698025,0.06124400000000001,0.909961,-0.410146,4.148541000000001,-2.351285,-0.176406,-0.40626100000000004,0.690701,-0.00085
752,0.064899,-1.063748,-0.7378020000000001,0.031493,0.874182,-0.48457700000000004,3.843715,-2.2578650000000002,-0.629444,-0.5353680000000001,0.6677489999999999,0.075366
753,0.009655,-0.99949,-0.7669189999999999,0.005221,0.841195,-0.5407069999999999,2.84531,-0.961398,-0.569714,-0.5370659999999999,0.45836499999999997,0.12495
754,-0.004294,-0.9534459999999999,-0.783755,-0.0024850000000000002,0.815415,-0.578872,2.038071,0.471446,-0.414818,-0.25958400000000004,0.22161799999999998,0.035613
755,0.008973,-0.919236,-0.792028,0.005441,0.795139,-0.606403,1.5091459999999999,1.2923850000000001,-0.125804,-0.260965,0.257031,-0.094555
756,0.036282,-0.8962129999999999,-0.794802,0.022656,0.780967,-0.624161,0.94737,1.473007,-0.053047000000000004,-0.057339,0.23243000000000003,-0.24029499999999998
757,0.060637,-0.8855149999999999,-0.794301,0.038353,0.774241,-0.631728,0.25395999999999996,0.9474229999999999,0.115835,0.037712,0.002538,-0.04384
758,0.077927,-0.8898450000000001,-0.7867,0.049007999999999996,0.7769739999999999,-0.627622,-0.521602,0.416817,0.279876,-0.008954,-0.15395799999999998,0.14686300000000002
759,0.096933,-0.908494,-0.770566,0.059514,0.788578,-0.6120479999999999,-1.2210889999999999,0.26809099999999997,0.516599,-0.042210000000000004,-0.28575500000000004,0.24753000000000003
760,0.121598,-0.9379430000000001,-0.747049,0.071741,0.806343,-0.5870810000000001,-1.7084970000000002,0.327221,0.537688,-0.019831,-0.530846,0.24830500000000003
761,0.150565,-0.975009,-0.722831,0.084173,0.827707,-0.554812,-2.0396799999999997,0.542076,0.374866,-0.12369300000000001,-0.562723,0.174776
762,0.18297,-1.0172940000000001,-0.69957,0.09564600000000001,0.8506889999999999,-0.516895,-2.271827,0.690641,0.187183,-0.08321,-0.663509,0.104206
763,0.210788,-1.064378,-0.682455,0.101487,0.8744870000000001,-0.474312,-2.474328,0.606541,-0.183728,-0.043168,-0.706778,0.043938
764,0.227135,-1.116997,-0.6754020000000001,0.098718,0.8987879999999999,-0.427124,-2.653889,0.425335,-0.53299,-0.0015660000000000001,-0.705947,0.021851
765,0.23098400000000002,-1.170968,-0.675908,0.089115,0.9211280000000001,-0.378922,-2.578207,0.080296,-0.626023,0.15128699999999998,-0.35022,0.102112
766,0.23,-1.220259,-0.675484,0.078288,0.9391879999999999,-0.334359,-2.2700099999999996,-0.09903300000000001,-0.536046,0.15772,-0.045634,0.135965
767,0.22502600000000003,-1.260693,-0.680086,0.06809,0.9523020000000001,-0.297464,-1.74574,0.020482,-0.509037,0.108423,0.113357,0.109002
768,0.22316,-1.289353,-0.682801,0.061467999999999995,0.960656,-0.270855,-1.1815200000000001,0.032277999999999994,-0.218827,-0.252538,0.364082,0.040050999999999996
769,0.237538,-1.307658,-0.6678689999999999,0.061207000000000004,0.9655790000000001,-0.252808,-0.8266120000000001,-0.034954,0.035838,-0.370289,0.170026,-0.049194
770,0.250986,-1.323396,-0.6532,0.060819000000000005,0.9695520000000001,-0.23721199999999998,-0.836816,-0.004795000000000001,-0.037979,-0.504545,0.006202,-0.153703
771,0.272421,-1.340876,-0.634857,0.061320000000000006,0.973685,-0.219495,-0.9317110000000001,0.321205,0.037853,-0.609553,0.026804,-0.16304200000000002
772,0.313216,-1.357024,-0.606182,0.065367,0.9772379999999999,-0.201826,-0.754642,0.842356,0.092901,-0.484022,0.28706,-0.04117
773,0.365079,-1.364771,-0.578968,0.073037,0.978852,-0.191089,-0.306104,1.4881799999999998,0.16678199999999999,-0.302682,0.503143,0.16458499999999998
774,0.42195,-1.366221,-0.555022,0.083199,0.979147,-0.185333,-0.070435,1.740731,0.208697,-0.062477,0.418283,0.1828
775,0.472699,-1.364651,-0.541449,0.093193,0.978827,-0.18224300000000002,0.020202,1.8930490000000002,0.13435999999999998,0.145821,-0.09075,0.215629
776,0.5080560000000001,-1.362875,-0.538725,0.100422,0.978462,-0.18035299999999999,0.125306,1.406391,5.3e-05,0.162075,-0.241936,0.325754
777,0.512303,-1.362411,-0.54997,0.10141,0.978366,-0.18032,-0.045194,0.387975,-0.115201,0.278244,-0.064151,0.107734
778,0.520335,-1.369391,-0.544226,0.099457,0.9797870000000001,-0.173571,-0.47246400000000005,0.0411,-0.1124,0.503967,0.326518,-0.196959
779,0.551094,-1.381214,-0.513618,0.098675,0.982083,-0.160549,-0.749668,0.014753,0.056613,0.482196,0.357135,-0.226124
780,0.608563,-1.3923969999999999,-0.453582,0.101449,0.9841290000000001,-0.145597,-0.722166,-0.11913199999999999,0.214006,0.250342,0.321154,-0.166659
781,0.680537,-1.399535,-0.378004,0.107234,0.9853709999999999,-0.132461,-0.7016819999999999,-0.14649,0.37762199999999996,0.15949000000000002,0.46338999999999997,-0.153382
782,0.768699,-1.403529,-0.287744,0.11574300000000001,0.986043,-0.119675,-0.5548029999999999,0.08387599999999999,0.44992299999999996,0.167689,0.566508,-0.108627
783,0.8439530000000001,-1.4011129999999998,-0.21524899999999997,0.126193,0.9856379999999999,-0.11221700000000001,-0.28074899999999997,0.167683,0.56603,0.148176,0.165714,0.044498
784,0.9094389999999999,-1.39563,-0.147547,0.13752799999999998,0.984698,-0.10703599999999999,-0.256741,-0.22003000000000003,0.53358,0.005889,-0.061403,0.142497
785,0.939808,-1.3912440000000001,-0.108225,0.144201,0.983924,-0.105358,-0.062811,-0.503149,0.304561,-0.082647,-0.24159899999999998,0.159053
786,0.935442,-1.387831,-0.101511,0.14644100000000002,0.983308,-0.10797799999999999,0.10855799999999999,-0.5593819999999999,0.099664,-0.179248,-0.322328,0.112403
787,0.910057,-1.3858469999999998,-0.11863399999999999,0.14519400000000002,0.9829459999999999,-0.11285799999999999,0.23007399999999997,-0.282136,-0.073963,-0.214896,-0.354512,0.059025
788,0.8738469999999999,-1.383397,-0.15651900000000002,0.14285899999999999,0.982492,-0.11958599999999998,0.43021400000000004,0.26074899999999995,-0.1459,-0.18241,-0.352609,-0.073255
789,0.833109,-1.378549,-0.20970500000000003,0.141394,0.981577,-0.12850699999999998,0.59229,0.716119,-0.144283,-0.183508,-0.35438000000000003,-0.188891
790,0.793968,-1.3713799999999998,-0.268041,0.141271,0.980182,-0.13887,0.701338,1.027767,-0.119352,-0.142492,-0.395572,-0.104477
