,attitude.roll,attitude.pitch,attitude.yaw,gravity.x,gravity.y,gravity.z,rotationRate.x,rotationRate.y,rotationRate.z,userAcceleration.x,userAcceleration.y,userAcceleration.z
0,-0.809114,-1.410242,-1.9194650000000002,-0.115682,0.987139,-0.110321,3.489386,-1.446267,0.83225,0.16386900000000001,4.543409,0.995865
1,-0.504596,-1.384991,-1.599224,-0.08930700000000001,0.9827879999999999,-0.161705,2.439263,-0.350059,1.997486,-1.0877709999999998,2.011521,0.340325
2,-0.200415,-1.3366120000000001,-1.292276,-0.046194,0.9727040000000001,-0.227398,4.199694,0.686198,1.6014620000000002,-0.831263,1.4497659999999999,-0.226124
3,-0.069472,-1.25765,-1.1712360000000002,-0.021384,0.951369,-0.307305,3.5247230000000003,0.455342,1.044773,-0.5647220000000001,0.9794930000000001,-0.54769
4,-0.009363,-1.212776,-1.104044,-0.003281,0.936592,-0.350401,1.868757,-0.684493,0.879774,0.53479,0.136451,0.365721
5,-0.019788999999999998,-1.1787940000000001,-1.0749600000000001,-0.007559999999999999,0.9241459999999999,-0.38196199999999997,1.6481240000000001,-2.5778369999999997,0.35936799999999997,0.43402700000000005,-0.099988,0.578342
6,-0.084377,-1.151934,-1.061274,-0.034276999999999995,0.913552,-0.405271,1.08881,-4.579603,0.073879,0.46883199999999997,-0.243554,0.628278
7,-0.162347,-1.141514,-1.0636510000000001,-0.067275,0.909265,-0.410742,0.09682400000000001,-2.654404,-0.192958,-0.19514600000000001,-1.497049,1.175711
8,-0.18403599999999998,-1.152444,-1.079065,-0.07434400000000001,0.91376,-0.399392,-0.9888620000000001,0.758269,-0.199574,0.183948,-2.1334560000000002,1.243981
9,-0.16883099999999998,-1.1888729999999998,-1.096258,-0.062625,0.927949,-0.36740300000000004,-2.349268,1.6622869999999998,0.014091999999999999,0.543384,-1.937715,1.247881
10,-0.164965,-1.240631,-1.128454,-0.053239,0.945989,-0.319794,-2.6672990000000003,1.896507,-0.20741500000000002,-0.012953999999999999,-1.155095,0.48843400000000003
11,-0.14719400000000002,-1.289658,-1.162038,-0.040691000000000005,0.9607399999999999,-0.274444,-2.400256,2.873784,-0.011318,-0.429158,-0.760636,-0.070329
12,-0.084521,-1.332395,-1.166931,-0.019934999999999998,0.971717,-0.23529899999999998,-1.888742,3.517412,0.29373699999999997,-0.504494,-0.563773,-0.397163
13,0.008293,-1.354208,-1.1238700000000001,0.001782,0.9766360000000001,-0.214883,-0.523887,1.585129,0.67642,0.208148,-0.005826,-0.731665
14,0.085161,-1.3505280000000002,-1.0529389999999998,0.018584,0.9758389999999999,-0.217691,0.538817,0.001381,0.74142,0.255006,-0.169793,-0.49368900000000004
15,0.113705,-1.320769,-1.017706,0.028073,0.9689059999999999,-0.24582600000000002,1.943091,-0.264281,0.425762,0.362323,-0.26218,0.073554
16,0.139265,-1.291017,-1.032649,0.038332,0.961116,-0.273464,0.29491999999999996,3.513515,-0.357575,0.005613,-1.4263569999999999,2.504756
17,0.182339,-1.317067,-1.064519,0.045516,0.967983,-0.24684699999999998,-0.9199430000000001,3.0365450000000003,-0.438089,-3.9781480000000005,1.614536,-6.339136
18,0.029319,-1.27347,-1.135939,0.008588,0.956123,-0.292833,-0.338995,-1.281513,-1.083318,-3.941221,1.626396,-6.29315
19,0.020722,-1.3564610000000001,-1.186809,0.004407,0.977118,-0.212644,-2.144879,2.2751669999999997,0.016871,1.437091,0.537912,2.255643
20,0.037219,-1.375098,-1.2620879999999999,0.007234999999999999,0.9809120000000001,-0.194307,-2.191183,4.2561089999999995,-1.953656,0.152265,0.522491,1.29146
21,-0.44396599999999997,-1.4445350000000001,-1.7867959999999998,-0.054079999999999996,0.9920399999999999,-0.113701,-4.042609,0.74585,-3.4992620000000003,-0.693783,1.454814,1.8679279999999998
22,-1.059541,-1.447267,-2.368244,-0.10744300000000001,0.9923799999999999,-0.060275999999999996,-2.326836,-4.037012,-2.380879,-0.37137800000000004,2.642782,-0.099788
23,-1.6669080000000003,-1.418167,-2.890272,-0.151318,0.988375,0.014588,-3.3731400000000002,-3.6732,-1.613125,1.1300780000000001,2.012053,-0.40985200000000005
24,-2.1052880000000003,-1.376958,2.990227,-0.165749,0.9812719999999999,0.098118,-4.122015,-1.089868,-0.708336,0.9993059999999999,1.8267419999999999,-0.471577
25,-2.364446,-1.3145850000000001,2.734326,-0.177701,0.967357,0.18065799999999999,-3.9125629999999996,-0.113434,-0.517981,-1.2325620000000002,0.7547649999999999,-1.430994
26,-2.47989,-1.261211,2.598904,-0.187199,0.9524600000000001,0.24035700000000002,-2.990538,1.265514,-0.372303,-0.148128,0.09818400000000001,-0.792984
27,-2.508721,-1.212733,2.528581,-0.20728000000000002,0.936577,0.282583,-2.346284,1.965095,-0.587684,0.42264300000000005,-0.19454200000000002,-0.550878
28,-2.5071790000000003,-1.183334,2.508019,-0.223944,0.9258709999999999,0.304315,-0.757317,0.6756850000000001,-0.526863,0.987875,-1.1361059999999998,-1.083261
29,-2.497163,-1.1768299999999998,2.506351,-0.230594,0.923394,0.30686399999999997,-0.184831,0.5526840000000001,0.16522799999999999,0.748966,-0.563134,-0.930934
30,-2.5139669999999996,-1.183398,2.480873,-0.221838,0.925895,0.30578,0.113607,0.3045,0.698537,0.521994,-0.6898880000000001,-0.462793
31,-2.497492,-1.203233,2.485579,-0.21577399999999997,0.933206,0.28734,1.2810290000000002,0.719435,0.35044200000000003,0.183426,-1.1029440000000001,-0.6281909999999999
32,-2.4468400000000003,-1.228883,2.537474,-0.21464699999999998,0.9421149999999999,0.257569,1.73307,-0.43434300000000003,-0.019868,0.078859,-0.673026,-0.80803
33,-2.3744400000000003,-1.261004,2.627685,-0.211596,0.9523969999999999,0.219462,2.365866,-0.561513,0.064832,0.138735,-0.6459239999999999,-0.633646
34,-2.271893,-1.298348,2.7456169999999998,-0.205616,0.9631149999999999,0.173574,2.63711,-0.56318,0.24619000000000002,0.08376,-0.7229720000000001,-0.49275699999999995
35,-2.1071310000000003,-1.336009,2.926189,-0.199964,0.972564,0.11887,3.05048,-0.484609,0.219067,-0.166323,-0.574187,-0.364521
36,-1.873048,-1.370471,-3.105668,-0.189959,0.980002,0.05923,3.265346,-0.432771,0.655267,-0.19306700000000002,-0.244986,-0.015361000000000001
37,-1.502812,-1.397024,-2.7116119999999997,-0.17249,0.9849389999999999,-0.011745,4.148923,-1.822697,0.889683,0.680349,2.0987240000000003,0.6808890000000001
38,-1.051839,-1.386954,-2.198166,-0.15873199999999998,0.9831489999999999,-0.090664,4.138351,-2.179914,0.986207,-0.7616930000000001,4.578863,0.300091
39,-0.6426689999999999,-1.370201,-1.798085,-0.11941500000000001,0.9799479999999999,-0.159496,3.118866,2.261859,2.241374,-1.084595,3.282717,0.073818
40,-0.289172,-1.342565,-1.4869139999999998,-0.06451699999999999,0.974068,-0.21685700000000002,2.537384,1.853463,2.311543,-0.6867800000000001,1.520546,-0.014894
41,-0.08555800000000001,-1.297584,-1.284163,-0.023056999999999998,0.962909,-0.268836,2.626621,-0.292835,1.9100599999999999,0.020555,1.042584,0.019278
42,-0.004785,-1.2507110000000001,-1.165255,-0.001506,0.949209,-0.314641,2.4127509999999996,-2.413884,1.3184209999999998,0.34029699999999996,0.785609,0.46878500000000006
43,-0.019104,-1.203626,-1.118935,-0.0068579999999999995,0.9333469999999999,-0.358908,2.172539,-3.167568,0.595591,0.642783,-0.126325,0.72283
44,-0.037573,-1.173457,-1.08121,-0.014536000000000002,0.9220940000000001,-0.386692,1.069372,-2.3110209999999998,0.7363390000000001,-0.07460599999999999,-0.6938380000000001,0.562442
45,-0.047298,-1.1639059999999999,-1.0459379999999998,-0.018712,0.918356,-0.395312,0.25771900000000003,-1.9867130000000002,0.525155,-0.444454,-1.1308799999999999,0.707537
46,-0.068117,-1.167035,-1.047954,-0.026741,0.91959,-0.391968,-0.41791000000000006,-0.09097999999999999,-0.371822,-0.00161,-2.347339,1.43573
47,-0.072401,-1.1904059999999999,-1.0773979999999999,-0.026858,0.9285200000000001,-0.370309,-1.8883240000000001,1.495104,-0.401217,0.438784,-2.073616,1.400033
48,-0.089408,-1.24282,-1.1121299999999998,-0.028762,0.9466959999999999,-0.32084,-2.8298919999999996,0.6101300000000001,-0.451525,0.494278,-1.621394,1.1980979999999999
49,-0.096816,-1.293234,-1.148269,-0.026487,0.961726,-0.272726,-2.382557,2.003636,-0.072036,-0.186358,-0.748942,0.014563
50,-0.029432999999999997,-1.333795,-1.1340860000000001,-0.0069099999999999995,0.972046,-0.234685,-1.728482,2.8140490000000002,0.49124300000000004,-0.375293,-0.27034,-0.971248
51,0.068968,-1.352342,-1.080098,0.014934999999999999,0.976234,-0.216203,-0.440874,2.007782,0.670049,0.295231,-0.069938,-1.201705
52,0.175597,-1.346835,-0.9993620000000001,0.038798,0.975025,-0.218675,0.47985900000000004,0.9187770000000001,1.0100930000000001,0.127126,-0.12797999999999998,-0.700789
53,0.21695599999999998,-1.3217860000000001,-0.954565,0.053049,0.9691569999999999,-0.240664,1.628888,-0.7504529999999999,0.533149,0.073416,-0.364375,-0.513196
54,0.169984,-1.283609,-0.986477,0.047917,0.959044,-0.279171,1.580471,0.362426,-0.40544600000000003,0.363735,-0.9920030000000001,1.917568
55,0.192664,-1.288438,-1.038568,0.053348,0.9604010000000001,-0.273464,-0.671292,4.810879,-0.815708,-1.107944,-1.605726,1.667934
56,0.090461,-1.2534299999999998,-1.100517,0.028191,0.950061,-0.310787,3.058475,-7.92098,-0.9314370000000001,-0.980095,3.7498910000000003,0.719097
57,0.037936000000000004,-1.309879,-1.138026,0.009784000000000001,0.9661540000000001,-0.257778,-2.449418,0.41673999999999994,0.16239800000000001,1.964764,2.1506979999999998,5.209301
58,0.10769400000000001,-1.3198459999999999,-1.137943,0.026691000000000003,0.968677,-0.24688200000000002,-1.339935,4.141124,-0.843026,0.293957,-0.22844299999999998,-0.221288
59,-0.057172,-1.4157819999999999,-1.366667,-0.008822,0.988009,-0.154134,-5.888692,2.954775,-3.115477,-1.0010350000000001,0.584012,1.74793
60,-0.714342,-1.4733829999999999,-2.072059,-0.063708,0.995259,-0.07347200000000001,-2.755903,0.230564,-2.826252,-1.213834,2.314052,0.869416
61,-1.474059,-1.441966,-2.752885,-0.12786199999999998,0.991713,-0.012408,-2.648448,-6.16096,-3.217895,0.909784,2.527803,-0.365003
62,-1.903007,-1.3851069999999999,-3.085915,-0.174521,0.982809,0.060209000000000006,-3.360207,-3.505592,-1.7125990000000002,0.843039,1.6733490000000002,-0.45904399999999995
63,-2.254214,-1.3313620000000002,2.8740669999999997,-0.18388800000000002,0.9714719999999999,0.149746,-4.390932,-0.710204,-0.314396,-0.477733,0.810739,-1.3356290000000002
64,-2.424729,-1.277359,2.676103,-0.19003699999999998,0.957255,0.21804899999999997,-3.3535470000000003,2.082239,0.028967000000000003,-1.005215,0.319646,-1.2384950000000001
65,-2.485316,-1.2328540000000001,2.569232,-0.202297,0.9434389999999999,0.26266999999999996,-2.241646,1.768745,-0.32606,0.5348930000000001,-0.29799200000000003,-0.579991
66,-2.475862,-1.2048649999999999,2.5529830000000002,-0.220998,0.933791,0.281408,-0.79106,0.6581279999999999,-0.633903,0.816823,-0.80252,-0.866064
67,-2.4586240000000004,-1.197193,2.564085,-0.230331,0.931018,0.28310599999999997,0.087096,0.388127,-0.20868,1.013091,-1.084018,-1.198939
68,-2.45233,-1.2008729999999999,2.5640400000000003,-0.229927,0.9323549999999999,0.279005,0.186619,0.21755700000000003,0.26866100000000004,0.30049899999999996,-0.729703,-0.349439
69,-2.441434,-1.2123709999999999,2.568979,-0.22603,0.936451,0.268266,0.690926,0.38197800000000004,0.271973,0.315325,-0.9588959999999999,-0.313035
70,-2.413709,-1.229598,2.594062,-0.22261399999999998,0.9423549999999999,0.249815,1.094967,0.05255800000000001,0.250648,0.45071700000000003,-1.086581,-0.523588
71,-2.3783529999999997,-1.255318,2.638239,-0.21447600000000003,0.9506479999999999,0.224198,1.616388,-0.556077,0.421713,0.24629,-0.6429090000000001,-0.655594
72,-2.335941,-1.288297,2.703115,-0.201058,0.960362,0.193075,2.015479,-1.1873049999999998,0.488334,0.17388199999999998,-0.705097,-0.460668
73,-2.239881,-1.326658,2.824723,-0.189598,0.9703459999999999,0.149927,2.702116,-0.935659,0.365689,-0.020638,-0.730585,-0.375391
74,-2.055747,-1.365709,3.031536,-0.18016300000000002,0.979043,0.094932,3.107443,-0.900013,0.424023,-0.195691,-0.051645,0.044183
75,-1.748272,-1.4016629999999999,-2.927609,-0.165674,0.9857309999999999,0.029716000000000003,3.674524,-0.558666,0.882609,-0.003348,0.48613199999999995,0.21138800000000002
76,-1.266319,-1.412687,-2.389491,-0.1502,0.987527,-0.0472,4.820997,-3.8487139999999997,0.541251,0.36853800000000003,4.061728,0.632405
77,-0.8841620000000001,-1.384201,-1.942998,-0.143469,0.982642,-0.1176,3.2446900000000003,-1.391638,0.970404,-1.017084,2.455102,0.175736
78,-0.563366,-1.360126,-1.6291120000000001,-0.11167200000000001,0.977891,-0.176795,2.756043,1.419666,1.649187,-1.138541,2.027663,0.1892
79,-0.313204,-1.335425,-1.402151,-0.071851,0.9724280000000001,-0.22185500000000002,2.1557459999999997,1.14749,1.769257,-0.739032,1.50885,0.238197
80,-0.14033900000000002,-1.28207,-1.224613,-0.039827999999999995,0.958607,-0.281929,3.275101,-0.47360399999999997,1.53453,0.108477,0.834957,0.06768099999999999
81,-0.065911,-1.235296,-1.12453,-0.021685,0.9442459999999999,-0.328525,2.155311,-1.526814,1.086882,0.548037,0.454146,0.37894
82,-0.066053,-1.195714,-1.089948,-0.024181,0.930477,-0.365548,1.7498040000000001,-1.665864,0.24887800000000002,0.688091,-0.622052,0.32409
83,-0.09138500000000001,-1.174874,-1.070892,-0.035194,0.9226409999999999,-0.384048,0.709754,-2.510472,0.31213,0.167106,-0.9561040000000001,0.705734
84,-0.128672,-1.1692280000000002,-1.054838,-0.050154000000000004,0.920449,-0.387629,0.10222,-2.208739,0.24126999999999998,0.027144,-1.147805,0.977671
85,-0.139019,-1.177813,-1.053547,-0.053065,0.9237709999999999,-0.37925,-0.800833,0.296642,-0.004325,0.002025,-2.2100869999999997,1.436577
86,-0.13303900000000002,-1.2193120000000002,-1.0563719999999999,-0.045669,0.9388629999999999,-0.34124699999999997,-2.832851,0.292608,0.368182,0.48277200000000003,-1.594731,1.441039
87,-0.12696500000000002,-1.277387,-1.06645,-0.036621,0.9572639999999999,-0.28688600000000003,-2.7166259999999998,1.439497,0.104742,0.323151,-1.240329,0.943075
88,-0.068927,-1.324864,-1.070495,-0.016766999999999997,0.9699110000000001,-0.242878,-2.185663,3.968869,0.341287,-0.48468199999999995,-0.48973199999999995,-0.671245
89,0.062688,-1.356767,-1.022246,0.013306,0.977183,-0.21197600000000003,-1.1139430000000001,3.911757,0.64047,-0.193497,0.046331,-1.398711
90,0.18970499999999998,-1.358251,-0.940507,0.039777,0.977497,-0.207159,0.312729,1.48181,1.014609,0.072771,0.115704,-1.303232
91,0.26961399999999996,-1.332498,-0.877078,0.062873,0.971741,-0.22751799999999997,1.59901,0.754674,0.8536100000000001,-0.10607,-0.314347,-0.046560000000000004
92,0.276475,-1.286015,-0.8927370000000001,0.076688,0.959723,-0.270275,2.388417,1.6858330000000001,0.14329,-0.11125,-1.1181860000000001,1.580303
93,0.294149,-1.2844950000000002,-0.9271020000000001,0.081876,0.9592950000000001,-0.270273,-1.147274,2.5344599999999997,-0.686866,-0.449826,-1.728536,2.187449
94,0.263874,-1.279017,-0.9487639999999999,0.075027,0.957734,-0.27769699999999997,2.584361,-5.3485879999999995,0.074624,-3.086059,0.927703,-4.5574010000000005
95,0.24824899999999997,-1.3009760000000001,-0.931149,0.06549400000000001,0.9638190000000001,-0.258383,-5.765546,1.246812,0.317633,2.738079,2.477191,4.559622
96,0.442245,-1.312923,-0.821217,0.109141,0.966935,-0.23048600000000002,1.699382,6.406825,0.5511699999999999,2.203023,1.7131189999999998,2.375063
97,0.45551899999999995,-1.3602299999999998,-0.883224,0.091949,0.9779129999999999,-0.187697,-4.589427,1.696737,-2.657204,-0.774841,-0.551628,1.410216
98,0.34160100000000004,-1.484521,-1.057083,0.028862,0.996281,-0.081177,-4.370524,3.11457,-3.898766,-1.180046,1.45097,1.166077
99,-0.9397260000000001,-1.509401,-2.298981,-0.049523000000000005,0.998116,-0.036189,-1.8125060000000002,-5.827454,-3.960238,-0.8872450000000001,2.600059,0.772334
100,-1.798138,-1.450237,-3.033272,-0.117165,0.992742,0.027105,-3.217893,-4.109424,-2.412652,1.795006,2.180232,-0.160742
101,-2.287246,-1.390903,2.7790630000000003,-0.134931,0.9838629999999999,0.117499,-4.836876,-0.410718,-0.496287,0.474637,0.917474,-0.721594
102,-2.508897,-1.323409,2.559728,-0.144795,0.969556,0.19747,-3.4153029999999998,-0.382337,-0.567579,-1.12083,0.486637,-1.256384
103,-2.606227,-1.2711219999999999,2.456048,-0.150601,0.955433,0.25390100000000004,-2.798939,0.402303,-0.186128,-0.31064200000000003,-0.158161,-0.7162430000000001
104,-2.6293830000000002,-1.228958,2.41452,-0.16429100000000002,0.94214,0.292196,-1.6808880000000002,0.881759,-0.6425420000000001,0.17015,-0.5321819999999999,-0.664419
105,-2.62627,-1.208112,2.416366,-0.174841,0.934948,0.308707,-0.43097700000000005,-0.22485,-0.44759,0.733038,-1.144772,-1.044302
106,-2.62046,-1.203553,2.4204209999999997,-0.178752,0.933321,0.311379,-0.141325,0.388934,0.053574000000000004,0.56129,-0.630586,-0.5611510000000001
107,-2.618373,-1.205722,2.4068549999999997,-0.17839000000000002,0.934097,0.30925199999999997,0.207848,0.935358,0.29886799999999997,0.406829,-0.772034,-0.46428100000000005
108,-2.587065,-1.218651,2.41716,-0.181608,0.938635,0.293223,0.8363459999999999,0.990453,0.095951,0.259291,-1.027258,-0.5265449999999999
109,-2.554818,-1.237363,2.447788,-0.18120999999999998,0.944924,0.272539,1.2665620000000002,-0.37566700000000003,0.09857,0.173703,-0.664696,-0.763598
110,-2.526022,-1.267739,2.497607,-0.172323,0.9544290000000001,0.243654,1.7870380000000001,-1.167634,0.296569,0.297216,-0.7229979999999999,-0.327486
111,-2.495377,-1.303078,2.554118,-0.159288,0.964377,0.21118800000000001,2.102801,-1.046748,0.427874,0.301546,-0.76171,-0.236121
112,-2.400353,-1.3482399999999999,2.667405,-0.149028,0.9753360000000001,0.162807,2.8752419999999996,-0.66343,0.33663899999999997,-0.234395,-0.566096,-0.682491
113,-2.222177,-1.395067,2.869889,-0.139023,0.984599,0.10598900000000001,3.117064,-1.304052,0.490836,-0.192794,0.25401799999999997,0.040724
114,-1.8638759999999999,-1.4410180000000001,-3.029952,-0.123885,0.991591,0.037385,3.847255,-1.118288,0.821506,0.137389,0.804445,0.421493
115,-1.1586049999999999,-1.4533559999999999,-2.264845,-0.107346,0.9931120000000001,-0.046936,5.207139,-3.812983,0.595176,-0.13208,4.316276,0.6439819999999999
116,-0.6694869999999999,-1.403052,-1.7235340000000001,-0.10360799999999999,0.985964,-0.130914,3.872778,-0.9436030000000001,0.5383819999999999,-1.509918,2.245771,-0.10842
117,-0.382915,-1.35615,-1.4435790000000002,-0.079581,0.977052,-0.197572,3.072095,1.5598,1.496322,-1.3694389999999999,1.749511,0.40768499999999996
118,-0.150644,-1.302835,-1.250429,-0.039734,0.9643129999999999,-0.261764,3.446086,1.942884,1.276253,-0.734771,1.520001,0.083236
119,-0.039947,-1.2409059999999998,-1.15452,-0.012937,0.9460780000000001,-0.323678,2.803676,0.51636,1.064222,0.403119,0.67703,0.183587
120,-0.007882,-1.190986,-1.116457,-0.0029219999999999997,0.9287350000000001,-0.37073,2.4410580000000004,-0.637484,0.351732,0.776817,0.279074,0.428805
121,-0.012454,-1.155886,-1.0909950000000002,-0.00502,0.9151520000000001,-0.403075,1.3105719999999998,-1.9342759999999999,0.620031,0.9517059999999999,-0.188376,0.544615
122,-0.04192,-1.143384,-1.066101,-0.017371,0.910041,-0.41415100000000005,0.364498,-2.8619950000000003,0.341146,-0.200128,-1.1866219999999998,1.069424
123,-0.08781599999999999,-1.140023,-1.0627959999999999,-0.036622,0.908643,-0.415962,-0.009378000000000001,-1.8634700000000002,-0.223561,-0.359252,-1.468641,1.324501
124,-0.115953,-1.152583,-1.083923,-0.046986,0.913816,-0.40339899999999995,-1.146313,0.31488299999999997,-0.269546,0.437275,-2.112714,1.433657
125,-0.114348,-1.1973260000000001,-1.100192,-0.041629,0.931067,-0.36246300000000004,-2.79467,0.842499,0.017366999999999997,0.43551899999999993,-1.464285,1.036459
126,-0.104164,-1.2545979999999999,-1.1194950000000001,-0.032331,0.9504239999999999,-0.309266,-2.76707,1.961093,-0.020194,0.180616,-1.130524,0.653962
127,-0.040839,-1.304857,-1.117861,-0.01073,0.9648459999999999,-0.262592,-2.370831,3.6889849999999997,0.43115,-0.647321,-0.427889,-0.608395
128,0.090946,-1.344554,-1.05853,0.020372,0.9745159999999999,-0.223385,-1.6687900000000002,3.283719,0.736743,-0.194002,-0.049116,-1.242435
129,0.228133,-1.360179,-0.957284,0.04728,0.977902,-0.20364200000000002,-0.493929,1.12401,1.1483,-0.027368,-0.085751,-1.121981
130,0.315391,-1.3424989999999999,-0.87329,0.0702,0.9740530000000001,-0.215152,1.326427,-0.012688,0.914645,-0.016794,-0.328271,-0.0668
131,0.297008,-1.292844,-0.9102049999999999,0.080301,0.961619,-0.26237,3.234196,2.145993,-0.046877999999999996,-0.202127,-0.721416,1.121913
132,0.262322,-1.257739,-1.023342,0.079863,0.9513959999999999,-0.29743,1.4104889999999999,2.862819,-1.634026,-1.284178,-0.927791,1.4591889999999998
133,0.11874200000000001,-1.251698,-1.093603,0.037163,0.949519,-0.31149699999999997,-1.05006,-4.156473,-0.5205850000000001,1.197151,1.230733,2.564549
134,0.22560300000000003,-1.300838,-1.020259,0.059655999999999994,0.9637819999999999,-0.259928,-1.829591,4.180983,1.332674,1.8656979999999999,0.19936500000000001,2.530436
135,0.362581,-1.343321,-0.9832129999999999,0.079987,0.974239,-0.210851,-3.014753,5.574357,-1.363968,0.8769530000000001,0.08968,0.43953400000000004
136,0.260554,-1.462749,-1.146577,0.027777,0.9941690000000001,-0.104182,-6.050658,1.475637,-4.1711849999999995,-0.678182,1.249316,1.619853
137,-1.099852,-1.500424,-2.485834,-0.062637,0.997525,-0.031892000000000004,-1.655657,-3.548974,-4.059272,-0.058762,3.0076330000000002,0.544297
138,-1.663715,-1.447908,-2.946425,-0.12203299999999999,0.992459,0.011372,-2.500963,-4.785339,-2.3683240000000003,0.6149979999999999,3.006397,-0.34671399999999997
139,-2.143001,-1.395732,2.908141,-0.14641600000000002,0.984715,0.094304,-4.531369000000001,-1.9471189999999998,-0.691943,0.418587,1.065395,-0.565587
140,-2.471587,-1.3264610000000001,2.591797,-0.15021700000000002,0.970298,0.189605,-4.378977,-0.12671400000000002,-0.25417199999999995,-0.743689,0.577645,-1.147155
141,-2.5842099999999997,-1.272074,2.4545939999999997,-0.15567,0.9557129999999999,0.24974699999999997,-2.922682,1.0996110000000001,0.033234,-1.058518,0.46903,-1.249396
142,-2.6349720000000003,-1.2268370000000002,2.388208,-0.16362100000000002,0.941427,0.29485100000000003,-2.0228740000000003,0.441271,-0.479861,-0.042158999999999995,-0.23912600000000003,-0.623708
143,-2.6349970000000003,-1.198008,2.384636,-0.176713,0.931315,0.318461,-0.95257,-0.144528,-0.634004,0.5506909999999999,-0.9346270000000001,-0.763896
144,-2.630691,-1.187317,2.395165,-0.18294100000000002,0.9273680000000001,0.326365,-0.088874,-0.15315499999999999,-0.29147,0.705631,-1.106034,-0.9787239999999999
145,-2.6228569999999998,-1.184433,2.401793,-0.186817,0.926286,0.32724200000000003,-0.024311000000000003,0.11236199999999999,-0.147149,0.221592,-0.804063,-0.718813
146,-2.600066,-1.189324,2.4175299999999997,-0.191889,0.928117,0.31901399999999996,0.548279,0.779246,-0.11623,0.220439,-1.0450760000000001,-0.482558
147,-2.553043,-1.201445,2.448927,-0.20041199999999998,0.9325620000000001,0.300262,0.9976370000000001,0.543489,-0.15658699999999998,0.189548,-0.8795370000000001,-0.64093
148,-2.518043,-1.223398,2.494895,-0.198792,0.940262,0.276375,1.564509,-0.815485,0.071305,0.288956,-0.658768,-0.736474
149,-2.491199,-1.256941,2.543066,-0.18692899999999998,0.95115,0.245692,2.010784,-0.8101689999999999,0.48568100000000003,0.192605,-0.703638,-0.617274
150,-2.4239189999999997,-1.30074,2.628111,-0.17544,0.963756,0.200971,2.735807,-0.7506079999999999,0.413757,0.0016579999999999998,-0.637386,-0.545423
151,-2.296135,-1.354531,2.778032,-0.160558,0.976706,0.142344,3.5258230000000004,-0.772831,0.756861,-0.12717699999999998,0.137796,0.197485
152,-2.018082,-1.417772,3.092878,-0.137417,0.9883149999999999,0.06592100000000001,4.355523000000001,-2.784466,1.201069,0.6484800000000001,1.8898439999999999,0.303678
153,-1.386699,-1.445749,-2.452626,-0.12259400000000001,0.992192,-0.022828,5.155581,-5.428586,0.002955,0.633657,1.8859669999999997,0.392426
154,-0.9285629999999999,-1.410056,-1.939734,-0.12815,0.987109,-0.095859,3.6796059999999997,-0.5846979999999999,0.196878,-1.254174,2.766828,0.177402
155,-0.557702,-1.369308,-1.6031879999999998,-0.10590899999999999,0.97977,-0.169794,3.27513,3.312244,1.038295,-1.560259,1.967618,0.535105
156,-0.298307,-1.321553,-1.399857,-0.072495,0.9690989999999999,-0.235769,3.2320029999999997,2.105114,1.11859,-1.363968,1.7614,0.360281
157,-0.150611,-1.268062,-1.261929,-0.044731,0.954525,-0.294749,2.670604,0.09725,1.293498,0.157326,1.1190069999999999,0.279475
158,-0.10621099999999999,-1.217457,-1.193274,-0.036683,0.9382229999999999,-0.344077,2.521912,-1.215886,0.537838,0.9793860000000001,-0.045049,0.5312720000000001
159,-0.086477,-1.1822629999999998,-1.145986,-0.032719,0.925466,-0.377411,1.511328,-1.339803,0.700785,0.84055,-0.32285,0.500534
160,-0.099399,-1.1641549999999998,-1.1164209999999999,-0.03925,0.9184549999999999,-0.39357,0.675541,-2.463727,0.37485300000000005,0.13155,-0.930997,0.739532
161,-0.13309400000000002,-1.159836,-1.102751,-0.053012000000000004,0.9167379999999999,-0.39595199999999997,-0.108699,-1.751697,0.149477,-0.277569,-2.215856,1.3788770000000001
162,-0.142129,-1.177402,-1.108837,-0.054298,0.9236129999999999,-0.379456,-1.403974,0.526439,0.062735,0.007011,-2.413924,1.388154
163,-0.12676600000000002,-1.229482,-1.117415,-0.042317,0.942315,-0.332034,-3.146148,1.395867,0.200071,0.562001,-1.8016599999999998,1.4056879999999998
164,-0.105946,-1.288389,-1.140159,-0.029468,0.9603870000000001,-0.277099,-2.674563,2.597833,-0.025707,-0.231839,-0.615783,-0.006532
165,-0.037094999999999996,-1.330508,-1.130519,-0.008826,0.971269,-0.23780900000000002,-1.717425,3.138928,0.491964,-0.522928,-0.352373,-0.49066099999999996
166,0.070239,-1.343603,-1.084807,0.015806999999999998,0.974302,-0.224679,0.093314,2.76065,0.5467569999999999,0.136155,0.261156,-1.482093
167,0.157306,-1.3237940000000001,-1.021808,0.038301,0.96965,-0.241471,1.186302,0.479567,1.012377,0.166502,-0.043563,-0.8706200000000001
168,0.193588,-1.287042,-0.979844,0.053858,0.9600110000000001,-0.274726,2.053617,-0.547045,0.7153079999999999,0.157659,-0.272481,-0.66871
169,0.20960900000000002,-1.250744,-0.9876030000000001,0.065463,0.949219,-0.307724,0.92415,2.885468,-0.21778699999999998,-0.402332,-1.728806,3.282593
170,0.251646,-1.275134,-1.0321799999999999,0.07255,0.956609,-0.28219,-0.9995959999999999,4.862165,-0.8330299999999999,-3.8298129999999997,-1.4834040000000002,-2.429953
171,0.115451,-1.225962,-1.084642,0.038939999999999995,0.941132,-0.33578600000000003,2.485426,-8.75557,-0.31267399999999995,-3.698226,1.6193540000000002,-5.5465230000000005
172,0.247594,-1.322415,-0.990907,0.060246,0.9693120000000001,-0.238331,-4.1641580000000005,4.531497,1.482558,2.246685,0.826678,2.4782610000000003
173,0.414447,-1.3277700000000001,-0.93786,0.096899,0.970614,-0.220261,-0.456305,5.7820730000000005,-0.9148040000000001,0.271295,0.318448,-0.981384
174,0.310352,-1.426015,-1.094027,0.044056,0.9895379999999999,-0.13736900000000002,-5.580989,0.9938049999999999,-4.229246,-0.13638699999999998,0.373423,0.436518
175,-0.57921,-1.507591,-1.9862080000000002,-0.034554,0.9980030000000001,-0.052832000000000004,-2.813497,-1.139485,-3.015046,-0.43701899999999994,2.334303,0.9818629999999999
176,-1.521423,-1.4907,-2.851761,-0.079885,0.9967940000000001,-0.003947,-2.463331,-4.925041,-2.096556,0.694494,2.3417220000000003,-0.619099
177,-2.138254,-1.440756,2.882726,-0.10933399999999999,0.991557,0.069688,-3.867117,-2.412394,-1.062724,0.762975,1.6620080000000002,-0.550111
178,-2.471477,-1.373042,2.573696,-0.122012,0.98051,0.15397,-4.077125,-0.977582,-0.8523850000000001,-0.762128,0.683537,-1.435418
179,-2.604243,-1.30608,2.438886,-0.133915,0.965167,0.224752,-3.229529,0.667211,-0.257845,-0.9585540000000001,0.35430700000000004,-1.1483510000000001
180,-2.6482919999999996,-1.252268,2.351554,-0.148291,0.9496969999999999,0.275821,-2.8581529999999997,2.479454,-0.365464,-0.41553599999999996,0.263804,-1.046283
181,-2.640995,-1.209223,2.3208919999999997,-0.169775,0.935341,0.31033099999999997,-1.598942,0.886603,-0.5917720000000001,0.737799,-1.156777,-0.749463
182,-2.641852,-1.19672,2.3318369999999997,-0.175101,0.930845,0.32071700000000003,0.063934,-0.9648059999999999,-0.445325,1.101752,-1.0434709999999998,-1.218651
183,-2.636564,-1.198941,2.338609,-0.175793,0.9316549999999999,0.317975,0.095011,0.664474,0.20762399999999998,0.9759639999999999,-0.5792229999999999,-1.065549
184,-2.6106759999999998,-1.209401,2.342568,-0.179021,0.9354040000000001,0.304898,0.9267290000000001,1.11284,0.048353,-0.082057,-0.997569,-0.46831999999999996
185,-2.547859,-1.230968,2.4001799999999998,-0.186476,0.9428120000000001,0.27626999999999996,1.6404779999999999,0.013611000000000002,-0.33729000000000003,0.083861,-0.9136219999999999,-0.529917
186,-2.479957,-1.261651,2.486561,-0.186923,0.952594,0.240036,2.265332,-1.023859,-0.10727,0.158801,-0.7232850000000001,-0.732406
187,-2.411532,-1.299195,2.578297,-0.17890799999999998,0.963342,0.199891,2.288451,-0.875605,0.35951500000000003,0.276304,-0.721933,-0.48963999999999996
188,-2.303371,-1.341487,2.707891,-0.16898,0.973824,0.152008,2.849735,-0.8965620000000001,0.31859699999999996,-0.193707,-0.6917800000000001,-0.452362
189,-2.099322,-1.382691,2.935362,-0.161466,0.98236,0.094286,3.235959,-0.953067,0.261547,-0.320407,-0.56929,-0.5169090000000001
190,-1.7875830000000001,-1.414043,-3.004023,-0.152437,0.9877389999999999,0.033574,3.316511,-1.581607,0.464809,0.17386,0.777352,0.339046
191,-1.311383,-1.425365,-2.489938,-0.140047,0.9894440000000001,-0.037167,4.213941999999999,-1.8717700000000002,0.853873,0.79059,1.443891,1.0163389999999999
192,-0.765034,-1.3816709999999999,-1.8998400000000002,-0.13019,0.9821690000000001,-0.135603,5.243254,-1.041308,0.075923,1.254137,2.6876919999999997,1.359969
193,-0.5444720000000001,-1.332859,-1.681532,-0.12207799999999999,0.971826,-0.20160699999999998,2.580118,0.610945,1.048651,-0.8133319999999999,2.262702,-0.35067
194,-0.311847,-1.2980120000000002,-1.449965,-0.08265800000000001,0.963024,-0.256411,3.273848,0.621929,1.961471,-0.9855950000000001,1.8225900000000002,0.010393000000000001
195,-0.163908,-1.2233319999999999,-1.305713,-0.055563,0.9402389999999999,-0.335944,4.179506,-0.129449,1.000951,-0.394785,1.0318530000000001,-0.264016
196,-0.13473800000000002,-1.1619389999999998,-1.243749,-0.05340399999999999,0.9175760000000001,-0.393953,2.653151,-1.761469,0.464679,0.95355,0.031002,0.58455
197,-0.146532,-1.1223379999999998,-1.220607,-0.063305,0.9011170000000001,-0.42892600000000003,1.6839439999999999,-1.804257,0.28384299999999996,1.046856,-0.04046,0.6527569999999999
198,-0.17233199999999999,-1.097274,-1.185773,-0.078198,0.889968,-0.44926499999999997,1.137082,-3.6830849999999997,0.677673,0.379971,-0.294249,1.063965
199,-0.221402,-1.087322,-1.162683,-0.10208099999999999,0.8853850000000001,-0.453507,0.235275,-2.806595,0.186346,-0.347229,-1.922006,1.553559
200,-0.24730100000000002,-1.098241,-1.171578,-0.111417,0.890408,-0.44131099999999995,-1.097784,0.008878,0.022808000000000002,0.447858,-2.26843,1.597226
201,-0.23453000000000002,-1.144469,-1.183425,-0.096097,0.9104909999999999,-0.402204,-2.9337299999999997,1.353955,0.373592,0.673002,-1.888457,1.299909
202,-0.217565,-1.205064,-1.208331,-0.077195,0.9338620000000001,-0.349197,-2.969626,2.657737,0.16764,0.166794,-1.0948879999999999,0.381378
203,-0.144341,-1.2592709999999998,-1.207548,-0.044088,0.951867,-0.303317,-2.469734,4.055662,0.728021,-0.43368,-0.178643,-0.9925510000000001
204,-0.037912,-1.296224,-1.169168,-0.010277,0.962541,-0.270932,-1.264211,2.617598,0.734011,-0.131981,-0.080675,-1.289691
205,0.051132,-1.302706,-1.095818,0.013538,0.9642790000000001,-0.264536,0.280738,0.12132799999999999,1.074877,0.27052,-0.118163,-0.9216979999999999
206,0.10311400000000001,-1.276255,-1.036972,0.02988,0.9569350000000001,-0.288752,1.716639,-0.231785,0.756347,0.463528,-0.592784,0.303217
207,0.12624000000000002,-1.236263,-1.036849,0.041338,0.944564,-0.32571,1.641048,2.4163099999999997,-0.197223,0.256743,-0.999983,1.1211659999999999
208,0.137666,-1.236639,-1.096196,0.045007,0.944687,-0.324864,0.192118,2.953227,-1.075428,-3.9116910000000003,-0.011399,-3.3996989999999996
209,0.002301,-1.212321,-1.15419,0.000807,0.936433,-0.35084099999999996,0.050394,-4.376405,-1.085186,1.477327,2.194259,3.306254
210,0.00223,-1.2726879999999998,-1.177671,0.000655,0.955894,-0.293705,-2.262827,4.062199,0.512608,2.333757,0.529504,3.428989
211,0.0912,-1.319842,-1.196418,0.022615,0.968676,-0.247288,-3.2804260000000003,5.28477,-1.175311,-0.14285499999999998,-0.036455,0.084691
212,-0.114257,-1.423573,-1.4775260000000001,-0.016722,0.989182,-0.14572100000000002,-5.719017,2.5519979999999998,-3.7675300000000003,-0.684343,2.160949,1.7047869999999998
213,-0.853015,-1.448138,-2.192993,-0.092147,0.9924870000000001,-0.080458,-1.8523060000000002,-4.334033,-3.1025150000000004,-0.541246,2.770742,1.108733
214,-1.452181,-1.427976,-2.687289,-0.141315,0.989819,-0.016841,-3.113788,-4.668786,-1.680548,1.033008,1.902943,-0.184819
215,-1.961958,-1.399144,3.13902,-0.157892,0.9853040000000001,0.065117,-4.239214,-1.986372,-0.45270900000000003,0.21952199999999997,1.11249,-0.361336
216,-2.353243,-1.342466,2.757254,-0.16051500000000002,0.974046,0.159571,-4.601933,-0.15456099999999998,-0.28881100000000004,-0.450218,0.8996569999999999,-1.06666
217,-2.533203,-1.284249,2.5701959999999997,-0.16153599999999999,0.959225,0.231917,-3.2768610000000002,0.280089,0.155722,-0.62388,0.301593,-1.1702709999999998
218,-2.603364,-1.233861,2.4655400000000003,-0.169463,0.9437719999999999,0.283846,-2.914166,2.1706369999999997,-0.079176,-0.003739,-0.07574600000000001,-0.565295
219,-2.613886,-1.193154,2.409883,-0.18567,0.929536,0.31856100000000004,-1.521773,1.262245,-0.292612,0.183198,-0.521867,-0.511921
220,-2.615781,-1.187965,2.4319759999999997,-0.18748399999999998,0.9276110000000001,0.32308000000000003,0.634455,-1.970406,-0.678265,0.6828310000000001,-1.041319,-1.442403
221,-2.600709,-1.189127,2.463109,-0.191777,0.9280440000000001,0.319293,-0.004751,0.49552799999999997,-0.080208,0.516026,-0.521962,-0.450396
222,-2.576995,-1.195287,2.452943,-0.196232,0.930321,0.30982,0.49742299999999995,1.8150650000000002,0.368126,0.390125,-0.8429030000000001,-0.27173400000000003
223,-2.532788,-1.212094,2.4792240000000003,-0.20076,0.9363530000000001,0.287977,1.17213,0.264588,-0.090919,0.316224,-1.07031,-0.663953
224,-2.494652,-1.237383,2.535078,-0.19725499999999999,0.944931,0.26113000000000003,1.744864,-1.020727,0.09312100000000001,0.31992,-0.6062770000000001,-0.7643800000000001
225,-2.468051,-1.270326,2.5871169999999997,-0.184606,0.955197,0.23132600000000003,1.8910200000000001,-1.137734,0.455351,0.295446,-0.5902069999999999,-0.621371
226,-2.401866,-1.309352,2.677384,-0.174227,0.966018,0.190915,2.5555689999999998,-0.933473,0.21404,-0.160673,-0.714675,-0.487683
227,-2.255439,-1.350862,2.844839,-0.16899,0.9759120000000001,0.137958,2.9861470000000003,-0.866509,0.144323,-0.311158,-0.42485600000000007,-0.241794
228,-2.008505,-1.3945049999999999,3.109451,-0.15883,0.9845010000000001,0.07433,3.7143589999999995,-0.47052299999999997,0.652035,-0.22528,0.06565499999999999,0.254558
229,-1.543482,-1.430547,-2.662385,-0.139718,0.990181,-0.003817,4.833844,-3.2419290000000003,0.9026870000000001,0.511605,3.68148,0.547061
230,-0.982828,-1.406922,-2.02093,-0.135732,0.9866030000000001,-0.090482,4.22656,-2.730222,0.270744,-0.380823,4.00853,0.332364
231,-0.662062,-1.370004,-1.68408,-0.122602,0.979909,-0.1573,3.295093,0.6086050000000001,1.0141229999999999,-1.1179379999999999,2.599422,0.098981
232,-0.361324,-1.328028,-1.42595,-0.084978,0.970676,-0.224861,3.1809830000000003,2.939304,1.6758419999999998,-1.209516,1.9456900000000001,0.18708
233,-0.159633,-1.268086,-1.241934,-0.047385000000000004,0.9545319999999999,-0.29431199999999996,3.614468,0.09591000000000001,1.609874,0.008124,1.359067,0.0054020000000000006
234,-0.062798,-1.210002,-1.129027,-0.022154,0.935617,-0.35231799999999996,2.846567,-0.582138,1.3436649999999999,0.8851760000000001,0.549033,0.607704
235,-0.005607,-1.166402,-1.0640889999999998,-0.002206,0.919341,-0.393452,1.7316060000000002,-0.10331900000000001,1.117346,0.546517,-0.378646,0.284261
236,0.014866999999999998,-1.143413,-1.019067,0.006162,0.9100530000000001,-0.41444200000000003,0.811519,-1.764676,0.731693,-0.168714,-0.91985,0.750028
237,-0.021625,-1.133238,-0.9982270000000001,-0.009162,0.905789,-0.42362700000000003,0.357049,-2.994574,0.203461,-0.230477,-1.220685,1.009701
238,-0.071707,-1.133675,-1.012401,-0.030330000000000003,0.905974,-0.422242,-0.41229899999999997,-0.720758,-0.58997,-0.24556399999999998,-1.986403,1.407411
239,-0.094574,-1.155806,-1.056016,-0.038073,0.91512,-0.401375,-1.686955,1.312634,-0.761712,0.107424,-2.407262,1.341225
240,-0.109779,-1.2059950000000002,-1.09477,-0.039086,0.9341950000000001,-0.354611,-2.8167020000000003,1.014577,-0.370775,0.335656,-1.4465540000000001,1.192151
241,-0.099133,-1.2529059999999999,-1.123399,-0.030933999999999996,0.9498969999999999,-0.311023,-2.08969,2.427406,-0.004311,-0.37524,-0.643104,0.12303399999999999
242,-0.011618,-1.286613,-1.094247,-0.003257,0.9598909999999999,-0.28034699999999996,-1.3119120000000002,3.3232800000000005,0.657998,-0.35131100000000004,0.11341199999999999,-1.419299
243,0.094479,-1.291564,-1.041463,0.026001,0.961267,-0.274383,0.357322,1.990423,0.8583049999999999,0.14978,0.137823,-1.682191
244,0.16336099999999998,-1.264512,-0.977917,0.049037,0.953461,-0.297498,1.7399060000000002,-0.20965799999999998,1.063061,0.559408,-0.456726,-0.105426
245,0.203067,-1.224428,-0.950822,0.068464,0.9406120000000001,-0.332504,1.4941010000000001,1.801284,0.55243,0.193727,-1.6759939999999998,2.677444
246,0.262086,-1.243535,-0.9573780000000001,0.083285,0.946926,-0.310469,-2.077904,3.479053,-0.867632,-0.636493,-2.263668,2.961729
247,0.22217800000000001,-1.220695,-1.009474,0.075579,0.9393379999999999,-0.33455799999999997,4.940814,-5.478209,-0.453546,-3.8363519999999998,0.442651,-6.384482
248,0.178846,-1.265169,-1.0144389999999999,0.053526,0.953658,-0.296086,-5.8326519999999995,1.067728,-0.125922,2.429384,2.851487,4.447301
249,0.28728400000000004,-1.2829190000000001,-0.9826809999999999,0.080446,0.958849,-0.272275,0.320504,4.997001,-0.532357,0.715727,0.49951,0.27554
250,0.267565,-1.363294,-1.0747149999999999,0.054465,0.978548,-0.198677,-5.759257,3.034211,-3.111473,-0.756735,-0.283587,0.9245979999999999
251,-0.122609,-1.480026,-1.542106,-0.011082999999999999,0.995883,-0.089938,-3.962194,2.805428,-3.665853,-1.216136,2.315579,1.133593
252,-1.1677959999999998,-1.488688,-2.54049,-0.075416,0.9966309999999999,-0.032152,-2.583066,-5.786487,-3.147418,-0.220162,2.893307,0.430727
253,-1.821335,-1.437583,-3.077191,-0.128653,0.9911399999999999,0.032924,-2.833695,-4.346925,-1.959947,1.482703,2.333552,-0.472042
254,-2.242799,-1.3820059999999998,2.813387,-0.14685399999999998,0.982232,0.116825,-4.634482,-0.850842,-0.628909,-0.273953,0.547721,-0.98151
255,-2.50212,-1.316271,2.549687,-0.150251,0.967783,0.202025,-3.9706,0.557908,0.01272,-0.789309,0.31038499999999997,-1.2232040000000002
256,-2.609763,-1.258876,2.4102799999999998,-0.15562,0.9517459999999999,0.26449,-3.1636290000000002,1.798416,-0.019553,-0.310506,0.18628499999999998,-1.2628110000000001
257,-2.615981,-1.213798,2.3472880000000003,-0.175336,0.93695,0.302284,-1.943171,2.628587,-0.358195,0.43925200000000003,-0.754745,-0.582801
258,-2.6142529999999997,-1.191906,2.3470150000000003,-0.186137,0.929076,0.319632,-0.23532899999999998,-1.359998,-0.724647,0.42284700000000003,-1.30081,-1.247763
259,-2.596116,-1.190149,2.38805,-0.19275,0.928424,0.31759899999999996,0.287437,-0.102846,-0.410685,0.661714,-0.565235,-1.341174
260,-2.576511,-1.19445,2.381634,-0.1968,0.9300139999999999,0.310384,0.295614,1.640671,0.467346,0.499443,-1.031103,-0.44164
261,-2.538382,-1.2174690000000001,2.394924,-0.19628900000000002,0.938227,0.284948,1.468847,0.9755020000000001,0.358889,0.42881800000000003,-1.193491,-0.576757
262,-2.5044169999999997,-1.247282,2.42564,-0.189122,0.948124,0.255515,1.550901,-0.21572199999999997,0.615225,0.357442,-0.737446,-0.7224189999999999
263,-2.490679,-1.285032,2.458128,-0.170795,0.9594469999999999,0.224244,1.9063,-1.232742,0.760016,0.248401,-0.641804,-0.407884
264,-2.4667950000000003,-1.3272899999999999,2.5174119999999998,-0.150622,0.970499,0.188255,2.344948,-1.770774,0.663357,0.148867,-0.671182,-0.324074
265,-2.379132,-1.3769959999999999,2.635605,-0.13301300000000002,0.9812790000000001,0.139259,2.9012189999999998,-1.198545,0.669714,-0.22733899999999999,-0.40555,-0.432746
266,-2.185362,-1.430257,2.852573,-0.11443199999999999,0.9901399999999999,0.080759,3.255046,-0.768393,0.95044,-0.128076,0.51137,0.286627
267,-1.693069,-1.477085,-2.911609,-0.09285,0.995612,0.01141,4.019719,-1.742748,0.9933489999999999,0.288636,0.935464,0.864765
268,-0.792331,-1.452735,-1.9339959999999998,-0.083851,0.9930389999999999,-0.082696,5.0730059999999995,-4.069952,0.508034,-0.917889,5.079364,0.11861500000000001
269,-0.391785,-1.399677,-1.48997,-0.06501699999999999,0.985395,-0.157372,3.2971550000000005,-0.711533,1.611891,-1.331238,2.337359,0.180825
270,-0.077109,-1.3469280000000001,-1.182559,-0.017100999999999998,0.9750459999999999,-0.221336,3.482939,0.863215,2.447588,-1.230824,2.2638,0.593224
271,0.058712,-1.261096,-1.040086,0.017883,0.952425,-0.304243,4.522661,-0.604804,1.5647659999999999,-0.24897800000000003,1.061323,0.094877
272,0.098707,-1.1894879999999999,-0.997873,0.036673000000000004,0.9281780000000001,-0.370321,2.815434,0.363462,0.666045,0.528101,0.11012100000000001,0.394521
273,0.092545,-1.144491,-1.003788,0.038214,0.9105,-0.41173699999999996,1.9563830000000002,-0.739196,-0.162142,0.760523,-0.329048,0.598474
274,0.045161,-1.118601,-1.011232,0.019726,0.89949,-0.436493,0.8486819999999999,-2.266916,0.027563,0.39514499999999997,-0.406112,0.798111
275,0.004465,-1.1125559999999999,-1.0080120000000001,0.001975,0.896832,-0.442363,0.083787,-2.0404400000000003,-0.0015710000000000001,-0.404197,-1.235898,1.1059379999999999
276,-0.041591,-1.1155329999999999,-1.0325090000000001,-0.018282,0.8981450000000001,-0.439316,-0.35699699999999995,-0.510174,-0.8163229999999999,-0.584333,-1.63838,1.273575
277,-0.061163,-1.138945,-1.068509,-0.025584,0.908192,-0.417767,-1.995759,1.065238,-0.429205,0.435221,-2.190129,1.4965030000000001
278,-0.05413099999999999,-1.199914,-1.07884,-0.01961,0.932008,-0.36190300000000003,-3.285195,0.950536,0.068272,0.5153220000000001,-1.341539,0.974025
279,-0.005471,-1.25596,-1.0745069999999999,-0.0016940000000000002,0.9508469999999999,-0.309652,-2.481411,2.966444,0.335154,0.15004,-0.9473379999999999,0.392583
280,0.101103,-1.291584,-1.037311,0.027816000000000004,0.9612729999999999,-0.274186,-1.225374,3.617839,0.44991499999999995,-0.33320500000000003,0.17993199999999998,-1.53929
281,0.197831,-1.287668,-0.991044,0.054905999999999996,0.9601860000000001,-0.273907,0.730506,1.994241,0.9143110000000001,0.369884,0.298267,-1.3452030000000001
282,0.26172,-1.254386,-0.9422530000000001,0.080509,0.9503590000000001,-0.300557,1.937568,0.05931,1.030975,0.18601700000000002,0.162099,-0.821117
283,0.234616,-1.200534,-0.9455620000000001,0.084121,0.932233,-0.351943,2.6759,-1.158906,0.27712,0.32454,-0.73779,1.018096
284,0.259127,-1.182792,-0.974657,0.096945,0.925666,-0.365708,-0.08191799999999999,4.634412,-0.614827,-0.285619,-2.0668860000000002,2.955125
285,0.23915799999999998,-1.144899,-1.024214,0.097866,0.910668,-0.401378,5.236826000000001,-5.145856,-0.704012,-1.871868,-1.397729,0.403956
286,0.10711199999999999,-1.142308,-1.100171,0.044419,0.909595,-0.413113,-3.2711580000000002,-0.192064,-1.1180290000000002,2.572768,1.4492459999999998,4.032178
287,0.18599000000000002,-1.165082,-1.068868,0.072983,0.9188209999999999,-0.387866,-0.8760370000000001,3.794337,0.76405,0.368149,-0.579801,1.184604
288,0.270862,-1.232026,-1.0643479999999998,0.088918,0.9431639999999999,-0.320209,-4.512335,4.532983,-1.776891,-0.37056500000000003,-0.194324,1.0830110000000002
289,0.233269,-1.349494,-1.186434,0.050738,0.975613,-0.21355,-5.127001,2.991016,-3.776783,-1.123996,3.015018,1.1496469999999999
290,-0.142055,-1.413143,-1.538331,-0.022227,0.987598,-0.15541300000000002,-2.171786,-4.197642,-3.098519,-0.07660399999999999,3.093578,0.621081
291,-0.6663899999999999,-1.437908,-1.969424,-0.081898,0.991183,-0.104143,-2.585826,-4.098125,-1.787625,1.314594,1.9633909999999999,-0.23670700000000003
292,-1.259311,-1.4588139999999998,-2.5081759999999997,-0.106359,0.9937370000000001,-0.034244,-3.6707059999999996,-2.47217,-0.668176,0.416966,1.182762,-0.219006
293,-2.019781,-1.4503270000000001,3.048473,-0.108254,0.9927520000000001,0.052157,-3.922131,-1.102499,0.149775,-0.983817,0.25561500000000004,-1.089694
294,-2.404445,-1.412728,2.657076,-0.10580099999999999,0.987533,0.11653699999999999,-3.0750610000000003,0.46829,0.071426,-0.9884379999999999,-0.042480000000000004,-1.3004360000000001
295,-2.57343,-1.3674520000000001,2.4641,-0.10865799999999999,0.979397,0.170209,-2.662357,1.529276,-0.012509000000000001,-0.275375,-0.310146,-0.7548189999999999
296,-2.641309,-1.3263120000000002,2.364183,-0.116104,0.9702620000000001,0.212383,-1.9631319999999999,1.28011,-0.11305899999999999,0.547836,-0.918062,-0.570919
297,-2.669364,-1.309597,2.331651,-0.11746199999999998,0.966081,0.22996999999999998,-0.38606799999999997,-0.46117600000000003,0.008078,0.687241,-1.239778,-1.006368
298,-2.665634,-1.307234,2.338673,-0.11936500000000001,0.965468,0.23155799999999999,-0.035129,0.259652,-0.205107,0.49377,-0.809813,-1.2320309999999999
299,-2.632057,-1.307268,2.354734,-0.127055,0.965477,0.22739099999999998,0.358672,1.234078,-0.204673,-0.168844,-1.024284,-0.32193499999999997
300,-2.530657,-1.318538,2.436131,-0.14317,0.9683510000000001,0.20443699999999998,1.348506,0.822894,-0.7986409999999999,-0.098865,-1.126737,-0.388748
301,-2.401275,-1.333016,2.57215,-0.158875,0.9718629999999999,0.17388599999999999,1.7573009999999998,-0.740464,-0.737166,0.067825,-0.8129430000000001,-0.574887
302,-2.2879,-1.355855,2.712343,-0.160752,0.976989,0.14016800000000001,1.9785580000000003,-1.04589,0.058460000000000005,0.521057,-0.692443,-0.386277
303,-2.143218,-1.38789,2.8685389999999997,-0.152885,0.983319,0.098518,2.3435099999999998,-0.295055,0.320693,0.42871800000000004,-0.7897,-0.348594
304,-1.885821,-1.4120059999999999,-3.1390599999999997,-0.150332,0.987419,0.04899,2.802928,-0.9398770000000001,0.00533,-0.037031,-0.787407,-0.342599
305,-1.5152139999999998,-1.421726,-2.741586,-0.148277,0.9889100000000001,-0.00825,3.2659290000000003,-1.0750870000000001,0.116628,0.1222,0.511838,0.290065
306,-1.1045399999999999,-1.404975,-2.293319,-0.14743399999999998,0.986283,-0.074198,3.81524,-2.02734,0.147322,0.583133,1.172958,0.9699200000000001
307,-0.793044,-1.3643290000000001,-1.9225330000000003,-0.146057,0.9787610000000001,-0.143841,3.615469,-2.554825,0.6294390000000001,-0.461029,4.4198900000000005,0.43362
308,-0.5655600000000001,-1.327533,-1.661884,-0.129076,0.970557,-0.20335899999999998,3.12474,-0.856977,1.370523,-1.103208,2.2966849999999996,0.009984
309,-0.354846,-1.2926549999999999,-1.436308,-0.09539600000000001,0.9615670000000001,-0.257458,2.9452580000000004,0.206335,2.016317,-1.476641,1.659175,0.741985
310,-0.186087,-1.233195,-1.267415,-0.061280999999999995,0.9435520000000001,-0.325502,3.7239150000000003,0.21588400000000002,1.351969,-0.475768,0.722906,0.13582
311,-0.094408,-1.17784,-1.182942,-0.036097000000000004,0.923781,-0.381213,2.2431669999999997,0.874251,1.0309979999999999,0.356165,0.048997000000000006,0.29425300000000004
312,-0.036538,-1.1529040000000002,-1.131615,-0.014825,0.913947,-0.405561,1.03377,0.405758,0.690933,0.6294029999999999,-0.071417,0.52107
313,-0.032488,-1.133505,-1.115578,-0.013756,0.9059020000000001,-0.42326099999999994,0.855157,-1.306992,0.260319,0.722252,-0.229663,0.726011
314,-0.048719,-1.126359,-1.101285,-0.020938,0.902853,-0.429437,0.071166,-1.257431,0.267598,0.144595,-0.767217,0.853052
315,-0.053425,-1.13117,-1.093291,-0.022727,0.904911,-0.424992,-0.384042,-0.13247799999999998,0.124108,-0.110773,-1.095966,0.9151959999999999
316,-0.047501,-1.1469790000000002,-1.10919,-0.019527000000000003,0.9115260000000001,-0.41077600000000003,-1.203373,1.40045,-0.49567100000000003,-0.335805,-2.135418,1.0551700000000002
317,-0.057484,-1.194315,-1.12795,-0.021122,0.9299639999999999,-0.36704000000000003,-2.910291,-0.274239,-0.063204,0.213017,-1.6507889999999998,1.125921
318,-0.075464,-1.248168,-1.1369209999999998,-0.023903999999999998,0.9484049999999999,-0.316155,-2.4152400000000003,-0.369205,0.07924400000000001,0.336755,-1.265483,0.811974
319,-0.04803,-1.285557,-1.1237270000000001,-0.01351,0.9595940000000001,-0.281058,-1.452402,1.7862810000000002,0.467768,0.13851,-0.490249,-0.288186
320,0.063809,-1.287249,-1.077831,0.017838999999999997,0.9600690000000001,-0.27918899999999996,0.997315,3.7972870000000003,0.799564,-0.201189,0.129607,-1.731111
321,0.166519,-1.250332,-1.028956,0.052212,0.949089,-0.310646,1.5407819999999999,2.0767599999999997,0.887818,-0.048199,0.439888,-1.691429
322,0.23691900000000002,-1.231539,-0.977671,0.07810700000000001,0.943002,-0.32348699999999997,0.813527,0.262031,1.126482,-0.18473499999999998,-0.192743,-0.651473
323,0.22629699999999997,-1.179131,-0.969203,0.085648,0.924275,-0.371992,3.4419370000000002,0.0241,0.274545,-0.335892,1.087703,0.44021400000000005
324,0.172349,-1.137714,-1.052453,0.07197200000000001,0.907676,-0.41345,2.18915,0.087607,-1.9967810000000001,-1.148586,1.94175,2.6424849999999998
325,0.054812,-1.092219,-1.138227,0.025228999999999998,0.887651,-0.459822,2.241086,-1.826791,-1.2195040000000001,-0.4625,0.050352,1.204421
326,0.010631999999999999,-1.085777,-1.171632,0.004957,0.884666,-0.46619700000000003,-0.787694,0.15876600000000002,-0.696275,0.12115699999999999,-1.3956520000000001,1.678675
327,0.013377000000000002,-1.133521,-1.2163760000000001,0.005665,0.905909,-0.423432,-3.10412,2.943865,-1.202065,0.360928,-1.291025,2.200807
328,-0.009085,-1.20133,-1.316131,-0.003281,0.9325200000000001,-0.361099,-2.966304,2.7956380000000003,-2.347115,-0.44928,3.00881,0.326752
329,-0.100584,-1.248177,-1.405651,-0.031836,0.948408,-0.315445,-2.582893,-1.466787,-0.7526649999999999,0.9836030000000001,1.702303,0.380737
330,-0.18104800000000001,-1.306287,-1.466597,-0.047073000000000004,0.9652209999999999,-0.257157,-2.844891,-0.668874,-0.531191,0.544678,0.423314,0.521195
331,-0.295745,-1.3523040000000002,-1.57412,-0.063172,0.976225,-0.20734,-2.539335,-0.578418,-0.772727,-0.41776899999999995,1.0658889999999999,-0.115521
332,-0.5019680000000001,-1.4034229999999999,-1.7626240000000002,-0.080151,0.9860260000000001,-0.146031,-3.464663,-1.374004,-0.547435,-0.663608,1.270307,-0.5207470000000001
333,-0.8960540000000001,-1.454029,-2.148156,-0.090959,0.99319,-0.072767,-3.453356,0.42310299999999995,-0.553932,-0.8109270000000001,0.747761,-0.8780389999999999
334,-1.416929,-1.464656,-2.707045,-0.10466800000000001,0.9943719999999999,-0.016233,-2.780868,1.928002,-0.786172,0.197305,0.499555,-0.687975
335,-1.7791439999999998,-1.444986,-3.0927540000000002,-0.122745,0.9920959999999999,0.02595,-1.865012,0.6090760000000001,-1.018434,0.44031099999999995,0.290817,-0.501567
336,-1.9351470000000002,-1.420427,3.0222569999999997,-0.139953,0.988716,0.053375,-1.314883,0.634517,-0.665316,0.657561,-0.34831999999999996,-0.471954
337,-1.988668,-1.40456,2.946515,-0.151219,0.986215,0.06714400000000001,-0.597757,1.149845,-0.42168500000000003,0.307606,-0.8864219999999999,-0.547552
338,-2.018236,-1.396362,2.907484,-0.156453,0.984825,0.07508200000000001,-0.393556,-0.152634,-0.15473900000000002,0.19353199999999998,-0.8783340000000001,-0.47062
339,-2.025004,-1.393418,2.913837,-0.158546,0.98431,0.07741100000000001,0.220121,-0.606342,-0.178713,0.23068899999999998,-0.907375,-0.408175
340,-1.9784979999999999,-1.39483,2.961411,-0.160696,0.984558,0.069405,0.5477350000000001,0.235762,-0.064272,0.2508,-0.977035,-0.16083599999999998
341,-1.848834,-1.398564,3.088005,-0.16478399999999999,0.9852049999999999,0.047035,1.439582,0.225064,-0.293038,0.051213,-0.855856,-0.38961
342,-1.6322809999999999,-1.397822,-2.978004,-0.171772,0.9850770000000001,0.010575,2.022527,0.008144,-0.364532,-0.0062369999999999995,-0.811661,-0.293091
343,-1.391284,-1.385445,-2.727822,-0.181316,0.982872,-0.032902999999999995,2.4056290000000002,-0.436497,-0.590954,-0.13913399999999998,-0.774269,0.001698
344,-1.170442,-1.353456,-2.48857,-0.198571,0.976474,-0.084038,2.927718,-0.705344,-0.9437479999999999,-0.389243,-0.595615,0.109367
345,-0.9771,-1.3097020000000001,-2.287347,-0.21395799999999998,0.966108,-0.144405,3.244022,0.189277,-0.632901,-0.313508,-0.369001,0.185893
346,-0.819593,-1.2583469999999999,-2.1177639999999998,-0.22465700000000002,0.951583,-0.20979499999999998,3.603196,-0.694617,-0.48291300000000004,0.07545700000000001,0.234391,0.007509999999999999
347,-0.706553,-1.196445,-1.980433,-0.237394,0.930745,-0.278125,3.949322,-0.701671,-0.351232,0.949675,2.039149,0.332752
348,-0.597649,-1.141256,-1.843466,-0.23433600000000002,0.909157,-0.344262,3.6841690000000002,-1.104734,1.039326,1.246512,2.714118,0.384133
349,-0.469768,-1.1031739999999999,-1.687482,-0.20405,0.8926430000000001,-0.401932,3.164907,0.36142399999999997,2.202455,0.103022,2.426678,0.748428
350,-0.332812,-1.072626,-1.553445,-0.156103,0.878458,-0.451596,2.2173220000000002,0.44730600000000004,2.3260490000000003,-1.136682,1.20928,0.450299
351,-0.251407,-1.053408,-1.447302,-0.12304200000000001,0.8691139999999999,-0.47906000000000004,1.3993229999999999,-0.7650560000000001,1.989672,-0.9188430000000001,0.907833,0.508204
352,-0.19426400000000002,-1.037239,-1.3662299999999998,-0.098182,0.8610030000000001,-0.49903000000000003,1.127416,-0.475603,1.768416,-0.11380799999999999,0.6772199999999999,0.355002
353,-0.133705,-1.025814,-1.288733,-0.069106,0.855137,-0.5137729999999999,0.779355,-0.325021,1.975164,-0.072037,0.610745,0.530573
354,-0.07940499999999999,-1.012132,-1.211154,-0.042045,0.8479639999999999,-0.528381,1.023396,-0.79497,1.804418,-0.11367100000000001,0.36294299999999996,0.54953
355,-0.06282599999999999,-0.996875,-1.149709,-0.034087,0.839779,-0.541855,0.623046,-2.527904,1.551742,-0.134934,-0.586284,0.44752600000000003
356,-0.07846399999999999,-0.994426,-1.097553,-0.042717000000000005,0.8384459999999999,-0.543305,0.009898,-2.7461849999999997,1.259319,-0.05330599999999999,-0.800772,0.541108
357,-0.071687,-1.0041360000000001,-1.062663,-0.03845,0.843699,-0.5354359999999999,-0.6086699999999999,-0.26557600000000003,0.8352129999999999,-0.160342,-1.048349,0.606755
358,-0.048927,-1.02148,-1.0462129999999998,-0.025535,0.8528819999999999,-0.521476,-0.968835,0.681832,0.254643,-0.22866199999999998,-1.0064,0.63369
359,-0.039355,-1.041691,-1.051959,-0.019859,0.863259,-0.504367,-1.011328,0.667071,-0.278677,-0.118782,-0.964242,0.614185
360,-0.044456,-1.0622479999999999,-1.070674,-0.021639,0.873452,-0.486426,-1.085754,0.544481,-0.45956899999999995,-0.098677,-0.879922,0.563757
361,-0.041449,-1.085468,-1.088898,-0.01933,0.8845219999999999,-0.466095,-1.2399129999999998,1.279495,-0.319515,-0.122333,-0.702805,0.279175
362,-0.011923999999999999,-1.11138,-1.099432,-0.005287,0.8963120000000001,-0.44338999999999995,-1.328886,2.32833,-0.125999,-0.215325,-0.48279799999999995,0.186661
363,0.0443,-1.139457,-1.101042,0.018515,0.908407,-0.41767299999999996,-1.421629,3.126267,-0.057166999999999996,-0.278983,-0.35925799999999997,0.174204
364,0.099118,-1.161984,-1.107761,0.039336,0.917594,-0.39556399999999997,-0.837023,2.8483330000000002,-0.32298699999999997,-0.340072,-0.284003,0.064127
365,0.11738599999999999,-1.179309,-1.129019,0.044687,0.924343,-0.378932,-1.056617,1.145943,-0.644943,-0.239313,-0.222606,0.388667
366,0.071909,-1.2078309999999999,-1.169964,0.025509,0.9348479999999999,-0.354124,-1.3152059999999999,-1.002348,-1.045647,-0.123272,0.10328299999999999,0.65164
367,0.037482999999999995,-1.227695,-1.204002,0.012606000000000001,0.941716,-0.33616599999999996,-0.589012,1.065345,-0.076484,0.640912,1.505367,0.571091
368,0.099471,-1.204461,-1.19549,0.035571,0.9336459999999999,-0.356419,2.042569,2.7940419999999997,0.100984,-0.052538,1.362954,0.21562699999999999
369,0.090558,-1.1704,-1.217951,0.035249,0.920906,-0.388181,1.260584,-1.178209,-0.326676,-0.885317,1.200493,-0.024188
370,0.040228,-1.153284,-1.233314,0.016307,0.9141,-0.40515500000000004,0.6817949999999999,-0.62316,-0.36775,-0.34231100000000003,-0.081367,0.93024
371,0.029589999999999998,-1.153905,-1.272189,0.01198,0.914352,-0.404738,-0.33002800000000004,1.7955349999999999,-0.9515520000000001,0.022871000000000002,-0.377212,1.2005299999999999
372,0.017344,-1.170356,-1.327191,0.006761,0.920889,-0.38976,-1.112719,1.8473119999999998,-1.232687,-0.053483,0.092889,1.0767870000000002
373,-0.0008039999999999999,-1.200787,-1.3928040000000002,-0.000291,0.9323239999999999,-0.361618,-1.7194779999999998,2.323846,-1.062347,0.622376,1.150714,0.2957
374,0.031483,-1.241514,-1.405467,0.010179,0.946275,-0.32319699999999996,-2.074414,2.01527,0.22064,0.37892,0.571395,0.428925
375,0.102337,-1.276191,-1.3780270000000001,0.029662,0.956917,-0.288835,-1.560527,2.4203770000000002,0.232256,-0.031875,0.398781,0.342165
376,0.153727,-1.301603,-1.363648,0.040722,0.963986,-0.262809,-1.106476,1.256932,-0.119868,-0.664684,0.295719,0.063926
377,0.137164,-1.3184870000000002,-1.388626,0.034133,0.968339,-0.24728699999999998,-0.621715,0.160972,-0.591504,-0.513305,0.06738200000000001,0.032306
378,0.101497,-1.329316,-1.435199,0.02423,0.970985,-0.2379,-0.436324,0.775162,-0.633725,-0.326613,0.022423,0.010697
379,0.097535,-1.339167,-1.474704,0.022354,0.9732940000000001,-0.228463,-0.45612299999999995,2.316745,-0.38266999999999995,-0.046814,-0.11095799999999999,0.134911
380,0.144866,-1.346809,-1.486813,0.032063999999999995,0.9750200000000001,-0.219783,-0.273096,3.233124,-0.069577,-0.025533,-0.281172,0.17463199999999998
381,0.217979,-1.3481319999999999,-1.481148,0.047754000000000005,0.9753129999999999,-0.215594,0.047948000000000005,3.3932019999999996,0.11299000000000001,-0.061944000000000006,-0.310899,0.12925999999999999
382,0.294509,-1.341056,-1.4718870000000002,0.066099,0.973725,-0.217912,0.488044,3.400751,0.241036,-0.056593,-0.376741,0.105393
383,0.36473099999999997,-1.324027,-1.4716049999999998,0.087128,0.969707,-0.228196,0.994734,3.642839,0.266698,-0.185837,-0.43020200000000003,0.150834
384,0.425937,-1.299483,-1.4909379999999999,0.110726,0.96342,-0.24404499999999998,1.346508,4.270199,0.250191,-0.29383200000000004,-0.49929300000000004,0.258297
385,0.494468,-1.270932,-1.523523,0.140179,0.955376,-0.26000300000000004,1.543879,5.39469,0.18924000000000002,-0.461483,-0.596276,0.38543
386,0.561139,-1.243005,-1.569038,0.171324,0.9467559999999999,-0.27257600000000004,1.5987200000000001,5.3301620000000005,0.028404000000000002,-0.630812,-0.6466149999999999,0.43878999999999996
387,0.576018,-1.2122950000000001,-1.6492310000000001,0.19111199999999998,0.9364239999999999,-0.294249,2.31308,3.9886150000000002,-0.49899799999999994,-0.794201,-0.523826,0.535841
388,0.545833,-1.179714,-1.754331,0.197884,0.9244969999999999,-0.32579600000000003,2.392577,2.9992389999999998,-0.8998940000000001,-0.570122,-0.2572,0.451056
389,0.50681,-1.1534879999999998,-1.857591,0.19672699999999999,0.914183,-0.35435,1.9080110000000001,3.125724,-1.207884,-0.081432,0.672182,0.300715
390,0.5191399999999999,-1.139477,-1.936509,0.207416,0.908415,-0.362983,1.223525,4.464937,-0.921689,0.064831,0.947801,0.243125
391,0.522034,-1.12289,-2.0068650000000003,0.21595100000000003,0.9013559999999999,-0.375392,1.647532,2.6228380000000002,-0.963368,0.059088999999999996,0.45396000000000003,0.30833
392,0.49214300000000005,-1.108435,-2.089456,0.21076999999999999,0.8950020000000001,-0.393121,1.258642,2.076227,-1.393741,-0.078735,0.305789,-0.124884
393,0.467724,-1.113987,-2.159693,0.19886500000000001,0.897465,-0.39370900000000003,0.006532,1.82005,-1.512186,-0.15038800000000002,0.377712,-0.276915
394,0.465189,-1.1380700000000001,-2.2009830000000004,0.188113,0.907826,-0.374782,-1.039685,1.708609,-1.2416129999999999,-0.214984,0.7963520000000001,-0.340779
395,0.486256,-1.171912,-2.2182560000000002,0.1815,0.9214950000000001,-0.343368,-1.456579,2.015857,-0.992818,-0.24458000000000002,0.604735,-0.271806
396,0.5428029999999999,-1.2084620000000001,-2.214819,0.183088,0.9350719999999999,-0.303505,-1.7396009999999997,3.139742,-0.752681,-0.306623,0.389391,-0.198891
397,0.6462760000000001,-1.247325,-2.1846669999999997,0.191416,0.9481379999999999,-0.253752,-2.00164,4.056342,-0.641386,-0.33578,-0.06147999999999999,0.112501
398,0.7923020000000001,-1.289531,-2.120487,0.19761700000000001,0.9607049999999999,-0.194907,-2.3494490000000003,4.256907,-0.6793239999999999,-0.287934,-0.154843,0.13053
399,0.994559,-1.33037,-1.996734,0.199657,0.9712370000000001,-0.12973800000000002,-2.609255,4.085543,-0.49077600000000005,-0.144771,-0.144561,0.153847
400,1.268605,-1.3578350000000001,-1.7976880000000002,0.201768,0.977409,-0.062899,-2.543028,3.908415,-0.209144,0.26040599999999997,-0.23354299999999997,-0.097044
401,1.548163,-1.368036,-1.585399,0.201309,0.979514,-0.004557,-2.020123,3.3521360000000002,-0.07872799999999999,0.304001,-0.45819799999999994,-0.139013
402,1.766445,-1.364365,-1.423732,0.201046,0.978769,0.039844,-1.44387,2.849787,0.105402,0.214863,-0.746805,-0.14044500000000001
403,1.918235,-1.355804,-1.326073,0.20058199999999998,0.976978,0.072636,-0.876568,2.819979,0.14145,0.070918,-0.88335,-0.160512
404,2.021245,-1.350109,-1.280125,0.197055,0.9757469999999999,0.095297,-0.42946899999999993,2.947824,0.01729,-0.042697000000000006,-0.9782649999999999,-0.23926399999999998
405,2.106588,-1.348646,-1.250444,0.189441,0.975426,0.112475,-0.264522,2.691174,-0.145735,-0.230746,-1.0086899999999999,-0.352344
406,2.17473,-1.351412,-1.230642,0.179123,0.976032,0.123581,-0.002441,2.240174,-0.27578600000000003,-0.380233,-1.0526,-0.468339
407,2.2272689999999997,-1.3553030000000001,-1.213778,0.169376,0.9768709999999999,0.130498,-0.119744,1.5778299999999998,-0.238369,-0.285785,-0.848468,-0.401357
408,2.2756819999999998,-1.355864,-1.193684,0.162443,0.9769909999999999,0.138186,-0.10064400000000001,1.430301,-0.12481500000000001,-0.008391,-0.42208999999999997,-0.22740500000000002
409,2.306131,-1.359818,-1.194639,0.15529500000000002,0.977826,0.140475,0.316569,1.660094,-0.143559,-0.043204,0.10431199999999999,-0.180728
410,2.309155,-1.3715959999999998,-1.226759,0.146341,0.980225,0.133183,0.718208,1.615634,-0.295589,-0.45569799999999994,1.453735,-0.255299
411,2.3059369999999997,-1.385258,-1.258534,0.136822,0.9828370000000001,0.12371700000000001,0.6315689999999999,1.454575,-0.169938,-0.49493100000000007,1.826108,-0.23235999999999998
412,2.300737,-1.3829799999999999,-1.307749,0.139132,0.9824139999999999,0.124497,0.042598000000000004,2.708343,0.621235,0.23065,0.321587,0.209015
413,2.311515,-1.372017,-1.361313,0.145723,0.980308,0.13325,0.01983,3.254294,0.7742020000000001,-0.103487,0.2808,0.137898
414,2.3552470000000003,-1.3645180000000001,-1.377634,0.144957,0.9788,0.144682,-0.291392,2.663612,0.109419,-0.23428200000000002,0.41954600000000003,0.113954
415,2.463284,-1.355812,-1.315954,0.133854,0.97698,0.166099,-0.8753209999999999,2.163481,-0.320239,-0.09708,0.819468,0.075127
416,2.574623,-1.347918,-1.2384680000000001,0.118709,0.9752649999999999,0.186443,-0.8421879999999999,1.7412490000000003,-0.519224,-0.031214999999999996,0.8104859999999999,0.08885599999999999
417,2.6949560000000004,-1.33312,-1.155484,0.10169199999999999,0.971888,0.212339,-1.2881479999999998,2.070537,-0.428758,-0.027519,0.654287,0.000978
418,2.8098080000000003,-1.307353,-1.073608,0.08482,0.965499,0.24619699999999997,-1.740435,1.5238530000000001,-0.519879,0.137409,0.75084,0.021411000000000003
419,2.924055,-1.269219,-0.98421,0.064105,0.9548690000000001,0.29002,-2.442793,1.460093,-0.74903,0.46340699999999996,0.8091229999999999,-0.026027999999999996
420,3.0184509999999998,-1.214839,-0.907805,0.042804,0.937313,0.34584499999999996,-3.141987,0.670999,-0.7443569999999999,0.682766,0.929767,-0.25256799999999996
421,3.0747259999999996,-1.1459979999999999,-0.868292,0.027537,0.911122,0.41121199999999997,-3.576656,1.563136,-0.227244,0.039327,0.870281,-1.1334870000000001
422,3.126952,-1.0789799999999998,-0.859611,0.006913,0.8814770000000001,0.47217299999999995,-3.1921060000000003,2.400194,0.033947000000000005,-0.204301,0.725823,-1.429463
423,-3.116902,-1.023013,-0.861251,-0.012856999999999999,0.8536809999999999,0.520634,-2.4981970000000002,1.689746,-0.057503,-0.319738,0.566409,-1.6251719999999998
424,-3.0923689999999997,-0.981524,-0.857025,-0.027344999999999998,0.8313459999999999,0.55508,-1.8365240000000003,0.850825,-0.22699499999999997,-0.015013,0.086394,-0.9592700000000001
425,-3.06153,-0.95247,-0.8508819999999999,-0.046360000000000005,0.81485,0.577813,-1.218804,1.502984,-0.28226799999999996,0.120274,-0.46666,-1.2994620000000001
426,-3.031142,-0.9390639999999999,-0.843493,-0.065093,0.807006,0.586942,-0.200959,1.015879,-0.296967,0.111694,-0.674025,-1.518202
427,-2.996207,-0.9462649999999999,-0.829334,-0.08471000000000001,0.811237,0.578545,0.654463,1.404001,-0.329945,0.43818,-0.606952,-1.171349
428,-2.9591950000000002,-0.959577,-0.826267,-0.104092,0.8189489999999999,0.564343,0.645247,1.86178,0.282563,0.625195,-0.8313389999999999,-0.527691
429,-2.935188,-0.979369,-0.84398,-0.114264,0.8301459999999999,0.545708,1.142261,1.945013,0.880928,0.491583,-0.909858,-0.72802
430,-2.9250599999999998,-1.018848,-0.8655719999999999,-0.112652,0.851505,0.5120979999999999,2.122592,0.7982670000000001,0.9576110000000001,-0.086384,-0.649158,-0.9567700000000001
431,-2.932004,-1.067764,-0.874574,-0.1003,0.876125,0.47153,2.4685509999999997,-0.147706,0.6600010000000001,-0.46879099999999996,-0.538493,-0.647617
432,-2.9476240000000002,-1.124204,-0.8845930000000001,-0.083249,0.901924,0.42378999999999994,2.872595,-0.470649,0.8832909999999999,-0.502078,-0.017478999999999998,-0.5357890000000001
433,-2.967987,-1.189682,-0.900611,-0.064248,0.928251,0.36635700000000004,3.308246,-0.127123,0.911531,-0.407675,0.711596,-0.505746
434,-3.011995,-1.261807,-0.9274969999999999,-0.039299,0.952642,0.301537,3.76071,-1.6450740000000001,1.03521,0.171165,1.804744,0.49691
435,-2.98184,-1.360929,-0.8661059999999999,-0.033138,0.978059,0.20566500000000001,5.567508999999999,-0.643145,-0.937142,0.09836900000000001,3.754455,-0.354621
436,-2.7652099999999997,-1.443484,-0.696344,-0.046662,0.991907,0.11806400000000002,3.4090269999999996,4.21995,0.637473,0.49201999999999996,2.591712,-0.911674
437,-2.720729,-1.514877,-0.715923,-0.022819,0.9984370000000001,0.050980000000000004,3.7362029999999997,1.140145,1.441667,-0.010247,1.8697270000000001,-0.344574
438,-0.124243,-1.5328680000000001,1.8984029999999998,-0.004693,0.999281,-0.037577,4.386878,-1.170209,0.821058,-0.22621799999999997,0.843767,0.19369
439,0.028138999999999997,-1.455494,2.0850009999999997,0.003237,0.99336,-0.11498699999999999,3.611917,-2.067497,0.24315900000000001,0.041639999999999996,0.040423,0.197217
440,-0.052098,-1.3925319999999999,2.064094,-0.009233,0.9841530000000001,-0.177072,2.820922,-3.297802,-0.424155,-0.004912,-0.563071,0.366159
441,-0.13810799999999998,-1.349944,2.0396240000000003,-0.030157,0.9757110000000001,-0.216969,1.648999,-2.86255,-0.362396,-0.100687,-0.702808,0.421879
442,-0.203656,-1.3289090000000001,2.021496,-0.048445,0.970888,-0.234579,0.64784,-2.057763,-0.419559,-0.04677,-1.037981,0.698034
443,-0.264424,-1.322289,1.982902,-0.06427999999999999,0.969281,-0.237402,-0.042952,-0.640146,-0.553319,0.203913,-1.7665680000000001,1.041647
444,-0.29830300000000004,-1.33413,1.932868,-0.068906,0.972125,-0.224102,-1.2414290000000001,1.5548549999999999,-0.18101099999999998,0.350538,-1.826602,1.094219
445,-0.28031,-1.37594,1.8955970000000002,-0.053564999999999995,0.981075,-0.18606,-2.6434189999999997,3.222744,0.317668,0.316687,-1.671291,0.9139950000000001
446,-0.303586,-1.441049,1.817202,-0.038674,0.9915950000000001,-0.123451,-3.4628589999999995,2.314562,0.370792,0.008812,-0.897982,0.006142
447,-0.39765300000000003,-1.506398,1.673774,-0.024908,0.997927,-0.059299,-3.136205,2.76441,0.544481,-0.16777999999999998,-0.692522,-0.42406800000000006
448,-0.740714,-1.553826,1.266091,-0.011358,0.999856,-0.012421,-1.7274610000000001,3.1290419999999997,0.5784229999999999,0.5040640000000001,0.340537,-1.7426599999999999
449,0.32148899999999997,-1.554805,2.283826,0.005007999999999999,0.999872,-0.015036,1.121356,1.636937,0.951679,0.441434,0.43688,-1.392282
450,0.41124099999999997,-1.514234,2.3502259999999997,0.022581999999999998,0.998401,-0.051780999999999994,2.1872580000000004,1.047851,0.8242149999999999,0.46246400000000004,-0.349124,-0.508582
451,0.373813,-1.470468,2.2623290000000003,0.036568,0.9949709999999999,-0.093224,1.62594,3.6688339999999995,0.14502400000000001,-1.066063,-1.880149,1.7713860000000001
452,0.411095,-1.4607139999999998,2.2160849999999996,0.043894999999999997,0.9939469999999999,-0.100691,1.007125,3.116387,0.30698400000000003,-2.713099,-1.484166,-1.9212049999999998
453,0.155166,-1.415437,2.07304,0.023912,0.987956,-0.152865,1.504746,-5.198875,-0.9917290000000001,-0.28224299999999997,3.537786,1.5085469999999999
454,0.071533,-1.472101,1.9571459999999998,0.0070409999999999995,0.995134,-0.098263,-1.761854,2.639812,0.142975,1.36506,0.086226,0.388561
455,0.253387,-1.4660030000000002,2.048837,0.026218,0.9945139999999999,-0.101245,-0.4577,4.341938,-0.141721,0.681012,-0.187568,-1.018933
456,-0.021918,-1.529851,1.7128740000000002,-0.0008960000000000001,0.9991620000000001,-0.040878,-3.656643,3.1808970000000003,-2.187927,-0.994755,1.191985,0.412292
457,-1.973697,-1.507155,-0.277621,-0.058474,0.997976,0.024922,-2.854018,0.018650999999999997,-3.288151,0.006823,2.262004,0.42121400000000003
458,-2.169345,-1.4384540000000001,-0.426113,-0.109002,0.9912559999999999,0.07434,-2.353621,-2.585023,-2.090251,0.9195639999999999,1.603379,-0.136917
459,-2.294157,-1.374652,-0.514541,-0.14607699999999998,0.980825,0.128991,-2.689126,-1.8038419999999997,-2.149143,0.720464,1.337885,-0.22094
460,-2.407316,-1.304406,-0.5832890000000001,-0.176385,0.964727,0.195408,-3.236796,-2.597466,-1.676593,0.238443,1.156824,-0.431508
461,-2.542831,-1.235455,-0.680437,-0.185478,0.944298,0.271834,-3.5871660000000003,-1.438127,-0.655033,-0.172799,0.759163,-0.9716629999999999
462,-2.613899,-1.174742,-0.744207,-0.194253,0.9225899999999999,0.333296,-2.968912,-0.45775200000000005,-0.7384970000000001,-0.306342,0.426332,-1.291792
463,-2.6574299999999997,-1.1179139999999999,-0.78073,-0.203666,0.8991899999999999,0.387262,-2.825082,-0.358695,-0.593409,-0.037453,-0.064549,-1.053583
464,-2.6737830000000002,-1.0716290000000002,-0.814547,-0.215856,0.8779819999999999,0.427257,-2.1130150000000003,1.223835,-0.293501,0.543203,-0.353171,-0.567195
465,-2.6715619999999998,-1.0371620000000001,-0.845417,-0.230379,0.860964,0.45349700000000004,-1.6341450000000002,1.319749,0.08039400000000001,0.6043109999999999,-0.655718,-0.697866
466,-2.683379,-1.027467,-0.8684149999999999,-0.228685,0.855992,0.46365200000000006,-0.203166,-0.042292,0.326075,0.603533,-0.9066059999999999,-1.433791
467,-2.702835,-1.032446,-0.8792469999999999,-0.217808,0.858556,0.464149,0.149983,-0.653261,0.42760200000000004,0.384633,-0.779698,-0.618293
468,-2.709825,-1.046826,-0.88746,-0.20936999999999997,0.8658399999999999,0.454399,1.001047,0.462319,0.42998000000000003,0.280613,-0.842784,-0.49845100000000003
469,-2.6780209999999998,-1.077056,-0.863914,-0.21190900000000001,0.880566,0.42389799999999994,1.823754,0.314116,0.016106,0.0042060000000000005,-0.755215,-0.87449
470,-2.6498630000000003,-1.11325,-0.8220219999999999,-0.20856799999999998,0.8971389999999999,0.389401,2.205136,-0.783293,-0.004393,0.184673,-0.615095,-0.64674
471,-2.625369,-1.1561,-0.7765380000000001,-0.198873,0.9152389999999999,0.3504,2.407588,-0.738492,0.337726,0.174977,-0.633195,-0.60774
472,-2.59198,-1.204697,-0.729611,-0.18698599999999999,0.933731,0.305247,2.635463,-0.440582,0.498101,-0.00912,-0.552139,-0.553279
473,-2.5441830000000003,-1.257292,-0.665362,-0.173466,0.951259,0.254969,2.86824,-0.799617,0.571758,-0.070873,0.079762,-0.138071
474,-2.472395,-1.3177290000000002,-0.574652,-0.155313,0.9681489999999999,0.196363,3.3666620000000003,-0.943139,0.86598,0.394144,1.128012,0.353243
475,-2.322829,-1.385381,-0.375548,-0.134623,0.9828600000000001,0.125927,4.508684,-2.962908,0.4108,0.136134,3.440404,0.35794499999999996
476,-1.997638,-1.437719,-0.017218,-0.120762,0.991158,0.054923,3.046991,-0.185399,1.060397,-0.188107,2.256065,-0.15804200000000002
477,-1.5972309999999998,-1.483639,0.358417,-0.086988,0.9962040000000001,0.0023,2.392759,1.907252,1.780605,-0.157168,1.955075,-0.010509000000000001
478,-0.837283,-1.490683,1.104117,-0.059426,0.996793,-0.053559,2.914429,0.211529,1.280084,-0.554221,1.5926850000000001,-0.423523
479,-0.286073,-1.460302,1.6762709999999998,-0.031111,0.9939020000000001,-0.105768,2.44348,-1.901789,1.6405619999999999,0.18273699999999998,0.991892,0.008417000000000001
480,-0.07047,-1.421108,1.9344419999999998,-0.010499,0.988818,-0.14874500000000002,2.063648,-1.6186969999999998,0.9731120000000001,0.398485,-0.028658,0.10435799999999999
481,-0.015547,-1.392809,2.019939,-0.002752,0.984202,-0.177017,1.0380690000000001,-1.874396,0.538987,0.19982,-0.405314,0.44944700000000004
482,-0.015993,-1.3800709999999998,2.07254,-0.003032,0.981867,-0.18953699999999998,0.459397,-2.76792,0.447428,0.007197,-0.682505,0.623268
483,-0.024931000000000002,-1.373646,2.10748,-0.004883,0.9806290000000001,-0.195805,0.242223,-1.6861270000000002,0.23515300000000003,-0.30189499999999997,-1.298927,0.814397
484,-0.047034,-1.376085,2.095598,-0.009097,0.9811040000000001,-0.19326,-0.434667,0.284878,-0.304075,-0.111555,-2.043237,1.0035020000000001
485,-0.066355,-1.3998389999999998,2.057023,-0.01128,0.9854219999999999,-0.16974,-1.7803529999999999,1.102711,-0.128652,0.258152,-1.9201150000000002,0.8934190000000001
486,-0.056438,-1.449056,2.053599,-0.006848999999999999,0.992599,-0.12122899999999999,-2.679328,0.595233,0.2193,0.30903400000000003,-1.261016,0.472578
487,0.04571,-1.500968,2.1284349999999996,0.003187,0.9975629999999999,-0.069668,-2.499248,1.9912040000000002,0.480483,-0.284391,-0.493962,-0.737965
488,0.593738,-1.5395159999999999,2.628141,0.017461,0.999511,-0.025868000000000002,-1.878891,2.468956,0.614527,-0.14088900000000001,-0.31280399999999997,-1.03709
489,1.502581,-1.539379,-2.783593,0.031275,0.9995069999999999,-0.002137,-0.709088,1.5120360000000002,0.741429,0.344762,-0.232127,-1.056549
490,1.551285,-1.523091,-2.756773,0.047635000000000004,0.998862,-0.00093,0.44633199999999995,0.8674860000000001,0.81976,0.184589,-0.401252,-0.726838
491,1.181109,-1.503854,-3.135543,0.061846000000000005,0.9977600000000001,-0.0254,1.6876380000000002,0.034256,0.5891489999999999,0.15375999999999998,-0.580799,-0.431738
492,0.786556,-1.475503,2.749702,0.067342,0.9954629999999999,-0.067186,2.177491,0.769543,0.103451,0.224681,-1.062571,1.168276
493,0.844015,-1.481466,2.7580720000000003,0.066651,0.9960129999999999,-0.059262,-2.025906,2.734365,-0.361058,-0.5480649999999999,-2.1683,1.8913389999999999
494,1.362755,-1.506189,-3.052982,0.063135,0.997914,-0.013328,-0.953307,1.432009,-0.078432,-4.257562999999999,-1.040562,-5.561975
495,0.564401,-1.519541,2.564275,0.027382,0.9986870000000001,-0.043251,-5.191539,0.859174,-1.268459,1.9602580000000003,4.076569999999999,5.962486
496,2.599847,-1.5139479999999998,-1.850375,0.029274,0.9983850000000001,0.048644,0.9837629999999999,8.169013,0.588763,0.322548,0.35641300000000004,-3.586135
497,2.9675279999999997,-1.531387,-1.504761,0.006812,0.999224,0.038741000000000005,-2.7805299999999997,-2.576244,-2.049451,-0.674247,-0.23365999999999998,2.921723
498,-2.8267849999999997,-1.425699,-1.057479,-0.044763,0.989492,0.137464,-4.877853,4.668108999999999,-2.215457,-0.758627,0.513972,1.552188
499,-2.6741639999999998,-1.360574,-0.9368219999999999,-0.09402200000000001,0.977985,0.186279,-2.0912509999999997,-1.1450799999999999,-2.770725,-0.49721099999999996,2.570966,0.452408
500,-2.6605849999999998,-1.280386,-0.82899,-0.13247899999999999,0.958126,0.253844,-2.9360880000000003,-5.397759,-2.54685,1.3946100000000001,2.330066,-0.798048
501,-2.713126,-1.211514,-0.8294950000000001,-0.14607799999999999,0.93615,0.31981,-3.8037620000000003,-1.040897,-0.968979,0.674582,1.069084,-1.061967
502,-2.771507,-1.134836,-0.881756,-0.15273399999999998,0.906465,0.393683,-3.489352,-0.237083,-0.325812,-1.124823,0.35899200000000003,-1.408103
503,-2.793788,-1.079184,-0.92489,-0.160888,0.8815729999999999,0.443776,-2.6539669999999997,1.3710360000000001,-0.139371,-0.169053,-0.012676,-1.083302
504,-2.7580259999999996,-1.0393940000000002,-0.927736,-0.189636,0.8620969999999999,0.46991400000000005,-1.452624,2.0643740000000004,-0.874283,0.220169,-0.32054699999999997,-0.8490340000000001
505,-2.728127,-1.0152290000000002,-0.910502,-0.21190900000000001,0.8496020000000001,0.48297399999999996,-0.552127,-0.272894,-0.842565,1.105616,-0.9341200000000001,-1.275195
506,-2.7133529999999997,-1.0110649999999999,-0.88933,-0.22048800000000002,0.847398,0.483005,0.11932999999999999,0.22495900000000002,-0.185829,1.219527,-0.425767,-0.701816
507,-2.717377,-1.014312,-0.9082709999999999,-0.21740900000000002,0.849117,0.481378,-0.06907999999999999,0.586004,0.796225,0.978563,-0.590542,-0.456521
508,-2.724581,-1.0286469999999999,-0.924733,-0.208983,0.8566020000000001,0.471753,0.9103620000000001,0.288738,0.493663,0.17076,-0.925587,-1.0379610000000001
509,-2.7135,-1.05465,-0.9098879999999999,-0.20488,0.8697280000000001,0.448988,1.47813,-0.493751,0.146118,0.026184,-0.509254,-0.960859
510,-2.710121,-1.09028,-0.8846700000000001,-0.19330799999999998,0.886756,0.41986599999999996,2.168978,-1.044913,0.183696,0.039087000000000004,-0.543251,-0.778722
511,-2.694525,-1.136412,-0.8407129999999999,-0.18194000000000002,0.9071290000000001,0.37948200000000004,2.663527,-1.275181,0.063532,-0.17770999999999998,-0.687449,-0.647838
512,-2.656587,-1.189178,-0.7768510000000001,-0.173623,0.928063,0.329463,3.024896,-0.8578309999999999,0.076204,-0.355155,-0.5498890000000001,-0.7385510000000001
513,-2.597061,-1.2435399999999999,-0.698228,-0.166509,0.9469280000000001,0.274946,3.05496,-0.712407,0.179845,-0.328059,-0.47453100000000004,-0.679517
514,-2.5127900000000003,-1.301691,-0.591596,-0.15637,0.964009,0.215006,3.577128,-0.650041,0.381033,0.267439,0.9717969999999999,0.41891999999999996
515,-2.315903,-1.3732010000000001,-0.37228,-0.14428,0.980541,0.133098,4.868914,-1.609071,0.6647460000000001,0.7113119999999999,3.628879,0.772618
516,-1.945601,-1.4464139999999999,0.039809,-0.115425,0.992275,0.045408,3.9945230000000005,-1.056869,1.590488,-0.147056,5.287541,0.512712
517,-1.4159629999999999,-1.487827,0.577008,-0.081845,0.99656,-0.012775,2.546694,0.227239,1.9333790000000002,-0.8819610000000001,1.9591889999999998,0.103564
518,-0.46898900000000004,-1.49955,1.495682,-0.032154,0.9974629999999999,-0.063459,2.825959,1.7671299999999999,2.347827,-0.43400200000000005,1.487141,-0.369799
519,0.001497,-1.4341700000000002,1.9642439999999999,0.000204,0.9906809999999999,-0.136179,3.672254,-0.833219,1.351874,-0.26235,1.077739,-0.27875300000000003
520,0.095787,-1.3751520000000002,2.077261,0.018591,0.980923,-0.193492,2.470891,-0.142102,0.8576239999999999,0.594599,-0.178555,0.122279
521,0.098704,-1.33591,2.090807,0.022933000000000002,0.972541,-0.23158800000000002,1.599186,-1.5520559999999999,0.164338,0.4563,-0.143043,0.131246
522,0.040918,-1.312468,2.103898,0.01045,0.9668180000000001,-0.255241,0.849749,-4.3485629999999995,0.320784,0.36928,-0.23606,0.339287
523,-0.036012,-1.3047229999999999,2.107719,-0.009467,0.9648110000000001,-0.262765,0.185859,-3.2576240000000003,-0.192657,-0.14013,-1.8892490000000002,1.064858
524,-0.108043,-1.307381,2.062864,-0.028076,0.965506,-0.258851,-0.513175,-0.16431300000000001,-0.8552549999999999,-0.029617,-2.109824,1.113389
525,-0.15429600000000002,-1.3300450000000001,1.9822950000000001,-0.036641,0.971159,-0.235587,-1.7892669999999997,2.184933,-0.626829,0.42674799999999996,-1.995009,0.92948
526,-0.201356,-1.3791280000000001,1.9137790000000001,-0.038095,0.9816879999999999,-0.186631,-2.8862099999999997,0.260766,-0.139575,0.186228,-0.888533,0.5592199999999999
527,-0.24388200000000002,-1.4342110000000001,1.861364,-0.032872000000000005,0.9906870000000001,-0.132105,-2.579157,0.943749,0.35734899999999997,-0.089991,-0.684199,0.15415399999999999
528,-0.158649,-1.481691,1.8952810000000002,-0.014052,0.996033,-0.087826,-2.125082,3.479799,0.8550620000000001,-0.651613,-0.34692399999999995,-0.8777200000000001
529,0.19078499999999998,-1.510593,2.1764240000000004,0.011397,0.998188,-0.05901,-0.8436299999999999,2.796848,1.103102,0.042696,0.060589,-1.6974599999999997
530,0.55655,-1.49997,2.5226029999999997,0.037353,0.9974930000000001,-0.060039,0.502394,0.1141,1.363769,0.236359,-0.07369500000000001,-1.0519450000000001
531,0.594641,-1.4627620000000001,2.5762110000000003,0.060384,0.9941700000000001,-0.089286,2.008244,-1.276897,1.060945,0.39799,-0.422728,-0.48282700000000006
532,0.519105,-1.418213,2.489632,0.075391,0.988382,-0.131946,1.7689110000000001,2.7214259999999997,0.384374,0.12414800000000001,-1.315027,2.6934240000000003
533,0.5683739999999999,-1.410701,2.453573,0.085793,0.9872120000000001,-0.134329,0.515551,3.113988,0.004444,-3.510811,0.125474,-3.245127
534,0.408356,-1.399553,2.372893,0.06766,0.985374,-0.156376,-0.515764,-2.708016,-1.162866,1.404981,2.045983,3.6141699999999997
535,0.422112,-1.437076,2.3860419999999998,0.054609000000000005,0.991073,-0.12159400000000001,-1.397622,1.6272870000000002,0.224789,1.171237,-0.617034,1.398952
536,0.725338,-1.482438,2.6045119999999997,0.058508000000000004,0.996099,-0.065995,-3.9320190000000004,5.1082160000000005,-0.9414399999999999,-0.564444,-0.159719,0.583878
537,2.943665,-1.52331,-1.5637459999999999,0.009314,0.998873,0.046444,-5.802788,4.939161,-3.393041,-1.516608,1.156477,0.621571
538,-2.638889,-1.419408,-0.893236,-0.072643,0.988563,0.132122,-2.965735,-1.197319,-3.8642199999999995,-0.373341,2.467477,0.991032
539,-2.541023,-1.34615,-0.71396,-0.12587,0.974873,0.18375999999999998,-2.028381,-4.217779,-2.978929,1.362168,2.4252580000000004,-0.422285
540,-2.5705810000000002,-1.27009,-0.705318,-0.160078,0.9551280000000001,0.24918800000000002,-3.9788050000000004,-0.59633,-1.7003720000000002,0.852949,1.658184,-0.566647
541,-2.643955,-1.183833,-0.7879229999999999,-0.180134,0.926059,0.331592,-4.143073,0.32416,-0.78296,-0.172833,0.886669,-1.403125
542,-2.67674,-1.111648,-0.829616,-0.198669,0.89643,0.396144,-3.2906690000000003,0.232039,-0.862345,-0.290696,0.45856499999999994,-1.562663
543,-2.686741,-1.055256,-0.864266,-0.216585,0.8700260000000001,0.442867,-2.667865,1.8036299999999998,-0.41456000000000004,0.407335,0.235961,-0.9603229999999999
544,-2.675738,-1.011326,-0.88728,-0.238394,0.8475360000000001,0.47416899999999995,-1.69881,0.63293,-0.46504399999999996,0.44165600000000005,-0.748934,-0.904025
545,-2.675029,-0.999449,-0.8722219999999999,-0.243242,0.841173,0.48295699999999997,0.194004,-0.8233530000000001,-0.7608090000000001,0.7142189999999999,-0.630113,-1.394197
546,-2.667586,-0.997318,-0.8591489999999999,-0.24764699999999998,0.8400190000000001,0.48272600000000004,-0.090369,0.465908,-0.051942999999999996,0.6216550000000001,-0.459495,-0.919967
547,-2.6514919999999997,-1.00081,-0.8645729999999999,-0.25400100000000003,0.841908,0.476088,0.429267,1.029564,0.265022,0.280017,-1.104161,-0.662687
548,-2.6245689999999997,-1.018912,-0.849358,-0.25914899999999996,0.8515379999999999,0.45575299999999996,1.081185,0.537269,0.0010140000000000001,0.38555300000000003,-0.807974,-0.729191
549,-2.6108,-1.040921,-0.8323530000000001,-0.255848,0.86287,0.43586899999999995,1.378383,-0.439755,0.317331,0.498569,-0.692185,-0.843706
550,-2.6083540000000003,-1.0766,-0.814846,-0.241103,0.88035,0.408458,1.8899689999999998,-0.696419,0.655587,0.333083,-0.5912270000000001,-0.742839
551,-2.610106,-1.119381,-0.797225,-0.221084,0.8998309999999999,0.376048,2.185186,-0.927851,0.732721,-0.08618200000000001,-0.603322,-0.7169449999999999
552,-2.593685,-1.169598,-0.758355,-0.203414,0.920594,0.333341,2.796174,-0.963275,0.537277,-0.24685700000000002,-0.43696599999999997,-0.557614
553,-2.5435060000000003,-1.232378,-0.692505,-0.186923,0.9432809999999999,0.27434899999999995,3.716811,-0.469049,0.819744,0.378161,1.2998370000000001,0.6118359999999999
554,-2.469325,-1.309017,-0.5647300000000001,-0.161155,0.965931,0.202469,4.777312,-3.7975489999999996,0.578248,-0.12603,4.611416,0.33886700000000003
555,-2.282454,-1.385561,-0.312573,-0.139449,0.982893,0.12026300000000001,4.064816,-1.350277,0.845736,-0.982835,3.710695,0.049644
556,-2.0022849999999996,-1.450461,-0.046462,-0.108999,0.992768,0.050186,3.2603150000000003,1.768705,1.8445220000000002,-1.014353,1.7474349999999998,0.109757
557,-1.490908,-1.497698,0.42703500000000005,-0.07272200000000001,0.9973290000000001,-0.005822,2.260646,1.7859740000000002,1.855677,-0.826448,1.432892,0.047067000000000005
558,-0.534127,-1.506408,1.3693110000000002,-0.032715,0.997928,-0.055310000000000005,2.563021,-0.200848,2.146618,-0.35884099999999997,1.29646,0.027142000000000003
559,0.038843,-1.46681,1.970578,0.004029,0.994598,-0.103673,2.365977,-1.8322080000000003,1.6249719999999999,1.0090780000000001,-0.028122,0.496968
560,0.14393,-1.420554,2.11239,0.021463999999999997,0.988735,-0.148099,1.956749,-1.620627,1.017228,0.774968,-0.559261,0.272748
561,0.194822,-1.391038,2.196397,0.034608,0.9838870000000001,-0.175386,0.9902219999999999,-1.579118,0.798916,0.424804,-0.78064,0.314241
562,0.203896,-1.380011,2.240991,0.038393000000000004,0.981856,-0.18567899999999998,0.28888800000000003,-1.8964990000000002,0.32440599999999997,-0.41571199999999997,-1.707625,0.8835860000000001
563,0.154055,-1.383173,2.210114,0.028618,0.98245,-0.184293,-0.445198,-0.050232,-0.672261,-0.35181399999999996,-2.3372330000000003,0.937039
564,0.11077999999999999,-1.411242,2.152671,0.017562,0.987298,-0.157878,-1.972993,0.5118729999999999,-0.589649,-0.010451,-2.273767,0.9371440000000001
565,0.07388099999999999,-1.463698,2.118788,0.007887,0.9942700000000001,-0.10655999999999999,-2.64378,-0.23629699999999998,-0.454507,0.030427999999999997,-0.7522810000000001,0.178078
566,0.08656799999999999,-1.5076889999999998,2.1227150000000004,0.005446,0.998009,-0.06275700000000001,-1.92292,1.001929,0.157828,-0.5755,-0.186532,-0.7624529999999999
567,0.495278,-1.5300799999999999,2.488747,0.01929,0.9991709999999999,-0.035710000000000006,-0.869448,2.695843,0.810358,-0.476703,0.037969,-1.273906
568,0.8334229999999999,-1.5132889999999999,2.772919,0.042486,0.998347,-0.038589,0.831023,2.376075,1.24673,-0.027607999999999997,-0.045466,-1.171494
569,0.83335,-1.474685,2.7485,0.070996,0.9953850000000001,-0.06449400000000001,1.6562540000000001,0.43302299999999994,1.327623,-0.026181,-0.24521700000000002,-0.9706319999999999
570,0.646566,-1.426497,2.581769,0.086614,0.989607,-0.11475,2.797956,-1.745227,0.545769,0.45701099999999995,-0.641356,0.236058
571,0.503545,-1.392412,2.410772,0.08561,0.984132,-0.155396,1.214785,3.8242769999999995,-0.804499,-3.533196,0.21939,-3.152587
572,0.390322,-1.365242,2.239015,0.077654,0.9789479999999999,-0.18874100000000002,3.434648,-2.789559,-0.447233,-2.1138169999999996,3.3419440000000002,-2.174083
573,0.23057800000000003,-1.354976,2.134632,0.048937,0.976801,-0.20846399999999998,-1.6426319999999999,-0.5322479999999999,-0.8381040000000001,1.938016,-0.05979400000000001,2.413924
574,0.313052,-1.386314,2.192312,0.056485,0.983031,-0.174501,-1.934398,2.610026,0.28494200000000003,-0.22060900000000003,-0.550613,1.2180799999999998
575,0.469096,-1.461455,2.275424,0.049314,0.994028,-0.097299,-4.50146,4.413362,-1.7051009999999998,-1.003217,0.21544499999999997,0.5414979999999999
576,-2.574077,-1.562609,-0.8457680000000001,-0.004061,0.999967,0.006371,-5.102663,2.6801150000000002,-3.5679220000000003,-1.320127,2.348346,0.828849
577,-2.300394,-1.464056,-0.5415439999999999,-0.07938200000000001,0.994309,0.070983,-1.8132419999999998,-4.264808,-3.6578230000000005,0.69895,3.013931,-0.081573
578,-2.332021,-1.3945610000000002,-0.47769799999999996,-0.126911,0.984511,0.120919,-2.751378,-3.754259,-2.118245,1.08617,1.9517380000000002,-0.283898
579,-2.5109369999999998,-1.31785,-0.629279,-0.147557,0.9681790000000001,0.2021,-4.425109,-0.9531620000000001,-0.79077,0.258916,1.209235,-0.587064
580,-2.644112,-1.242353,-0.7622439999999999,-0.153926,0.9465459999999999,0.283454,-3.7966339999999996,0.06402100000000001,-0.498196,-0.82195,0.576907,-1.450049
581,-2.694003,-1.182579,-0.811612,-0.163822,0.925585,0.34123600000000004,-2.847081,-0.21288600000000002,-0.5382100000000001,-0.661587,-0.076907,-1.383366
582,-2.713722,-1.1266260000000001,-0.8499610000000001,-0.178295,0.902968,0.39095799999999997,-2.769813,1.392954,-0.45640699999999995,0.192882,-0.194426,-0.738873
583,-2.708293,-1.080646,-0.8743190000000001,-0.197651,0.8822620000000001,0.427241,-1.945329,0.919026,-0.401971,0.683094,-0.943816,-0.667048
584,-2.71552,-1.058476,-0.8843479999999999,-0.202593,0.871609,0.446363,-0.650133,-0.29436799999999996,-0.181997,0.8626280000000001,-0.9444239999999999,-1.106428
585,-2.7184060000000003,-1.051397,-0.8891049999999999,-0.203833,0.8681180000000001,0.452561,-0.379517,0.586787,0.073001,0.658041,-0.556716,-1.130585
586,-2.6975729999999998,-1.0476379999999998,-0.8940610000000001,-0.214617,0.866245,0.451161,0.13283,1.420857,-0.094337,-0.089201,-0.8905069999999999,-0.769474
587,-2.653268,-1.056938,-0.86498,-0.23059899999999997,0.8708549999999999,0.43407799999999996,0.9554860000000001,0.458086,-0.6001029999999999,-0.065498,-0.8273209999999999,-0.719936
588,-2.617814,-1.075572,-0.815663,-0.237683,0.879862,0.41150699999999996,1.7397349999999998,-0.637911,-0.523786,0.45971300000000004,-0.683771,-0.802697
589,-2.581727,-1.109321,-0.764139,-0.236463,0.8953959999999999,0.377277,2.142626,-0.503635,0.178541,0.746504,-0.640163,-0.667133
590,-2.563491,-1.152125,-0.724504,-0.22214299999999998,0.9136299999999999,0.340471,2.3503700000000003,-1.0103950000000002,0.453038,0.45592299999999997,-0.709666,-0.597643
591,-2.5331740000000003,-1.200252,-0.670425,-0.20696900000000001,0.9321299999999999,0.297127,2.7086959999999998,-1.0001,0.49825699999999995,-0.094178,-0.5946819999999999,-0.7616350000000001
592,-2.487359,-1.2529370000000002,-0.599143,-0.190181,0.949907,0.24798499999999998,2.92987,-0.9654530000000001,0.699515,0.199824,0.787612,-0.036376
593,-2.410741,-1.319517,-0.494462,-0.165955,0.9685950000000001,0.185125,3.7186190000000003,-1.85001,1.175107,0.731126,1.379885,0.675303
594,-2.2841549999999997,-1.401239,-0.291335,-0.127577,0.9856600000000001,0.110403,4.47513,-3.961696,1.661661,0.6601090000000001,4.986295,0.976389
595,-2.0574049999999997,-1.47009,-0.022867,-0.088824,0.994933,0.046991000000000005,2.969266,-1.105168,1.770328,-1.2192049999999999,2.11464,0.162695
596,-1.346487,-1.524517,0.713548,-0.04501,0.9989290000000001,-0.010269,3.202138,-1.050219,2.477979,-1.395404,1.811908,0.739242
597,-0.092151,-1.474459,1.977239,-0.008847,0.9953629999999999,-0.095738,4.755289,-0.566405,1.354824,-0.9808680000000001,1.151899,-0.142085
598,0.043412,-1.3931879999999999,2.122416,0.007667,0.9842690000000001,-0.176489,3.3483650000000003,-0.21686,0.67691,0.240441,-0.076081,-0.031336
599,0.0791,-1.348395,2.147439,0.017428,0.9753709999999999,-0.219867,1.6948029999999998,0.802652,0.23569600000000002,0.48104600000000003,-0.345671,0.153324
600,0.054737,-1.3207,2.146292,0.01354,0.9688889999999999,-0.247113,1.117675,-2.366276,0.136381,0.7500560000000001,-0.158387,0.514676
601,0.017294999999999998,-1.312835,2.156229,0.004412,0.9669120000000001,-0.25505900000000004,0.10234800000000001,-2.33485,0.084383,-0.086397,-1.312859,0.80758
602,-0.023857,-1.31233,2.149555,-0.006097,0.966783,-0.25551199999999996,0.000465,-1.229105,-0.356784,-0.33902600000000005,-2.1317310000000003,1.2410780000000001
603,-0.063547,-1.322541,2.111082,-0.015603,0.9693430000000001,-0.24520300000000003,-1.20028,0.326218,-0.120405,-0.001884,-2.350217,1.434122
604,-0.031275,-1.376431,2.1455450000000003,-0.006039,0.9811709999999999,-0.193031,-3.139815,-0.307177,0.6498649999999999,0.6643789999999999,-1.2650299999999999,0.747184
605,0.068622,-1.430834,2.225861,0.009564,0.9902209999999999,-0.13915,-2.3521229999999997,2.1200490000000003,0.634097,-0.123867,-0.587969,-0.454585
606,0.30544499999999997,-1.4623629999999999,2.397093,0.032533,0.9941270000000001,-0.103177,-1.363234,3.6564339999999995,0.7779050000000001,-0.6613479999999999,-0.298586,-1.033313
607,0.5626220000000001,-1.467005,2.593834,0.05524400000000001,0.994619,-0.087604,-0.357659,2.506095,0.931681,0.012231,-0.179647,-1.278622
608,0.743779,-1.4521709999999999,2.746167,0.080108,0.992972,-0.08707000000000001,0.418628,0.953672,1.136714,-0.00238,-0.44006999999999996,-0.450115
609,0.719284,-1.41947,2.7175439999999997,0.09930499999999999,0.9885719999999999,-0.11338800000000002,1.912639,-0.298493,0.757785,-0.038713,-0.488267,-0.28678899999999996
610,0.544492,-1.372195,2.546386,0.102188,0.9803440000000001,-0.16875199999999999,3.267408,0.607172,-0.194244,-0.352661,-0.645047,1.42719
611,0.41908999999999996,-1.331175,2.372373,0.096573,0.9714280000000001,-0.216783,1.965114,0.497225,-0.872975,-2.203018,-0.082649,0.527772
612,0.21517399999999998,-1.306295,2.238866,0.055817,0.9652229999999999,-0.255387,0.641544,-0.991135,-1.2808959999999998,0.360931,2.505892,1.4000709999999998
613,0.20697800000000002,-1.332698,2.198817,0.048466,0.9717879999999999,-0.230807,-1.8360319999999999,2.487641,-0.362625,0.798031,-1.503771,1.5463129999999998
614,0.317911,-1.404217,2.234713,0.051823,0.986158,-0.15748099999999998,-4.328954,4.9100790000000005,-1.130897,-1.3994790000000001,1.243624,0.21276399999999998
615,0.328417,-1.519808,2.152719,0.016412,0.9987,-0.048164,-5.897026,3.170401,-2.944916,-1.130487,2.033419,0.586128
616,-2.316132,-1.494713,-0.500242,-0.055813999999999996,0.997107,0.051512,-3.500411,-0.9112600000000001,-3.542514,0.721204,3.376443,0.644365
617,-2.377394,-1.4240760000000001,-0.527334,-0.10113899999999999,0.9892559999999999,0.105521,-2.606473,-1.976503,-2.196423,1.365696,2.1123369999999997,-0.48248900000000006
618,-2.477904,-1.3484479999999999,-0.58516,-0.13583299999999998,0.975382,0.17369300000000001,-3.5684699999999996,-2.08287,-1.6678330000000001,0.514251,1.369802,-0.35234299999999996
619,-2.635569,-1.2726600000000001,-0.711591,-0.142368,0.955885,0.256913,-4.351205,-1.50433,-0.215919,-0.088604,0.7785350000000001,-1.003266
620,-2.729332,-1.203994,-0.8053779999999999,-0.143691,0.9334790000000001,0.328571,-3.27057,0.586309,-0.22920900000000002,-0.610474,0.1222,-1.528446
621,-2.76447,-1.1483370000000002,-0.853567,-0.150978,0.912084,0.38118,-2.754757,0.304021,-0.146196,-0.41452799999999995,-0.11354500000000001,-0.9589690000000001
622,-2.77693,-1.103429,-0.8857309999999999,-0.160672,0.8927579999999999,0.4209,-2.064596,0.9017219999999999,-0.23187199999999997,0.215192,-0.5705680000000001,-0.7834939999999999
623,-2.777707,-1.078627,-0.8979450000000001,-0.168176,0.88131,0.44158500000000006,-0.605564,0.39671999999999996,-0.14946199999999998,0.425195,-0.938301,-1.314129
624,-2.76342,-1.074638,-0.8867889999999999,-0.175764,0.879418,0.44240100000000004,-0.10433599999999998,0.151823,-0.346473,0.186521,-0.919594,-1.068149
625,-2.747361,-1.0712760000000001,-0.8822610000000001,-0.18398,0.877813,0.442248,0.064712,0.980089,-0.097458,0.181081,-0.8836719999999999,-0.553546
626,-2.705103,-1.082884,-0.860095,-0.198177,0.8833129999999999,0.42481800000000003,1.0711110000000001,1.053165,-0.329804,0.313381,-0.917783,-0.730299
627,-2.672421,-1.103061,-0.832577,-0.203852,0.892592,0.402134,1.245737,-0.063269,0.05740700000000001,0.459741,-0.615462,-0.8426549999999999
628,-2.673181,-1.134267,-0.8173020000000001,-0.19087300000000001,0.906225,0.377242,1.7974599999999998,-0.9577700000000001,0.5612659999999999,0.533967,-0.640279,-0.636031
629,-2.6646549999999998,-1.1806590000000001,-0.788853,-0.174581,0.9248569999999999,0.33786,2.582491,-0.8239139999999999,0.50569,0.23646999999999999,-0.738043,-0.6251979999999999
630,-2.634273,-1.234492,-0.7377199999999999,-0.16031800000000002,0.943981,0.288421,2.8992430000000002,-0.902568,0.453524,-0.061866,-0.571971,-0.674758
631,-2.5842709999999998,-1.2921340000000001,-0.662521,-0.145478,0.961424,0.233427,3.186896,-1.149974,0.535967,0.117203,0.6448689999999999,-0.07577300000000001
632,-2.4935240000000003,-1.3605180000000001,-0.544842,-0.12598499999999999,0.977973,0.166391,3.6921169999999996,-1.535917,0.974757,0.46837700000000004,1.15429,0.42507
633,-2.360034,-1.43288,-0.347452,-0.096813,0.990505,0.097559,4.095655000000001,-3.29229,0.8249340000000001,0.41505,4.633122,1.146535
634,-1.8475990000000002,-1.4869299999999999,0.201487,-0.080526,0.9964850000000001,0.022877,3.5918660000000004,-1.113475,0.913695,-0.699442,1.914175,0.085231
635,-0.925968,-1.5128549999999998,1.125726,-0.046223,0.9983219999999999,-0.034763,2.620673,0.297451,2.161332,-0.8213159999999999,1.6525419999999997,0.21355
636,-0.045743,-1.4718719999999998,2.0119830000000003,-0.004514,0.9951110000000001,-0.09861900000000001,3.7126879999999995,-0.787605,1.8990220000000002,-0.531573,1.300452,0.138903
637,0.128603,-1.3989209999999999,2.210677,0.021932,0.985266,-0.169595,3.0676330000000003,-0.8605450000000001,1.252608,0.231258,-0.184591,0.195123
638,0.188817,-1.353909,2.261456,0.040387,0.9765719999999999,-0.21135,1.690319,1.056063,0.538709,0.22805999999999998,-0.456186,0.101288
639,0.163455,-1.3273110000000001,2.253643,0.039229,0.970504,-0.23785900000000001,1.197446,-2.327615,-0.008395,0.314286,-0.52304,0.802236
640,0.10661500000000002,-1.313987,2.2539740000000004,0.027027,0.967205,-0.25254,0.270086,-2.441204,0.163666,-0.209781,-1.311474,0.894935
641,0.078302,-1.318509,2.246775,0.019525,0.9683440000000001,-0.24884,-0.49468500000000004,-0.086382,-0.378805,-0.561807,-1.836798,0.9108430000000001
642,0.033616,-1.338856,2.168237,0.007725,0.9732219999999999,-0.229721,-1.4003079999999999,2.250763,-1.173268,0.12357699999999999,-2.195909,0.883301
643,-0.006809,-1.382399,2.104841,-0.001275,0.9823059999999999,-0.18726199999999998,-2.5657240000000003,0.26417199999999996,-0.46742700000000004,0.516839,-1.2003540000000001,0.75527
644,-0.022965,-1.4365709999999998,2.079908,-0.003072,0.9910049999999999,-0.13376,-2.585597,0.914991,0.09775700000000001,0.39514699999999997,-0.890496,0.439622
645,0.105778,-1.477262,2.170641,0.009856,0.9956290000000001,-0.092833,-1.7500959999999999,2.407782,0.619768,-0.42062299999999997,-0.060525,-0.816164
646,0.43570600000000004,-1.4973610000000002,2.445853,0.030941000000000003,0.9973049999999999,-0.066461,-0.952097,2.7179759999999997,0.943275,0.142292,-0.008352,-1.406393
647,0.8150890000000001,-1.491496,2.790367,0.057611,0.996857,-0.054288,-0.298319,1.230972,1.411219,0.314337,-0.264298,-0.834522
648,0.9642540000000001,-1.466029,2.927464,0.085885,0.994517,-0.059586,0.726637,0.265121,1.233745,0.288321,-0.45386800000000005,-0.5951529999999999
649,0.8245370000000001,-1.4372790000000002,2.793702,0.097718,0.9911,-0.090353,1.861056,-0.17164400000000002,0.251987,0.42445299999999997,-1.108013,1.3035649999999999
650,0.747503,-1.4200700000000002,2.666444,0.102059,0.988662,-0.11010299999999999,0.24294899999999997,3.9446790000000003,-0.23354,0.042045,-1.614898,2.0809740000000003
651,0.7717350000000001,-1.423249,2.6339740000000003,0.102504,0.989135,-0.10534500000000001,0.990741,-0.524881,-0.167041,-4.453837999999999,2.4310009999999997,-5.503054
652,0.553397,-1.425872,2.516418,0.075888,0.989517,-0.122839,-4.392501,1.974441,-0.6073609999999999,2.9762049999999998,1.9469150000000002,4.36817
653,0.882743,-1.443351,2.7791759999999996,0.09815700000000001,0.9918899999999999,-0.080692,0.7053149999999999,4.833724,0.811135,1.77846,1.034538,1.63956
654,1.150013,-1.48349,2.959611,0.079542,0.9961909999999999,-0.035595999999999996,-4.421949,2.815208,-2.2440919999999998,-1.078016,-0.21851199999999998,1.665631
655,2.894384,-1.493392,-1.648769,0.018906,0.997006,0.074915,-4.664062,3.927172,-3.0526470000000003,-1.545792,1.7243380000000001,0.85874
656,-2.816123,-1.438512,-1.070706,-0.042163,0.9912629999999999,0.12493900000000001,-2.25343,-3.133238,-3.336546,0.43551999999999996,2.6307,-0.274124
657,-2.730871,-1.367795,-0.886583,-0.080487,0.979466,0.184819,-2.9558020000000003,-3.6416519999999997,-1.861313,1.535824,2.6017259999999998,-0.43292700000000006
658,-2.786625,-1.2911190000000001,-0.92801,-0.095935,0.961145,0.258818,-4.235258,-0.051383000000000005,-0.825857,0.391651,1.12284,-0.817869
659,-2.819321,-1.208731,-0.960989,-0.11218,0.935167,0.335956,-3.7302120000000003,-0.137545,-0.7623979999999999,-0.877307,0.297545,-1.456515
660,-2.8495340000000002,-1.1461430000000001,-0.9993059999999999,-0.118622,0.9111819999999999,0.394543,-2.9922560000000002,0.894919,-0.124043,-0.5855560000000001,0.104581,-1.4157680000000001
661,-2.832878,-1.091645,-1.023986,-0.140071,0.887387,0.43921800000000005,-2.544173,2.289932,-0.38761999999999996,0.23339400000000002,-0.386486,-0.71702
662,-2.814986,-1.057053,-1.0259,-0.157665,0.8709110000000001,0.465449,-0.9258149999999999,-0.051137,-0.560254,0.685604,-0.96167,-1.2564799999999998
663,-2.800008,-1.050836,-1.00833,-0.166429,0.8678389999999999,0.468128,0.05881,0.402526,-0.31254,0.692125,-0.615657,-1.0983459999999998
664,-2.788134,-1.050762,-1.014744,-0.171998,0.8678020000000001,0.466179,-0.10191900000000001,0.887342,0.329854,0.465638,-0.7823829999999999,-0.546151
665,-2.772107,-1.063032,-1.01518,-0.17558900000000002,0.873834,0.45339799999999997,1.02054,0.672387,0.098688,0.23241199999999998,-1.171518,-0.8516379999999999
666,-2.757124,-1.0849440000000001,-1.000084,-0.175137,0.8842770000000001,0.43286,1.171618,-0.308444,0.161889,0.28582399999999997,-0.672867,-0.7960649999999999
667,-2.766787,-1.1155899999999999,-0.995275,-0.160946,0.89817,0.409113,1.6933150000000001,-0.812746,0.6148319999999999,0.44811599999999996,-0.691383,-0.656764
668,-2.775969,-1.158251,-0.9874649999999999,-0.143344,0.9161030000000001,0.37442600000000004,2.236813,-0.765424,0.5640890000000001,0.155338,-0.75761,-0.633062
669,-2.773719,-1.208995,-0.970517,-0.127289,0.935261,0.330262,2.6284009999999998,-0.661717,0.661768,-0.28825300000000004,-0.546909,-0.662339
670,-2.765945,-1.265279,-0.945376,-0.11034400000000001,0.953691,0.279796,2.852128,-0.994764,0.63812,-0.47405200000000003,-0.25911100000000004,-0.48340900000000003
671,-2.749489,-1.330271,-0.9088360000000001,-0.09102,0.9712129999999999,0.220113,3.504067,-0.837815,0.783478,-0.021634999999999998,0.8788540000000001,0.379877
672,-2.67188,-1.41052,-0.803476,-0.07222200000000001,0.987183,0.142279,4.782412,-2.158226,0.608228,0.582414,3.1409599999999998,0.504983
673,-2.3828419999999997,-1.491125,-0.47137299999999993,-0.054715,0.996828,0.057712,3.742807,-0.845118,1.07037,-1.2363,4.203093,-0.188693
674,-1.2002549999999998,-1.5520610000000001,0.685711,-0.017228999999999998,0.9998239999999999,-0.006693000000000001,2.87613,1.998062,2.096848,-0.768462,1.67292,-0.134252
675,0.36391100000000004,-1.510267,2.229915,0.021504,0.9981690000000001,-0.056461000000000004,2.541903,0.401638,1.748319,-0.726033,1.391281,0.08826
676,0.416889,-1.446426,2.297686,0.050216000000000004,0.992276,-0.11339400000000001,2.907927,-1.205375,1.309623,-0.098327,0.895252,0.24826700000000002
677,0.354769,-1.393597,2.240423,0.061225,0.984341,-0.165276,2.3730599999999997,0.27930900000000003,0.253922,0.18406,-0.000195,0.35080700000000004
678,0.29276399999999997,-1.357879,2.177542,0.06097999999999999,0.977418,-0.20230499999999998,1.571501,-0.588002,-0.0721,0.3948,-0.311098,0.28017
679,0.247727,-1.338399,2.17098,0.056469000000000005,0.973117,-0.223266,0.584318,-2.404553,0.314301,-0.167446,-1.368442,0.805954
680,0.219358,-1.336769,2.1764040000000002,0.050457999999999996,0.9727399999999999,-0.22632600000000003,-0.21440399999999998,-0.8818959999999999,-0.152565,-0.339033,-1.8939139999999999,0.849144
681,0.172556,-1.353198,2.118617,0.037065,0.976419,-0.212664,-1.031391,0.915183,-1.031175,-0.202745,-2.4549950000000003,1.001803
682,0.138221,-1.398256,2.076155,0.023652,0.985152,-0.17002799999999998,-2.6899599999999997,-0.12298699999999999,-0.511592,0.555053,-1.2636399999999999,0.784927
683,0.150249,-1.451182,2.0857349999999997,0.017856999999999998,0.9928549999999999,-0.11795499999999999,-2.3797099999999998,0.628838,-0.18351199999999998,0.326854,-0.868801,0.362706
684,0.268255,-1.4853020000000001,2.168239,0.022621000000000002,0.996348,-0.08229299999999999,-1.353171,2.292797,0.258429,-0.333992,-0.331934,-0.65788
685,0.49110600000000004,-1.490108,2.3442950000000002,0.037989999999999996,0.9967459999999999,-0.071034,0.03387,2.342386,0.773323,0.08614,-0.016659,-1.1784780000000001
686,0.681339,-1.469832,2.4875540000000003,0.06346,0.994907,-0.078261,0.636264,2.24785,1.2476690000000001,0.021013,-0.123859,-1.091783
687,0.756684,-1.439938,2.543452,0.089562,0.99145,-0.094859,1.118793,0.062812,1.135267,-0.10314200000000001,-0.570811,-0.642217
688,0.669946,-1.40734,2.468876,0.101033,0.986671,-0.12754000000000001,1.7185990000000002,-0.282001,0.26609299999999997,0.149974,-1.3067540000000002,1.971702
689,0.6684869999999999,-1.404348,2.4039919999999997,0.102676,0.9861790000000001,-0.130004,-0.604082,4.892383000000001,-0.7341850000000001,-1.383896,-1.7392009999999998,0.926848
690,0.582924,-1.3984299999999998,2.291348,0.094402,0.985182,-0.143174,2.994766,-6.595686,-0.6238229999999999,-2.65263,2.841936,-0.930984
691,0.410004,-1.429482,2.2071099999999997,0.05613200000000001,0.990032,-0.129148,-6.126615,2.714812,-0.9707950000000001,2.874272,1.134831,3.8731370000000003
692,0.717252,-1.458706,2.430891,0.073504,0.9937239999999999,-0.084272,0.380716,5.517457,0.60183,1.804884,1.098011,1.162534
693,0.874159,-1.511757,2.49421,0.045208,0.998258,-0.037819,-4.070004,2.4401740000000003,-3.067952,0.107242,0.231219,-0.450721
694,-2.611105,-1.509622,-1.02037,-0.030895999999999996,0.998129,0.052673000000000005,-3.531137,1.528258,-3.524492,-1.105166,2.086786,0.763138
695,-2.424471,-1.4429370000000001,-0.804052,-0.08377799999999999,0.9918370000000001,0.096077,-2.210357,-3.706499,-2.807804,-0.31502600000000003,2.597152,-0.288582
696,-2.509779,-1.362388,-0.806574,-0.12218499999999999,0.978361,0.166943,-3.343096,-3.186435,-1.8795520000000001,1.010979,1.921816,-0.48769799999999996
697,-2.633905,-1.28464,-0.9001959999999999,-0.137217,0.9593360000000001,0.24664899999999998,-4.407099,-1.200442,-0.772169,-0.8194170000000001,0.529312,-1.2680719999999999
698,-2.70715,-1.206954,-0.986239,-0.14978,0.934536,0.322796,-3.5841220000000003,1.45814,-0.333993,-0.845475,0.37340100000000004,-1.446346
699,-2.722216,-1.150569,-1.042685,-0.166115,0.9129959999999999,0.372602,-2.732577,1.806416,-0.255852,0.094796,0.109571,-0.923017
700,-2.706456,-1.107751,-1.061644,-0.188283,0.894697,0.405038,-1.679138,1.482709,-0.670027,0.744008,-0.6222810000000001,-0.8126770000000001
701,-2.69605,-1.083181,-1.059083,-0.201902,0.883452,0.422771,-0.7754840000000001,-0.206554,-0.45431499999999997,0.9285110000000001,-1.0369709999999999,-1.0405229999999999
702,-2.699594,-1.077024,-1.059002,-0.202725,0.880551,0.428392,-0.079472,-0.081075,0.06313300000000001,0.749173,-0.558682,-0.9360059999999999
703,-2.696802,-1.082917,-1.061207,-0.201684,0.8833290000000001,0.42313199999999995,0.395768,0.351539,0.155628,0.15748,-0.808591,-0.689841
704,-2.682035,-1.095177,-1.048347,-0.20309100000000002,0.889009,0.41036999999999996,0.920573,0.066336,-0.10525899999999999,0.046794999999999996,-1.100298,-0.58487
705,-2.6542830000000004,-1.115573,-1.013527,-0.205866,0.8981629999999999,0.388472,1.4378790000000001,-0.366239,-0.268802,0.059365999999999995,-0.72522,-0.80699
706,-2.6278740000000003,-1.144579,-0.9667190000000001,-0.20315999999999998,0.910536,0.360052,1.877056,-0.989526,-0.09188400000000001,0.130467,-0.629271,-0.776572
707,-2.606958,-1.180045,-0.9221309999999999,-0.19406199999999998,0.924623,0.327719,2.111152,-0.8444729999999999,0.193712,0.13086,-0.670244,-0.588324
708,-2.5575200000000002,-1.2227540000000001,-0.8550700000000001,-0.188059,0.940042,0.284505,2.652777,-0.614528,0.02949,-0.12903399999999998,-0.565286,-0.638936
709,-2.474751,-1.2693729999999999,-0.748857,-0.18361,0.954915,0.23326599999999997,2.994843,-1.175009,0.035802,-0.096938,-0.015767,-0.20432
710,-2.338915,-1.322786,-0.582162,-0.176535,0.969403,0.170537,3.8450580000000003,-1.355125,0.11888399999999999,0.6966,1.165058,0.8379469999999999
711,-2.0304729999999998,-1.380824,-0.21129499999999998,-0.169206,0.98201,0.08376499999999999,5.19952,-3.437897,0.049829000000000005,0.791048,4.8510290000000005,0.692709
712,-1.6943560000000002,-1.4172879999999999,0.160166,-0.15171099999999998,0.988241,0.018841,2.846619,-0.347798,1.08911,-0.8599620000000001,2.3264259999999997,-0.293179
713,-1.3070680000000001,-1.440611,0.55006,-0.125298,0.9915379999999999,-0.033832999999999995,2.532634,0.37745500000000004,1.410727,-1.370949,1.6175469999999998,0.30106
714,-0.819233,-1.438331,1.020517,-0.096477,0.991239,-0.09016,3.107265,1.0897629999999998,1.2696180000000001,-0.8842049999999999,1.067309,-0.065968
715,-0.476646,-1.39917,1.357115,-0.078347,0.985308,-0.15173,2.5519529999999997,0.165071,0.694357,0.075905,0.45364099999999996,-0.083911
716,-0.348892,-1.371048,1.4930780000000001,-0.067826,0.980117,-0.186452,1.653641,-0.549883,0.44651199999999996,0.945908,-0.105529,0.502095
717,-0.280932,-1.346067,1.5868790000000002,-0.061778999999999994,0.9748540000000001,-0.21409299999999998,1.310139,-1.4807350000000001,0.6942010000000001,0.886761,-0.193864,0.557156
718,-0.259273,-1.3304120000000002,1.6587560000000001,-0.061034000000000005,0.9712459999999999,-0.230106,0.734276,-2.898644,0.40144,0.184111,-1.0076690000000001,0.8449129999999999
719,-0.294112,-1.328196,1.6720259999999998,-0.069636,0.970717,-0.2299,-0.26406199999999996,-1.611885,-0.040881,-0.089132,-1.78607,1.119701
720,-0.33753299999999997,-1.3495840000000001,1.637508,-0.072656,0.9756319999999999,-0.207019,-1.683473,-0.36227800000000004,0.115311,0.32813400000000004,-2.12909,1.010242
721,-0.385408,-1.3961059999999998,1.600447,-0.065332,0.9847799999999999,-0.16103599999999998,-2.463317,-0.186472,0.515562,0.6213770000000001,-1.5524229999999999,0.7222390000000001
722,-0.416437,-1.4398520000000001,1.535566,-0.05280599999999999,0.991439,-0.11938800000000001,-2.001046,2.83252,0.381395,0.07513,-0.947845,-0.137249
723,-0.335459,-1.476486,1.537145,-0.030989999999999997,0.995556,-0.088888,-1.50445,4.228249,0.960983,-0.70781,-0.38514299999999996,-1.0742129999999999
724,-0.026193,-1.4979959999999999,1.77948,-0.0019039999999999999,0.997351,-0.072666,-0.447528,2.568899,1.288822,-0.44330200000000003,-0.09751,-1.3107719999999998
725,0.35759,-1.4904600000000001,2.143357,0.028075,0.996775,-0.075137,0.47762,0.155363,1.457543,0.061051,-0.37253800000000004,-0.704771
726,0.476735,-1.462451,2.276985,0.049607,0.994136,-0.096051,1.332851,-1.0275940000000001,0.842259,0.129104,-0.71516,0.000897
727,0.38124600000000003,-1.429899,2.207664,0.052243,0.9900899999999999,-0.130328,1.655517,-0.84306,-0.029529000000000003,0.070453,-1.256173,1.443057
728,0.325345,-1.422822,2.112363,0.047118,0.989072,-0.139679,-0.269986,3.4607309999999996,-0.775953,-0.461089,-1.559506,1.7954259999999997
729,0.21989699999999998,-1.4074440000000001,2.00337,0.035469,0.9866879999999999,-0.158692,3.264595,-6.2011650000000005,-0.682267,-0.065636,3.2769839999999997,3.974518
730,0.05624199999999999,-1.430972,1.854052,0.007833,0.990241,-0.139125,-2.906024,1.6468919999999998,-1.235354,1.306925,0.602014,1.4872239999999999
731,0.069941,-1.4467510000000001,1.815435,0.008645,0.992316,-0.12339800000000001,-0.5824729999999999,3.360168,-0.664776,0.80445,-0.155097,-0.38807600000000003
732,-0.459255,-1.509666,1.226475,-0.027056,0.998132,-0.05471,-5.091671,3.247057,-2.831503,-0.919508,1.237433,1.859978
733,-1.8900259999999998,-1.48482,-0.27019099999999996,-0.081492,0.9963059999999999,0.026936,-2.689092,1.612066,-2.303084,-0.41072600000000004,2.6181959999999997,0.112194
734,-2.192821,-1.415392,-0.522181,-0.12577,0.987949,0.090173,-3.4905129999999995,-4.559756,-2.503736,0.9306559999999999,2.609921,-0.30871
735,-2.398135,-1.3418459999999999,-0.662856,-0.1536,0.9739049999999999,0.16705599999999998,-3.338794,-1.947489,-1.3576840000000001,1.390599,1.828097,-0.317233
736,-2.544062,-1.2711940000000002,-0.7785920000000001,-0.16603800000000002,0.9554540000000001,0.24398699999999998,-3.9553879999999997,-1.93658,-0.8877149999999999,-0.673959,0.7034819999999999,-1.294341
737,-2.646113,-1.2033129999999999,-0.8565209999999999,-0.170809,0.933234,0.316052,-3.293392,-0.9137,-0.450704,-1.183622,0.38923,-1.584087
738,-2.6895740000000004,-1.144436,-0.9197569999999999,-0.18062999999999999,0.9104770000000001,0.372014,-3.0683990000000003,1.8926880000000001,-0.22626500000000002,-0.12817699999999999,-0.013352000000000001,-0.880132
739,-2.659777,-1.097575,-0.9540370000000001,-0.21118699999999999,0.8901049999999999,0.403861,-2.103729,2.9096599999999997,-0.437679,0.58019,-0.8583209999999999,-0.712119
740,-2.647148,-1.073619,-0.9560129999999999,-0.22632600000000003,0.8789319999999999,0.419814,-0.169721,-0.239734,-0.672235,0.926384,-1.0466870000000001,-1.433257
741,-2.627897,-1.07392,-0.9295469999999999,-0.234235,0.879076,0.415149,0.21332600000000002,0.21838000000000002,-0.21721999999999997,0.934614,-0.332781,-0.808643
742,-2.617085,-1.079216,-0.939116,-0.236375,0.8815879999999999,0.408556,0.291118,1.1516030000000002,0.5031770000000001,0.427598,-0.9295770000000001,-0.612047
743,-2.593226,-1.0970090000000001,-0.927976,-0.237839,0.8898469999999999,0.389351,1.208855,0.24378699999999998,0.02471,0.110901,-0.9883879999999999,-0.7632979999999999
744,-2.5645599999999997,-1.123748,-0.885067,-0.235833,0.9017270000000001,0.362298,1.8897110000000001,-0.7616890000000001,-0.06859,0.20612399999999997,-0.690271,-0.765039
745,-2.536428,-1.158326,-0.8354309999999999,-0.228048,0.916133,0.32966999999999996,2.026323,-0.9359059999999999,0.223144,0.30393000000000003,-0.693142,-0.596729
746,-2.507101,-1.198268,-0.783099,-0.21574200000000002,0.9314100000000001,0.293121,2.354696,-0.8332719999999999,0.37913,0.010222,-0.548704,-0.592484
747,-2.451775,-1.244633,-0.710637,-0.203898,0.9472790000000001,0.24714099999999997,2.709898,-0.717858,0.512854,-0.090795,-0.32945,-0.398767
748,-2.3754939999999998,-1.298255,-0.613078,-0.186618,0.96309,0.193964,3.20348,-0.7367859999999999,0.821838,0.148898,0.5427390000000001,0.0418
749,-2.247682,-1.358867,-0.446129,-0.163953,0.977627,0.13174,3.731492,-2.6624950000000003,0.819448,0.686063,1.833775,0.409901
750,-1.9252169999999997,-1.40784,-0.0463,-0.15212799999999999,0.9867520000000001,0.056295000000000005,4.087589,-2.9474549999999997,0.11193299999999999,-0.5008560000000001,4.289356,0.027354000000000003
751,-1.573403,-1.437465,0.32443099999999997,-0.132906,0.991125,0.000346,2.570703,0.580629,1.45239,-0.730284,2.235896,0.09312899999999999
752,-1.1107129999999998,-1.460585,0.7525189999999999,-0.09851900000000001,0.993933,-0.048820999999999996,2.206659,1.982725,1.719379,-0.615974,1.6854490000000002,-0.020118
753,-0.556373,-1.445905,1.307703,-0.06576900000000001,0.9922110000000001,-0.105753,3.113747,-0.750042,1.549755,-0.09850700000000001,1.047095,-0.21665
754,-0.278738,-1.408151,1.6216,-0.044548000000000004,0.9868020000000001,-0.155658,2.297581,-1.915042,1.089416,0.6136699999999999,0.328047,0.47909799999999997
755,-0.19284400000000002,-1.3684370000000001,1.741263,-0.038515,0.9795950000000001,-0.197239,1.949639,-1.5982120000000002,0.481966,0.637606,-0.20708800000000002,0.377827
756,-0.1666,-1.343793,1.8045240000000002,-0.037319,0.9743450000000001,-0.22192800000000001,0.9721219999999999,-1.9567310000000002,0.41043599999999997,0.096188,-0.625743,0.581807
757,-0.172547,-1.332314,1.8412,-0.040556,0.971698,-0.23270700000000002,0.45930699999999997,-1.9960099999999998,0.28833200000000003,-0.249513,-1.235644,0.8699450000000001
758,-0.18617899999999998,-1.3321690000000002,1.848055,-0.04375,0.9716629999999999,-0.23226999999999998,-0.326511,-0.13283399999999998,-0.097695,-0.360516,-1.8958119999999998,0.9574590000000001
759,-0.208512,-1.353266,1.8080189999999998,-0.044672,0.976434,-0.211128,-1.6474,0.9268350000000001,-0.214033,0.10651600000000001,-2.205605,0.8947370000000001
760,-0.271794,-1.398053,1.7333470000000002,-0.046139,0.985117,-0.165555,-2.5772169999999996,0.37806300000000004,-0.16855,0.317608,-1.4281409999999999,0.727765
761,-0.369676,-1.442663,1.613917,-0.046159,0.9918020000000001,-0.119122,-2.200059,1.543908,-0.07127,0.020799,-0.940975,-0.046848
762,-0.409458,-1.476647,1.531575,-0.037409,0.9955709999999999,-0.086199,-1.401982,2.275282,0.419408,-0.318166,-0.41221199999999997,-0.948866
763,-0.28220300000000004,-1.488523,1.613337,-0.022869999999999998,0.996617,-0.07887899999999999,0.172494,2.162537,0.6089439999999999,0.175901,0.015361000000000001,-1.486047
764,-0.06590900000000001,-1.475852,1.8029110000000002,-0.006241,0.9954959999999999,-0.094552,0.994366,0.7326630000000001,0.763931,0.247696,0.06833099999999999,-1.0763770000000001
765,0.02502,-1.440505,1.9107299999999998,0.00325,0.991524,-0.12985,2.4073689999999996,-1.942366,0.369168,0.319214,-0.118737,-0.523928
766,0.0073019999999999995,-1.392946,1.9053349999999998,0.001292,0.984226,-0.176887,1.622683,1.571975,-0.280681,0.36841399999999996,-1.243076,2.682303
767,0.038449000000000004,-1.388752,1.841675,0.006958,0.983476,-0.180885,0.474116,6.014613,-0.459971,-3.4304349999999997,-0.476624,-2.130226
768,-0.13611700000000002,-1.339652,1.766288,-0.031085,0.973405,-0.226956,-0.812117,-4.054645,-1.140783,1.318942,2.911788,4.033901999999999
769,-0.151146,-1.3970799999999999,1.7354479999999999,-0.026022000000000003,0.984949,-0.17085,-1.3308209999999998,2.893205,0.8741760000000001,0.879293,-0.538981,0.696149
770,-0.100793,-1.442941,1.6980099999999998,-0.012827000000000002,0.9918379999999999,-0.126825,-3.81011,4.845142,-0.791773,0.064447,-0.278443,0.417368
771,-1.153132,-1.509607,0.5655600000000001,-0.055821,0.998129,-0.024772,-5.525399,3.133253,-3.297999,-1.289348,2.3395490000000003,1.0735700000000001
772,-1.923126,-1.45547,-0.20430299999999998,-0.10796099999999999,0.9933569999999999,0.039694,-2.345243,-2.4823560000000002,-2.191821,0.7298020000000001,2.242162,-0.379812
773,-2.166309,-1.395419,-0.364725,-0.144419,0.984661,0.097854,-2.381075,-4.35565,-2.0262330000000004,1.165904,1.995838,-0.663787
774,-2.344312,-1.339446,-0.48652799999999996,-0.16403099999999998,0.973358,0.160179,-3.103967,-2.2438919999999998,-0.9636299999999999,0.230254,1.270661,-0.59922
775,-2.540339,-1.276066,-0.654237,-0.16430699999999998,0.956881,0.23952199999999998,-4.077749,-1.282168,-0.065813,-0.778991,0.263182,-1.255681
776,-2.636593,-1.215992,-0.761199,-0.168069,0.9377139999999999,0.304026,-3.012666,1.261758,-0.20157,-0.614432,0.029235,-1.237269
777,-2.6552119999999997,-1.160947,-0.826156,-0.18625,0.9171809999999999,0.352247,-3.032252,2.304968,-0.260727,0.432755,-0.19331900000000002,-0.34007
778,-2.653684,-1.1145209999999999,-0.866294,-0.20654099999999997,0.8977,0.389183,-2.0146040000000003,1.284222,-0.290767,0.7783800000000001,-1.0845280000000002,-0.9026559999999999
779,-2.679696,-1.091534,-0.8870030000000001,-0.20549299999999998,0.887335,0.41279099999999996,-0.709859,-1.1117270000000001,-0.05425700000000001,0.848757,-1.206748,-1.211848
780,-2.699159,-1.086719,-0.8918870000000001,-0.199248,0.8851049999999999,0.42056899999999997,-0.051764,-0.12575,0.024921000000000002,0.21656599999999998,-0.67023,-1.036856
781,-2.6858419999999996,-1.091623,-0.888865,-0.20291700000000001,0.887376,0.413975,0.5396340000000001,0.643524,0.008838,-0.31698000000000004,-0.99608,-0.731725
782,-2.648894,-1.108751,-0.8601639999999999,-0.21085,0.895142,0.39274699999999996,1.202467,0.41336999999999996,-0.28534,-0.044765,-0.8098,-0.5825819999999999
783,-2.616666,-1.13276,-0.815919,-0.212561,0.905587,0.367041,1.826597,-0.923947,-0.194877,0.405829,-0.597725,-0.702581
784,-2.5937959999999998,-1.171504,-0.7649779999999999,-0.202465,0.921336,0.331867,2.31355,-1.03207,0.313932,0.43917399999999995,-0.6008100000000001,-0.677967
785,-2.557373,-1.216581,-0.7114560000000001,-0.191298,0.9379190000000001,0.289312,2.522041,-0.642054,0.3683,0.014891,-0.463859,-0.36257
786,-2.5040139999999997,-1.2695459999999998,-0.639178,-0.176609,0.954966,0.238406,3.078265,-0.684812,0.721548,-0.020978,0.402333,0.031307999999999996
787,-2.4215240000000002,-1.335739,-0.5246569999999999,-0.153567,0.9725010000000001,0.175067,3.6568080000000003,-2.279318,0.9658459999999999,0.557589,1.1672690000000001,0.255963
788,-2.201808,-1.4022540000000001,-0.21721,-0.135419,0.9858299999999999,0.098946,4.828426,-4.817315,-0.18708,0.492917,2.567957,0.138633
789,-1.801338,-1.435054,0.231618,-0.131712,0.990801,0.030914999999999998,3.206523,-0.221611,0.658826,-0.783678,3.5740489999999996,-0.029983999999999997
790,-1.273627,-1.459158,0.717396,-0.106485,0.993775,-0.03261,2.720733,3.2023099999999998,1.314411,-0.8807280000000001,1.8834830000000002,0.050295
