,attitude.roll,attitude.pitch,attitude.yaw,gravity.x,gravity.y,gravity.z,rotationRate.x,rotationRate.y,rotationRate.z,userAcceleration.x,userAcceleration.y,userAcceleration.z
0,-0.5621520000000001,-1.1783549999999998,2.078347,-0.203845,0.9239780000000001,-0.323588,0.7964140000000001,-1.019168,1.7998720000000001,0.44385,0.801592,0.7596229999999999
1,-0.465283,-1.174568,2.186147,-0.17316099999999998,0.922523,-0.344911,1.3313030000000001,0.41207299999999997,1.724862,0.307973,-0.697227,0.664766
2,-0.341987,-1.162788,2.306572,-0.13306400000000002,0.9179129999999999,-0.373802,1.546201,0.51794,1.969782,-0.145439,-1.417119,0.8572
3,-0.254226,-1.152616,2.399987,-0.102132,0.9138290000000001,-0.393044,0.611471,-0.11553599999999999,1.358383,-0.6468,-1.478572,0.9469219999999999
4,-0.261073,-1.157238,2.405612,-0.103729,0.915697,-0.38824899999999996,-0.608865,-0.849076,-0.620071,-0.821641,-1.187166,0.203572
5,-0.35943,-1.1588479999999999,2.3255,-0.140834,0.916343,-0.374806,-0.422484,-1.499673,-1.916893,0.147807,-1.0268469999999998,-0.183482
6,-0.49704799999999993,-1.146876,2.215537,-0.19613699999999998,0.911484,-0.36156,-0.567208,-1.897775,-2.401298,0.42907799999999996,-1.102981,0.098758
7,-0.6371829999999999,-1.142784,2.0874669999999997,-0.24693400000000001,0.9097930000000001,-0.333615,-1.653609,-0.572808,-2.1990790000000002,0.386704,-0.8309049999999999,0.9227879999999999
8,-0.776619,-1.162951,1.932697,-0.277987,0.917977,-0.282911,-3.8789309999999997,0.149161,-1.530818,0.21446500000000002,-0.7495970000000001,0.48657
9,-0.9863719999999999,-1.179867,1.692838,-0.317802,0.9245549999999999,-0.21023000000000003,-3.5997510000000004,1.0518299999999998,-2.931532,0.116737,-0.17157999999999998,0.14628
10,-1.171798,-1.124865,1.4580309999999999,-0.397417,0.902209,-0.16755599999999998,-3.1715020000000003,1.564845,-5.850785,-0.861433,2.378186,0.23911999999999997
11,-1.372312,-1.028433,1.206841,-0.506024,0.856491,-0.101778,-4.495968,0.6887310000000001,-5.919802,0.070202,4.392715,0.14389200000000002
12,-1.531779,-0.9971760000000001,1.037527,-0.542259,0.839942,-0.021168,-4.133706,-1.6179940000000002,-0.014525999999999999,0.86631,4.060082,0.450154
13,-1.654625,-0.9847870000000001,0.923665,-0.551095,0.8331540000000001,0.046306,-2.7629080000000004,-0.551416,-1.526398,0.164071,1.342444,0.712544
14,-1.688641,-0.933523,0.86093,-0.5908760000000001,0.803721,0.06995499999999999,-1.47611,1.368536,-2.721619,-0.457143,1.30599,0.615225
15,-1.681171,-0.868351,0.850672,-0.642151,0.763265,0.071166,-0.35423000000000004,-0.252328,-3.282136,-1.024108,0.768153,-0.24001999999999998
16,-1.725581,-0.814277,0.853498,-0.678185,0.727229,0.10581900000000001,-0.24205,-2.8514619999999997,-2.3497369999999997,0.016717,0.22206599999999999,-0.382385
17,-1.7780669999999998,-0.782688,0.853358,-0.693842,0.705187,0.14590899999999998,-0.317494,-2.349699,-0.9590139999999999,1.033121,-0.7950470000000001,-0.530827
18,-1.804125,-0.78201,0.8484709999999999,-0.6902689999999999,0.704707,0.164048,0.024175,-0.245837,0.621645,1.52816,-1.569545,-0.512803
19,-1.774372,-0.814994,0.857756,-0.671706,0.727722,0.138664,1.113481,1.8222049999999999,1.9875180000000001,1.40219,-1.9411,-0.605644
20,-1.6964290000000002,-0.8703549999999999,0.898133,-0.639471,0.764558,0.080764,2.14062,2.517594,2.753308,1.4907139999999999,-1.969941,-0.533111
21,-1.596698,-0.931371,0.972584,-0.596531,0.802439,0.015455000000000002,2.643507,1.7675560000000001,2.871013,1.556035,-1.705499,-0.307554
22,-1.5059639999999999,-0.985238,1.049188,-0.5515,0.833404,-0.035805000000000003,1.692832,1.003901,2.592955,0.796083,-0.705825,-0.289635
23,-1.492953,-1.0235290000000001,1.081222,-0.518776,0.853949,-0.040465,0.078077,-2.071266,1.52594,0.289177,0.158288,0.346083
24,-1.6052629999999999,-1.024697,1.04825,-0.519046,0.854557,0.017897,-1.1718790000000001,-4.174966,-1.1709459999999998,-0.6744359999999999,0.92619,1.9900220000000002
25,-1.636631,-0.964248,1.010916,-0.568796,0.8216209999999999,0.037501,-1.1342649999999999,2.1840610000000003,-3.430644,-0.912435,0.6516,0.078725
26,-1.559093,-0.9018649999999999,1.002381,-0.620102,0.784485,-0.007258,0.386941,4.9245779999999995,-2.7761880000000003,0.21878000000000003,-1.004959,-0.83193
27,-1.473653,-0.864606,1.014289,-0.645877,0.76084,-0.062941,-0.821916,1.914348,-1.25749,1.922641,-0.23946199999999998,-0.7647109999999999
28,-1.5366440000000001,-0.89561,0.9946649999999999,-0.624675,0.78059,-0.021342,-0.627463,0.221054,2.707005,2.14236,2.505024,0.7832899999999999
29,-1.492413,-0.938999,1.014304,-0.5887789999999999,0.806967,-0.046245,1.018333,0.185778,1.578754,0.74541,0.9002469999999999,-1.198933
30,-1.4580819999999999,-0.971182,1.051893,-0.56074,0.8255530000000001,-0.063473,1.075718,0.585374,2.0315689999999997,-0.014013,-0.621925,-0.7807810000000001
31,-1.319782,-1.029698,1.154433,-0.498932,0.857143,-0.12793800000000002,2.81318,3.6702230000000005,4.299041000000001,-0.18429500000000001,0.070454,0.096169
32,-1.122012,-1.119262,1.3163129999999998,-0.39313400000000004,0.8997780000000001,-0.189316,1.313431,0.58505,5.8969879999999995,-0.555566,2.8118,-1.159011
33,-0.983416,-1.169981,1.538133,-0.324771,0.920743,-0.216223,4.090889,-3.676978,3.4574620000000005,-1.025067,2.1577330000000003,0.14891600000000002
34,-0.766775,-1.1532930000000001,1.807435,-0.281326,0.9141040000000001,-0.292005,4.321795,-0.161044,2.594651,-1.068894,0.26595,0.493619
35,-0.618794,-1.142031,1.954488,-0.241154,0.90948,-0.33865700000000004,1.265902,0.412861,1.3195459999999999,-0.733745,0.7932939999999999,1.274158
36,-0.552779,-1.140211,2.019981,-0.21915700000000002,0.9087219999999999,-0.355236,0.746818,0.054687,1.563138,0.867534,0.975251,0.997768
37,-0.460629,-1.140077,2.132145,-0.185593,0.908665,-0.37400500000000003,1.509755,-0.457769,1.9814580000000002,-0.35588000000000003,-0.176228,0.97305
38,-0.354902,-1.128784,2.236316,-0.148645,0.9038930000000001,-0.401099,1.163555,0.862087,1.7540900000000001,-0.336508,-0.705605,1.041618
39,-0.276253,-1.126409,2.315092,-0.117257,0.902874,-0.413603,0.348794,0.063321,1.3477709999999998,-0.454642,-1.414974,0.82115
40,-0.262421,-1.132259,2.338368,-0.110153,0.905374,-0.410076,-0.552346,-0.757827,-0.045092,-0.722748,-1.4309319999999999,0.146771
41,-0.335361,-1.137405,2.282436,-0.138209,0.9075469999999999,-0.396554,-0.40431500000000004,-1.1347180000000001,-1.557245,-0.40530900000000003,-1.216141,0.032037
42,-0.447013,-1.127103,2.185019,-0.185565,0.903172,-0.387096,-0.472067,-1.307173,-2.3266169999999997,0.146548,-1.0091290000000002,0.397564
43,-0.57228,-1.1241290000000002,2.070794,-0.23392800000000002,0.901892,-0.363135,-1.421146,-0.7285189999999999,-2.0893650000000004,0.182872,-0.65856,0.860159
44,-0.716056,-1.147499,1.918368,-0.269633,0.911739,-0.309882,-3.705418,-0.006806,-1.838122,0.227229,-0.501491,0.126227
45,-0.888143,-1.157425,1.7114639999999999,-0.311676,0.9157719999999999,-0.253411,-3.103262,0.961325,-3.106341,-0.541122,0.8408200000000001,0.811059
46,-1.088021,-1.109221,1.470688,-0.394456,0.895352,-0.206752,-3.197695,0.611006,-5.723694999999999,-0.46073800000000004,1.9977759999999998,-0.203771
47,-1.303469,-1.0293299999999999,1.217567,-0.497083,0.8569540000000001,-0.136142,-4.5137849999999995,0.5461689999999999,-5.418748,-0.089892,3.0653029999999997,-0.154934
48,-1.460815,-0.999983,1.03896,-0.537049,0.841462,-0.059305,-4.064309,-1.210359,-1.047534,0.5700689999999999,3.2245630000000003,0.46247200000000005
49,-1.567397,-0.9702049999999999,0.930745,-0.565124,0.825002,-0.0019210000000000002,-2.326685,0.02359,-2.109473,-0.525803,1.4022780000000001,0.7022390000000001
50,-1.593485,-0.9162870000000001,0.882041,-0.608611,0.793346,0.013811000000000002,-0.9632729999999999,0.9166989999999999,-2.859532,-0.605119,1.39539,0.576628
51,-1.6004,-0.8548020000000001,0.8710379999999999,-0.6560779999999999,0.754441,0.019428,-0.20033499999999999,-0.776436,-3.151135,-0.8493700000000001,1.174453,0.11674200000000001
52,-1.644023,-0.789216,0.873656,-0.702512,0.709801,0.051535000000000004,-0.063786,-2.992378,-3.2274580000000004,-0.005053,0.166053,-0.46924399999999994
53,-1.7085990000000002,-0.744003,0.8722840000000001,-0.7287859999999999,0.677239,0.101069,-0.345304,-2.934278,-1.531026,1.335475,-1.0036399999999999,-0.661616
54,-1.741052,-0.7401909999999999,0.8701469999999999,-0.727662,0.674429,0.1251,0.228133,-0.600539,0.702573,1.8244639999999999,-1.642264,-0.501656
55,-1.712861,-0.7814439999999999,0.888417,-0.7027439999999999,0.7043050000000001,0.100512,1.358947,1.434595,2.535591,1.567993,-2.0062759999999997,-0.495929
56,-1.6499119999999998,-0.843727,0.929384,-0.662601,0.747125,0.052532,1.9421680000000001,1.573465,2.998822,1.5082280000000001,-1.607828,-0.450954
57,-1.571145,-0.9009739999999999,0.994408,-0.620844,0.783932,0.00021600000000000002,2.3708810000000002,1.3796680000000001,2.606823,1.4515930000000001,-1.48695,-0.258319
58,-1.4833690000000002,-0.948896,1.076722,-0.5803520000000001,0.812773,-0.050868000000000003,2.192078,0.888597,2.491899,0.689453,-0.525328,-0.014943000000000001
59,-1.44469,-0.987893,1.1244379999999998,-0.546076,0.834868,-0.069231,0.293565,-1.00191,1.65212,-0.16741,0.816682,1.025301
60,-1.511155,-0.987084,1.0932030000000001,-0.550143,0.8344219999999999,-0.03285,-1.174232,-1.312914,-1.347687,-0.550168,1.216191,1.222761
61,-1.529835,-0.935688,1.041169,-0.5927640000000001,0.8050069999999999,-0.024294,-1.120233,2.827024,-3.0596330000000003,-0.16987,0.27670300000000003,-0.23199299999999998
62,-1.447444,-0.8778799999999999,1.02682,-0.633927,0.769387,-0.078595,-0.320233,5.1935080000000005,-2.548604,1.131928,0.872749,-0.447329
63,-1.458309,-0.877152,0.98616,-0.6353,0.768921,-0.071766,-2.106028,0.19278,1.20654,2.018036,2.365539,0.627659
64,-1.417813,-0.905658,0.954742,-0.609957,0.7868310000000001,-0.094048,-0.963726,3.4316449999999996,1.4411040000000002,0.8596969999999999,-0.673916,-0.722679
65,-1.4064510000000001,-0.9408049999999999,0.9163680000000001,-0.5811970000000001,0.808032,-0.096386,-0.9249209999999999,1.1179540000000001,1.651575,0.6176649999999999,-0.971774,-0.8062010000000001
66,-1.362563,-0.9970399999999999,0.981604,-0.531062,0.8398680000000001,-0.11221199999999999,2.312352,-0.97144,4.266235,0.188579,0.2853,-0.419099
67,-1.227358,-1.108761,1.1444450000000002,-0.41973599999999994,0.8951469999999999,-0.15010199999999999,2.1835139999999997,-0.21318,7.357933999999999,-0.48981,2.564295,-0.869613
68,-1.0143209999999998,-1.188877,1.4055,-0.31646599999999997,0.927951,-0.196858,4.1987,-1.5748209999999998,4.6038559999999995,-0.9865879999999999,2.789319,-1.0223799999999998
69,-0.668272,-1.149106,1.7581779999999998,-0.25361500000000003,0.912399,-0.321257,7.33294,3.189645,2.550497,-2.053087,0.748826,0.878172
70,-0.496634,-1.127159,1.90526,-0.204512,0.9031969999999999,-0.377371,0.298452,-1.5422690000000001,1.447748,-1.0110940000000002,1.2943440000000002,1.247167
71,-0.448615,-1.1301729999999999,1.99317,-0.184981,0.904486,-0.38429800000000003,0.660169,-1.44767,2.25132,0.104277,0.779779,0.7170920000000001
72,-0.391797,-1.13131,2.095373,-0.162466,0.9049709999999999,-0.393231,1.1952610000000001,-1.524559,1.569358,-0.26667199999999996,0.344846,0.737897
73,-0.319965,-1.103917,2.179763,-0.141571,0.892977,-0.427255,2.179785,0.477099,1.247862,0.102585,-1.05263,1.13717
74,-0.243342,-1.074705,2.2537409999999998,-0.11468900000000001,0.87945,-0.461966,1.49871,0.314651,1.170674,-0.131298,-1.228327,0.863425
75,-0.22535,-1.0658290000000001,2.286741,-0.108099,0.8751899999999999,-0.471545,-0.053135,-1.270712,0.178033,-1.055567,-1.459403,0.426196
76,-0.303991,-1.07351,2.237325,-0.142793,0.8788799999999999,-0.455167,-0.672018,-1.7361349999999998,-1.7057639999999998,-0.646148,-1.018773,0.182294
77,-0.43237600000000004,-1.066337,2.136536,-0.20253,0.8754360000000001,-0.438852,-0.654795,-2.160678,-2.6440669999999997,0.292725,-0.8459409999999999,0.08300199999999999
78,-0.58277,-1.069379,2.008195,-0.26453000000000004,0.8769020000000001,-0.401328,-2.576622,-1.5953950000000001,-2.481958,0.5546909999999999,-0.543986,0.652183
79,-0.758638,-1.100945,1.825541,-0.311462,0.8916360000000001,-0.32859499999999997,-4.03337,-0.17707,-2.395675,0.486572,-0.168049,0.64053
80,-0.9435,-1.0999860000000001,1.626092,-0.367247,0.891201,-0.26624699999999996,-2.9725919999999997,0.183729,-3.763529,-0.75345,0.8452799999999999,1.064343
81,-1.152166,-1.053885,1.377435,-0.45151899999999995,0.86935,-0.20089400000000002,-4.78172,0.5427350000000001,-5.3917779999999995,-0.641713,1.841832,-0.159244
82,-1.3652819999999999,-0.9846030000000001,1.106258,-0.541549,0.833052,-0.11289,-6.1435,0.514407,-4.853256,0.301208,3.5267199999999996,-0.004099
83,-1.572391,-0.956201,0.9037639999999999,-0.576623,0.8170069999999999,0.000919,-4.566576,-3.0239599999999998,-1.0177450000000001,1.151712,3.013575,0.17936300000000002
84,-1.6876950000000002,-0.906532,0.7941239999999999,-0.612269,0.78737,0.07190099999999999,-2.861682,-0.168407,-2.913067,0.027339,1.844084,0.7860090000000001
85,-1.7141259999999998,-0.831326,0.755139,-0.666983,0.738826,0.096259,-1.131686,-0.049144,-3.8668080000000002,-1.025385,1.514958,0.23218699999999998
86,-1.7490689999999998,-0.754758,0.746789,-0.7168899999999999,0.6851119999999999,0.129173,-0.853669,-2.205371,-3.548046,-0.7863600000000001,0.695488,-0.22057399999999996
87,-1.8116759999999998,-0.697079,0.7371300000000001,-0.744582,0.641981,0.18290599999999999,-0.8559700000000001,-2.904795,-2.0655419999999998,0.889433,-0.65167,-0.619429
88,-1.8654439999999999,-0.675581,0.726585,-0.746712,0.625351,0.226613,-0.524935,-1.562229,-0.303452,1.9765549999999998,-1.515396,-0.617757
89,-1.858513,-0.692299,0.723759,-0.738136,0.638309,0.218435,0.5760460000000001,1.643847,1.504357,1.788932,-1.719684,-0.592138
90,-1.7812240000000001,-0.740668,0.74428,-0.721737,0.6747810000000001,0.154155,1.816402,3.876154,2.420285,1.5157120000000002,-1.6464759999999998,-0.626979
91,-1.666068,-0.798987,0.799171,-0.694268,0.71665,0.066345,2.59925,3.569984,2.649404,1.634347,-1.6793580000000001,-0.41352799999999995
92,-1.558557,-0.854305,0.8721040000000001,-0.656692,0.754115,-0.008038,2.518141,2.152336,2.661336,1.147765,-1.183085,0.036724
93,-1.484777,-0.903233,0.936233,-0.616784,0.7853319999999999,-0.053187,1.302718,0.39997699999999997,2.378423,0.263741,-0.303048,0.132471
94,-1.526718,-0.932901,0.937099,-0.5949260000000001,0.803351,-0.02624,-0.653038,-2.981446,0.672758,-0.717909,0.572611,1.214854
95,-1.562119,-0.913966,0.9099780000000001,-0.610585,0.791932,-0.005298,-1.02404,0.70212,-1.892945,-0.995326,1.148788,1.044284
96,-1.518991,-0.8612920000000001,0.8906879999999999,-0.650583,0.758685,-0.033734,0.10994100000000001,4.196254,-2.8818799999999998,0.290247,1.486494,-0.584262
97,-1.4764700000000002,-0.825722,0.875605,-0.675012,0.7350369999999999,-0.063861,-0.389828,1.102902,-0.639209,1.124582,1.876138,-0.254239
98,-1.446022,-0.8210120000000001,0.872935,-0.676182,0.7318359999999999,-0.084811,0.32742899999999997,1.776545,-0.027244,1.659688,0.056264999999999996,0.48211899999999996
99,-1.420093,-0.8346870000000001,0.8585780000000001,-0.663799,0.7410869999999999,-0.100801,-1.099435,2.160109,0.925834,1.390987,-0.915647,-0.50743
100,-1.387371,-0.8751200000000001,0.857182,-0.630153,0.767621,-0.1169,0.5262819999999999,0.641849,3.037123,1.27386,-0.27615,-0.994474
101,-1.300381,-0.976029,0.9707709999999999,-0.539953,0.8282790000000001,-0.149678,2.6544689999999997,0.295718,7.292205,0.79009,2.218138,-0.6988479999999999
102,-1.1358700000000002,-1.111245,1.146736,-0.402252,0.896251,-0.186885,1.4070610000000001,0.077155,7.353206,0.579955,2.391865,-1.064259
103,-0.925242,-1.177123,1.418524,-0.306392,0.9235059999999999,-0.23077899999999998,5.172149,-2.360387,4.673619,-1.22379,1.898393,0.185658
104,-0.593964,-1.121836,1.779045,-0.242904,0.900899,-0.359692,6.912903,3.019723,2.7838580000000004,-2.07251,1.600902,1.626782
105,-0.41893800000000003,-1.1085459999999998,1.903157,-0.18141300000000002,0.895051,-0.407396,0.378709,-0.12972999999999998,1.382406,-1.490035,2.025878,2.088243
106,-0.35828899999999997,-1.105895,1.978007,-0.157218,0.8938659999999999,-0.419863,0.58734,-0.272838,1.824154,0.146293,1.010065,0.8560200000000001
107,-0.295637,-1.1098569999999999,2.053134,-0.129589,0.8956350000000001,-0.425491,0.396163,0.081691,1.509375,-0.263829,-0.494802,0.890762
108,-0.20655300000000001,-1.1023319999999999,2.137476,-0.0926,0.8922629999999999,-0.441917,1.0912,0.8583850000000001,1.944796,-0.298483,-1.013372,1.007515
109,-0.12099800000000001,-1.0899530000000002,2.225116,-0.055827999999999996,0.886605,-0.45914399999999994,0.6737479999999999,0.023726,1.6470470000000001,-0.677265,-1.474145,1.092322
110,-0.101424,-1.088529,2.263562,-0.046958,0.8859459999999999,-0.461404,-0.22910300000000003,-1.175599,0.256793,-1.057381,-1.429265,0.41260600000000003
111,-0.168049,-1.09942,2.224683,-0.075954,0.8909440000000001,-0.44771400000000006,-0.637219,-1.6845119999999998,-1.324237,-0.6111489999999999,-1.137801,0.010168
112,-0.279609,-1.0963399999999999,2.138468,-0.126082,0.889541,-0.43911000000000006,-0.175599,-1.742029,-2.2577700000000003,0.05371,-0.977325,0.06243200000000001
113,-0.40371599999999996,-1.093615,2.03228,-0.180421,0.888293,-0.422353,-1.062573,-1.104082,-2.249828,0.351045,-0.827151,1.003591
114,-0.5005109999999999,-1.113732,1.9263759999999999,-0.211775,0.897352,-0.387181,-2.505583,0.471434,-1.259934,0.518309,-0.5770390000000001,0.785421
115,-0.6165069999999999,-1.157027,1.790921,-0.232467,0.9156120000000001,-0.328043,-3.3910519999999997,0.32059699999999997,-1.665441,0.26803499999999997,-0.257073,-0.269308
116,-0.778335,-1.161265,1.610884,-0.279558,0.917308,-0.283536,-2.151482,0.372686,-3.243159,-0.449034,0.831166,0.685559
117,-0.97457,-1.133679,1.36182,-0.350287,0.905976,-0.237708,-3.818576,1.767596,-4.575844999999999,-0.08256000000000001,1.6752919999999998,0.20418499999999998
118,-1.194815,-1.0912540000000002,1.088961,-0.42914300000000005,0.8872059999999999,-0.169409,-4.297507,0.621889,-4.559562000000001,0.181386,2.821473,0.1612
119,-1.3875110000000002,-1.054171,0.8982870000000001,-0.48567299999999997,0.869491,-0.090027,-3.4500559999999996,-1.953516,-2.2088,0.25550900000000004,2.592118,0.39323400000000003
120,-1.50583,-1.016094,0.772551,-0.525576,0.850057,-0.034193,-2.603184,0.326473,-2.484612,-0.080015,1.736262,0.70352
121,-1.561887,-0.9586180000000001,0.699709,-0.574626,0.818398,-0.00512,-1.511952,0.148287,-3.092057,-0.706807,1.6234959999999998,0.616661
122,-1.6030959999999999,-0.888732,0.661586,-0.630065,0.776273,0.020358,-1.010751,-1.0141850000000001,-3.728,-0.936951,1.273822,0.153043
123,-1.6445490000000003,-0.814467,0.652547,-0.684388,0.72736,0.050567,-0.130502,-2.193182,-3.491741,-0.015456999999999999,0.38042800000000004,-0.377289
124,-1.692106,-0.771749,0.655313,-0.711422,0.69739,0.086728,-0.153644,-2.317978,-1.304024,1.346737,-0.952441,-0.483029
125,-1.7207150000000002,-0.770629,0.658663,-0.709422,0.696587,0.10715999999999999,0.356631,-1.023668,0.648455,1.693919,-1.624092,-0.486447
126,-1.7133450000000001,-0.8021149999999999,0.6734180000000001,-0.688135,0.718828,0.098763,0.991382,0.389355,1.844282,1.22561,-1.64969,-0.5097430000000001
127,-1.660659,-0.846865,0.710106,-0.6596609999999999,0.749208,0.059439,1.794016,1.717989,2.1547650000000003,1.565682,-1.6441970000000001,-0.320822
128,-1.579409,-0.8929889999999999,0.772165,-0.627061,0.778949,0.0054009999999999996,2.237503,1.497689,2.250012,1.493608,-1.5300479999999999,-0.163375
129,-1.499208,-0.941368,0.843058,-0.587173,0.8083640000000001,-0.042106,1.8509520000000002,1.04813,2.587583,0.859145,-1.001403,0.001381
130,-1.451601,-0.983928,0.8858879999999999,-0.549825,0.8326790000000001,-0.065849,0.432435,0.202638,1.869459,-0.09539299999999999,0.21953699999999998,0.47747
131,-1.4805,-0.996566,0.86945,-0.5409729999999999,0.8396110000000001,-0.048981,-0.990916,-0.8498319999999999,-0.362105,-0.6423770000000001,0.7884260000000001,1.2721559999999998
132,-1.520715,-0.9653290000000001,0.809425,-0.56843,0.8222360000000001,-0.028492,-1.6696229999999999,1.507966,-2.25421,-0.272177,0.087172,0.41090699999999997
133,-1.4714690000000001,-0.91986,0.789808,-0.602943,0.795517,-0.060086,0.334321,3.7741569999999998,-1.9482869999999999,0.794913,-1.005172,-0.45810200000000006
134,-1.39648,-0.8961450000000001,0.794128,-0.615157,0.780925,-0.108331,-0.839664,3.258741,-0.710281,1.695677,-0.401027,-0.61907
135,-1.410051,-0.9399360000000001,0.795896,-0.582233,0.80752,-0.09440599999999999,-0.090408,-1.015405,3.760257,1.7290990000000002,2.81513,-0.182831
136,-1.391551,-0.9898319999999999,0.829197,-0.540034,0.8359340000000001,-0.097849,0.578272,-0.539693,1.435594,0.373607,0.264072,0.051187
137,-1.3565260000000001,-1.0265469999999999,0.8387,-0.5059319999999999,0.8555159999999999,-0.110096,0.055180999999999994,2.8517200000000003,2.526795,0.014263999999999999,-0.866381,-0.041835000000000004
138,-1.165874,-1.086307,0.949866,-0.42808999999999997,0.884913,-0.183482,2.197716,4.58145,4.465548,0.107075,0.591497,-0.8377879999999999
139,-0.9294049999999999,-1.165514,1.1554799999999998,-0.315918,0.918991,-0.23589899999999997,1.631912,0.334273,5.999937,-0.9429620000000001,3.208389,-1.6252309999999999
140,-0.6963020000000001,-1.183439,1.464812,-0.24227600000000002,0.925911,-0.28980900000000004,5.778751000000001,-2.162907,3.783495,-1.7065,3.4978559999999996,-0.290163
141,-0.45493500000000003,-1.1463,1.7186849999999998,-0.180972,0.9112459999999999,-0.36996799999999996,1.5621530000000001,0.38366,3.038275,-1.954236,0.545312,1.636829
142,-0.41893400000000003,-1.1487610000000001,1.806819,-0.166626,0.912257,-0.374192,0.890436,-1.400577,0.66869,-0.083466,0.705358,0.916429
143,-0.354976,-1.14543,1.8837150000000003,-0.143424,0.9108879999999999,-0.386924,0.306193,-1.097372,2.072136,0.849433,0.773362,0.917488
144,-0.284408,-1.139724,1.976879,-0.11724200000000001,0.908518,-0.40105599999999997,1.3874790000000001,-0.154895,1.474936,-0.13072899999999998,0.530889,0.732233
145,-0.19853099999999999,-1.120063,2.0642669999999996,-0.085917,0.900128,-0.427066,1.1462450000000002,0.217081,1.6351440000000002,-0.429875,-1.428555,0.946307
146,-0.140765,-1.117241,2.139536,-0.061474,0.8988950000000001,-0.433827,-0.015356,-0.857275,1.450014,-0.9270209999999999,-1.4892729999999998,0.589192
147,-0.14686400000000002,-1.12974,2.1664689999999998,-0.062470000000000005,0.904301,-0.422296,-0.770237,-1.906853,0.045647,-1.033096,-1.412541,0.041711
148,-0.227687,-1.1366209999999999,2.1173290000000002,-0.094953,0.907217,-0.40980200000000006,-0.37543000000000004,-1.7487240000000002,-1.477218,-0.130724,-1.04833,-0.08501
149,-0.350314,-1.132997,2.020143,-0.145495,0.9056870000000001,-0.398196,-0.488329,-1.748488,-2.2364450000000002,0.24251,-1.026216,0.47780100000000003
150,-0.485279,-1.128211,1.910598,-0.199771,0.903647,-0.378828,-0.886518,-1.7154880000000001,-2.151675,0.310305,-0.789161,0.734846
151,-0.6035159999999999,-1.135197,1.797121,-0.23947399999999996,0.906617,-0.347411,-2.293009,0.147325,-1.643662,0.35234299999999996,-0.496568,1.373427
152,-0.767026,-1.185224,1.594031,-0.26100100000000004,0.926583,-0.27077199999999996,-5.361366,0.9903360000000001,-2.008006,0.171844,0.303962,0.297734
153,-1.0392780000000001,-1.1859899999999999,1.277863,-0.323587,0.9268709999999999,-0.19025599999999998,-4.040265,1.110009,-4.572278,-0.263083,0.9103629999999999,0.28641700000000003
154,-1.262783,-1.109374,0.9900040000000001,-0.42426499999999995,0.8954200000000001,-0.134975,-4.282079,2.150825,-6.235318,-0.345114,2.668789,-0.013844
155,-1.439632,-1.049695,0.773755,-0.493555,0.8672709999999999,-0.06511,-3.708614,-0.632545,-1.992245,0.161005,3.7936330000000003,0.10884200000000001
156,-1.5714190000000001,-1.024717,0.664563,-0.519336,0.854567,0.000323,-2.557121,-1.5524200000000001,-1.789675,-0.353512,1.15291,0.64874
157,-1.636033,-0.975879,0.602218,-0.559244,0.8281950000000001,0.036535000000000005,-1.1074540000000002,-0.07547100000000001,-2.6317459999999997,-0.774008,1.217032,0.788736
158,-1.658307,-0.91794,0.588337,-0.605129,0.7943520000000001,0.053091,-0.562763,-1.7186270000000001,-2.978349,-1.064198,1.41625,-0.19611199999999998
159,-1.7109470000000002,-0.8599209999999999,0.590827,-0.646096,0.757791,0.09114900000000001,0.008288,-2.8910669999999996,-2.781646,-0.757637,0.8140470000000001,-0.136925
160,-1.7542950000000002,-0.810758,0.611241,-0.677379,0.724809,0.12571300000000002,0.308759,-2.803113,-2.126979,0.557628,-0.21931599999999998,-0.40175900000000003
161,-1.7881240000000003,-0.792899,0.6182270000000001,-0.685271,0.712391,0.151318,-0.015475999999999998,-1.3109709999999999,-0.173105,1.651702,-1.295109,-0.590558
162,-1.7831240000000002,-0.814289,0.624685,-0.670968,0.727238,0.144645,0.802064,0.7977479999999999,1.644813,1.6800009999999999,-1.843159,-0.425087
163,-1.7304549999999999,-0.865909,0.650816,-0.639703,0.7616850000000001,0.10301099999999999,1.6361219999999999,1.976479,2.65112,1.463724,-1.631542,-0.354506
164,-1.644737,-0.924341,0.707641,-0.600711,0.7982239999999999,0.044498,2.38096,2.017527,2.66268,1.394107,-1.441474,-0.258548
165,-1.540258,-0.97759,0.791668,-0.558759,0.829152,-0.017069,2.3818040000000003,1.663059,2.594774,1.137433,-1.178533,-0.043356
166,-1.4693040000000002,-1.0246959999999998,0.8548870000000001,-0.516682,0.854557,-0.05262000000000001,0.867993,0.177182,2.2635009999999998,0.416233,-0.400714,-0.031822
167,-1.5151700000000001,-1.051469,0.8434450000000001,-0.495525,0.8681530000000001,-0.027593,-1.050076,-2.96969,0.477682,-0.15572,0.276424,0.491734
168,-1.5859860000000001,-1.024278,0.796513,-0.519652,0.854339,0.007894,-1.271796,0.172282,-2.374704,-0.714082,0.567155,0.939204
169,-1.547593,-0.96345,0.7697109999999999,-0.570533,0.821166,-0.013241,-0.013632,4.420516,-3.1767990000000004,-0.102914,0.0008410000000000001,-0.010731000000000001
170,-1.470366,-0.9165629999999999,0.762791,-0.605481,0.793515,-0.061014,-0.26829899999999995,2.307898,-1.316096,1.077893,1.371356,-0.797918
171,-1.463524,-0.9280799999999999,0.7401260000000001,-0.595924,0.80047,-0.064172,-0.616425,2.536748,0.893466,1.7958900000000002,0.915274,0.340387
172,-1.416421,-0.9558629999999999,0.7421800000000001,-0.57004,0.816812,-0.088706,-0.384765,1.837525,1.591393,0.616869,-0.759347,-0.8611840000000001
173,-1.397143,-1.004253,0.74783,-0.528643,0.8437610000000001,-0.092735,0.27326500000000004,-0.149538,3.230779,0.294741,-0.80804,-1.027382
174,-1.30529,-1.100758,0.8620979999999999,-0.43704499999999996,0.891551,-0.118844,2.521862,-0.009873,6.575953,0.007114,1.140874,-0.270392
175,-1.090989,-1.209281,1.118468,-0.31375,0.935362,-0.16326500000000002,2.985868,-2.6470689999999997,6.333678,-1.368882,2.864504,-0.7204020000000001
176,-0.7796890000000001,-1.219557,1.501309,-0.241892,0.938947,-0.24466999999999997,6.131657,-1.520853,3.28948,-1.400747,1.708895,0.325083
177,-0.5168010000000001,-1.183571,1.7578209999999999,-0.186581,0.92596,-0.328301,2.139525,1.7060380000000002,2.1806919999999996,-1.4727059999999998,0.20842399999999997,1.3116379999999999
178,-0.478996,-1.177366,1.824825,-0.17668399999999998,0.923599,-0.340211,0.80353,-1.5450030000000001,0.631946,0.373919,1.0419770000000002,0.9500290000000001
179,-0.427834,-1.178847,1.903332,-0.158487,0.9241659999999999,-0.347556,0.436566,-1.2791709999999998,1.6032600000000001,0.5786220000000001,0.8618899999999999,0.8575360000000001
180,-0.37506799999999996,-1.1710909999999999,1.977382,-0.142557,0.921176,-0.362091,1.261369,-6.7e-05,0.962176,-0.195196,0.039762,0.735428
181,-0.294611,-1.1508040000000002,2.0513209999999997,-0.118397,0.913092,-0.39018200000000003,1.491624,0.660809,1.193674,0.265843,-1.285208,0.826416
182,-0.22104899999999997,-1.136657,2.133285,-0.092224,0.9072319999999999,-0.41039200000000003,0.763646,-0.5310189999999999,1.504174,-0.025849,-1.460913,0.8860389999999999
183,-0.205868,-1.137473,2.1772400000000003,-0.085832,0.907575,-0.41102,-0.34871199999999997,-1.6567619999999998,0.2758,-1.343352,-1.276594,0.495462
184,-0.277496,-1.143729,2.127965,-0.113469,0.910184,-0.398354,-0.45987,-1.125022,-1.5320209999999999,-0.269404,-1.025587,-0.103172
185,-0.400248,-1.137351,2.02643,-0.16365,0.907524,-0.386802,-0.478872,-1.8197330000000003,-2.275814,0.142013,-1.075416,-0.13984000000000002
186,-0.534982,-1.133924,1.9169200000000002,-0.215709,0.9060799999999999,-0.363987,-1.1477469999999999,-1.56059,-2.032991,0.491436,-0.675321,0.738437
187,-0.665511,-1.1495790000000001,1.7898889999999998,-0.25246,0.912592,-0.321616,-3.118154,-0.30409,-1.5260040000000001,0.40384200000000003,-0.525278,0.10828299999999999
188,-0.8359030000000001,-1.176087,1.596031,-0.285287,0.923108,-0.257834,-3.274985,0.771442,-2.355281,0.320871,-0.412671,0.288702
189,-1.027962,-1.143828,1.3718059999999999,-0.354579,0.910225,-0.213914,-2.626923,1.0770469999999999,-5.012087,-0.850361,1.8442759999999998,0.49751300000000004
190,-1.2348540000000001,-1.0766209999999998,1.115134,-0.447787,0.88036,-0.156358,-4.262371,1.129275,-5.465822,-0.018643,2.879848,-0.068252
191,-1.4129969999999998,-1.028545,0.904536,-0.509649,0.856549,-0.081097,-4.505895,-0.647981,-1.702967,0.357885,3.776096,0.204784
192,-1.555332,-1.018783,0.76253,-0.5243359999999999,0.8514700000000001,-0.008109,-2.7442189999999997,-0.8848540000000001,-1.2705469999999999,0.728071,1.914841,0.410682
193,-1.595832,-0.9771780000000001,0.705227,-0.559184,0.8289219999999999,0.014003,-1.055583,1.081109,-2.332698,-0.785542,1.491696,0.6721090000000001
194,-1.5827879999999999,-0.9266629999999999,0.691423,-0.600459,0.79962,0.007201000000000001,-0.190736,0.777485,-2.5441849999999997,-0.800801,0.62375,-0.066557
195,-1.6020729999999999,-0.880222,0.68835,-0.6366649999999999,0.77088,0.019919,-0.150049,-1.671075,-2.174363,-0.498787,0.52659,-0.082664
196,-1.647215,-0.842508,0.68583,-0.6636479999999999,0.746315,0.050814,-0.201825,-2.354141,-1.541462,0.554898,-0.333976,-0.37337
197,-1.6905810000000001,-0.82516,0.681821,-0.673575,0.7346560000000001,0.081072,-0.198743,-1.77155,-0.451533,0.9978090000000001,-0.9653079999999999,-0.569857
198,-1.704466,-0.835923,0.6858350000000001,-0.664509,0.741916,0.089357,0.551266,-0.199638,1.135865,1.4897049999999998,-1.8855009999999999,-0.376772
199,-1.6612939999999998,-0.879742,0.7176060000000001,-0.634739,0.770574,0.0576,1.7479630000000002,1.58771,2.540236,1.554661,-2.151647,-0.384031
200,-1.561554,-0.9435309999999999,0.791121,-0.586905,0.809635,-0.005425,2.640997,2.1279939999999997,3.3159699999999996,1.6159569999999999,-1.6714369999999998,-0.229942
201,-1.44729,-1.004234,0.8868,-0.532643,0.843751,-0.066121,2.150481,1.4532200000000002,3.055967,1.2562,-1.2302110000000002,-0.234172
202,-1.393673,-1.049942,0.949258,-0.489833,0.867394,-0.08768,0.606687,-1.188925,2.063668,0.720851,-0.598824,-0.178006
203,-1.4719,-1.070283,0.939386,-0.47752700000000003,0.877336,-0.04738,-0.819098,-4.367877,0.147802,-0.31196199999999996,0.446287,1.161745
204,-1.54496,-1.037018,0.90259,-0.508616,0.860891,-0.013144,-0.854382,0.087136,-2.755171,-1.288458,1.095225,1.2302309999999999
205,-1.515132,-0.9778209999999999,0.876216,-0.557962,0.8292809999999999,-0.031091000000000004,-0.266809,3.7499279999999997,-2.825195,-0.8209129999999999,0.358173,-0.017631
206,-1.423452,-0.931366,0.8913620000000001,-0.5902689999999999,0.8024359999999999,-0.087608,0.853575,3.8442199999999995,-1.8037470000000002,1.178755,-0.765784,-0.062386000000000004
207,-1.476224,-0.9340299999999999,0.867476,-0.591938,0.8040229999999999,-0.056148,-1.099086,-4.131231,1.681646,2.625705,2.245965,1.337444
208,-1.46343,-0.9753379999999999,0.8561040000000001,-0.557655,0.827892,-0.060105,0.535928,1.370859,1.611241,0.88581,1.096791,-1.066589
209,-1.412067,-1.000558,0.90156,-0.533042,0.841773,-0.085327,1.378711,1.180081,1.436843,-0.063439,-0.8325100000000001,-0.8444520000000001
210,-1.276081,-1.038442,1.0137450000000001,-0.485676,0.8616149999999999,-0.14743,3.08204,2.8683669999999997,3.730436,-0.140087,-0.380429,-0.314881
211,-1.00724,-1.128003,1.235309,-0.36220399999999997,0.903558,-0.22888200000000003,2.219713,3.05302,7.315531,-0.341577,2.663733,-0.540618
212,-0.80971,-1.199941,1.510327,-0.262414,0.932018,-0.24995599999999998,3.014393,-5.645148000000001,4.813359999999999,-1.0847229999999999,3.157368,-0.664809
213,-0.599978,-1.16603,1.8036150000000002,-0.222349,0.9191950000000001,-0.325022,4.445894,-0.427339,2.487949,-1.0470760000000001,0.281794,1.433375
214,-0.492726,-1.159103,1.927704,-0.18928699999999998,0.916444,-0.352558,0.528981,-1.265204,1.230004,-0.647871,0.754134,0.825672
215,-0.465056,-1.159664,1.952421,-0.17923,0.9166690000000001,-0.3572,0.30432800000000004,1.1515360000000001,0.453013,0.47463999999999995,0.8603700000000001,0.738426
216,-0.405758,-1.162766,2.0188479999999998,-0.156622,0.917904,-0.364579,0.44772700000000004,-0.610653,1.448651,-0.322885,-0.310177,0.794999
217,-0.339871,-1.154433,2.092089,-0.134824,0.914566,-0.381299,1.2152040000000002,0.328651,1.117386,-0.071765,-1.158584,0.843549
218,-0.267864,-1.139462,2.162368,-0.110654,0.908409,-0.40317,1.021369,0.243794,1.194121,-0.07374800000000001,-1.657691,0.649706
219,-0.22311799999999998,-1.128822,2.2144790000000003,-0.09464199999999999,0.903909,-0.41711899999999996,0.687192,-0.331386,0.668027,-0.555733,-1.583703,0.49075799999999997
220,-0.240823,-1.122838,2.211461,-0.103301,0.9013329999999999,-0.42062299999999997,-0.004817,-0.807463,-0.620199,-0.65204,-0.919049,0.5125569999999999
221,-0.30828,-1.120862,2.154773,-0.131958,0.900476,-0.4144,-0.379313,-1.011279,-1.539088,-0.23886100000000002,-0.853708,0.169298
222,-0.41694799999999993,-1.121889,2.063713,-0.175749,0.9009219999999999,-0.396798,-0.999915,-1.275144,-1.880643,0.164732,-0.880964,0.19251400000000002
223,-0.531633,-1.139651,1.948625,-0.21185500000000002,0.908488,-0.360228,-2.885369,-0.17431,-1.679443,0.30540700000000004,-0.587534,-0.180299
224,-0.694915,-1.173953,1.7723060000000002,-0.247486,0.922286,-0.296877,-2.824353,0.190209,-2.31294,-0.35194000000000003,0.084855,0.37248400000000004
225,-0.868985,-1.147724,1.572865,-0.313533,0.911832,-0.265058,-2.158744,1.162379,-4.644669,-0.786045,1.165637,0.924375
226,-1.111661,-1.102388,1.296138,-0.40470700000000004,0.892288,-0.200076,-4.208953,0.0009140000000000001,-5.185203,-0.042345,3.2096709999999997,0.000292
227,-1.310635,-1.0649790000000001,1.068301,-0.468213,0.8747790000000001,-0.124636,-4.554999,-0.014838999999999998,-2.016049,0.45802,3.4392769999999997,0.158419
228,-1.47884,-1.070265,0.883202,-0.47786000000000006,0.8773270000000001,-0.044067,-3.8513230000000003,-0.403036,-0.388007,1.0397040000000002,1.703498,0.403671
229,-1.56481,-1.049241,0.7837930000000001,-0.49821499999999996,0.8670459999999999,-0.002983,-1.7690669999999997,0.6240140000000001,-1.423773,-0.354141,1.336598,0.512886
230,-1.569532,-1.011202,0.739081,-0.530837,0.8474709999999999,-0.000671,-0.704432,2.018584,-2.376318,-0.7419899999999999,0.98865,0.23562600000000003
231,-1.557526,-0.951097,0.732291,-0.580735,0.814053,-0.0077069999999999994,0.061987,-0.239718,-3.060279,-0.755202,0.713947,-0.017225999999999998
232,-1.5802200000000002,-0.9020020000000001,0.732508,-0.6200100000000001,0.78457,0.005843,-0.134433,-1.18468,-2.0766080000000002,0.305404,-0.321527,0.075044
233,-1.603393,-0.8786379999999999,0.7247640000000001,-0.637858,0.7698699999999999,0.0208,-0.22322600000000004,-0.772482,-0.653816,0.8358260000000001,-0.943363,0.014875
234,-1.610201,-0.878791,0.726052,-0.637584,0.769968,0.025137,0.22931100000000001,-0.12434400000000001,0.438101,0.9133870000000001,-1.4567809999999999,-0.488958
235,-1.588554,-0.906284,0.749525,-0.616575,0.7872170000000001,0.01095,1.134093,0.305892,1.816534,1.16937,-2.060808,-0.642389
236,-1.525741,-0.951385,0.813341,-0.579963,0.814221,-0.026148,2.30452,0.6956140000000001,2.441643,1.328285,-2.012234,-0.502432
237,-1.431715,-0.995508,0.9079430000000001,-0.53882,0.8390350000000001,-0.075427,2.321304,0.812963,2.384994,1.497911,-1.6838529999999998,-0.094678
238,-1.360659,-1.0341040000000001,0.982195,-0.500045,0.859405,-0.106652,1.0677969999999999,-0.164769,2.092276,0.627868,-0.035125,0.355096
239,-1.384315,-1.063836,1.001982,-0.477101,0.874224,-0.090017,-0.257812,-3.361768,1.1385319999999999,0.264104,0.319135,0.891942
240,-1.497833,-1.050557,0.963461,-0.49576099999999995,0.8677,-0.036236000000000004,-1.1223299999999998,-2.4315900000000004,-2.151345,-1.058758,1.517615,1.7942470000000001
241,-1.492968,-0.9832270000000001,0.92705,-0.552658,0.83229,-0.0431,-0.322,3.7139879999999996,-3.642731,-0.001877,-0.660537,-0.437827
242,-1.4047610000000001,-0.9218219999999999,0.9199639999999999,-0.596055,0.796704,-0.099886,-0.45761499999999994,4.427563,-2.421479,1.1779030000000001,0.604877,-0.948851
243,-1.425246,-0.9124950000000001,0.9009440000000001,-0.605302,0.791033,-0.088729,-0.526335,-0.277945,0.344357,2.171586,2.484022,0.577499
244,-1.381834,-0.9165399999999999,0.9164700000000001,-0.597733,0.793501,-0.11431300000000001,0.724259,1.578128,0.501333,0.618103,-0.681242,-0.816519
245,-1.3451030000000002,-0.9377620000000001,0.9345379999999999,-0.576587,0.806236,-0.13238699999999998,0.6341,0.651623,1.838236,0.281131,-0.8304520000000001,-0.9779190000000001
246,-1.2298120000000001,-1.006437,1.053783,-0.504077,0.844931,-0.178869,3.031473,1.265576,5.7927290000000005,0.012576,1.140298,-0.147059
247,-1.022419,-1.115669,1.275708,-0.375118,0.8982049999999999,-0.22915,1.8445169999999997,-0.683659,7.297402000000001,-0.411228,3.166004,-1.037131
248,-0.851474,-1.171454,1.527867,-0.292481,0.921317,-0.256176,3.8733480000000005,-2.625917,4.010052,-0.810226,1.635492,0.7344930000000001
249,-0.6360180000000001,-1.142517,1.768,-0.24668800000000002,0.909682,-0.334097,3.793254,1.076702,2.02106,-0.880174,0.163469,0.869131
250,-0.527364,-1.1250200000000001,1.8726669999999999,-0.216982,0.902276,-0.372577,1.118456,0.122393,0.8338959999999999,-0.426054,0.979392,1.011233
251,-0.471895,-1.116619,1.918036,-0.199431,0.8986219999999999,-0.390771,0.740591,1.036737,1.0768440000000001,0.705275,0.723326,0.833017
252,-0.38661799999999996,-1.122336,2.014568,-0.163483,0.901116,-0.401572,0.7393810000000001,-0.5176189999999999,2.1716189999999997,-0.151779,0.24057699999999999,0.7197180000000001
253,-0.29343800000000003,-1.1134549999999999,2.1167,-0.127719,0.89723,-0.42268599999999995,1.2621950000000002,0.586572,1.843775,-0.54643,-0.6766340000000001,0.953829
254,-0.205585,-1.1018649999999999,2.204771,-0.092257,0.8920520000000001,-0.442413,0.825788,0.166935,1.6692810000000002,-0.256788,-1.328865,0.790695
255,-0.15762,-1.09588,2.26162,-0.071775,0.889331,-0.451592,0.420059,-0.22896799999999998,0.8615149999999999,-0.6285109999999999,-1.4239680000000001,0.45382
256,-0.1687,-1.094658,2.25957,-0.07695700000000001,0.8887719999999999,-0.45183999999999996,-0.141349,-0.5460649999999999,-0.603328,-0.668404,-1.07029,0.5258609999999999
257,-0.23242800000000002,-1.0970659999999999,2.20277,-0.105083,0.8898719999999999,-0.44393900000000003,-0.558505,-0.7857930000000001,-1.561993,-0.14715999999999999,-0.960765,0.27014099999999996
258,-0.330757,-1.105617,2.1169849999999997,-0.14568,0.893741,-0.42426499999999995,-1.212566,-1.194072,-1.7241360000000001,0.046498000000000005,-1.013141,0.305902
259,-0.43617700000000004,-1.12917,2.017992,-0.180569,0.904058,-0.387389,-2.6578169999999997,-0.633916,-1.4924620000000002,0.039761000000000005,-0.539556,-0.20463599999999998
260,-0.582496,-1.168531,1.8637869999999999,-0.215367,0.920177,-0.326938,-2.807249,0.382221,-2.127196,-0.552501,0.040318,0.32355
261,-0.764072,-1.1560110000000001,1.6579150000000002,-0.27881500000000004,0.9152030000000001,-0.290968,-2.23667,0.790308,-4.770787,-0.9408200000000001,1.4455,0.919233
262,-1.026553,-1.114174,1.360773,-0.377211,0.897547,-0.228293,-3.989225,0.114482,-5.53633,0.208952,3.112173,0.067862
263,-1.239401,-1.0796379999999999,1.1267690000000001,-0.44598000000000004,0.8817870000000001,-0.153455,-4.294276,-0.7980729999999999,-2.176666,0.654614,3.235569,0.26966599999999996
264,-1.424865,-1.091915,0.94245,-0.455883,0.887511,-0.067004,-4.0029449999999995,-0.869129,-0.11394000000000001,1.0917780000000001,1.7998060000000002,0.5418270000000001
265,-1.535081,-1.078299,0.8258190000000001,-0.47252,0.8811549999999999,-0.016883000000000002,-1.986991,0.157905,-1.354198,-0.18254,1.604532,0.47686000000000006
266,-1.561821,-1.043696,0.765857,-0.503003,0.8642690000000001,-0.004515,-1.084682,1.614435,-2.2096810000000002,-0.5045189999999999,1.363789,0.399931
267,-1.567458,-0.983875,0.7401310000000001,-0.5537920000000001,0.832649,-0.001849,-0.467553,0.04169,-3.176505,-0.722056,0.8210069999999999,0.075503
268,-1.603515,-0.9328209999999999,0.7232850000000001,-0.595247,0.803303,0.019483,-0.650209,-1.366855,-2.1579599999999997,0.090135,-0.120717,-0.174497
269,-1.641879,-0.9023030000000001,0.700765,-0.6182350000000001,0.784756,0.04402,-0.6951510000000001,-0.770315,-1.051293,0.525279,-0.5537529999999999,-0.313048
270,-1.6606009999999998,-0.898173,0.6909350000000001,-0.620525,0.7821899999999999,0.055876999999999996,-0.045714,-0.398927,0.34679699999999997,1.102916,-1.382379,-0.544738
271,-1.654168,-0.9230149999999999,0.7070529999999999,-0.601318,0.797425,0.050249,1.033888,-0.267464,1.697993,1.28839,-1.9608919999999999,-0.412997
272,-1.609927,-0.9711700000000001,0.757717,-0.563897,0.8255469999999999,0.022077,1.955832,0.411804,2.590187,1.200951,-1.9489599999999998,-0.35932600000000003
273,-1.523009,-1.0247190000000002,0.842245,-0.518741,0.854568,-0.024808,2.323331,1.009152,2.605875,1.28342,-1.648132,-0.150317
274,-1.437763,-1.066351,0.922891,-0.479046,0.8754430000000001,-0.064108,1.391418,0.332883,2.0372790000000003,0.8655209999999999,-0.699005,-0.007654
275,-1.447252,-1.09146,0.946675,-0.45766999999999997,0.887301,-0.05683200000000001,-0.278962,-2.94063,0.803488,0.036467,0.298551,0.9517899999999999
276,-1.587069,-1.069183,0.8855719999999999,-0.48077200000000003,0.876808,0.007824,-1.698533,-3.355695,-2.587887,-1.2480799999999999,1.386681,1.522465
277,-1.5979860000000001,-0.996892,0.8442709999999999,-0.54271,0.8397879999999999,0.014759999999999999,-0.774612,3.41943,-3.6465870000000002,-0.433059,-0.646382,-0.364781
278,-1.494521,-0.933205,0.854153,-0.593527,0.803532,-0.045360000000000004,1.1608479999999999,4.8184309999999995,-2.735417,1.20928,-0.911839,-0.09927899999999999
279,-1.474579,-0.910574,0.86536,-0.6104510000000001,0.789856,-0.058918,0.268396,-3.7931980000000003,0.41636599999999996,2.274331,2.683578,0.9596899999999999
280,-1.490026,-0.927264,0.862818,-0.598064,0.799981,-0.048411,0.729751,-0.211846,0.575233,0.161983,1.206412,-1.426015
281,-1.4686190000000001,-0.9411709999999999,0.8724290000000001,-0.585767,0.808248,-0.060061,0.071345,1.565676,0.718975,0.057721,-0.8645219999999999,-0.624143
282,-1.399133,-0.96506,0.9181159999999999,-0.560994,0.822083,-0.097259,1.8017869999999998,1.510408,2.115549,0.29938200000000004,-0.883439,-0.420624
283,-1.26488,-1.0308110000000001,1.040168,-0.49024799999999996,0.857716,-0.154835,2.521491,2.020003,5.118422,0.148757,3.149959,-0.598476
284,-1.086107,-1.128116,1.207859,-0.379019,0.9036069999999999,-0.19958599999999999,1.265115,0.025948000000000002,5.638835,-0.047525,2.946201,-1.032424
285,-0.9472430000000001,-1.168632,1.4109180000000001,-0.31774600000000003,0.920216,-0.22855100000000003,3.6202389999999998,-2.6808680000000003,3.055497,-0.496386,0.987117,0.270741
286,-0.737694,-1.147874,1.66695,-0.276043,0.9118930000000001,-0.303721,4.472201,-0.24642600000000003,2.512467,-0.89156,1.004733,0.50912
287,-0.563132,-1.129833,1.831636,-0.227845,0.904341,-0.360902,1.821494,1.409993,1.9021709999999998,-0.460021,1.3205280000000001,1.0393540000000001
288,-0.456417,-1.12795,1.9289189999999998,-0.188859,0.903536,-0.384646,0.656328,0.693943,2.1588,0.6477970000000001,0.773512,1.001375
289,-0.339791,-1.1421540000000001,2.055357,-0.138526,0.909531,-0.391869,0.44173900000000005,-0.023195,2.6624209999999997,-0.7160880000000001,0.38555900000000004,0.796227
290,-0.222456,-1.139169,2.168446,-0.092298,0.908286,-0.408038,0.9804280000000001,1.110426,2.154121,-0.76694,-0.71865,0.8903530000000001
291,-0.114311,-1.129536,2.2702869999999997,-0.048713,0.904214,-0.424289,0.521961,0.476958,1.926336,-0.342095,-1.456903,0.8565860000000001
292,-0.049279,-1.130974,2.340631,-0.020973,0.904827,-0.425259,-0.037986,-0.060045,1.106991,-0.709221,-1.636837,0.51199
293,-0.06205,-1.136903,2.340552,-0.026069,0.907336,-0.419595,-0.57717,-0.9342969999999999,-0.638993,-0.706887,-1.2046540000000001,0.380913
294,-0.131133,-1.146582,2.2773779999999997,-0.05382000000000001,0.9113620000000001,-0.408068,-0.508475,-0.324743,-1.5504879999999999,-0.28083600000000003,-1.009049,0.12208800000000002
295,-0.22343000000000002,-1.148929,2.183971,-0.090727,0.912326,-0.39928400000000003,-0.48550299999999996,-0.393391,-1.985005,-0.039522,-0.963275,0.11924000000000001
296,-0.312367,-1.151453,2.0865650000000002,-0.125125,0.913356,-0.387455,-0.7533920000000001,0.248079,-1.796487,0.045504,-0.793316,0.781346
297,-0.399289,-1.1726860000000001,1.9819229999999999,-0.150713,0.921795,-0.357178,-2.762116,0.6329739999999999,-1.470248,0.280337,-0.526593,0.704789
298,-0.5597949999999999,-1.21425,1.7898580000000002,-0.185343,0.9371079999999999,-0.295761,-3.033808,1.28801,-2.80399,0.311335,-0.181401,0.27003499999999997
299,-0.784116,-1.210603,1.538824,-0.248901,0.9358290000000001,-0.24954,-2.562208,0.297331,-4.283187,-0.6768350000000001,0.862252,0.302213
300,-1.060653,-1.16038,1.226842,-0.348186,0.916955,-0.194827,-3.578906,0.6321260000000001,-5.871686,-0.717778,2.031669,0.006869
301,-1.261617,-1.107348,0.998994,-0.425835,0.894517,-0.136021,-3.11239,-0.5195270000000001,-2.7947450000000003,-0.165733,3.583999,0.41206800000000005
302,-1.410979,-1.080739,0.869102,-0.464675,0.8823059999999999,-0.074902,-2.1820630000000003,-1.554351,-2.1598740000000003,0.200285,1.793643,0.747235
303,-1.478373,-1.033215,0.796028,-0.509871,0.85895,-0.047258999999999995,-1.0513709999999998,0.438205,-2.7292330000000002,-0.172227,1.55226,0.783358
304,-1.4985030000000001,-0.975133,0.766312,-0.559589,0.8277760000000001,-0.040525,-0.373295,-0.271084,-3.096397,-0.804897,1.39073,0.039883999999999996
305,-1.547672,-0.909193,0.75584,-0.614215,0.789008,-0.014206,-0.0009429999999999999,-2.958802,-3.411887,-0.578991,1.172479,-0.036438
306,-1.6073,-0.8442430000000001,0.761454,-0.663852,0.747468,0.024243999999999998,0.171655,-2.98486,-2.906447,0.313297,0.271971,-0.30821
307,-1.649973,-0.811238,0.76339,-0.686441,0.72514,0.054464,-0.10495499999999999,-1.610998,-0.9852040000000001,1.2371,-1.135632,-0.29279099999999997
308,-1.659792,-0.813344,0.766416,-0.68435,0.726589,0.061065999999999995,0.332835,-0.06832300000000001,0.725032,1.40925,-1.468792,-0.198227
309,-1.632766,-0.846118,0.788285,-0.66162,0.748713,0.041053,1.169865,0.8631969999999999,2.011551,1.2725819999999999,-1.824976,-0.22243400000000002
310,-1.573026,-0.8973549999999999,0.8344659999999999,-0.623675,0.78168,0.00139,1.806664,1.3225120000000001,2.745006,1.389148,-1.800418,-0.26729
311,-1.485462,-0.9536959999999999,0.907236,-0.5765640000000001,0.8155600000000001,-0.049319999999999996,2.090426,1.507174,2.939032,1.428584,-1.663491,-0.179623
312,-1.4029399999999999,-1.004828,0.977036,-0.528694,0.8440700000000001,-0.089588,1.214127,0.860651,2.609,0.612449,-0.284545,-0.145108
313,-1.395761,-1.0419370000000001,1.005112,-0.49683599999999994,0.863383,-0.087863,-0.10291800000000001,-2.285526,1.4608299999999999,0.07899,0.439778,0.8329340000000001
314,-1.503785,-1.039949,0.969678,-0.505124,0.8623790000000001,-0.0339,-1.117035,-2.434485,-1.4302620000000001,-0.906466,1.244936,1.545878
315,-1.517685,-0.985824,0.9155559999999999,-0.5513939999999999,0.833727,-0.029313,-0.9596030000000001,3.341411,-3.155333,-0.41979700000000003,-0.32367199999999996,-0.49681000000000003
316,-1.42972,-0.9291809999999999,0.9095409999999999,-0.592542,0.80113,-0.084152,0.043004,4.81428,-2.32555,1.221341,0.311251,-1.043228
317,-1.4286780000000001,-0.9208059999999999,0.8914219999999999,-0.599074,0.79609,-0.085717,-0.368044,-0.849576,0.6367430000000001,1.944716,2.0525279999999997,0.480188
318,-1.4010340000000001,-0.9419040000000001,0.8915129999999999,-0.5797899999999999,0.8086800000000001,-0.099383,0.009833,1.930151,1.0022209999999998,1.118562,0.094671,-0.010404
319,-1.381564,-0.967096,0.884181,-0.557555,0.82324,-0.10678499999999999,-0.30328299999999997,0.905439,1.5183659999999999,0.425903,-0.464995,-0.86755
320,-1.30576,-1.02559,0.960541,-0.500484,0.8550200000000001,-0.13584200000000002,2.436281,1.133544,4.43316,0.246272,-0.169427,-0.274802
321,-1.116694,-1.116124,1.1341700000000001,-0.39465700000000004,0.8984049999999999,-0.192642,1.802098,1.474349,6.066946,-0.253521,2.172884,-0.734421
322,-0.9343950000000001,-1.1855790000000002,1.349912,-0.302198,0.926717,-0.22331399999999998,2.65879,-1.682353,4.333637,-1.03023,1.890437,-0.23400700000000002
323,-0.705831,-1.170806,1.6141860000000001,-0.25259499999999996,0.9210649999999999,-0.29636599999999996,4.68459,0.087973,2.3543529999999997,-1.4473719999999999,0.647417,0.361216
324,-0.49446599999999996,-1.1376190000000002,1.802887,-0.199199,0.9076360000000001,-0.369477,2.122013,1.650451,1.983006,-1.480595,0.919939,1.260865
325,-0.443459,-1.134272,1.86172,-0.18140499999999998,0.906227,-0.381894,0.464337,0.178579,0.673287,0.047341,0.625145,0.875806
326,-0.38777399999999995,-1.141027,1.9288319999999999,-0.157551,0.909062,-0.385723,0.177332,-0.783907,1.8550369999999998,0.252384,0.349224,0.707348
327,-0.323583,-1.139635,2.013,-0.132885,0.908481,-0.39623400000000003,1.075835,-0.22390700000000002,1.4268969999999999,-0.198292,-0.385746,0.655115
328,-0.24238200000000001,-1.1281700000000001,2.095303,-0.102802,0.9036299999999999,-0.415792,0.835728,0.367637,1.555854,-0.047147,-1.0624280000000002,0.8874569999999999
329,-0.18818900000000002,-1.125308,2.1547490000000002,-0.080612,0.9024,-0.423289,0.262982,-0.220138,0.923423,-0.929398,-1.27972,0.503794
330,-0.20754099999999998,-1.130701,2.153674,-0.087784,0.904711,-0.41688100000000006,-0.603383,-1.269908,-0.602431,-0.882782,-1.23337,0.30350900000000003
331,-0.301041,-1.1354469999999999,2.082272,-0.125047,0.906723,-0.40275900000000003,-0.554424,-1.5231370000000002,-1.785354,-0.12406800000000001,-1.1400139999999999,0.087848
332,-0.431874,-1.1352520000000001,1.976865,-0.176597,0.90664,-0.383164,-1.0912469999999999,-1.9150650000000002,-2.142183,0.352973,-1.0066620000000002,0.369492
333,-0.569006,-1.144253,1.857494,-0.222912,0.910401,-0.348536,-1.866854,-0.89836,-1.8444610000000001,0.52264,-0.535371,0.8828530000000001
334,-0.6858920000000001,-1.170651,1.717734,-0.24672600000000003,0.921005,-0.301454,-3.4576589999999996,1.59428,-1.239198,0.5456300000000001,-0.494933,1.145234
335,-0.870818,-1.216391,1.483914,-0.265427,0.937853,-0.223556,-5.076182,1.025741,-2.0456,0.074036,-0.333956,-0.719498
336,-1.1729040000000002,-1.2067,1.1497389999999998,-0.328281,0.9344459999999999,-0.13798,-4.588146,0.192093,-4.179703,-0.420544,0.341738,-0.294027
337,-1.402931,-1.105085,0.8776149999999999,-0.442742,0.893502,-0.075027,-3.3391839999999995,1.3407930000000001,-7.472188,-1.120582,2.885657,0.184753
338,-1.51425,-1.008276,0.7475970000000001,-0.532464,0.8459139999999999,-0.030141,-2.126592,-0.8983260000000001,-2.692307,0.039452,4.947482,0.696507
339,-1.589784,-0.972089,0.676605,-0.56347,0.8260649999999999,0.0107,-1.724941,-0.617999,-2.2818,0.060905999999999995,1.119522,0.560879
340,-1.6260709999999998,-0.9107850000000001,0.656702,-0.612186,0.789985,0.033873,-0.086162,-0.8913559999999999,-3.273063,-0.422863,0.538048,0.680345
341,-1.625544,-0.8463579999999999,0.670856,-0.661719,0.748872,0.036264,0.22700599999999999,-0.9395709999999999,-3.208857,-0.934717,0.8204950000000001,0.009726
342,-1.6448580000000002,-0.7877689999999999,0.688578,-0.703491,0.708781,0.052197,0.650039,-2.0803689999999997,-2.804925,-0.755249,0.8708389999999999,-0.11243900000000001
343,-1.688664,-0.74419,0.714719,-0.73053,0.677376,0.086507,0.69707,-3.471401,-1.836073,0.398453,0.186378,-0.460942
344,-1.7320970000000002,-0.730681,0.730176,-0.73505,0.667377,0.119603,0.360791,-1.965809,-0.038261,1.328525,-0.7097359999999999,-0.444967
345,-1.742427,-0.756537,0.7411409999999999,-0.71653,0.686407,0.1242,0.867419,-0.30711700000000003,1.903044,1.76751,-1.440787,-0.154275
346,-1.722276,-0.8162050000000001,0.7623270000000001,-0.677144,0.7285520000000001,0.10336600000000001,1.433727,0.5333829999999999,3.275383,1.297368,-1.629934,-0.22294899999999998
347,-1.6749630000000002,-0.8922899999999999,0.801307,-0.6242260000000001,0.778511,0.06526,1.914337,1.073282,3.706405,1.179951,-1.518318,-0.030866
348,-1.609111,-0.968275,0.8543149999999999,-0.5663020000000001,0.82391,0.021709,1.6442169999999998,1.160937,3.5986519999999995,1.122164,-1.250942,0.025516999999999998
349,-1.571742,-1.032015,0.880397,-0.5130859999999999,0.8583350000000001,0.00048499999999999997,0.163465,0.392687,2.798809,0.42629399999999995,-0.185651,-0.111875
350,-1.621364,-1.064051,0.854943,-0.48471000000000003,0.8743290000000001,0.024531,-1.02329,-2.897396,0.7619090000000001,-0.0022429999999999998,0.365219,0.508305
351,-1.708718,-1.0424209999999998,0.828567,-0.49933999999999995,0.863627,0.06931,-0.396701,-1.8665470000000002,-2.090392,-0.300129,0.6332300000000001,0.8901629999999999
352,-1.6820490000000001,-0.9801780000000001,0.8264739999999999,-0.5534279999999999,0.8305969999999999,0.061826,-0.45485,2.905919,-3.3777120000000003,-0.192437,-0.603851,-0.625089
353,-1.5904209999999999,-0.922243,0.8423200000000001,-0.603915,0.796959,0.011853,0.983081,4.06665,-2.389596,0.275546,-1.0822829999999999,-0.7467159999999999
354,-1.547967,-0.8961399999999999,0.857039,-0.624463,0.780922,-0.014259,-0.41362600000000005,-2.4572,-0.09111,1.745679,-0.091545,-0.577874
355,-1.618593,-0.9421809999999999,0.806545,-0.58735,0.8088420000000001,0.028095,-0.271571,0.809902,2.204509,0.266916,3.054896,-2.08997
356,-1.601941,-0.951097,0.8191,-0.580505,0.814053,0.018085,-0.44354799999999994,1.852925,0.19585,-0.28685,-1.215299,-0.441089
357,-1.542402,-0.972301,0.815756,-0.5631689999999999,0.8261850000000001,-0.015995,0.465704,3.257002,1.792053,0.172926,-1.553922,-0.558422
358,-1.4433850000000001,-1.042034,0.884539,-0.500373,0.863432,-0.064101,2.058966,1.539421,4.757948000000001,0.09693,1.368227,-0.45569
359,-1.303828,-1.1442780000000001,1.0324950000000002,-0.399045,0.9104120000000001,-0.10913699999999998,2.200549,-1.178007,5.676818,-0.413867,2.981098,-0.823358
360,-1.123729,-1.19971,1.2739969999999998,-0.32698499999999997,0.931934,-0.15677,4.237709,-1.065858,3.3077,-1.275234,2.459683,0.28834699999999996
361,-0.922889,-1.218141,1.485282,-0.275393,0.938459,-0.208447,1.6830180000000001,-0.738668,2.555568,-1.1183299999999998,0.310961,0.349454
362,-0.843443,-1.220073,1.6151719999999998,-0.256627,0.939124,-0.22844,1.6513689999999999,-1.706202,0.786543,-0.712367,0.628075,0.516999
363,-0.755517,-1.220186,1.7126430000000001,-0.23550300000000002,0.939163,-0.25001599999999996,0.7259770000000001,-0.32319699999999996,1.784572,0.47364700000000004,0.680557,0.839493
364,-0.658302,-1.239099,1.8327330000000002,-0.19922,0.945491,-0.257594,0.767706,-0.712291,2.082325,-0.175673,0.038029,0.496379
365,-0.5352359999999999,-1.241631,1.964234,-0.164871,0.946312,-0.278041,1.246371,0.284529,1.7372189999999998,-0.08165,-0.740487,0.706691
366,-0.414055,-1.236361,2.084531,-0.132055,0.9445959999999999,-0.300494,0.9621040000000001,0.30196,1.620911,0.11885599999999999,-1.2239389999999999,0.6477539999999999
367,-0.323615,-1.234615,2.179782,-0.104901,0.9440209999999999,-0.312756,0.44960200000000006,-0.22286999999999998,1.178965,-0.639255,-1.27471,0.38506799999999997
368,-0.314789,-1.238746,2.204566,-0.100928,0.945376,-0.30995900000000004,-0.406839,-0.909525,-0.053524,-0.685968,-1.2150290000000001,0.309334
369,-0.37958000000000003,-1.243474,2.150152,-0.119127,0.9469069999999999,-0.29862,-0.519732,-0.49688000000000004,-1.115586,-0.211348,-1.1241370000000002,0.19505799999999998
370,-0.49439099999999997,-1.243557,2.043902,-0.152515,0.946933,-0.282938,-0.9202440000000001,-0.942664,-1.708539,0.208378,-1.15401,0.06109
371,-0.6335729999999999,-1.246137,1.9211900000000002,-0.188846,0.94776,-0.25707199999999997,-1.236016,-1.1514030000000002,-1.448763,0.197116,-1.040594,0.33173400000000003
372,-0.758901,-1.247166,1.80655,-0.21882800000000002,0.9480870000000001,-0.230742,-1.261156,-0.508151,-1.383533,0.024415,-0.7100810000000001,0.517776
373,-0.9240360000000001,-1.260208,1.618385,-0.24389299999999997,0.9521540000000001,-0.184165,-3.750754,0.800034,-1.629062,0.07354400000000001,-0.239858,-0.655328
374,-1.186969,-1.257708,1.324285,-0.285583,0.9513870000000001,-0.115335,-3.782857,0.683975,-2.6792,-0.410141,0.43894799999999995,-0.294944
375,-1.4434870000000002,-1.180242,1.059801,-0.377616,0.9246979999999999,-0.048335,-2.979639,-0.8530780000000001,-6.335621,-1.587533,2.270324,-0.496724
376,-1.571473,-1.0613190000000001,0.9454530000000001,-0.487717,0.873,0.00033,-1.558566,-1.568877,-4.656215,0.132248,4.215196,0.616171
377,-1.652902,-1.021439,0.886627,-0.5203770000000001,0.8528600000000001,0.042822000000000006,-1.649836,-1.116848,-1.207075,0.667701,1.6300649999999999,0.779337
378,-1.700433,-0.9854510000000001,0.842192,-0.547848,0.833521,0.071422,-0.9921059999999999,-0.189986,-2.060382,0.24786100000000003,0.9157620000000001,0.628529
379,-1.687503,-0.9351709999999999,0.8483780000000001,-0.589639,0.804701,0.069129,0.13161199999999998,0.8368979999999999,-2.756739,-0.483954,0.9740770000000001,0.40894400000000003
380,-1.663805,-0.8734270000000001,0.8620559999999999,-0.639425,0.766534,0.059644,0.040586000000000004,0.008376,-3.2754689999999997,-0.935831,0.910178,-0.029996
381,-1.686322,-0.8201370000000001,0.878971,-0.6775720000000001,0.7312390000000001,0.078627,0.44863500000000006,-2.7600729999999998,-2.349332,-0.48008199999999995,0.7426689999999999,-0.088774
382,-1.7274880000000001,-0.780027,0.901841,-0.702183,0.703299,0.11093599999999999,0.5514140000000001,-2.659097,-1.849884,0.40216399999999997,0.196573,-0.386311
383,-1.7578369999999999,-0.760037,0.923687,-0.712167,0.688948,0.13477999999999998,0.631451,-2.121102,-0.5969899999999999,1.040765,-0.690337,-0.614241
384,-1.784305,-0.771085,0.9427639999999999,-0.700869,0.696914,0.15195799999999998,0.941667,-1.8077990000000002,0.9686520000000001,1.5624559999999998,-1.2699120000000002,-0.456172
385,-1.7951119999999998,-0.813351,0.964152,-0.669852,0.726594,0.15283,1.2800479999999999,-0.995761,2.46335,1.590506,-1.5385440000000001,-0.282148
386,-1.7897830000000001,-0.879662,0.9848629999999999,-0.622186,0.770524,0.138471,1.496156,-0.268022,3.3014129999999997,1.350671,-1.433366,-0.109723
387,-1.772966,-0.9497190000000001,1.011657,-0.5700569999999999,0.8132520000000001,0.116844,1.4659309999999999,-0.25985199999999997,3.1495029999999997,1.035603,-1.088277,-0.073189
388,-1.773323,-1.009463,1.02847,-0.521433,0.8465459999999999,0.107072,0.758422,-1.098806,2.577343,0.447565,-0.532307,-0.069093
389,-1.82545,-1.045696,1.015308,-0.48513100000000003,0.865273,0.126282,-0.413494,-2.6918580000000003,1.313901,0.009362,-0.15625899999999998,0.23054499999999997
390,-1.9286419999999997,-1.036571,0.972933,-0.476918,0.860663,0.178341,-1.341975,-2.9869529999999997,-1.071137,-0.422969,0.19709100000000002,0.69875
391,-1.955798,-0.9836370000000001,0.958201,-0.513441,0.832518,0.20805900000000002,-1.431552,0.652253,-2.9116310000000003,-0.51343,0.17846800000000002,0.243205
392,-1.898436,-0.9109879999999999,0.966477,-0.5803550000000001,0.7901100000000001,0.197257,-0.541095,3.221277,-3.57741,-0.190092,-0.772456,-1.166983
393,-1.810475,-0.860749,1.01559,-0.633232,0.7583310000000001,0.154747,0.596314,0.226293,-2.3104669999999996,2.982216,2.194427,0.292031
394,-1.976853,-0.8321440000000001,0.93432,-0.618541,0.7393770000000001,0.265942,-2.8587830000000003,-1.6851919999999998,-0.5546300000000001,-1.207646,3.981967,-2.777248
395,-1.937617,-0.8275629999999999,0.95529,-0.631652,0.736284,0.24268699999999999,0.475152,4.945489,0.182279,0.35540700000000003,-0.801821,-0.941326
396,-1.856729,-0.834024,0.9656450000000001,-0.644618,0.740641,0.18950999999999998,0.557707,2.1195150000000003,0.5924010000000001,0.820766,-0.354517,-0.274853
397,-1.807072,-0.8921180000000001,0.9998040000000001,-0.61032,0.778403,0.146948,2.1556990000000003,0.774633,3.590967,0.155745,0.9429860000000001,-0.40015300000000004
398,-1.759711,-0.988924,1.038183,-0.539808,0.835435,0.103209,1.9960080000000002,1.0930600000000001,4.549775,-0.072588,1.722564,-0.300383
399,-1.7155060000000002,-1.072311,1.057552,-0.473096,0.878308,0.068944,0.8297379999999999,1.061627,3.8323690000000004,-0.564929,1.392002,0.49128299999999997
400,-1.6947720000000002,-1.148701,1.106179,-0.406526,0.9122319999999999,0.050658999999999996,2.227643,-2.617829,3.4184919999999996,-0.9169299999999999,1.401565,-0.515243
401,-1.626752,-1.210135,1.252732,-0.352337,0.9356639999999999,0.019736,3.2545919999999997,-2.9213400000000003,2.5063150000000003,-1.136844,0.6754359999999999,0.675103
402,-1.512134,-1.2518340000000001,1.4091690000000001,-0.31303800000000004,0.9495610000000001,-0.018385,2.141743,-1.119286,1.705748,-0.836666,0.498284,0.6293920000000001
403,-1.4300620000000002,-1.26736,1.5076,-0.295844,0.9543149999999999,-0.041913,1.0834709999999999,-0.31004699999999996,0.586368,0.16204000000000002,0.158218,0.386365
404,-1.394307,-1.286717,1.56665,-0.275917,0.9599200000000001,-0.049208999999999996,0.413455,-1.349824,1.449349,0.315743,0.106303,0.386397
405,-1.3688559999999999,-1.3130620000000002,1.612456,-0.24970799999999999,0.9669700000000001,-0.051123,0.419175,-0.637894,1.363019,0.099088,-0.310689,0.41234399999999993
406,-1.3277860000000001,-1.340135,1.6583849999999998,-0.2219,0.9735149999999999,-0.055011000000000004,0.041596,0.015805,1.518708,0.265296,-1.24738,0.358066
407,-1.326192,-1.369097,1.668007,-0.194367,0.979728,-0.048514,-0.349225,-0.8338469999999999,1.215829,0.20039400000000002,-1.428,0.084372
408,-1.3908559999999999,-1.384362,1.6325049999999999,-0.182358,0.982671,-0.033172,-0.626422,-1.685759,0.314473,-0.125396,-1.28742,0.124573
409,-1.501526,-1.3775110000000002,1.5472569999999999,-0.191619,0.9813790000000001,-0.013295,-0.811212,-0.990165,-0.8477979999999999,-0.011552,-1.0122010000000001,-0.00912
410,-1.6209200000000001,-1.351984,1.4392969999999998,-0.21679400000000001,0.9761559999999999,0.010876,-1.3030030000000001,-0.650393,-1.473374,0.15354600000000002,-1.009741,-0.20798899999999998
411,-1.7419790000000002,-1.317756,1.327334,-0.24668600000000002,0.9681559999999999,0.042645999999999996,-1.5367540000000002,-0.464106,-1.503019,0.360989,-1.020707,0.06959800000000001
412,-1.845059,-1.286592,1.223871,-0.269911,0.959885,0.07594,-2.0571599999999997,-0.185057,-1.0391299999999999,0.33300599999999997,-0.707779,-0.12383800000000002
413,-2.052863,-1.241356,1.026897,-0.286643,0.946224,0.149983,-4.212637,-1.819675,-1.180279,-0.109124,-0.230113,-1.04041
414,-2.1540049999999997,-1.169049,0.954852,-0.326389,0.9203790000000001,0.21533899999999997,-1.8991689999999999,-0.26842,-3.7682949999999997,-1.327344,1.5307620000000002,0.347069
415,-2.120571,-1.055428,0.978542,-0.420227,0.8701110000000001,0.257513,-3.4138669999999998,-0.048171,-5.050345,-0.375671,2.963339,-0.428183
416,-2.1536939999999998,-0.966916,0.9504870000000001,-0.47407200000000005,0.8231379999999999,0.312564,-2.554653,-0.685793,-2.189238,0.39866399999999996,3.148541,-0.061924
417,-2.183913,-0.9149520000000001,0.9271020000000001,-0.49875200000000003,0.792534,0.350906,-1.648765,-0.48502799999999996,-1.766561,0.304111,0.8854299999999999,0.12764
418,-2.187794,-0.8844420000000001,0.9442659999999999,-0.516874,0.7735609999999999,0.366663,0.236314,-0.7556470000000001,-1.526583,-0.723558,0.966093,0.06526699999999999
419,-2.1501959999999998,-0.8555940000000001,1.000494,-0.548742,0.7549600000000001,0.359048,0.8908940000000001,-0.396258,-2.723153,-1.284068,1.252669,-0.0514
420,-2.143655,-0.8219129999999999,1.077693,-0.57213,0.73245,0.36903,1.4150459999999998,-3.82533,-2.6574139999999997,-0.882597,1.055468,-0.340587
421,-2.179495,-0.797438,1.152172,-0.573078,0.715569,0.399426,1.453018,-4.523556,-2.3069450000000002,-0.070004,0.789619,-0.288434
422,-2.208828,-0.783706,1.2207620000000001,-0.5689569999999999,0.705909,0.42187600000000003,1.6965540000000001,-3.4718480000000005,-1.7895720000000002,0.6122609999999999,0.151803,-0.38598699999999997
423,-2.212987,-0.78167,1.289752,-0.568347,0.704466,0.425097,1.819147,-2.043628,-1.285277,1.060031,-0.355925,-0.573321
424,-2.2139830000000003,-0.791358,1.330867,-0.562435,0.711309,0.42155,1.333106,-1.367465,0.005146,0.98254,-0.886861,-0.8327899999999999
425,-2.2225099999999998,-0.817338,1.350072,-0.543941,0.7293270000000001,0.414979,1.308224,-0.94731,0.981857,0.9214899999999999,-0.888705,-0.806535
426,-2.233371,-0.856914,1.35752,-0.516229,0.755825,0.40278200000000003,1.505508,-0.809928,1.618651,0.953348,-0.959851,-0.622204
427,-2.249963,-0.9042889999999999,1.3631739999999999,-0.48105200000000004,0.785986,0.388346,1.591483,-1.228438,1.77468,0.934009,-0.798193,-0.402384
428,-2.28782,-0.945573,1.3582049999999999,-0.44116000000000005,0.810833,0.38461100000000004,0.9155409999999999,-2.043382,1.563768,0.590132,-0.54005,-0.414075
429,-2.3535939999999997,-0.966109,1.33979,-0.403036,0.82268,0.400945,-0.089036,-2.7280990000000003,0.7735529999999999,0.229055,-0.35646300000000003,-0.31091799999999997
430,-2.418189,-0.957016,1.323987,-0.381251,0.817476,0.43171499999999996,-0.948974,-2.3312049999999997,-0.49666800000000005,-0.126974,-0.17057999999999998,0.021715
431,-2.44004,-0.918164,1.332274,-0.391939,0.794488,0.46386400000000005,-1.4651450000000001,-0.690337,-1.997887,-0.258283,-0.006936,0.233341
432,-2.393192,-0.86566,1.3693819999999999,-0.441035,0.761523,0.47493900000000006,-0.8304040000000001,1.7780200000000002,-2.84158,-0.014974000000000001,-0.274936,-0.961283
433,-2.297869,-0.8300649999999999,1.440367,-0.504178,0.737975,0.448546,1.294071,2.061516,-2.851673,0.9277620000000001,-0.665999,-1.021285
434,-2.261708,-0.806766,1.493834,-0.533173,0.722053,0.44086499999999995,0.256241,-3.5853650000000004,-1.191669,1.415283,1.673348,-0.6092
435,-2.306987,-0.797665,1.495111,-0.517519,0.715727,0.46893900000000005,-0.257186,-0.593929,-0.5164949999999999,0.32724200000000003,3.441469,-0.071844
436,-2.3214810000000003,-0.778061,1.462623,-0.52083,0.7018989999999999,0.48586999999999997,-1.514734,0.11013800000000001,0.5922470000000001,0.144426,-0.923716,-1.455322
437,-2.326447,-0.802516,1.448057,-0.505764,0.7191069999999999,0.476534,1.241112,0.270828,1.706218,0.554348,-0.48206099999999996,-0.825838
438,-2.346522,-0.867151,1.425785,-0.4619,0.7624890000000001,0.45305,2.02239,-0.046801,3.468239,-0.003264,1.165139,-0.44517700000000004
439,-2.3716720000000002,-0.9423360000000001,1.375478,-0.409221,0.808934,0.42208900000000005,1.120242,0.243194,3.657051,-0.706395,2.4322310000000003,-0.190201
440,-2.454758,-1.009855,1.317505,-0.337323,0.8467540000000001,0.41135600000000005,2.004901,-2.6518490000000003,3.329382,-1.462283,1.530092,-0.6893859999999999
441,-2.524322,-1.090447,1.302608,-0.267458,0.886834,0.37681,3.25025,-2.7391099999999997,2.22831,-0.771894,0.56681,-0.413706
442,-2.537919,-1.156333,1.330985,-0.228596,0.915333,0.331518,2.810299,-1.443645,0.990849,-0.349453,0.751599,0.161936
443,-2.566225,-1.1999389999999999,1.33694,-0.197201,0.932017,0.304057,1.089682,-2.353478,1.4382629999999998,0.05621,0.9626819999999999,0.293615
444,-2.677824,-1.222707,1.269406,-0.152579,0.940026,0.305066,0.23205,-2.236843,1.518649,-0.541284,0.112891,0.157184
445,-2.764709,-1.2353889999999998,1.2088020000000002,-0.12113399999999999,0.944276,0.306044,0.124796,-0.954032,1.024874,-0.332419,-0.608995,0.019806999999999998
446,-2.8258669999999997,-1.2482799999999998,1.156002,-0.098413,0.948441,0.301279,0.474681,-0.686971,1.068637,-0.084448,-0.921738,-0.07795099999999999
447,-2.931378,-1.26547,1.091573,-0.062725,0.953749,0.293978,0.580166,-3.132934,1.2658559999999999,-0.095234,-1.2899459999999998,-0.586657
448,-3.0839220000000003,-1.274519,1.0106629999999999,-0.016828,0.9564299999999999,0.29146700000000003,0.10294400000000001,-3.81145,1.130932,-0.724871,-1.1276950000000001,-0.144205
449,3.1118759999999996,-1.2705799999999998,0.986923,0.008786,0.9552729999999999,0.295586,-0.489728,-2.862435,-0.181927,-0.913984,-0.9625049999999999,-0.29107
450,3.120998,-1.253212,1.0387950000000001,0.00643,0.9499920000000001,0.312197,-0.9238360000000001,-1.532367,-1.020945,0.063348,-1.0953629999999999,-0.537615
451,-3.115112,-1.242776,1.1139270000000001,-0.00853,0.946682,0.32204699999999997,-0.350998,-1.283189,-1.2266350000000001,0.353684,-1.092449,-0.560512
452,-3.100403,-1.23156,1.170232,-0.013702,0.943009,0.33247600000000005,-0.689552,-2.2599169999999997,-0.7000460000000001,0.164108,-1.0658729999999998,-0.554949
453,-3.101263,-1.203885,1.218905,-0.014463,0.9334399999999999,0.358433,-1.987756,-2.239534,-1.208,-0.110812,-0.508879,-0.926106
454,-3.053057,-1.147057,1.314565,-0.036355,0.911558,0.409554,-2.827254,-1.9931130000000001,-2.428748,-0.613578,-0.079511,-0.689766
455,-2.941914,-1.090394,1.457055,-0.091665,0.8868090000000001,0.45294700000000004,-2.1082560000000004,0.709816,-4.462152,-1.0297180000000001,0.516145,-0.282598
456,-2.749885,-1.0073889999999999,1.654541,-0.203888,0.84544,0.493613,-2.8649869999999997,0.800531,-5.976952,-1.208282,2.3291049999999998,-0.531699
457,-2.697343,-0.942174,1.734017,-0.252722,0.8088380000000001,0.530948,-1.533971,-2.03327,-2.0329669999999997,0.03092,1.9574580000000001,-0.548145
458,-2.7198900000000004,-0.899684,1.789306,-0.254533,0.783131,0.5673729999999999,-1.0818530000000002,-3.6771629999999997,-2.9132580000000003,-0.246856,1.653118,-0.40170900000000004
459,-2.700776,-0.862509,1.899129,-0.277566,0.7594770000000001,0.58834,0.34255599999999997,-3.0378990000000003,-4.437026,-1.247642,1.9744400000000002,0.21297600000000003
460,-2.691555,-0.833585,2.025906,-0.29241500000000004,0.740346,0.605287,0.605441,-4.835849,-4.191468,-1.429127,1.8575689999999998,-0.258714
461,-2.688179,-0.817541,2.139741,-0.299622,0.729466,0.614896,1.190145,-3.171544,-3.719499,-0.520721,0.960521,-0.457318
462,-2.653284,-0.812856,2.250961,-0.322492,0.726254,0.6070800000000001,1.555692,-2.149625,-3.317672,0.304517,0.14304,-0.9149719999999999
463,-2.638793,-0.808416,2.3392939999999998,-0.332805,0.723194,0.605163,1.061477,-2.707684,-2.39426,0.74316,-0.36604699999999996,-1.07138
464,-2.658995,-0.8088989999999999,2.387507,-0.320351,0.723528,0.611453,0.728594,-2.611457,-0.8638100000000001,1.136391,-0.903734,-0.990741
465,-2.6893130000000003,-0.821994,2.398548,-0.297502,0.7325050000000001,0.612308,0.7769699999999999,-1.495015,0.41589499999999996,0.9728559999999999,-1.234855,-0.9102819999999999
466,-2.72247,-0.8459040000000001,2.382299,-0.269834,0.748571,0.6056600000000001,0.9563149999999999,-0.8853549999999999,1.2442389999999999,0.74812,-1.331151,-0.805687
467,-2.755528,-0.8775930000000001,2.357913,-0.240612,0.769203,0.591966,1.2088700000000001,-0.630899,1.3289950000000001,0.656704,-1.115913,-0.611711
468,-2.780178,-0.904975,2.338796,-0.218417,0.78641,0.577793,0.8736940000000001,-0.43393000000000004,0.8478379999999999,0.25308400000000003,-0.761584,-0.443958
469,-2.789406,-0.910162,2.33658,-0.21166500000000002,0.7896029999999999,0.575947,-0.149273,0.030557,-0.401177,-0.368138,-0.34984499999999996,-0.028355
470,-2.732907,-0.892885,2.370244,-0.24923499999999998,0.778885,0.575509,-0.480706,2.068699,-1.7777009999999998,-0.5567949999999999,-0.289108,-0.010598
471,-2.6315779999999998,-0.880928,2.43533,-0.310698,0.7713300000000001,0.555435,1.073488,2.891166,-2.0776830000000004,-0.096376,-0.456663,-0.627625
472,-2.5396349999999996,-0.892882,2.4954240000000003,-0.355136,0.778882,0.516926,1.189756,1.0694629999999998,-0.561934,0.5665,-0.06324500000000001,-1.631062
473,-2.575352,-0.90928,2.4987060000000003,-0.32955300000000004,0.789061,0.518428,0.62624,-2.932818,0.46795600000000004,0.49733900000000003,1.773698,-0.308437
474,-2.622048,-0.9112979999999999,2.484163,-0.304203,0.7903,0.531862,-0.731642,0.016284,0.740976,0.24444899999999997,0.7970109999999999,0.77986
475,-2.654377,-0.924178,2.432074,-0.282063,0.798126,0.532378,0.327531,0.315315,2.2958439999999998,0.190067,0.072114,-1.8903029999999998
476,-2.673286,-0.9696870000000001,2.3692130000000002,-0.255275,0.824709,0.504659,1.560834,2.3802689999999997,2.71201,0.41390600000000005,0.5134569999999999,-0.649297
477,-2.7002919999999997,-1.021483,2.3043560000000003,-0.222994,0.852883,0.472074,1.610708,0.277927,2.80692,0.178698,0.610404,-1.171812
478,-2.800418,-1.096803,2.207395,-0.15272,0.889753,0.43012399999999995,3.3276830000000004,-0.7461479999999999,4.332828,-0.638494,0.7659020000000001,-0.7729590000000001
479,-2.973388,-1.19607,2.0172830000000004,-0.061274,0.930608,0.36084,3.556589,-0.195645,4.993882,-1.6860709999999999,2.180796,-0.779633
480,3.0736790000000003,-1.257454,1.8014009999999998,0.020916999999999998,0.951309,0.307515,2.699292,-2.620657,2.920787,-2.0971189999999997,1.582383,-0.16353299999999998
481,2.901046,-1.30603,1.6567020000000001,0.062338,0.9651540000000001,0.254134,2.522096,-0.631317,1.360601,-0.065222,1.152873,0.329316
482,2.694906,-1.3161909999999999,1.478504,0.108793,0.9677629999999999,0.22713699999999998,0.642637,-2.00371,2.26897,0.121294,1.1609450000000001,0.357915
483,2.5311150000000002,-1.304919,1.337993,0.150618,0.9648620000000001,0.215283,0.48416400000000004,-0.9721870000000001,1.524127,-0.9474319999999999,0.491604,0.392398
484,2.3962630000000003,-1.3015219999999998,1.206693,0.18041600000000002,0.9639639999999999,0.195486,1.214434,-0.37395,1.535939,-0.086437,-1.04447,0.18709800000000001
485,2.2313,-1.291083,1.062705,0.218005,0.9611350000000001,0.169371,0.8521629999999999,-1.9353189999999998,1.768282,-0.304553,-1.630233,-0.129576
486,2.120885,-1.270155,0.9922340000000001,0.252436,0.955147,0.1548,-0.088561,-2.106032,1.053699,-1.16572,-1.4949569999999999,0.013503999999999999
487,2.113658,-1.266845,1.019036,0.256253,0.954161,0.154605,-0.5080279999999999,-1.036551,-0.697145,-0.808484,-0.9952989999999999,-0.42459399999999997
488,2.1734009999999997,-1.285109,1.0916139999999999,0.232167,0.959468,0.159723,-0.29535500000000003,-0.427543,-1.596951,-0.207524,-0.841716,-0.543741
489,2.2431389999999998,-1.309305,1.177715,0.202247,0.9660059999999999,0.161004,-0.237317,-0.85367,-1.643001,-0.19156600000000001,-1.0003229999999999,-0.260339
490,2.366902,-1.318634,1.325518,0.174512,0.968375,0.17829,-1.95753,-0.9318629999999999,-1.643166,-0.238798,-0.7962100000000001,-0.500541
491,2.5917470000000002,-1.307688,1.5755940000000002,0.1359,0.965586,0.221735,-2.0669150000000003,-0.7245729999999999,-2.503046,-0.31049099999999996,-0.665629,-0.258936
492,2.813887,-1.302853,1.830212,0.08521000000000001,0.964318,0.250645,-1.708696,-1.277876,-3.239045,-0.856664,0.390434,0.13128199999999998
493,3.119177,-1.2586950000000001,2.140075,0.006881999999999999,0.951691,0.30696799999999996,-3.5674230000000002,0.878584,-4.375356,-0.6359560000000001,1.440064,-0.544257
494,-2.9415150000000003,-1.173851,2.366516,-0.076833,0.9222459999999999,0.378879,-3.7768269999999995,0.135831,-3.864189,-0.45633900000000005,2.17689,-0.626193
495,-2.891734,-1.102955,2.451657,-0.11150499999999999,0.892544,0.43694700000000003,-2.3879490000000003,-2.29904,-1.961683,-0.064764,2.705418,-0.099453
496,-2.879826,-1.056634,2.518659,-0.127271,0.870705,0.47504300000000005,-1.5960290000000001,-1.9156540000000002,-2.352953,-0.764285,1.497169,0.068872
497,-2.830843,-1.012885,2.610547,-0.161878,0.8483629999999999,0.504049,-1.436397,-1.540455,-3.078709,-1.083575,1.381923,-0.22905599999999998
498,-2.794363,-0.968829,2.7018560000000003,-0.192694,0.8242229999999999,0.532462,-1.0179989999999999,-1.99458,-3.095501,-0.695383,1.180919,-0.31249099999999996
499,-2.758664,-0.93655,2.791117,-0.221404,0.805519,0.549646,-0.382015,-1.7802380000000002,-2.903326,-0.49484300000000003,0.7542800000000001,-0.392557
500,-2.731773,-0.915532,2.878259,-0.242796,0.792887,0.558901,0.298153,-2.420389,-2.714021,-0.029878,0.10522999999999999,-0.5574520000000001
501,-2.731792,-0.9053479999999999,2.941067,-0.24599000000000001,0.78664,0.566283,0.24665,-2.414621,-1.4496129999999998,0.52756,-0.9498479999999999,-0.755293
502,-2.746607,-0.906234,2.962789,-0.237306,0.787187,0.569222,0.44377,-1.042594,-0.012168,0.776872,-1.567994,-0.8519209999999999
503,-2.762972,-0.927933,2.944658,-0.221592,0.8003819999999999,0.5570229999999999,1.0256459999999998,0.505888,1.453376,0.770771,-2.033888,-0.945924
504,-2.773895,-0.972232,2.899571,-0.202541,0.8261459999999999,0.5257850000000001,1.929029,1.670454,2.212359,0.992657,-1.966191,-1.136824
505,-2.77245,-1.0264469999999999,2.856075,-0.186849,0.8554639999999999,0.482968,2.098995,1.89063,1.8831830000000003,0.9532370000000001,-1.464992,-0.942837
506,-2.770603,-1.070807,2.824276,-0.17380299999999999,0.8775879999999999,0.446792,1.459501,0.988604,1.3073059999999999,0.345953,-0.537744,-0.643798
507,-2.795291,-1.082208,2.812163,-0.159314,0.8829959999999999,0.44150600000000007,-0.297183,-1.871044,-0.252359,-0.41134899999999996,0.434783,0.408256
508,-2.747173,-1.056671,2.8731150000000003,-0.188971,0.8707229999999999,0.454006,-0.783609,1.288936,-2.584257,-0.986291,0.621037,0.829838
509,-2.56964,-1.021427,2.991478,-0.282621,0.8528540000000001,0.43904,-0.180077,4.664726,-3.887598,-0.919191,1.9342709999999999,-0.584029
510,-2.478324,-0.9852299999999999,3.061464,-0.34027199999999996,0.833399,0.43549,-0.27999,-0.010348999999999999,-1.5119200000000002,0.7758649999999999,1.020956,-1.191151
511,-2.477208,-0.977833,3.063788,-0.34455,0.8292879999999999,0.43995100000000004,-0.730985,0.539724,0.643101,1.66352,-0.858952,0.3169
512,-2.495373,-0.97398,2.980211,-0.33842300000000003,0.8271290000000001,0.448684,-1.643576,2.994078,2.241256,0.8953840000000001,-0.756069,-1.161865
513,-2.551643,-1.0049620000000001,2.874682,-0.298249,0.8441420000000001,0.445492,0.5132939999999999,0.45983999999999997,4.08516,0.606645,-0.315196,-1.359249
514,-2.700104,-1.0895290000000002,2.728469,-0.197787,0.886409,0.418509,2.40537,-1.766189,5.806112000000001,0.069629,1.3550149999999999,-1.282874
515,-2.935123,-1.184959,2.500775,-0.07714800000000001,0.926484,0.368329,3.712175,-0.639192,6.0210300000000005,-0.927002,2.234954,-0.601133
516,3.0696939999999997,-1.295467,2.184374,0.019528999999999998,0.9623360000000001,0.271146,5.383201000000001,1.343219,4.857255,-2.201535,2.304129,-0.631375
517,2.7761970000000002,-1.346306,1.8645580000000002,0.079536,0.974908,0.207896,2.0406880000000003,-0.5922890000000001,2.406182,-2.100303,1.315223,0.50942
518,2.541465,-1.367792,1.657414,0.113849,0.9794649999999999,0.16636700000000001,1.9729830000000002,-1.0108540000000001,1.378616,-0.787509,0.44659099999999996,0.41360399999999997
519,2.29502,-1.358134,1.438464,0.158075,0.9774719999999999,0.139828,0.721457,-1.8227759999999997,2.241515,0.037908,0.539755,0.368884
520,2.114842,-1.334725,1.278304,0.200104,0.9722639999999999,0.121051,0.8747459999999999,-0.6784939999999999,1.798876,-0.523849,0.157328,0.20905700000000002
521,1.964116,-1.314442,1.128274,0.23418200000000003,0.9673209999999999,0.09717200000000001,1.296232,-0.250411,1.739314,-0.47032700000000005,-0.768255,0.152386
522,1.836112,-1.29069,1.010438,0.26677199999999995,0.961026,0.072488,0.849892,-1.029882,1.516074,-0.43878500000000004,-1.367841,0.290748
523,1.782427,-1.273701,0.98293,0.28620100000000004,0.956191,0.061489999999999996,-0.246556,-1.579855,0.409919,-1.352409,-1.271819,-0.010251
524,1.80644,-1.282917,1.035593,0.276062,0.9588479999999999,0.06628400000000001,-0.687882,-0.886142,-1.124814,-1.012405,-1.0936290000000002,-0.37756300000000004
525,1.857704,-1.310465,1.106036,0.24686599999999997,0.966305,0.072837,-0.5216850000000001,-0.9063559999999999,-1.80729,-0.325052,-1.117199,-0.452247
526,1.95461,-1.343561,1.227758,0.20888,0.9742930000000001,0.084355,-1.427015,-1.170175,-2.179675,-0.177981,-1.0575139999999998,-0.46600699999999995
527,2.225061,-1.366426,1.5257,0.161027,0.979189,0.1235,-2.058306,-0.821197,-2.8553759999999997,-0.691926,-0.6820390000000001,-0.0648
528,2.539228,-1.392141,1.8702349999999999,0.100675,0.9840840000000001,0.146412,-1.458716,-1.021906,-3.5313879999999997,-0.920667,-0.338377,0.254452
529,3.052994,-1.3622530000000002,2.380606,0.018317,0.978334,0.206202,-3.3817730000000004,0.9117930000000001,-4.5824050000000005,-0.652518,1.836425,-0.692393
530,-2.84595,-1.27061,2.756064,-0.086149,0.9552809999999999,0.282855,-4.425971,1.175293,-5.1027830000000005,-0.284624,2.4947310000000003,-0.564914
531,-2.753152,-1.172875,2.848506,-0.14676,0.921869,0.358623,-3.271327,-0.792118,-1.884326,0.263002,3.209677,-0.012218000000000001
532,-2.737924,-1.121076,2.904974,-0.170749,0.9005690000000001,0.399764,-1.425624,-1.682247,-2.528318,-0.565701,1.680089,0.030976
533,-2.675321,-1.07269,3.0070580000000002,-0.21477800000000002,0.878489,0.426753,-1.152568,-1.6591790000000002,-3.204761,-1.560414,1.366567,0.041387
534,-2.645527,-1.02851,3.0969990000000003,-0.245641,0.8565309999999999,0.45387799999999995,-0.801615,-2.544777,-2.888186,-1.166331,1.074514,-0.35703
535,-2.618403,-0.9893219999999999,-3.0979919999999996,-0.274429,0.8356540000000001,0.475774,-0.35069,-2.228698,-3.201635,-0.171036,0.6456850000000001,-0.520696
536,-2.587432,-0.957456,-3.004578,-0.302894,0.8177300000000001,0.489451,0.15629400000000002,-2.512171,-2.815307,0.186637,0.283909,-0.745035
537,-2.588303,-0.9418620000000001,-2.946956,-0.309132,0.808655,0.500504,0.194661,-2.0396490000000003,-1.137468,1.017231,-0.811218,-0.949784
538,-2.597397,-0.9469790000000001,-2.939043,-0.302421,0.811655,0.49974799999999997,0.557351,0.096749,0.546914,1.2300790000000001,-1.952005,-0.707404
539,-2.58535,-0.980143,-2.965836,-0.294039,0.830577,0.47293900000000005,1.2668469999999998,2.500218,2.009049,1.304705,-2.112987,-0.636468
540,-2.5534689999999998,-1.036115,-2.998957,-0.28270300000000004,0.860431,0.423943,2.258194,3.0560009999999997,2.287658,1.306079,-1.7551150000000002,-0.757729
541,-2.514761,-1.098983,-3.013496,-0.266597,0.8907450000000001,0.368088,2.293974,2.135764,1.950461,0.505595,-0.966872,-0.564148
542,-2.514691,-1.141346,-3.03266,-0.244252,0.9091950000000001,0.337188,0.788,-0.123064,1.236742,-0.349162,-0.138214,-0.062484000000000005
543,-2.552725,-1.134085,-3.0322459999999998,-0.234915,0.9061469999999999,0.351713,-0.8262639999999999,-1.645794,-1.24338,-1.266031,0.583767,0.948915
544,-2.466221,-1.0948719999999998,-2.963495,-0.286429,0.88887,0.357574,0.024586,2.823261,-2.833746,-0.920602,0.007659999999999999,-0.157302
545,-2.315985,-1.067094,-2.86115,-0.35473699999999997,0.875801,0.327298,0.508687,2.175735,-2.2291939999999997,0.8660889999999999,0.693199,-0.7594270000000001
546,-2.342606,-1.058604,-2.884676,-0.35121399999999997,0.8716719999999999,0.34179699999999996,-0.898611,0.161852,1.244892,0.9246850000000001,1.241991,0.06867999999999999
547,-2.371393,-1.073893,-2.9313540000000002,-0.331913,0.8790629999999999,0.342158,0.127852,0.43732600000000005,1.262391,0.866352,0.23611100000000002,-0.014643000000000002
548,-2.407152,-1.091112,-2.9941560000000003,-0.309276,0.887141,0.342518,-0.389256,1.220318,1.972416,0.337306,-0.515879,-1.2296639999999999
549,-2.450374,-1.1392930000000001,-3.067069,-0.266608,0.9083379999999999,0.322229,1.628998,0.802136,3.299894,0.246405,-0.265104,-1.214593
550,-2.5503169999999997,-1.227606,3.091894,-0.18756,0.941686,0.279354,2.139637,1.032065,5.294332,0.09815800000000001,1.3706610000000001,-1.0551409999999999
551,-2.782684,-1.319348,2.839067,-0.087387,0.9685530000000001,0.232935,2.758234,-0.399948,5.095389,-0.652786,1.737166,-1.1522620000000001
552,3.102447,-1.42083,2.4713439999999998,0.0058460000000000005,0.988776,0.14926099999999998,5.359858,-2.3878880000000002,3.941065,-1.490892,1.6464619999999999,-0.58612
553,2.0799,-1.491162,1.435094,0.06942100000000001,0.9968309999999999,0.03875,4.251692,3.1707419999999997,2.7671810000000003,-1.940637,1.223949,1.548653
554,1.711709,-1.465856,1.052348,0.103673,0.994499,0.014706,0.83599,-0.616397,1.2227540000000001,-0.574635,1.17791,0.5785710000000001
555,1.569493,-1.432153,0.920525,0.138172,0.9904040000000001,-0.00018,0.581479,-0.802342,2.121726,-0.036395,0.8692,0.38868400000000003
556,1.46946,-1.39238,0.826084,0.17654,0.9841260000000001,-0.017950999999999998,1.041261,0.304114,1.814803,-0.7076520000000001,-0.036174,0.542457
557,1.383106,-1.349603,0.722116,0.21552399999999997,0.9756360000000001,-0.040934,1.4682959999999998,0.8046260000000001,2.019038,-0.591699,-1.0721180000000001,0.616159
558,1.3265790000000002,-1.309396,0.65713,0.250751,0.9660290000000001,-0.062485,0.773297,0.040698000000000005,1.587874,-0.8840969999999999,-1.501719,0.578491
559,1.3321319999999999,-1.2958399999999999,0.672692,0.263795,0.9624370000000001,-0.064182,-0.569174,-0.9154639999999999,-0.023679,-1.414232,-1.525425,0.017002
560,1.3554549999999999,-1.321677,0.7220810000000001,0.24084099999999997,0.9691299999999999,-0.05268,-0.894861,-1.167761,-1.6471919999999998,-0.761211,-1.243742,-0.415918
561,1.358594,-1.36733,0.745733,0.197512,0.9793719999999999,-0.042553,-0.667155,-0.871498,-2.4054860000000002,-0.280627,-1.176882,-0.23640799999999998
562,1.387343,-1.4164649999999999,0.7922020000000001,0.151112,0.988115,-0.028037,-1.073627,-0.8678440000000001,-2.16798,-0.078922,-0.9893200000000001,0.404548
563,1.7637,-1.451501,1.179411,0.11676800000000001,0.992893,0.022809,-4.006419999999999,-0.042842,-1.610547,-0.035393,-0.52103,-0.185818
564,2.5905110000000002,-1.4440870000000001,2.0001860000000002,0.06615,0.991983,0.10763099999999999,-3.798897,0.66045,-3.172807,-0.30144,0.0021420000000000002,-0.12751400000000002
565,-2.957705,-1.393885,2.721707,-0.032175,0.984392,0.172995,-3.400065,1.519862,-5.84595,-1.056524,1.70793,0.256509
566,-2.6092779999999998,-1.271513,3.053016,-0.14962899999999998,0.955548,0.254025,-4.392428,0.83311,-5.074336,-0.192458,2.675846,-0.260495
567,-2.608854,-1.183073,3.074433,-0.192018,0.9257719999999999,0.325675,-3.214725,-2.107253,-1.7871740000000003,-0.039427,2.6760040000000003,-0.106116
568,-2.614466,-1.114784,3.1107549999999997,-0.221523,0.897816,0.38058200000000003,-2.185675,-1.033201,-2.739563,-0.49403800000000003,1.080227,0.35631
569,-2.5345869999999997,-1.0584,-3.087027,-0.279647,0.8715719999999999,0.40267600000000003,-0.867949,0.256942,-3.3718769999999996,-1.112565,1.1742190000000001,0.46785299999999996
570,-2.495317,-1.007728,-2.99831,-0.321447,0.845621,0.42612799999999995,-0.696365,-2.724883,-3.224784,-1.143412,1.246572,-0.41462200000000005
571,-2.466113,-0.960895,-2.9166630000000002,-0.358141,0.8197040000000001,0.446999,-0.279785,-1.4065459999999999,-3.201131,-0.24651900000000002,0.590543,-0.38195
572,-2.436914,-0.9261879999999999,-2.844969,-0.389241,0.799335,0.457759,0.10844000000000001,-1.977109,-2.3132,0.023411,0.001721,-0.733531
573,-2.452101,-0.909228,-2.809587,-0.390813,0.78903,0.47401000000000004,0.035185,-2.237837,-0.9855780000000001,0.704671,-0.7783479999999999,-1.1033899999999999
574,-2.48108,-0.912391,-2.8061439999999997,-0.375381,0.7909689999999999,0.48316099999999995,0.361145,-1.031893,0.581167,1.045883,-1.711715,-0.738807
575,-2.488125,-0.9417,-2.8253369999999998,-0.357717,0.808559,0.467181,1.136965,1.406409,1.8001669999999999,1.1373950000000002,-1.8827779999999998,-0.5992
576,-2.44486,-0.9969790000000001,-2.8505279999999997,-0.348344,0.839835,0.416321,2.043295,4.000209,2.38215,1.483765,-1.677588,-0.8056180000000001
577,-2.368606,-1.057849,-2.861853,-0.34267,0.871302,0.35128400000000004,1.8602619999999999,4.140149,2.17773,1.30495,-1.204676,-0.62347
578,-2.337371,-1.103847,-2.88413,-0.32424200000000003,0.8929459999999999,0.312259,0.767457,1.312938,1.785955,0.206825,-0.148378,-0.12848199999999999
579,-2.431061,-1.1117139999999999,-2.933414,-0.289015,0.89646,0.335887,-1.204172,-4.334479,0.39820900000000004,-0.9380360000000001,0.528269,1.196782
580,-2.415506,-1.0829280000000001,-2.922758,-0.311215,0.8833340000000001,0.350509,-0.587404,3.127409,-1.905859,-1.554096,0.22064,0.118958
581,-2.250432,-1.059374,-2.8443509999999996,-0.380662,0.872049,0.30759699999999995,0.7103970000000001,4.955858,-2.074325,0.337816,0.810888,-1.323696
582,-2.23248,-1.046599,-2.850662,-0.39488,0.865726,0.307535,-0.953731,-1.052038,0.897816,1.040144,1.179577,0.15601099999999998
583,-2.272648,-1.0543,-2.908632,-0.377109,0.869555,0.31883,-0.9323,1.4412989999999999,0.9973200000000001,1.0363950000000002,-0.011446,-0.033613
584,-2.299878,-1.054433,-2.9828189999999997,-0.368202,0.8696200000000001,0.32890199999999997,-1.604819,2.121169,1.523726,0.613548,-0.385047,-1.0888200000000001
585,-2.357116,-1.093007,-3.080274,-0.324832,0.8880129999999999,0.32543099999999997,0.811411,0.6141270000000001,4.139382,0.141452,-0.107801,-1.1552799999999999
586,-2.4855650000000002,-1.1975049999999998,3.065705,-0.222437,0.931132,0.28897,2.3498490000000003,-0.12201400000000001,6.274696,-0.073247,1.739491,-1.2255850000000001
587,-2.71446,-1.304725,2.83177,-0.108919,0.9648110000000001,0.239302,3.095582,-0.827116,5.335433,-0.35525300000000004,1.825579,-1.277662
588,-3.056536,-1.419076,2.510475,-0.012837000000000001,0.988513,0.15056,5.586921,-1.406668,4.253309,-1.2764389999999999,1.5122959999999999,-0.7735
589,2.224493,-1.501971,1.476459,0.05454199999999999,0.997632,0.041782,3.8802220000000003,3.5558440000000004,2.9563669999999997,-1.640175,1.34923,1.580669
590,1.8546220000000002,-1.4762549999999999,1.101995,0.09058,0.995534,0.026422,0.487088,-0.821989,1.259031,-0.985843,1.36822,0.8665219999999999
591,1.708261,-1.445599,0.966968,0.123661,0.992173,0.017107,0.20236300000000002,-0.9468120000000001,1.8180180000000001,-0.39568000000000003,0.516464,0.413588
592,1.612123,-1.4149100000000001,0.88113,0.15509900000000001,0.987874,0.006412999999999999,0.787604,-0.014122,1.434215,-0.52633,-0.2907,0.46691400000000005
593,1.495358,-1.383712,0.751911,0.185446,0.9825510000000001,-0.014015999999999999,1.213634,0.468412,1.6064200000000002,-0.38795999999999997,-1.1406319999999999,0.496133
594,1.422023,-1.351228,0.68296,0.215387,0.975992,-0.032282,0.548345,-0.566103,1.4172280000000002,-0.7479180000000001,-1.522363,0.521266
595,1.423418,-1.338594,0.702659,0.227611,0.9731620000000001,-0.03379,-0.5600229999999999,-1.2011889999999998,0.02802,-1.340877,-1.431414,-0.069131
596,1.450971,-1.360477,0.7585189999999999,0.207258,0.9779639999999999,-0.024954,-0.7477590000000001,-1.336967,-1.5498129999999999,-0.753065,-1.0657940000000001,-0.395074
597,1.4775639999999999,-1.402084,0.8099069999999999,0.167164,0.9858020000000001,-0.01563,-0.676376,-1.018376,-2.161814,-0.132786,-1.09362,-0.360224
598,1.5503770000000001,-1.4452200000000002,0.90205,0.125192,0.9921260000000001,-0.0025570000000000002,-0.8992979999999999,-0.877498,-2.034297,0.011008,-0.989806,0.075753
599,1.9241990000000002,-1.476483,1.29031,0.08831900000000001,0.995556,0.03258,-2.7578419999999997,-0.494518,-1.891809,-0.084504,-0.559475,-0.438692
600,2.7907490000000004,-1.476348,2.1516029999999997,0.032399000000000004,0.9955430000000001,0.088526,-2.5156810000000003,0.893227,-3.3542910000000004,-0.086125,-0.154097,0.16802
601,-2.769782,-1.416519,2.854632,-0.05581799999999999,0.988123,0.14314200000000002,-2.970625,1.733522,-5.036722,-0.9496600000000001,1.347693,0.355195
602,-2.4757290000000003,-1.296076,3.1237,-0.167569,0.962501,0.21331599999999998,-4.180692,1.307827,-5.42278,-0.644992,1.463188,-0.377104
603,-2.43797,-1.186393,-3.120662,-0.242615,0.9270219999999999,0.285934,-3.48314,-1.234536,-2.68107,-0.113968,2.7488200000000003,-0.020645
604,-2.491559,-1.11595,-3.1307709999999997,-0.265877,0.898329,0.349721,-2.4736860000000003,-2.089214,-2.1430849999999997,-0.365028,1.412249,0.133159
605,-2.472808,-1.0572219999999999,-3.0943959999999997,-0.304612,0.870994,0.385449,-1.41756,-0.045367000000000005,-2.687394,-0.993209,1.340493,0.300906
606,-2.441521,-1.00535,-3.0375099999999997,-0.34519099999999997,0.844349,0.409765,-0.9692790000000001,-1.9376529999999998,-2.720294,-1.345804,1.227474,-0.36394299999999996
607,-2.449662,-0.9585809999999999,-2.9755759999999998,-0.366655,0.818377,0.442507,-0.5273899999999999,-3.04202,-2.9176860000000002,-0.5849439999999999,0.9734780000000001,-0.37303400000000003
608,-2.454073,-0.9201870000000001,-2.910705,-0.384367,0.795715,0.46807,-0.10301600000000001,-2.777294,-2.355312,0.227629,-0.07347100000000001,-0.681998
609,-2.478135,-0.904909,-2.874098,-0.38043699999999997,0.786369,0.48670399999999997,0.277517,-2.430371,-0.7336739999999999,1.0419209999999999,-1.095161,-0.7164560000000001
610,-2.506211,-0.918084,-2.869001,-0.360444,0.794439,0.48881099999999994,0.8185720000000001,-1.029367,0.8845290000000001,1.0716860000000001,-1.7041680000000001,-0.685832
611,-2.522796,-0.9567450000000001,-2.8933720000000003,-0.33421300000000004,0.817321,0.46933800000000003,1.390733,0.941,2.083478,0.8859090000000001,-1.9262990000000002,-0.731667
612,-2.500253,-1.013159,-2.918307,-0.31658800000000004,0.848508,0.42402399999999996,2.154607,2.672309,2.161371,1.0301200000000001,-1.858655,-0.834241
613,-2.447881,-1.0721370000000001,-2.920784,-0.30578299999999997,0.878224,0.367706,2.2181439999999997,2.5674669999999997,1.6855220000000002,1.006207,-1.417577,-0.705734
614,-2.4180479999999998,-1.114478,-2.919304,-0.29172,0.897681,0.330239,1.111018,0.386679,1.089856,-0.037107,0.098642,0.043113
615,-2.4624,-1.1126260000000001,-2.927566,-0.277835,0.896863,0.344142,-0.9236530000000001,-2.205488,-0.785082,-0.49313100000000004,0.537967,0.718495
616,-2.415165,-1.072714,-2.89318,-0.31731,0.878501,0.357128,-0.519604,2.611096,-2.317057,-0.876309,0.25264899999999996,0.528462
617,-2.2631509999999997,-1.049992,-2.815117,-0.383,0.867419,0.317623,0.515044,4.458092,-1.834702,0.215596,-0.045291000000000005,-0.7639729999999999
618,-2.259118,-1.043713,-2.833843,-0.38847600000000004,0.8642780000000001,0.319529,-0.982042,-0.48280100000000004,1.359429,1.0904719999999999,1.2045549999999998,0.196997
619,-2.273803,-1.058259,-2.892112,-0.37411,0.871503,0.317037,-0.168735,2.361113,1.282412,0.889674,0.554721,-0.33904
620,-2.274273,-1.076558,-2.944127,-0.361738,0.88033,0.306844,-0.532165,2.397943,1.710319,0.5059640000000001,-0.11002100000000001,-0.867131
621,-2.277627,-1.125424,-3.001281,-0.32757600000000003,0.902451,0.27976,1.721163,2.105742,3.562707,0.11061099999999999,-0.33461,-1.11933
622,-2.2992939999999997,-1.239741,-3.068653,-0.24252600000000002,0.9457,0.21638600000000002,2.786563,2.091084,6.034555999999999,-0.032254000000000005,1.2016850000000001,-0.9044200000000001
623,-2.5214060000000003,-1.354723,2.968563,-0.12459,0.9767469999999999,0.174449,1.7413669999999999,-0.668636,6.039337000000001,-0.152555,1.617888,-1.068492
624,-3.005103,-1.450186,2.544848,-0.016366,0.992735,0.11915999999999999,4.381263,-4.028382,4.252514,-0.687797,1.3553790000000001,-1.1218299999999999
625,1.84362,-1.51611,1.1188799999999999,0.052559,0.998505,0.014706,4.226329,2.695003,2.9492,-1.572014,1.077209,1.2688780000000002
626,1.5412549999999998,-1.4836209999999999,0.7805850000000001,0.086975,0.9962030000000001,-0.00257,0.509567,-0.299242,1.051277,-1.1252440000000001,1.419569,0.8252940000000001
627,1.442099,-1.450512,0.696157,0.118967,0.992775,-0.015396,0.358099,-1.245293,2.002149,-0.39014699999999997,0.8384940000000001,0.332901
628,1.377546,-1.417748,0.6510630000000001,0.149588,0.988311,-0.029273,0.8361280000000001,-0.488933,1.3187200000000001,-0.631949,-0.419692,0.44478500000000004
629,1.291957,-1.3853440000000001,0.5625439999999999,0.177249,0.9828530000000001,-0.050746,1.174644,0.194299,1.460146,-0.409839,-0.86626,0.559016
630,1.253377,-1.3508879999999999,0.527833,0.20722600000000002,0.975917,-0.068079,0.49458100000000005,-0.553547,1.522584,-0.297573,-1.436916,0.683512
631,1.273208,-1.3359969999999999,0.57413,0.22240500000000002,0.972561,-0.06821100000000001,-0.690127,-1.6576419999999998,0.27124499999999996,-1.257272,-1.343502,-0.2812
632,1.2840200000000002,-1.3561590000000001,0.618787,0.20427599999999999,0.9770540000000001,-0.060242,-0.654679,-1.383622,-1.416649,-1.023047,-1.305469,-0.31004299999999996
633,1.246907,-1.397712,0.600618,0.163244,0.985058,-0.054803,-0.398365,-0.784405,-2.3033189999999997,-0.330648,-1.168667,-0.383292
634,1.22411,-1.447449,0.597352,0.115682,0.992402,-0.041793000000000004,-1.239716,-1.0822120000000002,-2.224425,0.060588,-0.923112,0.207702
635,1.6784299999999999,-1.495076,1.066567,0.075152,0.997135,0.00812,-2.876979,-0.195853,-2.1494020000000003,0.074278,-0.6700619999999999,-0.080981
636,2.782871,-1.511024,2.173781,0.020944,0.9982139999999999,0.055858000000000005,-2.305775,-0.318744,-3.079949,-0.42824700000000004,-0.350128,0.25143899999999997
637,-2.6630580000000004,-1.440564,2.996603,-0.059780999999999994,0.991532,0.11524000000000001,-3.5286459999999997,1.135453,-4.439519000000001,-0.91727,1.4657129999999998,-0.44155
638,-2.470913,-1.316234,-3.110802,-0.156498,0.967774,0.197259,-4.544619,0.999619,-4.754089,-0.572399,2.05899,-0.661996
639,-2.492727,-1.2091290000000001,-3.135749,-0.213806,0.935308,0.281911,-4.192369,-1.03098,-1.82103,-0.041076999999999995,2.922495,-0.119572
640,-2.540184,-1.1380700000000001,3.135869,-0.23726,0.907826,0.34575500000000003,-2.389793,-1.5798290000000001,-2.259594,0.097459,1.8610950000000002,-0.025580000000000002
641,-2.513939,-1.0817809999999999,-3.098097,-0.275855,0.8827959999999999,0.380213,-1.384156,-0.637951,-2.641541,-0.6184930000000001,1.606477,0.22792600000000002
642,-2.473868,-1.034175,-3.0263150000000003,-0.316548,0.859441,0.401427,-0.49504899999999996,-1.567682,-2.9428549999999998,-0.810161,1.360926,-0.09645
643,-2.443807,-0.9919690000000001,-2.944402,-0.351478,0.8371049999999999,0.41917,-0.191523,-1.971227,-2.9882880000000003,-0.468667,0.423836,-0.33332399999999995
644,-2.429718,-0.957868,-2.878577,-0.375785,0.817967,0.43554499999999996,-0.076163,-2.203322,-2.057832,0.345512,-0.43108,-0.714811
645,-2.457718,-0.942759,-2.85562,-0.371211,0.809182,0.45542299999999997,-0.122145,-2.227957,-0.388491,0.7449600000000001,-0.9322590000000001,-0.9137360000000001
646,-2.493456,-0.953577,-2.864864,-0.349396,0.815491,0.46138999999999997,0.590673,-0.7396020000000001,1.08125,1.036178,-1.9532479999999999,-0.781794
647,-2.495797,-0.9953110000000001,-2.886849,-0.32753499999999997,0.8389280000000001,0.43463199999999996,1.7286270000000001,1.743366,2.0057560000000003,1.113668,-2.0073090000000002,-0.733765
648,-2.446455,-1.05464,-2.892128,-0.31609899999999996,0.8697229999999999,0.379011,2.414767,3.0125889999999997,1.82412,1.2763950000000002,-1.714755,-0.779676
649,-2.3868650000000002,-1.108651,-2.883932,-0.30545,0.895098,0.324786,1.857921,2.122607,1.626954,0.925522,-1.145571,-0.47421499999999994
650,-2.392944,-1.138677,-2.900284,-0.285042,0.9080799999999999,0.306802,0.117521,-0.976088,0.9575389999999999,0.092171,-0.201232,-0.047662
651,-2.443027,-1.124278,-2.915527,-0.27770700000000004,0.901956,0.33066599999999996,-0.9424680000000001,-0.44255,-1.009668,-0.8650389999999999,0.5149600000000001,0.804435
652,-2.360704,-1.087819,-2.877313,-0.326898,0.885616,0.32986,-0.370087,3.840943,-2.30798,-0.88381,0.574665,0.611897
653,-2.265011,-1.040475,-2.8454740000000003,-0.388733,0.8626450000000001,0.32359899999999997,-1.409474,1.472293,-1.538812,-0.204193,2.499752,-0.902976
654,-2.275162,-1.02286,-2.872241,-0.396948,0.853601,0.337318,-0.6488470000000001,1.127761,0.042569,1.262335,0.111105,-0.02642
655,-2.275114,-1.027959,-2.916085,-0.393642,0.856246,0.334476,-1.028801,2.247361,1.436783,1.0822100000000001,-0.745254,-0.67284
656,-2.307464,-1.049333,-2.998488,-0.36897399999999997,0.867091,0.33465900000000004,-0.300304,1.196421,2.812679,0.587358,-0.933207,-1.129672
657,-2.383855,-1.1352440000000001,-3.0627150000000003,-0.289959,0.906637,0.30646100000000004,3.151162,-1.8986029999999998,4.712279,0.212292,0.158976,-1.585605
658,-2.5280810000000002,-1.264536,3.0768,-0.173571,0.953468,0.246493,3.007953,0.570412,6.7719190000000005,-0.046202,1.774819,-0.9062370000000001
659,-2.89814,-1.375211,2.692941,-0.046839,0.980934,0.188579,3.647378,-0.438163,6.158109,-0.690466,1.691566,-0.684886
660,2.5844549999999997,-1.489296,1.9006009999999998,0.043012,0.9966809999999999,0.06904400000000001,6.78322,-0.240161,3.212239,-2.027387,1.998162,-0.106901
661,1.827625,-1.481695,1.116227,0.086011,0.996033,0.022588999999999998,0.340648,-0.378325,1.526626,-1.417371,1.490783,0.8748870000000001
662,1.570094,-1.460891,0.876833,0.10963900000000001,0.993967,-7.7e-05,1.2228700000000001,-0.678446,1.489375,-0.5273939999999999,1.229697,0.627991
663,1.437325,-1.422943,0.763871,0.145972,0.9890899999999999,-0.0196,0.8763120000000001,-0.791451,1.810771,-0.45169799999999993,0.440705,0.633583
664,1.3371389999999999,-1.3843159999999999,0.664842,0.180339,0.982663,-0.042922,1.316017,0.155254,1.777378,-0.539088,-0.5764739999999999,0.590865
665,1.254704,-1.342291,0.5807479999999999,0.215281,0.9740059999999999,-0.070409,1.25213,-0.332255,1.735895,-0.389658,-1.318244,0.5685479999999999
666,1.225209,-1.3124149999999999,0.564427,0.240393,0.9668049999999999,-0.08655,0.40644600000000003,-0.811863,0.9305049999999999,-1.006414,-1.612359,0.281283
667,1.2083059999999999,-1.320359,0.5741850000000001,0.231706,0.9688040000000001,-0.08787400000000001,-0.539606,-1.536722,-1.0588629999999999,-1.296007,-1.558877,-0.093324
668,1.16058,-1.359661,0.55313,0.192163,0.977794,-0.08357,-0.43671899999999997,-1.2466030000000001,-2.302994,-0.59736,-1.100291,-0.23392
669,1.0860969999999999,-1.409974,0.5092909999999999,0.14165999999999998,0.9870959999999999,-0.074598,-0.9515620000000001,-1.6728290000000001,-2.3605240000000003,-0.194303,-0.998784,0.082075
670,1.142354,-1.460448,0.583812,0.100131,0.9939180000000001,-0.045734,-2.300087,-0.14495999999999998,-1.790789,0.055768,-0.671851,0.51955
671,1.990314,-1.501169,1.4193930000000001,0.063472,0.997577,0.028308,-3.809185,1.318892,-2.12047,0.081975,-0.36178899999999997,-0.111804
672,3.093108,-1.48001,2.508985,0.004391,0.9958819999999999,0.090498,-2.69353,0.308691,-3.5385269999999998,-0.498166,0.299528,0.073885
673,-2.6381799999999997,-1.390823,3.0497959999999997,-0.08634,0.983848,0.15677,-4.033056,1.061974,-4.806146,-0.6269779999999999,1.4440540000000002,-0.177277
674,-2.517372,-1.26934,-3.126598,-0.173522,0.9549049999999999,0.24090300000000003,-4.377326,0.264452,-3.536345,-0.25460900000000003,2.409932,-0.373151
675,-2.581672,-1.1848040000000002,3.119204,-0.199946,0.926425,0.318974,-3.331458,-2.121963,-1.466449,0.075159,2.50549,0.067775
676,-2.598621,-1.124684,3.133979,-0.222921,0.9021309999999999,0.369395,-1.9836080000000003,-1.024694,-2.110056,-0.5574899999999999,1.4503469999999998,0.21063800000000002
677,-2.5567189999999997,-1.0728520000000001,-3.089937,-0.263683,0.878566,0.398219,-1.2268370000000002,-0.294404,-2.643021,-1.102314,1.405003,0.11470599999999999
678,-2.517004,-1.028568,-3.01779,-0.301757,0.856561,0.41860699999999995,-0.6721,-2.401591,-2.839408,-0.7317060000000001,1.089789,-0.261442
679,-2.504006,-0.990138,-2.940605,-0.32653499999999996,0.836102,0.440788,-0.039036,-2.353456,-2.6384950000000003,-0.17593599999999998,0.503437,-0.417182
680,-2.4889509999999997,-0.966251,-2.877712,-0.345168,0.82276,0.451564,0.169775,-1.74108,-1.715946,0.31646599999999997,-0.22589800000000002,-0.587505
681,-2.504626,-0.95983,-2.851165,-0.341181,0.819094,0.46115600000000007,0.221129,-1.640742,-0.214864,0.423472,-0.645022,-0.721409
682,-2.521503,-0.9793149999999999,-2.861339,-0.32401199999999997,0.8301149999999999,0.453771,0.939815,0.33284,1.384619,0.8847879999999999,-1.8410099999999998,-0.746648
683,-2.518287,-1.029625,-2.894613,-0.30069,0.8571059999999999,0.418258,1.9418360000000001,2.231601,2.535387,0.966309,-2.106541,-0.688994
684,-2.4836400000000003,-1.103934,-2.913009,-0.275217,0.892985,0.356115,2.946508,2.616982,2.525887,1.0136049999999999,-2.011348,-0.8538879999999999
685,-2.447546,-1.167817,-2.925942,-0.250835,0.919897,0.301425,1.789166,1.976227,2.062494,0.890666,-0.9271290000000001,-0.440082
686,-2.496245,-1.195114,-2.972455,-0.22067399999999998,0.930257,0.293103,-0.32213600000000003,-2.287513,1.090742,-0.16683800000000001,0.11873900000000001,0.280445
687,-2.568078,-1.1719190000000002,-2.978282,-0.210722,0.9214979999999999,0.326226,-1.170313,-1.352519,-1.553821,-1.0731680000000001,0.9826469999999999,1.075934
688,-2.460738,-1.129994,-2.905182,-0.268557,0.90441,0.33152,-0.18999100000000002,3.839918,-2.739353,-1.056166,-0.13819,-0.34731300000000004
689,-2.2705610000000003,-1.116983,-2.793351,-0.335358,0.898782,0.28233400000000003,2.165177,3.938871,-1.5565309999999999,0.5934149999999999,-1.12568,-0.359802
690,-2.238218,-1.1102020000000001,-2.790557,-0.349093,0.8957879999999999,0.275108,-1.208905,-0.581389,1.172092,1.9561330000000001,1.3594760000000001,0.51255
691,-2.323937,-1.148396,-2.919861,-0.299067,0.912107,0.280369,0.544428,0.94957,3.339118,0.933268,2.833879,-1.316151
692,-2.3376959999999998,-1.1846700000000001,-2.936275,-0.271167,0.926375,0.261315,0.48542700000000005,0.605912,1.1557,-0.083646,-0.068632,-0.799447
693,-2.3523709999999998,-1.22796,-2.995321,-0.23859499999999997,0.9418049999999999,0.236777,1.430895,2.95919,3.242321,-0.207603,-0.621401,-0.760413
694,-2.384152,-1.330639,-3.1206400000000003,-0.163405,0.971301,0.172807,2.54468,4.803767,5.590349,-0.11081099999999999,1.03169,-0.687547
695,-2.7249630000000002,-1.428272,2.8036830000000004,-0.057465999999999996,0.9898610000000001,0.129855,2.168441,-2.9408950000000003,4.878731,-1.304168,2.682243,-2.024493
696,2.693388,-1.5339639999999999,2.003519,0.015896,0.9993219999999999,0.033059,6.319826,-1.350479,2.8910240000000003,-1.719021,2.336234,-0.604394
697,1.274304,-1.494126,0.567033,0.07319099999999999,0.9970620000000001,-0.022359999999999998,0.818121,-0.686504,2.522732,-1.7774150000000002,0.298638,0.759084
698,1.1887510000000001,-1.475014,0.509208,0.08869500000000001,0.995416,-0.035636,0.540566,-0.152248,0.230909,-0.396785,0.618216,0.438407
699,1.14855,-1.451806,0.46573100000000006,0.108248,0.9929290000000001,-0.048632999999999996,0.8318260000000001,-0.2725,1.5438049999999999,0.521894,0.46951899999999996,0.453921
700,1.109501,-1.411306,0.41881999999999997,0.142189,0.987308,-0.070677,1.147292,0.890544,1.595793,-0.293786,-0.293705,0.8048390000000001
701,1.142053,-1.379105,0.435933,0.173254,0.981683,-0.079194,0.143257,0.500425,1.457889,-0.281301,-1.252924,0.43513599999999997
702,1.2070610000000002,-1.361059,0.503764,0.19456199999999998,0.978086,-0.074064,-0.47798900000000005,-0.501301,0.7572840000000001,-1.0030940000000002,-1.6183290000000001,-0.13610999999999998
703,1.230336,-1.371772,0.549751,0.186344,0.98026,-0.066013,-0.459063,-1.136639,-1.012882,-1.1197540000000001,-1.449727,-0.25809899999999997
704,1.15394,-1.409154,0.49210600000000004,0.147134,0.986964,-0.065152,-0.318783,-0.960131,-2.382657,-0.51481,-1.2852430000000001,-0.23083800000000002
705,1.104093,-1.462617,0.46536099999999997,0.096388,0.9941540000000001,-0.048563,-1.36465,-1.247387,-2.367162,-0.18316500000000002,-1.2384469999999999,0.327432
706,1.292331,-1.514683,0.672142,0.05385,0.998426,-0.015394999999999999,-1.997343,-0.404057,-1.993443,-0.01024,-0.809446,0.545623
707,2.870548,-1.522276,2.2381990000000003,0.012961000000000002,0.9988229999999999,0.046641,-3.9102959999999998,0.735065,-2.284934,-0.23931,-0.528181,-0.06866
708,-2.6679630000000003,-1.436085,2.964805,-0.061242,0.9909399999999999,0.119487,-3.179758,1.423805,-4.390452,-0.073463,0.15442999999999998,0.137532
709,-2.363381,-1.322759,-3.03517,-0.172329,0.9693959999999999,0.174824,-3.4559010000000003,1.019077,-6.032651,-0.918811,1.947703,-0.370839
710,-2.308554,-1.201646,-2.99515,-0.26699,0.932634,0.24269000000000002,-3.437018,0.786722,-3.091406,-0.780633,3.845182,-0.251815
711,-2.394461,-1.132235,-3.078281,-0.288547,0.9053629999999999,0.311521,-3.6993099999999997,-2.006957,-1.402936,-0.115139,1.3763290000000001,0.151248
712,-2.476223,-1.050539,-3.096844,-0.30687800000000004,0.867691,0.39105500000000004,-2.935006,-2.636515,-2.601745,-0.472617,0.837463,0.093289
713,-2.466143,-0.998964,-3.073021,-0.33836,0.8409110000000001,0.42233699999999996,-1.040565,0.07602300000000001,-1.933964,-0.43455900000000003,1.244905,0.182232
714,-2.442804,-0.967044,-3.032547,-0.365211,0.823211,0.434662,-0.25192,-1.032606,-1.899261,-0.822075,1.2211,-0.110169
715,-2.433586,-0.9431139999999999,-2.977884,-0.381907,0.809391,0.446118,0.364775,-2.080431,-2.002569,-0.11443099999999999,0.7195699999999999,-0.278973
716,-2.4357919999999997,-0.930909,-2.935082,-0.387301,0.802163,0.45444399999999996,0.3271,-1.301604,-0.667484,0.263369,-0.55758,-0.663077
717,-2.436342,-0.94852,-2.937925,-0.377834,0.812553,0.44383,0.867872,0.9360620000000001,1.378002,0.780147,-1.695946,-0.537443
718,-2.436153,-1.0007629999999998,-2.980625,-0.349891,0.841883,0.41084799999999994,1.4376799999999998,2.092044,3.239207,0.722312,-2.134776,-0.704901
719,-2.435901,-1.077796,-3.043164,-0.306937,0.8809170000000001,0.360227,2.089322,3.0506290000000003,3.779846,0.49343000000000004,-2.153622,-0.8647739999999999
720,-2.435629,-1.144299,-3.099119,-0.268376,0.9104200000000001,0.314797,1.278756,1.904618,2.563221,0.7976880000000001,-1.6461689999999998,-0.980447
721,-2.482471,-1.169455,3.1299259999999998,-0.239235,0.920538,0.30881,-0.334484,-1.244534,1.08291,0.724068,-0.27178,-0.611743
722,-2.569819,-1.152543,3.119297,-0.219777,0.9138,0.341548,-0.681856,-4.553905,-1.388205,0.04218,0.456165,0.681524
723,-2.4506330000000003,-1.110614,-3.046496,-0.283013,0.895971,0.34223600000000004,0.082327,3.5725589999999996,-3.780757,-1.161247,1.1122379999999998,0.9980959999999999
724,-2.268434,-1.075958,-2.940138,-0.363927,0.8800450000000001,0.30506500000000003,0.18201099999999998,4.293483,-2.204288,-0.282405,-0.161768,-1.2832299999999999
725,-2.2860549999999997,-1.066178,-2.960985,-0.364975,0.875359,0.31706,-1.439433,-1.129099,0.8774270000000001,0.7604989999999999,2.106208,0.609881
726,-2.297182,-1.0627790000000001,-3.022425,-0.363647,0.873711,0.323075,-1.019487,3.706136,1.058967,1.306411,-0.24485,0.583862
727,-2.296828,-1.07207,-3.10125,-0.357675,0.878192,0.31754299999999996,-0.900001,2.341295,2.075293,0.639413,-0.93468,-1.156456
728,-2.394965,-1.135051,3.079459,-0.286657,0.9065559999999999,0.309793,1.46981,-1.243486,5.109895,0.25545300000000004,-0.59523,-1.58645
729,-2.6267,-1.2547629999999999,2.867812,-0.15304,0.950476,0.270485,2.900403,-2.307182,6.935091000000001,-0.021932,0.6876770000000001,-0.9418559999999999
730,-2.970855,-1.367955,2.580829,-0.034224,0.979498,0.198495,5.071056,-3.003646,4.201542,-1.289858,1.5702610000000001,-0.210992
731,2.847524,-1.480709,2.102566,0.026059,0.9959450000000001,0.086046,5.0417190000000005,2.9786770000000002,2.697092,-1.643521,-0.052997,0.9151590000000001
732,2.22768,-1.4903879999999998,1.452215,0.063556,0.996769,0.049010000000000005,0.777886,-0.731206,1.216077,-0.688098,0.986233,0.507738
733,1.906432,-1.479171,1.134085,0.086337,0.9958049999999999,0.030117,1.047636,0.447212,1.724925,0.071744,1.086378,0.43111000000000005
734,1.691645,-1.4360760000000001,0.928787,0.133294,0.9909389999999999,0.016187,0.616192,-0.825168,2.208514,-0.690316,0.28387199999999996,0.375109
735,1.5345879999999998,-1.403773,0.776597,0.166107,0.986084,-0.006017,1.321899,0.043252,1.542556,-0.576538,-0.698868,0.35433000000000003
736,1.418548,-1.370213,0.654198,0.19691,0.979951,-0.030213,0.983982,0.118951,1.552917,-0.35990500000000003,-1.332886,0.59427
737,1.394487,-1.347098,0.63478,0.218375,0.9750840000000001,-0.038906,0.080733,-0.6266189999999999,0.7079409999999999,-1.2797,-1.5227680000000001,0.035488
738,1.408318,-1.356107,0.678063,0.21021399999999998,0.977043,-0.034459,-0.6768,-1.6025969999999998,-0.983891,-1.3357940000000001,-1.558708,-0.162196
739,1.390407,-1.39374,0.69072,0.173247,0.984366,-0.031595,-0.345315,-1.514499,-2.255009,-0.34783800000000004,-1.091269,-0.34407600000000005
740,1.40221,-1.444834,0.737978,0.12380799999999999,0.9920770000000001,-0.021072,-1.151917,-1.88085,-2.3808830000000003,-0.113569,-1.028836,0.12216199999999999
741,1.65999,-1.488608,1.025317,0.081706,0.996624,0.007306999999999999,-1.9052040000000001,-0.90769,-1.869304,-0.033488,-0.697674,0.611681
742,2.569626,-1.476747,1.934489,0.050801,0.9955809999999999,0.078914,-4.5566580000000005,0.5023479999999999,-1.605484,-0.1209,-0.5031800000000001,-0.430309
743,-3.089953,-1.4096959999999998,2.538096,-0.008278,0.987051,0.160154,-3.5165230000000003,1.347219,-3.5968760000000004,-0.537606,0.100504,0.029772000000000003
744,-2.671928,-1.319092,2.940083,-0.11270699999999999,0.9684889999999999,0.22206399999999998,-3.5675239999999997,0.964751,-5.9382839999999995,-1.151453,1.7624220000000002,-0.502918
745,-2.487469,-1.192359,3.119312,-0.224798,0.929243,0.293189,-3.7479080000000002,0.320027,-4.660057,-0.48632299999999995,3.726809,-0.309104
746,-2.52834,-1.117171,3.104178,-0.252204,0.898864,0.35836,-2.706414,-2.255842,-1.563388,0.088797,2.228486,0.086418
747,-2.529215,-1.05475,-3.133839,-0.283631,0.869777,0.403765,-1.331456,-1.588203,-3.213588,-0.31756599999999996,1.468373,0.24809
748,-2.4674560000000003,-1.002574,-3.038416,-0.335907,0.842859,0.42040500000000003,-0.370015,-1.0951629999999999,-3.468151,-1.3374780000000002,1.1999879999999998,0.06160499999999999
749,-2.4471529999999997,-0.9641190000000001,-2.948371,-0.36485500000000004,0.8215469999999999,0.438093,0.390904,-3.648961,-2.979931,-1.14314,1.07274,-0.429884
750,-2.447754,-0.937478,-2.8631439999999997,-0.378458,0.806068,0.454981,0.644124,-3.081876,-2.490712,-0.139242,0.3303,-0.73939
751,-2.452382,-0.930335,-2.815473,-0.38,0.80182,0.46115900000000004,0.5928479999999999,-1.657671,-0.566891,0.955714,-1.131517,-1.1239860000000002
752,-2.466197,-0.949951,-2.818731,-0.363689,0.813387,0.45400100000000004,0.8907950000000001,0.344723,1.384266,1.524349,-1.908495,-0.774207
753,-2.465769,-0.998452,-2.852645,-0.33878600000000003,0.840634,0.422544,1.516017,1.858639,2.665355,1.231593,-1.998425,-0.706815
754,-2.461312,-1.066805,-2.89483,-0.303755,0.875662,0.37541199999999997,2.294397,1.9765990000000002,3.1267709999999997,0.9238879999999999,-1.778525,-0.769149
755,-2.466041,-1.1441370000000002,-2.93913,-0.25877,0.9103530000000001,0.322925,2.269095,1.609007,3.1665900000000002,0.9388690000000001,-1.485793,-0.38614299999999996
756,-2.5088310000000003,-1.203894,-3.004754,-0.21212899999999998,0.933443,0.28926,1.062381,0.226737,2.500839,0.42054899999999995,-0.8057880000000001,-0.281951
757,-2.6144939999999997,-1.221538,-3.0810020000000002,-0.172126,0.939627,0.29573499999999997,-0.542825,-2.97605,0.840123,-0.236459,0.101191,0.231807
758,-2.630774,-1.198397,-3.046589,-0.177873,0.931457,0.317385,-0.905108,-1.017949,-2.069412,-0.845656,0.874466,0.9740270000000001
759,-2.50256,-1.15257,-2.9511279999999998,-0.24221900000000002,0.913811,0.32598299999999997,-0.527513,3.7907629999999997,-2.942469,-0.760818,0.226204,-0.06388300000000001
760,-2.304996,-1.127414,-2.842416,-0.31845999999999997,0.9033059999999999,0.28741300000000003,0.8292149999999999,5.084184,-2.03307,0.075586,-0.861344,-1.0357809999999998
761,-2.304961,-1.128815,-2.860191,-0.31753000000000003,0.903906,0.286554,-0.48919399999999996,-1.861927,1.89661,1.173686,1.277216,-0.5907220000000001
762,-2.338854,-1.155513,-2.912081,-0.290173,0.9150020000000001,0.28028000000000003,0.80356,1.5562610000000001,1.11398,1.14381,0.93006,0.151285
763,-2.3235240000000004,-1.171369,-2.924587,-0.28381,0.921284,0.265846,0.150693,1.166018,0.7029270000000001,0.165218,-0.477803,-0.88108
764,-2.354938,-1.211842,-2.978383,-0.24870100000000003,0.936265,0.248077,1.271668,1.205474,3.4464230000000002,-0.07773,-0.522767,-1.114394
765,-2.4719830000000003,-1.316243,3.124168,-0.156279,0.967776,0.197417,2.221366,3.302378,6.23843,-0.187578,1.4643680000000001,-0.272948
766,-2.824194,-1.407685,2.7472060000000003,-0.050669,0.986727,0.15424100000000002,2.072023,-1.394743,4.8515120000000005,-0.542089,1.930006,-1.3397270000000001
767,2.835921,-1.4837770000000001,2.178631,0.026133999999999998,0.996216,0.082817,4.783423,-2.7504009999999997,2.926956,-1.083568,1.143692,-0.667579
768,1.4570370000000001,-1.487315,0.800471,0.08278200000000001,0.996517,-0.009458,3.3225290000000003,1.2025379999999999,2.670268,-1.809237,0.693393,0.591032
769,1.2800120000000001,-1.445726,0.62295,0.119469,0.992189,-0.035753,1.110689,-0.107708,1.382109,-1.163841,0.958434,0.5860310000000001
770,1.24335,-1.402823,0.583457,0.158273,0.985926,-0.053761,0.612765,-0.201706,2.408517,-0.039224,0.470404,0.536931
771,1.220138,-1.3566049999999998,0.570608,0.199601,0.9771489999999999,-0.073009,1.236217,-0.473127,1.8128790000000001,-0.606507,0.202997,0.304607
772,1.1743059999999998,-1.3143049999999998,0.516621,0.23399,0.9672860000000001,-0.097963,1.258877,0.6978409999999999,1.738889,-0.47361400000000003,-0.572236,0.536317
773,1.180633,-1.283015,0.507024,0.26248,0.9588760000000001,-0.10794400000000001,0.445272,0.582002,1.044351,-0.5242899999999999,-1.2212969999999999,0.815265
774,1.1844569999999999,-1.2791270000000001,0.5223939999999999,0.266343,0.957765,-0.10834300000000001,-0.527226,-1.146572,-0.33396,-1.2774510000000001,-1.40381,0.10815999999999999
775,1.1641290000000002,-1.3075,0.5296069999999999,0.239023,0.9655370000000001,-0.102941,-0.580702,-1.416544,-1.7696779999999999,-0.762994,-1.237266,-0.228938
776,1.096085,-1.355692,0.49156700000000003,0.189828,0.9769540000000001,-0.097554,-0.765997,-1.688489,-2.598496,-0.38660500000000003,-1.105448,-0.25237600000000004
777,1.0604069999999999,-1.412412,0.486101,0.137596,0.987483,-0.07703600000000001,-1.5538399999999999,-1.118762,-2.3996310000000003,-0.080513,-0.8505969999999999,0.665018
778,1.361257,-1.469593,0.794949,0.09877000000000001,0.994883,-0.021004,-3.81037,-0.022607,-1.772659,-0.108963,-0.506678,-0.166755
779,2.4026240000000003,-1.499568,1.8283330000000002,0.04788,0.9974639999999999,0.052547,-3.3169730000000004,0.610789,-3.153372,-0.132872,-0.288602,0.152043
780,-2.725483,-1.4440899999999999,2.980234,-0.051059,0.991983,0.11554,-3.645135,0.075534,-5.939833,-1.6496709999999999,2.1795709999999997,-0.544113
781,-2.42646,-1.302671,-3.009814,-0.173699,0.964269,0.2,-4.323571,0.864078,-5.412539,-0.616844,4.319621,-0.090961
782,-2.4909830000000004,-1.2093530000000001,-3.054937,-0.214168,0.9353870000000001,0.281368,-3.556165,-2.532263,-1.4942030000000002,0.38956799999999997,2.215843,0.022267
783,-2.521426,-1.137356,-3.040402,-0.24407800000000002,0.907526,0.34176999999999996,-2.304157,-1.176052,-2.872679,0.224608,1.425848,0.21009499999999998
784,-2.451308,-1.0766149999999999,-2.967303,-0.30201100000000003,0.880357,0.365712,-0.8673690000000001,0.6510050000000001,-3.345685,-0.976951,1.273467,0.12153199999999999
785,-2.379671,-1.0276969999999999,-2.865064,-0.356738,0.8561110000000001,0.373894,0.146175,-2.031412,-3.4120800000000004,-1.046308,0.7545609999999999,-0.54319
786,-2.367235,-0.988139,-2.784204,-0.384753,0.835003,0.393343,-0.05214,-2.916737,-2.422089,-0.141996,-0.26765100000000003,-0.8100149999999999
787,-2.398935,-0.9697459999999999,-2.75603,-0.382415,0.824742,0.41658500000000004,-0.069773,-2.535625,-0.48067299999999996,0.8541559999999999,-1.343327,-0.8416799999999999
788,-2.429204,-0.9861030000000001,-2.770211,-0.360764,0.833882,0.41770100000000004,0.731622,0.039757,1.599317,1.265824,-2.259693,-0.71511
789,-2.429805,-1.0414780000000001,-2.805432,-0.329814,0.863152,0.38233,2.041747,2.232097,2.858683,1.144679,-2.300911,-0.716009
790,-2.390069,-1.1233950000000001,-2.8196220000000003,-0.295363,0.901575,0.316083,2.993836,2.649218,2.949188,1.3209819999999999,-1.866312,-0.9019290000000001
791,-2.360907,-1.196579,-2.831874,-0.25724400000000003,0.930794,0.25968,2.004038,1.413023,2.59455,0.9465600000000001,-0.982231,-0.487784
792,-2.435965,-1.233811,-2.893195,-0.214412,0.9437559999999999,0.251671,-0.376706,-2.844048,1.5204950000000002,-0.010365000000000001,0.079224,0.048164
793,-2.518386,-1.210923,-2.910614,-0.20551999999999998,0.935941,0.285937,-1.289247,-1.92008,-1.7729139999999999,-0.9467620000000001,0.8378469999999999,1.152417
794,-2.411136,-1.150539,-2.8275650000000003,-0.272206,0.912984,0.30389,-0.8771540000000001,3.607536,-3.434999,-0.996425,0.453975,0.300496
795,-2.231855,-1.117264,-2.730444,-0.34583200000000003,0.898905,0.268989,0.683046,4.273472,-1.894193,0.42659600000000003,-0.8609870000000001,-0.623801
796,-2.23989,-1.1197469999999998,-2.761737,-0.341908,0.89999,0.270374,-0.679871,-1.06523,2.6291849999999997,1.296543,1.555836,-0.145084
797,-2.306316,-1.149525,-2.878075,-0.303194,0.9125700000000001,0.274362,-0.197739,1.519267,1.9113959999999999,1.187822,1.149198,-0.78956
798,-2.336448,-1.167139,-2.9041959999999998,-0.283157,0.919631,0.272189,0.22947399999999998,-0.34036,0.6573289999999999,0.371444,-0.43812399999999996,-0.953616
