,attitude.roll,attitude.pitch,attitude.yaw,gravity.x,gravity.y,gravity.z,rotationRate.x,rotationRate.y,rotationRate.z,userAcceleration.x,userAcceleration.y,userAcceleration.z
0,1.830732,-1.3772209999999998,1.975182,0.185901,0.981323,0.049441000000000006,0.11646600000000001,0.026713999999999998,0.034852,-0.050953,-0.01596,0.056272
1,1.821837,-1.377558,1.9641110000000002,0.186014,0.9813870000000001,0.047702999999999995,0.11605499999999999,0.12491400000000001,-0.013347,-0.015588999999999999,-0.01192,0.04063
2,1.814944,-1.3786459999999998,1.954566,0.185302,0.9815959999999999,0.046162,0.097933,0.10801400000000001,-0.033748,-0.005096,-0.012112999999999999,0.03825
3,1.8140759999999998,-1.379773,1.9516240000000002,0.18426700000000001,0.9818100000000001,0.045734,0.04347,0.095425,-0.035181,0.001417,-0.021758,0.024487000000000002
4,1.819682,-1.3805,1.955264,0.183313,0.9819479999999999,0.04659,-0.040864,0.091429,-0.028287,0.017966,-0.016569999999999998,0.005855
5,1.8324770000000001,-1.3804239999999999,1.966952,0.182772,0.981934,0.04895,-0.122205,0.047981,-0.014913,0.024961,-0.00029,0.003998
6,1.8486479999999998,-1.379783,1.98262,0.182561,0.9818120000000001,0.052072,-0.14898699999999998,0.033122000000000006,-0.0054670000000000005,0.032327999999999996,0.016982,0.006735
7,1.8643869999999998,-1.378819,1.9982229999999999,0.182623,0.9816290000000001,0.055212,-0.148069,0.013890000000000001,0.00845,0.019769,0.028227999999999996,0.001276
8,1.8765939999999999,-1.377607,2.010573,0.183069,0.981397,0.057795000000000006,-0.116193,0.0009310000000000001,0.024713,0.008322,0.02936,-0.007227
9,1.883564,-1.376442,2.017488,0.18375,0.981173,0.059421,-0.061706,0.019906999999999998,0.027205,-0.005985,0.030713999999999998,-0.011967
10,1.8855689999999998,-1.375735,2.0190770000000002,0.18429,0.981036,0.060003999999999995,-0.004033,0.022944,0.016922,-0.008173,0.022459,0.003915
11,1.88152,-1.375552,2.014853,0.184702,0.981,0.059313,0.059811,-0.013503,0.018483000000000003,-0.007409999999999999,0.020861,0.009977
12,1.8714419999999998,-1.375824,2.00558,0.18503499999999998,0.9810530000000001,0.057369,0.10334600000000001,-0.065828,0.012445,-0.009544,0.01678,0.016468
13,1.858496,-1.376333,1.993959,0.185282,0.981152,0.054827,0.108642,-0.079674,0.007159,-0.011851,0.006046,0.04344
14,1.8473009999999999,-1.37685,1.983903,0.185396,0.981251,0.052611,0.095964,-0.051932000000000006,0.007034,-0.009507999999999999,-0.003682,0.060823
15,1.836798,-1.377318,1.974392,0.18549200000000002,0.981341,0.050539,0.095849,-0.085987,-0.001469,0.009378000000000001,-0.013537,0.06146
16,1.826254,-1.378107,1.966534,0.18526700000000002,0.9814930000000001,0.048385000000000004,0.08494600000000001,-0.166794,-0.030282999999999997,0.0076040000000000005,0.090437,0.116532
17,1.819539,-1.37991,1.959426,0.183872,0.981836,0.046704,0.116453,0.173014,-0.053999,-0.150562,0.006261999999999999,0.036364999999999995
18,1.8157759999999998,-1.379724,1.9496229999999999,0.184223,0.981801,0.046056,0.0558,0.331457,0.069288,-0.164524,-0.043599,-0.034703
19,1.829635,-1.378135,1.9563009999999998,0.185074,0.981498,0.049004,-0.098426,0.391831,0.023268,-0.004196,-0.028082999999999997,-0.041283
20,1.8519619999999999,-1.37771,1.9706279999999998,0.184335,0.981417,0.053239,-0.122954,0.335692,-0.035584,0.127616,-0.08983,-0.042878
21,1.8628470000000001,-1.378205,1.981424,0.183278,0.981512,0.055102,-0.048263,-0.164074,-0.062196,0.173732,-0.041219,0.010114
22,1.8604060000000002,-1.380017,1.983716,0.18170799999999998,0.981857,0.054147,0.003759,-0.204801,-0.045757,-0.06728200000000001,0.110444,0.07233300000000001
23,1.863688,-1.380309,1.988044,0.181256,0.9819120000000001,0.054661,-0.055002999999999996,0.044556,-0.015508000000000001,-0.115873,0.082526,0.041607
24,1.8712689999999998,-1.380075,1.9928740000000003,0.181055,0.9818680000000001,0.056101,-0.027766000000000002,0.177591,-0.008011,-0.061274,0.042577,0.036261
25,1.873168,-1.3806260000000001,1.990651,0.18043199999999998,0.981972,0.05628300000000001,0.067463,0.20509299999999997,-0.041564,0.029056,-0.027443000000000002,-0.022561
26,1.8704919999999998,-1.382362,1.984722,0.178953,0.982299,0.055297000000000006,0.088551,0.12203800000000001,-0.069084,0.023516,-0.027404,-0.04605
27,1.868434,-1.384485,1.981034,0.17707,0.9826940000000001,0.054315999999999996,0.0531,0.047674,-0.089533,0.025825999999999998,-0.026807,-0.040217
28,1.87028,-1.386615,1.983177,0.174967,0.983087,0.054025,0.000373,-0.05334,-0.09084,0.025259,-0.005044,-0.016975999999999998
29,1.874337,-1.387956,1.989307,0.173487,0.983331,0.05434,-0.053296,-0.12028599999999999,-0.085788,0.016531,0.012503,-0.001254
30,1.881373,-1.388941,1.9994560000000001,0.17218,0.98351,0.055263,-0.089766,-0.155347,-0.077452,0.010255,0.01942,0.007847
31,1.888495,-1.38958,2.0095520000000002,0.171185,0.983625,0.056291999999999995,-0.08856900000000001,-0.118101,-0.068945,0.004901,0.029101,0.035123
32,1.895575,-1.390149,2.01836,0.17025099999999999,0.983728,0.057324,-0.060596000000000004,-0.054328999999999995,-0.05708099999999999,-0.0035789999999999997,0.020513999999999998,0.023150999999999998
33,1.9012470000000001,-1.3907129999999999,2.02447,0.169398,0.9838290000000001,0.05810800000000001,-0.035838,0.0051979999999999995,-0.046301999999999996,-0.017145,0.01434,0.004987
34,1.906118,-1.391354,2.028807,0.168517,0.983943,0.058725,-0.017533,0.044541000000000004,-0.044088,-0.029082,0.015080000000000001,-0.005182
35,1.910295,-1.392097,2.032079,0.16758299999999998,0.9840760000000001,0.059186,0.000604,0.043416,-0.045029,-0.026562,0.011759,-0.011853
36,1.911082,-1.393116,2.032255,0.16659100000000002,0.9842559999999999,0.058983,0.032533,0.020955,-0.050118,-0.015056,0.008816,-0.007056999999999999
37,1.908673,-1.394385,2.029509,0.16555599999999998,0.9844799999999999,0.058168,0.051674,0.008101,-0.048899,-0.002546,0.012789,-0.009248000000000001
38,1.903819,-1.395785,2.024628,0.16453399999999999,0.984725,0.056913,0.067595,-0.005821,-0.044497,0.006639,0.0114,-0.006986
39,1.8983869999999998,-1.3970690000000001,2.019161,0.163645,0.9849469999999999,0.055612,0.06118,0.0005549999999999999,-0.034936,0.015691,0.003914,-0.0040219999999999995
40,1.893416,-1.398002,2.014059,0.163048,0.985108,0.05450700000000001,0.050449,0.000537,-0.021125,0.023413999999999997,0.001067,-0.012469
41,1.8899,-1.398449,2.010653,0.162821,0.9851850000000001,0.053795,0.024728999999999998,-0.010086,-0.006335,0.029789999999999997,-0.003602,-0.014428
42,1.889152,-1.398535,2.010109,0.16278099999999998,0.9852,0.053647,-0.0072959999999999995,-0.00893,-0.00122,0.031432999999999996,-0.005845,-0.0146
43,1.8910799999999999,-1.398287,2.012278,0.162911,0.985157,0.054038,-0.030815,-0.011013,0.007165,0.034797,-0.000813,-0.013144999999999999
44,1.8945150000000002,-1.3976709999999999,2.015943,0.1633,0.985051,0.054791,-0.046861,-0.009934,0.017733000000000002,0.032333,0.008296,-0.019757
45,1.897878,-1.396865,2.01993,0.163868,0.9849120000000001,0.055595000000000006,-0.048076,-0.039771,0.020968,0.028072000000000003,0.008633,-0.027426999999999997
46,1.9006349999999999,-1.396038,2.0238099999999997,0.164486,0.984769,0.056311,-0.046019,-0.055761,0.022071,0.028033999999999996,0.01192,-0.022680000000000002
47,1.9022400000000002,-1.395226,2.026601,0.165151,0.984627,0.056835000000000004,-0.032155,-0.055813999999999996,0.023236,0.022897999999999998,0.011772,-0.021465
48,1.9007830000000001,-1.394588,2.0264580000000003,0.16583,0.9845149999999999,0.056798,-0.002345,-0.06870599999999999,0.024529,0.008456,0.012676999999999999,-0.016332
49,1.8964590000000001,-1.394107,2.0235060000000002,0.166524,0.984431,0.056233000000000005,0.017916,-0.07090700000000001,0.024673,0.012461,0.008443,-0.010106
50,1.8908619999999998,-1.39363,2.019494,0.167283,0.984347,0.055448000000000004,0.012505,-0.085811,0.026791000000000002,0.011214,0.002134,0.009463
51,1.88855,-1.393142,2.018789,0.16786800000000002,0.984261,0.055211,-0.01409,-0.072917,0.022316,0.005716,0.0032270000000000003,0.016886
52,1.8884169999999998,-1.39258,2.019894,0.168402,0.9841620000000001,0.055362,-0.02362,-0.056905,0.022229,0.003778,0.005569,0.017422
53,1.888809,-1.391953,2.021459,0.168968,0.98405,0.055622000000000005,-0.027892,-0.055833,0.024334,-0.0031969999999999998,0.006108,0.011425
54,1.891046,-1.391206,2.024798,0.169541,0.983917,0.056230999999999996,-0.04601,-0.051509000000000006,0.024202,-0.0014199999999999998,0.010651,0.007963
55,1.8951509999999998,-1.390268,2.030091,0.170183,0.983749,0.057221,-0.059946000000000006,-0.060008000000000006,0.030525,0.002607,0.012833,0.007309
56,1.899273,-1.389202,2.035411,0.17094,0.983557,0.058261,-0.05885,-0.048315,0.035858999999999995,3.4e-05,0.00889,0.008573
57,1.903443,-1.388221,2.040202,0.17160699999999998,0.9833790000000001,0.059288,-0.048008999999999996,-0.014247,0.031618,-0.0028899999999999998,0.006823999999999999,-0.00028199999999999997
58,1.9058400000000002,-1.3875520000000001,2.0426860000000002,0.172087,0.983258,0.059916,-0.020162,0.0016719999999999999,0.023244,0.002123,0.015125,-0.001734
59,1.905289,-1.386995,2.042076,0.17263699999999998,0.9831559999999999,0.06,0.006476000000000001,0.004732,0.034108,0.007539,0.019468,0.0052770000000000004
60,1.9007880000000001,-1.386488,2.037186,0.173377,0.9830629999999999,0.059385,0.056680999999999995,0.027955,0.044043,-0.021827000000000003,0.026168,0.046649
61,1.89093,-1.386197,2.025595,0.174225,0.98301,0.057762,0.11571300000000001,0.10764000000000001,0.045422000000000004,-0.056351,0.01934,0.062584
62,1.879318,-1.386579,2.0110740000000003,0.174528,0.98308,0.055622000000000005,0.139525,0.14393499999999998,0.006017,-0.07624600000000001,0.000807,0.067868
63,1.8685990000000001,-1.387728,1.996947,0.174035,0.98329,0.053417,0.141927,0.167508,-0.030316000000000003,-0.05111,-0.008695999999999999,0.054707000000000006
64,1.8625049999999999,-1.389376,1.986966,0.17280399999999999,0.9835889999999999,0.051889,0.10269400000000001,0.19001600000000002,-0.057236,-0.017378,-0.01432,0.042638999999999996
65,1.86086,-1.3909,1.9814509999999999,0.171454,0.9838620000000001,0.051176,0.048251,0.18168900000000002,-0.058674000000000004,-0.016028,-0.014593,0.043352
66,1.8677400000000002,-1.3921430000000001,1.985166,0.169928,0.9840840000000001,0.051996,-0.019201,0.142453,-0.045208,0.021753,-0.008849,0.013479
67,1.881548,-1.3924969999999999,1.996393,0.16886199999999998,0.9841469999999999,0.054230999999999994,-0.09726900000000001,0.130888,-0.015828000000000002,0.037955,0.002014,-0.015428
68,1.897714,-1.3917,2.010497,0.168706,0.9840049999999999,0.05720599999999999,-0.129553,0.097862,0.012830000000000001,0.039729,0.021168,-0.023728
69,1.910993,-1.390314,2.02251,0.169217,0.983757,0.059896000000000005,-0.11170899999999999,0.05828200000000001,0.038643000000000004,0.033648000000000004,0.028189999999999996,-0.029317000000000003
70,1.9177549999999999,-1.388806,2.028568,0.170202,0.983485,0.061542999999999994,-0.045741000000000004,0.028185,0.048756,0.008005,0.029729000000000002,-0.031727
71,1.914375,-1.387846,2.024736,0.171298,0.983311,0.061285,0.048133999999999996,0.025726,0.049415,-0.00023199999999999997,0.020975999999999998,-0.030416000000000002
72,1.904538,-1.387623,2.013401,0.172099,0.9832709999999999,0.05966900000000001,0.11358599999999999,0.09585700000000001,0.036964,-0.00677,0.011312000000000001,-0.024038999999999998
73,1.890539,-1.387903,1.9964369999999998,0.172657,0.9833219999999999,0.057166999999999996,0.159634,0.149346,0.025205,-0.017505,0.014191,0.004509
74,1.872326,-1.388751,1.975007,0.172874,0.983475,0.053765999999999994,0.210858,0.140692,0.013822999999999998,-0.020225,0.010024,0.037497
75,1.851761,-1.389969,1.951198,0.17279,0.9836950000000001,0.049867,0.22376100000000002,0.146042,-0.0031850000000000003,-0.021469,0.007363,0.054671000000000004
76,1.8315709999999998,-1.391551,1.9273930000000001,0.172256,0.983979,0.045967,0.221847,0.173832,-0.024598,-0.019972999999999998,-0.008118,0.090767
77,1.816066,-1.393353,1.907429,0.171227,0.984298,0.04286,0.184848,0.23155900000000001,-0.043089999999999996,-0.032891000000000004,-0.008819,0.068819
78,1.806962,-1.395124,1.892711,0.169916,0.9846090000000001,0.040891000000000004,0.128601,0.28294899999999995,-0.058503999999999994,-0.030496,-0.009176,0.061434
79,1.8064419999999999,-1.39677,1.886534,0.16836199999999998,0.9848959999999999,0.040425,0.05814,0.264054,-0.067518,-0.008556,-0.014559,0.027462
80,1.814037,-1.398151,1.889677,0.166731,0.9851340000000001,0.041375,-0.020048,0.18978299999999998,-0.074378,0.013201,-0.014766,-0.004586
81,1.828907,-1.399226,1.9019220000000001,0.165074,0.985318,0.04358,-0.100415,0.108903,-0.070087,0.024501,-0.008832,-0.026871
82,1.8498150000000002,-1.399464,1.92172,0.163902,0.985359,0.046957,-0.171303,0.036579,-0.037374,0.035713,-0.0008,-0.042135
83,1.8726330000000002,-1.3985020000000001,1.944959,0.163694,0.985194,0.050966000000000004,-0.20803600000000003,-0.022058,0.006241,0.037005,0.021612,-0.046938
84,1.892296,-1.396727,1.965384,0.16431700000000002,0.9848879999999999,0.054727,-0.179341,-0.015891,0.037412,0.024403,0.034582,-0.04815
85,1.902768,-1.394988,1.975709,0.165353,0.984585,0.057002,-0.077812,0.039085,0.054074000000000004,0.004432,0.040576,-0.05131
86,1.9019419999999998,-1.393894,1.973709,0.166419,0.9843940000000001,0.057215999999999996,0.029008,0.064296,0.050515,-0.005302,0.047467,-0.047816000000000004
87,1.8901080000000001,-1.393525,1.96088,0.167429,0.9843290000000001,0.055355999999999995,0.12805899999999998,0.023482,0.048055,0.001807,0.037034,-0.04083
88,1.870898,-1.39361,1.94111,0.168381,0.984344,0.052105,0.17391500000000001,0.016937999999999998,0.046247,-0.004761,0.024475999999999998,-0.024013999999999997
89,1.84969,-1.393992,1.919086,0.169087,0.984411,0.048419,0.193214,0.023322,0.031418,-0.027683999999999997,0.011484999999999999,0.0053219999999999995
90,1.827981,-1.394607,1.8968080000000003,0.169515,0.984519,0.044584,0.185712,0.006342,0.021774,-0.019887000000000002,0.0011380000000000001,0.040148
91,1.8092409999999999,-1.395089,1.8777169999999999,0.16985899999999998,0.9846030000000001,0.041287,0.148348,-0.000975,0.019386,-0.010603,-0.008941,0.060184
92,1.795664,-1.395305,1.864126,0.170195,0.984641,0.03893,0.092824,-0.011434,0.019011,-0.0060869999999999995,-0.02172,0.06933099999999999
93,1.789195,-1.395306,1.8576810000000001,0.170443,0.984641,0.037828,0.033161,-0.000543,0.011103,-0.010485,-0.022056,0.073729
94,1.7910700000000002,-1.3953360000000001,1.859043,0.170343,0.9846459999999999,0.038141,-0.022043,0.043394999999999996,-0.00643,-0.018182,-0.013363,0.07067000000000001
95,1.799534,-1.395478,1.8662290000000001,0.169878,0.984671,0.03955,-0.050642,0.071265,-0.024825999999999997,-0.011736,-0.002951,0.03528
96,1.8103740000000001,-1.395757,1.875939,0.16917000000000001,0.98472,0.041323,-0.086934,0.053337999999999997,-0.038943,-0.004711,-0.005594,0.023801
97,1.826296,-1.3959780000000002,1.891202,0.16827899999999998,0.984758,0.043956,-0.125385,0.039641,-0.043467,0.009134999999999999,-0.0047009999999999994,0.005422
98,1.8452169999999999,-1.396008,1.909688,0.167389,0.9847629999999999,0.047124,-0.14041700000000001,0.025814,-0.036077,0.01146,0.017480000000000002,-0.013585
99,1.86243,-1.395773,1.926781,0.166773,0.984722,0.050064,-0.140508,0.017245,-0.024316,0.013143,0.019321,-0.020737000000000002
100,1.8778,-1.395385,1.941907,0.166346,0.984655,0.052736,-0.115951,0.027787,-0.017749,0.015538,0.026118000000000002,-0.044114999999999994
101,1.8882349999999999,-1.395031,1.951918,0.16611800000000002,0.984593,0.054577999999999995,-0.070114,0.028652999999999998,-0.007815,0.015981,0.025081,-0.053372
102,1.891719,-1.394784,1.955212,0.166157,0.98455,0.055233000000000004,-0.014805,0.000724,0.002221,0.020076,0.029931,-0.064877
103,1.888539,-1.394779,1.9524849999999998,0.16633699999999998,0.984549,0.054706,0.036218,-0.033573,0.010099,0.028838,0.021981999999999998,-0.047016
104,1.8812099999999998,-1.394765,1.94587,0.166748,0.9845459999999999,0.053489999999999996,0.058516,-0.045416000000000005,0.022019999999999998,0.02443,0.017758000000000003,-0.034966000000000004
105,1.871736,-1.394624,1.9375930000000001,0.167381,0.9845219999999999,0.051949,0.051941999999999995,-0.077377,0.028424,0.024467,0.001349,0.0011970000000000001
106,1.8635709999999999,-1.394321,1.9313619999999998,0.16808399999999998,0.984469,0.050667000000000004,0.032576,-0.11246800000000001,0.029401999999999998,0.023261,-0.002581,0.017967
107,1.856846,-1.39383,1.927112,0.168883,0.984382,0.049671,0.017525,-0.13585999999999998,0.031464,0.018739,-0.000923,0.022427000000000002
108,1.8506150000000001,-1.393269,1.923966,0.169719,0.984283,0.04877,0.013118000000000001,-0.165677,0.032539,0.009724,-0.001343,0.024457
109,1.8455669999999997,-1.3926040000000002,1.922279,0.170592,0.984166,0.04809,0.001603,-0.16838699999999998,0.032486,0.004807,0.004344,0.032248
110,1.842307,-1.391859,1.922321,0.171457,0.984033,0.047731,-0.013294,-0.160874,0.031304000000000005,-0.001718,0.002218,0.046019
111,1.841431,-1.3911959999999999,1.9244259999999997,0.172128,0.983915,0.047755,-0.029158,-0.142657,0.018352,-0.014459,0.002703,0.046605
112,1.842575,-1.3908280000000002,1.928302,0.17242000000000002,0.983849,0.048049,-0.03542,-0.129779,0.000132,-0.021099,0.005622,0.033769
113,1.844775,-1.390795,1.933083,0.172345,0.983844,0.048437,-0.034267,-0.126523,-0.015888,-0.016187,0.006756999999999999,0.019221000000000002
114,1.847425,-1.390982,1.9385259999999997,0.17203800000000002,0.983877,0.048843,-0.037511,-0.145649,-0.0255,-0.006922,0.011301,0.005219
115,1.850569,-1.391273,1.9449049999999999,0.17160999999999998,0.983929,0.049305,-0.046118,-0.16478099999999998,-0.028739999999999998,0.005667,0.011585,-0.001423
116,1.854427,-1.391537,1.9520830000000002,0.17116800000000001,0.9839760000000001,0.049893,-0.053576,-0.159441,-0.025594,0.013616,0.007159,-0.005261
117,1.858055,-1.3916950000000001,1.959054,0.17083800000000002,0.9840040000000001,0.050470999999999995,-0.052557000000000006,-0.163731,-0.019173,0.016235,0.005299,-0.00564
118,1.8609830000000003,-1.391725,1.965385,0.17066099999999998,0.98401,0.050962,-0.05366699999999999,-0.16801,-0.013834,0.016045,0.008681,-0.007963
119,1.8628959999999999,-1.3916540000000002,1.970957,0.17063299999999998,0.9839969999999999,0.05131,-0.045238,-0.18723199999999998,-0.009477,0.017432,0.010373,-0.011362
120,1.86312,-1.391559,1.975485,0.170712,0.98398,0.051375,-0.037962,-0.226685,-0.006171,0.014377000000000001,0.011793000000000001,-0.014006000000000001
121,1.861963,-1.391375,1.979269,0.170944,0.9839469999999999,0.051229,-0.035952,-0.250146,-0.001854,0.009583,0.007751999999999999,-0.00617
122,1.860689,-1.391099,1.983118,0.171272,0.9838979999999999,0.051089999999999997,-0.039167,-0.25014699999999995,0.001328,-0.001777,0.008564,0.009609999999999999
123,1.859749,-1.3907889999999998,1.986798,0.17161300000000002,0.983842,0.051016000000000006,-0.034751,-0.21183400000000002,0.006651000000000001,-0.006085,0.008559,0.008722
124,1.8585450000000001,-1.390456,1.9894560000000001,0.171988,0.983783,0.050901999999999996,-0.026087,-0.182041,0.007741,-0.007819,0.010037,0.012727
125,1.856695,-1.3901729999999999,1.9911740000000002,0.172349,0.9837319999999999,0.050662,-0.017499,-0.171414,0.00672,-0.015352000000000001,0.007982,0.026088999999999998
126,1.85512,-1.389981,1.992853,0.17260999999999999,0.9836969999999999,0.050444,-0.016327,-0.152225,0.00243,-0.015078,0.007758,0.027025
127,1.855321,-1.389873,1.9957650000000002,0.1727,0.983678,0.050508,-0.033257999999999996,-0.124456,-0.0009279999999999999,-0.012956,0.000468,0.021849
128,1.857893,-1.389665,2.00078,0.172762,0.983641,0.051009,-0.047094,-0.116951,-0.001035,-0.014421999999999999,4.8e-05,0.018616999999999998
129,1.861659,-1.3894799999999998,2.006831,0.172742,0.983607,0.051711,-0.053441999999999996,-0.109455,-0.005361,-0.016034,0.005162,0.014161000000000002
130,1.865504,-1.389411,2.013245,0.172605,0.9835950000000001,0.052394,-0.051379999999999995,-0.13499,-0.014928,-0.009901,0.005816,0.013677000000000002
131,1.869865,-1.389464,2.0204560000000003,0.172325,0.983604,0.053131,-0.06629199999999999,-0.134917,-0.020374,-0.0035329999999999997,0.0013050000000000002,0.0033420000000000004
132,1.876364,-1.389285,2.029626,0.17214400000000002,0.9835719999999999,0.054301999999999996,-0.0844,-0.118913,-0.010907,0.004492,0.00889,0.001286
133,1.882528,-1.388896,2.037571,0.17216800000000002,0.9835020000000001,0.055478999999999994,-0.060717999999999994,-0.05726900000000001,0.004135,0.009259,0.012638,0.012468
134,1.88585,-1.388543,2.041527,0.17231300000000002,0.9834379999999999,0.056158000000000007,-0.024281999999999998,-0.016933,0.008611,0.005497,0.01821,0.011972
135,1.8858080000000002,-1.388368,2.041865,0.172479,0.983406,0.056204,0.00448,-0.026621,0.008824,-0.007883,0.017006,0.007012999999999999
136,1.8827779999999998,-1.3882510000000001,2.039935,0.172758,0.9833850000000001,0.055716999999999996,0.017075999999999997,-0.071411,0.010038,-0.029417000000000002,0.009764,0.020898
137,1.8801139999999998,-1.3881809999999999,2.03878,0.17297200000000001,0.9833719999999999,0.055277,0.007484,-0.076674,0.0025,-0.024702,0.01054,0.033681
138,1.878787,-1.388217,2.038884,0.173012,0.9833790000000001,0.055037,-0.0031030000000000003,-0.065954,-0.005065999999999999,-0.017937,0.009602,0.030701999999999997
139,1.87857,-1.3883780000000001,2.039735,0.172873,0.983408,0.054952,-0.001954,-0.045729,-0.012622,0.005548,0.010168,0.026164
140,1.8788799999999999,-1.3886399999999999,2.040781,0.172611,0.983455,0.054928,0.000185,-0.037245,-0.005141,0.025112,0.0061530000000000005,0.009770000000000001
141,1.878407,-1.388615,2.041166,0.17266099999999998,0.9834510000000001,0.054853,-0.0009689999999999999,-0.044745,0.006611,0.021294,0.002862,0.007387
142,1.878238,-1.388507,2.041871,0.172772,0.9834309999999999,0.054857,-0.006313,-0.046856999999999996,0.0065769999999999995,0.0016820000000000001,-0.004671,0.012891999999999999
143,1.879114,-1.388279,2.0438669999999997,0.17293699999999998,0.98339,0.055076,-0.019158,-0.059582,0.0032990000000000003,0.002112,-0.002341,0.026024000000000002
144,1.8808189999999998,-1.387976,2.046723,0.173127,0.9833350000000001,0.055462,-0.034046,-0.046755,0.005315,0.006972,0.005374,0.031208
145,1.884196,-1.387478,2.051154,0.173407,0.983244,0.056198000000000005,-0.048011,-0.062707,0.010579,-0.000495,0.011308,0.013519999999999999
146,1.8867580000000002,-1.386819,2.056076,0.173879,0.983124,0.056843,-0.053777,-0.14689100000000002,0.022397,0.006282,0.01355,0.007717
147,1.887686,-1.385998,2.0606709999999997,0.174594,0.982973,0.057257,-0.046525,-0.189549,0.027843,0.008221,0.013975,0.002039
148,1.887879,-1.385143,2.0643990000000003,0.17538199999999998,0.982816,0.057552,-0.03254,-0.16509200000000002,0.026841000000000004,0.018359,0.006456999999999999,-0.012203
149,1.8856830000000002,-1.384552,2.065232,0.176058,0.982707,0.057346,-0.00573,-0.138537,0.022722,0.021421,0.005940999999999999,-0.008457
150,1.883187,-1.384274,2.065172,0.176459,0.982655,0.05699,-0.005591,-0.118254,0.012014,0.021188,0.0024219999999999997,-0.002318
151,1.8827639999999999,-1.383974,2.067392,0.176761,0.982599,0.05700499999999999,-0.036611000000000005,-0.143683,0.004353,0.017483000000000002,0.001425,-0.003889
152,1.884516,-1.38345,2.072973,0.177152,0.9825020000000001,0.057474000000000004,-0.073244,-0.218146,0.009533,0.023196,0.010647,-0.013605
153,1.887573,-1.382624,2.081492,0.17774600000000002,0.982348,0.05826799999999999,-0.093855,-0.288404,0.014819999999999998,0.035601999999999995,0.010771,-0.005305
154,1.890734,-1.381631,2.090952,0.178488,0.9821620000000001,0.059137,-0.102519,-0.31395300000000004,0.017997,0.038782,0.008897,0.000449
155,1.893786,-1.380496,2.100618,0.179365,0.9819469999999999,0.060035000000000005,-0.106873,-0.327808,0.023326,0.020037,0.005968,-0.008751
156,1.89566,-1.379525,2.1095759999999997,0.18015699999999998,0.9817629999999999,0.060676,-0.092014,-0.357636,0.010648999999999999,0.010151,0.004366,-0.016380000000000002
157,1.894952,-1.3788639999999999,2.116953,0.180814,0.9816379999999999,0.060754999999999997,-0.070892,-0.41838000000000003,-0.0019440000000000002,0.009493999999999999,0.002859,0.014288
158,1.8932,-1.378552,2.1238099999999998,0.18121099999999998,0.9815780000000001,0.060535000000000005,-0.067629,-0.414092,-0.011541,0.0060149999999999995,0.002278,0.024044
159,1.893995,-1.378284,2.13255,0.18141300000000002,0.981527,0.060763,-0.09731000000000001,-0.376682,-0.017137,0.006301,0.0010630000000000001,0.029554
160,1.898832,-1.377721,2.144809,0.18163900000000002,0.981419,0.061817,-0.136688,-0.354177,-0.016373,-0.016203,0.004726,0.024868
161,1.904913,-1.377207,2.158693,0.18173699999999998,0.9813200000000001,0.063086,-0.128379,-0.39532,-0.026045999999999996,-0.018666,0.009677,0.010034
162,1.907473,-1.3770950000000002,2.17009,0.181678,0.981298,0.063588,-0.090173,-0.449745,-0.035323,-0.018943,0.01211,0.010218999999999999
163,1.907243,-1.3772229999999999,2.1791270000000003,0.181576,0.981323,0.06350499999999999,-0.069922,-0.45407600000000004,-0.035176,-0.008053,0.005692,0.033250999999999996
164,1.908222,-1.377358,2.188749,0.18138900000000002,0.981349,0.063639,-0.089962,-0.403934,-0.036449,-0.003303,0.002584,0.035009
165,1.9113369999999998,-1.377449,2.200002,0.181104,0.981367,0.06417300000000001,-0.10275,-0.403876,-0.039743,-0.001111,0.005023,0.033513
166,1.915057,-1.3774790000000001,2.21233,0.180836,0.9813719999999999,0.064837,-0.11353900000000001,-0.424105,-0.033382999999999996,-0.0023539999999999998,0.004239,0.024961
167,1.9193310000000001,-1.37717,2.225147,0.180842,0.9813129999999999,0.065712,-0.11671500000000001,-0.407096,-0.021676,-0.016108,0.014796,0.005913
168,1.9240240000000002,-1.3768040000000001,2.2378299999999998,0.180866,0.9812420000000001,0.06668400000000001,-0.111276,-0.388984,-0.027002999999999996,-0.021214,0.021245,-0.001422
169,1.9246450000000002,-1.376811,2.2464619999999997,0.180819,0.981244,0.066794,-0.054713,-0.38704299999999997,-0.028745999999999997,-0.011752,0.016651,0.003244
170,1.9245759999999998,-1.376868,2.253531,0.18077000000000001,0.9812549999999999,0.066762,-0.067285,-0.328438,-0.021432,0.002183,0.007744,0.023143
171,1.9271040000000002,-1.3765,2.262259,0.18094000000000002,0.9811840000000001,0.067345,-0.08957899999999999,-0.286883,-0.004549,-0.0018789999999999998,0.008745000000000001,0.025702999999999997
172,1.9294919999999998,-1.37589,2.270229,0.18134,0.981066,0.067987,-0.077829,-0.268874,0.010465,-0.011479000000000001,0.016737000000000002,0.019614
173,1.9303700000000001,-1.37527,2.276785,0.181848,0.9809459999999999,0.06836,-0.06615599999999999,-0.287007,0.006297,-0.02096,0.016597999999999998,0.013046
174,1.929466,-1.3747530000000001,2.282023,0.182384,0.9808450000000001,0.068373,-0.050244,-0.30836399999999997,0.005367,-0.012325,0.009298,0.006670000000000001
175,1.9277099999999998,-1.374399,2.286909,0.182829,0.980776,0.068174,-0.046077,-0.338177,-0.002043,0.009493000000000001,0.003797,0.011294
176,1.9258680000000001,-1.374115,2.2920689999999997,0.18321500000000002,0.980721,0.06793400000000001,-0.050401999999999995,-0.352006,-0.003124,0.032193,0.003059,0.018080000000000002
177,1.925893,-1.373828,2.298836,0.183479,0.980664,0.068037,-0.075829,-0.31356300000000004,-0.004419,0.034554,0.004535,0.028031999999999998
178,1.928082,-1.373207,2.3075080000000003,0.1839,0.980543,0.068651,-0.09730599999999999,-0.333771,0.006139,0.028577999999999996,-0.005567,0.014372
179,1.930923,-1.372288,2.318723,0.18454700000000002,0.9803620000000001,0.06949,-0.134121,-0.45932399999999995,0.0007019999999999999,0.032494,-0.016174,0.000288
180,1.9345830000000002,-1.371346,2.3336200000000002,0.185155,0.980176,0.070494,-0.159181,-0.595511,-0.019594999999999998,0.04977,-0.013852000000000001,0.000139
181,1.93793,-1.3705399999999999,2.350629,0.185655,0.980016,0.071397,-0.172405,-0.701942,-0.032369999999999996,0.064162,-0.010655,0.001219
182,1.940647,-1.369881,2.367623,0.18606199999999998,0.979884,0.072135,-0.16375499999999998,-0.682771,-0.038743,0.06984299999999999,-0.001186,0.009256
183,1.9440259999999998,-1.369225,2.384625,0.186417,0.9797530000000001,0.07299800000000001,-0.175404,-0.6540060000000001,-0.029247000000000002,0.065902,-9.300000000000001e-05,0.012177
184,1.947165,-1.368113,2.401737,0.187202,0.9795299999999999,0.07398400000000001,-0.183174,-0.705177,-0.013212999999999999,0.041253,-0.004417,0.017615000000000002
185,1.9491720000000001,-1.366786,2.419142,0.18825999999999998,0.9792620000000001,0.074839,-0.194145,-0.779678,-0.020671000000000002,0.036929000000000003,-0.002348,0.024358
186,1.951195,-1.365622,2.438234,0.189167,0.979025,0.075643,-0.20622100000000002,-0.8595149999999999,-0.024926,0.034039,-0.0035310000000000003,0.027705
187,1.95415,-1.3645,2.4593830000000003,0.189962,0.9787959999999999,0.076613,-0.22978800000000002,-0.8998360000000001,-0.044267,0.022349,-0.001517,0.018419
188,1.9578630000000001,-1.363448,2.482655,0.190629,0.9785799999999999,0.077706,-0.242959,-0.9871219999999999,-0.049589,0.021056000000000002,-0.000233,0.015373
189,1.9606860000000002,-1.362467,2.506182,0.191298,0.9783780000000001,0.078609,-0.243079,-1.008449,-0.044220999999999996,0.024766,-0.002731,0.023991
190,1.964419,-1.361281,2.530066,0.192074,0.978132,0.07976799999999999,-0.25143699999999997,-0.9647600000000001,-0.040062,0.026249,-0.002577,0.035345
191,1.970664,-1.35963,2.555072,0.19305999999999998,0.9777870000000001,0.081594,-0.290532,-0.859246,-0.019106,0.011515000000000001,0.011729999999999999,0.055048
192,1.983748,-1.357524,2.585291,0.193863,0.9773430000000001,0.08494,-0.358638,-0.849305,-0.048437,-0.042526,0.032392000000000004,-0.001505
193,1.996566,-1.356169,2.620119,0.193964,0.9770559999999999,0.087965,-0.357996,-1.2283549999999999,-0.09601699999999999,-0.090937,0.021022,-0.038145
194,1.9976479999999999,-1.3550010000000001,2.6506119999999997,0.194908,0.976806,0.088647,-0.290934,-1.481134,-0.077064,-0.050407,0.022614,0.0026309999999999997
195,1.997022,-1.354218,2.6759209999999998,0.195659,0.9766379999999999,0.088841,-0.25819699999999995,-1.077524,-0.07307999999999999,0.022175,-0.014831,0.092937
196,2.005328,-1.353307,2.700567,0.195722,0.976442,0.090838,-0.264877,-0.671602,-0.08005599999999999,-0.024076,0.009275,0.045606
197,2.015161,-1.352571,2.725622,0.195469,0.976283,0.093068,-0.256922,-0.800529,-0.079835,-0.108952,0.042485,0.029735
198,2.019523,-1.352006,2.747603,0.19555899999999998,0.9761610000000001,0.094159,-0.20724,-0.9040309999999999,-0.080424,-0.122118,0.053319000000000005,0.006885
199,2.017957,-1.351634,2.7652330000000003,0.19603299999999999,0.97608,0.09400900000000001,-0.15615,-0.9159870000000001,-0.065097,-0.068439,0.024408000000000003,0.027817
200,2.0144509999999998,-1.352005,2.776248,0.19603399999999999,0.97616,0.093166,-0.059646000000000005,-0.565868,-0.05952999999999999,-0.014866999999999998,0.015112,0.026050999999999998
201,2.010125,-1.352399,2.77886,0.19608699999999998,0.976246,0.092153,0.004545,-0.240314,-0.010361,-0.015743,0.015406999999999999,0.016413
202,2.007002,-1.3527049999999998,2.778928,0.196104,0.9763120000000001,0.091415,0.005981,-0.14556,0.0023469999999999997,-0.05055,0.009481999999999999,0.020753
203,2.00232,-1.352999,2.777699,0.196269,0.976376,0.090375,0.028207999999999997,-0.19354100000000002,-0.005983,-0.044856,0.003498,0.030963
204,1.997609,-1.353291,2.776584,0.196434,0.976439,0.08933200000000001,0.002689,-0.173216,-0.005118999999999999,-0.040428,0.006975,0.019372
205,1.997781,-1.353218,2.7799110000000002,0.196483,0.9764229999999999,0.089395,-0.030187000000000002,-0.130485,-0.006470999999999999,-0.046169,0.012223999999999999,0.02323
206,1.995197,-1.353867,2.778473,0.19613599999999998,0.976563,0.088626,0.06639600000000001,-0.016791,-0.017693,-0.030593000000000002,0.009704,0.033414
207,1.991568,-1.3547559999999998,2.773191,0.195663,0.9767540000000001,0.087559,0.059623,0.145126,-0.01047,-0.024474,0.012884999999999999,0.038357
208,1.9941919999999997,-1.355276,2.771014,0.19497,0.976865,0.087863,0.030307,0.270923,-0.008699,-0.063424,0.022997,0.038600999999999996
209,1.996445,-1.356061,2.767277,0.194071,0.977033,0.08798500000000001,0.068848,0.293189,-0.015936000000000002,-0.067972,0.029498000000000003,0.021756
210,1.997098,-1.357074,2.761895,0.19311099999999998,0.977248,0.087702,0.079599,0.309139,-0.018018,-0.060604,0.033951999999999996,0.018269999999999998
211,1.9972880000000002,-1.358123,2.75454,0.192162,0.9774700000000001,0.087315,0.12159,0.400581,-0.011433,-0.067803,0.02723,0.01942
212,1.992087,-1.359833,2.740039,0.19108699999999998,0.97783,0.08563,0.210522,0.486562,-0.009909000000000001,-0.049394,0.023071,0.030871
213,1.984861,-1.36208,2.720992,0.189689,0.978298,0.08336299999999999,0.229273,0.618608,-0.014219999999999998,-0.043037,0.012791,0.036785000000000005
214,1.980738,-1.364121,2.7025919999999997,0.188199,0.978719,0.08178400000000001,0.21483000000000002,0.7315649999999999,-0.011261,-0.048031,0.010753,0.040683
215,1.9778069999999999,-1.366066,2.684177,0.18669000000000002,0.979116,0.080478,0.214979,0.767772,-0.008102,-0.057264999999999996,0.025431,0.037564
216,1.9755340000000001,-1.3680450000000002,2.665706,0.185092,0.9795159999999999,0.079291,0.209774,0.795491,-0.009242,-0.06640900000000001,0.027869,0.015816999999999998
217,1.971944,-1.369947,2.6452419999999996,0.183661,0.9798969999999999,0.077899,0.26124200000000003,0.854959,-0.006822,-0.053183,0.021171000000000002,0.02995
218,1.961754,-1.37293,2.6154439999999997,0.18174200000000001,0.9804879999999999,0.074909,0.378326,1.015471,-0.022233000000000003,-0.038995999999999996,0.022747,0.034176
219,1.946453,-1.3764809999999998,2.5777080000000003,0.179627,0.9811799999999999,0.070842,0.417145,1.110133,-0.018879,-0.033356,0.019034,0.028432
220,1.930091,-1.380002,2.5366009999999997,0.177525,0.9818540000000001,0.066678,0.4542,1.278339,-0.024177,-0.023274,0.018817,0.064029
221,1.9122569999999999,-1.3839290000000002,2.489826,0.175051,0.982591,0.06221,0.482792,1.45831,-0.033822000000000005,-0.028932999999999997,0.005614,0.047836000000000004
222,1.8969209999999999,-1.387593,2.44441,0.172573,0.983265,0.058364,0.43582600000000005,1.4531479999999999,-0.034143,-0.019237,0.003917,0.044312
223,1.88385,-1.390658,2.402393,0.170453,0.983819,0.055175,0.399279,1.406348,-0.020451,-0.0029879999999999998,0.006629,0.059189
224,1.8705740000000002,-1.393282,2.359581,0.168702,0.9842860000000001,0.052145000000000004,0.402652,1.462723,-0.00234,0.00044100000000000004,0.0072,0.057413
225,1.856952,-1.395449,2.3157099999999997,0.167351,0.9846659999999999,0.04924,0.39518000000000003,1.472294,0.008277,0.0043560000000000005,0.014983000000000002,0.035217
226,1.8414419999999998,-1.397326,2.2711360000000003,0.16631300000000002,0.984992,0.046144,0.40224,1.391269,0.018045,0.019264,0.015939,0.004408
227,1.822482,-1.399449,2.222709,0.165134,0.9853559999999999,0.042462,0.448676,1.490281,-0.0073950000000000005,0.044095,0.008205,0.019015
228,1.800821,-1.401773,2.169435,0.16378399999999999,0.98575,0.038353,0.464847,1.532814,-0.001996,0.055561,0.008498,0.017891
229,1.7806680000000001,-1.4036629999999999,2.118799,0.162699,0.986066,0.034656,0.408986,1.456275,0.006258,0.065954,-0.005139,-0.004078
230,1.76095,-1.4049639999999999,2.070518,0.162092,0.986281,0.031199,0.415965,1.3592629999999999,0.018181,0.05765,-0.018889,0.008320999999999999
231,1.738704,-1.405934,2.021907,0.161802,0.986441,0.027426,0.390828,1.23574,0.027777999999999997,0.054598,-0.027273000000000002,0.022577
232,1.715857,-1.406716,1.9753330000000002,0.161624,0.986569,0.023611,0.374346,1.111232,0.009663,0.043637,-0.040906,-0.011358
233,1.6943700000000002,-1.4074010000000001,1.933273,0.161423,0.9866809999999999,0.02005,0.32219699999999996,0.9164120000000001,0.023435,0.059477999999999996,-0.044039,0.002503
234,1.674873,-1.4072120000000001,1.8964869999999998,0.161969,0.98665,0.016918,0.288612,0.8248260000000001,0.04575,0.054874,-0.035417000000000004,0.002522
235,1.6594779999999998,-1.406733,1.865244,0.162679,0.9865719999999999,0.014465,0.220987,0.737692,0.049663,0.044749000000000004,-0.022506,-0.008178
236,1.651789,-1.405823,1.842786,0.163681,0.9864229999999999,0.013286000000000001,0.158932,0.7154689999999999,0.066349,0.042663,-0.015826,0.001759
237,1.6485419999999997,-1.404687,1.8249380000000002,0.16484200000000002,0.9862350000000001,0.012842,0.13757,0.7155229999999999,0.071541,0.030211000000000002,0.016069,0.015265
238,1.645146,-1.403381,1.807623,0.166169,0.9860190000000001,0.012376999999999999,0.135149,0.6505529999999999,0.070539,0.022994,0.015491999999999999,-0.01285
239,1.641629,-1.402289,1.7925520000000001,0.167286,0.985836,0.011869,0.11325999999999999,0.51539,0.057740999999999994,0.020657,0.010761,-0.016766999999999997
240,1.636609,-1.401411,1.7781369999999999,0.168205,0.9856889999999999,0.011086,0.125799,0.43978,0.040833999999999995,0.026894,-0.0007030000000000001,0.006156
241,1.6316389999999998,-1.400839,1.763852,0.168822,0.985592,0.010284,0.11527899999999999,0.46435200000000004,0.032182999999999996,0.032701,0.012104,-0.015625
242,1.6282940000000001,-1.400326,1.7509709999999998,0.16935999999999998,0.985505,0.009748999999999999,0.102506,0.467606,0.028885,0.031248,0.012374,-0.005522
243,1.624801,-1.3999469999999998,1.738032,0.169765,0.985441,0.009177,0.110002,0.458056,0.012925999999999998,0.02657,0.021563,0.01629
244,1.620193,-1.3998680000000001,1.7243509999999997,0.169883,0.985427,0.008398000000000001,0.11632200000000001,0.433558,0.006592,0.027963,0.020676,-0.007422
245,1.615894,-1.399548,1.711628,0.170233,0.9853729999999999,0.007682,0.110748,0.399412,0.025825,0.021067,0.018091,0.0035789999999999997
246,1.609374,-1.3992120000000001,1.696973,0.17061099999999998,0.985316,0.006585,0.128937,0.399395,0.014202000000000001,0.007291,-0.003367,0.030539999999999998
247,1.602814,-1.3991149999999999,1.6820599999999999,0.170746,0.9852989999999999,0.005469,0.126861,0.400515,0.002435,0.009857,0.0033179999999999998,-0.024557
248,1.596587,-1.399074,1.668379,0.170816,0.9852920000000001,0.004406,0.109499,0.338776,0.005598,0.019263,0.0050030000000000005,-0.023312
249,1.589661,-1.398878,1.6549770000000001,0.171036,0.985258,0.0032270000000000003,0.114646,0.303578,0.012088,0.026611000000000003,-0.001952,0.0064930000000000005
250,1.584424,-1.398679,1.64365,0.171244,0.985224,0.002334,0.087898,0.284505,0.00979,0.023916,-0.008311,0.008347
251,1.5832709999999999,-1.398495,1.637392,0.171429,0.985193,0.002139,0.036449,0.23248200000000002,0.010565,0.016712,0.0008150000000000001,0.012189
252,1.58418,-1.398356,1.6342,0.171565,0.9851690000000001,0.0022960000000000003,0.01703,0.179307,0.005156,0.020635,0.0044399999999999995,-0.010292
253,1.588021,-1.398191,1.635182,0.171717,0.9851409999999999,0.0029579999999999997,-0.024765000000000002,0.136846,0.003851,0.028265,0.005613,-0.016096
254,1.5932520000000001,-1.398091,1.637783,0.171797,0.985123,0.003858,-0.017302,0.131511,-0.000363,0.019411,-0.0008699999999999999,-0.006956
255,1.596303,-1.398124,1.638872,0.171753,0.985129,0.004382,-0.006876999999999999,0.075023,-0.0023539999999999998,0.020798,0.003549,-0.02553
256,1.5984610000000001,-1.3980549999999998,1.640009,0.171811,0.985117,0.0047539999999999995,-0.010274,0.035602999999999996,0.001945,0.026385000000000002,0.005895,-0.035074
257,1.59971,-1.3978760000000001,1.641114,0.171981,0.985087,0.004974,-0.010476000000000001,-0.004894,0.006268999999999999,0.023758,0.001562,-0.024124
258,1.600636,-1.39767,1.642793,0.17218,0.985051,0.005139,-0.021375,-0.049624,0.012659,0.023041,0.000484,-0.03053
259,1.6029209999999998,-1.397254,1.646351,0.172579,0.984979,0.005546,-0.040679,-0.066622,0.017887,0.015028,0.008475,-0.01789
260,1.605108,-1.396772,1.6501279999999998,0.173043,0.9848959999999999,0.00594,-0.037579,-0.089004,0.017937,0.006828,0.007826000000000001,-0.007816
261,1.60788,-1.39639,1.655575,0.173399,0.9848299999999999,0.0064329999999999995,-0.063452,-0.152813,0.013566,-0.004637,0.006365999999999999,-0.019937
262,1.609931,-1.395937,1.6611200000000002,0.17383099999999999,0.984751,0.006806,-0.046486,-0.172047,0.016856,-0.006548999999999999,-0.002787,-0.008088
263,1.612434,-1.395604,1.667356,0.174145,0.984693,0.007254999999999999,-0.068957,-0.192187,0.011384,-0.004696,0.001025,-0.010627
264,1.615508,-1.3953229999999999,1.6745560000000002,0.1744,0.9846440000000001,0.007803,-0.048714999999999994,-0.196528,0.013666999999999999,-0.004723,8.2e-05,0.019007
265,1.616113,-1.394983,1.678438,0.174729,0.984585,0.007923999999999999,-0.035683,-0.139074,0.020094,-0.029206,0.014209999999999999,0.088817
266,1.617821,-1.394548,1.6828889999999999,0.17514100000000002,0.9845079999999999,0.008242,-0.043151,-0.139047,0.020041999999999997,-0.047776,0.011845,0.06887599999999999
267,1.6195620000000002,-1.394368,1.687383,0.17530199999999999,0.984477,0.008556,-0.039787,-0.12405999999999999,-0.001318,-0.049066000000000005,0.013234000000000001,0.063512
268,1.623267,-1.39466,1.6927889999999999,0.174981,0.9845280000000001,0.00919,-0.06175,-0.048257999999999995,-0.024000999999999998,-0.04194,0.007156,0.064174
269,1.637394,-1.395255,1.707355,0.174249,0.984632,0.011622,-0.142573,-0.0042439999999999995,-0.038508999999999995,-0.027292,0.003512,0.008047
270,1.6563,-1.395983,1.726543,0.173286,0.984759,0.014853,-0.160609,0.012884999999999999,-0.043998,-0.00344,0.0023469999999999997,0.004999
271,1.680166,-1.396456,1.749593,0.17242000000000002,0.984841,0.018933000000000002,-0.210531,0.074795,-0.031608,0.006917,0.0025859999999999998,-0.024013999999999997
272,1.7051509999999999,-1.3963379999999999,1.773613,0.172009,0.984821,0.02325,-0.186171,0.059697,-0.006848999999999999,0.008762,0.019726,-0.024975
273,1.7276169999999997,-1.3958059999999999,1.795193,0.17196199999999998,0.984728,0.02719,-0.18834700000000001,0.060726999999999996,0.003817,0.003239,0.028913,-0.023864
274,1.7455189999999998,-1.394984,1.812711,0.172245,0.984585,0.030405,-0.134268,0.007193000000000001,0.024559,-0.022387999999999998,0.018116,-0.021036000000000003
275,1.751775,-1.394296,1.819823,0.172718,0.9844639999999999,0.031604,-0.027817,-0.052805,0.017902,-0.02367,0.015184999999999999,0.016736
276,1.746032,-1.394081,1.8147400000000002,0.173105,0.984426,0.030649000000000003,0.066216,-0.024354,0.014249000000000001,-0.018396,0.019341999999999998,0.043875
277,1.7359740000000001,-1.394198,1.8051709999999999,0.173291,0.984447,0.028887,0.085386,-0.040366,0.0058579999999999995,-0.018979,0.014988,0.026212
278,1.725545,-1.394699,1.795707,0.173093,0.984535,0.027001999999999998,0.08007,-0.055184000000000004,-0.013387999999999999,-0.007809999999999999,0.008324,0.043463
279,1.718347,-1.395268,1.789219,0.17273,0.984634,0.025673,0.041812,-0.029454,-0.021166,-0.005524,-0.003143,0.039436
280,1.720745,-1.395792,1.792189,0.172158,0.984726,0.026010000000000002,-0.046723,-0.034436,-0.030324,0.015463999999999999,-0.000183,0.019705
281,1.7303389999999998,-1.396104,1.8025209999999998,0.171597,0.9847799999999999,0.027612,-0.10428599999999999,-0.017216,-0.024338,0.021655,-0.008309,0.021461
282,1.7465560000000002,-1.396121,1.819345,0.17110999999999998,0.984783,0.030388,-0.161959,-0.029802,-0.023657,0.016222,-0.012768,0.004111999999999999
283,1.766572,-1.3959030000000001,1.8412169999999999,0.170679,0.9847450000000001,0.033848,-0.19004200000000002,-0.10428299999999999,-0.021621,0.021261000000000002,0.005321,-0.003163
284,1.7853080000000001,-1.395413,1.862973,0.170487,0.9846600000000001,0.037143,-0.192406,-0.147981,-0.014103999999999998,0.0017850000000000001,0.021230000000000002,-0.001956
285,1.8021220000000002,-1.394834,1.8833919999999997,0.17039400000000002,0.984559,0.040135000000000004,-0.166897,-0.16831500000000002,-0.012832,-0.0060880000000000005,0.022735,-0.002888
286,1.8147209999999998,-1.394361,1.899245,0.170326,0.984476,0.042391000000000005,-0.127299,-0.140756,-0.01259,-0.00695,0.024694999999999998,-0.018175
287,1.822325,-1.3941700000000001,1.9100580000000003,0.170181,0.984442,0.043731,-0.071884,-0.162225,-0.019653,0.005371,0.014749000000000002,0.011322
288,1.824817,-1.394307,1.916094,0.16994,0.984466,0.044121,-0.04528,-0.177232,-0.019448,0.007001,0.011917,0.012
289,1.825498,-1.3944450000000002,1.920416,0.16977899999999999,0.98449,0.044203,-0.030344,-0.17304,-0.015075999999999999,0.006872,0.016044,-0.003904
290,1.823523,-1.3946969999999999,1.9215229999999999,0.169626,0.984535,0.043806,0.010322,-0.144424,-0.013761,-0.021723,0.0029690000000000003,0.044573
291,1.820605,-1.395067,1.921343,0.169398,0.984599,0.04322,-0.000256,-0.131574,-0.021329,-0.027598,-0.0036729999999999996,0.051903
292,1.820963,-1.395416,1.924427,0.169048,0.9846600000000001,0.043195,-0.034419,-0.139964,-0.024761000000000002,-0.030147000000000004,-0.0012619999999999999,0.045045999999999996
293,1.823609,-1.395613,1.929934,0.168743,0.9846950000000001,0.043593,-0.045083,-0.132495,-0.018436,-0.017269,0.007539,0.039674
294,1.827665,-1.395502,1.9365259999999997,0.168668,0.984675,0.044304,-0.05679,-0.11333,-0.005724,-0.016187,0.015248,0.045646
295,1.834727,-1.395305,1.945571,0.16853800000000002,0.984641,0.045545,-0.086533,-0.082342,-0.0038350000000000003,-0.008961,0.011209,0.040942
296,1.843013,-1.394919,1.955082,0.168521,0.9845729999999999,0.047042,-0.06817100000000001,-0.028094,0.0004969999999999999,-0.027087,-0.002594,0.055192
297,1.8517299999999999,-1.3944969999999999,1.963507,0.168504,0.984499,0.048625,-0.07964700000000001,0.032655,0.003544,-0.031694,0.00025699999999999996,0.042623
298,1.861071,-1.394043,1.9726599999999999,0.168471,0.9844200000000001,0.050324,-0.076538,0.00922,0.000391,-0.034437999999999996,0.014787,0.029738
299,1.8700310000000002,-1.393645,1.981263,0.168388,0.98435,0.051947,-0.071036,0.043302999999999994,-0.0028190000000000003,-0.032142000000000004,0.017573,0.033517
300,1.8781560000000002,-1.393483,1.9875310000000002,0.16811199999999998,0.9843209999999999,0.053362,-0.034369,0.127345,-0.005875,-0.049719,0.023750999999999998,0.031919
301,1.884459,-1.393589,1.9904650000000002,0.167674,0.98434,0.054389,-0.00951,0.19226600000000002,-0.012194,-0.050593,0.028462,0.026422
302,1.888516,-1.394112,1.990155,0.166965,0.984432,0.054908000000000005,0.02595,0.23162600000000003,-0.029089,-0.044742000000000004,0.024281,0.022286
303,1.891313,-1.395134,1.988046,0.165855,0.984611,0.055058,0.044197,0.243331,-0.041795,-0.023048,0.0038840000000000003,0.0066489999999999995
304,1.892797,-1.396406,1.9849599999999998,0.16458499999999998,0.9848319999999999,0.054907000000000004,0.054741,0.20710900000000002,-0.050220999999999995,0.0032920000000000002,0.005249,-0.006217
305,1.892491,-1.397869,1.981153,0.163237,0.985085,0.054402,0.052416,0.157079,-0.05765,0.019349,0.0050880000000000005,-0.010045
306,1.89346,-1.399262,1.9790759999999998,0.161883,0.985324,0.054125,0.035302999999999994,0.151795,-0.053489999999999996,0.047117,0.002209,-0.0070209999999999995
307,1.8960119999999998,-1.400418,1.9785720000000002,0.160665,0.9855209999999999,0.054174,0.013884,0.143309,-0.044015,0.036403,0.0016309999999999999,-0.001425
308,1.899587,-1.401093,1.980225,0.159839,0.985635,0.054533000000000005,-0.009994,0.065576,-0.031263,0.037472000000000005,0.002418,-0.012846000000000002
309,1.903561,-1.401342,1.983293,0.159391,0.985677,0.055088,-0.02828,0.048531,-0.015346,0.033602999999999994,0.00439,-0.014485
310,1.906466,-1.401081,1.985127,0.159473,0.985633,0.055636,-0.011262999999999999,0.060096000000000004,0.008259,0.008617,0.026025,0.0006389999999999999
311,1.9069009999999997,-1.4007209999999999,1.983988,0.15978499999999998,0.9855719999999999,0.055822000000000004,0.012270999999999999,0.083411,0.018007,-0.007609,0.021066,0.014246
312,1.903834,-1.400639,1.9793630000000002,0.16003299999999998,0.985558,0.055359000000000005,0.049592000000000004,0.072654,0.011873,-0.016081,0.017721999999999998,0.015212999999999999
313,1.8960549999999998,-1.401029,1.970003,0.160093,0.985624,0.053988999999999995,0.09767200000000001,0.072574,-0.004942,-0.024214,0.009890000000000001,0.008190000000000001
314,1.8855099999999998,-1.4018549999999999,1.9579490000000002,0.159878,0.985763,0.052046,0.11151199999999999,0.062951,-0.008038,-0.011059000000000001,0.00232,-0.00218
315,1.874968,-1.402591,1.9458790000000001,0.159724,0.9858870000000001,0.05014,0.104078,0.0768,-0.001698,-0.007564,-0.0014960000000000002,3.1e-05
316,1.868343,-1.403129,1.9375650000000002,0.15954300000000002,0.985977,0.048924,0.056036,0.06845,-0.003091,-0.006116,0.003907,0.016124
317,1.8670810000000002,-1.403261,1.9355349999999998,0.159479,0.985999,0.048684,0.006711,0.018532,0.0019690000000000003,0.001425,-0.0018679999999999999,0.028281
318,1.867261,-1.403186,1.935598,0.15954200000000002,0.985986,0.048735,-0.006178,0.004707,0.007238,0.009281000000000001,-0.002679,0.030413
319,1.868718,-1.402983,1.936718,0.159662,0.985952,0.049026,-0.009287,0.026019999999999998,0.008256999999999999,0.014273,0.007104999999999999,0.010697
320,1.8687200000000002,-1.402807,1.9362529999999998,0.159826,0.985923,0.049076999999999996,0.013040000000000001,0.01208,0.011636,0.004618,0.017159,0.003109
321,1.8658169999999998,-1.402679,1.933389,0.160089,0.9859020000000001,0.048649,0.028923,-0.011425,0.014981999999999999,-0.000726,0.016174,0.0035210000000000003
322,1.861177,-1.402587,1.928977,0.160401,0.985886,0.047932,0.038554000000000005,-0.010372,0.009706000000000001,-0.009003,0.011077,0.009807
323,1.858829,-1.402622,1.9268049999999999,0.16047899999999998,0.985892,0.047545,0.006548,-0.021931,-0.0022530000000000002,-0.007159,0.015740999999999998,0.007798
324,1.8567169999999997,-1.4027370000000001,1.925641,0.160471,0.9859110000000001,0.047174,0.01491,-0.059249,-0.001078,0.0041259999999999995,0.004522,0.01116
325,1.853666,-1.402767,1.923731,0.16058599999999998,0.985916,0.046676999999999996,0.021297,-0.056101,0.005372,0.012844999999999999,0.00235,0.012847999999999998
326,1.8475409999999999,-1.402851,1.9186919999999998,0.16079000000000002,0.98593,0.04567,0.056436,-0.065833,0.010971,0.002907,0.009415999999999999,0.004074
327,1.837609,-1.403101,1.9104150000000002,0.160996,0.985972,0.044005,0.07763400000000001,-0.10104400000000001,0.0068909999999999996,0.003127,0.007161,0.006868000000000001
328,1.827159,-1.403333,1.9018130000000002,0.161224,0.9860110000000001,0.042262,0.068071,-0.091427,0.00788,0.001023,0.005719,0.021138
329,1.8200040000000002,-1.403512,1.895939,0.161351,0.986041,0.041063999999999996,0.035195,-0.057185,-0.002007,-0.002797,0.009290000000000001,0.029249
330,1.8190240000000002,-1.403635,1.8960830000000002,0.161274,0.9860610000000001,0.040875999999999996,-0.013866999999999999,-0.060184,-0.008756,-0.006443000000000001,0.01223,0.034732
331,1.8205169999999997,-1.403683,1.898885,0.161168,0.9860690000000001,0.041105,-0.021359,-0.061239999999999996,-0.004534000000000001,-0.010228000000000001,0.007888,0.033541
332,1.820402,-1.403634,1.8995520000000001,0.16122,0.9860610000000001,0.041098,0.009734,-0.019833,0.0031079999999999997,-0.010204000000000001,0.008629000000000001,0.023492
333,1.816125,-1.4038629999999999,1.894869,0.161175,0.986099,0.040354,0.06653200000000001,0.027941000000000004,-0.005102000000000001,-0.013547,0.006638,0.013571000000000001
334,1.807743,-1.404514,1.885904,0.160885,0.986207,0.038851,0.087888,0.017273,-0.019895,-0.014828000000000001,0.005263,0.014387
335,1.8000939999999999,-1.405391,1.8779560000000002,0.16033699999999998,0.986352,0.037423000000000005,0.06653200000000001,0.00566,-0.027506,-0.012388,0.004829,0.015525
336,1.7967490000000002,-1.406065,1.8746909999999999,0.159815,0.9864629999999999,0.036738,0.019484,-0.013368000000000001,-0.023538,-0.007456,0.008075,0.015874
337,1.797378,-1.406463,1.8758709999999998,0.15941,0.9865280000000001,0.03675,-0.013704,-0.033513999999999995,-0.018403,-0.003068,0.007949,0.019982
338,1.7998619999999999,-1.406656,1.879182,0.159133,0.986559,0.037103,-0.02232,-0.043106,-0.009904999999999999,0.008088,0.013197,0.018438999999999997
339,1.801021,-1.406715,1.8811360000000001,0.15903299999999998,0.986569,0.037274,-0.008440999999999999,-0.033596,-0.002343,0.0063869999999999994,0.011768,0.013019
340,1.7997880000000002,-1.406662,1.880159,0.159131,0.98656,0.03709,0.018331,-0.000709,0.008485,-0.00015,0.008969,0.012943000000000001
341,1.795753,-1.406563,1.8759240000000001,0.159374,0.9865440000000001,0.036469999999999995,0.041807,0.006640000000000001,0.015047999999999999,-0.012722,0.0030039999999999997,0.007308
342,1.790087,-1.4064379999999999,1.870159,0.159699,0.986524,0.035593,0.047084,-0.00404,0.017235,-0.012574,0.003268,0.008017
343,1.784529,-1.406269,1.864834,0.16005899999999998,0.9864959999999999,0.03474,0.039529,-0.023188,0.017207,-0.0072569999999999996,0.005325,0.008442
344,1.7797509999999999,-1.406097,1.860642,0.160391,0.986468,0.034011,0.029875,-0.038056,0.013954,-0.006841,0.007840999999999999,0.008759000000000001
345,1.775409,-1.4059139999999999,1.8572810000000002,0.16071300000000002,0.9864379999999999,0.033351,0.024421,-0.061486,0.017151,-0.011253,0.009031,0.0055439999999999994
346,1.77115,-1.40564,1.854311,0.161118,0.9863930000000001,0.03272,0.02222,-0.070026,0.023556,-0.0036780000000000003,0.008404,0.006663
347,1.767137,-1.4052200000000001,1.8517740000000003,0.161655,0.986324,0.032154,0.013613,-0.08279199999999999,0.026717,-0.0020629999999999997,0.006306,0.005856
348,1.7638479999999999,-1.404664,1.85043,0.162294,0.986232,0.031726,0.001734,-0.10622100000000001,0.035209,0.009396999999999999,0.0057729999999999995,0.006344
349,1.761696,-1.403875,1.850384,0.163124,0.986101,0.031524,-0.008935,-0.097969,0.042608,0.009895000000000001,0.011351,0.011689
350,1.7591599999999998,-1.4029530000000001,1.85001,0.16409400000000002,0.9859469999999999,0.03128,0.000537,-0.120398,0.049112,0.00804,0.013763,0.0076760000000000005
351,1.753279,-1.402053,1.846789,0.16514700000000002,0.9857969999999999,0.030475,0.029242,-0.140748,0.051475,-0.003815,0.019437,0.014491999999999998
352,1.7451169999999998,-1.4011930000000001,1.841119,0.166225,0.9856520000000001,0.029274,0.045344999999999996,-0.120555,0.049426,-0.008876,0.012929,0.017846
353,1.7360470000000001,-1.400447,1.8341580000000002,0.167206,0.985526,0.027885000000000004,0.056104999999999995,-0.10671800000000001,0.043074,-0.010742,0.011056,0.020241
354,1.726488,-1.3998950000000001,1.826312,0.168,0.985432,0.026369999999999998,0.066932,-0.081151,0.033503,-0.009278,0.011455,0.022352
355,1.717839,-1.399541,1.8186959999999999,0.168568,0.9853719999999999,0.024967,0.060742,-0.043806,0.023797,-0.013249,0.009685,0.02702
356,1.711297,-1.3993360000000001,1.812856,0.16893,0.9853370000000001,0.023892,0.043701,-0.043720999999999996,0.017269,-0.007217,0.009184999999999999,0.025562
357,1.7058259999999998,-1.399142,1.8084310000000001,0.169247,0.9853040000000001,0.022993,0.033846,-0.057036,0.014241,-0.008159999999999999,0.006823,0.025942000000000003
358,1.7022130000000002,-1.399049,1.805771,0.16942000000000002,0.9852879999999999,0.022394,0.021115000000000002,-0.04844,0.006663,-0.012681999999999999,0.003619,0.029074000000000003
359,1.699366,-1.3990690000000001,1.803766,0.169464,0.985291,0.021909,0.015853,-0.039869,-0.0008619999999999999,-0.010483,0.00328,0.029956
360,1.6971029999999998,-1.399243,1.802289,0.169345,0.9853209999999999,0.021504,0.016929,-0.044108,-0.007258,-0.00542,0.011002,0.023615999999999998
361,1.6946139999999998,-1.3995030000000002,1.8008490000000001,0.16914500000000002,0.9853649999999999,0.021051,0.017934000000000002,-0.061144000000000004,-0.010434,-0.001923,0.010393000000000001,0.008994
362,1.691874,-1.399764,1.7994310000000002,0.168946,0.98541,0.020556,0.018953,-0.0718,-0.010414,0.002456,0.007129000000000001,0.012693000000000001
363,1.6884599999999998,-1.4000190000000001,1.79768,0.168767,0.985453,0.01995,0.01779,-0.092041,-0.009328,0.000926,0.004582999999999999,0.011651
364,1.6850889999999998,-1.40024,1.7963689999999999,0.168614,0.985491,0.019356,0.010236,-0.11225,-0.010423,-0.009038,0.006972,0.014549000000000001
365,1.6832369999999999,-1.400477,1.796816,0.168416,0.9855309999999999,0.019017,-0.007891,-0.113239,-0.013753,-0.015324,0.013661000000000001,0.03123
366,1.683246,-1.400727,1.7993990000000002,0.16817000000000001,0.9855729999999999,0.018991,-0.026683,-0.145717,-0.015806999999999998,-0.010715,0.015037,0.020743
367,1.6834779999999998,-1.400867,1.803939,0.16802899999999998,0.985597,0.019014,-0.037879,-0.25649299999999997,-0.009334,-0.001053,0.013578999999999999,-3.2e-05
368,1.680561,-1.4010209999999998,1.807232,0.167932,0.9856229999999999,0.018507,-0.010452,-0.325832,-0.009053,0.020255000000000002,0.004779,0.009004
369,1.6740709999999999,-1.40119,1.8067549999999999,0.167882,0.985651,0.0174,0.011106,-0.272661,-0.004698,0.011943,0.005483,0.005946
370,1.6695080000000002,-1.401302,1.806141,0.16785,0.98567,0.016623,0.006313,-0.150145,-0.002752,-0.004154,0.0038929999999999998,-0.005957
371,1.667534,-1.40123,1.80581,0.167952,0.985658,0.016298,0.001353,-0.052182000000000006,0.012043,-0.02101,0.011351,-0.006151
372,1.6675529999999998,-1.4007319999999999,1.8072009999999998,0.168439,0.985574,0.016349000000000002,-0.025596999999999998,-0.096898,0.029002999999999998,-0.019528,0.014228,0.008477
373,1.66913,-1.400002,1.811934,0.169127,0.98545,0.016685,-0.047327,-0.18523599999999998,0.027897,-0.004714,0.002297,0.010689
374,1.668418,-1.399609,1.8154310000000002,0.16952899999999999,0.985383,0.016602000000000002,-0.018527000000000002,-0.204439,0.009963,-0.0031620000000000003,7.5e-05,0.004668
375,1.6646,-1.39975,1.8148689999999998,0.169452,0.9854069999999999,0.015941999999999998,0.017083,-0.1363,-0.01124,-0.008334999999999999,0.011633,-0.007351000000000001
376,1.659988,-1.400032,1.812693,0.169246,0.985455,0.015135,0.017092,-0.127803,-0.004842,0.0027670000000000004,0.021915,0.005983
377,1.656828,-1.400002,1.8123669999999998,0.169322,0.98545,0.014603,-0.003293,-0.140567,0.007851,-0.004344,0.007821,0.020034
378,1.654954,-1.399769,1.8129259999999998,0.169576,0.98541,0.014305000000000002,-0.002097,-0.10756500000000001,0.01209,-0.004674,0.004855,0.022743
379,1.652875,-1.399581,1.812709,0.16979,0.9853780000000001,0.013966999999999999,0.001204,-0.088388,0.008884,-0.00472,0.006458,0.036463
380,1.6515419999999998,-1.3994540000000002,1.813003,0.169934,0.9853569999999999,0.013751,-0.006197,-0.07663099999999999,0.005612,-0.004193,0.005869,0.048596
381,1.651574,-1.399348,1.814675,0.17003800000000002,0.985339,0.013765000000000001,-0.015842,-0.08830700000000001,0.003423,-0.010721,0.004621,0.037382
382,1.651384,-1.399266,1.8167740000000001,0.170119,0.985325,0.013739,-0.014922999999999999,-0.123456,0.001338,-0.011153,0.008938,0.016732
383,1.650885,-1.399265,1.8186919999999998,0.170125,0.985325,0.013654,-0.008479,-0.114952,0.000304,-0.004796,0.010388,0.004443
384,1.650122,-1.3992200000000001,1.81987,0.170178,0.985317,0.013528,-0.008374,-0.08833300000000001,0.003476,-0.006833,0.012745000000000001,0.010337
385,1.650816,-1.3991040000000001,1.8222060000000002,0.170284,0.985297,0.013655,-0.022219,-0.07871399999999999,0.007639,-0.001446,0.016350999999999997,0.016434999999999998
386,1.652972,-1.3988690000000001,1.825982,0.170486,0.9852569999999999,0.014041,-0.033977999999999994,-0.07763400000000001,0.013965,0.005418,0.016605,0.019436000000000002
387,1.6563560000000002,-1.398434,1.8305759999999998,0.17086600000000002,0.985182,0.014655000000000001,-0.040244999999999996,-0.040357,0.021351,-0.000258,0.013521,0.014398
388,1.659196,-1.397968,1.833881,0.171282,0.985102,0.015181,-0.021988999999999998,-0.01485,0.020378,-0.007205,0.017385,0.005785
389,1.6593369999999998,-1.397674,1.8342580000000002,0.171568,0.985052,0.015231,0.007946,-0.011715999999999999,0.009901,-0.011656,0.005961,0.005964
390,1.657568,-1.397525,1.832685,0.171742,0.9850260000000001,0.01494,0.018638,-0.009609999999999999,0.006768000000000001,-0.016133,-0.004924,0.017943
391,1.654945,-1.3975030000000002,1.830187,0.171802,0.985022,0.014491,0.025078,-0.007476000000000001,0.000401,-0.012531,0.006998000000000001,0.030858
392,1.6516240000000002,-1.397624,1.8270669999999998,0.171732,0.985043,0.013911000000000001,0.030388,-0.017065,-0.0038229999999999996,-0.008555,0.012806,0.023641
393,1.6477400000000002,-1.397835,1.823706,0.171577,0.985079,0.013228,0.031398,-0.033035,-0.007,-0.009223,0.017438,0.014284
394,1.6442869999999998,-1.397991,1.820811,0.17147,0.9851059999999999,0.012624,0.023939,-0.027694999999999997,-0.003854,-0.0008460000000000001,0.0067,0.012736
395,1.642791,-1.398052,1.819594,0.171429,0.985117,0.012362999999999999,0.0037649999999999997,-0.003136,-0.000822,-0.001217,0.0026609999999999997,0.013744
396,1.6439720000000002,-1.398058,1.8204310000000001,0.171408,0.985118,0.012565,-0.006794,0.024585,0.002274,0.001276,0.001287,0.019356
397,1.6457380000000001,-1.398037,1.821577,0.171407,0.9851139999999999,0.01287,-0.0056689999999999996,0.035243000000000003,0.000131,-0.009389,0.006677,0.010003
398,1.646924,-1.398082,1.8218189999999999,0.171348,0.9851219999999999,0.013069999999999998,0.0018850000000000002,0.050147000000000004,-0.004108,-0.012504000000000001,0.008546,0.003074
399,1.6470619999999998,-1.398199,1.821264,0.171231,0.985142,0.013085,0.008161,0.020306,-0.006162,-0.008619,0.012478,0.001091
400,1.646827,-1.3983139999999998,1.82073,0.171124,0.9851620000000001,0.013036,0.0049369999999999995,0.016052,-0.005111,-0.011197,0.006293,0.0038399999999999997
401,1.64723,-1.3984590000000001,1.820616,0.170977,0.985187,0.013094,0.0007509999999999999,0.032054,-0.007297,-0.009936,0.009412,0.011290000000000001
402,1.6476169999999999,-1.3987120000000002,1.8201720000000001,0.170725,0.9852299999999999,0.013141,0.008286,0.042698,-0.011531,-0.006418999999999999,0.011764,0.016583
403,1.647086,-1.398965,1.8187400000000002,0.170483,0.985273,0.013031000000000001,0.015754,0.044794,-0.009345000000000001,-0.007123,0.008043000000000002,0.012115
404,1.646068,-1.399206,1.816789,0.170261,0.9853139999999999,0.01284,0.020017,0.043713999999999996,-0.009314,-0.004627,0.011863,0.011147
405,1.64438,-1.399414,1.8143639999999999,0.170078,0.98535,0.012537999999999999,0.02316,0.03198,-0.008209000000000001,5.6999999999999996e-05,0.011873,0.009939
406,1.6430200000000001,-1.399628,1.8123630000000002,0.16988599999999998,0.9853860000000001,0.012291,0.015677,0.026688999999999997,-0.010391,-0.000727,0.004146,0.010765
407,1.642786,-1.399837,1.811453,0.169683,0.9854219999999999,0.012236,0.006128,0.040562,-0.008339,-0.003575,0.006186,0.012666
408,1.6443459999999999,-1.399901,1.811977,0.169601,0.985433,0.012497,-0.007712,0.054429,-0.000976,-0.000198,0.005259000000000001,0.010102
409,1.646625,-1.399872,1.8131709999999999,0.1696,0.9854280000000001,0.012884999999999999,-0.008787999999999999,0.055485,0.0022199999999999998,0.003435,0.004761,0.004281
410,1.648653,-1.399769,1.814143,0.169675,0.98541,0.013237,-0.0056170000000000005,0.053327,0.006518,-0.00047000000000000004,0.007128,0.001289
411,1.6503029999999999,-1.3996030000000002,1.8145799999999999,0.169816,0.985382,0.01353,-0.001301,0.067147,0.009734999999999999,-0.003846,0.014068,-0.001811
412,1.651588,-1.399422,1.8143619999999998,0.169977,0.985351,0.013763,0.005157,0.078847,0.008697,-0.010048999999999999,0.014663999999999998,0.0041659999999999996
413,1.6521299999999999,-1.399334,1.813305,0.17005699999999999,0.9853360000000001,0.013862000000000001,0.01264,0.075651,0.002344,-0.008085,0.014084000000000001,0.008477
414,1.6517990000000002,-1.399349,1.8116439999999998,0.170047,0.985339,0.013805000000000001,0.013649000000000001,0.060742,0.000234,-0.006945999999999999,0.008268000000000001,0.016408000000000002
415,1.651762,-1.39944,1.810325,0.16996,0.9853540000000001,0.013791,0.010497,0.067162,-0.004070000000000001,-0.005043,0.008176000000000001,0.014056
416,1.652291,-1.3995469999999999,1.8094119999999998,0.169849,0.9853729999999999,0.013872,0.008137,0.071404,-0.002964,-0.0027949999999999997,0.006403,0.007536
417,1.653184,-1.3996520000000001,1.808903,0.169733,0.98539,0.014015999999999999,0.0038689999999999996,0.07141900000000001,-0.002994,9.8e-05,0.006690000000000001,0.002876
418,1.654995,-1.3996879999999998,1.8091509999999997,0.169672,0.985397,0.01432,-0.004637,0.081024,0.000139,0.001348,0.00734,0.004357
419,1.6579669999999997,-1.399624,1.8104360000000002,0.169691,0.9853860000000001,0.014830000000000001,-0.009962,0.087417,0.004367,0.00045999999999999996,0.007259000000000001,0.016024
420,1.6608020000000001,-1.399513,1.811489,0.169757,0.985367,0.015319999999999999,-0.007818,0.08954,0.004379,-0.002444,0.004471,0.014907
421,1.663029,-1.3994389999999999,1.812023,0.169797,0.9853540000000001,0.015705,-0.001446,0.082065,0.003365,-0.00282,0.008924,0.021755
422,1.6640549999999998,-1.399398,1.811534,0.169819,0.985347,0.015883,0.007051000000000001,0.071391,0.001301,-0.006016,0.009053,0.025987
423,1.6637099999999998,-1.399449,1.809955,0.169775,0.9853559999999999,0.015819999999999997,0.018729,0.054323,-0.002868,-0.0035909999999999996,0.007427,0.026507999999999997
424,1.662327,-1.399526,1.807536,0.169721,0.985369,0.015578,0.021891,0.047911,-0.000701,-0.000837,0.009106999999999999,0.027406
425,1.6610060000000002,-1.399581,1.8053299999999999,0.169688,0.9853780000000001,0.015349000000000002,0.019704,0.037262,0.000365,-0.004647999999999999,0.010227,0.027971
426,1.6601549999999998,-1.3996030000000002,1.8038419999999997,0.169677,0.985382,0.015203,0.013246,0.025562,0.001403,-0.005447,0.005065999999999999,0.024455
427,1.659577,-1.39962,1.802921,0.16967000000000002,0.9853850000000001,0.015103,0.008919,0.013124,0.00028199999999999997,-0.0011970000000000001,0.008222,0.011432
428,1.660496,-1.3996309999999998,1.8032110000000001,0.16964500000000002,0.9853870000000001,0.015258,-0.001582,0.049384,-0.000906,-0.004164,0.009837,0.003007
429,1.663327,-1.399625,1.804142,0.169606,0.9853860000000001,0.015739,-0.0098,0.120782,1.4000000000000001e-05,-0.011418000000000001,0.008495,0.004815
430,1.6671779999999998,-1.3995600000000001,1.8054560000000002,0.169606,0.985375,0.016398,-0.005538,0.123946,0.004312,-0.0118,0.009162,0.009405
431,1.669489,-1.399464,1.8054759999999999,0.16965999999999998,0.985359,0.016799,0.0039829999999999996,0.107925,0.006536,-0.007368,0.010171,0.019731
432,1.670395,-1.3993790000000002,1.804318,0.169727,0.985344,0.016961,0.015688999999999998,0.099371,0.004492,-0.007281,0.014412000000000001,0.016028999999999998
433,1.669043,-1.399437,1.800888,0.16969,0.9853540000000001,0.016725,0.037075,0.103583,-0.001773,-0.009687000000000001,0.015409,0.016416999999999998
434,1.6661860000000002,-1.399653,1.795983,0.169524,0.985391,0.01622,0.045585,0.092922,-0.0070409999999999995,-0.013013999999999998,0.010245,0.020309999999999998
435,1.662396,-1.399886,1.7905830000000003,0.16935699999999998,0.9854299999999999,0.015557,0.048681,0.068414,-0.008057,-0.011595999999999999,0.011091,0.019371
436,1.6582759999999999,-1.4001780000000001,1.7851580000000002,0.16913399999999998,0.9854799999999999,0.014834,0.048471,0.060569000000000005,-0.009217,-0.00411,0.008157,0.022016
437,1.654709,-1.4004370000000002,1.7801770000000001,0.168932,0.985524,0.014209000000000001,0.039975,0.071243,-0.007154000000000001,-0.0034659999999999995,0.007045,0.018628
438,1.652896,-1.400606,1.7768599999999999,0.168794,0.985553,0.013888999999999999,0.022876,0.070216,-0.0019309999999999998,-0.005418,0.003812,0.011959000000000001
439,1.6528470000000002,-1.400664,1.7756049999999999,0.168738,0.985562,0.013876,0.007844,0.048963,-0.002009,-0.007392,0.007326999999999999,0.009378000000000001
440,1.6528650000000003,-1.400708,1.774857,0.168695,0.9855700000000001,0.013876,0.007776999999999999,0.034049,-0.00199,-0.008690999999999999,0.004054,0.010844
441,1.653152,-1.400752,1.7744330000000001,0.168647,0.985577,0.013921000000000001,0.002462,0.038329,-0.0020329999999999997,-0.009132,0.005603,0.012416
442,1.654691,-1.400796,1.775,0.16858199999999998,0.985585,0.014176,-0.0059960000000000005,0.055402999999999994,-0.002113,-0.005603,0.010967,0.016952000000000002
443,1.6565880000000002,-1.4008209999999999,1.7757759999999998,0.168533,0.9855889999999999,0.014494,-0.00601,0.053267999999999996,-0.0010429999999999999,-0.00331,0.009696,0.017961
444,1.658571,-1.4008040000000002,1.7768130000000002,0.168519,0.9855860000000001,0.014830000000000001,-0.010528000000000001,0.042242,0.0021079999999999996,-0.003999,0.008509000000000001,0.020891
445,1.660412,-1.400806,1.7778939999999999,0.16849,0.9855860000000001,0.01514,-0.004136,0.037967,2.1e-05,-0.005037,0.01005,0.009640000000000001
446,1.661266,-1.400819,1.77795,0.168464,0.9855889999999999,0.015283000000000001,0.0012029999999999999,0.040074,0.001124,-0.008520999999999999,0.008018,0.003928
447,1.661386,-1.400791,1.777439,0.168489,0.985584,0.015305000000000001,0.007528,0.023008,0.00119,-0.009233,0.010052,0.002273
448,1.660868,-1.4008129999999999,1.7765259999999998,0.168477,0.9855879999999999,0.015216,0.011781,0.018736000000000003,0.000157,-0.012623,0.010262,0.012753
449,1.6600259999999998,-1.4008530000000001,1.77532,0.168451,0.9855940000000001,0.015071000000000001,0.010709,0.016614,-0.000916,-0.009942,0.008027,0.019124000000000002
450,1.6594389999999999,-1.400924,1.7743959999999999,0.168388,0.985606,0.014966,0.006451,0.016637,-0.003082,-0.008308,0.007741,0.015384
451,1.659462,-1.401039,1.774157,0.168275,0.985626,0.014959,0.0009460000000000001,0.011023,-0.0052840000000000005,-0.006562999999999999,0.007447,0.011103
452,1.6601849999999998,-1.401122,1.7746419999999998,0.168183,0.98564,0.015074,-0.004384000000000001,0.01529,-0.002123,-0.004258,0.006242,0.015519999999999999
453,1.661941,-1.401142,1.775945,0.16813699999999998,0.985643,0.015366999999999999,-0.011812999999999999,0.025960000000000004,-5.2000000000000004e-05,-0.003053,0.0075060000000000005,0.016066
454,1.664002,-1.4011,1.7774900000000002,0.168147,0.9856360000000001,0.015718,-0.011818,0.027016000000000002,0.0020829999999999998,-0.005717,0.009023,0.018065
455,1.665798,-1.401078,1.77883,0.16814,0.985632,0.016022,-0.009718000000000001,0.018491,0.001041,-0.00867,0.011545,0.014419999999999999
456,1.6669939999999999,-1.4010559999999999,1.779768,0.168141,0.9856290000000001,0.016225,-0.004427,0.007824,2.3e-05,-0.006520000000000001,0.009916,0.009593
457,1.6676009999999999,-1.401083,1.780361,0.168107,0.985633,0.016325,-0.0023309999999999997,-0.001766,-0.001018,-0.0063479999999999995,0.011468,0.009524
458,1.668191,-1.401108,1.780918,0.168073,0.9856370000000001,0.016421,-0.0033840000000000003,0.002494,3.7e-05,-0.006756999999999999,0.006291,0.01608
459,1.668714,-1.4011049999999998,1.781353,0.168068,0.9856370000000001,0.01651,-0.004431,0.006759,2.5e-05,-0.007972,0.0072829999999999995,0.020172
460,1.6697099999999998,-1.401065,1.782143,0.16808900000000002,0.9856299999999999,0.016681,-0.005658,0.012245,0.002118,-0.006529000000000001,0.008877,0.01814
461,1.6705150000000002,-1.40103,1.782719,0.16811099999999998,0.985624,0.016819999999999998,-0.003539,0.010103000000000001,0.003204,-0.009816,0.011766,0.015681999999999998
462,1.6714200000000001,-1.400967,1.7834310000000002,0.168157,0.985614,0.016978,-0.004601,0.010111,0.002128,-0.010075,0.010709,0.010351
463,1.6725889999999999,-1.400929,1.7843099999999998,0.168173,0.985607,0.017178,-0.006701,0.017575,0.002104,-0.007513,0.011021,0.011524
464,1.6740849999999998,-1.4009049999999998,1.7854709999999998,0.16817100000000001,0.9856030000000001,0.017432,-0.009906,0.01546,0.001016,-0.007908,0.006768000000000001,0.012597
465,1.675477,-1.4008690000000001,1.7866509999999998,0.16818,0.985597,0.017669999999999998,-0.0078060000000000004,0.009056999999999999,0.002107,-0.006361,0.008131999999999999,0.017943999999999998
466,1.6764419999999998,-1.4008610000000001,1.7874330000000003,0.16817100000000001,0.9855959999999999,0.017833,-0.005653,0.011188,-1.7e-05,-0.004413,0.013229,0.013432
467,1.6771479999999999,-1.400888,1.7878049999999999,0.168131,0.9856,0.017949,0.000791,0.018631,-0.002118,-0.006739,0.013819999999999999,0.011287
468,1.677778,-1.4009459999999998,1.7879779999999998,0.16806300000000002,0.98561,0.018049000000000003,-0.0016120000000000002,0.024547,-0.0010890000000000001,-0.010501,0.007111,0.010485
469,1.6791169999999997,-1.400929,1.78898,0.16805599999999998,0.985607,0.018275,-0.011271,0.012858000000000001,-7.3e-05,-0.007548999999999999,0.007542,0.014469999999999998
470,1.6815380000000002,-1.4008909999999999,1.7912299999999999,0.168049,0.9856010000000001,0.018686,-0.020883000000000002,0.010761,-0.00013700000000000002,-0.001865,0.0031079999999999997,0.016836
471,1.6848560000000001,-1.4008200000000002,1.7942669999999998,0.16805499999999998,0.9855889999999999,0.019252000000000002,-0.026188,0.019293,0.0019510000000000003,-0.0035960000000000002,0.006324000000000001,0.016118
472,1.6878220000000002,-1.400715,1.7968830000000002,0.168099,0.9855709999999999,0.019762000000000002,-0.019806,0.017131999999999998,0.004135,-0.0078060000000000004,0.012033,0.006895
473,1.690125,-1.400606,1.798993,0.16816,0.9855520000000001,0.020162,-0.015587,0.007525,0.0052450000000000005,-0.009422,0.012662,0.008906
474,1.6918520000000001,-1.400491,1.800588,0.168237,0.985533,0.020465999999999998,-0.012386,0.007514,0.005267,-0.005257,0.008699,0.015133
475,1.693193,-1.4003809999999999,1.801736,0.16831500000000002,0.9855139999999999,0.020705,-0.008471,0.013276,0.005314,-0.007518,0.009038,0.019212
476,1.6945729999999999,-1.40031,1.802798,0.168355,0.985502,0.020945,-0.009523,0.015413999999999999,0.004236,-0.008870000000000001,0.008104,0.021077000000000002
477,1.695544,-1.4002569999999999,1.8035459999999999,0.16838699999999998,0.9854930000000001,0.021116,-0.00527,0.010081999999999999,0.002136,-0.004477,0.011318,0.021594
478,1.696363,-1.400205,1.8042770000000001,0.168419,0.985485,0.02126,-0.005308,0.001559,0.002146,-0.006889,0.007481,0.014278
479,1.697064,-1.4001270000000001,1.8050259999999998,0.168481,0.9854709999999999,0.021387,-0.006404000000000001,-0.002706,0.004281,-0.0056229999999999995,0.0064719999999999995,0.01563
480,1.698662,-1.4,1.806548,0.168569,0.98545,0.021672,-0.012762,0.007964,0.005291,-0.001119,0.004632,0.015635
481,1.700794,-1.399877,1.808501,0.16864200000000001,0.9854290000000001,0.022047999999999998,-0.019139,0.012251999999999999,0.0041719999999999995,-0.000414,0.005431,0.016313
482,1.7038779999999998,-1.399758,1.811373,0.16869,0.985409,0.022583000000000002,-0.027674,0.011221,0.003046,-0.002445,0.0052840000000000005,0.018311
483,1.707709,-1.399632,1.815177,0.168725,0.9853870000000001,0.023246,-0.034394,-0.0008439999999999999,0.001971,-0.0037310000000000004,0.00793,0.018685
484,1.71135,-1.399494,1.8190259999999998,0.168774,0.9853639999999999,0.023879,-0.031236,-0.010443000000000001,0.0020050000000000003,0.00124,0.011432,0.01172
485,1.7143950000000001,-1.399363,1.822311,0.168827,0.985341,0.024411000000000002,-0.025901999999999998,-0.0094,0.0031100000000000004,0.0033689999999999996,0.012232999999999999,0.009585
486,1.7170990000000002,-1.399241,1.825147,0.168879,0.9853200000000001,0.024885,-0.019458,-0.0008960000000000001,0.002075,-0.001292,0.01059,0.0038469999999999997
487,1.7191310000000002,-1.399129,1.827125,0.16893699999999998,0.985301,0.025245,-0.015165999999999999,0.005476,0.003165,5.5e-05,0.009343,0.011972
488,1.720963,-1.399031,1.828876,0.168985,0.9852850000000001,0.025568,-0.014094999999999998,0.005477,0.002105,-0.003244,0.010320999999999999,0.019566999999999998
489,1.722862,-1.398971,1.83075,0.168995,0.985274,0.025898,-0.015175999999999999,0.00016299999999999998,-3.2e-05,-0.006732999999999999,0.010636,0.022487
490,1.7240790000000001,-1.398959,1.8321209999999999,0.168975,0.9852719999999999,0.026106,-0.006679000000000001,-0.011572,-0.003163,-0.009581000000000001,0.011706999999999999,0.010759999999999999
491,1.723975,-1.399035,1.832341,0.168903,0.9852850000000001,0.026077,0.003855,-0.015895,-0.004136,-0.009205,0.012151,0.008378
492,1.7225810000000001,-1.399173,1.8311279999999999,0.16880499999999998,0.985309,0.025820999999999997,0.015648,-0.005275,-0.006203,-0.010968,0.009778,0.00755
493,1.7210150000000002,-1.3993790000000002,1.8297130000000001,0.16864400000000002,0.985344,0.025526,0.012428,-0.011647,-0.008354,-0.01012,0.006218,0.019533000000000002
494,1.7208279999999998,-1.399551,1.8297970000000001,0.168481,0.9853729999999999,0.025469,-0.003585,-0.01266,-0.007396,-0.006706999999999999,0.009164,0.026639999999999997
495,1.7222279999999999,-1.399649,1.831407,0.16835,0.98539,0.025689999999999998,-0.016363,-0.006228,-0.006426,-0.008071,0.010368,0.021994
496,1.7247759999999999,-1.399718,1.8339860000000001,0.168217,0.985402,0.026108999999999997,-0.021669,0.003365,-0.0032700000000000003,-0.010502,0.00851,0.012786
497,1.7270720000000002,-1.3997600000000001,1.836254,0.16811600000000002,0.985409,0.026488,-0.0142,0.002278,-0.004285,-0.004954,0.013340000000000001,0.014786
498,1.7283810000000002,-1.399844,1.8376740000000003,0.167999,0.9854229999999999,0.026695999999999998,-0.008905,-0.008385,-0.006371,-0.002274,0.012135,0.016212
499,1.729741,-1.399977,1.839284,0.167831,0.9854459999999999,0.026902999999999996,-0.012124,-0.012402,-0.007456,-0.011276000000000001,0.0064670000000000005,0.018141
500,1.731598,-1.4000629999999998,1.8414270000000001,0.167697,0.98546,0.027201,-0.018535,-0.012388,-0.005365,-0.011051,0.0065439999999999995,0.021138999999999998
501,1.733756,-1.4001190000000001,1.843812,0.16758299999999998,0.9854700000000001,0.027554000000000002,-0.017449,-0.008131000000000001,-0.005363000000000001,-0.007961,0.008137,0.018284
502,1.735568,-1.400213,1.8457880000000002,0.167443,0.9854860000000001,0.027842000000000002,-0.011043,-0.008149,-0.006386,-0.007515000000000001,0.009891,0.004628
503,1.736606,-1.400301,1.847048,0.167327,0.9855010000000001,0.028000999999999998,-0.006804000000000001,-0.012434,-0.004215,-0.007170999999999999,0.008440999999999999,0.004469
504,1.7378650000000002,-1.400303,1.848695,0.167291,0.9855010000000001,0.028212,-0.016468,-0.023065000000000002,-0.001064,-0.00329,0.009601,0.009323999999999999
505,1.740207,-1.400223,1.851588,0.167302,0.9854879999999999,0.028617,-0.029289999999999997,-0.024099000000000002,0.002053,-0.002858,0.008302,0.021203
506,1.743191,-1.40008,1.8550119999999999,0.167353,0.9854629999999999,0.02914,-0.030327999999999997,-0.016641999999999997,0.003104,-0.007456,0.006693999999999999,0.018086
507,1.7456369999999999,-1.3999700000000002,1.857752,0.167388,0.9854450000000001,0.029568,-0.019487,-0.012029,0.0020829999999999998,-0.0092,0.010008,0.008655
508,1.747316,-1.399909,1.859806,0.16739600000000002,0.985434,0.029858999999999997,-0.017378,-0.019485,-2.8999999999999997e-05,-0.008612999999999999,0.010034,0.008059
509,1.749089,-1.399864,1.8620560000000002,0.16738699999999998,0.985427,0.030164,-0.018453999999999998,-0.022672,-0.001101,-0.003675,0.008394,0.010333
510,1.7511240000000001,-1.399835,1.864657,0.167354,0.9854219999999999,0.030510000000000002,-0.021683,-0.030114,-0.002182,-0.0034130000000000002,0.004691,0.013909
511,1.7531419999999998,-1.399779,1.8675130000000002,0.167347,0.9854120000000001,0.030858,-0.023899,-0.047155,-0.0011070000000000001,-0.005985,0.005753,0.018947
512,1.755141,-1.399672,1.870556,0.167388,0.9853940000000001,0.031211000000000003,-0.028189999999999996,-0.049283,0.00207,-0.0073230000000000005,0.009021,0.02166
513,1.7574319999999999,-1.399517,1.873825,0.167467,0.985368,0.031623000000000005,-0.02818,-0.046092,0.003134,-0.009309,0.010298999999999999,0.013741
514,1.759353,-1.3994,1.876653,0.167519,0.985348,0.031967,-0.021759999999999998,-0.043975,0.0010400000000000001,-0.008843,0.012669,0.008149
515,1.7605330000000001,-1.3993229999999999,1.878841,0.16755599999999998,0.985334,0.032179,-0.018593000000000002,-0.051442999999999996,0.001072,-0.007476000000000001,0.008043000000000002,0.011523
516,1.761452,-1.399277,1.8808790000000002,0.167571,0.9853270000000001,0.032341,-0.016224000000000002,-0.056209,0.002107,-0.006362,0.006144,0.020363
517,1.7622810000000002,-1.399214,1.882911,0.167606,0.985316,0.032492,-0.017305,-0.059401,0.0021030000000000003,-0.007145,0.00591,0.02308
518,1.763195,-1.3991069999999999,1.884938,0.167681,0.985298,0.032666,-0.018338999999999998,-0.050879,0.003153,-0.009555,0.007821,0.017719
519,1.7643060000000002,-1.398986,1.8870310000000001,0.167764,0.9852770000000001,0.032875,-0.017256999999999998,-0.047687,0.003157,-0.008508,0.008116,0.014274
520,1.76515,-1.398892,1.888818,0.167827,0.985261,0.033035,-0.012971000000000002,-0.044502,0.002114,-0.007854,0.008758,0.009659000000000001
521,1.7658310000000002,-1.3988450000000001,1.890354,0.16785,0.985253,0.033158,-0.009746,-0.040248,0.0010630000000000001,-0.0054659999999999995,0.0067209999999999995,0.017363999999999997
522,1.766614,-1.398734,1.8918400000000002,0.167932,0.985234,0.033311,-0.013975,-0.028527999999999998,0.004222999999999999,-0.006371,0.008907,0.021238999999999997
523,1.7681330000000002,-1.398601,1.893761,0.168009,0.9852110000000001,0.033592000000000004,-0.019237999999999998,-0.013590999999999999,0.0030989999999999998,-0.01208,0.008426000000000001,0.023263
524,1.7701369999999998,-1.398458,1.896047,0.168081,0.985186,0.033956,-0.019969,-0.013878,0.005178,-0.011495,0.007871,0.017953999999999998
525,1.7718509999999998,-1.3983299999999999,1.8981139999999999,0.168146,0.9851639999999999,0.03427,-0.016769,-0.017072999999999998,0.002,-0.010598999999999999,0.009281000000000001,0.019228
526,1.773368,-1.398289,1.899948,0.168132,0.985157,0.034532,-0.011396,-0.011752,-0.001174,-0.007503,0.007076000000000001,0.020781
527,1.7738630000000002,-1.3982729999999999,1.900752,0.16813,0.9851549999999999,0.034619,-0.003966,-0.019239,-4.4e-05,-0.005104999999999999,0.010283,0.024738
528,1.773734,-1.398208,1.9011060000000002,0.168197,0.985144,0.03461,-0.002948,-0.025651999999999998,0.0042439999999999995,-0.0017239999999999998,0.012262,0.021664
529,1.77407,-1.398083,1.901847,0.16830499999999998,0.9851219999999999,0.034691,-0.0061,-0.012865999999999999,0.006342,-0.00914,0.009537,0.019691
530,1.7747669999999998,-1.397995,1.9025169999999998,0.16836600000000002,0.985107,0.034825999999999996,-0.002794,0.007376000000000001,0.003135,-0.013092,0.008270999999999999,0.015925
531,1.7746330000000001,-1.397958,1.9022279999999998,0.168405,0.985101,0.034811,0.004674,0.005228,0.001053,-0.012979,0.009025,0.013406999999999999
532,1.774584,-1.39795,1.902194,0.168415,0.985099,0.034804,0.000683,-0.005501,-3e-06,-0.0023539999999999998,0.004815,0.013353
533,1.774571,-1.397899,1.902348,0.168464,0.9850899999999999,0.034812,-0.002561,-0.009773,0.005321,-0.003974,0.010011,0.016763
534,1.7748110000000001,-1.397743,1.9027319999999999,0.168605,0.9850639999999999,0.034883,-0.005757,-0.004452,0.009564,-0.007076000000000001,0.008375,0.014066999999999998
535,1.77551,-1.397602,1.90343,0.168717,0.9850389999999999,0.035029000000000005,-0.0057090000000000005,0.003018,0.006351,-0.009613,0.009742,0.010533
536,1.775725,-1.397511,1.9035400000000002,0.168796,0.985024,0.035084,0.0028640000000000002,0.008327,0.003199,-0.006,0.010841,0.014491999999999998
537,1.7749099999999998,-1.397465,1.9025740000000002,0.16886900000000002,0.985016,0.034955,0.010308,0.004035,0.004325,-0.0056,0.012268000000000001,0.016482
538,1.774086,-1.397398,1.901687,0.168963,0.9850040000000001,0.03483,0.007079,-0.000223,0.006444,-0.01401,0.011517,0.01911
539,1.7736290000000001,-1.3973010000000001,1.901185,0.169073,0.9849870000000001,0.034772000000000004,0.001083,0.0020350000000000004,0.00645,-0.013769,0.009656999999999999,0.024509
540,1.773434,-1.397206,1.900884,0.169172,0.9849709999999999,0.034758,0.003246,0.005236,0.003257,-0.013624,0.008254000000000001,0.022173
541,1.773021,-1.397195,1.900341,0.16919700000000001,0.9849690000000001,0.03469,0.007513,0.0041600000000000005,0.0022199999999999998,-0.009529000000000001,0.007370999999999999,0.012536
542,1.7724080000000002,-1.397209,1.899661,0.169205,0.9849709999999999,0.034584,0.006451,0.003107,7.7e-05,-0.009094,0.007581999999999999,0.014747999999999999
543,1.772088,-1.397194,1.899297,0.16923,0.9849690000000001,0.034532,0.001093,0.000982,0.003247,-0.006312,0.009065,0.015486000000000002
544,1.7727220000000001,-1.397078,1.899878,0.169319,0.984949,0.034662,-0.006379999999999999,0.004187,0.007464,-0.006187,0.008276,0.01795
545,1.773853,-1.396916,1.900832,0.169436,0.9849209999999999,0.034886,-0.008471,0.012721,0.006370000000000001,-0.007723000000000001,0.010395,0.015880000000000002
546,1.774709,-1.3968,1.9014360000000001,0.169518,0.984901,0.035054,-0.004194,0.012715,0.004263,-0.007576,0.010491,0.014842
547,1.774964,-1.396757,1.9014810000000002,0.16955,0.984893,0.035106,0.002207,0.009509,0.001108,-0.005899000000000001,0.009705,0.01238
548,1.774446,-1.3967479999999999,1.900893,0.169577,0.984892,0.035019999999999996,0.006915,-0.000686,0.0033179999999999998,-0.0049960000000000004,0.012056,0.015853
549,1.773573,-1.396698,1.900092,0.169655,0.984883,0.034881,0.006876,-0.008147,0.0043950000000000005,-0.004631000000000001,0.006723999999999999,0.017929
550,1.7728549999999998,-1.396624,1.8995400000000002,0.169753,0.98487,0.034775,0.0036659999999999996,-0.009205,0.005443,-0.005493,0.010613,0.018295
551,1.772621,-1.396549,1.899511,0.16983399999999998,0.984857,0.03475,0.00045599999999999997,-0.012385,0.0043560000000000005,-0.0035740000000000004,0.007986,0.013285
552,1.772229,-1.396456,1.8993509999999998,0.169938,0.984841,0.034702,0.00045099999999999996,-0.01239,0.005424,-0.0037549999999999997,0.007926,0.011212
553,1.772152,-1.396335,1.8996009999999999,0.170058,0.98482,0.034713,-0.002788,-0.01984,0.006479,0.0007030000000000001,0.007108,0.009904000000000001
554,1.772139,-1.3961620000000001,1.9001310000000002,0.170225,0.9847899999999999,0.034744,-0.006051,-0.030494,0.009675,0.00165,0.009518,0.014343
555,1.772268,-1.395938,1.9008740000000002,0.170438,0.984751,0.034811,-0.008754000000000001,-0.028644,0.012851,-0.003629,0.008184,0.014872
556,1.772125,-1.395637,1.901432,0.170733,0.984699,0.034845999999999995,-0.007744,-0.039309,0.015009,-0.003329,0.012265,0.012686
557,1.7715419999999997,-1.395308,1.9016959999999998,0.171071,0.984641,0.034811,-0.002434,-0.042532,0.017186,-0.005208,0.013969999999999998,0.008463
558,1.770727,-1.394943,1.9016950000000001,0.171453,0.9845780000000001,0.034743,-0.002424,-0.039341,0.01825,-0.007939,0.009548000000000001,0.012178
559,1.769598,-1.3945969999999999,1.901327,0.171827,0.984517,0.034617,0.001829,-0.04149,0.019351,-0.009046,0.010768000000000002,0.013859999999999999
560,1.7681490000000002,-1.394218,1.900885,0.172243,0.98445,0.034441,0.000714,-0.052139,0.019357,-0.0063030000000000004,0.014237,0.02046
561,1.7665810000000002,-1.39393,1.900336,0.172575,0.9844,0.034226,0.0039380000000000005,-0.050006999999999996,0.016172,-0.006758,0.009741,0.019927
562,1.764727,-1.393599,1.8994509999999998,0.172959,0.984342,0.033969,0.0060479999999999996,-0.051097000000000004,0.020461,-0.010131999999999999,0.0070680000000000005,0.013318
563,1.762441,-1.393204,1.898298,0.17341900000000002,0.9842719999999999,0.033648000000000004,0.008129,-0.0607,0.022624000000000002,-0.006488,0.006862999999999999,0.016111
564,1.7605279999999999,-1.392845,1.8974630000000001,0.17383099999999999,0.984208,0.033382999999999996,0.0022129999999999997,-0.049325,0.019328,-0.002032,0.00717,0.023777
565,1.758945,-1.392463,1.896624,0.174254,0.9841409999999999,0.033178,0.007625,-0.031238,0.02041,-0.009627,0.009557,0.028849
566,1.757091,-1.392074,1.895187,0.17469200000000001,0.984072,0.032926,0.011940000000000001,-0.018478,0.022561,-0.016229,0.015623,0.029970999999999998
567,1.75456,-1.391765,1.893001,0.175074,0.984017,0.032539,0.020499,-0.018487,0.017279,-0.022029,0.012596,0.031577999999999995
568,1.751157,-1.391613,1.8898540000000001,0.175331,0.9839899999999999,0.03197,0.032277,-0.015306,0.010948000000000001,-0.017341,0.00745,0.026195999999999997
569,1.747327,-1.3916520000000001,1.8862279999999998,0.17541500000000002,0.9839959999999999,0.031292,0.037663999999999996,-0.011034,0.003503,-0.011642,0.005078,0.022678
570,1.743434,-1.391752,1.882307,0.175438,0.9840139999999999,0.030592,0.034536000000000004,0.002834,0.001327,-0.009331,0.006327,0.026019
571,1.7406259999999998,-1.391925,1.8792509999999998,0.17535599999999998,0.9840450000000001,0.03007,0.030576999999999997,0.011829000000000001,0.000139,-0.007388,0.005823,0.029575999999999998
572,1.7379330000000002,-1.3920489999999999,1.8762759999999998,0.175318,0.984067,0.029577999999999997,0.025243,0.009726,-0.002032,-0.006235,0.006548999999999999,0.026574
573,1.735693,-1.3921569999999999,1.873907,0.175279,0.984086,0.029168,0.019861,0.000153,-0.00099,-0.0069900000000000006,0.006926000000000001,0.025993000000000002
574,1.7340419999999999,-1.392301,1.872178,0.175189,0.9841120000000001,0.028856,0.017765,0.005499,-0.004215999999999999,-0.005435,0.006732999999999999,0.015608000000000002
575,1.732274,-1.392469,1.870243,0.175076,0.984142,0.028519,0.017789,0.008704,-0.0063560000000000005,-0.006481000000000001,0.006672,0.019515
576,1.730759,-1.392647,1.86847,0.174947,0.984173,0.028225999999999998,0.020995,0.009758,-0.006335,-0.007481999999999999,0.007906999999999999,0.017993000000000002
577,1.729038,-1.3928610000000001,1.8665209999999999,0.174786,0.9842110000000001,0.027892,0.022071,0.010823000000000001,-0.007397,-0.007397,0.008587000000000001,0.016237
578,1.727198,-1.393076,1.86431,0.174627,0.9842489999999999,0.027537,0.0221,0.017215,-0.007405,-0.007772,0.007801000000000001,0.012167
579,1.725175,-1.393267,1.862005,0.174496,0.984283,0.027154,0.022071,0.010823000000000001,-0.007397,-0.008297,0.007599,0.014472
580,1.723432,-1.3935030000000002,1.859952,0.174314,0.984325,0.026815,0.021169,0.015328,-0.007513,-0.004697,0.007451,0.016794999999999997
581,1.721752,-1.393758,1.85795,0.17411,0.9843700000000001,0.026483999999999997,0.020102000000000002,0.012149,-0.010721,-0.003913000000000001,0.008611,0.01888
582,1.7197830000000003,-1.394045,1.855855,0.17388399999999998,0.9844200000000001,0.0261,0.022178,-0.000642,-0.01069,-0.0018260000000000001,0.010712000000000001,0.013817
583,1.717395,-1.39432,1.8534490000000001,0.173677,0.984468,0.025644999999999998,0.025384,0.0014730000000000001,-0.009602,-0.00223,0.009398,0.013906
584,1.714865,-1.39452,1.850775,0.173546,0.984504,0.025177,0.026451,0.005714,-0.005327,-0.005531,0.010308,0.014206
585,1.7124259999999998,-1.394668,1.848182,0.173463,0.9845290000000001,0.024733,0.023231,0.0035859999999999998,-0.003211,-0.006608,0.007979,0.01169
586,1.710062,-1.394809,1.845688,0.17338299999999998,0.984554,0.024304,0.024307,0.004651,-0.004273,-0.00903,0.01006,0.009327
587,1.707596,-1.394952,1.8430630000000001,0.173302,0.9845790000000001,0.023857,0.025374,0.004647999999999999,-0.004265,-0.01011,0.007517,0.014228999999999999
588,1.7053169999999997,-1.3951120000000001,1.840646,0.173199,0.984607,0.02344,0.022254,0.003879,-0.0044280000000000005,-0.007824,0.011609,0.017133000000000002
589,1.7029419999999997,-1.39524,1.8383189999999998,0.17313,0.9846299999999999,0.023012,0.022182,-0.007856,-0.00014099999999999998,-0.006718000000000001,0.009068999999999999,0.017133000000000002
590,1.7008459999999999,-1.395313,1.836298,0.17310699999999998,0.984642,0.02264,0.017939,-0.002515,-0.000177,-0.009792,0.006203,0.013691
591,1.698678,-1.395382,1.834095,0.173087,0.9846540000000001,0.022256,0.023283,-0.00040300000000000004,-0.000143,-0.0102,0.013103,0.013327
592,1.695828,-1.395483,1.831237,0.17305,0.9846719999999999,0.02175,0.028622,-0.0014789999999999998,-0.00224,-0.009751000000000001,0.013359999999999999,0.013375999999999999
593,1.6927709999999998,-1.395637,1.828037,0.172965,0.984699,0.021203,0.032942,0.008102,-0.004359,-0.007835,0.005429,0.019874
594,1.6893330000000002,-1.395794,1.8244220000000002,0.17288399999999998,0.984726,0.02059,0.030775,0.001714,-0.0032979999999999997,-0.008043999999999999,0.0066370000000000005,0.022364
595,1.686752,-1.395934,1.8217849999999998,0.172801,0.98475,0.020128,0.02121,-0.000802,-0.004706,-0.007259000000000001,0.004477,0.022414
596,1.685098,-1.396099,1.8202049999999999,0.172672,0.9847790000000001,0.019823,0.013722999999999999,-0.005037,-0.004752,-0.009677,0.006371,0.020094
597,1.6841270000000002,-1.396257,1.8192400000000002,0.172537,0.984807,0.019638,0.010546,-0.0007599999999999999,-0.005848,-0.007909999999999999,0.012095999999999999,0.015106
598,1.68333,-1.396374,1.818489,0.172438,0.984827,0.019487,0.007312000000000001,-0.006084,-0.003728,-0.006712,0.010824,0.007994
599,1.6826,-1.396452,1.817881,0.172376,0.9848399999999999,0.019353,0.00624,-0.005023,-0.0016,-0.003141,0.009239,0.007442
600,1.6821110000000001,-1.396474,1.817459,0.17236400000000002,0.984844,0.019266,0.00303,-0.005021,0.0005139999999999999,-0.0015869999999999999,0.010319,0.01267
601,1.6815369999999998,-1.3964809999999999,1.817007,0.17236700000000002,0.9848459999999999,0.019166,0.0072829999999999995,-0.008232,0.0005480000000000001,-0.0062450000000000006,0.007784,0.016982
602,1.680251,-1.396509,1.8160599999999998,0.17236500000000002,0.98485,0.018941999999999997,0.010416,-0.025278,-0.001545,-0.009447,0.009762999999999999,0.017206
603,1.6783540000000001,-1.396572,1.814655,0.17234000000000002,0.9848610000000001,0.018608,0.014506,-0.023572,-0.0018390000000000001,-0.007652,0.010209999999999999,0.019722
604,1.676103,-1.396684,1.8127810000000002,0.172272,0.9848809999999999,0.018209,0.018807,-0.018252,-0.003952000000000001,-0.012878,0.009701999999999999,0.013728
605,1.6736490000000002,-1.396828,1.8106939999999998,0.172175,0.984906,0.017771000000000002,0.020927,-0.023577,-0.006067,-0.011775,0.011066,0.009755
606,1.671055,-1.397009,1.808572,0.172044,0.9849370000000001,0.017307,0.018783,-0.0257,-0.006079,-0.007234,0.007234999999999999,0.009884
607,1.669184,-1.397154,1.807162,0.171935,0.9849620000000001,0.016971,0.010249,-0.024609,-0.005072,-0.005004,0.005944,0.013088999999999998
608,1.6686150000000002,-1.3972799999999999,1.807025,0.171822,0.984984,0.016861,-0.0014730000000000001,-0.021372,-0.005158,-0.0078049999999999994,0.007204,0.021240000000000002
609,1.668934,-1.397386,1.8078610000000002,0.17171199999999998,0.985002,0.016906,-0.008974,-0.028803,-0.005201,-0.010716,0.006926000000000001,0.027375
610,1.669368,-1.397481,1.808916,0.171612,0.9850180000000001,0.016971,-0.007917,-0.029876,-0.004124,-0.010067,0.008588,0.020871
611,1.6698439999999999,-1.397566,1.8099720000000001,0.171521,0.985033,0.017044,-0.006159,-0.029529000000000003,-0.00428,-0.010891,0.011290000000000001,0.010818000000000001
612,1.669789,-1.397659,1.810513,0.17143,0.985049,0.017026,-0.001887,-0.028479,-0.004251,-0.008604,0.012479,0.011645
613,1.669488,-1.3977600000000001,1.810715,0.171336,0.985067,0.016965,0.001333,-0.024229,-0.004234,-0.009944,0.007823,0.016544
614,1.669089,-1.397915,1.810821,0.17119,0.985093,0.016881,0.001333,-0.028473000000000002,-0.008502,-0.008714,0.010206999999999999,0.018489
615,1.668143,-1.398124,1.8105240000000002,0.171002,0.985129,0.016699000000000002,0.004524,-0.032737,-0.010611,-0.009640000000000001,0.009469,0.020456000000000002
616,1.667561,-1.398325,1.810548,0.17081500000000002,0.9851639999999999,0.016581,0.001328,-0.029539,-0.008501,-0.010247,0.006520000000000001,0.01325
617,1.667087,-1.398483,1.8106099999999998,0.17066800000000001,0.985191,0.016485,0.000276,-0.024217,-0.006378,-0.007613,0.0073939999999999995,0.012445999999999999
618,1.667269,-1.3986120000000002,1.811222,0.17053800000000002,0.9852129999999999,0.016503999999999998,-0.005034,-0.018872,-0.006422,-0.005576,0.004579,0.013129
619,1.6676990000000003,-1.3987129999999999,1.812043,0.170432,0.9852299999999999,0.016567,-0.0061200000000000004,-0.019946000000000002,-0.0032240000000000003,-0.005759,0.0059039999999999995,0.018497
620,1.6686590000000001,-1.398772,1.813505,0.17035899999999998,0.98524,0.016725,-0.014109,-0.025083,-0.004378,-0.004801,0.010731000000000001,0.021712000000000002
621,1.6702080000000001,-1.3988260000000001,1.8156139999999998,0.17027799999999998,0.98525,0.016984,-0.016257,-0.027211000000000003,-0.003322,-0.011572,0.0050149999999999995,0.024337
622,1.6710479999999999,-1.398828,1.8170549999999999,0.170262,0.98525,0.017126,-0.007751000000000001,-0.030449,-5.4000000000000005e-05,-0.011601,0.013087,0.017236
623,1.6712259999999999,-1.3988,1.817814,0.170287,0.985245,0.017159999999999998,-0.004536,-0.026202999999999997,0.001031,-0.010131,0.014388999999999999,0.015631
624,1.6715119999999999,-1.398824,1.8184669999999998,0.170257,0.9852489999999999,0.017206,-0.001258,-0.013413999999999999,-0.003235,-0.009796,0.01176,0.01705
625,1.671042,-1.398942,1.8181209999999999,0.17015,0.9852690000000001,0.017113999999999997,0.009458,-0.00386,-0.004241,-0.010543,0.005896,0.017644999999999997
626,1.670427,-1.399031,1.817478,0.170074,0.9852850000000001,0.017001,0.00521,0.001477,-0.0032090000000000005,-0.0074,0.0037600000000000003,0.02046
627,1.670337,-1.399122,1.8175259999999998,0.169986,0.9853,0.016977000000000003,-0.002921,-0.015451,-0.004297,-0.00687,0.005743,0.021047999999999997
628,1.671527,-1.399139,1.819184,0.169949,0.985303,0.017177,-0.017914,-0.022877,0.000949,-0.005719,0.008059,0.015491999999999999
629,1.6736229999999999,-1.399027,1.8216580000000002,0.170024,0.985284,0.017544999999999998,-0.020019,-0.011173,0.00626,-0.007945,0.012214000000000001,0.012179
630,1.6755509999999998,-1.398885,1.8235240000000001,0.170128,0.98526,0.017887,-0.011369,0.013302000000000001,0.005221,-0.010246,0.009217,0.012646
631,1.676459,-1.3987889999999998,1.824134,0.170205,0.985243,0.018052000000000002,-0.002825,0.014341999999999999,0.004211,-0.008675,0.010408,0.015837999999999998
632,1.6770450000000001,-1.398694,1.8245630000000002,0.170287,0.9852270000000001,0.018161,-0.005006,0.0036969999999999998,0.004209,-0.011092,0.011904000000000001,0.017285
633,1.677169,-1.3986239999999999,1.824698,0.170355,0.985215,0.01819,0.001366,-0.0027170000000000002,0.004262,-0.012793,0.010206999999999999,0.022322
634,1.6771939999999999,-1.39859,1.8246939999999998,0.170388,0.985209,0.018198,0.0014140000000000001,0.004752,0.001048,-0.01426,0.008687,0.025733
635,1.676891,-1.398656,1.8241779999999999,0.170328,0.9852200000000001,0.018139,0.006795999999999999,0.011142,-0.003195,-0.007975,0.010140999999999999,0.021351
636,1.676598,-1.398763,1.8236430000000001,0.170228,0.985239,0.018078,0.004135,0.011283,-0.004236,-0.005983,0.007254000000000001,0.018909
637,1.676814,-1.398837,1.8237310000000002,0.170152,0.985251,0.018106999999999998,-0.0023190000000000003,0.002771,-0.001066,-0.002534,0.005547,0.014455
638,1.678336,-1.398833,1.825205,0.170129,0.985251,0.018366,-0.014063999999999998,0.0038640000000000002,0.002055,-0.00628,0.0069370000000000005,0.022634
639,1.680791,-1.398722,1.8275560000000002,0.170191,0.985232,0.018796,-0.021523,0.008143000000000001,0.0041340000000000005,-0.009394,0.008634000000000001,0.021426
640,1.683827,-1.398623,1.83037,0.17023,0.985215,0.019323,-0.022550999999999998,0.014547,0.001982,-0.00957,0.008331,0.018824
641,1.6861380000000001,-1.398577,1.832475,0.170229,0.9852069999999999,0.019722,-0.012963999999999998,0.008135,-0.001147,-0.007555,0.014488,0.012473999999999999
642,1.686809,-1.398595,1.8331099999999998,0.17019700000000001,0.98521,0.019834,-0.0002,-0.001493,-0.002114,-0.004425,0.016346,0.013323
643,1.6863970000000001,-1.398619,1.832689,0.170181,0.9852139999999999,0.019761,0.006837,-0.00013000000000000002,0.0012230000000000001,-0.0063479999999999995,0.013169,0.017852
644,1.686019,-1.398607,1.832395,0.170202,0.9852120000000001,0.019698,0.000397,-0.007568999999999999,0.0022559999999999998,-0.008947,0.008318,0.021668
645,1.6865080000000001,-1.398586,1.833046,0.170213,0.985208,0.019784,-0.008128,-0.007529999999999999,5.9999999999999995e-05,-0.009035,0.007940000000000001,0.023063
646,1.687709,-1.3986040000000002,1.834381,0.170172,0.9852110000000001,0.019986,-0.011304999999999999,-0.005376,-0.00317,-0.01055,0.007922,0.02756
647,1.6888880000000002,-1.398647,1.83569,0.170106,0.9852190000000001,0.020182,-0.008119,-0.008583,-0.003143,-0.008867,0.009746,0.022161
648,1.6901279999999999,-1.398662,1.837204,0.170066,0.9852219999999999,0.020391,-0.012429,-0.014972,3.9e-05,-0.006903,0.011193,0.018763
649,1.691657,-1.398592,1.839041,0.170102,0.985209,0.020659,-0.016701,-0.01284,0.0032119999999999996,-0.004025,0.011998,0.016572
650,1.6938810000000002,-1.39846,1.841462,0.170184,0.985187,0.021054,-0.018821,-0.005392,0.00746,-0.008197,0.010647,0.017322
651,1.6957419999999999,-1.398318,1.843377,0.170284,0.9851620000000001,0.021388,-0.015839,-0.0016809999999999998,0.0043950000000000005,-0.009715999999999999,0.010336,0.018636
652,1.697279,-1.3982459999999999,1.8450369999999998,0.170321,0.98515,0.021658,-0.011576999999999999,-0.007005,0.00015900000000000002,-0.010623,0.016208,0.023996
653,1.697814,-1.39826,1.845822,0.170296,0.9851530000000001,0.021748,-0.003075,-0.016614,-0.001906,-0.010490000000000001,0.008790000000000001,0.02232
654,1.697875,-1.398276,1.846337,0.17027799999999998,0.9851549999999999,0.021756,-0.00419,-0.026201,-0.000833,-0.008306000000000001,0.009687000000000001,0.018421
655,1.69825,-1.3982299999999999,1.84723,0.17031500000000002,0.9851469999999999,0.021825999999999998,-0.009529000000000001,-0.023004,0.0033979999999999995,-0.004818,0.011419,0.023538999999999997
656,1.699489,-1.398198,1.848789,0.170319,0.985142,0.022040999999999998,-0.011581000000000001,-0.00807,0.00016,-0.007859,0.009472,0.031716
657,1.7007860000000001,-1.398159,1.850034,0.170328,0.985135,0.022266,-0.009385,0.007893,0.002291,-0.010813,0.008929000000000001,0.025844
658,1.7019810000000002,-1.398108,1.851127,0.170351,0.9851260000000001,0.022477,-0.007285,0.000429,0.002316,-0.009218,0.010159,0.019073
659,1.702791,-1.398044,1.8521299999999998,0.17039400000000002,0.985115,0.022622999999999997,-0.008516,-0.013941,0.0035009999999999998,-0.004455,0.007988,0.019522
660,1.7039799999999998,-1.397957,1.8536970000000002,0.17045,0.985101,0.022836000000000002,-0.013869,-0.019244999999999998,0.002402,-0.004831,0.010047,0.02085
661,1.705872,-1.397856,1.855932,0.170505,0.985083,0.023171999999999998,-0.018113,-0.011781,0.0045,-0.009144,0.012643000000000001,0.021078
662,1.7076069999999999,-1.397726,1.85779,0.170592,0.9850610000000001,0.023486,-0.01486,-0.0011359999999999999,0.00344,-0.008315000000000001,0.013246,0.019666
663,1.708866,-1.397638,1.859057,0.170648,0.9850459999999999,0.023712,-0.008449,-8.9e-05,0.002416,-0.00773,0.012971000000000002,0.018494
664,1.709654,-1.397585,1.8599720000000002,0.170681,0.985036,0.023854,-0.005291,-0.009687000000000001,0.00245,-0.00732,0.015147,0.015224000000000001
665,1.7100970000000002,-1.397512,1.860659,0.170741,0.985024,0.023939,-0.005306,-0.011822,0.0035210000000000003,-0.007686,0.013206,0.01526
666,1.710496,-1.397445,1.861386,0.170797,0.9850120000000001,0.024017,-0.007462999999999999,-0.018202,0.0024460000000000003,-0.007162000000000001,0.012424,0.020585
667,1.711137,-1.397391,1.8623619999999999,0.17083299999999998,0.9850030000000001,0.024134,-0.007449,-0.014653999999999999,0.001425,-0.007534000000000001,0.010892,0.02352
668,1.71163,-1.397334,1.8631369999999998,0.170878,0.984993,0.024225999999999998,-0.007444,-0.013588,0.001423,-0.010721,0.011085,0.021932
669,1.7123270000000002,-1.397333,1.8641330000000003,0.17086199999999999,0.984993,0.024345,-0.008501,-0.013576,-0.000721,-0.011712,0.010948000000000001,0.02015
670,1.712979,-1.397362,1.86507,0.170816,0.9849979999999999,0.024452,-0.005301,-0.014648,-0.0017649999999999999,-0.0077150000000000005,0.011737000000000001,0.019661
671,1.713599,-1.397385,1.866016,0.17077699999999998,0.985002,0.024555,-0.008506,-0.014641,-0.000719,-0.00821,0.009444,0.020534999999999998
672,1.714619,-1.397397,1.8672650000000002,0.17074,0.9850040000000001,0.024727000000000002,-0.008487,-0.009319,0.000342,-0.0077150000000000005,0.008221,0.023506
673,1.715566,-1.397422,1.868314,0.17069,0.985008,0.024885,-0.007367,0.000273,-0.0017989999999999998,-0.007481999999999999,0.008506999999999999,0.021943999999999998
674,1.716225,-1.397499,1.8689360000000002,0.170599,0.9850209999999999,0.024986,-0.000942,0.0023940000000000003,-0.004961,-0.007864,0.011515000000000001,0.022774000000000003
675,1.7164400000000002,-1.397646,1.8691959999999999,0.170449,0.9850469999999999,0.025002,0.001253,-0.004887,-0.00812,-0.009698,0.008544,0.020515000000000002
676,1.7165099999999998,-1.3977600000000001,1.8694529999999998,0.170336,0.985067,0.024997,0.000143,-0.012348,-0.005981,-0.006822,0.008281,0.022396
677,1.716734,-1.3978899999999999,1.8699310000000002,0.170203,0.985089,0.025016999999999998,-0.003052,-0.011271999999999999,-0.006005,-0.003104,0.006778,0.026619
678,1.717242,-1.397987,1.8706599999999998,0.170094,0.9851059999999999,0.025089,-0.003043,-0.008081,-0.004941,-0.007054,0.009294,0.024319
679,1.717718,-1.398048,1.8711830000000003,0.170023,0.985116,0.025161000000000003,-0.001962,-0.0017050000000000001,-0.001737,-0.00799,0.008459999999999999,0.015122
680,1.717948,-1.398109,1.871484,0.169958,0.9851260000000001,0.025192,0.000162,-0.0049039999999999995,-0.002786,-0.008825,0.008236,0.017319
681,1.718116,-1.398185,1.871722,0.169881,0.98514,0.025209,0.000177,-0.00277,-0.003857,-0.007298000000000001,0.009764,0.020613
682,1.71832,-1.398272,1.871898,0.169791,0.9851540000000001,0.025231,0.000196,0.001491,-0.0038619999999999995,-0.011068999999999999,0.008376,0.026144999999999998
683,1.718352,-1.398362,1.871993,0.169702,0.9851700000000001,0.025224,0.0024649999999999997,-0.005797,-0.004895,-0.014291,0.008787999999999999,0.020553000000000002
684,1.718116,-1.39848,1.8718720000000002,0.169593,0.98519,0.025167,0.003542,-0.00367,-0.00489,-0.010015999999999999,0.013359999999999999,0.017909
685,1.7178240000000002,-1.3986,1.871478,0.169483,0.9852110000000001,0.0251,0.005733,0.009105,-0.0048909999999999995,-0.008334999999999999,0.005939,0.020112
686,1.7174200000000002,-1.3987370000000001,1.8708069999999999,0.16935799999999998,0.985234,0.025011000000000002,0.007881,0.012294,-0.00488,-0.006195,0.008860999999999999,0.015806
687,1.7168400000000001,-1.3988260000000001,1.870089,0.169285,0.98525,0.0249,0.005679999999999999,0.000571,-0.0016760000000000002,-0.0036049999999999997,0.008647,0.01845
688,1.7168189999999999,-1.39891,1.870112,0.169203,0.9852639999999999,0.024885,0.000346,-0.002594,-0.004913,-0.004683,0.010020999999999999,0.025988
689,1.716948,-1.399022,1.8702450000000002,0.16909100000000002,0.985283,0.02489,0.0014269999999999999,0.0016589999999999999,-0.003843,-0.009317,0.004082,0.02084
690,1.716936,-1.3990799999999999,1.87015,0.169035,0.985293,0.024880000000000003,0.0014269999999999999,0.003781,-0.001709,-0.009459,0.004804,0.017447999999999998
691,1.717157,-1.399134,1.870253,0.168977,0.985302,0.024909999999999998,-0.00047400000000000003,0.006148,-0.002807,-0.003221,0.0059240000000000004,0.012978
692,1.7176509999999998,-1.399163,1.8707060000000002,0.16893699999999998,0.9853069999999999,0.024988999999999997,-0.001575,0.000817,-0.000671,-0.0026320000000000002,0.00804,0.015294
693,1.717984,-1.399144,1.8710330000000002,0.16894800000000001,0.9853040000000001,0.025047999999999997,-0.001594,-0.0023829999999999997,0.000401,-0.006381,0.010424,0.012977
694,1.71795,-1.399086,1.871087,0.169005,0.985294,0.025051,0.001583,-0.004538,0.0036299999999999995,-0.006911,0.010860999999999999,0.015202
695,1.717573,-1.399034,1.8707650000000002,0.16906400000000002,0.9852850000000001,0.024994,0.005864,-0.0013570000000000001,0.0036560000000000004,-0.005764,0.008291,0.019943000000000002
696,1.716653,-1.399,1.8696990000000002,0.16912,0.9852790000000001,0.024844,0.012328,0.011408,0.002617,-0.010764,0.009517,0.016279
697,1.715282,-1.399001,1.8681439999999998,0.169153,0.9852790000000001,0.024612000000000002,0.014433000000000001,0.003948,0.001573,-0.010965,0.008999,0.016419
698,1.713891,-1.399039,1.866813,0.169149,0.9852860000000001,0.024371,0.012256,-0.008815,-0.0016309999999999999,-0.005224,0.008397,0.024640000000000002
699,1.712473,-1.399073,1.865562,0.169149,0.9852920000000001,0.024125999999999998,0.009055,-0.006682,0.000481,-0.007421,0.006437999999999999,0.022795
700,1.711782,-1.399102,1.864825,0.16913699999999998,0.985297,0.024005000000000002,0.006146,0.003165,0.000408,-0.007088,0.007684000000000001,0.025052
701,1.711583,-1.399116,1.8646169999999997,0.169128,0.9852989999999999,0.023969999999999998,0.0029170000000000003,-0.003215,0.000394,-0.005737,0.00759,0.019671
702,1.71147,-1.3991040000000001,1.864527,0.16914200000000001,0.985297,0.023952,0.000792,-0.001077,0.000376,-0.004882,0.009193999999999999,0.015094999999999999
703,1.711661,-1.3990790000000002,1.864711,0.169163,0.985293,0.023988,-0.00027400000000000005,0.001048,0.002503,-0.005604,0.007963,0.012786
704,1.7119369999999998,-1.399011,1.864932,0.169223,0.985281,0.024044,-0.00027,0.004236,0.004635,-0.00687,0.008478,0.016178
705,1.7118779999999998,-1.398958,1.86474,0.169275,0.9852719999999999,0.024041,0.0040219999999999995,0.007425,0.0025239999999999998,-0.008752,0.0068390000000000005,0.020148
706,1.711639,-1.398978,1.8644209999999999,0.169262,0.985275,0.023998,0.005065,-2.7000000000000002e-05,0.000405,-0.008984,0.010634999999999999,0.020618
707,1.710492,-1.398982,1.8633689999999998,0.169284,0.985276,0.023803,0.010365000000000001,-0.006441,0.001518,-0.009555,0.011184,0.017945
708,1.7091560000000001,-1.3990040000000001,1.862136,0.169295,0.9852799999999999,0.023574,0.011651,-0.007234999999999999,0.0015199999999999999,-0.007369,0.010112000000000001,0.016953
709,1.708116,-1.399026,1.8611229999999999,0.169297,0.985284,0.023395,0.010627,0.001295,0.000434,-0.006501000000000001,0.008887,0.021405
710,1.707385,-1.399015,1.860355,0.169324,0.985282,0.023273,0.007403,-0.000837,0.003619,-0.008039,0.008981,0.024228
711,1.7067869999999998,-1.398943,1.859736,0.169408,0.9852690000000001,0.023181,0.004207,0.0013,0.0046619999999999995,-0.009237,0.008917,0.020932
712,1.7066310000000002,-1.398884,1.8594979999999999,0.169468,0.98526,0.023162000000000002,0.002092,0.003447,0.002508,-0.012302,0.009064000000000001,0.020676
713,1.7063509999999997,-1.398866,1.8591790000000001,0.169492,0.9852559999999999,0.023117,0.004226,0.001317,0.000389,-0.011212999999999999,0.008334999999999999,0.021301
714,1.706059,-1.398894,1.8587919999999998,0.169469,0.985261,0.023063999999999998,0.005312,0.0045130000000000005,-0.000676,-0.009984,0.009292,0.021004
715,1.705748,-1.398958,1.858365,0.16941099999999998,0.9852719999999999,0.023002,0.00547,0.004743,-0.0017,-0.008065000000000001,0.008228000000000001,0.02044
716,1.7052,-1.398996,1.857749,0.16938699999999998,0.9852790000000001,0.022904,0.005441,0.00047400000000000003,0.000442,-0.008331,0.008481,0.021041
717,1.7048290000000001,-1.399007,1.8574119999999998,0.16938399999999998,0.9852799999999999,0.02284,0.003288,-0.0016579999999999998,0.002566,-0.008037,0.01414,0.022844999999999997
718,1.7046439999999998,-1.399011,1.8571630000000001,0.169382,0.985281,0.022808000000000002,0.0043939999999999995,0.005799,0.0014960000000000002,-0.013041,0.0076230000000000004,0.018741999999999998
719,1.7042970000000002,-1.399,1.8566509999999998,0.169402,0.9852790000000001,0.022751,0.007609,0.007923000000000001,0.00044699999999999997,-0.009169,0.013744,0.014846999999999999
720,1.703402,-1.399009,1.855645,0.169413,0.985281,0.022598,0.009714,0.002585,0.001537,-0.007045,0.014765,0.0159
721,1.702691,-1.399081,1.854841,0.16935699999999998,0.985293,0.022468000000000002,0.009742,0.004732,-0.002738,-0.010529,0.006406,0.019509000000000002
722,1.70166,-1.399161,1.853659,0.169302,0.9853069999999999,0.022283,0.010804000000000001,0.004724,-0.001663,-0.01145,0.005004,0.021418
723,1.700668,-1.399233,1.8526040000000001,0.169254,0.9853190000000001,0.022106,0.00978,0.000585,-0.000528,-0.0035590000000000005,0.005175,0.019871
724,1.70032,-1.399265,1.852273,0.169231,0.985324,0.022043,-0.0009029999999999999,-0.002574,-0.000599,-0.00491,0.006833,0.023763999999999997
725,1.7007400000000001,-1.399267,1.852673,0.16922,0.985325,0.022113999999999998,-0.004065,0.00596,-0.0006320000000000001,-0.006225,0.009182,0.023617
726,1.701418,-1.399227,1.8531,0.169242,0.985318,0.022233000000000003,-0.00084,0.01658,0.004718,-0.01316,0.012912,0.019316
727,1.701503,-1.399189,1.8528069999999999,0.169277,0.9853120000000001,0.022252,0.006647,0.017632,0.001565,-0.008173999999999999,0.008738,0.013224000000000001
728,1.7006150000000002,-1.399194,1.851637,0.169292,0.9853120000000001,0.022102,0.01089,0.010169,-0.000533,-0.007228,0.008508,0.010064
729,1.6996639999999998,-1.399278,1.850572,0.169231,0.9853270000000001,0.02193,0.010870999999999999,0.002724,-0.003728,-0.00793,0.008158,0.014417
730,1.698661,-1.399392,1.849446,0.169141,0.9853459999999999,0.021746,0.01089,0.006986,-0.0037329999999999998,-0.0068790000000000006,0.007634999999999999,0.02046
731,1.697931,-1.399492,1.848544,0.16906,0.9853629999999999,0.02161,0.007686,0.010262,-0.0037259999999999997,-0.004188,0.0070680000000000005,0.024762
732,1.697418,-1.3995870000000001,1.84785,0.168976,0.9853790000000001,0.021511000000000002,0.005528,0.007065000000000001,-0.0016010000000000002,-0.005646,0.007495,0.020161000000000002
733,1.696871,-1.399651,1.847143,0.168924,0.98539,0.021411000000000003,0.007662,0.008118,-0.000519,-0.004572,0.006187,0.017591
734,1.696349,-1.3996959999999998,1.846541,0.16889,0.985398,0.021317,0.0044329999999999994,0.000677,-0.0016,-0.004843,0.007384999999999999,0.012938999999999999
735,1.696109,-1.399738,1.846322,0.168853,0.985405,0.021271,0.003356,-0.00145,-0.001605,-0.006437999999999999,0.008201,0.015075999999999999
736,1.6958799999999998,-1.3997950000000001,1.846081,0.1688,0.9854149999999999,0.021225,0.0044280000000000005,-0.001449,-0.002666,-0.007240000000000001,0.009077,0.019196
737,1.695888,-1.399846,1.846041,0.16875,0.985424,0.02122,0.000185,0.003892,-0.002702,-0.007297,0.008029999999999999,0.020086
738,1.6959549999999999,-1.3998899999999999,1.846048,0.168703,0.985431,0.021226,0.002309,0.0038759999999999997,-0.000551,-0.0068379999999999995,0.008954,0.022567
739,1.695893,-1.399938,1.845908,0.168657,0.985439,0.021209,0.002242,0.003919,-0.001614,-0.007951,0.008717,0.017533
740,1.695445,-1.3999840000000001,1.8453830000000002,0.16862,0.985447,0.021128,0.007567,0.0017699999999999999,-0.001574,-0.008357,0.009548000000000001,0.016775
741,1.6945720000000002,-1.4000489999999999,1.8444509999999998,0.168572,0.985458,0.020972,0.011849,0.00495,-0.0015480000000000001,-0.008965,0.006439,0.015434999999999999
742,1.693803,-1.400125,1.843473,0.168514,0.9854709999999999,0.020834000000000002,0.009744,0.011349,-0.0015710000000000001,-0.006786,0.0071129999999999995,0.020028999999999998
743,1.6931490000000002,-1.400211,1.842609,0.168444,0.9854860000000001,0.020713,0.006539,0.009234000000000001,-0.002659,-0.007692,0.0076939999999999995,0.0216
744,1.692818,-1.400326,1.842139,0.168337,0.985505,0.020643,0.0054670000000000005,0.006051,-0.004797999999999999,-0.008806999999999999,0.007995,0.021837
745,1.6927849999999998,-1.4004219999999998,1.8420130000000001,0.168243,0.9855209999999999,0.020626,0.001185,0.004992,-0.002691,-0.007614,0.0067269999999999995,0.018574
746,1.6929400000000001,-1.4004940000000001,1.8420349999999999,0.168168,0.985534,0.020643,0.000133,0.008191,-0.002702,-0.00734,0.008865999999999999,0.020204
747,1.693336,-1.400584,1.842177,0.16807,0.985549,0.020699000000000002,0.003256,0.015653,-0.0037700000000000003,-0.008631,0.008302,0.016502
748,1.6936650000000002,-1.400675,1.842134,0.167974,0.985564,0.020743,0.002203,0.018853,-0.003781,-0.010884999999999999,0.008943000000000001,0.015144999999999999
749,1.69402,-1.400773,1.8422029999999998,0.16787,0.9855809999999999,0.020791,0.003232,0.009266,-0.00483,-0.00927,0.009155,0.02024
750,1.694174,-1.4008770000000001,1.8422020000000001,0.167764,0.985598,0.020804,3.1e-05,0.009276999999999999,-0.004852,-0.01098,0.007245000000000001,0.022073
751,1.6947889999999999,-1.4010280000000002,1.842402,0.167604,0.985624,0.020888999999999998,-0.000935,0.027407,-0.009155,-0.015108000000000002,0.0078,0.028336
752,1.6957950000000002,-1.401203,1.8427669999999998,0.16741,0.9856540000000001,0.021036000000000003,-0.0009109999999999999,0.032734,-0.009162,-0.009909000000000001,0.008975,0.018256
753,1.6966330000000003,-1.401382,1.8431060000000001,0.167216,0.985684,0.021154,0.001165,0.021004,-0.008064,-0.003993,0.009647,0.011561
754,1.696894,-1.4015469999999999,1.843005,0.167048,0.985711,0.021177,0.005423,0.01992,-0.006965000000000001,-0.006678,0.004828,0.018938999999999998
755,1.6967150000000002,-1.401717,1.842216,0.16688499999999998,0.98574,0.021126,0.009623999999999999,0.036916000000000004,-0.006965000000000001,-0.014053,0.008019,0.031898
756,1.696649,-1.401928,1.8413529999999998,0.16668,0.985776,0.021089,0.008576,0.036937,-0.011245,-0.013375,0.004627,0.036376
757,1.697039,-1.40226,1.841158,0.166348,0.9858309999999999,0.021113,0.002137,0.02101,-0.018747999999999997,-0.006679999999999999,0.00335,0.026129000000000003
758,1.698087,-1.402631,1.842007,0.165963,0.985894,0.021240000000000002,-0.007542,0.003999,-0.018793,-0.005441,0.00515,0.017181000000000002
759,1.700105,-1.4029790000000002,1.8439830000000001,0.165581,0.985952,0.021531,-0.015,0.005095000000000001,-0.019915000000000002,-0.007347,0.010859,0.016738
760,1.702732,-1.40334,1.8463470000000002,0.165169,0.9860120000000001,0.021919,-0.014941999999999999,0.018938999999999998,-0.018864,-0.004814,0.007946,0.015892
761,1.705755,-1.403643,1.8487810000000002,0.164805,0.9860620000000001,0.022378,-0.018057,0.040247000000000005,-0.016777,-0.004542,0.007345999999999999,0.016929
762,1.709725,-1.403913,1.851879,0.164452,0.986107,0.022994999999999998,-0.025501,0.0456,-0.016836,-0.007896,0.008339,0.015837999999999998
763,1.714098,-1.404153,1.8555849999999998,0.164115,0.9861469999999999,0.02368,-0.026808,0.02951,-0.015756,-0.010444,0.009336,0.014757
764,1.7179799999999998,-1.404452,1.859056,0.16373,0.9861969999999999,0.024274,-0.023646,0.017794,-0.018923,-0.010059,0.011056999999999999,0.007098
765,1.720594,-1.404798,1.8614830000000002,0.163328,0.9862540000000001,0.024651,-0.010882,0.007104999999999999,-0.020957,-0.00897,0.01396,0.0022199999999999998
766,1.721654,-1.405201,1.862369,0.162909,0.9863200000000001,0.024763999999999998,0.000868,0.011321,-0.019812,-0.005744,0.007317000000000001,0.003312
767,1.7227419999999998,-1.4055739999999999,1.8631849999999999,0.162518,0.986382,0.024886000000000002,-0.005528,0.013469,-0.018791,-0.003445,0.008369,0.008195000000000001
768,1.724904,-1.405893,1.865161,0.162155,0.986434,0.025189,-0.018369,0.008175,-0.015669,1.4999999999999999e-05,0.006867,0.015597999999999999
769,1.728562,-1.406075,1.868757,0.161885,0.9864639999999999,0.025754000000000003,-0.034415,0.003948,-0.010435,-0.00066,0.005174,0.017047
770,1.7333029999999998,-1.406067,1.8735580000000003,0.161768,0.9864629999999999,0.026522000000000004,-0.040879,-0.002451,-0.002994,-0.005319,0.009004999999999999,0.010556999999999999
771,1.738101,-1.405977,1.8785189999999998,0.161728,0.986448,0.027313,-0.039836,-0.005659,-0.0008460000000000001,-0.003204,0.009219,0.0061340000000000006
772,1.742273,-1.405859,1.882982,0.161727,0.9864290000000001,0.028007999999999998,-0.03258,-0.015386000000000002,-0.000758,-0.00125,0.01084,0.00869
773,1.745357,-1.405691,1.8865319999999999,0.161805,0.986401,0.028535,-0.028360000000000003,-0.020749,0.004619,-0.004593,0.013309,0.012725
774,1.748298,-1.405485,1.889786,0.161919,0.986367,0.029047000000000003,-0.028332,-0.012235,0.006745,-0.014977,0.007575,0.019675
775,1.751698,-1.405234,1.893519,0.162063,0.986326,0.029642,-0.033685,-0.015416999999999998,0.00778,-0.010589,0.009554,0.017249
776,1.7553990000000002,-1.404976,1.897577,0.16220299999999999,0.986283,0.030288,-0.034747,-0.015409,0.006704000000000001,-0.008362999999999999,0.011962,0.008607
777,1.758393,-1.404711,1.901042,0.162367,0.98624,0.030822000000000002,-0.028404000000000002,-0.025031,0.009965,-0.003355,0.0108,0.008698000000000001
778,1.760759,-1.40435,1.903946,0.162645,0.98618,0.031274,-0.025236,-0.026133,0.016398,-0.0021219999999999998,0.010128,0.009696
779,1.7633419999999997,-1.403849,1.9070900000000002,0.163048,0.9860969999999999,0.031788,-0.032902,-0.027354000000000003,0.02281,-0.001015,0.009417,0.013087999999999999
780,1.7662369999999998,-1.403224,1.9105349999999999,0.16355999999999998,0.985993,0.03238,-0.033979,-0.024176,0.028138999999999997,-0.008195000000000001,0.008453,0.024566
781,1.768691,-1.402501,1.9134810000000002,0.164179,0.985872,0.032921,-0.029725,-0.024204,0.031374,-0.010493,0.006667,0.024116
782,1.77043,-1.401837,1.9159130000000002,0.16476400000000002,0.9857600000000001,0.033337,-0.024434,-0.038054000000000004,0.027156,-0.011261,0.008151,0.027104000000000003
783,1.771354,-1.401275,1.9177389999999999,0.165277,0.9856659999999999,0.033599000000000004,-0.015923,-0.047654,0.022954,-0.011636,0.011695,0.03299
784,1.771484,-1.400863,1.9187830000000001,0.16567,0.9855959999999999,0.033701999999999996,-0.008393000000000001,-0.040198000000000005,0.016588,-0.012075,0.0059960000000000005,0.039235
785,1.77163,-1.400466,1.919777,0.166048,0.9855290000000001,0.033804,-0.011618,-0.043391000000000006,0.018706,-0.015108000000000002,0.001883,0.040552
