,attitude.roll,attitude.pitch,attitude.yaw,gravity.x,gravity.y,gravity.z,rotationRate.x,rotationRate.y,rotationRate.z,userAcceleration.x,userAcceleration.y,userAcceleration.z
0,1.13155,-1.446487,0.746139,0.11221700000000001,0.992284,-0.052726,-0.030413,-0.15051099999999998,0.025118,-0.023121,0.007396,0.013908000000000002
1,1.13594,-1.4461760000000001,0.753034,0.11272599999999999,0.992245,-0.052363,-0.024968999999999998,-0.117541,0.03366,-0.026224,-0.0052759999999999994,0.008036
2,1.140301,-1.4459229999999998,0.7597510000000001,0.113178,0.9922129999999999,-0.051974,-0.035594,-0.111099,0.030372000000000003,-0.017369,0.002415,0.010943000000000001
3,1.1455959999999998,-1.445714,0.767087,0.11363800000000002,0.992187,-0.051458000000000004,-0.034451,-0.094059,0.030358999999999997,-0.01499,0.023758,0.015050999999999998
4,1.149937,-1.4456069999999999,0.773369,0.113954,0.992174,-0.051006,-0.032298,-0.09511,0.025034,-0.007814,0.013456000000000001,0.012646
5,1.155091,-1.4456790000000002,0.780465,0.11414500000000001,0.992183,-0.050387,-0.04398,-0.08971699999999999,0.018536,-0.005518,0.013996999999999999,0.019122
6,1.161522,-1.445776,0.78851,0.11438,0.992195,-0.049615,-0.049214,-0.067328,0.018471,-0.004319,0.014884999999999999,0.021081
7,1.16876,-1.446009,0.796859,0.114525,0.992224,-0.048695,-0.046387,-0.041984,0.014118,-0.005226,0.0039310000000000005,0.009724
8,1.175616,-1.446225,0.8043859999999999,0.114659,0.992251,-0.047827,-0.043089999999999996,-0.025994999999999997,0.00878,-0.006367,-0.00035299999999999996,0.0016539999999999999
9,1.182034,-1.446548,0.811009,0.114667,0.992291,-0.046969,-0.040794,0.000667,-0.000852,-0.002179,0.000644,-0.001997
10,1.188526,-1.447129,0.817656,0.114435,0.9923629999999999,-0.046008,-0.042942,-0.011009,-0.009398,0.017096,-0.0008619999999999999,-0.006513
11,1.194488,-1.4476930000000001,0.823876,0.114186,0.992432,-0.045119,-0.04187,-0.011008,-0.010459,0.018032,0.002166,-0.010926
12,1.199239,-1.4481030000000001,0.829102,0.11401800000000001,0.992483,-0.044427999999999995,-0.03345,-0.030239,-0.003966,0.018306,0.008020999999999999,-0.009802
13,1.202823,-1.448292,0.8334590000000001,0.11400199999999999,0.992506,-0.043951,-0.028188,-0.038808999999999996,0.0035590000000000005,0.015438999999999998,0.009524,-0.007349
14,1.205917,-1.448218,0.837565,0.11420599999999999,0.992497,-0.043625,-0.020819999999999998,-0.053778999999999993,0.011106999999999999,0.006369,0.004070000000000001,-0.004593
15,1.208148,-1.4480389999999999,0.8410030000000001,0.11447,0.992475,-0.043433,-0.018969,-0.061467999999999995,0.010062999999999999,0.0028539999999999998,0.004519,-0.010551999999999999
16,1.209638,-1.447902,0.8437520000000001,0.11466300000000001,0.992458,-0.043311,-0.014678,-0.058277999999999996,0.007951999999999999,0.000785,0.00626,-0.006829000000000001
17,1.211383,-1.447703,0.846526,0.114925,0.992434,-0.043181,-0.016778,-0.047631,0.011129,0.0022170000000000002,0.0030800000000000003,-0.006288
18,1.213439,-1.4475799999999999,0.849525,0.115129,0.992418,-0.042988,-0.015687,-0.04337,0.010062999999999999,0.00183,0.003431,-0.006405
19,1.2154200000000002,-1.447553,0.852294,0.11523800000000001,0.9924149999999999,-0.042769,-0.020959000000000002,-0.035868000000000004,0.003607,0.0015220000000000001,0.001725,-0.00022999999999999998
20,1.2183950000000001,-1.447618,0.8559459999999999,0.11530399999999999,0.9924229999999999,-0.042402999999999996,-0.027346,-0.031589,0.004625,-0.002939,0.006920999999999999,0.004028
21,1.222097,-1.447798,0.860266,0.11529500000000001,0.992445,-0.041916,-0.026231,-0.026244999999999997,-0.000715,-0.007034,0.009783,0.004425
22,1.224173,-1.447918,0.862757,0.115273,0.99246,-0.041637,-0.014438,-0.012442,0.00041799999999999997,-0.006659999999999999,0.008272,0.004589
23,1.225449,-1.447871,0.863974,0.11537,0.9924540000000001,-0.041506,-0.001795,0.011875,0.007001,0.005327,0.0037770000000000004,0.002611
24,1.225674,-1.447699,0.863906,0.115541,0.992433,-0.041538,0.005668,0.012905000000000002,0.009189,0.011,0.010542000000000001,0.0065650000000000005
25,1.226075,-1.447461,0.863986,0.115781,0.9924040000000001,-0.041572000000000005,0.001381,0.016086000000000003,0.016632,0.011432,0.005628,0.004218
26,1.227797,-1.4472,0.8654629999999999,0.116097,0.9923719999999999,-0.041460000000000004,-0.002905,0.010779,0.015541,0.006828,0.0059039999999999995,0.012987
27,1.229134,-1.447022,0.86667,0.11632,0.99235,-0.041364,-0.0060869999999999995,0.006562999999999999,0.006978,-9.4e-05,0.00176,0.01045
28,1.231216,-1.446957,0.8686299999999999,0.11646500000000001,0.9923420000000001,-0.041143,-0.007144,0.006575,0.004834000000000001,0.003271,0.007123999999999999,0.012517
29,1.231938,-1.44682,0.869084,0.116622,0.992325,-0.041104,0.003582,0.021443,0.007026999999999999,0.000336,0.008087,0.016644
30,1.233244,-1.446607,0.869807,0.116876,0.9922979999999999,-0.041022,0.0014869999999999998,0.033156,0.010202,-0.003793,0.00023999999999999998,0.013341999999999998
31,1.234733,-1.446518,0.870557,0.11701900000000001,0.992287,-0.040875999999999996,0.001702,0.043126,0.000533,-0.006667,0.012534,0.016584
32,1.2343680000000001,-1.446533,0.86923,0.11699000000000001,0.992289,-0.040914,0.015634000000000002,0.051621,-0.004722,-0.003633,0.014608000000000001,0.022772
33,1.23285,-1.446542,0.8665290000000001,0.11691900000000001,0.99229,-0.041089,0.019944,0.060133000000000006,-0.005771,-0.010015999999999999,0.010639000000000001,0.018857
34,1.231434,-1.44658,0.863901,0.116826,0.992295,-0.041242,0.020997,0.056933000000000004,-0.005759,-0.019353,0.007125,0.017484
35,1.230479,-1.44666,0.861513,0.11671300000000001,0.9923049999999999,-0.041326999999999996,0.014691,0.0772,-0.0068969999999999995,-0.024687,0.011067,0.012824
36,1.229334,-1.44674,0.8585450000000001,0.11659100000000001,0.992315,-0.041434,0.023327,0.09741799999999999,-0.008999,-0.025481,0.007166,0.016425
37,1.22862,-1.446917,0.855518,0.11639400000000001,0.992337,-0.041458,0.022365,0.121919,-0.007969,-0.0383,0.021442,0.018265
38,1.227994,-1.447082,0.852039,0.116212,0.9923569999999999,-0.041475,0.019333000000000003,0.15178699999999998,-0.015506,-0.040208,0.019712999999999998,0.018358000000000003
39,1.227239,-1.44729,0.8478700000000001,0.11598599999999999,0.992383,-0.041493,0.024801,0.18265699999999999,-0.014438999999999999,-0.039464,0.018893,0.020406
40,1.22692,-1.44749,0.8434370000000001,0.11578800000000002,0.9924069999999999,-0.041464,0.031897,0.21775799999999998,-0.009354000000000001,-0.043338999999999996,0.008737,0.01261
41,1.22488,-1.447525,0.836667,0.115672,0.9924120000000001,-0.041689,0.058674000000000004,0.24746700000000002,-0.0027949999999999997,-0.034525,0.0014089999999999999,0.003435
42,1.219176,-1.4471479999999999,0.825965,0.115784,0.9923649999999999,-0.042477,0.06929,0.239956,0.0015609999999999999,-0.028442000000000002,0.005497999999999999,0.0052759999999999994
43,1.2143110000000001,-1.446843,0.816213,0.11585899999999999,0.9923280000000001,-0.043144999999999996,0.071375,0.23884499999999997,0.011191,-0.030929,0.004727,-0.0008759999999999999
44,1.20851,-1.4461600000000001,0.805906,0.11624000000000001,0.992243,-0.044057,0.079747,0.21214499999999997,0.020898,-0.033247000000000006,0.013082,0.002934
45,1.201594,-1.445102,0.794882,0.11691199999999999,0.9921110000000001,-0.045238,0.088134,0.192885,0.034868,-0.037429000000000004,0.010025,0.003887
46,1.1946459999999999,-1.443902,0.784497,0.11770499999999999,0.9919600000000001,-0.046488,0.082569,0.153442,0.04663,-0.025206,-0.001405,0.010478
47,1.1876229999999999,-1.442631,0.774837,0.11854300000000001,0.991798,-0.047784,0.079979,0.11375199999999999,0.040039,-0.028318,0.00515,0.0040219999999999995
48,1.1794930000000001,-1.441106,0.764841,0.119547,0.9916020000000001,-0.049323,0.085136,0.088112,0.053995,-0.00474,0.004034,0.010291
49,1.175671,-1.439894,0.7591600000000001,0.12046400000000002,0.991445,-0.050241,0.049882,0.081826,0.05803,-0.006343,-0.000875,0.019021
50,1.174433,-1.438661,0.756637,0.121529,0.991283,-0.050862,0.034825999999999996,0.053125,0.055825,-0.011819,0.003026,0.01659
51,1.1755719999999998,-1.437545,0.7570680000000001,0.122609,0.991135,-0.051149,0.014426,0.027616,0.05892000000000001,-0.016499,0.008453,0.019976
52,1.1784059999999998,-1.436458,0.7593989999999999,0.123749,0.9909899999999999,-0.051213999999999996,0.008020000000000001,0.027635000000000003,0.059942999999999996,-0.025284,0.006233,0.024557
53,1.181168,-1.435384,0.761466,0.124877,0.9908459999999999,-0.051276999999999996,0.013416999999999998,0.040402999999999994,0.058896000000000004,-0.02777,0.011642,0.020347
54,1.183137,-1.434264,0.762411,0.126005,0.9906940000000001,-0.05145,0.022033,0.05848300000000001,0.058933000000000006,-0.026608999999999997,0.016447,0.015546
55,1.1845219999999999,-1.433029,0.762357,0.12720599999999999,0.990525,-0.051736000000000004,0.032435000000000005,0.082363,0.059829999999999994,-0.018624,0.008041,0.017953
56,1.1852280000000002,-1.43179,0.7611060000000001,0.128379,0.9903540000000001,-0.05210700000000001,0.04108,0.106834,0.059859,-0.017646000000000002,6.3e-05,0.012236
57,1.185447,-1.4307219999999998,0.759142,0.129368,0.9902059999999999,-0.052475,0.031541,0.106923,0.045905,-0.008304,0.004591,0.006684000000000001
58,1.186269,-1.429916,0.757827,0.13014900000000001,0.990093,-0.05266799999999999,0.026226,0.105897,0.040527999999999995,0.002236,0.003025,0.010431000000000001
59,1.1874639999999999,-1.429092,0.756979,0.130966,0.989977,-0.052815999999999995,0.022996,0.100578,0.041581,-0.001389,-0.0015429999999999999,0.003073
60,1.189188,-1.428168,0.756969,0.131905,0.9898459999999999,-0.05293099999999999,0.019694999999999997,0.08458500000000001,0.047987,-0.021675,-0.011345000000000001,-0.002077
61,1.1889239999999999,-1.4267809999999999,0.755254,0.133162,0.989648,-0.053475999999999996,0.033602999999999994,0.09518,0.050207,-0.002073,0.001105,-0.012747
62,1.1914870000000002,-1.425717,0.755963,0.134273,0.9894950000000001,-0.053523,0.017557,0.08671,0.051174000000000004,0.0005690000000000001,0.000999,0.00265
63,1.192561,-1.4245889999999999,0.755346,0.13536700000000002,0.989331,-0.053791,0.030811,0.082165,0.052131,-0.002997,0.005374,-0.002728
64,1.192299,-1.4232989999999999,0.753456,0.136537,0.989142,-0.054297000000000005,0.041427,0.077836,0.059688,0.0026379999999999997,0.007790999999999999,-0.003488
65,1.191223,-1.4218110000000002,0.751034,0.13784200000000002,0.988922,-0.054988,0.047746,0.061827,0.06189,0.014868000000000001,0.02417,0.006038
66,1.1884270000000001,-1.419872,0.74739,0.139464,0.988633,-0.056087,0.058324,0.048976,0.069457,0.013505000000000001,-0.003693,-0.002995
67,1.187922,-1.418403,0.746205,0.140782,0.988411,-0.0567,0.034714,0.010739,0.061863999999999995,0.003871,0.005089,0.008726000000000001
68,1.183833,-1.416917,0.7421760000000001,0.14190999999999998,0.9881840000000001,-0.05782999999999999,0.069858,-0.008537999999999999,0.056792999999999996,-0.005375,0.014013,0.007812
69,1.1762059999999999,-1.415253,0.734608,0.142981,0.987927,-0.059542,0.09335299999999999,-0.0075379999999999996,0.052683,-0.007193000000000001,0.006793,0.003939
70,1.1653360000000001,-1.4131770000000001,0.724178,0.144209,0.987604,-0.061901,0.139964,-0.05467999999999999,0.079775,-0.023573,0.059073,0.006572
71,1.150533,-1.408453,0.711572,0.147536,0.986851,-0.065932,0.19809200000000002,-0.111171,0.170984,0.025377,-0.021443,-0.016877
72,1.138993,-1.406485,0.700124,0.148529,0.9865309999999999,-0.06844299999999999,0.08838,0.004909,0.008767,-0.006804999999999999,0.004497,0.010887
73,1.126674,-1.405991,0.6881079999999999,0.14811400000000002,0.98645,-0.070476,0.121458,-0.027032999999999998,-0.024076,0.002338,-0.01384,0.01942
74,1.110348,-1.405263,0.6721520000000001,0.147584,0.986331,-0.073203,0.14057999999999998,-0.035660000000000004,-0.014316999999999998,0.028929000000000003,0.030438999999999997,0.022406
75,1.095613,-1.403599,0.657831,0.147948,0.9860549999999999,-0.07612000000000001,0.126634,-0.024009,0.014412999999999999,0.016862000000000002,0.002226,0.019647
76,1.087066,-1.402039,0.649411,0.148653,0.9857940000000001,-0.078097,0.08922200000000001,-0.005905,0.048311,0.029325999999999998,0.004639,0.031481
77,1.083215,-1.400396,0.6456770000000001,0.149783,0.985517,-0.079427,0.056076999999999995,-0.007976,0.061969,0.038068,0.008303,0.029989
78,1.083574,-1.398968,0.646285,0.151054,0.985274,-0.080032,0.018680000000000002,-0.016384,0.065992,0.041787,0.016069,0.03302
79,1.0874270000000001,-1.397622,0.65067,0.15253599999999998,0.985043,-0.080066,-0.000644,-0.031278,0.077626,0.035421,0.017597,0.027363
80,1.093276,-1.396289,0.657392,0.154169,0.9848120000000001,-0.079777,-0.023153,-0.046147,0.086034,0.038779,0.007421,0.025241999999999997
81,1.100072,-1.3949200000000002,0.665633,0.155907,0.984574,-0.079338,-0.030804,-0.079174,0.0935,0.043067,0.003433,0.033928
82,1.1072170000000001,-1.393359,0.674725,0.157843,0.9842989999999999,-0.078908,-0.025584,-0.099454,0.09890399999999999,0.034143,-0.005524,0.026281
83,1.113226,-1.391758,0.683232,0.159729,0.984015,-0.07865499999999999,-0.026805000000000002,-0.13353900000000002,0.098939,0.033722,-0.003486,0.014858000000000001
84,1.117833,-1.3903459999999999,0.690996,0.16134,0.9837629999999999,-0.078527,-0.029019999999999997,-0.164373,0.08614400000000001,0.040869,0.006684999999999999,0.021993000000000002
85,1.121412,-1.389035,0.698422,0.16278299999999998,0.983527,-0.07851,-0.019556999999999998,-0.205909,0.075581,0.012235,0.010629000000000001,0.020755000000000003
86,1.123499,-1.387834,0.704922,0.164012,0.983309,-0.078681,-0.026011000000000003,-0.22291,0.070217,0.0058189999999999995,0.003111,0.026679
87,1.124443,-1.3867450000000001,0.710299,0.16505,0.98311,-0.078987,-0.015275,-0.213338,0.064939,0.002979,0.003614,0.024025
88,1.125704,-1.385642,0.715751,0.16613,0.982908,-0.079247,-0.015212999999999999,-0.202673,0.061721000000000005,0.012367,0.013827,0.028298
89,1.1257190000000001,-1.384736,0.719771,0.166937,0.982741,-0.07962899999999999,-0.005515,-0.193072,0.050026,0.006723000000000001,0.009783,0.028268
90,1.124778,-1.38392,0.722476,0.16758699999999999,0.9825889999999999,-0.08013200000000001,-0.001147,-0.17496099999999998,0.04576,0.003082,0.009812000000000001,0.03547
91,1.1236110000000001,-1.383017,0.724799,0.168292,0.9824209999999999,-0.080711,0.01377,-0.171847,0.053337999999999997,0.001675,0.025666,0.034812
92,1.121569,-1.381737,0.726004,0.16926,0.982181,-0.08160099999999999,0.025509999999999998,-0.158091,0.066221,0.002462,0.009715999999999999,0.038449000000000004
93,1.1198569999999999,-1.380334,0.7274229999999999,0.17035999999999998,0.981917,-0.082491,0.022305000000000002,-0.157023,0.068334,0.0022170000000000002,0.016374,0.041994
94,1.1188040000000001,-1.379038,0.729634,0.17141900000000002,0.981671,-0.083226,0.011617,-0.163368,0.066131,0.002455,0.004535,0.03069
95,1.118059,-1.37808,0.732042,0.172204,0.9814879999999999,-0.083766,0.004273,-0.152622,0.048974000000000004,0.0048590000000000005,-0.007626000000000001,0.027034
96,1.118399,-1.377515,0.735269,0.172729,0.9813790000000001,-0.083949,-0.01481,-0.139716,0.034937,0.013366999999999999,0.001393,0.019328
97,1.119972,-1.3772,0.739654,0.17313900000000002,0.981319,-0.083812,-0.02546,-0.136478,0.033791,0.015383,0.004994,0.010249
98,1.1221940000000001,-1.376854,0.744633,0.173631,0.981252,-0.083574,-0.036123,-0.132193,0.036914999999999996,0.008849,0.009181,0.001756
99,1.1250930000000001,-1.376488,0.750216,0.17419600000000002,0.981181,-0.083225,-0.03398,-0.126887,0.040128,0.008055,0.009175,0.00037
100,1.127715,-1.375977,0.755254,0.17486400000000002,0.981083,-0.082982,-0.029660000000000002,-0.112001,0.043344,0.001131,0.008723999999999999,-0.002666
101,1.130013,-1.375421,0.759724,0.175546,0.980975,-0.082811,-0.02213,-0.101362,0.040178,0.0041719999999999995,0.015332,-0.0027140000000000003
102,1.130694,-1.374659,0.762328,0.176277,0.980827,-0.08301,0.004556,-0.09083200000000001,0.047829,0.010338,0.011986,-0.0016
103,1.129846,-1.373449,0.7631939999999999,0.177279,0.98059,-0.083665,0.023731,-0.082437,0.062907,0.011304999999999999,0.000733,-0.002288
104,1.1281729999999999,-1.372026,0.763411,0.178397,0.98031,-0.08455800000000001,0.031103,-0.101646,0.06511900000000001,0.01272,0.004599,-0.000616
105,1.125317,-1.3705690000000001,0.762714,0.17944300000000002,0.9800209999999999,-0.08568200000000001,0.040662000000000004,-0.11445,0.061998000000000004,0.009843000000000001,0.002431,0.0036810000000000002
106,1.121348,-1.369202,0.761229,0.180307,0.979749,-0.086976,0.043843,-0.131454,0.049223,0.0050409999999999995,0.005603,0.005219
107,1.116466,-1.368108,0.759071,0.180843,0.9795290000000001,-0.088325,0.045987,-0.14418499999999998,0.0343,0.001545,0.012887000000000001,0.019828
108,1.110601,-1.367052,0.7561220000000001,0.181249,0.979316,-0.08984400000000001,0.051311,-0.149517,0.031139,-0.010228000000000001,0.01043,0.02655
109,1.104393,-1.366113,0.752797,0.181509,0.979125,-0.09138099999999999,0.055169,-0.147143,0.021381999999999998,-0.020453,0.011323,0.033275
110,1.097284,-1.365259,0.74842,0.181599,0.978952,-0.09305,0.064843,-0.13650299999999999,0.016094,-0.018741999999999998,0.017051,0.036989
111,1.089467,-1.364456,0.742861,0.181562,0.9787870000000001,-0.09483,0.077808,-0.10881600000000001,0.0076040000000000005,-0.012112999999999999,0.022754,0.03996
112,1.081623,-1.36366,0.7367520000000001,0.1815,0.9786239999999999,-0.096617,0.077914,-0.08644199999999999,0.006508,-0.015271000000000002,0.011977,0.037978
113,1.074437,-1.363204,0.730896,0.181193,0.9785299999999999,-0.098131,0.070599,-0.06718099999999999,-0.008523000000000001,-0.0073950000000000005,0.007065999999999999,0.031206
114,1.06715,-1.362914,0.724538,0.180723,0.9784700000000001,-0.099587,0.06648,-0.046875,-0.021397,-0.00633,0.008284999999999999,0.031105
115,1.061617,-1.362999,0.719488,0.180097,0.9784879999999999,-0.10054500000000001,0.051664,-0.023374000000000002,-0.024735,-0.011426,0.002302,0.021825
116,1.057007,-1.363277,0.715075,0.179395,0.9785450000000001,-0.10124,0.027246,-0.01045,-0.038808999999999996,-0.007459,0.00435,0.019712999999999998
117,1.053464,-1.36402,0.711505,0.178403,0.978698,-0.101516,0.011363,0.001384,-0.05389,-0.003278,0.006135,0.017852
118,1.051148,-1.3651959999999999,0.709032,0.17716800000000002,0.9789389999999999,-0.101357,-0.0045780000000000005,0.004678,-0.064688,-0.004103,0.006962,0.0063560000000000005
119,1.0494450000000002,-1.366479,0.707011,0.17590699999999998,0.9792,-0.101033,-0.015184,0.019625,-0.063713,-0.004993,0.005647999999999999,0.005315
120,1.0488819999999999,-1.3677979999999998,0.705737,0.17473,0.979467,-0.100488,-0.017241,0.04092,-0.05948200000000001,-0.005235,0.011805,0.004541
121,1.048611,-1.368945,0.704339,0.173729,0.9796969999999999,-0.099975,-0.009696,0.06218200000000001,-0.055184000000000004,0.001534,0.009408,-0.004044
122,1.047992,-1.369868,0.7021569999999999,0.17288399999999998,0.9798819999999999,-0.099632,0.00103,0.081294,-0.048724,0.003675,0.007774,-0.0035479999999999995
123,1.046793,-1.370632,0.699134,0.17211500000000002,0.980034,-0.099464,0.01067,0.09084400000000001,-0.0476,0.009693,0.005013,-0.006936
124,1.0454219999999999,-1.371306,0.6958260000000001,0.171406,0.980168,-0.099368,0.013866,0.095072,-0.042242,0.009945,0.0011099999999999999,-0.011503
125,1.0442040000000001,-1.371909,0.692617,0.170773,0.9802870000000001,-0.09927899999999999,0.011742,0.09721,-0.04226,0.0125,0.000395,-0.010844
126,1.043137,-1.372528,0.689657,0.17014200000000002,0.980409,-0.099155,0.008493,0.08656900000000001,-0.042269,0.013269,-0.001268,-0.009762999999999999
127,1.041807,-1.37305,0.686625,0.169569,0.980512,-0.099123,0.011651,0.07803099999999999,-0.041168,0.004,0.008059,-0.0032020000000000004
128,1.039914,-1.373593,0.68311,0.168923,0.980618,-0.099175,0.018061,0.07801799999999999,-0.043259,-0.003304,0.006305,-0.004661
129,1.037332,-1.374056,0.678812,0.168275,0.980709,-0.09938,0.02451,0.086526,-0.045362,-0.004106,0.011006,-0.002839
130,1.033932,-1.374522,0.67342,0.167542,0.9808,-0.099717,0.037399,0.098229,-0.052764,-0.0014349999999999999,0.011326000000000001,-0.006912000000000001
131,1.029742,-1.3749879999999999,0.667013,0.166729,0.980891,-0.10018200000000001,0.044915,0.106733,-0.054859000000000005,-0.0024530000000000003,0.016073,0.0045850000000000005
132,1.024484,-1.375321,0.659346,0.16592,0.9809559999999999,-0.100886,0.058827,0.11945499999999999,-0.051574,-0.007686,0.013338,0.004817
133,1.019183,-1.375572,0.651239,0.16517300000000001,0.9810040000000001,-0.101636,0.06104299999999999,0.13861800000000002,-0.050513999999999996,-0.006161,0.004164,0.0066040000000000005
134,1.014358,-1.3757469999999998,0.643247,0.164536,0.981038,-0.102341,0.058971,0.156718,-0.046279,-0.002503,0.005504,0.012802000000000001
135,1.010305,-1.375888,0.635822,0.164003,0.981066,-0.102934,0.057914,0.16203599999999999,-0.043088999999999995,-0.001893,0.00392,0.014402000000000002
136,1.006407,-1.376044,0.628718,0.163471,0.981096,-0.10349100000000001,0.052508000000000006,0.147136,-0.042039,-0.000599,0.003539,0.015447
137,1.002726,-1.376311,0.622087,0.162869,0.9811469999999999,-0.103951,0.043958,0.138665,-0.047429,0.003879,0.010186,0.016259
138,0.999632,-1.37678,0.616201,0.162158,0.9812379999999999,-0.10420499999999999,0.034332999999999995,0.129128,-0.051757000000000004,0.012067,0.008661,0.020632
139,0.996785,-1.3774549999999999,0.610946,0.161304,0.981368,-0.104306,0.01931,0.104701,-0.057172,0.006055,0.0010539999999999998,0.014599
140,0.995215,-1.3784809999999998,0.607395,0.160294,0.981564,-0.10400999999999999,-0.006318,0.092037,-0.064812,-0.006987999999999999,0.00719,0.021307
141,0.9950469999999999,-1.379736,0.605278,0.15924000000000002,0.9818030000000001,-0.10336500000000001,-0.021226,0.100603,-0.062791,-0.023437,0.007714,0.0235
142,0.996935,-1.381026,0.604883,0.15837,0.9820479999999999,-0.102375,-0.033956,0.122993,-0.056499,-0.026656,0.007927,0.020893000000000002
143,1.0002659999999999,-1.382399,0.605349,0.157575,0.9823059999999999,-0.101119,-0.040218000000000004,0.153908,-0.05658200000000001,-0.025022,0.005136,0.022154
144,1.003922,-1.383873,0.605613,0.156722,0.9825809999999999,-0.099764,-0.037965,0.175227,-0.061935000000000004,-0.019805,0.0104,0.014787999999999999
145,1.00752,-1.385476,0.605504,0.155748,0.982877,-0.098359,-0.038939999999999995,0.190165,-0.067302,-0.0096,0.0077540000000000005,0.009323999999999999
146,1.011464,-1.387211,0.6056229999999999,0.154691,0.983195,-0.09684,-0.049595,0.192338,-0.068448,-0.010023,0.0009660000000000001,0.0022960000000000003
147,1.0170059999999999,-1.3890850000000001,0.607304,0.153659,0.9835360000000001,-0.095013,-0.063449,0.196643,-0.067482,-0.014041,0.007201999999999999,0.002392
148,1.022891,-1.390933,0.6092420000000001,0.15266300000000002,0.9838680000000001,-0.093159,-0.059172,0.199819,-0.066388,-0.015212,0.009098,0.005375
149,1.028518,-1.392633,0.6107520000000001,0.151751,0.9841709999999999,-0.091435,-0.050604,0.20936799999999997,-0.064204,-0.015704,0.012655,0.006154
150,1.033146,-1.394189,0.610978,0.150857,0.9844450000000001,-0.089947,-0.035595999999999996,0.225295,-0.06411900000000001,-0.022317,0.013403,0.006665000000000001
151,1.036356,-1.395419,0.609528,0.150103,0.984661,-0.08884500000000001,-0.013168000000000001,0.240092,-0.05436799999999999,-0.017366999999999997,0.007862000000000001,0.006692
152,1.038255,-1.396293,0.606395,0.149531,0.9848129999999999,-0.088124,0.008198,0.253836,-0.046758,-0.006541,0.007268000000000001,0.004262
153,1.039087,-1.396966,0.602215,0.149034,0.98493,-0.08766399999999999,0.017747,0.244207,-0.044543,-0.005525,0.010768000000000002,0.004565
154,1.039076,-1.3975600000000001,0.597439,0.148529,0.985032,-0.087369,0.024066999999999998,0.22819699999999998,-0.042342000000000005,-0.004287,0.012648999999999999,0.0060090000000000005
155,1.0377049999999999,-1.398181,0.591421,0.14788199999999999,0.985139,-0.087262,0.034755,0.224994,-0.049741,-0.008463,0.008483,0.010281
156,1.034981,-1.3986100000000001,0.584291,0.147279,0.9852129999999999,-0.087448,0.045346,0.208973,-0.048577999999999996,-0.003831,0.007540000000000001,0.01242
157,1.0312059999999998,-1.39889,0.576159,0.14671099999999998,0.98526,-0.087862,0.058129999999999994,0.209972,-0.043149,-0.011564,0.009475,0.013277
158,1.027684,-1.399015,0.568493,0.146297,0.985282,-0.088315,0.05379,0.19931300000000002,-0.037824,-0.013409,0.008004,0.014966
159,1.023564,-1.39909,0.560476,0.14587,0.985295,-0.088879,0.061172000000000004,0.18011300000000002,-0.037748000000000004,-0.013302000000000001,0.014171000000000001,0.016293000000000002
160,1.018966,-1.399216,0.552109,0.14535499999999998,0.985316,-0.08948500000000001,0.063218,0.18412,-0.039958,-0.013443,0.006383,0.028343
161,1.013806,-1.399155,0.543275,0.14494300000000002,0.9853059999999999,-0.090266,0.067466,0.178783,-0.04099,-0.018418,0.010651,0.026362
162,1.0087030000000001,-1.399294,0.534458,0.14436500000000002,0.9853299999999999,-0.090931,0.06106,0.173496,-0.045301,-0.01996,0.014091,0.032444
163,1.003261,-1.399438,0.525353,0.143749,0.9853540000000001,-0.09164,0.066423,0.183052,-0.042071,-0.022854,0.003797,0.038370999999999995
164,0.998577,-1.3994879999999998,0.51671,0.143279,0.9853629999999999,-0.092286,0.055774000000000004,0.19053399999999998,-0.03895,-0.023406,0.002491,0.036424
165,0.995589,-1.399878,0.50995,0.14268,0.9854290000000001,-0.09250499999999999,0.034451,0.181072,-0.051905999999999994,-0.012751,0.006758,0.037299
166,0.993468,-1.400725,0.504393,0.141786,0.9855729999999999,-0.09235299999999999,0.01839,0.158796,-0.061603,-0.012651,0.002052,0.028129
167,0.992187,-1.401921,0.499777,0.140681,0.9857739999999999,-0.09189,-0.008166,0.17172300000000001,-0.074624,-0.025156,0.008046,0.022951
168,0.992617,-1.403461,0.49638999999999994,0.13945,0.986032,-0.091001,-0.0069700000000000005,0.19942100000000001,-0.07572000000000001,-0.041061,0.017462000000000002,0.033856
169,0.991718,-1.4046809999999998,0.490833,0.13836099999999998,0.986234,-0.09046699999999999,0.018855,0.248333,-0.075602,-0.042886,0.01314,0.028654000000000002
170,0.990392,-1.405653,0.48391300000000004,0.137438,0.986395,-0.090124,0.031777,0.284469,-0.065944,-0.028444,0.007853,0.021414
171,0.9871409999999999,-1.406466,0.47431599999999996,0.136474,0.9865280000000001,-0.090128,0.054397,0.324901,-0.07331499999999999,-0.025375,0.016768,0.016352000000000002
172,0.982416,-1.406958,0.462717,0.13564500000000002,0.986608,-0.090504,0.078925,0.335417,-0.060339,-0.005914,0.008020000000000001,0.011021
173,0.9765870000000001,-1.407052,0.449995,0.13503800000000002,0.986624,-0.091241,0.090527,0.323585,-0.042082999999999995,-0.040846,0.022333000000000002,0.041314
174,0.967827,-1.405044,0.43792200000000003,0.13586700000000002,0.986294,-0.093545,0.15709700000000001,0.201825,-0.020097,0.030194,-0.005749,-0.041053
175,0.963326,-1.40529,0.42658999999999997,0.135246,0.9863350000000001,-0.09401799999999999,0.04049,0.335525,-0.054198,0.005028,-0.000327,0.012505
176,0.958835,-1.405584,0.41606899999999997,0.13458499999999998,0.986383,-0.094457,0.070151,0.283244,-0.059265,0.004698,0.00086,-0.017893
177,0.955211,-1.406028,0.40686500000000003,0.133882,0.986456,-0.09469,0.04657,0.26413000000000003,-0.054064,0.003843,0.005914,-0.007573999999999999
178,0.952189,-1.406123,0.39870500000000003,0.133518,0.9864719999999999,-0.095039,0.049674,0.250241,-0.046547000000000005,-0.003757,0.008232999999999999,-0.007347
179,0.949441,-1.4062270000000001,0.390924,0.133173,0.986489,-0.095347,0.050674000000000004,0.241689,-0.040119999999999996,-0.004588,0.004188,-0.00411
180,0.945924,-1.406104,0.382646,0.132937,0.986469,-0.095886,0.062319000000000006,0.22777399999999998,-0.033611,-0.011599,0.005246,-0.004303
181,0.941643,-1.405804,0.373783,0.13276400000000002,0.9864200000000001,-0.09662799999999999,0.06865299999999999,0.21708200000000002,-0.02928,0.0037869999999999996,0.006027,-0.008749
182,0.936984,-1.4053280000000001,0.364871,0.132691,0.986341,-0.097524,0.076001,0.198913,-0.020659999999999998,0.011352,0.005343,-0.006114
183,0.931931,-1.4045729999999998,0.35594499999999996,0.132796,0.986217,-0.098639,0.08118600000000001,0.17860299999999998,-0.007779,0.017381,0.0024460000000000003,-0.009561
184,0.9275129999999999,-1.403756,0.348371,0.13300399999999998,0.986081,-0.099708,0.067106,0.138146,-0.001416,0.01197,0.005618,-0.00837
185,0.924133,-1.403076,0.342541,0.13320099999999999,0.9859680000000001,-0.10056,0.055246,0.11049,-0.001464,0.004021,-0.003073,-0.00941
186,0.921326,-1.402547,0.33771100000000004,0.133332,0.9858790000000001,-0.101248,0.044506,0.090304,-0.005786,-0.0032049999999999995,0.000739,-0.006357
187,0.9187569999999999,-1.402113,0.333497,0.133412,0.985807,-0.10185,0.036966000000000006,0.07329,-0.006885,-0.005711,-0.000974,-0.0058
188,0.91743,-1.401931,0.33098,0.133419,0.985776,-0.102136,0.008065000000000001,0.048902,-0.01026,0.004108,0.0049770000000000005,-0.000128
189,0.917375,-1.402042,0.330148,0.133327,0.9857950000000001,-0.102077,0.001558,0.02655,-0.009209,0.00044699999999999997,0.005706,0.009441
190,0.9166129999999999,-1.401974,0.32877,0.133302,0.985783,-0.10222,0.014316999999999998,0.022223,-0.003773,0.001662,0.005915999999999999,-0.0027300000000000002
191,0.9166479999999999,-1.402091,0.328556,0.133214,0.9858030000000001,-0.102145,-0.013484000000000001,0.0063490000000000005,-0.006083,-0.0065049999999999995,0.011389,0.007234999999999999
192,0.9166799999999999,-1.402232,0.328469,0.133108,0.985827,-0.10205700000000001,0.0035859999999999998,0.00629,-0.005964,0.0016879999999999998,0.008085,0.006155
193,0.9167620000000001,-1.4023139999999998,0.328422,0.133052,0.9858399999999999,-0.101996,-0.0039109999999999995,0.004168,-0.001741,-0.006022,0.006256,0.0076359999999999996
194,0.917349,-1.402403,0.329083,0.133042,0.9858549999999999,-0.101864,-0.011436,-0.0064670000000000005,0.000357,-0.013106999999999999,0.007187000000000001,0.007946
195,0.919061,-1.402623,0.330881,0.133043,0.985892,-0.101505,-0.017818,-0.0011220000000000002,0.001374,-0.004884,0.007837,0.018787
196,0.9198729999999999,-1.402832,0.331687,0.132962,0.985927,-0.101272,-0.006025,0.002071,-0.008162,0.005878,0.012837000000000001,0.028671
197,0.9198219999999999,-1.403097,0.33162600000000003,0.132749,0.9859709999999999,-0.10112,-0.007126,-0.004321,-0.007093,-0.027402,0.0007379999999999999,0.019500999999999998
198,0.9220430000000001,-1.403422,0.333983,0.132717,0.9860260000000001,-0.100631,-0.039169999999999996,-0.0021219999999999998,0.0033619999999999995,-0.035976999999999995,-0.0023829999999999997,0.007918999999999999
199,0.9282459999999999,-1.404215,0.339992,0.132713,0.986157,-0.099337,-0.071017,0.023594999999999998,-0.006506999999999999,-0.026344,0.021808,0.012362
200,0.934085,-1.405397,0.345104,0.132354,0.986353,-0.097868,-0.053727,0.047073000000000004,-0.032054,-0.02362,0.032080000000000004,0.029158
201,0.9350930000000001,-1.406527,0.344748,0.131557,0.9865379999999999,-0.09707400000000001,-0.012912999999999999,0.083249,-0.056384000000000004,-0.028362000000000002,0.033176,0.033323
202,0.930499,-1.407556,0.33778600000000003,0.13029300000000002,0.986706,-0.097069,0.034355000000000004,0.133242,-0.078551,-0.04521,0.021549000000000002,0.04493
203,0.9222809999999999,-1.40825,0.325972,0.128946,0.9868180000000001,-0.097724,0.069849,0.197034,-0.078385,-0.054071,0.008634999999999999,0.040961000000000004
204,0.9133190000000001,-1.408469,0.312082,0.127894,0.9868540000000001,-0.098743,0.089292,0.257658,-0.070849,-0.039758999999999996,0.0075769999999999995,0.037752999999999995
205,0.9076200000000001,-1.408595,0.300346,0.12723099999999998,0.986874,-0.09939400000000001,0.067041,0.313044,-0.049711,-0.026843000000000002,0.015384,0.032636
206,0.906726,-1.4088,0.292715,0.12698299999999998,0.986907,-0.099383,0.036164999999999996,0.335489,-0.041408999999999994,-0.029708,0.011506,0.033816000000000006
207,0.906329,-1.40917,0.28515999999999997,0.126657,0.986967,-0.099209,0.04913,0.365297,-0.047766,-0.029031,0.010699,0.036618
208,0.9037059999999999,-1.409471,0.27471999999999996,0.126162,0.987015,-0.099356,0.071707,0.394019,-0.057260000000000005,-0.023425,0.014541,0.023291
209,0.8991899999999999,-1.409433,0.26205,0.12574200000000002,0.987009,-0.099949,0.087758,0.401433,-0.060362,-0.023142,0.009573,0.020862000000000002
210,0.894806,-1.409412,0.249414,0.12532000000000001,0.9870059999999999,-0.100513,0.079237,0.406781,-0.058292,-0.017547,0.0039,0.017688
211,0.891727,-1.409548,0.237918,0.124905,0.987028,-0.100814,0.072768,0.41720799999999997,-0.05736,-0.018536,0.008806999999999999,0.015777
212,0.888918,-1.4095879999999998,0.226516,0.12459100000000001,0.987034,-0.10114,0.070668,0.422551,-0.059517999999999995,-0.016162,0.007229000000000001,0.017628
213,0.885323,-1.409669,0.21423000000000003,0.12416500000000001,0.9870469999999999,-0.101537,0.08245599999999999,0.431044,-0.062651,-0.015903999999999998,0.006453,0.021138
214,0.8806860000000001,-1.4096819999999999,0.20068,0.12368299999999999,0.987049,-0.102103,0.091029,0.439537,-0.062602,-0.005733,0.006924,0.009955
215,0.875973,-1.4094879999999999,0.187124,0.123348,0.9870180000000001,-0.102807,0.08883300000000001,0.428879,-0.059399,0.001256,0.003918,0.009393
216,0.872007,-1.409247,0.17480199999999999,0.12312200000000001,0.986979,-0.10345,0.082245,0.397966,-0.048723,0.007645999999999999,0.004536999999999999,0.013179
217,0.8688309999999999,-1.408962,0.163917,0.12300699999999999,0.986933,-0.104022,0.079929,0.368103,-0.038019,0.009775,0.007314,0.009401999999999999
218,0.866433,-1.408633,0.154373,0.12300599999999999,0.98688,-0.104528,0.061639,0.33832199999999996,-0.033835000000000004,0.009425,0.006345,0.004018
219,0.8650899999999999,-1.408501,0.14657,0.122965,0.986859,-0.104777,0.05509,0.30426,-0.034906,0.009207,0.014133000000000001,0.002681
220,0.863137,-1.408228,0.138826,0.122965,0.986815,-0.10519200000000001,0.063471,0.275447,-0.029469,0.012152,-0.002516,0.010099
221,0.8602870000000001,-1.407828,0.13061099999999998,0.12296300000000002,0.98675,-0.105799,0.06548999999999999,0.249873,-0.029422000000000004,0.003257,-0.0010019999999999999,0.006831
222,0.85754,-1.407525,0.123208,0.12289800000000001,0.986701,-0.106332,0.047189999999999996,0.214779,-0.028437,0.008265999999999999,0.004312,0.001093
223,0.856318,-1.407369,0.11806300000000002,0.122886,0.986675,-0.10658499999999999,0.037382,0.178555,-0.018844999999999997,0.010781,-0.000713,-0.0041329999999999995
224,0.855664,-1.407042,0.114003,0.12305899999999999,0.9866219999999999,-0.106876,0.036176,0.158276,-0.008145,0.016040000000000002,0.004451,-0.004117
225,0.8554129999999999,-1.406687,0.11096700000000001,0.123296,0.986564,-0.107136,0.027469,0.12313900000000001,-0.004956,0.015895,0.008095,-0.0055049999999999995
226,0.854886,-1.406539,0.108377,0.123349,0.98654,-0.107296,0.016676,0.086992,-0.013531,0.013965,0.010118,-0.001576
227,0.8535590000000001,-1.406675,0.10575599999999999,0.12310499999999999,0.986562,-0.10737100000000001,0.01014,0.048699,-0.022074,0.021533,-0.008672,-0.002644
228,0.8520409999999999,-1.406901,0.10385699999999999,0.122774,0.986599,-0.10741099999999999,-0.0018399999999999998,-0.0024059999999999997,-0.018887,0.02899,-0.007382,-0.003887
229,0.8515879999999999,-1.407216,0.10436500000000001,0.122491,0.9866510000000001,-0.10726199999999998,-0.022503,-0.075894,-0.00505,0.030844,-0.000292,0.0023420000000000003
230,0.853684,-1.4075389999999999,0.108827,0.122475,0.9867030000000001,-0.106795,-0.048491,-0.137683,0.018348,0.034248,-0.0028469999999999997,-0.004991
231,0.8581469999999999,-1.4078389999999998,0.116826,0.122726,0.9867520000000001,-0.106053,-0.062663,-0.19095299999999998,0.032204,0.033768,-0.005963,-0.010402
232,0.862857,-1.4080700000000002,0.126171,0.123052,0.9867889999999999,-0.105327,-0.065084,-0.247435,0.039737,0.033351,-0.001941,-0.006229999999999999
233,0.8671760000000001,-1.4081780000000002,0.136381,0.123424,0.986807,-0.104725,-0.06862,-0.313504,0.048343000000000004,0.039646,-0.007559000000000001,-0.0044210000000000005
234,0.872332,-1.4083,0.14891400000000002,0.12387000000000001,0.986826,-0.10400899999999999,-0.089284,-0.390175,0.058979,0.045274,-0.006159,-0.002863
235,0.878281,-1.408483,0.163684,0.124347,0.986856,-0.103155,-0.10455999999999999,-0.457268,0.067504,0.044446,-0.001352,-0.002711
236,0.885083,-1.408716,0.180627,0.12486900000000001,0.986894,-0.102162,-0.11875,-0.520105,0.076031,0.045129,-0.002625,-0.000301
237,0.8927459999999999,-1.409043,0.199725,0.125397,0.9869459999999999,-0.101,-0.138261,-0.58397,0.08025,0.041458,-0.003807,-0.003889
238,0.9008209999999999,-1.409515,0.22065900000000002,0.125842,0.987022,-0.099694,-0.149255,-0.656371,0.08026599999999999,0.039883,-0.002052,0.002908
239,0.9092309999999999,-1.409825,0.243135,0.126436,0.987072,-0.098445,-0.15276700000000001,-0.709687,0.096333,0.030455,0.005711,0.011851
240,0.917566,-1.4099899999999999,0.266478,0.127123,0.987099,-0.097289,-0.15406,-0.74808,0.108124,0.026227999999999998,0.007591,0.014083000000000002
241,0.9265260000000001,-1.410016,0.290986,0.127969,0.9871030000000001,-0.09613,-0.159519,-0.772575,0.111322,0.018134,0.018345,0.022994999999999998
242,0.934775,-1.410037,0.315205,0.128741,0.9871059999999999,-0.09506,-0.153185,-0.789633,0.109251,0.0050479999999999995,0.008927,0.021558
243,0.9416180000000001,-1.409949,0.33827399999999996,0.129459,0.987092,-0.09422699999999999,-0.142549,-0.798188,0.108268,0.003949,0.003387,0.028691
244,0.948224,-1.409831,0.361194,0.130174,0.987073,-0.093439,-0.146865,-0.804582,0.11251900000000001,0.0007769999999999999,0.003436,0.038889
245,0.9559040000000001,-1.409615,0.385333,0.131063,0.987038,-0.09256,-0.152285,-0.809945,0.126375,-0.005757,0.002326,0.036942
246,0.964987,-1.409324,0.410839,0.132133,0.986992,-0.091528,-0.160806,-0.802475,0.130579,-0.012565,0.004967,0.02793
247,0.9743649999999999,-1.408989,0.43675299999999995,0.133259,0.9869379999999999,-0.09047100000000001,-0.160859,-0.8141930000000001,0.13059300000000001,-0.008411,-0.001144,0.023561000000000002
248,0.983727,-1.4087,0.462908,0.134338,0.986891,-0.089378,-0.17052799999999999,-0.829073,0.130545,0.006561,-0.008314,0.022071
249,0.9947940000000001,-1.408596,0.490967,0.135406,0.986874,-0.08794199999999999,-0.190774,-0.828981,0.12506199999999998,0.014237,0.019809,0.024526
250,1.00629,-1.408829,0.519437,0.136213,0.9869120000000001,-0.086256,-0.201409,-0.832097,0.11431,0.005739,0.037548000000000005,0.027861
251,1.01775,-1.409053,0.547917,0.137005,0.9869479999999999,-0.084574,-0.198208,-0.832108,0.11433199999999999,-0.021999,-0.0015970000000000001,0.033335000000000004
252,1.029015,-1.4093129999999998,0.575947,0.137728,0.9869899999999999,-0.082892,-0.20236099999999999,-0.819259,0.10146799999999999,-0.031435000000000005,-0.0022789999999999998,0.033972
253,1.040229,-1.4098680000000001,0.603582,0.138176,0.987079,-0.081065,-0.198935,-0.789362,0.081157,-0.046257,0.010144,0.049677
254,1.050927,-1.410349,0.6302399999999999,0.138623,0.9871559999999999,-0.079346,-0.196734,-0.765968,0.089689,-0.044354000000000005,0.012325,0.059632000000000004
255,1.063166,-1.410425,0.657378,0.139517,0.987168,-0.077606,-0.186969,-0.707501,0.112115,-0.043524,0.006255,0.053909000000000006
256,1.076992,-1.4103620000000001,0.685178,0.140631,0.987158,-0.075699,-0.18673399999999998,-0.658486,0.108849,-0.031668,0.022562,0.04741
257,1.088818,-1.410283,0.7100770000000001,0.141586,0.987145,-0.074067,-0.16842000000000001,-0.6371720000000001,0.09079,-0.034851,0.016914,0.048645999999999995
258,1.098615,-1.410138,0.731553,0.142432,0.9871219999999999,-0.072742,-0.13915999999999998,-0.54456,0.08233,-0.035697,0.016937,0.047320999999999995
259,1.107683,-1.410296,0.751106,0.142947,0.9871469999999999,-0.071378,-0.13458599999999998,-0.494435,0.064137,-0.031909,0.023244,0.040692
260,1.11642,-1.4105860000000001,0.769836,0.143307,0.987194,-0.07,-0.14196199999999998,-0.48690100000000003,0.051258000000000005,-0.025906000000000002,0.022541,0.050072000000000005
261,1.124603,-1.411098,0.7872140000000001,0.14341800000000002,0.987275,-0.068607,-0.122476,-0.43048400000000003,0.044912,-0.044297,0.007079,0.053377999999999995
262,1.132914,-1.411412,0.803778,0.143703,0.987325,-0.067281,-0.119184,-0.384928,0.046939,-0.043056,0.029307,0.061925
263,1.140957,-1.4115719999999998,0.8187840000000001,0.144095,0.987351,-0.066057,-0.10176,-0.309341,0.043759,-0.048041,0.03305,0.058503999999999994
264,1.148223,-1.411614,0.831835,0.144532,0.9873569999999999,-0.064991,-0.077021,-0.26468600000000003,0.043875,-0.062791,0.027093,0.05994
265,1.151465,-1.411607,0.839736,0.14475,0.9873559999999999,-0.064525,-0.03614,-0.20617,0.026994,-0.063161,0.027491,0.049937999999999996
266,1.1513229999999999,-1.4114520000000002,0.842858,0.14488099999999998,0.987332,-0.064609,-0.002731,-0.135961,0.022864,-0.051376,0.020435,0.040347
267,1.150335,-1.411093,0.843849,0.14514200000000002,0.987274,-0.064897,0.010282,-0.081707,0.030363,-0.035797,0.017196,0.041947000000000005
268,1.1499709999999999,-1.4105299999999998,0.8446879999999999,0.145625,0.9871850000000001,-0.065176,0.008244,-0.051905999999999994,0.038857,-0.029536,0.0075049999999999995,0.042166
269,1.151018,-1.410126,0.846748,0.146057,0.9871200000000001,-0.06518600000000001,-0.005582,-0.050759,0.030213,-0.024231,0.008073,0.043397000000000005
270,1.151184,-1.4098870000000001,0.847943,0.146285,0.987082,-0.065259,0.006202,-0.049696,0.02068,-0.022368,0.015802,0.05087
271,1.150007,-1.409494,0.8475950000000001,0.146563,0.9870190000000001,-0.06559,0.019052,-0.034844,0.025023,-0.026262999999999998,0.017254,0.049828
272,1.149357,-1.4089260000000001,0.847385,0.147033,0.986928,-0.065915,0.013784999999999999,-0.01779,0.027101,-0.027419,0.013316999999999999,0.050107
273,1.149817,-1.408622,0.8480530000000001,0.147336,0.9868790000000001,-0.06597,0.006408,-0.004951,0.019556,-0.024671000000000002,0.017928,0.048315
274,1.149757,-1.408399,0.847951,0.147533,0.986843,-0.066068,0.01289,0.004647999999999999,0.011043,-0.023722999999999998,0.017995,0.048001999999999996
275,1.14925,-1.4082620000000001,0.847115,0.147624,0.98682,-0.06619900000000001,0.013015,0.024918,0.0035399999999999997,-0.028803,0.015513999999999998,0.038092
276,1.148495,-1.408164,0.845592,0.14766300000000002,0.9868040000000001,-0.06635,0.019522,0.044088,-0.000712,-0.033451,0.01492,0.041219
277,1.1471930000000001,-1.40808,0.8430040000000001,0.147653,0.986791,-0.066577,0.034568,0.072781,0.0036299999999999995,-0.021112,0.012980000000000002,0.035114
278,1.14494,-1.407721,0.8390799999999999,0.147826,0.986733,-0.06705599999999999,0.046337,0.08444,0.00797,-0.016890000000000002,0.012855000000000002,0.036095999999999996
279,1.141573,-1.407138,0.833784,0.148119,0.9866379999999999,-0.06779199999999999,0.057063,0.09930800000000001,0.010162000000000001,-0.016085,0.012355,0.039212000000000004
280,1.138192,-1.406741,0.8281850000000001,0.148243,0.9865729999999999,-0.068455,0.055011000000000004,0.109998,0.002656,-0.014988,0.012862,0.039723
281,1.13457,-1.406442,0.822111,0.14826199999999998,0.986524,-0.069116,0.059374,0.124923,-0.003742,-0.013113999999999999,0.01018,0.032114
282,1.130285,-1.406088,0.814955,0.148281,0.986466,-0.0699,0.06269,0.145173,-0.009085,-0.013866,0.0075829999999999995,0.031585
283,1.126133,-1.40584,0.807599,0.14820999999999998,0.986425,-0.07062,0.065962,0.156897,-0.013350999999999998,-0.0065780000000000005,0.0038090000000000003,0.03435
284,1.122124,-1.40564,0.800165,0.14810299999999998,0.9863930000000001,-0.0713,0.066025,0.168623,-0.015502000000000002,-0.001848,0.01051,0.026987999999999998
285,1.1175540000000002,-1.405391,0.7921239999999999,0.147998,0.986352,-0.07208400000000001,0.06816799999999999,0.168624,-0.017623,-0.003833,0.007240000000000001,0.029405
286,1.113328,-1.4051639999999999,0.784342,0.147894,0.9863139999999999,-0.072808,0.062848,0.17396099999999998,-0.015531,-0.008123,0.008055,0.030694
287,1.109816,-1.4050129999999998,0.7772479999999999,0.147771,0.986289,-0.073393,0.060733,0.173985,-0.019818000000000002,-0.004445,0.020486,0.032514999999999995
288,1.105345,-1.404852,0.769204,0.147584,0.9862629999999999,-0.074125,0.07033500000000001,0.17289000000000002,-0.020818,-0.0029760000000000003,0.0145,0.031843
289,1.099803,-1.404519,0.760023,0.147465,0.986208,-0.07509099999999999,0.082076,0.177098,-0.017537,-0.0035590000000000005,0.006117,0.028872000000000002
290,1.093956,-1.40411,0.750417,0.14738199999999999,0.98614,-0.076138,0.084228,0.182412,-0.01646,-0.001645,0.004155,0.027232999999999997
291,1.089045,-1.403749,0.741861,0.147322,0.98608,-0.077026,0.069254,0.172881,-0.017621,-0.00037999999999999997,0.003742,0.028518
292,1.0836370000000002,-1.4034200000000001,0.733011,0.14719100000000002,0.986025,-0.077974,0.083066,0.15898900000000002,-0.018575,0.001948,0.013212,0.026414
293,1.078433,-1.403058,0.7245659999999999,0.147099,0.985965,-0.078908,0.070244,0.15901600000000002,-0.014391999999999999,-0.012912999999999999,0.006345,0.035604000000000004
294,1.074094,-1.40277,0.716763,0.147005,0.985917,-0.07968099999999999,0.066068,0.171844,-0.021915,-0.015184999999999999,0.008453,0.027526
295,1.069404,-1.402592,0.70839,0.146786,0.9858870000000001,-0.080455,0.074679,0.180371,-0.030411,-0.0035670000000000003,0.012633,0.028620999999999997
296,1.063305,-1.402312,0.698407,0.146535,0.9858399999999999,-0.081484,0.08430499999999999,0.18884700000000001,-0.02715,0.001033,0.010315000000000001,0.026613
297,1.05769,-1.401993,0.688893,0.146351,0.985786,-0.082461,0.074675,0.18673299999999998,-0.022941999999999997,-0.004109000000000001,0.00031299999999999996,0.013109
298,1.053712,-1.401889,0.681121,0.146112,0.985769,-0.083094,0.059734,0.181475,-0.027312,0.0037600000000000003,0.0036409999999999997,0.014612
299,1.0500200000000002,-1.401878,0.673734,0.145814,0.9857670000000001,-0.083638,0.055461,0.176181,-0.031608,0.009032,0.010876,0.021001
300,1.046634,-1.4019469999999998,0.666814,0.14547100000000002,0.9857790000000001,-0.084097,0.046888,0.166628,-0.032724,0.005468,0.0038759999999999997,0.013341999999999998
301,1.0439379999999998,-1.4021270000000001,0.660774,0.14509,0.985809,-0.0844,0.042602,0.161321,-0.033816000000000006,-0.007899,0.002548,0.014011000000000001
302,1.040778,-1.402253,0.654239,0.144716,0.9858299999999999,-0.08479500000000001,0.049022,0.167681,-0.031642,-0.008272,0.008402,0.013323
303,1.03766,-1.402247,0.647547,0.144457,0.9858290000000001,-0.08525,0.053313,0.17511500000000002,-0.029486000000000002,-0.0033590000000000004,0.012431000000000001,0.0070480000000000004
304,1.033857,-1.4021370000000002,0.640191,0.144225,0.9858110000000001,-0.085854,0.061810000000000004,0.168685,-0.027282,-0.000381,0.009261,0.013938999999999998
305,1.029179,-1.401844,0.632005,0.144071,0.9857610000000001,-0.086677,0.070326,0.17076,-0.020815,-0.002866,0.00551,0.014931
306,1.0245090000000001,-1.40152,0.6238640000000001,0.143938,0.985707,-0.087516,0.064948,0.163313,-0.018706999999999998,-0.0025960000000000002,0.002376,0.011329
307,1.020987,-1.401249,0.617239,0.14385699999999998,0.985661,-0.088162,0.052039999999999996,0.14310499999999998,-0.015567,-0.001462,0.005779,0.012707
308,1.017906,-1.4009690000000001,0.611317,0.143819,0.985614,-0.088749,0.053064,0.13563599999999998,-0.013413,0.000361,0.007642,0.013508000000000001
309,1.0145790000000001,-1.400666,0.605272,0.143777,0.985563,-0.089385,0.055169,0.128176,-0.014457,0.004843999999999999,0.005358,0.010756
310,1.01111,-1.4003780000000001,0.5994,0.143705,0.9855139999999999,-0.090033,0.048677,0.107958,-0.014477,0.002611,0.003912,0.01229
311,1.008558,-1.40015,0.594739,0.143663,0.985475,-0.090518,0.037946,0.099452,-0.0092,-0.003557,0.004729,0.009982
312,1.0066680000000001,-1.399889,0.590793,0.143708,0.985431,-0.09092599999999999,0.035807,0.100516,-0.0070799999999999995,-0.0063939999999999995,0.005536,0.007918999999999999
313,1.005534,-1.399641,0.587623,0.14381,0.985389,-0.09121900000000001,0.030352999999999998,0.09818099999999999,-0.005052,-0.006023,0.006036,0.017611
314,1.0043799999999998,-1.399448,0.584403,0.14386300000000002,0.9853559999999999,-0.091486,0.028252999999999997,0.103524,-0.007209999999999999,-0.010089,0.009258,0.020914
315,1.003234,-1.39935,0.581032,0.14383800000000002,0.985339,-0.09170199999999999,0.026186,0.112079,-0.013645,-0.011392,0.010053,0.026913
316,1.0020870000000002,-1.399446,0.5773560000000001,0.143652,0.985355,-0.091815,0.026314999999999998,0.132353,-0.022216,-0.024541999999999998,0.010281,0.030826
317,1.000793,-1.399608,0.572917,0.143398,0.985383,-0.091914,0.030784,0.169652,-0.029710000000000004,-0.026912000000000002,0.01065,0.030772000000000004
318,0.999367,-1.399825,0.567592,0.14308900000000002,0.9854200000000001,-0.092004,0.035205,0.199482,-0.03399,-0.024253,0.010048,0.02398
319,0.9979969999999999,-1.400139,0.561774,0.142702,0.9854729999999999,-0.092032,0.04175,0.22611199999999998,-0.039319,-0.011705,0.00618,0.024283000000000002
320,0.995642,-1.4004379999999998,0.554549,0.142237,0.985524,-0.09220700000000001,0.046137,0.246363,-0.045724,-0.011119,0.008265999999999999,0.024107
321,0.9939540000000001,-1.40091,0.547603,0.14169,0.985604,-0.092193,0.034522000000000004,0.266669,-0.052240999999999996,-0.01254,0.013511000000000002,0.02333
322,0.993128,-1.401535,0.5411199999999999,0.141097,0.9857090000000001,-0.091972,0.029274,0.28692399999999996,-0.051235,-0.009290999999999999,0.002892,0.012383
323,0.993843,-1.40222,0.5358569999999999,0.140596,0.985825,-0.091503,0.016505000000000002,0.294425,-0.051334000000000005,0.001982,-0.007217,-0.004093
324,0.995286,-1.40304,0.531591,0.140049,0.9859620000000001,-0.09086,0.003607,0.269982,-0.054597,0.004757,-0.005966,-0.012503
325,0.9972700000000001,-1.404125,0.5287689999999999,0.13932999999999998,0.986142,-0.090001,-0.015832,0.21679,-0.055733000000000005,0.015638,0.001178,-0.021327000000000002
326,0.998866,-1.405232,0.526806,0.13855599999999998,0.986325,-0.089188,-0.011876000000000001,0.14965499999999998,-0.053483,0.026712,0.010836,-0.024322
327,0.99803,-1.405969,0.523886,0.13786900000000002,0.986447,-0.088909,0.007968000000000001,0.071752,-0.036153,0.029810000000000003,0.011829000000000001,-0.013356
328,0.995138,-1.4060190000000001,0.520487,0.13757,0.986455,-0.08928,0.023487,-0.006188,-0.006035,0.028293000000000002,0.005855,-0.0058130000000000005
329,0.992972,-1.405566,0.519365,0.137751,0.9863799999999999,-0.089822,0.015553999999999998,-0.080845,0.022848,0.028234,0.000848,-0.004096
330,0.993017,-1.404841,0.521859,0.138353,0.986261,-0.090206,-0.010435,-0.14263499999999998,0.046245999999999995,0.040251,-0.014078,-0.003956
331,0.997084,-1.404269,0.529431,0.139193,0.986166,-0.089949,-0.054425,-0.18726600000000002,0.056678,0.039564,-0.019369,-0.004228
332,1.00324,-1.4041620000000001,0.540147,0.13983199999999998,0.9861489999999999,-0.089147,-0.082346,-0.244625,0.039465,0.040054,-0.0032380000000000004,0.003987
333,1.009676,-1.404683,0.552405,0.139969,0.9862350000000001,-0.08797200000000001,-0.110286,-0.303062,0.025458,0.037964,-0.000319,0.010747
334,1.01836,-1.4053870000000002,0.567754,0.14013599999999998,0.986351,-0.086388,-0.133944,-0.332855,0.037082,0.034776,3.8e-05,0.018472
335,1.028224,-1.405999,0.5848220000000001,0.140465,0.986452,-0.084691,-0.137302,-0.363753,0.041371,0.027152999999999997,-0.001115,0.018009999999999998
336,1.03806,-1.406606,0.60263,0.140775,0.9865510000000001,-0.083001,-0.142795,-0.398888,0.041377,0.021197,0.00527,0.031213
337,1.048296,-1.407189,0.62132,0.14112,0.9866459999999999,-0.08126900000000001,-0.146101,-0.415947,0.047785,0.013040000000000001,0.010836,0.041993
338,1.058241,-1.4075950000000002,0.639822,0.141573,0.986712,-0.079666,-0.132241,-0.41388199999999997,0.052152,-0.007372,0.019986,0.048614
339,1.0661,-1.407746,0.655938,0.14206300000000002,0.9867370000000001,-0.07847799999999999,-0.107598,-0.392654,0.050161000000000004,-0.03336,0.027225,0.055697
340,1.072336,-1.407746,0.669567,0.142549,0.9867370000000001,-0.07758999999999999,-0.08816,-0.340523,0.050230000000000004,-0.051042000000000004,0.026599,0.061385
341,1.078159,-1.40767,0.6815829999999999,0.143064,0.9867239999999999,-0.076794,-0.071845,-0.278764,0.042787,-0.052579999999999995,0.019578,0.054669
342,1.0828229999999999,-1.407609,0.691116,0.143475,0.986714,-0.076155,-0.06299400000000001,-0.214852,0.036358,-0.046139,0.011287,0.052854
343,1.087591,-1.4077620000000002,0.699561,0.143704,0.9867389999999999,-0.0754,-0.057348,-0.1573,0.024572999999999998,-0.04765,0.005845,0.052573
344,1.0919379999999999,-1.408264,0.706426,0.14358900000000002,0.986821,-0.074546,-0.049563,-0.101872,0.009601,-0.047214,0.025675999999999997,0.05379400000000001
345,1.094963,-1.408692,0.710916,0.143439,0.9868899999999999,-0.073918,-0.030077,-0.048638,5.5e-05,-0.045402,0.025606999999999998,0.054616
346,1.096641,-1.409024,0.712911,0.143271,0.986943,-0.073527,-0.010648000000000001,0.005607,0.0043939999999999995,-0.037420999999999996,0.022394999999999998,0.041408
347,1.0977540000000001,-1.4091120000000001,0.7134159999999999,0.143276,0.986958,-0.07332899999999999,0.007651000000000001,0.041762,0.004476,-0.028286000000000002,0.01347,0.030467
348,1.09768,-1.409149,0.712202,0.143238,0.9869629999999999,-0.073323,0.014168,0.06094,-0.001913,-0.02338,0.005407,0.029316000000000002
349,1.097313,-1.4092850000000001,0.7104189999999999,0.143092,0.986985,-0.073314,0.013177000000000001,0.071622,-0.008343000000000001,-0.019328,0.007018000000000001,0.022044
350,1.097146,-1.4093930000000001,0.708753,0.142986,0.9870030000000001,-0.07329,0.00892,0.07589,-0.006241,-0.018382,0.007458,0.023836000000000003
351,1.0976629999999998,-1.409577,0.7076100000000001,0.142862,0.987032,-0.073133,0.010020000000000001,0.085465,-0.00411,-0.005899000000000001,0.014127,0.015591999999999998
352,1.097337,-1.409649,0.705737,0.142776,0.987044,-0.073148,0.017411000000000003,0.067333,-0.005103,0.005539,0.002595,0.011106
353,1.09585,-1.4095879999999998,0.703151,0.14272200000000002,0.987034,-0.073388,0.021588,0.046017,-0.006115,0.005289,0.00581,0.011926
354,1.094645,-1.409504,0.701418,0.142707,0.9870209999999999,-0.073598,0.011793999999999999,0.012988999999999999,0.0034729999999999995,0.007790000000000001,0.014261000000000001,0.023107
355,1.093194,-1.409226,0.700026,0.142843,0.9869760000000001,-0.073931,0.023367,-0.013722,0.013202,-0.006445,0.003152,0.030626
356,1.091344,-1.408699,0.698443,0.14316800000000002,0.986891,-0.074435,0.026543,-0.012693000000000001,0.019633,-0.020288999999999998,0.006426,0.032672
357,1.0889229999999999,-1.4080540000000001,0.695974,0.143551,0.9867870000000001,-0.075076,0.039466,0.012833,0.018622,-0.023968,0.013549,0.038532
358,1.086729,-1.4073209999999998,0.6928989999999999,0.144027,0.986668,-0.075728,0.040705,0.050118,0.017514,-0.0037380000000000004,0.008205,0.040679
359,1.085984,-1.4068829999999999,0.691113,0.144353,0.9865959999999999,-0.07603700000000001,0.019396,0.047035,0.007756,-0.007176,0.005591,0.047076
360,1.085797,-1.406835,0.690013,0.14438099999999998,0.9865879999999999,-0.076086,0.005594,0.047143,-0.0072959999999999995,-0.008319,0.008329999999999999,0.047125
361,1.085988,-1.407147,0.689157,0.144123,0.9866389999999999,-0.075915,0.007790000000000001,0.05355700000000001,-0.014766,-0.003849,0.013925,0.047274000000000004
362,1.085572,-1.4073149999999999,0.6875640000000001,0.14394500000000002,0.986667,-0.07589800000000001,0.009934,0.058863,-0.011554,-0.003198,0.010449,0.038482999999999996
363,1.085314,-1.407433,0.686131,0.143823,0.9866860000000001,-0.07588099999999999,0.010990999999999999,0.058851,-0.00941,-0.005273,0.0063560000000000005,0.041274
364,1.085068,-1.4074790000000001,0.684735,0.143763,0.986693,-0.075895,0.018321,0.052208000000000004,-0.00621,-0.006906999999999999,0.010575,0.033597
365,1.08376,-1.407417,0.6825829999999999,0.143718,0.986683,-0.076111,0.020364,0.033022,-0.005103,-0.003826,0.010692,0.033814
366,1.082402,-1.407309,0.680713,0.14371,0.9866659999999999,-0.07635700000000001,0.021349,0.019153,-0.000805,0.000974,0.018446,0.036196
367,1.081561,-1.407186,0.6795899999999999,0.143754,0.9866459999999999,-0.076535,0.014886000000000002,0.007449,0.001301,-0.0006259999999999999,0.011447,0.034101
368,1.0802,-1.4071069999999999,0.678099,0.143719,0.986633,-0.07676799999999999,0.01811,0.006398,-0.005085,-0.006512,0.0054020000000000006,0.037538
369,1.078601,-1.4071120000000001,0.676387,0.143592,0.986634,-0.07699600000000001,0.012776000000000001,0.0032329999999999998,-0.008323,-0.015846000000000002,0.0054009999999999996,0.041533999999999995
370,1.0775709999999998,-1.407174,0.675238,0.143459,0.9866440000000001,-0.077115,0.008518000000000001,0.00644,-0.007287999999999999,-0.020107,0.013143,0.040066000000000004
371,1.076307,-1.407178,0.673702,0.14335799999999999,0.9866440000000001,-0.077294,0.019225,0.017047,-0.005091,-0.021639,0.022984,0.041344
372,1.073871,-1.40705,0.6706840000000001,0.14328,0.986624,-0.077703,0.034227999999999995,0.032969,-0.0039380000000000005,-0.019135,0.018793,0.046118
373,1.070149,-1.406783,0.666089,0.143223,0.9865799999999999,-0.078363,0.046007,0.042516000000000005,-0.003868,-0.01955,0.013541999999999998,0.042733999999999994
374,1.066006,-1.406421,0.660899,0.14321,0.9865209999999999,-0.07912899999999999,0.050303,0.051014,-0.0017120000000000002,-0.023428,0.01705,0.049832
375,1.061866,-1.406058,0.655472,0.14319500000000002,0.986461,-0.079897,0.049308,0.066997,-0.0017399999999999998,-0.027992000000000003,0.017887,0.047991000000000006
376,1.058015,-1.405766,0.649914,0.14313599999999999,0.9864129999999999,-0.08058799999999999,0.050519,0.091524,-0.00924,-0.022928,0.0037600000000000003,0.038047000000000004
377,1.054542,-1.405643,0.644266,0.142959,0.9863930000000001,-0.08114299999999999,0.042109,0.109702,-0.018936,-0.01622,-0.005954999999999999,0.01405
378,1.052381,-1.40581,0.639926,0.14263900000000002,0.9864209999999999,-0.08137,0.021914,0.099376,-0.024449000000000002,-0.0056,-0.002275,-0.002706
379,1.051734,-1.406204,0.637632,0.14224900000000001,0.9864850000000001,-0.08127000000000001,0.005762,0.069592,-0.021319,0.001351,-0.0015609999999999999,-0.014311
380,1.051605,-1.406561,0.636463,0.141934,0.9865440000000001,-0.081114,0.002408,0.040819,-0.015965,0.005985,0.008879000000000001,-0.013216
381,1.050274,-1.406731,0.634702,0.141681,0.9865709999999999,-0.081219,0.012913999999999998,0.009868,-0.010511,0.004392,0.01706,-0.004520000000000001
382,1.047477,-1.406588,0.631918,0.141576,0.986548,-0.081686,0.031997000000000005,-0.008343000000000001,-0.001808,0.000834,0.012628,0.002402
383,1.043134,-1.406201,0.627765,0.14155,0.9864850000000001,-0.082493,0.040507999999999995,-0.011576999999999999,0.000392,-0.0032600000000000003,-0.000492,0.020512
384,1.0379260000000001,-1.4056170000000001,0.622641,0.14161500000000002,0.986389,-0.083522,0.054391999999999996,-0.003124,0.0058189999999999995,-0.001814,-0.000198,0.028224000000000003
385,1.0326799999999998,-1.4049,0.617155,0.141784,0.9862709999999999,-0.084627,0.05554,0.018164,0.009004,-0.008529,0.005306,0.038758999999999995
386,1.0286520000000001,-1.404187,0.612214,0.142045,0.9861530000000001,-0.08556,0.055309000000000004,0.059025,0.008747,-0.024461,0.009041,0.048558
387,1.025001,-1.403565,0.606675,0.142256,0.986049,-0.086397,0.054535,0.1134,-0.0020109999999999998,-0.028333999999999998,0.018605,0.043489
388,1.022017,-1.403234,0.600754,0.14227599999999999,0.985994,-0.086991,0.05587999999999999,0.160328,-0.017016,-0.02785,0.008467,0.040467
389,1.01902,-1.403094,0.593993,0.14213299999999998,0.9859709999999999,-0.08749,0.050747,0.19553800000000002,-0.026711000000000002,-0.023816,0.006629,0.038769
390,1.017092,-1.403267,0.587755,0.14182,0.986,-0.087675,0.043407999999999995,0.22008200000000003,-0.031067,-0.023244,0.012931999999999999,0.039701
391,1.015548,-1.403558,0.581654,0.141439,0.9860479999999999,-0.087742,0.035998,0.225465,-0.038603,-0.022253,0.012289,0.042377
392,1.0137459999999998,-1.403983,0.575231,0.140924,0.9861190000000001,-0.087775,0.037112,0.228687,-0.046077,-0.026483999999999997,0.011881999999999998,0.044836
393,1.011692,-1.404584,0.568393,0.140241,0.986218,-0.08774900000000001,0.036122,0.239369,-0.052507000000000005,-0.02635,0.012469,0.041973
394,1.009403,-1.405186,0.561095,0.13953800000000002,0.986318,-0.087755,0.042796,0.248495,-0.054794,-0.024701,0.01324,0.040483
395,1.006538,-1.405637,0.552963,0.138908,0.986392,-0.087915,0.050322000000000006,0.263374,-0.052624000000000004,-0.028862,0.008115,0.036355
396,1.00439,-1.4060700000000002,0.545259,0.13835799999999998,0.9864629999999999,-0.087983,0.042892,0.276167,-0.04842,-0.027275,0.008364,0.028306
397,1.00278,-1.406628,0.537958,0.137753,0.986555,-0.08791,0.039758999999999996,0.283665,-0.055929,-0.015744,0.009524,0.029927
398,1.000622,-1.4072129999999998,0.530077,0.137077,0.98665,-0.087896,0.040802,0.276213,-0.058048,-0.010459999999999999,0.009795,0.031514999999999994
399,0.998151,-1.4079959999999998,0.522212,0.13621,0.986777,-0.087815,0.036467,0.25600900000000004,-0.063394,0.001913,0.014398,0.027147000000000004
400,0.995258,-1.40866,0.5144569999999999,0.135406,0.986885,-0.087853,0.037361,0.22720500000000002,-0.053737,-0.005035,0.007393,0.023965
401,0.9926649999999999,-1.409078,0.5074770000000001,0.13483399999999998,0.986952,-0.087979,0.037222000000000005,0.20586100000000002,-0.044095999999999996,-0.004797999999999999,0.010881,0.026242
402,0.9903209999999999,-1.409266,0.501134,0.134474,0.986982,-0.08819400000000001,0.043448,0.185651,-0.031276,-0.002317,0.011231999999999999,0.02513
403,0.9879760000000001,-1.409253,0.495457,0.134277,0.98698,-0.088516,0.041113,0.14940499999999998,-0.0227,0.00264,0.004978,0.026535000000000003
404,0.9852129999999999,-1.409071,0.49000600000000005,0.13418,0.986951,-0.08898500000000001,0.045203,0.11846400000000001,-0.014086000000000001,0.009542,0.005496,0.022152
405,0.982118,-1.408799,0.484996,0.134126,0.986907,-0.089548,0.039663,0.077981,-0.008732,0.010008,0.009553,0.023341
406,0.97977,-1.408525,0.481559,0.134141,0.9868629999999999,-0.090014,0.031979,0.037497,-0.001256,0.00566,0.011290999999999999,0.031252999999999996
407,0.97798,-1.408148,0.47933100000000006,0.13428900000000002,0.9868020000000001,-0.090462,0.027558,0.011912,0.007292,-0.008006999999999998,0.0061329999999999996,0.031945
408,0.976202,-1.407781,0.477492,0.134427,0.986742,-0.090904,0.023223,-0.0040479999999999995,0.006213000000000001,-0.008008,0.010648000000000001,0.035377
409,0.9742,-1.4073440000000002,0.475679,0.134602,0.986671,-0.091415,0.031695999999999995,-0.015804,0.008424,-0.021549000000000002,0.013527,0.036285000000000005
410,0.9718379999999999,-1.406621,0.47374099999999997,0.134975,0.986553,-0.09213500000000001,0.045388,-0.03617,0.027774,-0.027538,0.072345,0.054598
411,0.9651299999999999,-1.404827,0.468579,0.13580799999999998,0.986259,-0.094045,0.1281,-0.1133,0.063702,-0.016103,0.06878,0.084875
412,0.946685,-1.401181,0.452358,0.136968,0.98565,-0.098635,0.261434,-0.110604,0.073175,-0.016515000000000002,0.010765,0.09399600000000001
413,0.926844,-1.396992,0.43341499999999994,0.138284,0.984934,-0.10380999999999999,0.239355,-0.035966000000000005,0.075062,-0.017159,0.002432,0.09012300000000001
414,0.912845,-1.393338,0.419575,0.139664,0.984295,-0.10793599999999999,0.196777,-0.009207,0.080071,-0.009812000000000001,0.014758000000000002,0.077602
415,0.904359,-1.390105,0.41060399999999997,0.141244,0.98372,-0.11108399999999999,0.146675,0.03025,0.07858899999999999,0.010489,-0.004379999999999999,0.061509
416,0.9013979999999999,-1.388051,0.40681799999999996,0.142498,0.983348,-0.112755,0.068986,0.040241000000000006,0.044919,0.007084,-0.014491999999999998,0.049157
417,0.902388,-1.3876600000000001,0.406878,0.14291199999999998,0.9832770000000001,-0.112853,-0.004388,0.047077999999999995,-0.002604,0.006792,-0.008088,0.043227
418,0.9046200000000001,-1.388499,0.40795,0.142515,0.9834299999999999,-0.112024,-0.035106,0.060114,-0.039155,0.004564,-0.00995,0.021631
419,0.9071889999999999,-1.3898840000000001,0.409436,0.141731,0.9836799999999999,-0.110819,-0.051095,0.049573,-0.05314,0.005303,-0.005546,0.017359
420,0.909358,-1.391303,0.41081000000000006,0.140869,0.983934,-0.109654,-0.043699,0.03675,-0.049868,-0.0030670000000000003,0.002577,0.013371000000000001
421,0.911267,-1.392467,0.41195200000000004,0.140174,0.9841409999999999,-0.10868399999999999,-0.037317,0.042016000000000005,-0.040216,-0.0067209999999999995,0.018193,0.011913
422,0.9121370000000001,-1.393307,0.411847,0.13961500000000002,0.98429,-0.108057,-0.013831,0.050435,-0.034720999999999995,-0.010724,0.02041,0.014581
423,0.911206,-1.393717,0.409555,0.13919600000000001,0.9843620000000001,-0.10793900000000001,0.013988999999999998,0.073752,-0.029216000000000002,-0.01383,0.022077,0.012648000000000001
424,0.90915,-1.39382,0.405715,0.13889400000000002,0.984381,-0.10816300000000001,0.031106,0.08965,-0.023775,-0.020257,0.019358,0.005868
425,0.9055860000000001,-1.393548,0.40014,0.138717,0.984333,-0.108822,0.054605999999999995,0.102326,-0.017218,-0.015777,0.01347,0.0007740000000000001
426,0.901381,-1.3929850000000001,0.393507,0.138691,0.984233,-0.109747,0.071748,0.12355,-0.011784999999999999,-0.018605,0.007770999999999999,-0.00020800000000000001
427,0.896645,-1.3922860000000001,0.385927,0.138708,0.984109,-0.110832,0.073972,0.14166099999999998,-0.013928999999999999,-0.019735,0.002722,-0.009026000000000001
428,0.892201,-1.391716,0.378316,0.13865,0.984008,-0.111799,0.070882,0.160868,-0.019316,-0.021921,0.001603,-0.003557
429,0.8873770000000001,-1.391158,0.369847,0.138536,0.983908,-0.11281400000000001,0.078484,0.185364,-0.024635,-0.020952000000000002,0.005838,0.008093000000000001
430,0.882445,-1.390535,0.36083699999999996,0.138453,0.9837969999999999,-0.11388699999999999,0.08176599999999999,0.202402,-0.025702999999999997,-0.013269999999999999,-0.00010800000000000001,0.011089
431,0.8782989999999999,-1.390115,0.35246700000000003,0.138297,0.983722,-0.114723,0.063654,0.202486,-0.03117,-0.012152,0.003293,0.013388999999999998
432,0.875058,-1.3899489999999999,0.345062,0.138051,0.983692,-0.115277,0.053,0.20572,-0.031249000000000002,-0.019826,0.009976,0.016446000000000002
433,0.872635,-1.389613,0.338124,0.138024,0.9836309999999999,-0.115823,0.060529999999999994,0.23227399999999998,-0.018412,-0.032601,0.001888,0.014551
434,0.8716,-1.389207,0.332391,0.138211,0.983558,-0.116223,0.046632,0.22487,-0.019566999999999998,-0.027462,-0.007162999999999999,0.012952000000000002
435,0.870345,-1.3892950000000002,0.326847,0.137999,0.983574,-0.11634100000000001,0.031705000000000004,0.204771,-0.042079000000000005,-0.016982,0.0034560000000000003,0.000283
436,0.868506,-1.389742,0.320727,0.13745,0.9836540000000001,-0.11631199999999998,0.03282,0.21329800000000002,-0.044218,-0.025313,0.023548,0.000193
437,0.8662540000000001,-1.389801,0.31409499999999996,0.13714300000000001,0.983665,-0.11658299999999999,0.050927999999999994,0.21427,-0.036614999999999995,-0.027799,0.018197,-0.003442
438,0.863433,-1.3895899999999999,0.307006,0.136972,0.983627,-0.117105,0.057242999999999995,0.205683,-0.025877999999999998,-0.019358,-0.003997,-0.004462
439,0.8609319999999999,-1.389208,0.30041100000000004,0.136965,0.983558,-0.117693,0.055018,0.193939,-0.017333,-0.014421000000000002,-0.013053,-0.011549
440,0.859452,-1.388771,0.29544000000000004,0.13711600000000002,0.9834790000000001,-0.118176,0.042005,0.15878299999999998,-0.005628,0.0103,-0.0046890000000000005,-0.024616
441,0.85967,-1.388414,0.29296700000000003,0.137407,0.9834139999999999,-0.118375,0.021476,0.116184,0.009238,0.028319,0.01181,-0.014788999999999998
442,0.8605940000000001,-1.387877,0.292148,0.137916,0.983317,-0.118591,0.023327,0.069241,0.025335,0.036782,0.007864,-0.014053
443,0.8620469999999999,-1.387277,0.292916,0.138537,0.983208,-0.118775,0.007031,0.011742,0.032772,0.020811,-0.002205,-0.002456
444,0.862958,-1.386845,0.294277,0.138967,0.9831290000000001,-0.118925,0.001553,-0.03399,0.018905,0.0037329999999999998,-0.005574,0.0040869999999999995
445,0.863559,-1.386694,0.29581199999999996,0.139152,0.983101,-0.11893900000000002,-0.014488,-0.052004999999999996,0.009202,0.00103,0.003822,0.002285
446,0.8657959999999999,-1.386929,0.29935500000000004,0.139242,0.983144,-0.118477,-0.043399,-0.072157,0.012231,0.000681,0.00355,0.010796
447,0.870606,-1.387443,0.305811,0.139424,0.983238,-0.11748099999999999,-0.074362,-0.077376,0.012020999999999999,-0.012028,0.007148999999999999,0.034976
448,0.876342,-1.388336,0.31315,0.13941900000000002,0.9834,-0.11611500000000001,-0.074304,-0.072019,0.004536999999999999,-0.032958,0.023726,0.040844
449,0.8806959999999999,-1.389063,0.318668,0.139373,0.983532,-0.115053,-0.060296,-0.040114,0.0056630000000000005,-0.038360000000000005,0.018955,0.040452999999999996
450,0.8845059999999999,-1.389524,0.32315900000000003,0.13946,0.983615,-0.11423399999999999,-0.029308999999999998,-0.028508999999999996,0.006931999999999999,-0.024912,0.014188,0.051536
451,0.8852979999999999,-1.389534,0.32454,0.139543,0.983617,-0.11411700000000001,-0.0015609999999999999,-0.025414,0.008190000000000001,-0.026581999999999998,0.018992,0.045101999999999996
452,0.88561,-1.3893950000000002,0.325335,0.139685,0.983592,-0.11416099999999998,0.00373,-0.027593,0.015708,-0.011359000000000001,0.010793,0.026499
453,0.885775,-1.389199,0.32633,0.139853,0.983557,-0.11425999999999999,-0.003867,-0.052085,0.019959,0.014916999999999998,0.002512,0.026919
454,0.886893,-1.389158,0.32922399999999996,0.140014,0.983549,-0.114131,-0.022287,-0.113811,0.020978,0.023438,0.004229,0.024623
455,0.88865,-1.389384,0.334542,0.140042,0.98359,-0.113745,-0.05049,-0.207496,0.030514999999999997,-0.010281,0.007926,0.023489
456,0.8926719999999999,-1.3895899999999999,0.34363699999999997,0.14034100000000002,0.983627,-0.113053,-0.07965,-0.263944,0.052815999999999995,-0.016531,0.010361,0.020722
457,0.899518,-1.389673,0.35631399999999996,0.141047,0.983642,-0.11203900000000001,-0.091587,-0.288485,0.07306,-0.013346,0.012376,0.029289999999999997
458,0.906957,-1.38952,0.369721,0.141994,0.983614,-0.111079,-0.084138,-0.289589,0.076318,-0.013316999999999999,0.005964,0.033183
459,0.913731,-1.389478,0.38248000000000004,0.142776,0.983607,-0.11013900000000001,-0.09049600000000001,-0.289528,0.06666,-0.021956,0.003286,0.040147
460,0.919642,-1.389753,0.394353,0.143209,0.983656,-0.10912899999999999,-0.092539,-0.285196,0.050617,-0.035116,0.007677,0.04283
461,0.9252889999999999,-1.390128,0.40569099999999997,0.143528,0.9837239999999999,-0.108096,-0.084975,-0.2671,0.047442000000000005,-0.045917,0.026683,0.052631
462,0.9302010000000001,-1.390195,0.41544200000000003,0.144003,0.983736,-0.10735,-0.06554600000000001,-0.210733,0.053915,-0.061957000000000005,0.022261000000000003,0.04041
463,0.935992,-1.3900700000000001,0.424781,0.144722,0.983713,-0.10658800000000002,-0.059934,-0.144723,0.058142,-0.062935,0.012274,0.03362
464,0.9424110000000001,-1.389918,0.43347600000000003,0.14552400000000001,0.9836860000000001,-0.105745,-0.053269000000000004,-0.088277,0.055979999999999995,-0.061387,0.024188,0.041306999999999996
465,0.9484090000000001,-1.389692,0.440885,0.146335,0.9836450000000001,-0.10499800000000001,-0.037084,-0.051036,0.05284,-0.050739,0.026898000000000002,0.0423
466,0.953428,-1.3894819999999999,0.44655900000000004,0.147029,0.983608,-0.10438299999999999,-0.032751,-0.017235,0.043175,-0.038356,0.008275,0.030713
467,0.9570059999999999,-1.3894,0.450408,0.14746700000000001,0.983593,-0.103902,-0.018786,-0.008709999999999999,0.030443,-0.010428,0.010975,0.028783
468,0.9598549999999999,-1.389355,0.45366000000000006,0.1478,0.983585,-0.10350699999999999,-0.026331,-0.026789,0.029345,0.011059999999999999,0.00636,0.022819
469,0.9628959999999999,-1.389456,0.45791099999999996,0.148032,0.9836030000000001,-0.103,-0.034005,-0.078935,0.022949,0.017618,0.003778,0.020862000000000002
470,0.9654799999999999,-1.389578,0.46287700000000004,0.148198,0.983625,-0.102549,-0.040688999999999996,-0.13433699999999998,0.030451,0.013103,0.009417,0.018595
471,0.9685739999999999,-1.389448,0.469322,0.148619,0.9836010000000001,-0.102162,-0.043077,-0.178056,0.043309,0.017488,0.018977,0.025516999999999998
472,0.9714520000000001,-1.3890850000000001,0.47634099999999996,0.14920999999999998,0.9835360000000001,-0.101936,-0.035781,-0.20900500000000002,0.050877,0.026785000000000003,0.00972,0.035942
473,0.974161,-1.388476,0.483817,0.14998,0.983426,-0.101868,-0.037068000000000004,-0.24527100000000002,0.063733,0.025006999999999998,-0.000592,0.043854000000000004
474,0.976884,-1.3876899999999999,0.49181899999999995,0.150897,0.983283,-0.101891,-0.031883,-0.26452,0.077681,0.011975,0.014794,0.051278
475,0.979648,-1.3865299999999998,0.49994700000000003,0.152124,0.9830709999999999,-0.102109,-0.027668,-0.263521,0.090528,-0.025965,0.009742,0.060147000000000006
476,0.9835370000000001,-1.3853870000000001,0.508899,0.153455,0.9828610000000001,-0.102139,-0.037116,-0.229399,0.090418,-0.033872,0.009098,0.066235
477,0.9891780000000001,-1.384377,0.518354,0.154859,0.9826739999999999,-0.10181699999999999,-0.036728,-0.154783,0.078575,-0.055097,0.024177,0.073848
478,0.993585,-1.3836629999999999,0.524879,0.155894,0.982542,-0.101517,-0.01916,-0.07057999999999999,0.051884000000000007,-0.05482000000000001,0.019152000000000002,0.07193
479,0.995481,-1.383224,0.527329,0.156449,0.98246,-0.10145599999999999,0.0036950000000000004,-0.0023539999999999998,0.01991,-0.043687000000000004,0.025596999999999998,0.078186
480,0.995582,-1.383102,0.527149,0.15656,0.9824370000000001,-0.101506,0.013441,0.017899,0.008202,-0.020452,0.021698,0.103322
481,0.995165,-1.382875,0.526234,0.15670499999999998,0.982395,-0.10169299999999999,0.022004,0.030626999999999998,0.014653999999999999,-0.030393,0.019681,0.091073
482,0.9942610000000001,-1.382393,0.524313,0.15700899999999998,0.9823049999999999,-0.102092,0.038146,0.06676900000000001,0.020062,-0.053982,0.022899,0.07902100000000001
483,0.9939690000000001,-1.3817,0.5217890000000001,0.15755,0.982174,-0.10250899999999999,0.041539,0.13667,0.016801,-0.059892999999999995,0.024799,0.074646
484,0.9950709999999999,-1.381211,0.518992,0.158065,0.982082,-0.102596,0.05372999999999999,0.221914,0.000753,-0.066909,0.033207,0.068737
485,0.994043,-1.380762,0.512467,0.158329,0.9819979999999999,-0.10299900000000001,0.080809,0.291148,-0.020511,-0.070789,0.033398000000000004,0.072283
486,0.9907040000000001,-1.380287,0.502492,0.15837400000000001,0.981908,-0.10378299999999999,0.107725,0.336895,-0.028926999999999998,-0.057071000000000004,0.032054,0.074516
487,0.9853059999999999,-1.3797190000000001,0.489613,0.158277,0.9818,-0.10494400000000001,0.125025,0.37735799999999997,-0.03954,-0.043210000000000005,0.031292,0.071741
488,0.979585,-1.3791799999999999,0.475659,0.158113,0.981698,-0.106143,0.129465,0.409327,-0.045959,-0.031267,0.013908000000000002,0.07295499999999999
489,0.9746030000000001,-1.378867,0.46198100000000003,0.157839,0.9816379999999999,-0.10710399999999999,0.11359100000000001,0.42753500000000005,-0.056776,-0.031298,0.005423,0.06378400000000001
490,0.971137,-1.379104,0.449691,0.157276,0.981683,-0.107519,0.086741,0.42490100000000003,-0.078488,-0.036395,-0.001962,0.047231999999999996
491,0.9673889999999999,-1.3798709999999998,0.43719600000000003,0.156252,0.9818290000000001,-0.107681,0.077312,0.43782,-0.104207,-0.015063,0.003629,0.047226
492,0.964773,-1.3811360000000001,0.425126,0.154949,0.982068,-0.10738199999999999,0.052952,0.464588,-0.11723,0.011951999999999999,0.009616,0.036764
493,0.964657,-1.382771,0.415691,0.153616,0.982375,-0.106485,0.019806999999999998,0.450847,-0.115308,0.030329000000000002,0.010056,0.036660000000000005
494,0.965995,-1.384573,0.40826399999999996,0.152303,0.9827100000000001,-0.105273,0.004693999999999999,0.419972,-0.10682799999999999,0.022685,0.005678,0.028994
495,0.96872,-1.386266,0.402895,0.15121600000000002,0.983023,-0.103914,-0.006205,0.384792,-0.090836,0.019484,-0.000601,0.028307
496,0.9720770000000001,-1.387707,0.398681,0.150394,0.9832860000000001,-0.10260799999999999,-0.005272,0.366632,-0.079056,0.022076,-0.001078,0.021202000000000002
497,0.975065,-1.3888120000000002,0.39492,0.149801,0.9834870000000001,-0.101549,0.00619,0.314359,-0.070363,0.042444,0.002964,0.012269
498,0.976366,-1.389642,0.390466,0.149257,0.9836360000000001,-0.100896,0.022414,0.262447,-0.058044000000000005,0.061238,0.009253,0.002141
499,0.9759760000000001,-1.390095,0.385696,0.148849,0.983718,-0.10070499999999999,0.025197999999999998,0.185673,-0.041902999999999996,0.073228,0.005296,-0.001773
500,0.975326,-1.3902860000000001,0.382575,0.148627,0.9837520000000001,-0.10069600000000001,0.018216999999999997,0.079079,-0.019383,0.065057,-0.001559,0.007006999999999999
501,0.975015,-1.390227,0.38190799999999997,0.148644,0.983742,-0.100775,0.002773,-0.017871,-0.003343,0.047004000000000004,-0.011635,-0.00034500000000000004
502,0.975893,-1.390097,0.38403899999999996,0.14884,0.983718,-0.100717,-0.015743,-0.088171,0.010505,0.032862,-0.006164,-0.00611
503,0.978193,-1.39,0.38877399999999995,0.149149,0.983701,-0.100427,-0.033038,-0.13711800000000002,0.011515000000000001,0.029744999999999997,0.005893,-0.0058200000000000005
504,0.979692,-1.3900139999999999,0.393507,0.149288,0.9837030000000001,-0.100195,-0.032172000000000006,-0.17231300000000002,0.02118,0.025807,0.003708,-0.004861
505,0.9812,-1.38985,0.39893,0.149573,0.9836739999999999,-0.10006,-0.037683999999999995,-0.206405,0.026525999999999997,0.022469,-0.0010539999999999998,-0.005027
506,0.9826229999999999,-1.389725,0.405064,0.149818,0.983651,-0.09991599999999999,-0.042167,-0.249021,0.031891,0.014763,0.013953,0.009873
507,0.983088,-1.389425,0.41113599999999995,0.150109,0.9835969999999999,-0.100009,-0.033867,-0.290639,0.042684,0.004233,0.008727,0.02283
508,0.982943,-1.388942,0.417274,0.15049,0.98351,-0.10029400000000001,-0.03083,-0.319442,0.05022,-0.003075,0.002513,0.027601999999999998
509,0.982643,-1.3882780000000001,0.423599,0.151002,0.98339,-0.100701,-0.026652999999999996,-0.330148,0.059877,-6.3e-05,0.003198,0.031823000000000004
510,0.9826809999999999,-1.3874799999999998,0.43033699999999997,0.151659,0.983245,-0.10113,-0.030958999999999997,-0.331228,0.067326,-0.002855,0.007722,0.039820999999999995
511,0.98401,-1.386747,0.438436,0.152394,0.9831110000000001,-0.101328,-0.044851999999999996,-0.333323,0.070436,-0.015995,0.014372,0.039637
512,0.9862860000000001,-1.3862290000000002,0.44738,0.153048,0.983016,-0.101262,-0.055425,-0.320469,0.0618,-0.035617,0.019532,0.044545
513,0.9883790000000001,-1.3859569999999999,0.455593,0.15348499999999998,0.982966,-0.101089,-0.050618,-0.28327600000000003,0.046386000000000004,-0.042309,0.014379,0.047073000000000004
514,0.9893790000000001,-1.38583,0.461726,0.15369000000000002,0.982942,-0.101004,-0.033250999999999996,-0.234265,0.029352999999999997,-0.039081,0.014372,0.053549
515,0.988612,-1.385804,0.46533800000000003,0.153633,0.9829379999999999,-0.101136,-0.021338,-0.206562,0.017651,-0.029991000000000004,0.017444,0.051254999999999995
516,0.9871690000000001,-1.38583,0.46787700000000004,0.15346700000000002,0.982942,-0.101344,-0.013798,-0.19061,0.017683,-0.026941000000000003,0.018171,0.055461
517,0.985275,-1.385684,0.46963699999999997,0.153394,0.982916,-0.101714,-0.0019760000000000003,-0.17440799999999998,0.02497,-0.033780000000000004,0.020288999999999998,0.057311
518,0.984165,-1.385338,0.471753,0.153564,0.9828520000000001,-0.102072,-0.004029,-0.148864,0.0324,-0.035522000000000005,0.011640000000000001,0.05039
519,0.9840469999999999,-1.3849790000000002,0.47436999999999996,0.153844,0.982786,-0.102284,-0.007123999999999999,-0.129661,0.028081000000000002,-0.026737999999999998,0.007388,0.043004
520,0.9834639999999999,-1.384798,0.476314,0.15393099999999998,0.9827520000000001,-0.10247200000000001,-0.002784,-0.12430699999999999,0.017422999999999998,-0.014497,0.015722,0.05047
521,0.9822219999999999,-1.384666,0.47752100000000003,0.153911,0.982728,-0.10273399999999999,-0.0048850000000000005,-0.122148,0.012064,-0.018321,0.011962,0.048214
522,0.981361,-1.3848129999999998,0.479162,0.1537,0.9827549999999999,-0.10278499999999999,-0.014472,-0.123162,0.007725,-0.029905,0.016406,0.047853
523,0.9806389999999999,-1.3848639999999999,0.48082700000000006,0.153583,0.982764,-0.10286700000000001,-0.009099,-0.11253699999999998,0.009886,-0.035205,0.014718,0.043388
524,0.980268,-1.384829,0.482416,0.15357300000000002,0.982758,-0.102943,-0.007917,-0.086974,0.009861,-0.037454,0.019195,0.036766
525,0.9795360000000001,-1.384788,0.48308100000000004,0.153532,0.98275,-0.10307899999999999,0.005029,-0.060365999999999996,0.004577,-0.031827999999999995,0.014396,0.033377
526,0.977999,-1.3847129999999999,0.482365,0.153434,0.982736,-0.10335499999999999,0.014759999999999999,-0.033760000000000005,0.0024739999999999996,-0.022422,0.013097999999999999,0.033592000000000004
527,0.975865,-1.3845299999999998,0.480724,0.153362,0.9827020000000001,-0.10378299999999999,0.020152,-0.023117,0.000362,-0.021755,0.010584,0.028985000000000004
528,0.973103,-1.384457,0.47844899999999996,0.153134,0.9826889999999999,-0.104247,0.0244,-0.029514999999999996,-0.001737,-0.02055,0.013191,0.028518
529,0.9700110000000001,-1.3842729999999999,0.47593,0.15295999999999998,0.982655,-0.104822,0.026514999999999997,-0.029539,0.0025510000000000003,-0.020346,0.013927000000000002,0.034128
530,0.9673200000000001,-1.383899,0.47363999999999995,0.15298,0.9825860000000001,-0.10544200000000001,0.031892000000000004,-0.015727,0.006843000000000001,-0.017329,0.013798,0.035831
531,0.964764,-1.383408,0.471104,0.153107,0.9824940000000001,-0.106108,0.035169,0.003428,0.008978,-0.017440999999999998,0.011875,0.036787
532,0.962361,-1.382995,0.46853100000000003,0.153184,0.982417,-0.106707,0.033069,0.0066489999999999995,0.004686999999999999,-0.010209999999999999,0.006749,0.033114
533,0.9598959999999999,-1.382766,0.465897,0.153105,0.982374,-0.10721300000000002,0.024568,0.0067079999999999996,-0.00285,-0.005490999999999999,0.009569,0.032232
534,0.957722,-1.3826370000000001,0.46356800000000004,0.152975,0.98235,-0.107619,0.021372,0.0035409999999999994,-0.007142,-0.00173,0.010737,0.033095
535,0.9560559999999999,-1.382742,0.461797,0.152712,0.9823700000000001,-0.10781400000000001,0.010723,0.0014730000000000001,-0.013623,-0.0034200000000000003,0.003134,0.028057
536,0.9549120000000001,-1.383016,0.46058999999999994,0.152368,0.9824209999999999,-0.107833,8.7e-05,0.003662,-0.019041,-0.009409,0.002152,0.032943
537,0.954443,-1.383434,0.45998,0.15198399999999998,0.982499,-0.107668,-0.009484999999999999,0.007965,-0.02125,-0.012183,0.005065,0.032534
538,0.95491,-1.3839110000000001,0.460185,0.151651,0.9825879999999999,-0.107326,-0.011576000000000001,0.018621000000000002,-0.02021,-0.008187999999999999,0.009873999999999999,0.044567
539,0.9561540000000001,-1.384377,0.460661,0.151411,0.9826739999999999,-0.106874,-0.014662,0.046321,-0.01813,-0.013502000000000002,0.016304,0.039125
540,0.956636,-1.384775,0.460013,0.151142,0.982748,-0.106575,0.005685,0.061172000000000004,-0.020144,-0.017872,0.016199,0.041588
541,0.955456,-1.384939,0.45741899999999996,0.150886,0.982778,-0.10666099999999999,0.021727,0.068577,-0.021109,-0.016730000000000002,0.014048,0.02852
542,0.9547,-1.385086,0.45531000000000005,0.15068800000000002,0.9828049999999999,-0.10669200000000001,0.009939,0.063266,-0.014776,-0.017921,-0.004045,0.027743
543,0.9547059999999999,-1.385194,0.454293,0.15060199999999999,0.982825,-0.10662999999999999,0.006599,0.039812,-0.007291,-0.008466,0.0055320000000000005,0.025162999999999998
544,0.9546370000000001,-1.385273,0.453744,0.150532,0.9828399999999999,-0.10659600000000001,0.005407,0.015302000000000001,-0.004064,-0.000797,0.012689,0.034544
545,0.9539850000000001,-1.385281,0.452729,0.150456,0.982841,-0.106689,0.012894999999999998,0.020597999999999998,-0.00295,-0.022511,0.012184,0.033325
546,0.95273,-1.385198,0.450977,0.15038800000000002,0.982826,-0.106925,0.016143,0.026994999999999998,-0.007208,-0.026425,0.011406,0.033866
547,0.95045,-1.385234,0.44793,0.150115,0.982833,-0.10724700000000001,0.026945999999999998,0.041931,-0.022106999999999998,-0.026091000000000003,0.014405000000000001,0.036414999999999996
548,0.947493,-1.38517,0.443723,0.14985,0.982821,-0.10772799999999999,0.039849,0.06744,-0.018844999999999997,-0.024377,0.021375,0.030565
549,0.9446610000000001,-1.384906,0.43915699999999996,0.149755,0.982772,-0.108305,0.045245999999999995,0.09081900000000001,-0.009223,-0.019811000000000002,0.012513,0.026425999999999998
550,0.94226,-1.384475,0.434672,0.149835,0.982692,-0.108911,0.052742,0.104611,-0.0017109999999999998,-0.010583,0.011082,0.029993000000000002
551,0.9387409999999999,-1.383753,0.42896599999999996,0.15002200000000002,0.982558,-0.109856,0.072974,0.100262,0.002709,-0.001248,0.009019,0.029854000000000002
552,0.9339930000000001,-1.382871,0.422299,0.150194,0.9823940000000001,-0.111082,0.07823200000000001,0.082139,0.0017010000000000003,-0.004397,0.004255,0.026441000000000003
553,0.9296979999999999,-1.3820299999999999,0.416408,0.150376,0.9822360000000001,-0.112219,0.066425,0.069384,0.004839,-0.0018629999999999999,0.008715,0.028082
554,0.9261440000000001,-1.3812200000000001,0.41153999999999996,0.15061300000000002,0.9820840000000001,-0.113231,0.059966,0.058745000000000006,0.006944,0.003684,0.010393000000000001,0.026958
555,0.9233030000000001,-1.380494,0.407614,0.150859,0.9819469999999999,-0.11408900000000001,0.050307,0.043873,0.004759,0.003148,0.007204,0.031386000000000004
556,0.9202790000000001,-1.379899,0.403949,0.15098,0.981834,-0.114899,0.043814,0.019412000000000002,0.000472,3.6e-05,0.01133,0.033264
557,0.917657,-1.379504,0.401065,0.15098599999999998,0.981759,-0.11553,0.034179,0.008805,-0.002786,-0.015228,0.008962999999999999,0.040792
558,0.915434,-1.379186,0.39855,0.150976,0.981699,-0.11605499999999999,0.029939999999999998,0.014150999999999999,-0.0038909999999999995,-0.016988,0.015005000000000001,0.047085
559,0.912958,-1.378845,0.39565100000000003,0.150953,0.981634,-0.11663399999999999,0.037442,0.022642,-0.002781,-0.015837,0.019724000000000002,0.050762
560,0.9104110000000001,-1.37837,0.392437,0.151024,0.981543,-0.11730399999999999,0.047097,0.034326999999999996,-0.002728,-0.016411000000000002,0.011819,0.056696
561,0.9074459999999999,-1.3778489999999999,0.388461,0.151078,0.9814430000000001,-0.118066,0.048254000000000005,0.053502,-0.0038130000000000004,-0.015977,0.007998,0.058556
562,0.904782,-1.377419,0.38455,0.151095,0.981361,-0.118729,0.048288,0.059898,-0.004889,-0.008761,0.014733000000000001,0.052445000000000006
563,0.9023969999999999,-1.376966,0.38097800000000004,0.151162,0.981274,-0.11936500000000001,0.03971,0.052462,-0.002803,-0.006997,0.007923000000000001,0.050823
564,0.90045,-1.376659,0.377977,0.15116500000000002,0.9812139999999999,-0.11984700000000001,0.0365,0.04716,-0.006024,-0.013836000000000001,0.011339,0.045185
565,0.8985850000000001,-1.3764459999999998,0.375139,0.151105,0.981173,-0.12025899999999999,0.030108,0.044008,-0.011405,-0.021528,0.01605,0.044392
566,0.896589,-1.376347,0.3722,0.15094100000000002,0.9811540000000001,-0.120621,0.026917,0.042967,-0.014631,-0.02292,0.014603999999999999,0.044098000000000005
567,0.895115,-1.376378,0.369773,0.15074,0.98116,-0.120824,0.02054,0.045132,-0.017883,-0.028166000000000004,0.01176,0.040060000000000005
568,0.893948,-1.376576,0.367606,0.150448,0.9811979999999999,-0.120879,0.009757,0.049069999999999996,-0.021128,-0.022915,0.010272,0.036238
569,0.8931520000000001,-1.3769,0.365834,0.150103,0.981261,-0.120799,0.00227,0.043774,-0.022241999999999998,-0.02048,0.010637,0.037852
570,0.892683,-1.3773090000000001,0.364634,0.14973399999999998,0.98134,-0.120617,-0.006323,0.032081,-0.021219,-0.012878,0.004866,0.037594
571,0.8926930000000001,-1.377944,0.364261,0.14925,0.9814620000000001,-0.120226,-0.01602,0.007626999999999999,-0.02446,-0.00951,0.011962,0.032503
572,0.89255,-1.378585,0.364232,0.14874400000000002,0.981584,-0.119852,-0.019312,-0.01048,-0.022323,-0.007905,0.013991,0.033884
573,0.892394,-1.379208,0.36439299999999997,0.148249,0.9817030000000001,-0.119492,-0.019374000000000002,-0.021146,-0.019106,-0.010187,0.009493000000000001,0.02887
574,0.892824,-1.379831,0.365307,0.147824,0.9818209999999999,-0.11904400000000001,-0.025795,-0.024322999999999997,-0.018078,-0.016094999999999998,0.0071920000000000005,0.031459
575,0.8932770000000001,-1.380522,0.366248,0.147348,0.981952,-0.118551,-0.023632,-0.022183,-0.022338999999999998,-0.015055,0.009899,0.031332
576,0.8935639999999999,-1.381206,0.366971,0.14686,0.982081,-0.11808900000000001,-0.026813,-0.017911,-0.022366,-0.015451,0.011739,0.032045
577,0.893855,-1.381858,0.367543,0.146393,0.9822040000000001,-0.117644,-0.018264,-0.013684,-0.021244,-0.009476,0.012058,0.031447
578,0.89397,-1.382367,0.36787800000000004,0.146017,0.9823,-0.11731400000000002,-0.017202000000000002,-0.008387,-0.014834,-0.009618000000000002,0.010941,0.030369
579,0.8947350000000001,-1.3828639999999999,0.368722,0.145725,0.9823930000000001,-0.116896,-0.021436,0.000146,-0.013806,-0.008793,0.012297,0.030501
580,0.895547,-1.3833520000000001,0.369596,0.145446,0.982484,-0.116478,-0.021547,-0.005243,-0.011644,-0.010421,0.010116,0.028419999999999997
581,0.896,-1.383807,0.370066,0.145149,0.982568,-0.11613299999999999,-0.014036000000000002,0.001135,-0.014804,-0.009926,0.010519,0.027402999999999997
582,0.8963409999999999,-1.384226,0.370257,0.144868,0.9826459999999999,-0.115826,-0.010801999999999999,0.008581,-0.014791,-0.009186,0.010213,0.023144
583,0.896546,-1.3846100000000001,0.370285,0.144597,0.9827170000000001,-0.11556099999999998,-0.009734999999999999,0.009637999999999999,-0.013716999999999998,-0.008366,0.010294,0.025107
584,0.8965280000000001,-1.384938,0.37001300000000004,0.144343,0.982778,-0.11536300000000001,-0.005444,0.014949,-0.013693,-0.007914000000000001,0.010493,0.025519
585,0.8967,-1.385217,0.369825,0.144149,0.98283,-0.115167,-0.004386,0.015998,-0.010483,-0.006378,0.01125,0.02659
586,0.896538,-1.385418,0.369299,0.143976,0.982867,-0.115067,0.00202,0.018102,-0.009372,-0.010767,0.011045000000000001,0.026673000000000002
587,0.896538,-1.385581,0.368846,0.143851,0.9828969999999999,-0.11496700000000001,0.000977,0.024493,-0.008320000000000001,-0.012686,0.0101,0.026739999999999996
588,0.8964770000000001,-1.385728,0.368208,0.143731,0.982924,-0.11488499999999999,0.00351,0.031673,-0.009321,-0.010262,0.011843000000000001,0.025727999999999997
589,0.895912,-1.3858219999999999,0.366956,0.143594,0.982941,-0.114909,0.010997,0.033786000000000004,-0.011408,-0.01217,0.013611000000000002,0.02444
590,0.895022,-1.38581,0.36525100000000005,0.143501,0.9829389999999999,-0.11504400000000001,0.016355,0.043337,-0.007109999999999999,-0.014412000000000001,0.008944,0.027673000000000003
591,0.893898,-1.385679,0.363125,0.143474,0.982915,-0.11528800000000002,0.023842,0.048632999999999996,-0.0059960000000000005,-0.010173,0.007564,0.026436
592,0.892503,-1.385525,0.360728,0.143431,0.982886,-0.11558299999999999,0.024895,0.045433999999999995,-0.005985,-0.004072,0.00863,0.028821
593,0.891136,-1.385338,0.35846,0.14341600000000002,0.9828520000000001,-0.11589400000000001,0.021665,0.040114,-0.004932,-0.001219,0.011777,0.028294
594,0.8900600000000001,-1.385257,0.3566,0.143354,0.9828370000000001,-0.11609900000000001,0.015274000000000001,0.038023,-0.009247,-0.004331000000000001,0.006543000000000001,0.026255
595,0.888983,-1.385324,0.354698,0.143176,0.982849,-0.116211,0.013291999999999998,0.040667,-0.013474000000000002,-0.007755,0.008789,0.030167000000000003
596,0.888237,-1.3853360000000001,0.35305,0.14308099999999999,0.9828520000000001,-0.11631099999999998,0.013278,0.043837,-0.007069,-0.010787,0.010740000000000001,0.029473000000000003
597,0.8880600000000001,-1.385404,0.352051,0.143008,0.982864,-0.11629400000000001,0.005790999999999999,0.036419,-0.010316,-0.008319,0.011002,0.031135000000000003
598,0.887547,-1.385502,0.350829,0.142873,0.9828819999999999,-0.11630599999999999,0.008987,0.03322,-0.012426000000000001,-0.006825,0.011594,0.032489
599,0.8864719999999999,-1.3855819999999999,0.349038,0.14268699999999998,0.9828969999999999,-0.11640999999999999,0.015406999999999999,0.036398,-0.013453,-0.00963,0.010237000000000001,0.034104
600,0.884882,-1.385548,0.346615,0.142528,0.9828899999999999,-0.116658,0.021818,0.040628,-0.011278,-0.010646,0.0073290000000000004,0.028813
601,0.883257,-1.385484,0.34417800000000004,0.14238699999999999,0.9828790000000001,-0.11692899999999999,0.021794,0.035302,-0.011271,-0.010429,0.009477,0.031923
602,0.88185,-1.385359,0.34189200000000003,0.142317,0.982856,-0.11720799999999999,0.021827000000000003,0.048063999999999996,-0.005946,-0.004668,0.016183000000000003,0.038883999999999995
603,0.881009,-1.385182,0.340065,0.142353,0.982823,-0.11743900000000002,0.01991,0.043003,-0.0025399999999999997,-0.004292,0.013423,0.036308
604,0.8802989999999999,-1.385153,0.338633,0.142293,0.9828180000000001,-0.117558,0.011347,0.031336,-0.007926,-0.009862000000000001,0.006074,0.032139999999999995
605,0.879326,-1.385246,0.337077,0.14210799999999998,0.982835,-0.11763900000000001,0.009218,0.027104000000000003,-0.013276,-0.009798999999999999,0.003692,0.032342
606,0.8787290000000001,-1.385371,0.33584,0.141942,0.982858,-0.117644,0.007103,0.032433,-0.01223,-0.007024,0.004035,0.030517000000000002
607,0.87841,-1.385525,0.334831,0.141789,0.982886,-0.117594,0.006046,0.033506,-0.013307,-0.010029000000000001,0.013986000000000002,0.030389
608,0.8779309999999999,-1.385665,0.33361399999999997,0.141627,0.9829120000000001,-0.117574,0.006051,0.034572000000000006,-0.013308,-0.008402,0.016569,0.032567
609,0.876991,-1.385813,0.332023,0.141405,0.9829389999999999,-0.11761400000000001,0.011361,0.028166000000000004,-0.014331,-0.006669,0.011995,0.037307
610,0.8757030000000001,-1.385835,0.330176,0.141237,0.982943,-0.117782,0.0156,0.026003,-0.010026,-0.011125,0.00842,0.033264
611,0.8746309999999999,-1.385829,0.328621,0.14111500000000002,0.982942,-0.11793699999999999,0.012032,0.021301,-0.007559999999999999,-0.008577,0.011641,0.036470999999999996
612,0.874073,-1.385799,0.327625,0.141071,0.9829370000000001,-0.11803499999999999,0.008808,0.02023,-0.0033090000000000003,-0.008045,0.010166,0.034585000000000005
613,0.873798,-1.385843,0.327031,0.141006,0.9829450000000001,-0.118046,0.003454,0.012804,-0.006541,-0.009093,0.011196,0.033649
614,0.873714,-1.386048,0.326729,0.14084100000000002,0.982982,-0.11792799999999999,-0.005076,0.009655,-0.01087,-0.013659000000000001,0.010166,0.036278
615,0.8734149999999999,-1.386301,0.32621100000000003,0.14061500000000002,0.983029,-0.11780999999999998,-0.000789,0.01284,-0.011912,-0.012319,0.004413,0.031873
616,0.8737590000000001,-1.386593,0.32617199999999996,0.140435,0.983082,-0.117578,-0.011429,0.02033,-0.010928,-0.009484999999999999,0.006587000000000001,0.037042
617,0.8747590000000001,-1.387002,0.32683,0.140245,0.983157,-0.11717999999999999,-0.019983,0.015038,-0.012048999999999999,-0.0006730000000000001,0.01138,0.035759
618,0.876274,-1.387616,0.328194,0.139959,0.9832690000000001,-0.11658099999999999,-0.027485000000000002,0.002302,-0.017426,-0.0026449999999999998,0.014396,0.041935
619,0.8771059999999999,-1.3882889999999999,0.329158,0.139547,0.983392,-0.116042,-0.027620999999999996,-0.011811,-0.020334,-0.007772,0.010978,0.030806
620,0.878326,-1.3890719999999999,0.330783,0.139096,0.983534,-0.11538,-0.035137,-0.021377,-0.019306,-0.017667,0.00815,0.028481
621,0.880157,-1.3897540000000002,0.333065,0.138791,0.983656,-0.11469800000000001,-0.039443,-0.021396000000000002,-0.010791,-0.013378999999999999,0.007661,0.025465
622,0.8826579999999999,-1.390391,0.33615,0.138593,0.983771,-0.113953,-0.037386,-0.035265,-0.007554000000000001,-7.4e-05,0.005685,0.026047000000000004
623,0.8847799999999999,-1.390995,0.33923400000000004,0.138376,0.9838790000000001,-0.113283,-0.038564,-0.052414999999999996,-0.005361,0.00141,0.009483,0.014818000000000001
624,0.886459,-1.391578,0.342361,0.138122,0.9839829999999999,-0.11268800000000001,-0.038702999999999994,-0.080125,-0.0021219999999999998,0.004518,0.009470999999999999,0.013246
625,0.8878469999999999,-1.392091,0.34568000000000004,0.13788499999999998,0.984075,-0.112177,-0.034546,-0.100397,0.002206,0.012887000000000001,0.008235,0.021478
626,0.8890610000000001,-1.392475,0.34927199999999997,0.137727,0.984143,-0.11177100000000001,-0.036823,-0.129164,0.005432,0.0148,0.006305,0.022078999999999998
627,0.890179,-1.392817,0.35338200000000003,0.13759100000000002,0.984203,-0.11140499999999999,-0.034824,-0.153694,0.010818000000000001,0.011152,0.007587000000000001,0.030823000000000003
628,0.890388,-1.392902,0.356914,0.137549,0.9842190000000001,-0.111323,-0.016788,-0.168701,0.018441,-0.004584,0.013156999999999999,0.037074
629,0.889392,-1.3926209999999999,0.35931,0.137654,0.9841690000000001,-0.11163599999999999,-0.0008039999999999999,-0.166652,0.024959000000000002,-0.009281999999999999,0.016944999999999998,0.045336
630,0.888281,-1.392099,0.361433,0.137928,0.9840760000000001,-0.11211199999999999,0.008817,-0.157119,0.030355,-0.015675,0.023019,0.057699
631,0.885871,-1.391274,0.36186599999999997,0.138286,0.983929,-0.11295699999999999,0.037531,-0.127095,0.028734,-0.031459,0.033313,0.071164
632,0.8818590000000001,-1.390216,0.35986799999999997,0.13863399999999998,0.98374,-0.11417200000000001,0.048395999999999995,-0.080274,0.031955000000000004,-0.033089,0.010248,0.08717899999999999
633,0.87928,-1.389042,0.35799000000000003,0.139228,0.9835280000000001,-0.115265,0.057176,-0.019609,0.038348,-0.015678,0.006447,0.08743300000000001
634,0.876856,-1.3879549999999998,0.35581599999999997,0.139771,0.983331,-0.11628699999999999,0.04977,-0.019528,0.024409,-0.011002,0.016394,0.074249
635,0.8746780000000001,-1.387327,0.35425700000000004,0.139992,0.983217,-0.11698800000000001,0.031595,-0.033291,0.018958000000000003,-0.014321,0.015151,0.066008
636,0.8726870000000001,-1.38662,0.352606,0.140291,0.983087,-0.11771300000000001,0.042393,-0.005628,0.01793,-0.015475,0.018088,0.064796
637,0.870923,-1.386047,0.350511,0.140514,0.982982,-0.118323,0.035126,0.024286000000000002,0.002886,-0.016735,0.016026,0.053915
638,0.8685889999999999,-1.385866,0.347462,0.140373,0.982949,-0.11876500000000001,0.033145999999999995,0.0361,-0.019576,-0.012458,0.014563999999999999,0.050009
639,0.864461,-1.3857389999999998,0.342518,0.139977,0.982926,-0.119425,0.043824,0.030767000000000003,-0.026972000000000003,-0.008401,0.010269,0.051524
640,0.8609709999999999,-1.385787,0.33866399999999997,0.139524,0.982935,-0.11988199999999999,0.022034,9.1e-05,-0.024605000000000002,0.0008730000000000001,0.005896,0.039697
641,0.8581280000000001,-1.385905,0.33612800000000004,0.139094,0.9829559999999999,-0.120202,0.017588999999999997,-0.02976,-0.014983000000000002,0.005193,0.003646,0.037637000000000004
642,0.8557100000000001,-1.38591,0.33455999999999997,0.1388,0.982957,-0.12053499999999999,0.011059000000000001,-0.052134,-0.008591,0.007929,0.009078,0.034476
643,0.853474,-1.385994,0.33373800000000003,0.138468,0.982973,-0.12079200000000001,0.004523,-0.084061,-0.010731999999999998,0.013296,0.012328,0.033267000000000005
644,0.8501780000000001,-1.386119,0.332487,0.137976,0.9829959999999999,-0.12116500000000001,0.010804000000000001,-0.11495899999999999,-0.014922,0.018183,0.011389,0.036708
645,0.8459110000000001,-1.386113,0.330752,0.137461,0.982994,-0.12175599999999999,0.014952000000000002,-0.136301,-0.009524,0.017705000000000002,0.010399,0.037955
646,0.842017,-1.386016,0.32984,0.13705699999999998,0.982977,-0.12235399999999999,0.013751,-0.158697,-0.002026,0.009564,0.010615000000000001,0.041696
647,0.8383459999999999,-1.385809,0.32959299999999997,0.136759,0.9829389999999999,-0.122993,0.010162000000000001,-0.179811,0.005790999999999999,0.008764,0.006518,0.044105
648,0.835074,-1.385556,0.33011799999999997,0.136541,0.982892,-0.123607,0.006866,-0.19686099999999998,0.010062,0.013666999999999999,0.0032530000000000002,0.041132999999999996
649,0.832356,-1.385342,0.33150300000000005,0.13636099999999998,0.9828530000000001,-0.12412100000000001,0.000398,-0.21175300000000002,0.010036,0.018484999999999998,0.008175,0.040975
650,0.829066,-1.385139,0.33266599999999996,0.136099,0.982815,-0.124704,0.000307,-0.22774899999999998,0.014329,0.016977000000000003,0.011386,0.043831999999999996
651,0.825734,-1.384909,0.333953,0.135849,0.982773,-0.125309,0.003498,-0.23201300000000002,0.01222,0.016556,0.012740999999999999,0.038685000000000004
652,0.8219549999999999,-1.384628,0.334963,0.135576,0.982721,-0.12600899999999998,0.01197,-0.246952,0.011231,0.021421,0.007651000000000001,0.039279
653,0.8167949999999999,-1.384149,0.334968,0.135267,0.982632,-0.127029,0.019323,-0.266178,0.017716,0.021715,0.008213,0.04216
654,0.8119109999999999,-1.383462,0.33563899999999997,0.13513499999999998,0.982504,-0.128153,0.027748000000000002,-0.28328200000000003,0.025274,0.022336,0.006784,0.040520999999999995
655,0.806503,-1.3826120000000002,0.336009,0.135043,0.982345,-0.12946,0.030979000000000003,-0.291188,0.033138,0.015699,0.009170999999999999,0.048664
656,0.800979,-1.381616,0.336414,0.135027,0.982159,-0.130883,0.035193,-0.297615,0.038517,0.014981999999999999,0.008198,0.05375
657,0.7958729999999999,-1.380558,0.337256,0.135099,0.981959,-0.132298,0.037346,-0.296545,0.035325999999999996,0.018328,0.005056000000000001,0.047368
658,0.790254,-1.379556,0.337469,0.135051,0.981769,-0.133746,0.039528,-0.290144,0.03106,0.016011,0.0042840000000000005,0.051196
659,0.7841100000000001,-1.3783969999999999,0.33703099999999997,0.13503099999999998,0.981548,-0.135379,0.051264,-0.28488,0.036476,0.008478,0.007877,0.046343999999999996
660,0.7781710000000001,-1.377066,0.336459,0.135141,0.9812930000000001,-0.13710899999999998,0.054560000000000004,-0.258281,0.041806,-0.008371,0.010376,0.04255
661,0.7729590000000001,-1.375494,0.336125,0.135501,0.9809889999999999,-0.138914,0.067401,-0.237071,0.054687,-0.028567000000000002,0.015088999999999998,0.05347999999999999
662,0.767825,-1.373301,0.335356,0.13627999999999998,0.980561,-0.141156,0.099426,-0.211702,0.07624299999999999,-0.035893,0.020965,0.068661
663,0.76245,-1.3701450000000002,0.333781,0.137657,0.9799370000000001,-0.144125,0.150678,-0.176829,0.10219400000000001,-0.0709,0.020444999999999998,0.101232
664,0.753877,-1.365744,0.32807,0.13936700000000002,0.97905,-0.14844200000000002,0.235123,-0.131356,0.11233900000000001,-0.07093200000000001,0.022155,0.11810799999999999
665,0.742826,-1.360222,0.31905700000000004,0.141372,0.9779110000000001,-0.153952,0.273593,-0.102788,0.127526,-0.065948,0.025202000000000002,0.12143599999999999
666,0.733255,-1.354401,0.311305,0.1437,0.976678,-0.159525,0.28307899999999997,-0.102923,0.15323,-0.045051999999999995,0.003043,0.100565
667,0.722925,-1.348047,0.303135,0.146148,0.9752940000000001,-0.165652,0.313913,-0.125406,0.154542,-0.026443,-0.021818,0.099872
668,0.713004,-1.341429,0.295561,0.14871700000000002,0.9738100000000001,-0.171974,0.301039,-0.12967,0.166208,-0.028768000000000002,-0.026804,0.101265
669,0.7065,-1.335069,0.29175700000000004,0.151613,0.9723450000000001,-0.177645,0.268812,-0.141425,0.20338599999999998,-0.029238,-0.070489,0.098864
670,0.7056140000000001,-1.328553,0.293652,0.15556199999999998,0.970802,-0.182599,0.211221,-0.126194,0.25326,-0.02632,-0.095665,0.067944
671,0.713272,-1.323479,0.30445500000000003,0.160176,0.9695729999999999,-0.185125,0.038179000000000005,-0.158668,0.26598,-0.004384000000000001,-0.061995,0.03304
672,0.726169,-1.320437,0.32121900000000003,0.164509,0.968823,-0.185249,-0.031177,-0.178594,0.24736100000000003,0.005673,-0.029736000000000002,0.028114
673,0.737296,-1.317723,0.336861,0.168327,0.968148,-0.185353,-0.026976999999999998,-0.206254,0.234607,0.025216,0.038245999999999995,0.026554
674,0.747328,-1.31508,0.351684,0.171916,0.967482,-0.18553,-0.024877,-0.223268,0.225029,0.006307,0.101823,0.015761
675,0.7555890000000001,-1.312653,0.36498400000000003,0.17505199999999999,0.966866,-0.185813,-0.026913999999999997,-0.230602,0.196183,-0.009128,0.102302,0.010337
676,0.76162,-1.310608,0.376085,0.177534,0.966341,-0.186185,-0.01825,-0.24006599999999997,0.157799,-0.023497,0.11605599999999999,0.0023469999999999997
677,0.765204,-1.3089979999999999,0.38472399999999995,0.179278,0.9659260000000001,-0.186669,-0.017001,-0.23248000000000002,0.12468299999999999,-0.020221,0.11965999999999999,-0.006232
678,0.7673439999999999,-1.307411,0.39167199999999996,0.180742,0.965514,-0.187389,0.006503,-0.232533,0.11737,-0.012620000000000001,0.10611099999999998,-0.004079
679,0.767237,-1.3054629999999998,0.396606,0.182027,0.9650049999999999,-0.18876199999999999,0.034127,-0.261379,0.11439500000000001,-0.009511,0.086249,0.003078
680,0.768234,-1.301987,0.406574,0.18454500000000001,0.964088,-0.19099100000000002,0.014925999999999998,-0.426717,0.18604400000000001,0.039713,-0.044868,-0.003573
681,0.765899,-1.300829,0.412113,0.184872,0.96378,-0.192226,-0.012012,-0.37498000000000004,0.058671,-0.01318,0.008388,0.015513999999999998
682,0.761991,-1.300805,0.41634899999999997,0.184136,0.963773,-0.192965,-0.057921,-0.41198500000000005,0.028488,-0.022408,0.005251,0.016329
683,0.758043,-1.302019,0.42124399999999995,0.182568,0.964096,-0.19284,-0.103805,-0.44366300000000003,-0.001703,-0.026944,0.000122,0.029861000000000002
684,0.75459,-1.30399,0.427045,0.1806,0.964618,-0.19208499999999998,-0.13684000000000002,-0.45412399999999997,-0.021148,-0.026043,-0.009311,0.036445
685,0.751908,-1.306541,0.433615,0.178402,0.9652870000000001,-0.19077,-0.159201,-0.450824,-0.027718,-0.031201,-0.007386,0.036702
686,0.749642,-1.309346,0.440533,0.176124,0.966016,-0.189191,-0.161305,-0.441242,-0.02454,-0.040229,0.010729,0.048185000000000006
687,0.748215,-1.311903,0.44794399999999995,0.174172,0.966674,-0.187632,-0.149551,-0.42110699999999995,-0.008459999999999999,-0.04194,0.017396000000000002,0.04986
688,0.7466510000000001,-1.313596,0.45459099999999997,0.172767,0.9671059999999999,-0.186703,-0.09615,-0.38410700000000003,0.016434,-0.045768,0.028698,0.048366
689,0.744526,-1.313869,0.459589,0.172191,0.967175,-0.186875,-0.024589,-0.32805100000000004,0.05531799999999999,-0.055339,0.031101,0.061509
690,0.74235,-1.312781,0.46345699999999995,0.172495,0.9668979999999999,-0.188025,0.025620999999999998,-0.275117,0.094057,-0.053858,0.020712,0.064459
691,0.7414930000000001,-1.310374,0.46748100000000004,0.173905,0.966281,-0.189887,0.07051,-0.21260199999999999,0.139156,-0.053162,0.0182,0.068488
692,0.741634,-1.307312,0.471429,0.17593,0.9654879999999999,-0.192044,0.08557100000000001,-0.16585899999999998,0.158429,-0.077404,0.025051,0.055386000000000005
693,0.743367,-1.303986,0.476133,0.17843399999999998,0.9646170000000001,-0.194102,0.08039,-0.125386,0.164751,-0.096617,0.026594,0.052515
694,0.7447600000000001,-1.3007739999999999,0.479392,0.180804,0.963765,-0.19613,0.105278,-0.0615,0.150956,-0.086962,0.052088999999999996,0.043358999999999995
695,0.74285,-1.297472,0.478105,0.18258,0.962879,-0.198818,0.15901400000000002,-0.041178,0.084007,0.0027530000000000002,0.050763,0.039654
696,0.735302,-1.293741,0.471692,0.183482,0.961865,-0.202852,0.22415,-0.025439,0.087647,0.011617,0.012286,0.096041
697,0.732247,-1.290662,0.467419,0.18484,0.961018,-0.20561300000000002,0.05927999999999999,0.050908999999999996,0.052213999999999997,-0.046535,0.016643,0.051332
698,0.7339100000000001,-1.2930979999999999,0.471261,0.183614,0.9616889999999999,-0.203566,-0.196275,-0.207596,-0.08169900000000001,-0.054295,0.05685,-0.006593000000000001
699,0.72954,-1.297531,0.472224,0.17987899999999998,0.9628950000000001,-0.20118699999999998,-0.11935499999999999,-0.251272,-0.148404,0.0029519999999999998,0.07812100000000001,0.010025
700,0.721038,-1.2991030000000001,0.466388,0.17716300000000001,0.963318,-0.201572,0.061462,-0.071072,-0.08114199999999999,-0.007423999999999999,0.042602999999999995,0.044589
701,0.713841,-1.2975700000000001,0.45830299999999996,0.176674,0.9629049999999999,-0.203957,0.157839,0.079575,-0.009091,-0.055153,0.000779,0.08275700000000001
702,0.707166,-1.2950959999999998,0.448366,0.17685499999999998,0.9622350000000001,-0.20694200000000001,0.18822,0.18071700000000002,-0.020759,-0.09606,-0.008225,0.11578599999999999
703,0.701377,-1.292982,0.437384,0.176967,0.961657,-0.20951599999999998,0.17169600000000002,0.271448,-0.05196900000000001,-0.12253900000000001,0.028165,0.11643800000000001
704,0.697481,-1.291176,0.42620399999999997,0.177265,0.96116,-0.211535,0.17333800000000002,0.390788,-0.060655999999999995,-0.13161099999999998,0.050177,0.11084300000000001
705,0.694339,-1.288964,0.41336300000000004,0.17795999999999998,0.9605469999999999,-0.213725,0.22934699999999997,0.507778,-0.061483,-0.11558199999999999,0.056588,0.123057
706,0.693882,-1.284661,0.40304,0.180504,0.959342,-0.216982,0.267237,0.512488,0.059484,-0.078697,0.049798,0.120104
707,0.693916,-1.280918,0.389736,0.182806,0.9582790000000001,-0.219734,0.274961,0.7131109999999999,-0.034722,-0.058431,0.010288,0.102211
708,0.69487,-1.277616,0.374869,0.185041,0.9573299999999999,-0.221989,0.263523,0.779198,-0.034887,-0.054807,0.024390000000000002,0.060016999999999994
709,0.6961510000000001,-1.274002,0.360019,0.18754200000000001,0.9562790000000001,-0.22440500000000002,0.299662,0.7810739999999999,-0.00259,0.030949,-0.005,0.023400999999999998
710,0.698909,-1.269307,0.34669,0.191046,0.954895,-0.227321,0.309177,0.769293,0.0049689999999999995,0.049371,-0.015732,0.001552
711,0.7012550000000001,-1.265202,0.33362800000000004,0.194107,0.9536680000000001,-0.229866,0.266359,0.7194470000000001,-0.013425999999999999,0.051315,-0.009668000000000001,-0.034828
712,0.70436,-1.262126,0.32306399999999996,0.196719,0.952738,-0.23149699999999998,0.19867200000000002,0.6152810000000001,-0.012697,0.053586,-0.004984000000000001,-0.019266
713,0.70792,-1.259549,0.315377,0.19913699999999998,0.951952,-0.232659,0.162938,0.506713,-0.004262,0.058859,-0.010912,-0.014763
714,0.710886,-1.257587,0.308571,0.201045,0.95135,-0.233483,0.131951,0.45797299999999996,-0.042872,0.012273000000000001,-0.003107,-0.012886000000000002
715,0.71405,-1.256628,0.302713,0.20238,0.9510540000000001,-0.233535,0.07203899999999999,0.42408,-0.040042,-0.013338999999999998,0.007168000000000001,-0.008607
716,0.719329,-1.256876,0.299572,0.203455,0.9511299999999999,-0.23228600000000002,-0.009056999999999999,0.406314,-0.055541,0.000936,0.00233,0.007265000000000001
717,0.727518,-1.258515,0.299796,0.20431300000000002,0.951635,-0.229448,-0.094449,0.39171999999999996,-0.06146,0.01697,-0.004614,0.007783
718,0.738534,-1.261514,0.303623,0.204907,0.9525520000000001,-0.22507199999999997,-0.18213800000000002,0.348341,-0.059879999999999996,0.018925,-0.009742,0.008687
719,0.751189,-1.265755,0.31065,0.204979,0.953835,-0.219506,-0.257139,0.268741,-0.068848,0.013130000000000001,-0.003563,0.0071189999999999995
720,0.765231,-1.270952,0.320334,0.204604,0.955383,-0.21302800000000002,-0.30213,0.229479,-0.06804400000000001,-0.029113,0.008042,0.011963
721,0.780301,-1.275992,0.331457,0.204402,0.956859,-0.206496,-0.28831799999999996,0.21970599999999998,-0.057342,-0.059489,0.018498,0.002914
722,0.7959390000000001,-1.280733,0.34314,0.204362,0.958226,-0.200098,-0.289432,0.215423,-0.050935,-0.058976,-0.001179,0.02476
723,0.8125560000000001,-1.285495,0.355738,0.204344,0.959577,-0.19353499999999998,-0.302201,0.231413,-0.042499,-0.055279999999999996,-0.01608,0.027839999999999997
724,0.8320860000000001,-1.290351,0.370741,0.20463699999999999,0.960932,-0.186368,-0.32876700000000003,0.27404,-0.023511,-0.052414999999999996,0.003759,0.035595999999999996
725,0.854043,-1.295364,0.387667,0.205044,0.9623079999999999,-0.17866300000000002,-0.356439,0.286928,-0.025858,-0.05505,0.019183000000000002,0.048567
726,0.876742,-1.301065,0.40629699999999996,0.204827,0.963842,-0.170452,-0.391899,0.199823,-0.056972,-0.050987,0.039499,0.040782
727,0.9014700000000001,-1.307928,0.42840500000000004,0.203785,0.965649,-0.161226,-0.476196,0.171458,-0.083162,-0.048695,0.057789,0.035219
728,0.927372,-1.315731,0.451294,0.20185699999999998,0.9676469999999999,-0.151369,-0.44583,0.21211100000000002,-0.152436,-0.07881,0.087102,0.071031
729,0.9462700000000001,-1.32323,0.466371,0.19879000000000002,0.969512,-0.143281,-0.338875,0.21622,-0.207242,-0.077986,0.072252,0.083588
730,0.95972,-1.331112,0.475653,0.194434,0.971413,-0.136205,-0.31826,0.228127,-0.272275,-0.06095,0.08821799999999999,0.086172
731,0.972881,-1.339305,0.484158,0.189625,0.973325,-0.12915,-0.30645700000000003,0.24618299999999999,-0.269011,-0.074757,0.07625,0.06205700000000001
732,0.9839030000000001,-1.3461290000000001,0.49005,0.185502,0.9748680000000001,-0.12337100000000001,-0.190159,0.283981,-0.23192800000000002,-0.05356,0.054108,0.015094999999999999
733,0.987067,-1.350314,0.48663199999999995,0.18248499999999998,0.975792,-0.12053399999999999,-0.028006,0.350249,-0.161445,-0.024084,0.055687,0.004704
734,0.988835,-1.352225,0.481,0.18114,0.976208,-0.11918599999999999,-0.008124,0.342406,-0.082248,0.034787,-0.0067870000000000005,0.030761
735,0.996606,-1.35398,0.483983,0.180623,0.9765870000000001,-0.116844,-0.11366400000000002,0.174255,-0.031495,0.049526,-0.068873,0.030663
736,1.007841,-1.355696,0.49418,0.180508,0.9769549999999999,-0.11391400000000002,-0.142395,-0.010083,0.00486,0.049992,-0.076503,0.023383
737,1.015357,-1.356854,0.504495,0.180397,0.977202,-0.11195699999999999,-0.1187,-0.190229,0.012734,0.023262,0.0029620000000000002,0.012958
738,1.021468,-1.357844,0.51584,0.180252,0.977411,-0.110347,-0.124418,-0.271187,0.017071,-0.0056,0.018774000000000002,0.030726
739,1.024995,-1.35845,0.5249510000000001,0.180134,0.9775389999999999,-0.109403,-0.076395,-0.261793,0.023803,-0.013096,0.018402,0.032682
740,1.02855,-1.358118,0.5336,0.18079800000000001,0.977469,-0.108929,-0.060453999999999994,-0.242806,0.05700499999999999,-0.003003,-0.010703,0.036098000000000005
741,1.031986,-1.357621,0.542395,0.181589,0.9773639999999999,-0.108556,-0.068124,-0.27585,0.068744,0.010092,-0.00895,0.037084
742,1.0356940000000001,-1.357236,0.552184,0.182313,0.977283,-0.108074,-0.092796,-0.306653,0.06754299999999999,0.015394999999999999,-0.017581,0.029216000000000002
743,1.04098,-1.357325,0.564447,0.182807,0.977301,-0.10706500000000001,-0.11326300000000002,-0.357685,0.059988,0.026879000000000004,0.007379000000000001,0.032083
744,1.04411,-1.357315,0.5759270000000001,0.183151,0.977299,-0.10649700000000001,-0.098629,-0.424849,0.060177,0.040131,-0.002782,0.031287
745,1.048565,-1.3575030000000001,0.589588,0.18346400000000002,0.977339,-0.10558900000000002,-0.15213,-0.45769399999999993,0.061980999999999994,0.045281,-0.008849,0.029966000000000003
746,1.0574860000000001,-1.358307,0.608657,0.18371400000000002,0.977509,-0.10356199999999999,-0.21416100000000002,-0.501115,0.051989999999999995,0.038317000000000004,-0.013444,0.025162
747,1.066368,-1.3600940000000001,0.628425,0.183097,0.977884,-0.101082,-0.21644899999999997,-0.56066,0.026413,0.017449,0.001577,0.035149
748,1.0733709999999999,-1.361365,0.647583,0.18270799999999998,0.9781489999999999,-0.099204,-0.203824,-0.592693,0.034019,0.034135000000000006,-0.027313,0.029517
749,1.083304,-1.362814,0.670121,0.18243099999999998,0.97845,-0.09672,-0.25722399999999995,-0.603168,0.035795999999999994,0.029467,-0.022853000000000002,0.067881
750,1.097602,-1.364897,0.696836,0.181981,0.978878,-0.093173,-0.298976,-0.618004,0.052614999999999995,-0.009114,0.012988999999999999,0.065585
751,1.111623,-1.3665100000000001,0.7234729999999999,0.181855,0.9792059999999999,-0.08991299999999999,-0.262535,-0.592518,0.041087,0.0043479999999999994,0.009120999999999999,0.048561
752,1.12257,-1.367741,0.7465229999999999,0.18174200000000001,0.979455,-0.087394,-0.211248,-0.576713,0.040356,0.008901000000000001,0.01052,0.063957
753,1.128862,-1.368241,0.7647079999999999,0.181845,0.979556,-0.086039,-0.154834,-0.58127,0.065325,0.006372,0.019803,0.06602000000000001
754,1.1328559999999999,-1.367881,0.780512,0.182507,0.979483,-0.085462,-0.11327899999999999,-0.572974,0.085901,0.005007999999999999,0.031671,0.059736000000000004
755,1.133566,-1.366716,0.792517,0.183602,0.979248,-0.085816,-0.065223,-0.540208,0.108628,0.001182,0.011276999999999999,0.054672000000000005
756,1.132268,-1.365085,0.801575,0.184936,0.978916,-0.086732,-0.030882,-0.496648,0.107743,0.008728,0.020581,0.04532
757,1.1281700000000001,-1.3633389999999999,0.807293,0.186122,0.978558,-0.08822100000000001,-0.005152,-0.47646700000000003,0.10042000000000001,0.015080000000000001,0.004261,0.041788
758,1.12283,-1.3617629999999998,0.811735,0.187039,0.978232,-0.08988099999999999,-0.00621,-0.49237,0.082273,0.015156000000000001,0.0046630000000000005,0.038963
759,1.117066,-1.360444,0.8159029999999999,0.187677,0.977957,-0.091524,-0.006166,-0.489149,0.07586,0.009802,0.001047,0.038544999999999996
760,1.112018,-1.359186,0.8204030000000001,0.188315,0.9776940000000001,-0.093014,-0.019911,-0.46246400000000004,0.074661,0.024423,-0.0134,0.020413
761,1.109207,-1.3582239999999999,0.826675,0.188896,0.977491,-0.093962,-0.041138,-0.444255,0.06808,0.037118,0.004717,0.02516
762,1.1073680000000001,-1.357394,0.8336049999999999,0.189448,0.977316,-0.094672,-0.043157,-0.421864,0.064833,0.038655,0.006662,0.024238
763,1.105479,-1.356558,0.839968,0.189997,0.977139,-0.09539500000000001,-0.037712,-0.397382,0.06484,0.026617000000000002,0.014118,0.029111
764,1.104311,-1.355668,0.846498,0.190662,0.976949,-0.09600800000000001,-0.037578,-0.36543200000000003,0.066936,0.010037,0.019419,0.039581
765,1.10267,-1.354642,0.851675,0.191399,0.9767290000000001,-0.096773,-0.013872,-0.318621,0.061701,-0.000283,0.012727,0.038866000000000005
766,1.099567,-1.3534899999999999,0.854283,0.1921,0.976482,-0.09787799999999999,0.0077480000000000005,-0.26115,0.056437,0.005562,0.008061,0.018196
767,1.09685,-1.352396,0.8562690000000001,0.19278299999999998,0.976245,-0.098886,0.007935,-0.21960500000000002,0.056385000000000005,0.01141,0.008481,0.020761
768,1.094385,-1.351168,0.8579479999999999,0.193606,0.975979,-0.099912,0.016531999999999998,-0.200481,0.061762,0.034818,-0.0051990000000000005,0.017804
769,1.092406,-1.349927,0.8598709999999999,0.194484,0.975707,-0.100853,0.006934999999999999,-0.19301600000000002,0.068094,0.038822,-0.004607,0.017449
770,1.092278,-1.3487790000000002,0.863772,0.195465,0.975455,-0.101393,-0.017636000000000002,-0.198265,0.070066,0.029205000000000002,0.007165,0.031005
771,1.092516,-1.3477569999999999,0.8680969999999999,0.196374,0.9752299999999999,-0.101806,-0.014412000000000001,-0.20356,0.059413,0.01319,0.008337,0.039367
772,1.091667,-1.346799,0.8711260000000001,0.19711700000000001,0.975017,-0.102403,-0.0014320000000000001,-0.180231,0.050847,-0.003773,0.020481,0.029939
773,1.090298,-1.345665,0.872741,0.197956,0.974765,-0.103184,0.021197,-0.127059,0.054140999999999995,-0.0045509999999999995,0.010907,0.027225
774,1.0889440000000001,-1.3443,0.8736280000000001,0.198995,0.974459,-0.10406800000000001,0.012667,-0.113232,0.066883,0.000193,0.0025,0.046298
775,1.094471,-1.343331,0.8815270000000001,0.200405,0.974241,-0.103399,-0.086565,-0.092739,0.089664,0.020465999999999998,-0.019514,0.08292100000000001
776,1.1035409999999999,-1.3425989999999999,0.893041,0.201972,0.974076,-0.101899,-0.10054,-0.119309,0.086396,-0.018424,0.020507,0.073349
777,1.114183,-1.342414,0.9054780000000001,0.203207,0.9740340000000001,-0.099823,-0.13630499999999998,-0.027483999999999998,0.064664,-0.024008,0.038585,0.068253
778,1.13018,-1.343293,0.920215,0.204004,0.974233,-0.096194,-0.17694000000000001,0.140103,0.015027,-0.002008,0.033763,0.061252
779,1.148248,-1.344743,0.934369,0.20441900000000002,0.9745590000000001,-0.091913,-0.17414000000000002,0.26058200000000004,-0.012881,-0.0068790000000000006,0.02239,0.063181
780,1.168282,-1.347011,0.948465,0.20418499999999998,0.9750639999999999,-0.086934,-0.18426199999999998,0.334314,-0.061116,-0.058112,0.006213000000000001,0.067387
781,1.18461,-1.349259,0.957449,0.203546,0.975561,-0.082762,-0.094329,0.418101,-0.046709,-0.082589,0.046671,0.080077
782,1.1984780000000002,-1.349805,0.961176,0.204177,0.9756809999999999,-0.079738,-0.023504,0.569945,0.014480000000000002,-0.066237,0.031277,0.075709
783,1.2134559999999999,-1.349143,0.963074,0.20595300000000002,0.975535,-0.07689700000000001,0.002532,0.699682,0.048679,-0.038458,0.010137,0.058495000000000005
784,1.227853,-1.348595,0.9627469999999999,0.20754099999999998,0.9754149999999999,-0.074103,0.026368,0.754035,0.02207,-0.002982,-0.001019,0.049048
785,1.237503,-1.348808,0.9576620000000001,0.20804899999999998,0.975462,-0.072029,0.06590399999999999,0.7125729999999999,-0.033148000000000004,0.034230000000000003,0.001147,0.021858000000000002
786,1.243015,-1.3494549999999998,0.949583,0.207846,0.9756040000000001,-0.07067799999999999,0.07635700000000001,0.646562,-0.05115,0.046991000000000005,0.004697,0.026213
787,1.247654,-1.350018,0.942005,0.20765100000000003,0.975727,-0.069538,0.069606,0.5783689999999999,-0.041496,0.034597,0.0072900000000000005,0.030873
788,1.252325,-1.350362,0.9354370000000001,0.207655,0.9758030000000001,-0.068462,0.065171,0.545343,-0.037212,0.0161,0.01402,0.025372
789,1.255668,-1.350454,0.9278209999999999,0.207796,0.975823,-0.06774,0.09070299999999999,0.5303359999999999,-0.035946,0.012388,-0.001137,0.026022000000000003
