,attitude.roll,attitude.pitch,attitude.yaw,gravity.x,gravity.y,gravity.z,rotationRate.x,rotationRate.y,rotationRate.z,userAcceleration.x,userAcceleration.y,userAcceleration.z
0,2.532366,-1.412042,-0.516446,0.090459,0.987425,0.129641,-0.048079000000000004,0.24642399999999998,0.08041799999999999,0.046275,0.012636,0.01045
1,2.531,-1.4101350000000001,-0.523151,0.09171499999999999,0.9871219999999999,0.13105899999999998,-0.05326,0.275226,0.075004,0.038732,0.015701,0.013915
2,2.531485,-1.408266,-0.528366,0.092708,0.986821,0.132614,-0.056375,0.288046,0.06855599999999999,0.028569,0.006816,0.008255
3,2.532743,-1.406492,-0.532879,0.093541,0.986532,0.134165,-0.049964,0.28591,0.064331,0.023005,0.001779,0.004644
4,2.5337959999999997,-1.404968,-0.53742,0.09425800000000001,0.986282,0.135497,-0.037195,0.27310300000000004,0.059096,0.016673,-0.003814,0.0027170000000000002
5,2.534989,-1.403693,-0.541596,0.094813,0.9860709999999999,0.136642,-0.027587999999999998,0.26564699999999997,0.050626,0.013356999999999999,-0.003038,-0.0012050000000000001
6,2.536827,-1.4026239999999999,-0.545076,0.095161,0.985892,0.137684,-0.025431,0.26247800000000004,0.0421,0.014625999999999998,-0.005378,-0.005177
7,2.539514,-1.4016819999999999,-0.547632,0.095316,0.985734,0.138703,-0.026512,0.258225,0.041029,0.014119999999999999,-0.004945000000000001,-0.005845
8,2.541269,-1.400658,-0.550949,0.09564199999999999,0.985561,0.139703,-0.024427,0.24969299999999997,0.043187,0.014709,-0.002148,-0.010781
9,2.5422540000000002,-1.399783,-0.554959,0.095992,0.9854129999999999,0.140511,-0.014863999999999999,0.247504,0.049666,0.018966999999999998,-0.004471,-0.014916
10,2.542026,-1.399054,-0.560088,0.09643,0.985289,0.14108199999999999,0.0,0.23783800000000002,0.056191,0.014105000000000001,-0.003752,-0.015090000000000001
11,2.539287,-1.3985299999999998,-0.5674680000000001,0.097109,0.9851989999999999,0.141243,0.016978999999999998,0.22284400000000001,0.06167,0.003218,-0.004196,-0.008461
12,2.535156,-1.398268,-0.576072,0.097838,0.9851540000000001,0.141052,0.034000999999999997,0.21531399999999998,0.06500299999999999,-0.002989,0.0018149999999999998,-0.002121
13,2.529889,-1.398168,-0.585634,0.098635,0.985137,0.14061400000000002,0.045655,0.202469,0.07044199999999999,-0.005404,0.0063950000000000005,-0.001241
14,2.522782,-1.398168,-0.596598,0.099633,0.985137,0.13991199999999998,0.052993,0.174742,0.07159700000000001,-0.012657999999999999,0.013887,-0.004261
15,2.514827,-1.3983,-0.607757,0.10066699999999999,0.985159,0.139009,0.063485,0.136351,0.072788,-0.009343,0.014719,0.003858
16,2.505983,-1.398548,-0.61905,0.101746,0.985202,0.137916,0.066537,0.102255,0.071785,-0.007126,0.006711,0.0025109999999999998
17,2.497289,-1.398799,-0.629614,0.10279300000000001,0.985245,0.136828,0.063235,0.07459099999999999,0.066456,-0.013116999999999998,0.001266,-0.000384
18,2.489287,-1.3991879999999999,-0.638916,0.10365,0.985311,0.135694,0.063173,0.048010000000000004,0.053671,-0.012523999999999999,-0.010763,-0.00134
19,2.481635,-1.3996309999999998,-0.647309,0.10441900000000001,0.9853870000000001,0.134554,0.058838,0.019319,0.039791,-0.007968000000000001,-0.008901000000000001,0.001524
20,2.4750900000000002,-1.4000290000000002,-0.654087,0.105055,0.985455,0.13355999999999998,0.045979,-0.0008470000000000001,0.032249,-0.005247,-0.006359,0.0054020000000000006
21,2.470426,-1.400335,-0.658718,0.10549000000000001,0.985507,0.13283299999999998,0.034210000000000004,-0.010385,0.030043,-0.003668,-0.00252,5.6000000000000006e-05
22,2.4658439999999997,-1.400507,-0.663063,0.105991,0.9855360000000001,0.132216,0.030994999999999998,-0.019934999999999998,0.023622999999999998,-0.005116,-0.0046700000000000005,-0.0007
23,2.461493,-1.400854,-0.666934,0.10635,0.9855950000000001,0.131487,0.035257,-0.031626,0.012986000000000001,-0.005047,-0.0063159999999999996,-0.000384
24,2.458001,-1.401241,-0.669799,0.10656900000000001,0.9856600000000001,0.13082,0.033138,-0.033727,0.007633,-0.000612,0.0008210000000000001,0.0040219999999999995
25,2.454776,-1.401638,-0.6723939999999999,0.106743,0.985727,0.130174,0.026756,-0.032626999999999996,0.004382,-0.005272,0.001486,0.00598
26,2.452069,-1.4019700000000002,-0.6744140000000001,0.106887,0.985783,0.129633,0.022463999999999998,-0.040060000000000005,0.002225,-0.007552,-0.002247,0.005591
27,2.449652,-1.402302,-0.675849,0.106991,0.9858379999999999,0.12912200000000001,0.020278,-0.057076,-0.0031100000000000004,-0.002651,0.002641,0.009046
28,2.447607,-1.402639,-0.676708,0.107044,0.9858950000000001,0.128649,0.018139,-0.061316999999999997,-0.006324000000000001,-0.002231,0.005987,0.011625
29,2.4462580000000003,-1.402931,-0.676812,0.10703299999999999,0.985944,0.12828299999999998,0.011738,-0.063416,-0.008502,-0.004051,0.004748,0.010754999999999999
30,2.445357,-1.403289,-0.6764020000000001,0.106923,0.9860030000000001,0.127918,0.014953,-0.066598,-0.014884999999999999,-0.005987,0.000508,0.014506999999999999
31,2.444238,-1.4037950000000001,-0.676054,0.10674700000000001,0.986088,0.127417,0.021330000000000002,-0.078312,-0.021235,-0.0030789999999999997,0.001598,0.016503
32,2.443223,-1.404372,-0.67528,0.106511,0.986183,0.126873,0.021263,-0.09747,-0.025484,-0.009663,0.003059,0.017811
33,2.442658,-1.404982,-0.6735899999999999,0.106195,0.986284,0.126352,0.015843,-0.122992,-0.031898,-0.014688,-0.003038,0.015326
34,2.441985,-1.405776,-0.6714600000000001,0.105774,0.9864149999999999,0.12568,0.025377,-0.150672,-0.044614999999999995,-0.015641,-0.011836,0.010703
35,2.4412689999999997,-1.406984,-0.6687390000000001,0.105097,0.986613,0.124694,0.047695,-0.184779,-0.059370000000000006,-0.006114,-0.026591000000000004,0.012849000000000001
36,2.4391599999999998,-1.408606,-0.666684,0.104326,0.986876,0.12325,0.057163,-0.21994499999999997,-0.0646,-0.020967,-0.00952,0.023280000000000002
37,2.436907,-1.410389,-0.664269,0.10346300000000001,0.9871620000000001,0.121674,0.059253,-0.24014899999999997,-0.07524199999999999,-0.029794,-0.000697,0.025268000000000002
38,2.435714,-1.412358,-0.6602520000000001,0.10234700000000001,0.987475,0.120071,0.061296,-0.273129,-0.088004,-0.047507,0.004545,0.020919999999999998
39,2.433225,-1.414232,-0.656365,0.10144299999999999,0.987769,0.11841199999999999,0.053444000000000005,-0.348775,-0.078348,-0.0535,0.009637,0.014553
40,2.426971,-1.415784,-0.6541899999999999,0.101176,0.98801,0.11661600000000001,0.049587,-0.46924099999999996,-0.052583000000000005,-0.053874,0.010327,0.011542
41,2.418333,-1.4170770000000001,-0.651766,0.10133400000000001,0.988208,0.11478,0.040424,-0.601334,-0.045,-0.049727999999999994,0.003796,0.015057
42,2.409319,-1.4182290000000002,-0.647555,0.101603,0.988384,0.113015,0.019809,-0.6896329999999999,-0.056782000000000006,-0.042307,0.014378,0.012397
43,2.4034009999999997,-1.419317,-0.6389229999999999,0.101548,0.988549,0.11161800000000001,-0.008069,-0.740588,-0.07720700000000001,-0.035508,0.016334,0.011337
44,2.40048,-1.42028,-0.626494,0.101232,0.9886940000000001,0.11062000000000001,-0.031645,-0.778796,-0.092278,-0.032674,0.010145999999999999,0.005988
45,2.399553,-1.421247,-0.610992,0.100688,0.9888379999999999,0.109821,-0.041434,-0.8383440000000001,-0.11043,-0.029261000000000002,-0.000496,0.001797
46,2.398644,-1.422281,-0.59414,0.100095,0.988992,0.108975,-0.046988999999999996,-0.9043040000000001,-0.127476,-0.030987999999999998,0.001807,0.000857
47,2.400051,-1.423563,-0.573901,0.09908600000000001,0.989181,0.108182,-0.05561900000000001,-0.945739,-0.147779,-0.030147000000000004,0.010209000000000001,9.499999999999999e-05
48,2.403145,-1.424759,-0.551327,0.097956,0.9893559999999999,0.10761400000000002,-0.070647,-0.975475,-0.15746,-0.031214,0.012338,0.0018059999999999999
49,2.406822,-1.425805,-0.527388,0.09686499999999999,0.989507,0.107205,-0.080426,-1.020162,-0.16281199999999998,-0.030336000000000002,0.011439,0.0017280000000000002
50,2.411461,-1.426806,-0.50139,0.095705,0.9896510000000001,0.10691500000000001,-0.090205,-1.069092,-0.172432,-0.021334,0.012134,0.001102
51,2.417232,-1.427805,-0.473679,0.09443,0.9897940000000001,0.106724,-0.096673,-1.09141,-0.179926,-0.009439,0.016294,-0.001972
52,2.423747,-1.428688,-0.44485699999999995,0.093159,0.98992,0.106679,-0.105251,-1.10309,-0.182107,-0.0071909999999999995,0.018412,-0.00617
53,2.4314869999999997,-1.4296520000000001,-0.41478100000000007,0.091709,0.9900559999999999,0.106674,-0.100921,-1.099866,-0.19276300000000002,0.004666,-0.001149,-0.028945
54,2.43982,-1.43084,-0.384125,0.090058,0.9902219999999999,0.10653599999999999,-0.090224,-1.103061,-0.202299,0.028366000000000002,-0.001575,-0.03247
55,2.4472419999999997,-1.4321979999999999,-0.35439299999999996,0.088404,0.990411,0.10616800000000001,-0.074192,-1.095664,-0.201128,0.03652,0.012,-0.035063
56,2.45528,-1.433782,-0.324536,0.08655299999999999,0.9906280000000001,0.10566099999999999,-0.072938,-1.0668549999999999,-0.213975,0.040537000000000004,0.012362,-0.034616
57,2.4672520000000002,-1.435241,-0.291514,0.08438,0.990826,0.10556199999999999,-0.091888,-1.0177559999999999,-0.221648,0.056167999999999996,-0.008893,-0.019395
58,2.482295,-1.4362979999999999,-0.25635399999999997,0.08214099999999999,0.9909690000000001,0.105991,-0.11411900000000001,-0.9729620000000001,-0.21545100000000003,0.063595,-0.00374,-0.014546000000000002
59,2.498708,-1.436768,-0.220797,0.080111,0.991032,0.10695199999999999,-0.12679100000000001,-0.9218799999999999,-0.193168,0.071271,0.004208,-0.010104
60,2.512233,-1.437023,-0.189282,0.07850800000000001,0.991066,0.107821,-0.10528599999999999,-0.860268,-0.168527,0.078627,0.01696,-0.00162
61,2.5231209999999997,-1.437293,-0.16200799999999999,0.077174,0.991102,0.108451,-0.092153,-0.769833,-0.15145999999999998,0.08394299999999999,0.011386,0.00039
62,2.532416,-1.437376,-0.138205,0.076115,0.9911129999999999,0.10909500000000001,-0.088689,-0.6847300000000001,-0.124839,0.089672,0.010870999999999999,-0.000666
63,2.5390080000000004,-1.4371049999999999,-0.118747,0.075546,0.9910770000000001,0.10981500000000001,-0.08409,-0.596387,-0.10996500000000001,0.097184,-0.0027949999999999997,-0.004178
64,2.547229,-1.43707,-0.09994700000000001,0.07466,0.991072,0.11046099999999999,-0.064345,-0.472896,-0.106781,0.100999,0.001375,-0.005831
65,2.5550580000000003,-1.437187,-0.083973,0.07372999999999999,0.991087,0.110947,-0.047901,-0.35691100000000003,-0.088655,0.09963999999999999,0.005327,-0.002839
66,2.557114,-1.437,-0.075989,0.073604,0.9910629999999999,0.11125399999999999,-0.036864,-0.247337,-0.060944000000000005,0.079136,0.012218000000000001,0.010237000000000001
67,2.561586,-1.4368,-0.067839,0.073213,0.991036,0.111746,-0.043924,-0.139787,-0.044039999999999996,0.075041,0.008293,0.007745999999999999
68,2.567124,-1.436343,-0.060639,0.072839,0.990975,0.11252899999999999,-0.044588,-0.042874,-0.036691,0.071601,0.00011399999999999999,0.004582
69,2.567804,-1.435645,-0.059953,0.073137,0.9908809999999999,0.113158,-0.029365,0.029477,-0.028132,0.060941999999999996,-0.008062,0.0073409999999999994
70,2.5721439999999998,-1.43527,-0.056861,0.07284600000000001,0.9908299999999999,0.11378800000000001,-0.027038999999999997,0.085874,-0.014301,0.05899,-0.002671,0.005627
71,2.574276,-1.434598,-0.057163,0.07295900000000001,0.9907389999999999,0.11450199999999999,-0.02678,0.149764,-0.007972,0.052239,0.00045599999999999997,0.002579
72,2.5779970000000003,-1.434086,-0.057223,0.072805,0.99067,0.115204,-0.016909999999999998,0.21575100000000003,-0.001578,0.049418000000000004,0.006416,0.003906
73,2.582976,-1.433756,-0.057411000000000004,0.072402,0.990625,0.11583900000000001,-0.01236,0.28389200000000003,0.003708,0.046494,0.011817,0.008169
74,2.586416,-1.43317,-0.060254999999999996,0.07231,0.9905440000000001,0.11658099999999999,-0.019646,0.332886,0.01214,0.037737,0.019374000000000002,0.008388
75,2.591279,-1.4323190000000001,-0.06249400000000001,0.072184,0.9904270000000001,0.117653,-0.035567,0.366967,0.028007999999999998,0.03449,0.012502,-0.0022960000000000003
76,2.596662,-1.43123,-0.06476799999999999,0.072109,0.990276,0.11896199999999998,-0.040844,0.390378,0.038623000000000005,0.036259,0.008395999999999999,-0.0047350000000000005
77,2.600366,-1.429836,-0.06905700000000001,0.072379,0.990081,0.12041099999999999,-0.050426,0.40422199999999997,0.048152999999999994,0.036004,0.002594,-0.00301
78,2.60525,-1.428116,-0.07247200000000001,0.072659,0.9898379999999999,0.122226,-0.067472,0.421279,0.059762,0.033145,-0.000352,0.000135
79,2.6105169999999998,-1.426218,-0.076138,0.07296699999999999,0.989567,0.12422799999999999,-0.069462,0.463854,0.070376,0.031693,-0.003803,0.00149
80,2.614296,-1.4241840000000001,-0.082291,0.07351,0.9892719999999999,0.126243,-0.07142799999999999,0.511756,0.080983,0.034613,0.009187,0.005227000000000001
81,2.618666,-1.421984,-0.088657,0.074044,0.9889479999999999,0.128447,-0.07771900000000001,0.544768,0.089443,0.033149,0.015538,0.0038159999999999995
82,2.624232,-1.4196600000000001,-0.094532,0.074465,0.9886010000000001,0.130855,-0.080733,0.588446,0.091502,0.030302,0.011949,0.003636
83,2.630067,-1.4174,-0.10116699999999999,0.074795,0.988258,0.13323800000000002,-0.074073,0.639582,0.085074,0.035785000000000004,-0.00875,0.0002
84,2.637267,-1.415417,-0.107403,0.07478,0.9879530000000001,0.135488,-0.058897000000000005,0.688549,0.080844,0.037265,-0.019554,0.000117
85,2.645076,-1.413813,-0.114006,0.074475,0.9877030000000001,0.137461,-0.041611,0.734304,0.07877,0.041874,-0.013704,0.0029809999999999997
86,2.652616,-1.412347,-0.12179200000000001,0.074117,0.9874729999999999,0.139298,-0.036057,0.781166,0.076612,0.041789,0.00093,-0.003831
87,2.661741,-1.410942,-0.129049,0.073482,0.987251,0.141197,-0.035793,0.838694,0.075472,0.039952,0.002694,-0.016594
88,2.672152,-1.409732,-0.13613499999999998,0.072549,0.987057,0.143021,-0.023775,0.893016,0.066941,0.033805,-0.0033079999999999997,-0.021622
89,2.683854,-1.408915,-0.143026,0.071226,0.986926,0.144582,-0.00536,0.9420059999999999,0.054188,0.036669,-0.008837000000000001,-0.03005
90,2.6964740000000003,-1.408452,-0.14939000000000002,0.06959299999999999,0.986851,0.14588299999999998,3.2e-05,0.947343,0.046741000000000005,0.051104000000000004,-0.009678,-0.026743
91,2.710423,-1.407783,-0.154697,0.067827,0.986743,0.14743900000000001,-0.02441,0.9708559999999999,0.048677,0.058102999999999995,0.003095,-0.003472
92,2.7261849999999996,-1.406352,-0.159218,0.066065,0.986509,0.149782,-0.073246,1.041267,0.065337,0.056967,0.026522000000000004,0.020628999999999998
93,2.743932,-1.403808,-0.16330699999999998,0.064368,0.9860899999999999,0.15324400000000002,-0.124206,1.1159379999999999,0.084113,0.041818,0.032053,0.010773
94,2.762013,-1.400751,-0.167964,0.062704,0.985577,0.157181,-0.124149,1.1382700000000001,0.093699,0.031474,0.022434,-0.002152
95,2.778102,-1.397791,-0.174688,0.061203999999999995,0.985072,0.160896,-0.124168,1.139314,0.099039,0.035156,-0.008509000000000001,-0.008186
96,2.794444,-1.394682,-0.181131,0.059608,0.984532,0.164753,-0.125302,1.132892,0.10758499999999999,0.045814999999999995,-0.006825,-0.006687
97,2.810187,-1.3913440000000001,-0.188372,0.058075999999999996,0.983942,0.16877799999999998,-0.14341900000000002,1.15101,0.121322,0.055999,-0.005044,-0.00264
98,2.824834,-1.387756,-0.197219,0.056697000000000004,0.983295,0.172963,-0.141228,1.181822,0.139457,0.06277999999999999,-0.002963,-0.003621
99,2.838914,-1.384984,-0.207342,0.05506799999999999,0.982786,0.176346,-0.084454,1.215781,0.12271900000000001,0.047059,-0.0031420000000000003,-0.025223
100,2.853923,-1.3829559999999999,-0.217482,0.05298099999999999,0.98241,0.179065,-0.061796000000000004,1.267918,0.11853699999999999,0.043104,-0.0052369999999999995,-0.019885
101,2.869267,-1.3812200000000001,-0.22821,0.050686,0.9820840000000001,0.181498,-0.05206,1.301956,0.12283499999999999,0.043934,-0.009916,-0.022241
102,2.88444,-1.379709,-0.238997,0.048303,0.981798,0.18367999999999998,-0.047865,1.278535,0.115417,0.043463,0.005964,0.004490999999999999
103,2.897642,-1.378291,-0.251513,0.046211,0.9815280000000001,0.18565299999999998,-0.028794999999999998,1.27941,0.146527,0.032891000000000004,0.008995999999999999,0.023133
104,2.908314,-1.376922,-0.26711399999999996,0.044538,0.9812649999999999,0.187444,-0.037306,1.3070469999999998,0.16886500000000002,0.007495,0.023694,0.034999
105,2.9181209999999997,-1.375035,-0.284023,0.043107,0.9809,0.18967699999999998,-0.060835,1.317688,0.192188,0.013059999999999999,0.023632,0.022497
106,2.923489,-1.373161,-0.304607,0.042486,0.980534,0.191699,-0.032475,1.2556530000000001,0.22985300000000003,0.013681,0.023998,0.020474000000000003
107,2.925259,-1.372004,-0.327665,0.04239,0.9803059999999999,0.192882,0.0067209999999999995,1.197973,0.234474,0.0032340000000000003,0.019877000000000002,0.027348
108,2.925621,-1.371507,-0.350748,0.042425,0.9802069999999999,0.193374,0.026656,1.1074190000000002,0.21870599999999998,0.013468,-0.008206999999999999,0.02295
109,2.925152,-1.371224,-0.372973,0.042575,0.980151,0.193624,0.041338,1.049847,0.21781399999999998,0.013318,-0.008151,0.0227
110,2.92335,-1.371419,-0.39565900000000004,0.042881999999999997,0.98019,0.193359,0.069965,1.0113969999999999,0.21912800000000002,0.021463999999999997,-0.040004000000000005,0.015274000000000001
111,2.920449,-1.3717290000000002,-0.41828000000000004,0.043376,0.980251,0.192938,0.048229,0.9124450000000001,0.208421,0.044682,-0.019634,0.025324
112,2.9167810000000003,-1.371407,-0.43931899999999996,0.044154,0.980188,0.19308499999999998,0.021261000000000002,0.8411870000000001,0.202982,0.023778,-0.018425999999999998,0.038558999999999996
113,2.916774,-1.371081,-0.457592,0.044226999999999995,0.980123,0.193397,0.030347000000000002,0.9244049999999999,0.163415,0.016335,-0.017263,0.03843
114,2.9198470000000003,-1.3713870000000001,-0.473343,0.043566,0.980184,0.19324000000000002,0.062439,0.922248,0.142277,0.037992000000000005,-0.0015,0.028714999999999997
115,2.922752,-1.3724450000000001,-0.488864,0.04278,0.9803930000000001,0.192355,0.097578,0.89554,0.130807,0.037756,0.0060880000000000005,0.034147000000000004
116,2.92635,-1.373733,-0.5030399999999999,0.041817,0.9806459999999999,0.191271,0.091129,0.867934,0.113705,0.038047000000000004,0.028357,0.028456
117,2.930762,-1.374886,-0.5161060000000001,0.040737,0.9808709999999999,0.190351,0.08896699999999999,0.8594280000000001,0.11156500000000001,0.046421,0.029657999999999997,0.024722
118,2.932904,-1.3763239999999999,-0.53161,0.040037,0.98115,0.189056,0.12091500000000001,0.8783629999999999,0.14381,0.05881,0.020941,0.032394
119,2.929738,-1.378426,-0.552902,0.040201,0.981554,0.186912,0.159135,0.8844280000000001,0.19214,0.067968,0.005171,0.021585
120,2.920626,-1.380918,-0.5799949999999999,0.041367,0.9820270000000001,0.184151,0.196236,0.875597,0.237275,0.06640599999999999,-0.018786,0.035683
121,2.9064799999999997,-1.3837,-0.612437,0.043331,0.982548,0.18089,0.197231,0.8925049999999999,0.270375,0.054219,0.004939,0.07291
122,2.892319,-1.385363,-0.645179,0.045485000000000005,0.982856,0.178674,0.136515,0.9034129999999999,0.259255,0.021532,0.027474000000000002,0.062903
123,2.883084,-1.386626,-0.672351,0.046814999999999996,0.983089,0.177045,0.12371800000000001,0.8451069999999999,0.19942000000000001,0.007673999999999999,0.024784999999999998,0.03435
124,2.874977,-1.387752,-0.696049,0.047958,0.983294,0.175593,0.10715899999999999,0.707799,0.185593,0.010834,0.017774,0.038472000000000006
125,2.8645509999999996,-1.3887559999999999,-0.719427,0.049516000000000004,0.983476,0.17413299999999998,0.12905,0.590554,0.18269200000000002,0.002792,0.0007,0.019043
126,2.850348,-1.391067,-0.744536,0.051330999999999995,0.983892,0.171234,0.206389,0.47415100000000004,0.187654,0.008681999999999999,-0.018300999999999998,0.049530000000000005
127,2.830319,-1.394555,-0.77263,0.053698,0.98451,0.166904,0.268735,0.325919,0.173325,-0.015399000000000001,0.00484,0.057935
128,2.810821,-1.399782,-0.797623,0.05527000000000001,0.9854129999999999,0.160956,0.351821,0.214108,0.090727,-0.06639400000000001,0.006881999999999999,0.045433999999999995
129,2.796712,-1.405797,-0.815454,0.055531,0.986418,0.15458,0.320944,0.151672,0.013678999999999998,-0.083332,-0.020003,0.026405
130,2.7894080000000003,-1.412099,-0.8249040000000001,0.054513,0.987434,0.148332,0.339081,0.068851,-0.069409,-0.079354,-0.026329,0.02159
131,2.789643,-1.419135,-0.82475,0.052082,0.9885209999999999,0.14182,0.360241,-0.047031,-0.146025,-0.052402,-0.045360000000000004,0.011073000000000001
132,2.792026,-1.42686,-0.820101,0.049125999999999996,0.9896590000000001,0.13476400000000002,0.364163,-0.134355,-0.156568,-0.044106,-0.048085,0.0009019999999999999
133,2.796421,-1.4349129999999999,-0.812647,0.045836,0.9907819999999999,0.127476,0.369583,-0.15021199999999998,-0.191761,-0.031737,-0.043379,0.003322
134,2.805627,-1.4432209999999999,-0.799768,0.041944999999999996,0.991873,0.12011500000000001,0.365942,-0.259876,-0.203396,0.000566,-0.038413,0.000338
135,2.81008,-1.451134,-0.792255,0.038854,0.992849,0.11287799999999999,0.366392,-0.093959,-0.137376,-0.014730000000000002,-0.041280000000000004,0.005454
136,2.805987,-1.4591370000000001,-0.795871,0.036698,0.9937729999999999,0.10521199999999999,0.40713499999999997,-0.009041,-0.096608,-0.005097,-0.039869,-0.0036340000000000005
137,2.7890349999999997,-1.466924,-0.811204,0.035802999999999995,0.99461,0.097309,0.39045599999999997,-0.119931,-0.057058000000000005,-0.078833,-0.054638,-0.049961
138,2.76349,-1.474508,-0.8362370000000001,0.035492,0.995368,0.089351,0.39919699999999997,-0.032775,-0.015447999999999998,-0.09211699999999999,0.001977,-0.025752999999999998
139,2.7410080000000003,-1.481832,-0.8585659999999999,0.034645999999999996,0.9960450000000001,0.081812,0.365465,0.004842,-0.069143,-0.110482,0.004,-0.029810000000000003
140,2.736932,-1.4889,-0.8632110000000001,0.032206,0.996648,0.075196,0.32545599999999997,0.042591000000000004,-0.15065599999999998,-0.126094,0.037562,-0.062424
141,2.7498299999999998,-1.496122,-0.8506299999999999,0.028485000000000003,0.9972129999999999,0.06895,0.32202,-0.060524,-0.201822,-0.114849,0.142039,-0.031826
142,2.796102,-1.503839,-0.8052819999999999,0.022658,0.9977590000000001,0.062952,0.29932600000000004,0.060141999999999994,-0.25447800000000004,-0.130919,0.031568,-0.032541
143,2.8573619999999997,-1.510785,-0.744811,0.016818,0.9982,0.057567999999999994,0.242792,0.040188999999999996,-0.27728,-0.161563,0.022247,-0.014203
144,2.947556,-1.516081,-0.655149,0.010543,0.9985040000000001,0.05365399999999999,0.163935,0.023569999999999997,-0.315197,-0.152542,0.023774,-0.018299
145,3.0664540000000002,-1.519834,-0.535382,0.003824,0.9987020000000001,0.050797,0.130393,-0.071161,-0.305696,-0.129709,0.006242,-0.046036
146,-3.095948,-1.52254,-0.41246400000000005,-0.0022010000000000003,0.9988360000000001,0.048188,0.12468900000000001,-0.124521,-0.276826,-0.11988499999999999,-0.009136,-0.027787
147,-2.975431,-1.524353,-0.28885,-0.007679000000000001,0.998922,0.045786,0.113757,-0.15973099999999998,-0.25335599999999997,-0.098095,-0.006047,-0.009455
148,-2.865025,-1.525441,-0.174656,-0.01238,0.998972,0.043616,0.10593399999999999,-0.203521,-0.21810300000000002,-0.08771699999999999,-0.016626,-0.009559
149,-2.7545029999999997,-1.5262040000000001,-0.059169000000000006,-0.016827,0.999006,0.041277999999999995,0.112976,-0.265465,-0.18486,-0.081745,-0.000562,-0.018512
150,-2.6532810000000002,-1.526499,0.048,-0.020773,0.9990190000000001,0.039104,0.090298,-0.310192,-0.168938,-0.068613,-0.002574,-0.007121
151,-2.5810009999999997,-1.5258559999999999,0.127138,-0.023885,0.9989899999999999,0.038047000000000004,0.040993,-0.343116,-0.15108,-0.074366,-0.002225,-0.0037
152,-2.524196,-1.524355,0.190716,-0.026871,0.998922,0.037847000000000006,0.007982,-0.336579,-0.158797,-0.076218,0.00503,-0.006887000000000001
153,-2.458397,-1.522141,0.263377,-0.030693,0.998817,0.037708,0.008029999999999999,-0.346085,-0.17908,-0.087197,0.030068,-0.017276
154,-2.407684,-1.519883,0.321277,-0.03408,0.998704,0.037783,0.005853,-0.358848,-0.182284,-0.08380900000000001,0.030181,-0.017352
155,-2.358495,-1.5174590000000001,0.377893,-0.037606,0.9985780000000001,0.037779,0.007848,-0.37065,-0.163027,-0.05890599999999999,0.016208,-0.0184
156,-2.317986,-1.515053,0.425737,-0.040868,0.998447,0.037857999999999996,0.000375,-0.360018,-0.151342,-0.055186,0.0063289999999999996,0.009047
157,-2.298579,-1.512672,0.45238100000000003,-0.04337,0.9983110000000001,0.03864,-0.039161,-0.354631,-0.13239700000000001,-0.052684,0.006465,0.008265999999999999
158,-2.2859529999999997,-1.510022,0.472001,-0.045852,0.9981540000000001,0.039824,-0.055226,-0.346142,-0.110088,-0.065445,-0.001663,-0.019819999999999997
159,-2.275041,-1.507909,0.490303,-0.047893,0.998023,0.040688,-0.019202,-0.389992,-0.09802899999999999,-0.054524,-0.006675,-0.011941
160,-2.266212,-1.5063469999999999,0.5080680000000001,-0.04945,0.997924,0.041264999999999996,-0.0015019999999999999,-0.47850600000000004,-0.089247,-0.050876,-0.003386,-0.004446
161,-2.257475,-1.504884,0.527475,-0.050934,0.9978290000000001,0.041754,0.002363,-0.56588,-0.08697200000000001,-0.039352,0.009862000000000001,-0.000113
162,-2.244484,-1.503292,0.55266,-0.052716,0.9977219999999999,0.042082,0.010672,-0.630831,-0.101786,-0.024463,0.00214,0.009493000000000001
163,-2.235904,-1.501695,0.57493,-0.054327999999999994,0.997613,0.042611,0.0007059999999999999,-0.710696,-0.100685,-0.017221,-0.002054,0.023277000000000003
164,-2.235408,-1.499932,0.590407,-0.055732000000000004,0.99749,0.043668,-0.021962,-0.755415,-0.086899,-0.016457,-0.004524,0.039615
165,-2.239436,-1.498148,0.601121,-0.056955,0.9973620000000001,0.044997,-0.021856,-0.7309180000000001,-0.085862,-0.029013,-0.005282,0.037187
166,-2.239933,-1.496523,0.6154689999999999,-0.058204,0.997243,0.04603,-0.002696,-0.7490600000000001,-0.094251,-0.029275,0.006511,0.025259
167,-2.235993,-1.495005,0.634833,-0.059575,0.997129,0.046734,0.020684,-0.778931,-0.103663,-0.023922,0.005862,0.025455000000000002
168,-2.2307360000000003,-1.493527,0.655964,-0.06098200000000001,0.997016,0.047323000000000004,0.024899,-0.794908,-0.107886,-0.015861,0.01719,0.018609999999999998
169,-2.225612,-1.491916,0.677004,-0.062499,0.996891,0.047989,0.015359000000000001,-0.786331,-0.11330499999999999,-0.013566,0.012828999999999998,0.014069
170,-2.222975,-1.490173,0.695014,-0.06400399999999999,0.9967520000000001,0.048877,0.002672,-0.751171,-0.103824,0.002542,-1.7e-05,0.025174000000000002
171,-2.224055,-1.4887059999999999,0.708495,-0.065114,0.996633,0.049836,-0.001504,-0.709696,-0.08254199999999999,0.003148,0.001857,0.01651
172,-2.227073,-1.487375,0.7189180000000001,-0.066015,0.9965219999999999,0.050842,-0.000183,-0.650058,-0.07940499999999999,0.005102000000000001,0.0050030000000000005,0.0065769999999999995
173,-2.224398,-1.486161,0.73418,-0.067112,0.9964209999999999,0.051401,0.025637,-0.616004,-0.093155,0.012241,0.017633000000000003,0.008215
174,-2.215447,-1.484915,0.755147,-0.068562,0.9963139999999999,0.05154500000000001,0.040774,-0.5861689999999999,-0.108043,0.027927999999999998,0.012749,0.01596
175,-2.205241,-1.483758,0.776632,-0.07001,0.996215,0.051524,0.03988,-0.539327,-0.099563,0.031589,0.012407,0.019430000000000003
176,-2.1947970000000003,-1.4826030000000001,0.797283,-0.071477,0.9961129999999999,0.051461,0.03802,-0.48390500000000003,-0.10498800000000001,0.0333,0.006221,0.012519
177,-2.1844650000000003,-1.481243,0.816649,-0.073112,0.995993,0.0515,0.031882,-0.430598,-0.11044000000000001,0.043724,5.5e-05,0.014449000000000002
178,-2.1743959999999998,-1.479989,0.835046,-0.074656,0.9958799999999999,0.05147,0.034064,-0.402977,-0.09336900000000001,0.051615,-0.00029,0.01193
179,-2.168663,-1.479236,0.8484879999999999,-0.07556900000000001,0.9958110000000001,0.051463,0.037351,-0.363654,-0.0731,0.053077,0.002999,0.011373000000000001
180,-2.159811,-1.4787270000000001,0.864165,-0.076441,0.995765,0.051073,0.056717,-0.32113600000000003,-0.06661,0.053858,0.00596,0.015837
181,-2.148505,-1.478575,0.881229,-0.07714299999999999,0.995751,0.050289,0.06544900000000001,-0.25945300000000004,-0.048468000000000004,0.059976999999999996,0.0063549999999999995,0.017444
182,-2.140136,-1.4789809999999999,0.8939090000000001,-0.077223,0.9957879999999999,0.049426,0.06677000000000001,-0.177534,-0.022927,0.073515,0.011276999999999999,0.012112999999999999
183,-2.132117,-1.479641,0.90427,-0.077061,0.995848,0.048455,0.05969,-0.074245,-0.006017,0.083897,0.018159,0.014334
184,-2.1249439999999997,-1.480285,0.9116049999999999,-0.076862,0.995907,0.047563999999999995,0.043114,0.039781,-0.002006,0.092044,0.014256,0.019513
185,-2.118619,-1.480908,0.9156139999999999,-0.076632,0.9959629999999999,0.046754000000000004,0.030824,0.160175,0.004163,0.084276,0.004068,0.026732
186,-2.113107,-1.481398,0.916734,-0.07646900000000001,0.996007,0.046079,0.014186,0.24974200000000002,-0.002477,0.061638,0.004894,0.037311000000000004
187,-2.105573,-1.481379,0.918026,-0.07682699999999999,0.9960049999999999,0.045509,0.0019399999999999999,0.355321,-0.020858,0.052459000000000006,0.006116,0.03965
188,-2.0972619999999997,-1.481383,0.917776,-0.077201,0.9960049999999999,0.044868,0.011059000000000001,0.47358199999999995,-0.032695999999999996,0.035865,0.004681,0.047204
189,-2.081591,-1.48119,0.9226280000000001,-0.078066,0.9959879999999999,0.043748,0.026513,0.576907,-0.044471,0.026552,0.001006,0.044631
190,-2.061505,-1.480907,0.9303620000000001,-0.079177,0.9959629999999999,0.042304,0.032182999999999996,0.648274,-0.047727,0.013472,0.007012999999999999,0.044442
191,-2.041214,-1.480315,0.936931,-0.08054299999999999,0.995909,0.040955,0.012223999999999999,0.7069770000000001,-0.058624,0.014488,0.005281,0.022597
192,-2.023883,-1.479278,0.940083,-0.08216799999999999,0.995815,0.040005,-0.009059999999999999,0.717709,-0.059855,0.0035399999999999997,0.001469,0.027317
193,-2.008276,-1.478218,0.94068,-0.08374,0.995718,0.039166,-0.017412999999999998,0.76989,-0.04823,-0.003693,0.007470999999999999,0.026447000000000002
194,-1.995934,-1.477516,0.937153,-0.084853,0.995653,0.038417,-0.016313,0.8006850000000001,-0.024761000000000002,-0.053788,0.0074140000000000005,0.010289
195,-1.9812720000000001,-1.477243,0.936039,-0.085656,0.995627,0.037277,0.0006230000000000001,0.781408,-0.013935,-0.098441,0.009027,0.013534000000000001
196,-1.9642830000000002,-1.477402,0.9387469999999999,-0.086131,0.995642,0.035756,0.018156,0.66728,0.006629,-0.12396800000000001,0.0009400000000000001,0.0067090000000000006
197,-1.952361,-1.477444,0.93921,-0.08651299999999999,0.9956459999999999,0.034712,-0.003819,0.5150640000000001,-0.004011,-0.140721,0.014959,0.010820999999999999
198,-1.9444,-1.4772049999999999,0.9395399999999999,-0.087006,0.995624,0.034108,-0.002659,0.298808,-0.0037259999999999997,-0.13011099999999998,-0.011676,0.017345
199,-1.939501,-1.476784,0.9409540000000001,-0.08756699999999999,0.995584,0.033833999999999996,0.001755,0.093198,-0.0045,-0.10753199999999999,-0.009744,0.014491
200,-1.934754,-1.476426,0.946283,-0.08805700000000001,0.99555,0.033543,0.028597000000000004,-0.098676,0.003411,-0.082201,-0.017263999999999998,0.0209
201,-1.9271330000000002,-1.475954,0.957411,-0.088753,0.995506,0.033036,0.038806,-0.205223,-0.000654,-0.02021,-0.001381,0.016738
202,-1.922005,-1.475783,0.966865,-0.08907999999999999,0.99549,0.032639,0.044164,-0.211587,-0.012359,0.010665000000000001,0.00628,0.011825
203,-1.914548,-1.475752,0.9784799999999999,-0.08935,0.9954870000000001,0.031984,0.050565,-0.20206,-0.002712,0.021097,0.002774,-9.300000000000001e-05
204,-1.907674,-1.47546,0.9887459999999999,-0.089839,0.995459,0.031464,0.03905,-0.13922400000000001,0.011014,0.06675199999999999,0.015847999999999998,4.5e-05
205,-1.903155,-1.475948,0.994859,-0.089521,0.995505,0.030899,0.033033,-0.041248,0.023665000000000002,0.08002999999999999,0.012306999999999998,0.003662
206,-1.898563,-1.476666,0.9987450000000001,-0.08898400000000001,0.9955729999999999,0.030257,0.030369,0.087622,0.033095,0.10003200000000001,0.016237,0.002503
207,-1.891657,-1.477742,1.0020959999999999,-0.088172,0.995674,0.029302999999999996,0.038484,0.236711,0.038301999999999996,0.10080599999999999,-0.00041900000000000005,-0.00698
208,-1.879245,-1.479066,1.008325,-0.087272,0.9957959999999999,0.027806,0.053852,0.349509,0.055355999999999995,0.095801,0.006431999999999999,-0.00011100000000000001
209,-1.8641889999999999,-1.480721,1.015521,-0.086102,0.9959459999999999,0.026012,0.055177,0.41763999999999996,0.06596,0.098126,0.013193999999999999,-0.000591
210,-1.8541849999999998,-1.4830459999999999,1.0162209999999998,-0.084135,0.996152,0.024502,0.037395,0.497594,0.066802,0.09048300000000001,0.012103000000000001,0.020191
211,-1.839777,-1.484638,1.019601,-0.082951,0.996291,0.022866,0.034621,0.583925,0.058126,0.081013,0.009615,0.027228
212,-1.8266669999999998,-1.4860659999999999,1.020463,-0.081867,0.9964129999999999,0.021417,0.015552000000000002,0.617004,0.06115399999999999,0.070285,0.012681999999999999,0.036506
213,-1.8208529999999998,-1.487945,1.014234,-0.08018099999999999,0.9965700000000001,0.020478,-0.0015609999999999999,0.598989,0.052512,0.050716000000000004,0.010541,0.0446
214,-1.8171830000000002,-1.489079,1.006086,-0.079163,0.996663,0.019909,-0.021803,0.590597,0.037426,0.054764,0.002589,0.034504
215,-1.816499,-1.4897049999999998,0.9948969999999999,-0.078571,0.996714,0.019703000000000002,-0.034513999999999996,0.593906,0.020241,0.052341,0.003561,0.017863999999999998
216,-1.8200330000000002,-1.489959,0.979633,-0.07825599999999999,0.996734,0.019918,-0.058047,0.576956,0.016894,0.047127999999999996,0.005783,0.017008000000000002
217,-1.824877,-1.490004,0.9629610000000001,-0.078115,0.9967379999999999,0.020286000000000002,-0.061094,0.603629,0.009361,0.052525999999999996,0.010388,0.020653
218,-1.8340869999999998,-1.489992,0.9414239999999999,-0.077935,0.9967370000000001,0.021006999999999998,-0.084441,0.626103,0.0038280000000000002,0.083047,0.013441,-0.016201
219,-1.847739,-1.48957,0.9142290000000001,-0.078045,0.9967030000000001,0.022184,-0.11710599999999999,0.698729,-0.014653,0.07091900000000001,0.015825,-0.05853099999999999
220,-1.8633979999999999,-1.488027,0.884732,-0.079161,0.996577,0.023847,-0.135166,0.6755180000000001,-0.055341999999999995,0.05424400000000001,0.011937999999999999,-0.054304
221,-1.876194,-1.486535,0.858349,-0.08026799999999999,0.996452,0.025305,-0.1149,0.6743819999999999,-0.055199,-0.001549,0.016991,-0.052313
222,-1.88402,-1.485523,0.837398,-0.081025,0.996366,0.026243,-0.090665,0.640076,-0.021871,0.017700999999999998,0.00252,-0.054991
223,-1.885403,-1.485308,0.823,-0.081192,0.996348,0.026420999999999997,-0.04489,0.65468,0.015818000000000002,0.012619,0.014119,-0.061165
224,-1.8765720000000001,-1.485823,0.818041,-0.080935,0.996392,0.025549000000000002,-0.020093,0.709997,0.013784000000000001,0.016833,0.032202999999999996,-0.05036
225,-1.867198,-1.485716,0.812427,-0.081273,0.996383,0.024821,-0.03677,0.780432,-0.003514,0.004338,0.029817000000000003,-0.045206
226,-1.860595,-1.485111,0.801793,-0.082012,0.996331,0.024455,-0.063833,0.9105719999999999,-0.024166,-0.008305,0.027579000000000003,-0.039562
227,-1.854148,-1.483905,0.7882779999999999,-0.08332,0.9962270000000001,0.024262,-0.092962,1.042901,-0.057654,-0.050041,0.037219999999999996,-0.026474
228,-1.852573,-1.481855,0.767774,-0.08532100000000001,0.9960469999999999,0.024699000000000002,-0.137257,1.1283940000000001,-0.08691499999999999,-0.057913,0.082642,-0.011286
229,-1.857816,-1.4786190000000001,0.7390399999999999,-0.08828,0.995755,0.026057999999999998,-0.17439100000000002,1.148867,-0.11283800000000001,-0.070213,-0.007489,-0.045055
230,-1.865898,-1.475485,0.708022,-0.09105099999999999,0.995461,0.027677999999999998,-0.18616,1.142512,-0.111844,-0.06553400000000001,0.008537000000000001,-0.011869
231,-1.8723310000000002,-1.472201,0.6786989999999999,-0.09399,0.995143,0.029233,-0.183022,1.1286530000000001,-0.111804,-0.045124,-0.004909,-0.011243000000000001
232,-1.8782900000000002,-1.46845,0.6495770000000001,-0.097367,0.994767,0.030920999999999997,-0.189193,1.152221,-0.139651,-0.020797,0.036315,0.031824
233,-1.8901720000000002,-1.465354,0.61466,-0.09991699999999999,0.9944459999999999,0.033042,-0.241771,1.157441,-0.067386,0.044512,0.031372000000000004,0.050210000000000005
234,-1.911285,-1.462909,0.56817,-0.101489,0.994186,0.035956,-0.291406,1.317218,-0.020936,0.040208999999999995,0.006592,0.016961
235,-1.931923,-1.460006,0.520048,-0.103424,0.993869,0.039062,-0.263317,1.3726040000000002,-0.043243000000000004,0.032104,-0.035907,-0.019622
236,-1.9443669999999997,-1.457158,0.48174399999999995,-0.105565,0.99355,0.041379,-0.251788,1.272646,-0.097514,-0.0106,0.009303,-0.01489
237,-1.9477259999999998,-1.45426,0.451709,-0.108102,0.993217,0.042793,-0.21033400000000002,1.2819129999999999,-0.053439,-0.04444,-0.040108,0.019036
238,-1.950231,-1.45183,0.42496000000000006,-0.11023599999999999,0.9929319999999999,0.043958,-0.156441,1.1581860000000002,-0.06145,-0.078973,-0.007184,0.011539
239,-1.94735,-1.450209,0.403638,-0.11185899999999999,0.9927379999999999,0.044232,-0.139511,1.170735,-0.017551,-0.07912000000000001,-0.005418,0.02605
240,-1.9433340000000001,-1.448707,0.385104,-0.113425,0.992556,0.044325,-0.129149,1.072813,-0.047263,-0.055429,-0.000674,-0.000364
241,-1.9337,-1.445638,0.375395,-0.11669600000000001,0.9921780000000001,0.044312,-0.094563,1.0953709999999999,-0.12396199999999999,-0.011783,0.014246,0.035797
242,-1.922534,-1.4436120000000001,0.364818,-0.11906800000000001,0.991923,0.043698,-0.102362,1.084493,-0.060978,-0.009884,0.002569,0.030445
243,-1.913831,-1.441732,0.351103,-0.121201,0.991683,0.043287,-0.133114,1.117658,-0.069781,-0.028763,0.09687899999999999,0.0042439999999999995
244,-1.9009580000000001,-1.43829,0.342043,-0.124974,0.9912340000000001,0.042829,-0.090879,1.199769,-0.127275,-0.017344,-0.028297000000000003,-0.00025699999999999996
245,-1.8854400000000002,-1.43557,0.333431,-0.128187,0.990871,0.041719,-0.09553400000000001,1.1262290000000001,-0.11439500000000001,-0.029008999999999997,0.000538,0.004164
246,-1.868602,-1.433584,0.325561,-0.130752,0.9906010000000001,0.040132,-0.08787,1.221868,-0.062121,-0.030532999999999998,-0.00084,0.008482
247,-1.854958,-1.432359,0.31454699999999997,-0.132454,0.990433,0.038685000000000004,-0.101801,1.248386,-0.02166,-0.028464999999999997,-0.003708,0.038875
248,-1.8435700000000002,-1.432059,0.300523,-0.133171,0.990391,0.037254,-0.095539,1.268399,0.029633,-0.048729,-0.026295,0.034981
249,-1.832903,-1.432224,0.286394,-0.133404,0.9904139999999999,0.035789,-0.08202999999999999,1.185273,0.026629000000000003,-0.090427,0.021838999999999997,-0.00028199999999999997
250,-1.818552,-1.431431,0.278911,-0.134667,0.9903040000000001,0.034064,-0.02738,1.234102,0.022675,-0.074409,-0.075876,0.031106
251,-1.8026659999999999,-1.432404,0.271321,-0.13425299999999998,0.990439,0.031699,-0.02685,1.1657170000000001,0.074041,-0.07306900000000001,-0.030371,0.067864
252,-1.7838779999999999,-1.433834,0.266898,-0.133439,0.990635,0.028872000000000002,-0.0045899999999999995,1.140047,0.080639,-0.0717,-0.038487,0.0697
253,-1.762937,-1.436512,0.265408,-0.131409,0.9909969999999999,0.025564,0.022674,1.1161860000000001,0.163113,-0.079163,-0.01445,0.08365800000000001
254,-1.741977,-1.440524,0.263842,-0.127996,0.991527,0.022127,0.023607,1.137283,0.214367,-0.078577,0.001271,0.097227
255,-1.722419,-1.444718,0.260554,-0.124295,0.9920629999999999,0.018992,0.011937999999999999,1.139505,0.201464,-0.035235,-0.045346,0.080953
256,-1.702782,-1.448908,0.25866100000000003,-0.120521,0.9925809999999999,0.016,0.016827,1.046783,0.208027,-0.03901,-0.045864999999999996,0.083945
257,-1.680388,-1.452739,0.26021500000000003,-0.117069,0.9930389999999999,0.012881,0.047852,1.031898,0.17407899999999998,-0.05209,-0.047956,0.10747999999999999
258,-1.6503029999999999,-1.455834,0.27015100000000003,-0.11434000000000001,0.993399,0.00911,0.08731699999999999,0.9903719999999999,0.134884,-0.087198,-0.02706,0.100372
259,-1.615372,-1.458232,0.288018,-0.11220699999999999,0.9936709999999999,0.005005,0.11594700000000001,0.650704,0.071426,-0.109382,0.050411000000000004,0.081222
260,-1.569757,-1.459768,0.319379,-0.11079000000000001,0.993843,-0.00011499999999999999,0.222638,0.755375,0.176723,-0.016773,-0.068092,0.11023800000000002
261,-1.510407,-1.4647780000000001,0.365021,-0.105616,0.9943850000000001,-0.006386,0.26767399999999997,0.6897479999999999,0.29889899999999997,-0.024984,0.0025629999999999997,0.07585900000000001
262,-1.433944,-1.470238,0.428123,-0.099437,0.9949479999999999,-0.013694,0.32847600000000005,0.687405,0.299327,-0.0454,-0.002425,0.086707
263,-1.342804,-1.474361,0.506272,-0.09378099999999999,0.9953540000000001,-0.021759999999999998,0.356214,0.653359,0.265378,-0.129303,-0.029883999999999997,0.054092999999999995
264,-1.241516,-1.47643,0.595792,-0.089153,0.9955510000000001,-0.030465,0.42124399999999995,0.5607810000000001,0.183698,-0.136159,-0.018698,0.062692
265,-1.1333719999999998,-1.475658,0.695118,-0.08604099999999999,0.9954780000000001,-0.040236,0.465717,0.427701,0.125427,-0.12503399999999998,-0.040369,0.099272
266,-1.038833,-1.473118,0.7818729999999999,-0.084038,0.995233,-0.049461,0.42860699999999996,0.41106000000000004,0.056823,-0.134453,0.056417999999999996,-0.030999000000000002
267,-0.971724,-1.467847,0.8428379999999999,-0.084863,0.994705,-0.057942999999999995,0.398812,0.258448,-0.114105,-0.034918,0.076538,-0.003199
268,-0.926956,-1.461021,0.8822200000000001,-0.087614,0.993981,-0.06575700000000001,0.348062,0.335428,-0.14019500000000001,-0.004259000000000001,0.044166000000000004,0.06533
269,-0.890193,-1.455729,0.909947,-0.089225,0.9933870000000001,-0.072242,0.276096,0.5335439999999999,-0.071518,-0.05205599999999999,0.10733599999999999,0.10955
270,-0.855296,-1.452287,0.9328639999999999,-0.08922999999999999,0.992986,-0.077553,0.175017,0.646608,-0.020026,-0.092167,0.116816,0.11861400000000001
271,-0.8281790000000001,-1.4510399999999999,0.9469719999999999,-0.088007,0.9928379999999999,-0.08078099999999999,0.058464999999999996,0.640414,0.031511000000000004,-0.099631,0.099264,0.090181
272,-0.810611,-1.451722,0.952888,-0.08608400000000001,0.992919,-0.081849,-0.027363,0.555405,0.052385,-0.039267,0.088685,0.050964999999999996
273,-0.808236,-1.453747,0.9442159999999999,-0.084435,0.993158,-0.080664,-0.163854,0.5516979999999999,0.032208,-0.012001000000000001,0.123145,0.079199
274,-0.8263739999999999,-1.457524,0.914163,-0.083124,0.993592,-0.07657699999999999,-0.310765,0.604483,0.012955000000000001,-0.027929000000000002,0.133499,0.089424
275,-0.868309,-1.463733,0.860223,-0.08155,0.994274,-0.069036,-0.503255,0.554882,0.062948,-0.0915,0.030139999999999997,0.05776
276,-0.933284,-1.473173,0.785619,-0.078313,0.995239,-0.058004999999999994,-0.636754,0.398304,0.17438,-0.155894,-0.08354099999999999,0.03202
277,-1.023493,-1.484098,0.6898029999999999,-0.07393,0.996244,-0.045052999999999996,-0.675207,0.175696,0.198966,-0.182173,-0.137327,0.002802
278,-1.157096,-1.492332,0.554326,-0.071756,0.996923,-0.031504000000000004,-0.7061069999999999,0.020931,0.034442,-0.197775,-0.096182,0.055246
279,-1.376287,-1.495743,0.336372,-0.073555,0.997185,-0.014490000000000001,-0.9398989999999999,-0.18740199999999999,-0.144249,-0.23940300000000003,-0.020027,-0.010107
280,-1.630434,-1.4938069999999999,0.09158200000000001,-0.076765,0.9970379999999999,0.004584,-0.842274,-0.7566930000000001,-0.120405,-0.18313800000000002,-0.08329600000000001,-0.11923800000000001
281,-1.822775,-1.491422,-0.079971,-0.076776,0.9968520000000001,0.019766,-0.619537,-1.297406,0.10723900000000001,-0.061926,-0.08132400000000001,-0.054007000000000006
282,-2.036619,-1.4923030000000002,-0.26548099999999997,-0.070048,0.996921,0.035214999999999996,-0.7613949999999999,-1.446264,0.42583699999999997,0.074732,-0.018024000000000002,-0.013852000000000001
283,-2.339969,-1.4899120000000001,-0.537802,-0.058040999999999995,0.9967309999999999,0.056188,-1.0610700000000002,-1.534131,0.54777,0.129223,0.08969500000000001,0.004146
284,-2.617534,-1.475914,-0.793033,-0.047402,0.995502,0.08201599999999999,-1.312074,-1.054267,0.376623,0.17899400000000001,0.221554,-0.0448
285,-2.787604,-1.454412,-0.943857,-0.040249,0.9932350000000001,0.10891300000000001,-1.276813,-0.9706309999999999,0.210119,0.119473,0.11888699999999999,-0.124904
286,-2.8662419999999997,-1.43321,-1.000542,-0.037287,0.99055,0.131977,-1.002905,-1.159741,-0.154125,-0.105413,0.126256,-0.083851
287,-2.865955,-1.414871,-0.975045,-0.042263,0.9878680000000001,0.149424,-0.7471479999999999,-1.395484,-0.562234,-0.16512000000000002,0.094834,-0.103602
288,-2.8517930000000002,-1.398543,-0.9234450000000001,-0.048978,0.985201,0.164247,-0.607969,-2.075312,-0.637303,-0.090778,-0.063555,-0.065752
289,-2.849586,-1.384191,-0.8748360000000001,-0.053405999999999995,0.98264,0.17766400000000002,-0.536764,-2.368534,-0.631088,-0.036743,-0.121754,-0.063467
290,-2.84395,-1.372774,-0.8208270000000001,-0.057692999999999994,0.9804579999999999,0.188074,-0.30809200000000003,-2.331873,-0.673335,-0.016236,-0.135899,-0.009576000000000001
291,-2.829482,-1.365907,-0.7601640000000001,-0.062474,0.979083,0.193625,-0.042901,-2.2123630000000003,-0.686591,0.022573,-0.11931199999999999,0.034677
292,-2.8086580000000003,-1.363542,-0.694153,-0.067249,0.9786,0.19447,0.17585399999999998,-2.184438,-0.6669390000000001,0.015888,-0.060844,0.043979000000000004
293,-2.78589,-1.36417,-0.626221,-0.07144500000000001,0.9787290000000001,0.192313,0.310111,-2.192484,-0.636081,-0.036831,-0.006606,0.0216
294,-2.76445,-1.365875,-0.558121,-0.074937,0.9790770000000001,0.189185,0.32539,-2.318382,-0.600561,0.0056159999999999995,0.003147,-0.019293
295,-2.753365,-1.367173,-0.49666099999999996,-0.076548,0.97934,0.187166,0.271757,-2.549643,-0.530137,0.04156,-0.0005809999999999999,-0.066073
296,-2.749637,-1.368582,-0.437263,-0.076718,0.9796239999999999,0.185604,0.330389,-2.798054,-0.5304770000000001,0.111676,-0.019679,-0.007992
297,-2.744379,-1.370298,-0.375645,-0.077042,0.9799680000000001,0.183646,0.264838,-2.67634,-0.541773,0.071167,-0.011858,-0.013022999999999998
298,-2.73243,-1.3689040000000001,-0.314273,-0.079775,0.9796889999999999,0.183968,0.131719,-2.244051,-0.639397,0.069323,0.006059,-0.049019
299,-2.707825,-1.363689,-0.245455,-0.086423,0.9786299999999999,0.186582,0.011176,-2.168397,-0.8059109999999999,0.088529,0.012276,-0.118452
300,-2.6831549999999997,-1.357132,-0.174447,-0.093837,0.977261,0.190144,-0.003087,-2.2440290000000003,-0.7941630000000001,0.041942,-0.16441,0.030361000000000003
301,-2.6631549999999997,-1.34994,-0.110502,-0.100854,0.9757100000000001,0.194464,0.066123,-2.002593,-0.758737,-0.01882,-0.13400499999999999,0.058435
302,-2.637762,-1.352187,-0.041847,-0.104701,0.9762,0.18992,0.662154,-2.271077,-0.467947,0.08466599999999999,0.004376,-0.101587
303,-2.649826,-1.365404,-0.0009029999999999999,-0.0963,0.978981,0.179779,0.832283,-2.68978,0.195008,0.22073600000000002,0.174324,0.008331
304,-2.7046229999999998,-1.384155,-0.0066159999999999995,-0.078526,0.982633,0.16812,0.821758,-2.275823,0.578964,0.22765100000000002,0.163134,-0.007659
305,-2.761674,-1.407926,-0.026073000000000002,-0.060131,0.986766,0.150584,1.164723,-1.6698970000000002,0.601947,0.154842,0.31006300000000003,0.076177
306,-2.783321,-1.434082,-0.017359,-0.047789,0.990669,0.127631,1.226802,-1.433549,0.317931,-0.16202,0.094628,-0.22640100000000002
307,-2.782722,-1.4537149999999999,0.013129,-0.041026,0.9931540000000001,0.10936900000000001,0.89086,-1.654018,0.065903,-0.213842,0.0218,-0.081399
308,-2.769984,-1.47076,0.064877,-0.036261,0.995001,0.093044,0.832241,-2.127812,0.053282,-0.10647000000000001,-0.079565,0.079151
309,-2.790675,-1.482004,0.08951,-0.030481,0.9960600000000001,0.08326499999999999,0.41865600000000003,-2.245832,0.089,-0.10776400000000001,-0.25790100000000005,0.182497
310,-2.823027,-1.485941,0.098993,-0.026543,0.996402,0.080481,0.132161,-2.013203,-0.028667,-0.15992,-0.284229,0.09818400000000001
311,-2.788322,-1.491356,0.176069,-0.027451,0.9968459999999999,0.074447,0.471984,-2.203809,-0.34224299999999996,-0.365615,0.038829,0.023759
312,-2.696859,-1.496357,0.317811,-0.03199,0.997231,0.067125,0.359295,-2.6187549999999997,-0.372408,-0.371269,0.123634,0.049482
313,-2.667247,-1.4958200000000001,0.40344,-0.034207,0.9971909999999999,0.066623,0.0013039999999999998,-2.8831740000000003,-0.270953,-0.239749,0.14905,-0.06730900000000001
314,-2.666252,-1.4927979999999998,0.46460100000000004,-0.035654000000000005,0.9969600000000001,0.069272,-0.002462,-3.024778,-0.28682199999999997,-0.094167,-0.058636,-0.076794
315,-2.647545,-1.4922819999999999,0.539817,-0.037187,0.996919,0.06904500000000001,0.16761700000000002,-2.646303,-0.24339,0.015199,-0.069399,-0.0061329999999999996
316,-2.645819,-1.4914120000000002,0.590885,-0.037719,0.996851,0.069742,-0.06213,-2.422069,-0.175848,0.066832,0.009207,-0.054423
317,-2.672957,-1.488138,0.6068,-0.037286,0.9965860000000001,0.073651,-0.13298900000000002,-1.9937919999999998,-0.12347999999999999,-0.083915,-0.018986000000000003,0.015430000000000001
318,-2.687997,-1.486184,0.631357,-0.037027,0.996423,0.07595299999999999,0.019687,-1.995284,-0.149118,-0.071402,0.021156,0.00205
319,-2.66323,-1.485796,0.694793,-0.039075,0.99639,0.07535700000000001,0.132155,-1.834114,-0.324795,-0.10269400000000001,0.023569,0.039434
320,-2.607018,-1.484608,0.784953,-0.043851999999999995,0.996288,0.074064,0.132258,-1.6060159999999999,-0.357133,-0.07005499999999999,0.021061,0.029467
321,-2.56347,-1.483935,0.8599030000000001,-0.0474,0.99623,0.072645,0.15551800000000002,-1.5532350000000001,-0.256626,-0.08118600000000001,0.021196,0.021303
322,-2.5413,-1.4839120000000001,0.913876,-0.049011,0.9962280000000001,0.071595,0.100327,-1.615278,-0.144768,-0.10771199999999999,-0.008969,-0.028931000000000002
323,-2.551153,-1.4841540000000002,0.937608,-0.048169,0.9962489999999999,0.071873,0.049269,-1.7167119999999998,-0.042446,-0.058872,0.017713,-0.052708000000000005
324,-2.577503,-1.4843629999999999,0.946606,-0.046146,0.996267,0.07293999999999999,0.013716999999999998,-1.780556,-0.029794,-0.004452,0.030680000000000002,-0.028018
325,-2.5998509999999997,-1.483627,0.9590219999999999,-0.044882,0.9962030000000001,0.07458,-0.018569,-1.6747020000000001,-0.099589,0.0041719999999999995,0.030454000000000002,-0.028346
326,-2.605,-1.481658,0.98618,-0.045501,0.99603,0.07649700000000001,-0.032681,-1.5720610000000002,-0.181004,-0.013123,0.037097000000000005,-0.024021999999999998
327,-2.6058790000000003,-1.478613,1.016314,-0.046981999999999996,0.9957540000000001,0.07914500000000001,-0.07835,-1.538826,-0.194184,0.019547,0.019337,-0.02725
328,-2.615053,-1.475269,1.03703,-0.047925999999999996,0.995441,0.08245,-0.086707,-1.4558799999999998,-0.150552,0.05194,0.003934,-0.040794
329,-2.625069,-1.473123,1.053751,-0.048154,0.9952340000000001,0.084784,-0.035764,-1.244204,-0.116284,0.084393,0.00234,0.004968
330,-2.624012,-1.472025,1.076414,-0.048783,0.9951260000000001,0.08568200000000001,0.039148,-0.9706290000000001,-0.13106700000000002,0.081544,-0.000909,0.02673
331,-2.608951,-1.47225,1.107513,-0.049955,0.9951479999999999,0.084746,0.11714200000000001,-0.698232,-0.120189,0.05645599999999999,-0.008927,0.032457
332,-2.587929,-1.473682,1.1402219999999998,-0.050977999999999996,0.995288,0.082468,0.150895,-0.513128,-0.086007,0.040326999999999995,-0.011752,0.032507
333,-2.566382,-1.476092,1.171469,-0.051439,0.995519,0.07933899999999999,0.211677,-0.479414,-0.045033,0.016344,-0.013416999999999998,0.0035009999999999998
334,-2.5457349999999996,-1.479854,1.2014559999999999,-0.050963,0.995868,0.075159,0.232933,-0.44454799999999994,0.008482,0.018035,-0.001422,0.009068999999999999
335,-2.533169,-1.483542,1.222219,-0.049804,0.9961959999999999,0.071498,0.191546,-0.376302,0.027333,0.016493999999999998,0.011022,0.016819999999999998
336,-2.5233529999999997,-1.4866540000000001,1.238265,-0.048707,0.9964620000000001,0.06848,0.16212000000000001,-0.26864,0.035535000000000004,0.039552,0.0019809999999999997,0.041566000000000006
337,-2.518167,-1.489525,1.2479049999999998,-0.047391,0.996699,0.06590399999999999,0.12396700000000001,-0.18870499999999998,0.058667,0.038236,0.001744,0.044142
338,-2.5196959999999997,-1.491417,1.248842,-0.046193,0.996851,0.064446,0.062635,-0.08720800000000001,0.037813,0.006856,0.02828,0.040794
339,-2.52101,-1.492605,1.248694,-0.045423000000000005,0.9969450000000001,0.063547,0.055335,-0.047775,0.039848,0.026319,-0.031658,0.050482
340,-2.5289349999999997,-1.494109,1.241134,-0.044056,0.9970610000000001,0.062678,0.039342,0.0010949999999999998,0.086675,0.033222,-0.027228,0.05193
341,-2.550601,-1.4961229999999999,1.218391,-0.041567,0.9972129999999999,0.061949000000000004,0.040538,0.08820900000000001,0.145324,0.021181000000000002,-0.009068999999999999,0.07355
342,-2.583772,-1.4982280000000001,1.181812,-0.038377,0.997368,0.06151,0.022751,0.205294,0.184574,-0.008055,0.009529000000000001,0.060315999999999995
343,-2.616658,-1.500404,1.143234,-0.035245,0.9975229999999999,0.060859,0.037243,0.317204,0.157826,-0.028033,0.009129,0.053201
344,-2.635196,-1.502675,1.117668,-0.033011,0.9976809999999999,0.059516999999999994,0.064231,0.352406,0.12271800000000001,-0.030251999999999998,-0.001068,0.054344
345,-2.657498,-1.504282,1.088671,-0.030927999999999997,0.9977889999999999,0.058817999999999995,0.043774,0.317297,0.12903,-0.015123,0.011992000000000001,0.06563200000000001
346,-2.684039,-1.506168,1.055999,-0.028525,0.9979120000000001,0.057928999999999994,0.051088999999999996,0.303342,0.149395,-0.015833,-0.0143,0.084207
347,-2.717936,-1.508117,1.01556,-0.025744,0.998036,0.057085000000000004,0.029814,0.337424,0.169499,-0.012968,-0.016606,0.08894099999999999
348,-2.757942,-1.5092219999999998,0.968094,-0.023028,0.9981049999999999,0.057049,0.004444,0.38652800000000004,0.166054,-0.017438,0.004016,0.061985000000000005
349,-2.794265,-1.510278,0.9235030000000001,-0.020581,0.9981690000000001,0.056853999999999995,0.013238,0.417497,0.13937,-0.022188999999999997,0.001098,0.054443
350,-2.823271,-1.510933,0.8863549999999999,-0.018719,0.998209,0.05680399999999999,0.013209,0.390947,0.11910799999999999,-0.055363,0.002875,0.046757
351,-2.841351,-1.51156,0.8612489999999999,-0.017504,0.998246,0.056536,0.034484,0.326096,0.068065,-0.049527999999999996,-0.003175,0.046995
352,-2.8397,-1.512917,0.856836,-0.017195,0.998325,0.055216999999999995,0.097448,0.285575,0.023691,-0.01729,0.000149,0.045201
353,-2.822282,-1.515181,0.8693780000000001,-0.017445,0.9984540000000001,0.052764,0.145227,0.21517600000000003,0.004887,0.01299,-0.007121,0.040421
354,-2.795224,-1.51824,0.893058,-0.017830000000000002,0.998619,0.049402,0.198287,0.148956,0.0021379999999999997,0.015388999999999998,-0.007088,0.02291
355,-2.764986,-1.521998,0.920726,-0.017936,0.9988100000000001,0.045351999999999996,0.21516,0.121136,0.018315,0.029089999999999998,-0.011093,0.023587
356,-2.742854,-1.5258479999999999,0.940901,-0.017444,0.9989899999999999,0.041406,0.194588,0.085925,0.050263,0.052631,-0.013271999999999999,0.021445
357,-2.737279,-1.529651,0.944687,-0.016182,0.9991540000000001,0.037818,0.17316900000000002,0.098659,0.081075,0.054328999999999995,-0.011498,0.033425
358,-2.7529939999999997,-1.532878,0.926272,-0.014363999999999998,0.999281,0.035085000000000005,0.117879,0.159496,0.099839,0.055197,-0.006132,0.038294999999999996
359,-2.790643,-1.5347870000000001,0.8848290000000001,-0.012376999999999999,0.999352,0.033807,0.031665,0.208783,0.103447,0.058855,-0.008537999999999999,0.050513
360,-2.847901,-1.535141,0.8232860000000001,-0.010317,0.9993639999999999,0.034112,-0.027099,0.190875,0.104127,0.028460000000000003,-0.02712,-0.012094
361,-2.905284,-1.535306,0.763018,-0.008305,0.9993700000000001,0.03449,-0.00715,0.10776,0.092623,0.003239,-0.004924,-0.026692
362,-2.945823,-1.535886,0.721959,-0.0067870000000000005,0.999391,0.034223,0.039442000000000005,-0.020035,0.042906,-0.009632,0.061019000000000004,-0.049131
363,-2.946817,-1.5375809999999999,0.722503,-0.006423999999999999,0.999448,0.032562,0.125719,-0.103219,-0.008728,0.038025,0.044833,-0.035294
364,-2.921194,-1.5410469999999998,0.7507199999999999,-0.0065,0.9995569999999999,0.029011000000000002,0.20449900000000001,-0.140779,-0.00813,0.06820599999999999,0.028275,-0.025425
365,-2.901919,-1.5453430000000001,0.772109,-0.0060420000000000005,0.999676,0.024723,0.202498,-0.068498,0.034488,0.109527,-0.017849,0.013805000000000001
366,-2.916576,-1.549411,0.757182,-0.004772,0.999771,0.020847,0.179396,0.06029400000000001,0.081163,0.08957999999999999,-0.019272,0.005718
367,-3.029257,-1.552857,0.6402760000000001,-0.0020109999999999998,0.9998389999999999,0.017823,0.124447,0.282706,0.186249,0.08190599999999999,-0.067085,0.036315
368,3.092954,-1.556074,0.475995,0.0007160000000000001,0.999892,0.014703,0.154276,0.188134,0.10112,0.015977,-0.009917,0.013784999999999999
369,2.916245,-1.558919,0.295496,0.002653,0.9999290000000001,0.011572,0.162883,0.17331400000000002,0.070221,0.008256999999999999,0.001413,0.011286
370,2.696396,-1.561696,0.07338099999999999,0.003919,0.999959,0.008214,0.17002,0.07432000000000001,0.04476,0.0038469999999999997,0.01733,0.010188
371,2.348445,-1.5640129999999999,-0.274713,0.004841,0.999977,0.004765999999999999,0.172851,-0.036363,0.01608,0.004528,0.030861000000000003,-0.011373000000000001
372,1.8772119999999999,-1.565649,-0.744011,0.004913,0.9999870000000001,0.0015539999999999998,0.15973800000000002,-0.127842,-0.006327,0.023056,0.024977000000000003,-0.022963
373,1.256006,-1.566132,-1.361907,0.004449,0.9999889999999999,-0.001449,0.142524,-0.185204,-0.032011000000000005,0.02352,0.024974,-0.019959
374,0.7258720000000001,-1.565425,-1.887843,0.0035740000000000004,0.999986,-0.004027,0.127492,-0.222372,-0.048092,0.037075,0.015913999999999998,-0.015199
375,0.387396,-1.563857,-2.22143,0.002602,0.999976,-0.006377000000000001,0.108154,-0.25001,-0.046055,0.04676,0.008935,-0.004213000000000001
376,0.225475,-1.5621969999999998,-2.378222,0.0019079999999999998,0.9999629999999999,-0.008317,0.092012,-0.259627,-0.024791,0.047455000000000004,0.008948000000000001,-0.002273
377,0.175401,-1.560309,-2.4231689999999997,0.001814,0.9999450000000001,-0.010236,0.095141,-0.250153,0.0008560000000000001,0.052507000000000005,-0.010611,0.00488
378,0.17588,-1.5579370000000001,-2.417782,0.0022329999999999997,0.9999170000000001,-0.012564,0.12391300000000001,-0.240735,0.018137,0.059213999999999996,-0.004372999999999999,-0.0026030000000000003
379,0.16676400000000002,-1.55515,-2.4223939999999997,0.002583,0.999878,-0.015344,0.14536,-0.21100300000000002,0.023589,0.058864,-0.004333,0.000177
380,0.187885,-1.55215,-2.39825,0.003469,0.999826,-0.018248,0.14877200000000002,-0.155655,0.032088,0.081919,0.008826,-0.012834
381,0.20438,-1.548884,-2.379153,0.004437,0.99976,-0.021406,0.161732,-0.10357000000000001,0.049203,0.07435900000000001,0.016018,-0.015215000000000001
382,0.22300999999999999,-1.545181,-2.3593290000000002,0.005657,0.9996719999999999,-0.024944,0.185424,-0.033429,0.070643,0.07314,0.016106,-0.011677
383,0.2585,-1.540964,-2.3238060000000003,0.00762,0.999555,-0.028819,0.194074,0.012265999999999999,0.090942,0.05462,0.008898,-0.009251
384,0.296075,-1.536476,-2.28673,0.010008,0.999411,-0.032809,0.196236,0.030320999999999997,0.102684,0.045519,0.00242,-0.006573999999999999
385,0.317814,-1.532132,-2.265618,0.012075,0.9992530000000001,-0.036707,0.19096400000000002,0.031456,0.089827,0.043024,0.0058130000000000005,-0.001364
386,0.33252600000000004,-1.5281280000000002,-2.251608,0.013923,0.9990899999999999,-0.040316000000000005,0.168666,0.037994,0.07257100000000001,0.039681,0.009714,0.007769
387,0.342356,-1.5248190000000001,-2.242707,0.015429,0.998943,-0.043292000000000004,0.132522,0.050968,0.056278999999999996,0.031613999999999996,0.015903999999999998,0.010333
388,0.347706,-1.522435,-2.2385029999999997,0.016468,0.9988309999999999,-0.045438,0.093163,0.061819000000000006,0.041035,0.027904,0.01594,0.017148
389,0.35385700000000003,-1.520816,-2.233674,0.017306000000000002,0.998751,-0.046848,0.059109,0.06944199999999999,0.029037,0.025738999999999998,0.017911,0.024158000000000002
390,0.36037800000000003,-1.51989,-2.228616,0.017938,0.998705,-0.047603,0.027161,0.07491,0.021329,0.018591,0.018309,0.027004000000000004
391,0.36859899999999995,-1.519527,-2.221937,0.018461,0.9986860000000001,-0.047795,0.002657,0.078208,0.016881,0.017534,0.023668,0.031072000000000002
392,0.378705,-1.519654,-2.21334,0.018897999999999998,0.998693,-0.047492,-0.020833,0.07296799999999999,0.015655000000000002,0.021279,0.016687999999999998,0.029594
393,0.392895,-1.5201149999999999,-2.200487,0.019396,0.9987159999999999,-0.046799,-0.032636,0.0634,0.020926,0.032133,-0.001768,0.014985
394,0.407467,-1.520459,-2.187037,0.01994,0.998733,-0.046198,-0.020953,0.054825,0.024222999999999998,0.030719,-0.001358,0.011590999999999999
395,0.41943100000000005,-1.520534,-2.176116,0.02046,0.9987370000000001,-0.045885,-0.0049310000000000005,0.054786,0.020063,0.031298,0.009869,0.015368000000000001
396,0.42894499999999997,-1.520627,-2.167979,0.020858,0.998742,-0.045607,-0.015446000000000001,0.079362,0.010343999999999999,0.038498000000000004,0.015174000000000002,0.021117
397,0.43869300000000006,-1.5210700000000001,-2.1602189999999997,0.021111,0.998764,-0.044995,-0.036601,0.11461199999999999,0.00481,0.038107999999999996,0.018082,0.021144999999999997
398,0.454372,-1.521994,-2.1474029999999997,0.021407,0.9988090000000001,-0.043826,-0.066243,0.162666,0.001336,0.038713,0.012177,0.022586000000000002
399,0.47468999999999995,-1.523363,-2.1309080000000002,0.021669,0.998875,-0.042166,-0.083107,0.20747100000000002,9.300000000000001e-05,0.032027,0.002025,0.017768
400,0.49568500000000004,-1.524797,-2.114409,0.021868000000000002,0.998942,-0.040443,-0.07871,0.234096,-0.0020469999999999998,0.030514999999999997,-0.002055,0.017677000000000002
401,0.519995,-1.526026,-2.0949470000000003,0.022236000000000002,0.9989979999999999,-0.038836,-0.06904600000000001,0.24685,-0.003064,0.022838999999999998,0.003749,0.023500999999999998
402,0.539133,-1.527142,-2.080866,0.022399000000000002,0.9990469999999999,-0.037441,-0.059382000000000004,0.25854299999999997,-0.005148,0.022614,0.007789,0.022959999999999998
403,0.5572010000000001,-1.5282120000000001,-2.068077,0.022506,0.999093,-0.036121,-0.060396000000000005,0.26814299999999996,-0.007304000000000001,0.025743000000000002,0.010565,0.021641
404,0.578558,-1.529301,-2.0522270000000002,0.022675,0.9991389999999999,-0.034719,-0.06566799999999999,0.280949,-0.008425,0.03659,0.010581,0.018392
405,0.6025,-1.530563,-2.0339970000000003,0.022786,0.9991909999999999,-0.033128,-0.075236,0.2895,-0.007435,0.034557,0.016434,0.016496
406,0.62943,-1.531888,-2.013034,0.022892,0.999243,-0.031435000000000005,-0.076241,0.306535,-0.004259000000000001,0.031216000000000004,0.012567,0.016572999999999997
407,0.659038,-1.5330629999999998,-1.9898209999999998,0.023093000000000002,0.999288,-0.029814999999999998,-0.067615,0.327807,-0.0031579999999999998,0.034401999999999995,0.00207,0.021269999999999997
408,0.691127,-1.534089,-1.964553,0.023388,0.999326,-0.028272000000000002,-0.068605,0.35015999999999997,0.002148,0.037357999999999995,0.0036950000000000004,0.025617
409,0.728071,-1.535002,-1.934913,0.023806,0.999359,-0.026705,-0.071724,0.376768,0.010638,0.033292,0.0068200000000000005,0.026125
410,0.770824,-1.535756,-1.900002,0.024396,0.9993860000000001,-0.025118,-0.068409,0.404445,0.012762,0.036088999999999996,0.005542,0.022433
411,0.8105289999999999,-1.536476,-1.8687060000000002,0.024855000000000002,0.999411,-0.023636,-0.059744000000000005,0.42999499999999996,0.009585,0.030794,0.005243,0.019974000000000002
412,0.8498700000000001,-1.5370540000000001,-1.83823,0.025327000000000002,0.999431,-0.022255,-0.055352,0.45237200000000005,0.004246,0.030704000000000002,0.007665000000000001,0.019554
413,0.8860819999999999,-1.537662,-1.811274,0.025643,0.999451,-0.020938,-0.052046,0.470491,-0.0010949999999999998,0.024985,0.0058590000000000005,0.01784
414,0.9207049999999999,-1.5382850000000001,-1.7862470000000001,0.025863,0.9994719999999999,-0.019665000000000002,-0.048764,0.485407,-0.004296,0.021928,0.0057929999999999995,0.019833
415,0.952743,-1.538883,-1.7640799999999999,0.025988999999999998,0.999491,-0.018478,-0.045501,0.498183,-0.005358,0.020169,0.005438,0.021163
416,0.987936,-1.539375,-1.73878,0.026215,0.9995059999999999,-0.017282,-0.046607,0.490727,-0.004289,0.023285,0.004919,0.017130000000000003
417,1.025415,-1.539935,-1.710852,0.026376999999999998,0.999524,-0.016005000000000002,-0.052042,0.470497,-0.002165,0.023931,0.0045049999999999995,0.016081
418,1.065135,-1.540434,-1.680345,0.026552,0.999539,-0.014700999999999999,-0.053171,0.45665200000000006,-0.0021550000000000002,0.023587999999999998,0.003436,0.014305000000000002
419,1.102307,-1.540974,-1.6519119999999998,0.026597000000000003,0.999555,-0.01346,-0.046865,0.42895900000000003,-0.008485,0.016845,3.3e-05,0.016817
420,1.141873,-1.541449,-1.6210879999999999,0.026677999999999997,0.999569,-0.0122,-0.050004,0.44493999999999995,-0.006391,0.0067090000000000006,0.005115,0.017616999999999997
421,1.179655,-1.5420200000000002,-1.592286,0.02658,0.9995860000000001,-0.010961,-0.049941,0.453484,-0.011742,0.006807,0.005098,0.016378
422,1.219011,-1.542547,-1.561914,0.026491000000000004,0.9996010000000001,-0.009724,-0.048879,0.44923199999999996,-0.014934000000000001,0.008879000000000001,0.0017109999999999998,0.013859
423,1.257233,-1.5430190000000001,-1.532609,0.026382999999999997,0.9996139999999999,-0.008555,-0.04143,0.447067,-0.012743,0.011748999999999999,0.002278,0.007899
424,1.286622,-1.543491,-1.511822,0.026172000000000004,0.999627,-0.007644,-0.023418,0.414001,-0.017916,0.014203,0.006965000000000001,0.011290999999999999
425,1.30361,-1.5438889999999998,-1.5024440000000001,0.025914999999999997,0.9996379999999999,-0.007094,-0.017247,0.36709,-0.01354,0.004922999999999999,0.0037189999999999996,0.009077
426,1.321279,-1.5441719999999999,-1.492075,0.02576,0.9996459999999999,-0.006564,-0.015123,0.36707399999999996,-0.011387999999999999,-0.004733,0.004306,0.022708000000000002
427,1.338066,-1.544474,-1.482553,0.025562,0.999654,-0.006059,-0.017266999999999998,0.36389,-0.012468,-0.004535,0.004298,0.022203
428,1.359687,-1.544722,-1.468159,0.025435,0.99966,-0.005451,-0.022609999999999998,0.360717,-0.013569,-0.009673000000000001,0.002003,0.019916
429,1.38675,-1.5451190000000001,-1.448083,0.025182,0.9996700000000001,-0.004688,-0.03015,0.34158099999999997,-0.016802,-0.012014,0.004877,0.021274
430,1.41534,-1.545613,-1.42603,0.024818,0.999683,-0.003889,-0.030237,0.31922399999999995,-0.019978,-0.011741,0.006451,0.021941
431,1.44763,-1.54624,-1.400017,0.024327,0.999699,-0.003012,-0.035595,0.308611,-0.025343,-0.015599000000000002,0.003948,0.022680000000000002
432,1.488173,-1.5469540000000002,-1.365294,0.023721000000000003,0.9997159999999999,-0.001964,-0.047465,0.275642,-0.028589,-0.014091999999999999,0.0034579999999999997,0.018276
433,1.5375379999999998,-1.547588,-1.3210870000000001,0.023149,0.9997309999999999,-0.0007700000000000001,-0.052909000000000005,0.254342,-0.025394999999999997,-0.020006,0.007044,0.019615
434,1.585715,-1.5481479999999999,-1.277714,0.022596,0.9997440000000001,0.000337,-0.043423,0.227681,-0.026363,-0.016142,0.005826,0.021483000000000002
435,1.6260430000000001,-1.548748,-1.241578,0.021978,0.999757,0.001215,-0.032893,0.198873,-0.024116,-0.015127000000000002,-0.0008710000000000001,0.018407
436,1.6598110000000001,-1.549199,-1.211514,0.021486,0.999767,0.001918,-0.029822,0.17222200000000001,-0.021924000000000003,-0.01462,-0.0008349999999999999,0.014897
437,1.694087,-1.549655,-1.180159,0.020944,0.999777,0.002595,-0.024655,0.137041,-0.019706,-0.015909,0.004893,0.021178
438,1.7356919999999998,-1.5501049999999998,-1.140911,0.02036,0.9997860000000001,0.0033880000000000004,-0.042883,0.10943699999999999,-0.027275999999999998,-0.015369999999999998,0.007416,0.034164
439,1.817452,-1.550347,-1.06115,0.019775,0.999791,0.004979,-0.095231,0.094702,-0.026554,-0.012237,0.009364,0.027324
440,1.917818,-1.550295,-0.9625319999999999,0.019228,0.99979,0.006954000000000001,-0.087825,0.084011,-0.023284,-0.009370999999999999,0.010495,0.02483
441,2.00654,-1.550072,-0.8752530000000001,0.018728,0.999785,0.00872,-0.081506,0.070123,-0.018949,-0.016194999999999998,0.002397,0.032799
442,2.0985709999999997,-1.549758,-0.7846350000000001,0.018113,0.9997790000000001,0.010559,-0.097504,0.060634,-0.029731,-0.012177,0.008751,0.035401
443,2.192528,-1.548978,-0.691291,0.017657,0.999762,0.012652,-0.103068,0.026496,-0.012634999999999999,-0.0143,0.006311,0.025952999999999997
444,2.2723150000000003,-1.547555,-0.611916,0.017665,0.9997299999999999,0.014925,-0.112847,0.013640000000000001,0.014019,0.010304,-0.013203,0.008665
445,2.319634,-1.545598,-0.564331,0.018366,0.999683,0.01707,-0.091817,-0.021721,0.047326,0.0019440000000000002,0.0006230000000000001,0.009694
446,2.336734,-1.543744,-0.546899,0.019412000000000002,0.999634,0.018671,-0.072599,-0.011165000000000001,0.054925,-0.011844,0.007690000000000001,0.035254
447,2.361757,-1.541927,-0.522521,0.020217,0.999583,0.020443,-0.096763,0.052913,0.035446,-0.00952,0.009373999999999999,0.037067
448,2.400074,-1.5399459999999998,-0.48552399999999996,0.020752,0.999524,0.022658,-0.11048800000000002,0.073249,0.023573,-0.006851,0.000842,0.023393
449,2.439346,-1.53811,-0.44765699999999997,0.021024,0.999466,0.024847,-0.104054,0.06476799999999999,0.007606,-0.008848,0.001083,0.018472
450,2.479098,-1.536594,-0.408932,0.020947,0.9994149999999999,0.026851,-0.095567,0.040293,-0.00619,-0.009640000000000001,0.007756,0.024204
451,2.518525,-1.53516,-0.370066,0.020704,0.999365,0.028813,-0.099877,0.024354,-0.012609,-0.008008,0.007104999999999999,0.02769
452,2.558812,-1.533596,-0.33031,0.020385,0.999308,0.030926,-0.101953,0.038206,-0.011574,-0.006729000000000001,0.009115,0.037265
453,2.593544,-1.531939,-0.296592,0.020159,0.999245,0.033024,-0.09225599999999999,0.065844,-0.005132,-0.001146,-0.004921,0.030743
454,2.617009,-1.5303879999999999,-0.274417,0.020151,0.999184,0.034824,-0.079554,0.05828200000000001,0.009922,0.003927,-0.005211,0.024059999999999998
455,2.629369,-1.529173,-0.26301599999999997,0.020318,0.999134,0.036135,-0.050839999999999996,0.041125,0.013349000000000001,-0.000909,-0.0014529999999999999,0.026014
456,2.639373,-1.528334,-0.253776,0.020363,0.999099,0.037079,-0.042238,0.043276999999999996,0.000588,-0.005318,0.01114,0.034454000000000005
457,2.651682,-1.527682,-0.24235399999999999,0.020213,0.9990709999999999,0.037904,-0.029426,0.038995999999999996,-0.005727,-0.0024059999999999997,0.018965,0.032668
458,2.6568419999999997,-1.527487,-0.237775,0.020108,0.9990620000000001,0.03818,-0.002807,0.030368,-0.002325,-0.017865,-0.004113,0.043439
459,2.660421,-1.527256,-0.23498899999999998,0.020077,0.999052,0.038455,-0.017734,0.036795,0.001835,-0.009701000000000001,0.003908,0.030560000000000004
460,2.660248,-1.526899,-0.23525900000000002,0.020248,0.9990370000000001,0.038765,-0.006291,-0.014434,0.015868,-0.002868,-0.0027600000000000003,0.016166
461,2.653753,-1.527152,-0.241281,0.020381,0.9990479999999999,0.038411,0.029987,-0.024106,0.005451,-0.000926,-0.008645,0.038494
462,2.6488110000000002,-1.527841,-0.24615700000000001,0.020245,0.999078,0.037703,0.031294,0.0143,-0.009544,-0.00010400000000000001,-0.0012289999999999998,0.049974
463,2.645337,-1.528302,-0.25006,0.020155000000000003,0.9990969999999999,0.037223,0.034447000000000005,0.022734,0.009695,0.001498,-0.005582,0.036416000000000004
464,2.6291130000000003,-1.528692,-0.266809,0.020567,0.999114,0.036556,0.039652,0.017294999999999998,0.03324,-0.001509,0.012544,0.056583
465,2.601816,-1.529357,-0.29479299999999997,0.021215,0.999142,0.035410000000000004,0.06865299999999999,0.057687,0.030186,-0.003836,0.025196,0.05954500000000001
466,2.5797939999999997,-1.53015,-0.318299,0.02156,0.999174,0.034252,0.06021,0.06840800000000001,0.020499,-0.00119,0.013903,0.051487
467,2.562507,-1.530694,-0.336731,0.02185,0.9991959999999999,0.033416,0.047349,0.050366,0.015090000000000001,-0.008498,-0.005361,0.03209
468,2.55035,-1.531251,-0.349787,0.021946,0.999218,0.032688,0.037748000000000004,0.040851,0.0054210000000000005,0.0074730000000000005,-0.000866,0.028423
469,2.538447,-1.5317399999999999,-0.362206,0.022056,0.999237,0.032023,0.038728,0.023794,0.007586,0.0048909999999999995,0.0045320000000000004,0.027486
470,2.533003,-1.532137,-0.368108,0.022002,0.9992530000000001,0.031575,0.023807,0.018553999999999998,-0.001057,0.007417,0.004562,0.02595
471,2.531419,-1.5325,-0.369742,0.021843,0.999267,0.031241,0.020558,-0.0026969999999999997,-0.011734999999999999,-0.001015,0.011247,0.01925
472,2.532125,-1.533217,-0.368699,0.021407,0.999294,0.030664,0.036551,-0.022921,-0.029757,-0.000579,0.011219,0.019828
473,2.5392040000000002,-1.534405,-0.361161,0.020516999999999997,0.999338,0.029836,0.045216,-0.016469,-0.052137,-0.00046699999999999997,-0.004343,0.023142
474,2.547564,-1.535567,-0.352115,0.019612,0.9993799999999999,0.029037999999999998,0.047076,-0.062342999999999996,-0.037110000000000004,0.008768999999999999,-0.004919,0.004822
475,2.529652,-1.536817,-0.368097,0.019403999999999998,0.999423,0.027648000000000002,0.077675,-0.10413299999999999,-0.00266,0.008978,-0.004961999999999999,0.006211
476,2.501159,-1.538054,-0.39453499999999997,0.019431,0.9994639999999999,0.026074,0.079828,-0.09775700000000001,-0.000517,0.013757,0.016527,0.009493999999999999
477,2.480922,-1.539261,-0.413121,0.019206,0.999503,0.024713,0.067208,-0.06890299999999999,-0.012392,0.035283,0.001962,0.018546
478,2.46069,-1.540339,-0.432618,0.019022999999999998,0.9995360000000001,0.02348,0.05993099999999999,-0.022022999999999997,-0.00823,0.035467,0.001929,0.019778
479,2.441754,-1.541385,-0.45183100000000004,0.018795,0.999568,0.022322,0.05699,0.028086,-0.015793,0.029789,0.005956,0.018358000000000003
480,2.436082,-1.542197,-0.458475,0.018397999999999998,0.999591,0.0216,0.021936,0.059114,-0.019282,0.023167,0.01431,0.016654
481,2.440277,-1.542316,-0.45530299999999996,0.018227,0.9995940000000001,0.021583,-0.010199,0.047439999999999996,-0.0024,0.029838,0.021814,0.007378
482,2.448541,-1.541868,-0.44822700000000004,0.018331999999999998,0.999582,0.022074,-0.02712,0.074157,-0.008962000000000001,0.02279,0.017828999999999998,0.021581
483,2.471652,-1.5415020000000001,-0.42738100000000007,0.018045,0.9995709999999999,0.022779,-0.035334,0.136011,-0.018712,0.012946000000000001,0.013291999999999998,0.020281
484,2.4997119999999997,-1.540916,-0.402217,0.017747,0.999554,0.023742,-0.049208,0.14666500000000002,-0.007072,0.00798,0.011433,0.017151
485,2.5115950000000002,-1.5402930000000001,-0.39314099999999996,0.017828999999999998,0.9995350000000001,0.024453,-0.019469999999999998,0.130526,0.007043000000000001,-0.006599,-0.002251,0.024465999999999998
486,2.5050220000000003,-1.540229,-0.401839,0.018025,0.999533,0.024384,0.015553999999999998,0.088862,0.006273,-0.014865999999999999,-0.012121,0.029327
487,2.4894369999999997,-1.5405950000000002,-0.41856899999999997,0.018181,0.9995440000000001,0.023809999999999998,0.040934,0.034461,0.002247,-0.014153,-0.0161,0.038111
488,2.4753979999999998,-1.541428,-0.432713,0.017993000000000002,0.999569,0.02289,0.057941,0.000394,-0.017887,0.00040899999999999997,-0.007488,0.048918
489,2.4533099999999997,-1.5426819999999999,-0.455081,0.017695,0.999605,0.021515,0.075059,0.02478,-0.003912,-0.010111,0.00572,0.047516
490,2.424145,-1.543425,-0.484575,0.017822,0.999625,0.020425,0.050411000000000004,0.019463,0.015151,-0.007965,0.012139,0.058158
491,2.39838,-1.543795,-0.510714,0.018091,0.9996360000000001,0.019686000000000002,0.032274000000000004,0.017404,0.01289,0.016043,0.018872999999999997,0.038573
492,2.4060189999999997,-1.543959,-0.503763,0.017834,0.99964,0.019706,-0.001568,0.053862,-0.017303,0.016316,0.008218000000000001,0.038475999999999996
493,2.4356709999999997,-1.5442209999999998,-0.475854,0.017065,0.999647,0.020019,-0.018326,0.097699,-0.043113,0.023492,-0.002668,0.032059
494,2.492729,-1.5443,-0.420921,0.015843,0.999649,0.020888999999999998,-0.042714999999999996,0.11383199999999999,-0.060396000000000005,0.0256,0.004959000000000001,0.021240000000000002
495,2.555671,-1.5440399999999999,-0.360534,0.014638,0.999642,0.022056,-0.055451,0.136218,-0.053036,0.025966000000000003,0.005118999999999999,0.017006999999999998
496,2.600289,-1.543651,-0.31912199999999996,0.013845,0.999632,0.023029,-0.031917,0.172265,-0.030485,0.015818000000000002,0.002199,0.023403999999999998
497,2.615688,-1.5435649999999999,-0.30754000000000004,0.013538999999999999,0.9996290000000001,0.023326,0.005442,0.197616,-0.008892,-0.013035,-0.005016,0.031469
498,2.609188,-1.5438290000000001,-0.31793699999999997,0.013558,0.9996360000000001,0.023012,0.026668999999999998,0.187894,0.006222999999999999,-0.031287999999999996,-0.009875,0.032895999999999995
499,2.5897669999999997,-1.544233,-0.34074099999999996,0.013789,0.999647,0.022399000000000002,0.033960000000000004,0.156941,0.01486,-0.03683,-0.008101,0.031022000000000004
500,2.569357,-1.5443209999999998,-0.36386399999999997,0.014194,0.99965,0.022036,0.02198,0.113264,0.025514,-0.016483,-0.020493,0.048826
501,2.536375,-1.544594,-0.39834400000000003,0.014757,0.999657,0.021330000000000002,0.051569000000000004,0.059858,0.035403,-0.012131999999999999,-0.009193000000000002,0.051332
502,2.495192,-1.545191,-0.44079399999999996,0.015259,0.9996719999999999,0.020222999999999998,0.054861,0.06841599999999999,0.023665000000000002,-0.016083,0.000999,0.046610000000000006
503,2.484891,-1.545611,-0.45249799999999996,0.015209,0.999683,0.019731,0.017564,0.06327999999999999,0.008456,-0.0077480000000000005,0.025814999999999998,0.023009
504,2.483555,-1.545356,-0.454722,0.015393,0.999676,0.019913999999999998,-0.014605000000000002,0.034599,0.015746,-0.007640999999999999,0.017978,0.013259
505,2.484584,-1.5447799999999998,-0.454413,0.015731000000000002,0.999662,0.020394,-0.020997,0.038874,0.017832,-0.008483,0.014758000000000002,0.012961000000000002
506,2.489996,-1.54429,-0.44992600000000005,0.015919,0.999649,0.020871,-0.01239,0.051641,0.014671,-0.008228000000000001,0.006409000000000001,0.022892
507,2.48408,-1.5441639999999999,-0.45682700000000004,0.016118,0.9996450000000001,0.020875,0.013186000000000002,0.044098000000000005,0.013791,-0.016590999999999998,-0.011288,0.032652999999999995
508,2.466386,-1.544324,-0.475447,0.016387,0.99965,0.020464,0.025993000000000002,0.045119,0.013878999999999999,-0.024565,-0.010987,0.039152
509,2.44481,-1.544592,-0.49771000000000004,0.016652,0.999657,0.019899,0.033346,0.024832,0.019298,-0.027867000000000003,0.0038380000000000003,0.029219
510,2.412029,-1.544821,-0.530656,0.017136000000000002,0.999663,0.019165,0.043837,-0.002949,0.031157,-0.018616,-0.002669,0.027344
511,2.368593,-1.545102,-0.5738479999999999,0.017756,0.9996700000000001,0.018202,0.05126699999999999,-0.012559,0.030152999999999996,-0.018793,-0.002355,0.031923
512,2.337084,-1.5454379999999999,-0.6052,0.018084,0.9996780000000001,0.017406,0.04068,-0.003961,0.020454,-0.008105,0.011811,0.040898000000000004
513,2.321206,-1.545569,-0.621237,0.018266,0.999682,0.017031,0.009845999999999999,0.014278,0.014874,0.006620999999999999,0.017942,0.036345
514,2.319656,-1.54521,-0.623156,0.018561,0.9996729999999999,0.017252,-0.017887,0.019684,0.018946,0.018106,0.023505,0.029927999999999996
515,2.336129,-1.544516,-0.607109,0.018781,0.999655,0.018042,-0.041333999999999996,0.022971000000000002,0.016641999999999997,0.036395,-0.000769,0.025843
516,2.361059,-1.543773,-0.5828760000000001,0.018857,0.999635,0.019041,-0.047587,0.041162,0.00162,0.040561,0.00183,0.027926
517,2.395054,-1.542994,-0.5501550000000001,0.018734,0.9996139999999999,0.02025,-0.062322,0.078528,-0.0060079999999999995,0.038593,0.004903,0.027571
518,2.427977,-1.542106,-0.5193300000000001,0.018637,0.9995879999999999,0.021524,-0.053573,0.12007899999999999,-0.012417000000000001,0.023966,6.1e-05,0.021078
519,2.4533099999999997,-1.541562,-0.49672,0.018429,0.9995729999999999,0.022407,-0.03425,0.149827,-0.009115,0.018879,-0.004135,0.029992
520,2.470011,-1.541058,-0.483231,0.018366999999999998,0.999558,0.023108,-0.031063,0.15829100000000002,0.002647,0.020131,0.000366,0.023233
521,2.476693,-1.540251,-0.47942700000000005,0.01871,0.999534,0.023865,-0.037599,0.140157,0.014375,0.025632,0.015802,0.008606
522,2.4868919999999997,-1.539401,-0.4723,0.018987999999999998,0.9995069999999999,0.024736,-0.037498000000000004,0.159344,0.011146,0.024544999999999997,0.011632,0.006942
523,2.498782,-1.53875,-0.463884,0.019088,0.9994870000000001,0.025487,-0.035235,0.181733,0.004724,0.018723,0.003703,0.012355
524,2.511458,-1.5380690000000001,-0.455003,0.019167,0.9994649999999999,0.026281,-0.0309,0.19451,0.002601,0.016035,0.0068980000000000005,0.020365
525,2.5219419999999997,-1.53762,-0.44873100000000005,0.019165,0.99945,0.026864999999999997,-0.017983000000000002,0.216848,-0.000542,0.008971999999999999,0.002763,0.038977
526,2.528282,-1.5373649999999999,-0.44673999999999997,0.019146,0.999441,0.027201,-0.012662999999999999,0.216817,0.0027,-0.006069,-0.004582999999999999,0.038824000000000004
527,2.531447,-1.537072,-0.447481,0.019235,0.999431,0.027512,-0.007554000000000001,0.173097,0.009201,-0.010598,-0.001812,0.032043
528,2.530425,-1.5367600000000001,-0.451401,0.019445,0.9994209999999999,0.027752999999999996,-0.008808,0.13685999999999998,0.014580000000000001,-0.018789,0.002654,0.040118
529,2.5311169999999996,-1.536259,-0.453342,0.01971,0.9994040000000001,0.028173,-0.020596,0.128366,0.017713,-0.012722,0.005311,0.037165
530,2.5336380000000003,-1.5355159999999999,-0.453021,0.020059,0.9993780000000001,0.028825,-0.029323000000000002,0.093213,0.025175,-0.007043000000000001,0.006878,0.030379000000000003
531,2.531663,-1.53473,-0.456574,0.020571000000000002,0.99935,0.029437,-0.023008,0.07932,0.030577999999999998,-0.015016999999999999,-0.00115,0.045301
532,2.5272759999999996,-1.534133,-0.462279,0.021046000000000002,0.9993280000000001,0.029837,-0.013516,0.049481,0.025341,-0.009037,-0.001846,0.040001999999999996
533,2.524121,-1.533677,-0.46616,0.021405,0.9993110000000001,0.030143,-0.010359,0.038821,0.024309,-0.00639,-0.00099,0.040917
534,2.5243450000000003,-1.532953,-0.466789,0.021824,0.9992840000000001,0.030749000000000002,-0.030614999999999996,0.04421,0.026297000000000004,0.00027,0.0041340000000000005,0.036619
535,2.525776,-1.532084,-0.466419,0.022284,0.999251,0.031492,-0.032658,0.062335,0.024123,0.000742,0.004991,0.032489
536,2.530389,-1.531315,-0.463125,0.022583000000000002,0.9992209999999999,0.032229,-0.027318000000000002,0.053833000000000006,0.014556999999999999,0.0058590000000000005,0.008088,0.036253
537,2.533445,-1.5306739999999999,-0.460713,0.022855,0.999195,0.03283,-0.027476999999999998,0.023984000000000002,0.019934999999999998,-0.012235,0.005627,0.035606
538,2.5320560000000003,-1.529957,-0.46207700000000007,0.023313,0.999166,0.033389,-0.024468,-0.013333000000000001,0.025345,-0.012159,0.00889,0.029706
539,2.530227,-1.529421,-0.463474,0.023688999999999998,0.999144,0.033795,-0.010631999999999999,-0.029325999999999998,0.016916999999999998,-0.001395,-0.00952,0.029911
540,2.527686,-1.529108,-0.465242,0.023956,0.999131,0.033992,-0.007417,-0.03569,0.007333,-9.1e-05,-0.001573,0.036702
541,2.5339970000000003,-1.528835,-0.458459,0.023898,0.9991200000000001,0.034369,-0.019028,-0.019622999999999998,-0.004519,0.008756,0.002803,0.027887000000000002
542,2.538373,-1.5287,-0.45381800000000005,0.023824,0.999114,0.034584,0.002333,-0.008006000000000001,0.002025,0.004847,-0.000869,0.035241
543,2.534243,-1.528737,-0.45804399999999995,0.023947,0.999116,0.034456,0.010911,0.011101,0.011674,0.00564,0.0030510000000000003,0.02519
544,2.525946,-1.528859,-0.46652899999999997,0.024162,0.9991209999999999,0.034158,0.022637,0.007868,0.010692,0.004342,0.008936,0.024756999999999998
545,2.518491,-1.5290780000000002,-0.47429,0.024284,0.99913,0.033793000000000004,0.021671,0.019633,-1.2e-05,-0.000923,0.007156999999999999,0.029088
546,2.5168220000000003,-1.529291,-0.476315,0.024221,0.9991389999999999,0.033587,0.012031,0.010083,-0.001135,-0.00324,0.0053170000000000005,0.020704
547,2.513375,-1.52955,-0.479811,0.024183,0.99915,0.033292,0.019459999999999998,0.00047400000000000003,-0.002139,-0.007626999999999999,0.001674,0.029697
548,2.5098409999999998,-1.529911,-0.483459,0.024087,0.9991639999999999,0.032915,0.017408,0.012225,-0.008578,-0.014871,0.007031,0.037458
549,2.5150740000000003,-1.5301040000000001,-0.478696,0.023803,0.999172,0.032886,-0.0027949999999999997,0.022965,-0.013006,-9.1e-05,0.004963,0.026913
550,2.5211080000000003,-1.530115,-0.47285600000000005,0.0236,0.999173,0.033023000000000004,-0.008249,0.001657,-0.0076760000000000005,0.003164,-4.2e-05,0.022809
551,2.52712,-1.530176,-0.46687399999999996,0.023368,0.999175,0.033119,0.00031,0.00271,-0.011890000000000001,0.002861,0.004014,0.025155
552,2.535214,-1.530201,-0.458707,0.023084,0.9991760000000001,0.033285,-0.009335,-0.006843999999999999,-0.011945,0.002703,0.0053560000000000005,0.027979
553,2.5455509999999997,-1.530037,-0.44822,0.022831999999999998,0.9991690000000001,0.033658,-0.015732,-0.004695,-0.010924,0.004024,0.009253,0.027864999999999997
554,2.555764,-1.529823,-0.43802700000000006,0.022603,0.9991610000000001,0.034065,-0.014636000000000001,0.0027530000000000002,-0.009858,0.005259000000000001,0.0018920000000000002,0.025521000000000002
555,2.562801,-1.529627,-0.431087,0.022469,0.9991530000000001,0.034386,-0.015703,0.008062,-0.004531,0.00492,0.0033799999999999998,0.028069
556,2.568523,-1.529377,-0.42541599999999996,0.022405,0.999142,0.034719,-0.015740999999999998,0.001662,-0.0023870000000000002,0.004024,0.001605,0.028207999999999997
557,2.573296,-1.529093,-0.42058599999999996,0.022392,0.999131,0.035066,-0.013646,-0.004745,-0.000227,-0.001274,0.0064540000000000005,0.027281
558,2.5779259999999997,-1.528848,-0.415729,0.022363,0.9991200000000001,0.03538,-0.013669999999999998,-0.012194,-0.002355,-0.0024809999999999997,0.005167000000000001,0.028127
559,2.583075,-1.528602,-0.41026,0.022311,0.99911,0.035704,-0.015823,-0.018569,-0.004497999999999999,-0.001559,0.005635,0.028337
560,2.5888880000000003,-1.528338,-0.404104,0.022239,0.999099,0.036052999999999995,-0.011536,-0.014322999999999999,-0.0044729999999999995,-0.000739,0.001374,0.031528
561,2.593448,-1.52819,-0.399358,0.022149000000000002,0.999092,0.036277,-0.007245000000000001,-0.009012000000000001,-0.00445,-0.005166,0.000953,0.029289999999999997
562,2.595854,-1.5282129999999998,-0.396624,0.022052000000000002,0.999093,0.036314,-0.0008960000000000001,-0.022874000000000002,-0.006523999999999999,-0.005069,0.0009519999999999999,0.029252999999999998
563,2.5986849999999997,-1.528189,-0.39306399999999997,0.021965000000000002,0.999092,0.036402,-0.004207,-0.045242000000000004,-0.004383,-0.008979000000000001,0.001152,0.034368
564,2.603582,-1.52801,-0.38705300000000004,0.021877,0.999085,0.036662,-0.009599,-0.061189999999999994,-0.0076040000000000005,-0.004833,0.001373,0.027714999999999997
565,2.605076,-1.528088,-0.384008,0.021784,0.9990879999999999,0.03663,0.006294,-0.085747,-0.007462000000000001,-0.00474,0.00137,0.027747000000000004
566,2.605444,-1.528339,-0.38205900000000004,0.021644999999999998,0.999099,0.036427,0.016996,-0.076205,-0.005263,-0.010520999999999999,0.000627,0.042201999999999996
567,2.604142,-1.528623,-0.382004,0.021547999999999998,0.9991110000000001,0.036157,0.013858,-0.06340599999999999,-0.006369,-0.008182,0.006626000000000001,0.033727999999999994
568,2.60357,-1.528738,-0.381279,0.021509,0.999116,0.036044,-0.0011070000000000001,-0.067624,-0.004332,-0.008142,0.006622,0.033841
569,2.609789,-1.528658,-0.373527,0.021322999999999998,0.9991120000000001,0.036242,-0.008589,-0.080346,-0.013980000000000001,-0.0026609999999999997,0.002139,0.031904
570,2.621301,-1.5285870000000001,-0.360279,0.020942,0.999109,0.036551,-0.017138,-0.09093899999999999,-0.021504,0.002374,0.000433,0.023263
571,2.631602,-1.5283959999999999,-0.348013,0.020653,0.999101,0.036923000000000004,-0.019339,-0.099479,-0.015099000000000001,0.002663,0.00044100000000000004,0.022892
572,2.641633,-1.528086,-0.336185,0.020433,0.9990879999999999,0.037405,-0.021419999999999998,-0.08351,-0.010860999999999999,-0.000611,0.0014609999999999998,0.030542000000000003
573,2.648437,-1.527896,-0.327758,0.02027,0.99908,0.037716,-0.012865999999999999,-0.078217,-0.00974,-0.001273,-0.003597,0.034687
574,2.652552,-1.527667,-0.321922,0.020224000000000002,0.9990700000000001,0.038004,-0.017224,-0.091015,-0.0022760000000000002,0.002954,-0.002015,0.026892000000000003
575,2.656688,-1.527193,-0.315791,0.020283000000000002,0.99905,0.038499,-0.022588,-0.10303499999999999,0.0019260000000000002,0.00259,0.010884,0.028457
576,2.658757,-1.5267620000000002,-0.311722,0.020402,0.999031,0.038919,-0.017230000000000002,-0.094545,0.005158,0.005492,-9.9e-05,0.028845999999999997
577,2.660243,-1.5264389999999999,-0.308544,0.0205,0.999016,0.039247000000000004,-0.017124,-0.075353,0.0008609999999999999,-0.001182,-0.002694,0.036254
578,2.663977,-1.526089,-0.303454,0.020516999999999997,0.999001,0.039639,-0.019205,-0.067871,-0.003436,-0.002252,-0.0033950000000000004,0.032336000000000004
579,2.669716,-1.525708,-0.296104,0.020462,0.998984,0.040096,-0.023559,-0.090214,-0.0066430000000000005,0.0077209999999999996,0.004007,0.030842
580,2.680142,-1.525275,-0.283769,0.02023,0.998964,0.040683,-0.036333,-0.097571,-0.020609,0.008411,0.010648999999999999,0.029691000000000002
581,2.6953099999999997,-1.524743,-0.266808,0.019841,0.9989399999999999,0.041468,-0.037347000000000005,-0.08691,-0.021698,0.010095999999999999,0.006096,0.027899
582,2.708554,-1.524289,-0.25198000000000004,0.019485,0.998919,0.042147000000000004,-0.028495999999999997,-0.06980499999999999,-0.020863,0.007829000000000001,0.0026379999999999997,0.038572
583,2.720618,-1.524002,-0.238729,0.019094,0.9989049999999999,0.042644999999999995,-0.020946,-0.054903999999999994,-0.024034,0.003611,0.0024219999999999997,0.033283
584,2.7322439999999997,-1.523781,-0.225661,0.018684,0.9988950000000001,0.043065,-0.020018,-0.086862,-0.025055,0.002297,-0.003106,0.034022000000000004
585,2.7419029999999998,-1.52358,-0.21400300000000003,0.018340000000000002,0.998886,0.043417000000000004,-0.016888999999999998,-0.10073,-0.022879,0.003892,-0.003539,0.034983
586,2.7503,-1.5235020000000001,-0.203485,0.018003,0.9988819999999999,0.043637,-0.0062640000000000005,-0.108232,-0.020658000000000003,0.008486,-0.002346,0.030489999999999996
587,2.757054,-1.5236129999999999,-0.194689,0.017661000000000003,0.9988870000000001,0.043642,0.0044670000000000005,-0.09654299999999999,-0.022735,0.017983000000000002,0.001204,0.042265
588,2.7633,-1.523778,-0.186773,0.017328,0.9988950000000001,0.043599,0.0024100000000000002,-0.07524700000000001,-0.018504,0.020102000000000002,0.00315,0.034434
589,2.7673400000000004,-1.5239260000000001,-0.18142,0.017099,0.9989020000000001,0.043533999999999996,0.005668,-0.056109000000000006,-0.012095999999999999,0.018744,0.002594,0.037521
590,2.767385,-1.5241149999999999,-0.180506,0.017027,0.9989110000000001,0.043356,0.015313,-0.039129000000000004,-0.004573,0.01285,-0.002924,0.035302999999999994
591,2.764438,-1.5244090000000001,-0.18269000000000002,0.017047,0.9989239999999999,0.043033999999999996,0.018801,-0.036271,-0.002529,0.007612000000000001,0.000816,0.036937
592,2.761404,-1.524791,-0.18500999999999998,0.017034999999999998,0.998942,0.042627,0.021997,-0.038409,-0.003572,0.005273,0.001318,0.036902
593,2.755448,-1.525202,-0.190247,0.017133000000000002,0.9989610000000001,0.042143,0.029479,-0.032056,-0.000323,-0.009595999999999999,-0.001189,0.05574199999999999
594,2.748337,-1.525617,-0.19680899999999998,0.017275,0.99898,0.041639999999999996,0.027312,-0.033139,0.006072,-0.011736,0.000654,0.045655
595,2.740908,-1.526023,-0.203491,0.017426,0.9989979999999999,0.041139,0.028374,-0.037391,0.002881,-0.015855,0.001475,0.047973
596,2.733637,-1.5266170000000001,-0.209777,0.017490000000000002,0.999024,0.040467,0.042151999999999995,-0.060863,-0.000198,-0.011783,-0.008607,0.04811
597,2.7246650000000003,-1.5274,-0.21716799999999997,0.017536000000000003,0.999059,0.039594,0.048438,-0.08539,0.0009460000000000001,-0.017871,-0.007863,0.045749
598,2.717704,-1.528271,-0.22227399999999997,0.017447,0.9990959999999999,0.038665,0.045238,-0.09705,-0.010812,-0.017905,5e-05,0.041688
599,2.7184470000000003,-1.528961,-0.219269,0.017131,0.999125,0.038038,0.033625999999999996,-0.12733599999999998,-0.016212999999999998,-0.015559,0.010625,0.022371000000000002
600,2.718777,-1.529682,-0.21586999999999998,0.016821,0.9991549999999999,0.037384,0.036668,-0.166744,-0.020413999999999998,-0.008565999999999999,-0.00020800000000000001,0.029297000000000004
601,2.7199709999999997,-1.530468,-0.21116500000000002,0.016455,0.999187,0.036687,0.029171,-0.17735399999999998,-0.024725999999999998,-0.009756,-0.0024980000000000002,0.032344
602,2.724554,-1.531101,-0.202862,0.016031999999999998,0.9992120000000001,0.036187000000000004,0.0312,-0.195492,-0.019347,-0.0070290000000000005,-0.000586,0.03762
603,2.72168,-1.531908,-0.201576,0.015812,0.999244,0.035416,0.04071,-0.212583,-0.016054,-0.012898,0.002572,0.029419
604,2.715782,-1.53281,-0.203164,0.015645,0.9992790000000001,0.034495,0.046025,-0.21580100000000002,-0.014944999999999998,-0.013708000000000001,9.6e-05,0.032766
605,2.7124479999999997,-1.533701,-0.202233,0.015392,0.9993120000000001,0.033638,0.047131,-0.210466,-0.018149000000000002,0.005162,-0.000426,0.022866
606,2.71323,-1.5346819999999999,-0.197407,0.014962,0.9993479999999999,0.032766,0.042959,-0.201878,-0.031007,0.017294999999999998,0.008312,0.016337
607,2.717702,-1.535716,-0.18896,0.014394999999999998,0.9993850000000001,0.031901,0.036639,-0.19011199999999998,-0.037476,0.017862,0.008275,0.017202000000000002
608,2.72967,-1.536671,-0.17382999999999998,0.013631,0.999418,0.031198000000000004,0.036913,-0.13045299999999999,-0.038619,0.026652,0.001986,0.035819
609,2.7358729999999998,-1.537533,-0.16573,0.013096,0.999447,0.030487,0.041319,-0.08047699999999999,-0.019424,0.01936,0.0012699999999999999,0.026900999999999998
610,2.723134,-1.5385659999999999,-0.17711,0.013062,0.999481,0.029370999999999998,0.065862,-0.058277999999999996,0.0020829999999999998,0.013915,-0.0008539999999999999,0.026933
611,2.695941,-1.539834,-0.20321199999999998,0.013309,0.9995209999999999,0.027861,0.08297,-0.049815,0.0021920000000000004,0.002606,-0.000207,0.035401999999999996
612,2.674208,-1.54122,-0.224115,0.01329,0.9995629999999999,0.026333,0.073426,-0.045486,-0.006426,0.004822,0.002101,0.031086000000000003
613,2.646375,-1.542641,-0.250646,0.013338,0.999604,0.024694,0.08927,-0.07220800000000001,0.0022649999999999997,0.008893999999999999,0.003173,0.026452999999999997
614,2.606154,-1.544146,-0.289576,0.013543000000000001,0.9996450000000001,0.022829,0.10000099999999999,-0.054153,0.006589,0.003348,0.00063,0.03845
615,2.559296,-1.5457299999999998,-0.335368,0.013715999999999999,0.9996860000000001,0.02083,0.102135,-0.05416,0.0066040000000000005,0.00223,0.003045,0.038008
616,2.512148,-1.5471840000000001,-0.381395,0.013811000000000002,0.9997209999999999,0.018963999999999998,0.092524,-0.05944,0.003339,0.006652,0.00043099999999999996,0.035266000000000006
617,2.45942,-1.5486010000000001,-0.432856,0.013878999999999999,0.9997540000000001,0.017087,0.095743,-0.058374,0.000156,0.010688,-0.001234,0.032032
618,2.3996,-1.54998,-0.491525,0.013922,0.999783,0.015186000000000002,0.100016,-0.05414,0.003385,0.013895,0.006548999999999999,0.030667000000000003
619,2.32397,-1.551231,-0.566126,0.014088999999999999,0.9998090000000001,0.013209,0.098978,-0.039257,0.011904000000000001,0.016017,0.004479,0.045599
620,2.240176,-1.552106,-0.649263,0.014438999999999999,0.999825,0.011425,0.09049,-0.024243,0.01825,0.012752,0.007956999999999999,0.036106
621,2.16134,-1.552859,-0.7276819999999999,0.014668,0.9998389999999999,0.009833,0.07561699999999999,-0.024136,0.004259000000000001,0.012828,0.016183000000000003,0.018396
622,2.086509,-1.553643,-0.801692,0.014687,0.9998530000000001,0.008326,0.07978400000000001,-0.052887,-0.002084,0.008643999999999999,0.0029850000000000002,0.024297
623,1.999377,-1.55429,-0.887641,0.014733000000000001,0.999864,0.006731999999999999,0.081898,-0.053973,0.001137,-0.0074849999999999995,0.001143,0.040464
624,1.912289,-1.554692,-0.973404,0.014872999999999999,0.99987,0.005286,0.070048,-0.075254,0.005354,-0.006145,0.0025859999999999998,0.027825
625,1.824868,-1.554994,-1.058764,0.014962,0.999875,0.003886,0.069904,-0.112517,5.9999999999999995e-05,-0.005914,0.000567,0.029226
626,1.7344279999999999,-1.555391,-1.146698,0.014849000000000001,0.9998809999999999,0.0024519999999999998,0.078415,-0.129544,-0.011609,-0.0052060000000000006,-0.0035740000000000004,0.037572
627,1.639425,-1.5559,-1.238993,0.014513,0.9998889999999999,0.000998,0.073018,-0.14231300000000002,-0.010563,-0.019517,0.007862000000000001,0.030695
628,1.5365540000000002,-1.556034,-1.338375,0.014438,0.999891,-0.000495,0.079108,-0.200968,0.00023700000000000001,-0.014438,0.012347,0.022132
629,1.414513,-1.5558100000000001,-1.455926,0.014500999999999998,0.9998879999999999,-0.002285,0.094938,-0.23406799999999997,0.005731,-0.007421,0.000173,0.027172
630,1.298691,-1.555495,-1.567232,0.014445,0.999883,-0.00403,0.082231,-0.216962,0.001348,0.0118,0.003901,0.040636
631,1.206272,-1.555059,-1.6557009999999999,0.01444,0.999876,-0.00551,0.070601,-0.18924100000000002,0.005504,0.014825999999999999,0.0070209999999999995,0.040132
632,1.123717,-1.554419,-1.73489,0.014546000000000002,0.999866,-0.006973999999999999,0.074936,-0.165854,0.01405,-0.000889,0.011807,0.024796000000000002
633,1.05408,-1.55355,-1.8010389999999998,0.014787999999999999,0.999851,-0.008403,0.069472,-0.192476,0.016183000000000003,-0.011645,-0.0013310000000000002,0.01826
634,0.9975280000000001,-1.5526010000000001,-1.853016,0.015097,0.999834,-0.009747,0.062793,-0.253178,0.017282,-0.019034,-0.005372999999999999,0.024562999999999998
635,0.951134,-1.551796,-1.8938810000000001,0.015299,0.99982,-0.010914,0.060535000000000005,-0.290416,0.0077,-0.014628,0.008878,0.024571
636,0.892668,-1.551052,-1.946273,0.015227000000000001,0.9998049999999999,-0.012267,0.064735,-0.314894,-0.001853,-0.005797,0.011761,0.023207
637,0.8370690000000001,-1.550235,-1.99531,0.015136000000000002,0.9997889999999999,-0.013647999999999999,0.067797,-0.33731,0.006742000000000001,0.015563999999999998,0.004713,0.016883000000000002
638,0.793734,-1.549242,-2.0320080000000003,0.015249,0.999768,-0.014997,0.06244299999999999,-0.329881,0.018446,0.017969,0.00777,0.013425
639,0.7652979999999999,-1.548201,-2.054214,0.015548,0.9997450000000001,-0.016186000000000002,0.052941999999999996,-0.302172,0.023684999999999998,0.024964,0.011409,0.010494
640,0.745146,-1.547192,-2.0685830000000003,0.015902,0.9997209999999999,-0.017237,0.049832999999999995,-0.284043,0.021504,0.039609,0.005451,0.005686
641,0.725413,-1.546127,-2.083021,0.016266,0.9996959999999999,-0.018345,0.051077,-0.246754,0.019328,0.037826,0.013137000000000001,0.018986000000000003
642,0.714508,-1.545331,-2.0897080000000003,0.016590999999999998,0.999676,-0.019127,0.028917,-0.193408,0.018037,0.040797,0.014378,0.019387
643,0.7109949999999999,-1.544806,-2.0901240000000003,0.016866,0.999662,-0.019583,0.017474,-0.13263,0.013606,0.040018,0.012925999999999998,0.021338
644,0.715356,-1.54453,-2.083863,0.017133000000000002,0.999655,-0.019718,-0.005657,-0.070707,-0.000522,0.040088,0.016,0.021259
645,0.721348,-1.544865,-2.0770880000000003,0.017026,0.999664,-0.019359,-0.023554,-0.025868000000000002,-0.00925,0.042011,0.007935,0.016933
646,0.730217,-1.545243,-2.068079,0.016944,0.999674,-0.018925,-0.020219,0.008192,-0.004997,0.032998,0.0035310000000000003,0.020131
647,0.7439859999999999,-1.5454620000000001,-2.0547560000000002,0.017047,0.9996790000000001,-0.018521,-0.021195,0.029497000000000002,-0.003963,0.018704,0.009446,0.020031
648,0.763571,-1.545827,-2.035793,0.017155,0.9996879999999999,-0.017921,-0.032944,0.032708,0.00236,0.016033000000000002,0.010184,0.021171000000000002
649,0.789134,-1.546076,-2.010881,0.017428,0.9996940000000001,-0.017297999999999997,-0.027648000000000002,0.035838,0.014143000000000001,0.013028999999999999,0.006714,0.019968
650,0.810859,-1.545965,-1.989939,0.017884999999999998,0.999692,-0.016996999999999998,-0.005225,0.041082,0.015361000000000001,-0.0013449999999999998,-0.005017,0.025633
651,0.818769,-1.545777,-1.9828169999999998,0.018161,0.9996870000000001,-0.016987000000000002,0.004386,0.035752,0.007958,0.000546,-0.001549,0.030262999999999998
652,0.82076,-1.5456370000000001,-1.9814939999999999,0.018295,0.999683,-0.017044999999999998,0.004396,0.032576999999999995,0.002621,-0.000305,0.003322,0.033524
653,0.8230799999999999,-1.545515,-1.979759,0.018427000000000002,0.9996799999999999,-0.017089,0.0043100000000000005,0.02083,0.010112999999999999,0.006185,0.00415,0.026885000000000003
654,0.8283799999999999,-1.545173,-1.9746599999999999,0.018777000000000002,0.9996719999999999,-0.017228,0.011682,0.009047,0.019793,-0.0021449999999999998,0.009438,0.03415
655,0.830786,-1.544793,-1.9724990000000002,0.019102,0.999662,-0.017442,0.008519,0.010154,0.012292,-0.0024690000000000003,0.009448,0.034364
656,0.8367870000000001,-1.544786,-1.9665830000000002,0.019206,0.999662,-0.017327000000000002,-0.004273,0.003841,0.003665,-0.004085,0.006503,0.044198
657,0.8480989999999999,-1.544982,-1.95533,0.019255,0.999667,-0.016980000000000002,-0.021348,0.000713,0.0014140000000000001,0.006776999999999999,0.007825,0.038952
658,0.86331,-1.545299,-1.9398509999999998,0.019273,0.999675,-0.016482,-0.027859,-0.023766,0.0014,0.006759,0.007817000000000001,0.038454
659,0.88461,-1.545858,-1.917668,0.019187,0.9996889999999999,-0.015713,-0.036509,-0.054607,-0.003961999999999999,0.015388999999999998,0.007742,0.021419999999999998
660,0.9101520000000001,-1.546638,-1.8908369999999999,0.018963,0.999708,-0.014737,-0.053622,-0.06944,-0.009404000000000001,0.039370999999999996,0.005220000000000001,0.011869
661,0.938674,-1.5474459999999999,-1.860811,0.018733,0.999727,-0.013719,-0.047258999999999995,-0.079045,-0.010416,0.039601,0.005201,0.010851000000000001
662,0.958038,-1.548038,-1.840164,0.018526,0.999741,-0.013024,-0.022616,-0.053573,-0.008140000000000001,0.050138999999999996,-0.002778,0.027382999999999998
663,0.9609700000000001,-1.5481129999999999,-1.8367220000000002,0.0185,0.999743,-0.012925,0.008486,-0.007913,0.001633,0.042963,0.001585,0.049027
664,0.9529569999999999,-1.547579,-1.844901,0.01883,0.9997299999999999,-0.013381,0.031962,0.01429,0.023133,0.040375,0.002085,0.056258
665,0.9443389999999999,-1.54631,-1.854268,0.019757,0.9997,-0.014297999999999998,0.054414,0.051389,0.049948,0.027637000000000002,0.002085,0.06695599999999999
666,0.9401120000000001,-1.544463,-1.8601619999999999,0.021181000000000002,0.999653,-0.015465000000000001,0.067379,0.10241800000000001,0.064928,-0.000825,-0.007542,0.075554
667,0.9339040000000001,-1.542589,-1.8687939999999998,0.022594,0.999602,-0.016713,0.057901999999999995,0.12908699999999998,0.06376,-0.014293,-0.010787,0.077306
668,0.95562,-1.541324,-1.849622,0.023986,0.999566,-0.016949000000000002,-0.004019,0.117594,0.061204999999999996,-0.027632,-0.0044329999999999994,0.072095
669,1.007922,-1.541056,-1.7992029999999999,0.025063,0.999558,-0.015813999999999998,-0.075513,0.091306,0.037239,-0.043038,0.040756,0.030447000000000002
670,1.089443,-1.5424209999999998,-1.719644,0.025056000000000002,0.999597,-0.013087999999999999,-0.160556,0.098243,-0.025321,-0.036424,0.047476,0.011333
671,1.1917879999999998,-1.544983,-1.618484,0.023883,0.999667,-0.009512,-0.17027899999999999,0.037936000000000004,-0.068021,-0.017398,0.017682,-0.018091
672,1.293963,-1.547561,-1.516442,0.022236000000000002,0.9997299999999999,-0.006318,-0.136312,-0.004777,-0.072002,-0.018268,-0.007039,0.004379999999999999
673,1.380741,-1.549281,-1.4293360000000002,0.020986,0.999769,-0.004037,-0.100178,-0.012454,-0.048239,-0.019566999999999998,-0.005414,0.019815
674,1.4444709999999998,-1.5500049999999999,-1.364926,0.020483,0.999784,-0.002601,-0.050443,-0.051188,0.004501,-0.004934,-0.009488,0.035438
675,1.449614,-1.549332,-1.35837,0.021183,0.99977,-0.0025800000000000003,0.020692,-0.082514,0.050972,-0.004993,-0.013243000000000001,0.036057
676,1.407202,-1.548003,-1.3990639999999999,0.022359,0.99974,-0.003691,0.06757200000000001,-0.086977,0.06091900000000001,-0.001912,-0.013443,0.037808999999999995
677,1.353161,-1.546759,-1.451111,0.023337,0.999711,-0.005161,0.07393,-0.108258,0.04924,0.030892000000000003,-0.007188,0.033161
678,1.31265,-1.5457290000000001,-1.489457,0.024100999999999997,0.9996860000000001,-0.006364,0.050574,-0.097463,0.034108,0.042061,0.01011,0.032471
679,1.301955,-1.545201,-1.498952,0.024543000000000002,0.9996719999999999,-0.006762000000000001,0.001848,-0.034381999999999996,0.018732,0.046135,0.017097,0.032076
680,1.3226129999999998,-1.545075,-1.478289,0.024807,0.999669,-0.006286,-0.027788999999999998,0.012616,0.013123,0.047291,0.028132,0.010223000000000001
681,1.3552950000000001,-1.544999,-1.446485,0.025077000000000002,0.999667,-0.005489,-0.043532999999999995,0.068074,0.010806,0.040780000000000004,0.025586,0.021969
682,1.4042860000000001,-1.544969,-1.39953,0.025338999999999997,0.999667,-0.004259000000000001,-0.065679,0.122493,0.007377,0.034384,0.020643,0.028581
683,1.466748,-1.5447540000000002,-1.339782,0.025771,0.999661,-0.002691,-0.07101299999999999,0.13206099999999998,0.016941,0.016541,-0.005673,0.02889
684,1.513763,-1.544295,-1.295253,0.026325,0.999649,-0.001503,-0.049738,0.12238199999999999,0.021375,-0.008808,-0.008697,0.044502
685,1.5487870000000001,-1.543895,-1.262355,0.026756,0.9996379999999999,-0.000589,-0.037022,0.095736,0.01402,-0.018044,-0.009328,0.045739999999999996
686,1.572883,-1.5435510000000001,-1.239668,0.027110000000000002,0.9996290000000001,5.6999999999999996e-05,-0.021192,0.056269000000000007,0.013113,-0.01356,-0.0019329999999999998,0.041477999999999994
687,1.5820379999999998,-1.5433,-1.231106,0.027357999999999997,0.9996219999999999,0.000308,-0.0053560000000000005,0.014685,0.009004,0.0019850000000000002,0.009289,0.036039
688,1.59085,-1.543077,-1.222397,0.027578,0.999616,0.000553,-0.013958000000000002,0.002984,0.012164,0.007502,0.009341,0.029445999999999996
689,1.604501,-1.542897,-1.20884,0.027744,0.999611,0.000935,-0.014991999999999998,0.010445,0.012147,0.017971,0.006569,0.029155
690,1.6206610000000001,-1.542729,-1.1932209999999999,0.027895,0.999606,0.001392,-0.021292,0.030716000000000004,0.009941,0.023894,0.010404,0.022412
691,1.6362290000000002,-1.542525,-1.178236,0.028081000000000002,0.9996,0.0018399999999999998,-0.020206000000000002,0.033912,0.008876,0.01945,0.009891,0.027274
692,1.6518099999999998,-1.5423790000000002,-1.1637170000000001,0.028194,0.9995959999999999,0.0022890000000000002,-0.016838,0.064819,0.002451,0.011052,-0.003625,0.045639
693,1.66877,-1.542335,-1.1483889999999999,0.028201999999999998,0.9995950000000001,0.0027719999999999997,-0.023129,0.08509800000000001,-0.0018920000000000002,0.01086,-0.0014869999999999998,0.044423000000000004
694,1.684464,-1.54216,-1.134076,0.028331,0.99959,0.0032340000000000003,-0.015847999999999998,0.056259,0.011014,0.013263999999999998,0.002897,0.033723
695,1.702115,-1.5418180000000001,-1.117745,0.028610000000000003,0.9995799999999999,0.003779,-0.027478,0.078675,0.009836,0.018631,0.006737000000000001,0.035604000000000004
696,1.729137,-1.5415709999999998,-1.092684,0.028727,0.9995729999999999,0.004587,-0.039021,0.11495999999999999,0.0033,0.027502,0.006836,0.024023
697,1.762563,-1.5414290000000002,-1.062054,0.028696,0.999569,0.005571,-0.046283,0.153366,-0.004278,0.026983,0.010059,0.01956
698,1.8092,-1.5412860000000002,-1.0187979999999999,0.028549,0.9995649999999999,0.006938,-0.068539,0.180101,-0.010877,0.027435,0.017693,0.021077000000000002
699,1.8687779999999998,-1.541058,-0.9631790000000001,0.028312,0.999558,0.008695,-0.083346,0.206794,-0.013151,0.023812,0.005325,0.016085
700,1.922416,-1.540749,-0.9139120000000001,0.028088,0.999549,0.010304,-0.071529,0.23122800000000002,-0.006690000000000001,0.024036000000000002,0.005334,0.014476
701,1.9727240000000001,-1.540262,-0.868497,0.027989,0.999534,0.011897,-0.076791,0.24404299999999998,-0.009948,0.005626,0.007195,0.035252
702,2.0239759999999998,-1.539744,-0.821737,0.027815,0.999518,0.013544999999999998,-0.06943300000000001,0.216333,-0.013066,-0.015088999999999998,-0.0048130000000000004,0.049947000000000005
703,2.068453,-1.5394729999999999,-0.781543,0.027424,0.999509,0.014898,-0.056655,0.206717,-0.017237,-0.014698,-0.004804,0.048594
704,2.102816,-1.5392489999999999,-0.7508630000000001,0.027098,0.999502,0.015951,-0.038662,0.172574,-0.019204,-0.03607,-0.0030269999999999997,0.059579999999999994
705,2.134086,-1.539205,-0.722413,0.026613,0.999501,0.016807,-0.035711,0.112925,-0.02338,-0.0403,-2e-05,0.048836000000000004
706,2.161682,-1.539179,-0.695921,0.026156,0.9995,0.017546,-0.026539999999999998,0.023384000000000002,-0.016791999999999998,-0.045564999999999994,-0.005222,0.048310000000000006
707,2.174562,-1.539213,-0.682419,0.025894999999999998,0.999501,0.017859,-0.006711,-0.061609000000000004,-0.008027,-0.04091,-0.007817000000000001,0.05256
708,2.180957,-1.539375,-0.673979,0.025641000000000004,0.9995059999999999,0.017927000000000002,0.000503,-0.123399,-0.013238999999999999,-0.041510000000000005,0.000722,0.059099
709,2.1876130000000003,-1.5398100000000001,-0.66379,0.025168,0.9995200000000001,0.017847,0.005516,-0.2054,-0.023781,-0.041739,-0.004006,0.049002
710,2.194188,-1.540522,-0.652252,0.024464,0.999542,0.017591,0.014868000000000001,-0.272499,-0.03538,-0.030766,-0.007644,0.047595
711,2.198717,-1.541491,-0.641881,0.023594,0.9995709999999999,0.017128,0.026522000000000004,-0.300198,-0.044877,-0.020115,-0.005949,0.052162
712,2.196361,-1.542606,-0.637943,0.02273,0.999603,0.016419,0.038119,-0.325827,-0.039422000000000006,-0.016398,-0.002532,0.046951
713,2.189364,-1.54366,-0.638137,0.021981,0.999632,0.015645,0.031574,-0.352458,-0.034092000000000004,-0.025719,-2.8999999999999997e-05,0.047313
714,2.1849979999999998,-1.544573,-0.634918,0.021297,0.999656,0.015018,0.031538,-0.391811,-0.031236,-0.011333,0.004952000000000001,0.02647
715,2.169162,-1.545397,-0.642567,0.020850999999999998,0.999677,0.014215,0.038843,-0.420629,-0.02367,-0.005012,0.008013,0.021262
716,2.145125,-1.546345,-0.658166,0.020393,0.9997010000000001,0.013196000000000001,0.048474,-0.41851499999999997,-0.027879,0.007195,0.001657,0.028109
717,2.128431,-1.547433,-0.666833,0.019687,0.999727,0.012278,0.040112,-0.38862399999999997,-0.036521,0.036541000000000004,0.003065,0.022938999999999998
718,2.115153,-1.548424,-0.672844,0.018997,0.99975,0.0115,0.030721,-0.341719,-0.036647000000000006,0.041397,0.0034700000000000004,0.023961
719,2.105209,-1.5492549999999998,-0.676754,0.018396,0.999768,0.010888,0.025626,-0.279949,-0.028216,0.046041000000000006,0.008594,0.028388
720,2.0926,-1.549815,-0.684426,0.018026,0.9997799999999999,0.010364,0.025832,-0.22459400000000002,-0.018671,0.04687,0.0037600000000000003,0.022503
721,2.0824279999999997,-1.5502209999999998,-0.690858,0.017796,0.9997879999999999,0.009992000000000001,0.011131,-0.16597699999999999,-0.012440000000000001,0.045299,0.0038280000000000002,0.026049
722,2.071713,-1.55029,-0.698921,0.017833,0.99979,0.009762999999999999,0.012414,-0.111678,-0.006091,0.027333,0.008404,0.026414999999999998
723,2.056372,-1.550358,-0.712492,0.017922999999999998,0.999791,0.009458,0.011901,-0.077452,-0.001204,0.016257,0.016612000000000002,0.034013999999999996
724,2.042363,-1.550435,-0.725154,0.017988,0.999793,0.009173,0.016231,-0.063618,-0.001192,0.012972,0.011178,0.032362
725,2.017512,-1.550457,-0.748827,0.018194,0.999793,0.008715,0.029024,-0.061549,0.003168,0.006175,-8.3e-05,0.037138
726,1.9849,-1.550689,-0.7802100000000001,0.018262999999999998,0.999798,0.008027,0.03864,-0.06157000000000001,2.9999999999999997e-05,0.006532,-0.004589,0.039992
727,1.955402,-1.550922,-0.8084939999999999,0.018285,0.9998030000000001,0.0074010000000000005,0.031176,-0.063662,-0.0032240000000000003,0.001048,-0.0063939999999999995,0.049529000000000004
728,1.9260119999999998,-1.551165,-0.8364959999999999,0.018264,0.999807,0.006775,0.035406,-0.07113799999999999,-0.002117,-0.001403,0.002817,0.051697
729,1.893843,-1.551475,-0.8672469999999999,0.018195,0.999813,0.006091,0.036476999999999996,-0.073259,-0.005311,-0.001837,0.005481000000000001,0.050031
730,1.861702,-1.551858,-0.897797,0.018029,0.999821,0.005398,0.03751,-0.086025,-0.010629000000000001,-0.0015949999999999998,0.004131,0.04195
731,1.830873,-1.5523,-0.9266610000000001,0.017727,0.9998290000000001,0.004717,0.032797,-0.098636,-0.016295,0.003849,0.002292,0.053846000000000005
732,1.816438,-1.5526739999999999,-0.939212,0.017434,0.9998360000000001,0.004371,0.014646000000000001,-0.096463,-0.011082999999999999,0.013647999999999999,0.001782,0.045007
733,1.806802,-1.552827,-0.946818,0.017299000000000002,0.9998389999999999,0.0041600000000000005,0.012473999999999999,-0.097551,-0.0036200000000000004,0.019292,-0.000754,0.03182
734,1.7935860000000001,-1.553121,-0.9583969999999999,0.017085,0.9998440000000001,0.003871,0.022243000000000002,-0.069849,-0.013201,0.01856,0.001468,0.039952999999999995
735,1.7670299999999999,-1.55367,-0.9839540000000001,0.016641,0.9998530000000001,0.0033079999999999997,0.032041,-0.041061,-0.028124,0.016714,0.005228,0.037204
736,1.73334,-1.5544360000000002,-1.016987,0.015983,0.999866,0.002621,0.035332999999999996,-0.028258999999999996,-0.035595,0.01371,0.009198,0.033176
737,1.708523,-1.5551549999999998,-1.0412370000000002,0.015337,0.999878,0.0021260000000000003,0.024885,-0.033014,-0.034618,0.006208,0.006684000000000001,0.028285
738,1.678243,-1.5558370000000001,-1.070611,0.014699,0.9998879999999999,0.001585,0.033343,-0.050088,-0.034537,0.013423,0.00443,0.028474
739,1.639182,-1.5565950000000002,-1.1087799999999999,0.013996999999999999,0.999899,0.000959,0.028071,-0.038343,-0.036725,0.017971,0.00271,0.043643
740,1.6274389999999999,-1.557145,-1.11995,0.013441999999999999,0.999907,0.000762,0.005686,-0.021272,-0.024085,0.026094,0.008043000000000002,0.044220999999999996
741,1.612303,-1.557411,-1.13462,0.013184999999999999,0.9999100000000001,0.0005480000000000001,0.020536000000000002,-0.025644,-0.00902,0.02304,0.004637,0.025102
742,1.559917,-1.557507,-1.18658,0.013104,0.9999120000000001,-0.000143,0.044025999999999996,-0.01616,-0.003527,0.022846,0.001217,0.02712
743,1.4788649999999999,-1.557517,-1.267406,0.013036,0.9999120000000001,-0.001202,0.063273,-0.009823,-0.006606,0.013683,0.000607,0.041378
744,1.391298,-1.5574709999999998,-1.354748,0.01293,0.9999110000000001,-0.002346,0.059,-0.014057,-0.009835,0.004968,0.0047729999999999995,0.046902
745,1.315273,-1.557407,-1.430224,0.012779,0.9999100000000001,-0.0033380000000000003,0.039663,-0.038512,-0.0045969999999999995,0.005118999999999999,0.0047740000000000005,0.047894
746,1.270167,-1.557175,-1.474178,0.012836000000000002,0.999907,-0.00398,0.03587,-0.06917999999999999,0.0009789999999999998,0.00732,-0.0040880000000000005,0.035901
747,1.207858,-1.556883,-1.534831,0.012837999999999999,0.9999030000000001,-0.004875,0.052873,-0.088397,-0.003151,0.007562999999999999,0.005559000000000001,0.037620999999999995
748,1.12305,-1.556562,-1.617833,0.012648999999999999,0.999899,-0.006075,0.061451,-0.088388,-0.012705,0.007751999999999999,0.005564,0.03882
749,1.0370780000000002,-1.556246,-1.701998,0.012323,0.9998940000000001,-0.007281999999999999,0.071062,-0.090535,-0.016908000000000003,-0.008218000000000001,0.004058,0.031803
750,0.922697,-1.555762,-1.814338,0.011793999999999999,0.9998870000000001,-0.008931,0.093428,-0.11399000000000001,-0.031677,-0.005522999999999999,-0.008401,0.030293
751,0.782371,-1.554933,-1.9519400000000002,0.011028,0.9998739999999999,-0.011095,0.11033499999999999,-0.156635,-0.037913,-0.004757,-0.008389,0.032458
752,0.660308,-1.553764,-2.070553,0.010329999999999999,0.9998549999999999,-0.013300999999999999,0.11442000000000001,-0.18651900000000002,-0.027163999999999997,-0.0010220000000000001,-0.0035020000000000003,0.037639
753,0.5655140000000001,-1.55227,-2.1614310000000003,0.009836,0.999828,-0.015498,0.10469400000000001,-0.202512,-0.015461,0.002234,-0.000729,0.040507
754,0.495712,-1.5506309999999999,-2.227213,0.009514,0.9997969999999999,-0.017594,0.105742,-0.201472,-0.010114,0.003471,0.004369,0.041291
755,0.439675,-1.5488520000000001,-2.27947,0.009276999999999999,0.9997590000000001,-0.019722,0.10899,-0.183403,-0.002637,0.014985,0.010144,0.044548000000000004
756,0.400035,-1.5468629999999999,-2.315824,0.009271,0.999714,-0.021927000000000002,0.11651600000000001,-0.157914,0.010201,0.015372,0.000454,0.051025
757,0.373183,-1.544693,-2.339706,0.009476,0.999659,-0.024203,0.110148,-0.147252,0.013347999999999999,0.013702,0.003865,0.045947
758,0.353274,-1.542851,-2.356621,0.009631,0.99961,-0.026118000000000002,0.088811,-0.151421,0.008931,0.018781,0.007318000000000001,0.034571
759,0.337289,-1.541488,-2.369784,0.009663,0.9995709999999999,-0.027555,0.071851,-0.132165,0.003447,0.036693,0.008532,0.031431
760,0.323285,-1.540301,-2.381597,0.009653,0.9995350000000001,-0.028811,0.058159,-0.093763,0.002234,0.040411,0.007392,0.034807
761,0.313681,-1.539253,-2.389918,0.0097,0.999503,-0.029902999999999996,0.057279,-0.049031,0.005375,0.032124,0.006113,0.040202999999999996
762,0.310778,-1.538258,-2.392204,0.009918000000000001,0.9994709999999999,-0.030881,0.048845,-0.022387,0.009555,0.013748,0.009913,0.040326
763,0.30741199999999996,-1.5374,-2.395221,0.010075,0.999442,-0.031736,0.040358,-0.01807,0.003081,0.01295,0.007073,0.039120999999999996
764,0.302288,-1.536822,-2.3998630000000003,0.010084000000000001,0.999423,-0.032338,0.025408,-0.029702,-0.005554,0.016496,0.008115,0.032979
765,0.296985,-1.536485,-2.404461,0.010012,0.999411,-0.032717,0.022178,-0.038204,-0.007702,0.022947,0.006036,0.031557
766,0.28939499999999996,-1.536086,-2.411354,0.00988,0.999398,-0.033181,0.025393000000000002,-0.031837,-0.004483,0.02816,0.005012,0.032448000000000005
767,0.284559,-1.535659,-2.415807,0.00984,0.999383,-0.033641000000000004,0.029742,-0.010559,-0.001276,0.024523,0.007087,0.032985
768,0.281607,-1.535144,-2.41879,0.009883,0.999365,-0.034164,0.024461,0.006481999999999999,0.004007,0.022984,0.004328,0.033431999999999996
769,0.282186,-1.5346739999999999,-2.418505,0.010034,0.9993479999999999,-0.034608,0.02449,0.017118,0.008265999999999999,0.023124000000000002,0.0037649999999999997,0.036164999999999996
770,0.284889,-1.5340690000000001,-2.416096,0.0103,0.999326,-0.03517,0.037254,0.009612,0.009433,0.020812999999999998,-0.0009429999999999999,0.037429000000000004
771,0.28233,-1.533212,-2.4187220000000003,0.010448,0.999294,-0.036019999999999996,0.044702,2e-05,0.004156,0.021549000000000002,0.0030559999999999997,0.036400999999999996
772,0.277424,-1.532502,-2.423755,0.010467,0.999267,-0.036755,0.033053,0.010748,-0.004485,0.031708999999999994,0.013474000000000002,0.036343
773,0.274917,-1.532144,-2.426758,0.010472,0.9992530000000001,-0.037127,0.014933000000000002,0.033272,-0.0024739999999999996,0.025401,0.006561,0.035845
774,0.27552,-1.531887,-2.4269529999999997,0.010563,0.999243,-0.037364999999999995,0.016019,0.042834,0.002862,0.019756,0.000665,0.03439
775,0.27761399999999997,-1.531619,-2.425798,0.010716,0.999233,-0.037604000000000005,0.01178,0.050302,0.0038909999999999995,0.026622000000000003,0.004429,0.028326999999999998
776,0.280451,-1.531435,-2.4242049999999997,0.010874,0.999225,-0.037752,0.009757,0.071627,0.0006450000000000001,0.035619,0.007382,0.029207
777,0.283532,-1.531333,-2.422959,0.01102,0.9992209999999999,-0.037821,0.004561,0.1036,0.0016359999999999999,0.034451,0.007568999999999999,0.034113
778,0.287519,-1.5311620000000001,-2.42132,0.011216,0.999215,-0.03793,0.011025,0.12273099999999999,0.006998000000000001,0.027816000000000004,0.004249,0.034787
779,0.295526,-1.5307680000000001,-2.415771,0.011633,0.999199,-0.038211,0.022722,0.12159500000000001,0.014558000000000001,0.004251,0.003578,0.037769
780,0.30309899999999995,-1.5301200000000001,-2.410484,0.012114,0.999173,-0.038736,0.031199,0.10984300000000001,0.015701,-0.002043,0.001819,0.041681
781,0.308023,-1.529388,-2.4075159999999998,0.012525,0.999143,-0.039368,0.032185000000000005,0.089607,0.013597,-0.0017980000000000001,0.0031309999999999997,0.039231
782,0.311645,-1.528802,-2.405395,0.012849000000000001,0.9991180000000001,-0.039885000000000004,0.027836,0.065147,0.007189,0.001983,0.008023,0.037505000000000004
783,0.312233,-1.528353,-2.405749,0.013009999999999999,0.999099,-0.040304,0.022372,0.035342,0.006121,0.001425,0.005478,0.039542
784,0.31194,-1.528066,-2.406364,0.013087,0.9990870000000001,-0.040585,0.013713,0.005553,0.003961999999999999,0.000691,0.007474,0.040645999999999995
785,0.311079,-1.527915,-2.407182,0.013097999999999999,0.999081,-0.040737999999999996,0.00834,-0.005072,0.001802,0.005014,0.007236,0.040112
