,attitude.roll,attitude.pitch,attitude.yaw,gravity.x,gravity.y,gravity.z,rotationRate.x,rotationRate.y,rotationRate.z,userAcceleration.x,userAcceleration.y,userAcceleration.z
0,1.474707,-1.2536040000000002,-2.314768,0.31045500000000004,0.9501149999999999,-0.029924,-0.027277,-0.182024,0.05960700000000001,0.005203,0.001515,0.010575
1,1.475702,-1.25247,-2.310534,0.311558,0.94976,-0.029717,-0.075027,-0.131759,0.05173099999999999,0.010037,0.007072,0.012107999999999999
2,1.477994,-1.2513969999999999,-2.305918,0.312638,0.9494239999999999,-0.029097,-0.066243,-0.089127,0.038919,0.022033,0.011025,0.009856
3,1.478691,-1.250995,-2.303712,0.313039,0.949298,-0.028914,-0.022213999999999998,-0.054011,0.01034,0.014125,0.016187,0.008376
4,1.480437,-1.251225,-2.301454,0.312872,0.94937,-0.028348,-0.050631,0.002668,-0.019841,0.008661,0.008958,0.015790000000000002
5,1.486034,-1.2519930000000001,-2.29617,0.312298,0.9496110000000001,-0.026535000000000003,-0.093041,0.035942,-0.045818,-0.023037000000000002,0.019154,0.017349
6,1.492675,-1.2532530000000002,-2.290012,0.311273,0.9500049999999999,-0.024367,-0.101528,0.032832,-0.05976,-0.022012,0.01876,0.015181
7,1.4984620000000002,-1.2542870000000002,-2.2839650000000002,0.310427,0.9503280000000001,-0.022494,-0.097535,-0.014109,-0.045786,-0.012667,0.007679999999999999,-0.004056000000000001
8,1.504746,-1.255217,-2.276749,0.309679,0.950617,-0.020484,-0.10518499999999999,-0.039708999999999994,-0.030851999999999997,-0.007157999999999999,0.020086,-0.001214
9,1.5087469999999998,-1.2559719999999999,-2.271411,0.309041,0.950851,-0.0192,-0.06586,-0.06862599999999999,-0.026267000000000002,-0.013737000000000001,0.007722,-0.009715000000000001
10,1.509052,-1.256831,-2.269116,0.308229,0.951116,-0.019056,-0.023272,-0.107048,-0.045148,-0.020433,-0.008352,-0.017794
11,1.508537,-1.257974,-2.267481,0.307133,0.951469,-0.019147,-0.043537,-0.101668,-0.041024,-0.01096,-0.004035,0.019849000000000002
12,1.5099690000000001,-1.258566,-2.263587,0.306596,0.951651,-0.018672,-0.07152,-0.12513,-0.010211,-0.011598,-0.003958,0.020015
13,1.5116969999999998,-1.258548,-2.258867,0.306644,0.9516450000000001,-0.018144,-0.069616,-0.14868399999999998,0.017606999999999998,-0.0098,0.003585,0.015855
14,1.511391,-1.258074,-2.25552,0.307089,0.9515,-0.018264,-0.052849,-0.186147,0.047682,-0.020529,0.004799,-0.002411
15,1.509763,-1.257099,-2.252961,0.30798600000000004,0.951199,-0.018821,-0.02102,-0.219308,0.054355999999999995,-0.023837,-0.001217,-0.00011499999999999999
16,1.505845,-1.255976,-2.252084,0.30897600000000003,0.950852,-0.020097,-0.001994,-0.24818,0.065208,-0.003251,0.001068,0.015794
17,1.5028350000000001,-1.254687,-2.250241,0.310137,0.9504520000000001,-0.02111,-0.033937,-0.226792,0.072435,0.0035229999999999997,0.013415,0.048942
18,1.5023520000000001,-1.2534,-2.2463759999999997,0.311346,0.950051,-0.021343,-0.059485,-0.20967600000000003,0.076508,0.007470999999999999,0.015875999999999998,0.053692
19,1.503161,-1.251934,-2.241473,0.312751,0.949593,-0.021185,-0.08603200000000001,-0.171276,0.08695499999999999,-0.002449,0.004555,0.035986000000000004
20,1.507472,-1.250718,-2.23411,0.31399099999999996,0.949211,-0.01991,-0.105976,-0.121048,0.064319,-0.010875,0.027092,0.013196000000000001
21,1.510559,-1.24956,-2.228304,0.31514899999999996,0.948846,-0.019007,-0.062278,-0.127605,0.067837,-0.007867,0.011115,-0.00643
22,1.5124389999999999,-1.248566,-2.223934,0.31612399999999996,0.9485319999999999,-0.018469,-0.032251999999999996,-0.119085,0.042399,-0.030188999999999997,0.021729,-0.001261
23,1.512069,-1.248259,-2.222483,0.31640799999999997,0.948434,-0.018603,-0.003068,-0.06792100000000001,0.009422,-0.032716,0.040991,-0.002042
24,1.509978,-1.248474,-2.2237,0.31616500000000003,0.9485020000000001,-0.019252000000000002,0.034584,-0.027456,-0.019209,-0.033938,0.039001,-0.004078
25,1.5066030000000001,-1.24934,-2.227856,0.315278,0.9487760000000001,-0.020267,0.078876,0.058822,-0.055328999999999996,-0.050248,0.031952,9.499999999999999e-05
26,1.503011,-1.2509540000000001,-2.233864,0.313675,0.949285,-0.021294999999999998,0.090067,0.138824,-0.091673,-0.039245999999999996,0.013803999999999999,-0.003088
27,1.502483,-1.253252,-2.239065,0.311486,0.9500049999999999,-0.021312,0.064105,0.26156399999999996,-0.12726300000000001,-0.023507,0.000373,-0.005833
28,1.5038340000000001,-1.2561200000000001,-2.24359,0.308796,0.950896,-0.020709,0.064206,0.282873,-0.128358,0.039715,-0.019195,-0.018171
29,1.503945,-1.258449,-2.249347,0.306587,0.951615,-0.020526,0.090767,0.281621,-0.10467,0.049904000000000004,-0.017700999999999998,-0.00642
30,1.503435,-1.260298,-2.25592,0.30482,0.9521809999999999,-0.020564,0.087399,0.28784899999999997,-0.060904999999999994,0.053151,-0.027208999999999997,0.037425
31,1.504475,-1.260657,-2.260436,0.304501,0.952291,-0.020224000000000002,0.04857,0.256839,0.001889,0.028935000000000002,-0.020956,0.040732
32,1.5085819999999999,-1.259971,-2.2613849999999998,0.305234,0.952081,-0.019014,0.000379,0.25154,0.036811,0.012332,-0.00889,0.030993
33,1.51315,-1.2586389999999998,-2.2616709999999998,0.306583,0.951673,-0.017693,0.013057,0.23016399999999998,0.043336,-0.024128,-0.014555000000000002,0.0063560000000000005
34,1.516507,-1.257258,-2.262274,0.30795300000000003,0.951248,-0.016735,0.023409,0.171491,0.055234000000000005,-0.028564,-0.003189,-0.0019260000000000002
35,1.518743,-1.255818,-2.263043,0.309356,0.9508030000000001,-0.016118,0.030666000000000002,0.130959,0.061746,-0.020599,0.012622,0.00066
36,1.5190190000000001,-1.254735,-2.265531,0.31038899999999997,0.9504670000000001,-0.016086000000000003,0.06592,0.12981800000000002,0.050243,0.023443000000000002,-0.000256,0.010119
37,1.516616,-1.2538639999999999,-2.270875,0.311176,0.9501959999999999,-0.016876,0.091583,0.138267,0.046139,0.035733,0.001007,0.024429
38,1.514998,-1.253052,-2.275923,0.311919,0.949943,-0.017422999999999998,0.070423,0.174574,0.04274,0.032594,0.007562,0.014325
39,1.515706,-1.2523030000000002,-2.279339,0.312643,0.949708,-0.017241,0.049263,0.209819,0.038274,0.028239,0.002806,-0.00818
40,1.516943,-1.2514370000000001,-2.282348,0.313485,0.9494370000000001,-0.016898,0.058778,0.190611,0.038364999999999996,0.022269,-0.006077,-0.022744
41,1.515831,-1.250401,-2.286988,0.314449,0.949111,-0.017301,0.095941,0.151065,0.038675,0.004459,0.002778,-0.013047999999999999
42,1.514186,-1.24939,-2.292089,0.315379,0.948792,-0.017873,0.077872,0.164981,0.037462999999999996,0.000798,0.001266,0.004231
43,1.514303,-1.248432,-2.295299,0.316289,0.9484889999999999,-0.017887,0.036192,0.15127000000000002,0.039326,-0.002293,0.00282,0.004994
44,1.516873,-1.247484,-2.2961,0.317232,0.9481879999999999,-0.017123,-0.004195,0.1855,0.039,0.007811,0.007104000000000001,-0.008115
45,1.520677,-1.246807,-2.296332,0.317936,0.947973,-0.015948,0.013013999999999998,0.205723,0.028412,0.012447,0.0013369999999999999,-0.029035000000000002
46,1.52162,-1.24627,-2.2993419999999998,0.31845999999999997,0.947802,-0.015673,0.068361,0.173584,0.025635,0.012884999999999999,-0.007464,-0.022733
47,1.520033,-1.245451,-2.303873,0.319209,0.9475399999999999,-0.016218,0.07225,0.110633,0.047106999999999996,-0.004542,-0.011215000000000001,-0.001894
48,1.5186030000000001,-1.244149,-2.307134,0.320416,0.9471229999999999,-0.016738999999999997,0.039999,0.078698,0.069355,-0.030499000000000002,0.020558,0.007248
49,1.518791,-1.2427290000000002,-2.308337,0.321762,0.946667,-0.016748,0.0036590000000000004,0.05860599999999999,0.063786,-0.03569,0.028766000000000003,-0.001913
50,1.519657,-1.2416479999999999,-2.308362,0.322799,0.946318,-0.016522,0.002602,0.03952,0.042439,-0.028655,0.0018780000000000001,-0.01427
51,1.518486,-1.2409629999999998,-2.309971,0.323428,0.9460959999999999,-0.016934,0.038793,0.00643,0.027779,-0.012087,-0.008276,-0.0018039999999999998
52,1.516165,-1.240651,-2.3122409999999998,0.323683,0.945995,-0.017700999999999998,0.034483,-0.014813999999999999,0.016026,-0.008375,-2.7000000000000002e-05,0.016175
53,1.515141,-1.2407920000000001,-2.31312,0.323531,0.946041,-0.018025,0.001535,-0.005038,-0.0023769999999999998,-0.008391,0.020619,0.017887
54,1.515762,-1.241205,-2.312259,0.323151,0.946175,-0.017802000000000002,-0.028294,-0.00914,-0.016467,-0.022491999999999998,0.031822,0.007442
55,1.517436,-1.241818,-2.310136,0.322601,0.9463729999999999,-0.017230000000000002,-0.040063,-0.028227,-0.028275,-0.027222000000000003,0.019584999999999998,-0.003674
56,1.519101,-1.242467,-2.30725,0.32201799999999997,0.9465819999999999,-0.016662,-0.047737,-0.070824,-0.025069,-0.019162000000000002,0.009198,-0.000154
57,1.520304,-1.2429629999999998,-2.30393,0.321567,0.946742,-0.01625,-0.052223,-0.11131300000000001,-0.017575999999999998,-0.016101,0.005666,0.006531
58,1.5214,-1.243466,-2.3001669999999996,0.321108,0.9469040000000001,-0.015875,-0.064078,-0.132598,-0.01229,-0.016497,0.0041,0.007726
59,1.522165,-1.243765,-2.296351,0.320837,0.947,-0.015615,-0.057816,-0.150781,0.000596,-0.025443,0.0035310000000000003,0.011724
60,1.520865,-1.24375,-2.293758,0.320832,0.946995,-0.016033000000000002,-0.032542,-0.211642,0.013669,-0.032195999999999995,0.007854,0.009517
61,1.51777,-1.2434479999999999,-2.29168,0.32106599999999996,0.9468979999999999,-0.017041,-0.033944999999999996,-0.274536,0.025490000000000002,-0.032019,0.008882,0.020322
62,1.5155299999999998,-1.2431290000000002,-2.287834,0.321329,0.9467959999999999,-0.017777,-0.078854,-0.302054,0.019871,-0.026849,0.009045000000000001,0.028382
63,1.516108,-1.2431590000000001,-2.2808509999999997,0.32131,0.9468049999999999,-0.01759,-0.120428,-0.31355,0.000367,-0.023977000000000002,0.012362,0.023129
64,1.516343,-1.243456,-2.273125,0.32103400000000004,0.946901,-0.017499,-0.12179200000000001,-0.37640999999999997,0.003643,-0.0051920000000000004,0.024657,0.001813
65,1.515579,-1.243819,-2.265216,0.320677,0.947017,-0.017725,-0.12094500000000001,-0.434965,-0.0058909999999999995,0.0051140000000000005,0.008351,0.00271
66,1.514254,-1.244149,-2.257316,0.32034,0.9471229999999999,-0.018132,-0.12626099999999998,-0.431746,-0.007,0.012881,-0.001094,0.0036969999999999998
67,1.513933,-1.244552,-2.248718,0.319954,0.947253,-0.018213,-0.127366,-0.429655,0.003672,0.023628,-0.025393000000000002,0.0077
68,1.512774,-1.2445110000000001,-2.240775,0.31997,0.94724,-0.018586000000000002,-0.125328,-0.439296,0.015449000000000001,-0.015939,-0.043644999999999996,0.019639
69,1.5107899999999999,-1.244451,-2.233604,0.319988,0.9472200000000001,-0.019224,-0.10073700000000001,-0.441457,0.001737,-0.001827,0.016769,0.030806
70,1.506985,-1.244533,-2.227963,0.319835,0.947247,-0.020437,-0.091184,-0.461692,-0.007784999999999999,0.028843,0.05608,0.036932
71,1.505055,-1.244885,-2.221071,0.319463,0.9473590000000001,-0.021032,-0.115347,-0.391248,-0.020863,0.050914,0.023786,0.037176
72,1.503095,-1.245192,-2.216008,0.31913,0.947458,-0.021639,-0.044647000000000006,-0.311663,-0.0044469999999999996,0.053536,-0.029488999999999998,0.035265
73,1.4979770000000001,-1.245061,-2.215211,0.31913800000000003,0.947416,-0.023281,0.010854,-0.287433,0.015137000000000001,0.023406,-0.041333,0.079555
74,1.492106,-1.244725,-2.215784,0.319313,0.947308,-0.025179,0.016327,-0.258681,0.013002000000000001,-0.00047999999999999996,0.018726,0.093141
75,1.48886,-1.2441659999999999,-2.214013,0.319758,0.9471290000000001,-0.026258999999999998,-0.034881999999999996,-0.240465,0.030781,0.004888,0.026275,0.06938
76,1.487188,-1.24314,-2.2110950000000003,0.320682,0.946799,-0.026874000000000002,-0.024204,-0.219273,0.050056,0.019086000000000002,0.009347,0.042163
77,1.4847219999999999,-1.2419850000000001,-2.209668,0.321703,0.946427,-0.027759,0.018653,-0.186369,0.042836,0.034254,-0.014481,0.02872
78,1.482084,-1.2416200000000002,-2.209458,0.321972,0.9463090000000001,-0.028638,-0.0032189999999999996,-0.11154800000000001,-0.00121,0.045917,-0.008229,0.025861000000000002
79,1.482581,-1.242636,-2.207448,0.32103000000000004,0.9466370000000001,-0.028393,-0.041069999999999995,-0.056808000000000004,-0.070979,0.05455,0.0032990000000000003,0.012158
80,1.4860389999999999,-1.244931,-2.203924,0.31895999999999997,0.9473739999999999,-0.027099,-0.045666000000000005,0.038296,-0.140567,0.038889,0.021971,-0.040329000000000004
81,1.488609,-1.248284,-2.2029669999999997,0.315861,0.948442,-0.026018,-0.014277000000000001,0.10012599999999999,-0.178883,0.03857,0.003691,-0.05586
82,1.49098,-1.251876,-2.2025490000000003,0.312525,0.949574,-0.024998,-0.027103,0.08954,-0.1843,0.03565,-0.004231,-0.065243
83,1.4961229999999999,-1.255233,-2.19856,0.309469,0.950622,-0.023152000000000002,-0.105094,0.067433,-0.18268,-0.013174000000000002,0.0005809999999999999,-0.087962
84,1.505288,-1.258968,-2.190569,0.306123,0.951774,-0.020082,-0.153002,0.083605,-0.189445,0.004211,-0.005072999999999999,-0.091612
85,1.5129629999999998,-1.26243,-2.1840599999999997,0.302976,0.952831,-0.017542,-0.09446900000000001,0.072662,-0.167658,0.013368999999999999,-0.005412,-0.07395
86,1.5168709999999999,-1.265475,-2.18223,0.300144,0.95375,-0.016201,-0.030232,0.13842100000000002,-0.15127000000000002,0.007992,-0.00264,-0.052463
87,1.518932,-1.2682790000000002,-2.18321,0.297506,0.9545899999999999,-0.015444,-0.009942,0.156404,-0.137264,-6.6e-05,0.006058,-0.039244
88,1.5230489999999999,-1.270702,-2.182183,0.295256,0.955309,-0.014108,-0.074035,0.16186099999999998,-0.114218,-0.018416,0.000685,-0.033819999999999996
89,1.5321799999999999,-1.2728469999999998,-2.175989,0.293324,0.955941,-0.011333,-0.130555,0.171629,-0.11035199999999999,-0.0033159999999999995,-0.0074849999999999995,-0.04836
90,1.541882,-1.27514,-2.1695330000000004,0.29122800000000004,0.9566110000000001,-0.008423,-0.091009,0.18428699999999998,-0.11329700000000001,0.038026,-0.011741,-0.049316000000000006
91,1.5489389999999998,-1.2771190000000001,-2.165925,0.28938800000000003,0.9571860000000001,-0.006326,-0.05587999999999999,0.193644,-0.086358,0.053065,0.000273,-0.022757
92,1.557626,-1.278506,-2.16194,0.288103,0.9575870000000001,-0.003795,-0.08756900000000001,0.294833,-0.055730999999999996,0.050001,0.001673,-0.02155
93,1.569688,-1.2792350000000001,-2.155125,0.287429,0.9577959999999999,-0.00031800000000000003,-0.115701,0.25001799999999996,-0.013141,0.014039,0.0033090000000000003,-0.030581
94,1.582777,-1.2788469999999998,-2.146242,0.28778200000000004,0.957685,0.0034479999999999997,-0.171259,0.256506,0.011032,-0.048341,0.024919999999999998,-0.049041
95,1.600096,-1.279021,-2.1343259999999997,0.287513,0.957735,0.008427,-0.162221,0.31209499999999996,-0.045592,-0.041083,-0.014969999999999999,-0.07522999999999999
96,1.612934,-1.280373,-2.126693,0.286087,0.958123,0.012062,-0.091851,0.254517,-0.093097,-0.023315,-0.028023000000000003,-0.058876
97,1.625659,-1.282558,-2.118646,0.283819,0.9587459999999999,0.015587,-0.15124500000000002,0.275196,-0.151222,0.00020800000000000001,0.0038090000000000003,-0.010277
98,1.6451259999999999,-1.286453,-2.104982,0.279735,0.9598459999999999,0.020831,-0.210323,0.349206,-0.226505,0.010121,0.008065000000000001,-0.015933000000000003
99,1.670765,-1.29118,-2.086407,0.274592,0.961161,0.027542,-0.28986799999999996,0.424174,-0.257067,0.00974,-0.032633999999999996,-0.035813
100,1.702232,-1.295821,-2.0631619999999997,0.269165,0.962432,0.035583,-0.29383400000000004,0.47432399999999997,-0.274251,0.008804000000000001,-0.038909,-0.051239
101,1.73258,-1.300719,-2.0420130000000003,0.263306,0.96375,0.042974,-0.229477,0.526396,-0.298437,0.011871,-0.014363999999999998,-0.054479
102,1.7629290000000002,-1.306214,-2.022427,0.256678,0.965202,0.049932,-0.208727,0.592534,-0.338969,0.005056000000000001,-0.020286000000000002,-0.034307
103,1.7968979999999999,-1.312663,-1.999744,0.24876199999999998,0.9668680000000001,0.057224000000000004,-0.24785100000000002,0.604654,-0.405488,0.031465,-0.0067090000000000006,0.016338
104,1.8340900000000002,-1.319782,-1.973226,0.23980900000000002,0.9686610000000001,0.06464099999999999,-0.249937,0.572874,-0.44819,0.07195900000000001,0.037594999999999996,0.056941
105,1.87297,-1.3272,-1.9450669999999999,0.23024899999999998,0.970477,0.071773,-0.24231999999999998,0.613298,-0.44071099999999996,0.10932,0.06353500000000001,0.058583
106,1.9130770000000001,-1.332442,-1.9177970000000002,0.22239,0.971728,0.079239,-0.229647,0.7033229999999999,-0.32109699999999997,0.08744,0.000562,0.031632
107,1.9501970000000002,-1.3362100000000001,-1.894571,0.21589299999999997,0.972611,0.08608099999999999,-0.164573,0.76463,-0.257696,0.055637,-0.060059,0.025309
108,1.983139,-1.3390879999999998,-1.8767779999999998,0.210375,0.973276,0.092022,-0.11461800000000001,0.781265,-0.19861700000000002,0.04077,-0.077707,0.019672
109,2.011718,-1.340958,-1.8635669999999998,0.206012,0.9737030000000001,0.097219,-0.08605,0.782007,-0.14393499999999998,0.024685,-0.036035000000000005,0.064036
110,2.037809,-1.342335,-1.8532,0.202209,0.974016,0.101957,-0.073176,0.821283,-0.120395,0.00441,-0.0009019999999999999,0.091586
111,2.064377,-1.343222,-1.841912,0.198668,0.974216,0.10688299999999999,-0.104575,0.746712,-0.09274500000000001,-0.008925,0.018368000000000002,0.072103
112,2.086481,-1.343236,-1.832499,0.196245,0.9742200000000001,0.111241,-0.064123,0.547132,-0.034522000000000004,-0.07774500000000001,-0.017921,0.044567
113,2.0989299999999997,-1.343062,-1.829203,0.194991,0.974181,0.11375999999999999,-0.026219,0.460609,-0.008509000000000001,-0.012969,-0.001143,0.031534
114,2.1082970000000003,-1.343017,-1.829494,0.193956,0.9741700000000001,0.115605,0.04749,0.5007550000000001,0.011182,0.047148,-0.051868,0.017162
115,2.107424,-1.342842,-1.8400189999999998,0.194203,0.974131,0.115523,0.095703,0.399022,0.102448,0.046488999999999996,-0.061808,0.026628
116,2.101403,-1.341428,-1.855341,0.196081,0.9738100000000001,0.115047,0.181239,0.546369,0.209679,0.005075,-0.03985,0.070332
117,2.091397,-1.3392680000000001,-1.877873,0.199047,0.973317,0.114125,0.178288,0.620872,0.228791,-0.000118,-0.019139,0.08993
118,2.079508,-1.337011,-1.902526,0.202307,0.9727959999999999,0.11282,0.19196,0.5898800000000001,0.241745,0.000543,-0.017169,0.116397
119,2.069224,-1.3337139999999998,-1.925414,0.206273,0.9720270000000001,0.112266,0.14715699999999998,0.6112609999999999,0.2617,-0.03899,-0.028317000000000002,0.06705499999999999
120,2.0628279999999997,-1.329914,-1.9451009999999997,0.21024099999999998,0.9711280000000001,0.11268900000000001,0.11618900000000001,0.628319,0.284963,-0.027745999999999996,-0.035261,0.062909
121,2.052907,-1.325253,-1.966343,0.21535900000000002,0.9700049999999999,0.112696,0.136477,0.4671,0.357951,-0.010555,-0.046193,0.059758000000000006
122,2.030748,-1.3195270000000001,-1.9954610000000002,0.22277600000000003,0.968598,0.11036099999999999,0.275529,0.176438,0.46398,-0.008253,-0.017609,0.084051
123,1.9897470000000002,-1.313033,-2.037475,0.232854,0.9669629999999999,0.10369300000000001,0.375107,-0.13106099999999998,0.552664,-0.01766,0.023058000000000002,0.10890699999999999
124,1.941166,-1.305835,-2.082214,0.24409899999999998,0.965102,0.09478099999999999,0.410575,-0.321824,0.541406,-0.035771,0.066437,0.120353
125,1.896334,-1.300698,-2.121684,0.252797,0.9637450000000001,0.08533099999999999,0.41981499999999994,-0.354118,0.35136799999999996,0.002116,0.30653400000000003,0.188702
126,1.862269,-1.298142,-2.151581,0.257915,0.963059,0.07737899999999999,0.264606,-0.159027,0.183391,-0.000759,0.305327,0.17903
127,1.8551900000000001,-1.297384,-2.161124,0.259157,0.9628549999999999,0.07575599999999999,0.048358,0.22164,0.013682,-0.04883,-0.071727,-0.018307
128,1.853937,-1.297865,-2.1657439999999997,0.258807,0.9629850000000001,0.075302,0.092558,0.085134,0.013097999999999999,0.00575,-0.192858,-0.079208
129,1.8384049999999998,-1.297102,-2.180984,0.260653,0.962779,0.071467,0.25856399999999996,-0.124733,0.137372,0.006025,-0.168132,-0.061778
130,1.809109,-1.295225,-2.2067080000000003,0.26439,0.9622700000000001,0.064228,0.308868,-0.268953,0.19559200000000002,0.052673000000000005,-0.024343,0.043179
131,1.783564,-1.292265,-2.227948,0.268726,0.96146,0.058054999999999995,0.22256700000000001,-0.222926,0.21522600000000003,0.041012,0.006695,-0.009257
132,1.7625529999999998,-1.288901,-2.247128,0.273059,0.9605299999999999,0.053012000000000004,0.237035,-0.08769400000000001,0.21729,-0.013156000000000001,0.008693000000000001,-0.084766
133,1.738866,-1.2853809999999999,-2.2706619999999997,0.277569,0.9595450000000001,0.047095,0.338512,-0.039131,0.239301,-0.07764800000000001,0.042774,-0.075507
134,1.710563,-1.281876,-2.299185,0.282119,0.9585520000000001,0.039689999999999996,0.377967,-0.056262,0.22678,-0.116057,0.044866,-0.059830999999999995
135,1.68544,-1.278608,-2.324389,0.286138,0.957616,0.032948000000000005,0.312013,-0.052677999999999996,0.186791,-0.13283299999999998,0.029169999999999998,-0.047063
136,1.665223,-1.27649,-2.344409,0.288765,0.957003,0.027348,0.25579,-0.056438999999999996,0.11055899999999999,-0.089974,0.007825,-0.038731
137,1.6452630000000001,-1.2756299999999998,-2.363223,0.290073,0.9567540000000001,0.021641,0.26097600000000004,-0.126616,0.073298,-0.081135,-0.006573999999999999,-0.018894
138,1.624207,-1.275031,-2.381134,0.291038,0.9565790000000001,0.015559,0.23276799999999997,-0.23409699999999997,0.070034,-0.10286600000000001,0.001474,0.020191999999999998
139,1.606778,-1.2741879999999999,-2.393077,0.29207,0.956333,0.010514,0.123464,-0.324333,0.086477,-0.09047100000000001,0.024791999999999998,0.009842
140,1.594172,-1.272608,-2.398835,0.29369,0.9558700000000001,0.006866,0.06654600000000001,-0.382823,0.110724,-0.070789,0.030717,-0.030518
141,1.579734,-1.270425,-2.404907,0.295844,0.955227,0.002644,0.107679,-0.46296499999999996,0.136751,-0.055976,0.018330000000000003,-0.052890999999999994
142,1.560675,-1.26789,-2.414637,0.29826199999999997,0.9544739999999999,-0.003019,0.171504,-0.496246,0.145785,-0.060652,0.0031829999999999996,-0.033938
143,1.5397299999999998,-1.265616,-2.426263,0.30030100000000004,0.953793,-0.009332,0.178054,-0.490832,0.11805,-0.055626,-0.008343000000000001,-0.005423
144,1.521763,-1.2638530000000001,-2.435012,0.301764,0.953262,-0.014808000000000002,0.103474,-0.497908,0.087628,-0.039327999999999995,-0.022643,-0.011040000000000001
145,1.5055209999999999,-1.262407,-2.4400880000000003,0.302859,0.952824,-0.019797,0.078658,-0.575523,0.071531,-0.002978,-0.017841,0.02027
146,1.488948,-1.261241,-2.4465470000000002,0.303597,0.952469,-0.024905,0.101475,-0.490354,0.06517200000000001,0.028633,0.015854,0.062212
147,1.4765629999999998,-1.2600040000000001,-2.4488849999999998,0.30443899999999996,0.952091,-0.028774,0.001137,-0.500661,0.065552,0.02544,0.040096,0.055736
148,1.469307,-1.259707,-2.446971,0.304504,0.952001,-0.031011,-0.029174000000000002,-0.438456,-0.012719,0.004502,0.017848,-0.005824
149,1.4632399999999999,-1.259835,-2.446053,0.304189,0.95204,-0.032844,0.006555,-0.311855,-0.00195,0.017832,0.009493000000000001,-0.011406
150,1.456642,-1.2602389999999999,-2.447342,0.303582,0.9521629999999999,-0.034807,0.036795999999999995,-0.262826,-0.034916,0.021903,0.013290999999999999,-0.012587000000000001
151,1.448027,-1.260825,-2.450502,0.302717,0.952342,-0.037351999999999996,0.061195000000000006,-0.298048,-0.038973,0.012941999999999999,0.016041,0.001448
152,1.4394799999999999,-1.261636,-2.453143,0.30162100000000003,0.9525899999999999,-0.039837,0.013248,-0.295703,-0.051062,0.012405,-0.00099,0.025951
153,1.436146,-1.262828,-2.4510549999999998,0.30036199999999996,0.952951,-0.04069,-0.06334,-0.252794,-0.059128999999999994,0.010276,-0.004372999999999999,0.023906
154,1.435052,-1.2641229999999999,-2.447264,0.299093,0.953343,-0.040851,-0.062144000000000005,-0.22828,-0.063425,-0.010641,0.005077,-0.017238999999999997
155,1.432121,-1.265253,-2.445179,0.29790500000000003,0.953684,-0.041579000000000005,-0.016513999999999997,-0.26366999999999996,-0.043833,-0.026451,-0.002359,-0.047548
156,1.424933,-1.2656379999999998,-2.4462900000000003,0.29723499999999997,0.953799,-0.043666,0.028901,-0.335327,-0.012445999999999999,-0.032708,-0.011081,-0.047902
157,1.415632,-1.2654459999999998,-2.448138,0.29699699999999996,0.953742,-0.046457,0.028526999999999997,-0.396136,0.010062,-0.002838,0.00245,0.001779
158,1.408851,-1.265177,-2.44707,0.296927,0.9536610000000001,-0.048511,-0.035432,-0.373585,0.020269,0.017496,-0.00403,0.020541
159,1.404128,-1.2648780000000002,-2.444626,0.296976,0.953571,-0.049960000000000004,-0.036322,-0.332043,0.022345,0.006765,0.012448,-0.008573
160,1.398622,-1.264784,-2.443892,0.296784,0.953543,-0.051609,-0.004076,-0.297989,0.0032979999999999997,-0.004028,0.009089,-0.033046
161,1.391114,-1.264886,-2.445144,0.296292,0.953573,-0.053819000000000006,0.027833999999999998,-0.3332,-0.010320000000000001,0.015201,-0.0008300000000000001,-0.017882
162,1.3830120000000001,-1.264885,-2.446222,0.295848,0.953573,-0.056218,0.004195,-0.362975,-0.00297,0.017949,0.005488,0.021184
163,1.37806,-1.265234,-2.4442209999999998,0.295238,0.953678,-0.057617999999999996,-0.04997,-0.328615,-0.023688,0.005863,0.016323,0.038652
164,1.373799,-1.266033,-2.4419020000000002,0.294243,0.953918,-0.058727,-0.033924,-0.328633,-0.03319,-9.9e-05,0.003968,0.023844999999999998
165,1.366757,-1.26668,-2.441822,0.293218,0.9541120000000001,-0.060672000000000004,0.003229,-0.372431,-0.035011,-0.014012,0.010289,0.024387
166,1.358373,-1.267242,-2.442442,0.292174,0.9542799999999999,-0.063015,-0.003282,-0.393726,-0.031825,-0.003814,0.020055,0.049404
167,1.352198,-1.2678459999999998,-2.440556,0.291219,0.9544600000000001,-0.064694,-0.026907,-0.412879,-0.01701,0.036784,-0.0060810000000000005,0.04533
168,1.344884,-1.2678610000000001,-2.439314,0.290723,0.954465,-0.06681799999999999,-0.0036659999999999996,-0.43120200000000003,0.016291,0.040469,-0.0026219999999999998,0.043274
169,1.33515,-1.267242,-2.440473,0.290635,0.9542799999999999,-0.069783,0.043247,-0.423965,0.030496,0.045318000000000004,-0.0033369999999999997,0.044805000000000005
170,1.325395,-1.266679,-2.442606,0.290461,0.9541120000000001,-0.072746,0.05637999999999999,-0.366421,0.014491,0.026434,0.011937,0.078803
171,1.3176299999999999,-1.2662209999999998,-2.444412,0.29031,0.953974,-0.07510800000000001,0.026997000000000004,-0.26402600000000004,0.007745,0.031437,0.010778,0.06905
172,1.314142,-1.266116,-2.443556,0.290143,0.953943,-0.076146,-0.015361000000000001,-0.199936,0.0009570000000000001,0.053103,0.00046399999999999995,0.030568
173,1.311551,-1.265799,-2.44237,0.29023699999999997,0.9538479999999999,-0.076975,0.011290999999999999,-0.18307,0.022486000000000003,0.051163,-0.019430000000000003,0.006189
174,1.3067879999999998,-1.264825,-2.444043,0.29076399999999997,0.9535549999999999,-0.078599,0.076432,-0.14929,0.043194,0.029930000000000002,-0.021013999999999998,0.01468
175,1.3001209999999999,-1.263358,-2.4486310000000002,0.29158,0.9531120000000001,-0.08090900000000001,0.104372,-0.100401,0.0476,-0.015106,0.008054,0.022621000000000002
176,1.296659,-1.2625389999999999,-2.451243,0.29205,0.9528639999999999,-0.08213,0.017436,-0.02534,-0.000105,-0.017957,0.047807999999999996,-0.016427
177,1.2972920000000001,-1.263015,-2.450392,0.291665,0.953008,-0.081822,-0.026050999999999998,-0.004802000000000001,-0.036755,-0.000344,0.025691000000000002,-0.041484
178,1.297951,-1.263531,-2.449834,0.291246,0.9531639999999999,-0.081498,0.002725,0.006743000000000001,-0.018409000000000002,-0.0013599999999999999,-0.002435,-0.053894000000000004
179,1.29611,-1.26337,-2.451597,0.291242,0.953116,-0.082075,0.033453,-0.017956,0.00427,-0.021986000000000002,0.0031829999999999996,-0.07190099999999999
180,1.296251,-1.263896,-2.451143,0.290771,0.953275,-0.081898,-0.049513,-0.005772,-0.040122000000000005,0.003616,0.0405,-0.090023
181,1.299084,-1.265341,-2.4484209999999997,0.28967600000000004,0.9537100000000001,-0.080704,-0.053530999999999995,0.03266,-0.057290999999999995,0.022885,0.026194,-0.073775
182,1.300258,-1.266158,-2.4489400000000003,0.289019,0.9539549999999999,-0.08015599999999999,0.03102,0.11748399999999999,-0.031172000000000002,0.026226999999999997,0.005456,-0.058012
183,1.298257,-1.266229,-2.454313,0.288792,0.9539770000000001,-0.080716,0.064337,0.184429,-0.018206,-0.035481,-0.013074,-0.027788999999999998
184,1.297877,-1.2665629999999999,-2.4588099999999997,0.288456,0.9540770000000001,-0.08073999999999999,0.059185,0.19628099999999998,-0.0471,-0.10684600000000001,-0.004461,-0.036981
185,1.293273,-1.267195,-2.466841,0.287502,0.954266,-0.081902,0.10271500000000001,0.12273099999999999,-0.073407,-0.130931,0.017352,-0.02285
186,1.290406,-1.268312,-2.471135,0.28624099999999997,0.954599,-0.08243099999999999,-0.008732,0.018702,-0.06871100000000001,-0.10978900000000001,0.026463999999999998,-0.028012000000000002
187,1.2904520000000002,-1.269187,-2.46923,0.285443,0.95486,-0.082187,-0.05139,-0.151846,-0.005765,-0.056804999999999994,0.029363,-0.048382999999999995
188,1.288684,-1.268957,-2.466153,0.285508,0.954791,-0.08275199999999999,-0.041527,-0.26718800000000004,0.05854500000000001,-0.032792,0.023862,-0.018001
189,1.286786,-1.267959,-2.462154,0.286265,0.9544940000000001,-0.083561,-0.053415,-0.28213699999999997,0.077709,-0.030101,0.006229999999999999,0.005772
190,1.286353,-1.267594,-2.4570369999999997,0.286563,0.954385,-0.08378300000000001,-0.07986599999999999,-0.247896,0.062525,-0.010791,-0.003625,0.000516
191,1.286944,-1.267375,-2.4517130000000003,0.286813,0.9543200000000001,-0.083672,-0.07955,-0.20411300000000002,0.035766,0.015753,0.0057020000000000005,0.003624
192,1.288074,-1.2673379999999999,-2.446659,0.28694200000000003,0.954309,-0.083358,-0.072976,-0.172152,0.029361,0.032302,0.0027530000000000002,0.005233
193,1.289815,-1.267288,-2.441888,0.28713299999999997,0.9542940000000001,-0.082871,-0.06204400000000001,-0.117844,0.025095,0.035988,-0.005792,0.009645
194,1.2919180000000001,-1.267279,-2.437916,0.287314,0.954291,-0.08227000000000001,-0.053212,-0.061377,0.015471,0.028832999999999998,-0.0072239999999999995,0.0086
195,1.294586,-1.267356,-2.43443,0.287462,0.954314,-0.081483,-0.04659,-0.019824,0.007986,0.028638999999999998,0.003343,0.016038
196,1.2977940000000001,-1.267239,-2.4310709999999998,0.28783000000000003,0.9542790000000001,-0.08059,-0.048652,0.009956,0.02182,0.027202999999999998,-0.002634,0.014718
197,1.301896,-1.266947,-2.427063,0.288426,0.954192,-0.079483,-0.049748,0.007812,0.026088,0.036937,-0.010909,0.001449
198,1.303756,-1.266346,-2.4247810000000003,0.289127,0.9540120000000001,-0.079098,-0.008361,-0.027543,0.040310000000000006,0.043286,-0.010668,0.015377000000000002
199,1.304711,-1.265415,-2.423387,0.29006,0.953732,-0.079055,-0.010451,-0.00946,0.048818,0.019953,0.005527000000000001,0.031432
200,1.307008,-1.264757,-2.421134,0.29084699999999997,0.953534,-0.078552,-0.025205,0.009852,0.027325,0.007523,0.0077540000000000005,0.025757
201,1.3091899999999999,-1.2645170000000001,-2.419007,0.291238,0.953462,-0.077977,-0.028357999999999998,0.002479,0.009153,0.0021420000000000002,0.010527,0.015019
202,1.311717,-1.264497,-2.4164,0.291453,0.953456,-0.07724600000000001,-0.041127,0.004676,0.00372,-0.004618,0.009725,0.016012000000000002
203,1.314497,-1.26457,-2.41348,0.291598,0.953478,-0.076417,-0.034788,-0.007073,0.005915999999999999,0.002759,0.005888,0.01735
204,1.316826,-1.2646680000000001,-2.410959,0.29168499999999997,0.953507,-0.075714,-0.039007,-0.00065,0.001605,0.009111,0.004745,0.017258000000000003
205,1.318937,-1.264886,-2.408703,0.291643,0.953573,-0.075047,-0.021947,-0.004961999999999999,-0.000407,0.037183999999999995,-0.0069489999999999994,0.029942
206,1.321382,-1.265159,-2.40679,0.291574,0.9536549999999999,-0.074269,-0.0355,0.054784000000000006,-0.01126,0.025092,-0.006756,0.027181
207,1.325032,-1.265599,-2.404734,0.29143600000000003,0.953788,-0.073102,-0.032074,0.103779,-0.012367,0.026649000000000003,-0.003684,0.019254
208,1.329252,-1.2658049999999998,-2.402981,0.291549,0.95385,-0.071824,-0.017066,0.133499,0.0015869999999999999,0.021134,-0.004036,0.017075999999999997
209,1.33199,-1.265425,-2.40292,0.292097,0.953736,-0.07111100000000001,0.021279,0.131188,0.013608000000000002,-0.010556999999999999,-0.0070799999999999995,0.015798
210,1.333272,-1.2650379999999999,-2.4041080000000004,0.292545,0.9536190000000001,-0.070824,0.019082,0.114165,0.010408,-0.022572,-0.009161,0.010520999999999999
211,1.334552,-1.2647979999999999,-2.404747,0.292858,0.9535469999999999,-0.070503,0.015738,0.07903500000000001,0.007225,-0.031108999999999998,-0.004526,0.00698
212,1.335642,-1.264589,-2.4050529999999997,0.293129,0.953484,-0.07023,0.0007830000000000001,0.06846000000000001,0.000725,-0.011970999999999999,0.012581,0.027917
213,1.337365,-1.264728,-2.404359,0.293121,0.953526,-0.069694,-0.010011,0.034435,-0.005716,-0.007186,0.005367,0.026175999999999998
214,1.338121,-1.2651350000000001,-2.4038880000000002,0.292796,0.9536479999999999,-0.069383,-0.014306999999999999,0.007899,-0.026008,-0.012065000000000001,0.010173,0.025269999999999997
215,1.339061,-1.266141,-2.403084,0.291927,0.95395,-0.068887,-0.023837,0.009058,-0.041031,0.008199,0.002501,0.029611000000000002
216,1.341029,-1.26692,-2.401407,0.291338,0.954184,-0.068143,-0.036634,0.025022,-0.026186,0.009779000000000001,-0.006247,0.025327000000000002
217,1.343523,-1.267556,-2.399568,0.290916,0.954374,-0.06727999999999999,-0.022698,0.042009,-0.023974000000000002,0.007775,-0.006756999999999999,0.020328
218,1.344571,-1.268217,-2.3994459999999997,0.290371,0.954571,-0.066833,0.006179,0.047277,-0.034461,-0.022549,0.023899,0.028839
219,1.344941,-1.2690569999999999,-2.400239,0.289615,0.9548209999999999,-0.06654700000000001,0.0030789999999999997,0.05480499999999999,-0.049448,-0.025547,0.020063,0.031695
220,1.343899,-1.270099,-2.402062,0.288576,0.9551299999999999,-0.066624,0.026411,0.015341999999999998,-0.05778,-0.026491000000000004,0.012979,0.03217
221,1.342395,-1.271043,-2.403266,0.287597,0.95541,-0.066854,-0.006964,-0.041044,-0.047258999999999995,-0.014312,0.002873,0.038961
222,1.344001,-1.272018,-2.400282,0.286796,0.9556969999999999,-0.066183,-0.075454,-0.070701,-0.030607,-0.008933,0.015844999999999998,0.030492000000000002
223,1.347083,-1.2726540000000002,-2.3954400000000002,0.286404,0.9558840000000001,-0.065163,-0.058589999999999996,-0.085798,0.000508,0.016284,0.006763,0.010277
224,1.346406,-1.272546,-2.394022,0.28646,0.955852,-0.06538,0.015903,-0.10850599999999999,0.020286000000000002,0.031319,-0.014675,0.028270999999999998
225,1.34229,-1.272053,-2.396157,0.286647,0.955707,-0.066665,0.039441000000000004,-0.09791799999999999,0.016163999999999998,0.028310000000000002,-0.006640999999999999,0.046111
226,1.341533,-1.272108,-2.3958720000000002,0.286545,0.955723,-0.06687,-0.021994999999999997,-0.026223000000000003,-0.011063,0.018432,0.011699,0.031958
227,1.343918,-1.272593,-2.393607,0.28625300000000004,0.955866,-0.066082,-0.038754000000000004,0.031408,-0.023004,0.038714,0.003927,0.016796000000000002
228,1.345952,-1.2730299999999999,-2.3925549999999998,0.28598,0.955994,-0.065407,-0.002408,0.055748,-0.014236000000000002,0.04741,-0.006089,0.004906000000000001
229,1.345452,-1.272908,-2.394343,0.286061,0.955958,-0.065576,0.055183,0.06189600000000001,-0.003159,0.048412000000000004,-0.008128,0.016656
230,1.343314,-1.2727540000000002,-2.39847,0.286063,0.9559129999999999,-0.066221,0.06716799999999999,0.108761,-0.011681,0.035638,0.006749,0.032636
231,1.3427149999999999,-1.2727899999999999,-2.402081,0.285989,0.955924,-0.066384,0.04075,0.16000799999999998,-0.017273,0.027181999999999998,0.008493,0.031181999999999998
232,1.343899,-1.2728059999999999,-2.404244,0.286053,0.9559280000000001,-0.06604199999999999,0.03112,0.154711,-0.016265,-0.016034,0.012623,0.016222
233,1.3444610000000001,-1.272781,-2.4062580000000002,0.286112,0.9559209999999999,-0.065886,0.031923,0.10354400000000001,-0.008716,-0.031152999999999997,0.00993,0.007598000000000001
234,1.344222,-1.272623,-2.4080369999999998,0.286244,0.955875,-0.06598899999999999,0.028463,0.054519000000000005,-0.000132,-0.039174,0.005826,0.005686
235,1.343885,-1.272691,-2.409349,0.286159,0.955895,-0.066071,0.018876,0.042894999999999996,-0.015138999999999998,-0.034480000000000004,0.014351,0.006287
236,1.342709,-1.273068,-2.411218,0.28573000000000004,0.9560049999999999,-0.066326,0.034774,0.010915000000000001,-0.023533000000000002,-0.021997,0.006321,0.003551
237,1.338745,-1.273247,-2.414524,0.28529899999999997,0.956058,-0.06741799999999999,0.045035000000000006,-0.067999,-0.011609,-0.030751999999999998,0.011914,0.033346
238,1.335283,-1.2736399999999999,-2.416087,0.284698,0.9561729999999999,-0.06831799999999999,-0.001013,-0.11892,-0.024685,-0.049071,0.016499,0.036427
239,1.333768,-1.274691,-2.414621,0.283616,0.9564799999999999,-0.068513,-0.050141000000000005,-0.158053,-0.052751,-0.05644299999999999,0.01053,0.023347
240,1.33364,-1.276485,-2.410873,0.281938,0.957002,-0.068146,-0.076899,-0.200476,-0.07638500000000001,-0.028658,0.00215,0.01973
241,1.332529,-1.278329,-2.4073450000000003,0.280147,0.957536,-0.06804199999999999,-0.05896900000000001,-0.238919,-0.068733,0.0075569999999999995,0.004836,0.019214
242,1.330094,-1.279756,-2.405009,0.278654,0.957946,-0.068399,-0.033382999999999996,-0.22204899999999997,-0.047211,0.040026,0.006698999999999999,0.028588
243,1.327304,-1.280699,-2.404201,0.27758499999999997,0.958216,-0.068958,-0.010725,-0.14763199999999999,-0.028988,0.052402,0.0071920000000000005,0.023197
244,1.326271,-1.281295,-2.403264,0.27696,0.9583860000000001,-0.069106,-0.025335,-0.062409000000000006,-0.016381,0.041872,0.003833,0.002487
245,1.327033,-1.281634,-2.4018770000000003,0.27669699999999997,0.958483,-0.06881699999999999,-0.003868,-0.024173,-0.006666,0.023275,-0.015734,-0.021317
246,1.324395,-1.2811569999999999,-2.403797,0.276958,0.958347,-0.069658,0.057755999999999995,-0.05114,0.023709,0.010883,-0.020252000000000003,-0.005765999999999999
247,1.319735,-1.279993,-2.407493,0.277711,0.9580139999999999,-0.071225,0.069381,-0.058705999999999994,0.040892000000000005,-0.0012369999999999998,-0.011816,0.021436
248,1.315947,-1.278816,-2.410198,0.27853,0.957676,-0.072561,0.045905,-0.06075,0.039662,-0.005993,0.002285,0.021581
249,1.313373,-1.277965,-2.4117029999999997,0.27913000000000004,0.9574299999999999,-0.07348500000000001,0.024644,-0.05318,0.029889999999999996,-0.006058,0.006406,0.020613
250,1.310845,-1.277242,-2.413219,0.279614,0.9572209999999999,-0.074369,0.032126999999999996,-0.056377,0.023537,0.017505,0.005166,0.007764
251,1.3086280000000001,-1.276648,-2.414536,0.279998,0.9570489999999999,-0.075136,0.027926999999999997,-0.04357,0.021355000000000002,0.015824,0.008069,0.024721
252,1.30712,-1.276251,-2.415676,0.28025100000000003,0.9569340000000001,-0.075657,0.013235,-0.002983,0.007312999999999999,0.015571000000000002,0.008184,0.025241999999999997
253,1.307888,-1.27635,-2.4154619999999998,0.280217,0.9569629999999999,-0.075417,-0.006781000000000001,0.038693,-0.007835,0.000117,0.020544999999999997,0.01133
254,1.308837,-1.276534,-2.415347,0.28012,0.957016,-0.07510599999999999,0.007107,0.036539999999999996,-0.014145,-0.012633,-0.001923,-0.012724
255,1.307556,-1.276614,-2.417092,0.27995,0.957039,-0.075445,0.029391000000000004,0.010891,-0.012888,-0.018277,0.001609,-0.005854
256,1.3059690000000002,-1.276725,-2.418699,0.279727,0.9570719999999999,-0.075861,0.018612,-0.01039,-0.009731,-0.020846,0.019491,0.011193999999999999
257,1.305402,-1.276875,-2.4190139999999998,0.279546,0.9571149999999999,-0.07598200000000001,-0.0016530000000000002,-0.016572999999999997,-0.006642,-0.015355,-0.00248,-0.00225
258,1.3043120000000001,-1.2768620000000002,-2.41945,0.279475,0.957111,-0.07629,0.014178,-0.045429000000000004,0.0031190000000000002,-0.011698,-0.0059240000000000004,-0.000553
259,1.301856,-1.276585,-2.420764,0.279541,0.957031,-0.077046,0.018311,-0.065722,0.012787999999999999,-0.009003,-0.003525,0.0018969999999999998
260,1.3013569999999999,-1.276515,-2.420127,0.279568,0.9570110000000001,-0.077204,-0.019991,-0.043213,0.011424,0.001301,0.017217,0.010584
261,1.302302,-1.27645,-2.418734,0.27970100000000003,0.956992,-0.076956,-0.010212,-0.009137000000000001,0.0061070000000000004,0.002205,0.012246,0.0015480000000000001
262,1.3013569999999999,-1.276338,-2.419491,0.279731,0.95696,-0.077249,0.021769999999999998,-0.016697,0.004204,0.010018,0.006297,-0.001547
263,1.299605,-1.2762120000000001,-2.420839,0.279712,0.956923,-0.077771,0.016426,-0.023053,-9.8e-05,0.004025,0.002809,0.012189
264,1.2991270000000001,-1.276284,-2.421059,0.279607,0.956944,-0.077886,-0.000562,-0.010189,-0.005575,0.004908,0.00526,0.008825
265,1.299164,-1.2764659999999999,-2.4209,0.279443,0.956997,-0.077829,-0.0036509999999999997,-0.005526,-0.009687000000000001,0.0051340000000000005,0.002277,0.008066
266,1.2987540000000002,-1.276565,-2.421214,0.279321,0.957025,-0.077919,0.00486,-0.005577,-0.004286,0.010856000000000001,0.005621,0.013481
267,1.298725,-1.2765799999999998,-2.4212919999999998,0.279304,0.9570299999999999,-0.077923,0.0006259999999999999,0.005077,-0.001125,0.000863,0.0050219999999999996,0.022884
268,1.298627,-1.276626,-2.421528,0.27925500000000003,0.957043,-0.077939,0.002779,0.0050869999999999995,-0.005383,-0.0006900000000000001,0.009891,0.017209000000000002
269,1.298716,-1.276749,-2.421466,0.279148,0.9570790000000001,-0.077882,-0.0046890000000000005,0.004052,-0.006502,0.005719,0.0040880000000000005,0.021272
270,1.299576,-1.2769840000000001,-2.421014,0.278998,0.957147,-0.077581,-0.005612,0.030708999999999997,-0.011883,0.005045,0.00524,0.016745
271,1.300062,-1.2771780000000001,-2.421354,0.278857,0.957203,-0.07739700000000001,0.011501,0.042358,-0.009642,0.005261,0.005779,0.012074
272,1.299453,-1.27721,-2.422668,0.278781,0.9572120000000001,-0.077558,0.021012,0.026329,-0.0052829999999999995,-0.0012699999999999999,-0.00279,0.007047
273,1.299238,-1.277105,-2.423518,0.278861,0.957182,-0.077645,0.009238,0.031268000000000004,0.004672,0.002694,-0.0068650000000000004,0.010048999999999999
274,1.299894,-1.276897,-2.423501,0.279104,0.9571219999999999,-0.077515,0.004946,0.032322000000000004,0.01105,0.009226,0.0039689999999999994,0.015458000000000001
275,1.300174,-1.2765799999999998,-2.423959,0.279418,0.9570299999999999,-0.077519,0.015629,0.038664,0.014321,0.016388999999999997,0.003618,0.015553
276,1.300676,-1.2762639999999998,-2.4245799999999997,0.27974899999999997,0.956938,-0.077459,0.014691999999999998,0.063186,0.010011,0.008124,0.004671,0.013113
277,1.301069,-1.2760690000000001,-2.425677,0.279959,0.956881,-0.077399,0.022256,0.075977,0.001501,-0.003394,0.008451,0.007208
278,1.3011469999999998,-1.276,-2.427151,0.28003,0.9568610000000001,-0.077395,0.01906,0.070687,-0.004924,-0.003464,0.008471,0.009463
279,1.3017450000000002,-1.275983,-2.4277729999999997,0.280091,0.9568559999999999,-0.07723200000000001,0.008295,0.050480000000000004,-0.0039049999999999996,-0.00232,0.009315,0.012656
280,1.302295,-1.2759969999999998,-2.428029,0.280121,0.95686,-0.077074,0.005013,0.034504,-0.001771,-0.001983,0.007114,0.013216
281,1.30325,-1.276068,-2.427911,0.28012800000000004,0.956881,-0.076788,-0.004524,0.049955,-0.005736,-0.008827,0.006498,0.009848
282,1.303765,-1.276235,-2.428369,0.280014,0.95693,-0.076602,0.012522,0.041386,-0.00881,-0.009033,0.0026190000000000002,0.001956
283,1.304015,-1.276329,-2.428771,0.27994600000000003,0.956957,-0.076508,-0.002506,0.025443,-0.004622,-0.005456,0.014967,0.012863999999999999
284,1.305633,-1.2765469999999999,-2.4275990000000003,0.279868,0.9570200000000001,-0.076,-0.025986000000000002,0.022333000000000002,-0.00585,-0.00041900000000000005,0.008144,0.00787
285,1.307309,-1.276779,-2.4262509999999997,0.279781,0.9570870000000001,-0.075473,-0.015350999999999998,0.016961,-0.003632,-0.005092,0.001668,-0.006421
286,1.3076,-1.276714,-2.426211,0.279864,0.957068,-0.075409,0.009067,0.004037,0.010442,-0.032489,-0.00495,0.0020440000000000002
287,1.306676,-1.276281,-2.426612,0.28019499999999997,0.956943,-0.075775,0.010889,-0.049298,0.026545999999999997,-0.037641,0.012218999999999999,0.014176
288,1.3054430000000001,-1.2757479999999999,-2.426026,0.280592,0.956788,-0.076254,-0.010731000000000001,-0.11101300000000001,0.027542,-0.017164,0.024398,0.027731
289,1.305395,-1.2754809999999999,-2.423458,0.280833,0.9567100000000001,-0.076334,-0.041967000000000004,-0.13096,0.021123,0.012135,0.011811,0.02093
290,1.305532,-1.27532,-2.4205810000000003,0.280991,0.956664,-0.076336,-0.035522000000000005,-0.123517,0.019022,0.021774,0.0032670000000000004,0.015285
291,1.306051,-1.275449,-2.417961,0.280911,0.956701,-0.076158,-0.039555,-0.085097,0.005058,0.020481,-0.003454,0.013841
292,1.307041,-1.275736,-2.415728,0.280721,0.956785,-0.075808,-0.033928,-0.03605,-0.010989,0.020671000000000002,-0.0035369999999999998,0.013491
293,1.309281,-1.276054,-2.413624,0.280596,0.9568770000000001,-0.0751,-0.017671,0.034145999999999996,0.002921,0.053572,-0.008314,0.015941999999999998
294,1.310024,-1.275363,-2.414141,0.28129099999999996,0.956676,-0.075062,0.039896,0.06998099999999999,0.049211000000000005,0.058187,-0.018429,0.011158
295,1.307339,-1.273443,-2.4177779999999998,0.282859,0.9561149999999999,-0.076295,0.098094,0.0035670000000000003,0.090295,0.013694999999999999,-0.017456,0.028474
296,1.303025,-1.271228,-2.421548,0.284568,0.955464,-0.078074,0.059552999999999995,-0.037797000000000004,0.078329,-0.033866,0.008998,0.065943
297,1.3036709999999998,-1.270216,-2.4208529999999997,0.285552,0.9551649999999999,-0.07814600000000001,-0.017013,0.016980000000000002,0.027620999999999996,-0.030425,0.027410000000000004,0.0678
298,1.30598,-1.270003,-2.4193119999999997,0.285929,0.955102,-0.07754,-0.010362999999999999,0.052191999999999995,0.007326000000000001,-0.019831,0.026313,0.045191
299,1.30656,-1.269837,-2.4203509999999997,0.28612600000000005,0.955053,-0.077415,0.048554,0.09145700000000001,-0.0062,-0.02897,0.02119,-2.3e-05
300,1.303387,-1.2697260000000001,-2.426132,0.285982,0.9550200000000001,-0.078351,0.10533800000000001,0.128608,-0.021874,-0.03235,0.025677999999999996,0.01167
301,1.300826,-1.270094,-2.431875,0.285441,0.9551290000000001,-0.078989,0.06500800000000001,0.154401,-0.043552999999999994,-0.036067,0.021998,0.047678
302,1.3012190000000001,-1.27114,-2.435021,0.284509,0.9554379999999999,-0.078611,0.025735,0.173816,-0.06949,-0.036554,0.019278,0.051374
303,1.302025,-1.272426,-2.437784,0.283389,0.955817,-0.078056,0.020367,0.167439,-0.068451,-0.030612,0.013071000000000001,0.041892
304,1.30206,-1.273493,-2.440684,0.282409,0.9561299999999999,-0.077775,0.033949,0.12045,-0.051204,-0.033201999999999995,0.010652,0.028352
305,1.3018530000000001,-1.274198,-2.4426349999999997,0.281742,0.9563360000000001,-0.077654,0.008831,0.058151,-0.028758999999999996,-0.042865,0.007439,0.016237
306,1.3038969999999999,-1.274875,-2.441306,0.281276,0.956534,-0.076907,-0.035069,0.031638,-0.020486,-0.043605,0.01481,-2.8000000000000003e-05
307,1.306798,-1.275234,-2.439141,0.28116599999999997,0.9566389999999999,-0.076001,-0.018047,0.048512,0.007384999999999999,-0.01403,0.008495,-0.00252
308,1.3072350000000001,-1.274664,-2.440276,0.28172600000000003,0.956472,-0.076021,0.056714999999999995,0.096069,0.037756,-0.005007999999999999,-0.000814,-0.00688
309,1.304082,-1.273376,-2.4463779999999997,0.282673,0.956096,-0.07723300000000001,0.129511,0.15651400000000001,0.043528,0.000118,3.5e-05,-0.0013189999999999999
310,1.299288,-1.271967,-2.455473,0.283597,0.9556819999999999,-0.078949,0.14901099999999998,0.21506599999999998,0.036112,-0.001721,0.001609,0.004592000000000001
311,1.296605,-1.2706030000000001,-2.463336,0.28464,0.9552790000000001,-0.080062,0.11718800000000001,0.258841,0.039037999999999996,0.000852,0.007123,0.025955000000000002
312,1.296913,-1.269254,-2.4690380000000003,0.285903,0.95488,-0.080323,0.091736,0.302568,0.048419,0.005021,0.011337,0.027787
313,1.299241,-1.267654,-2.473214,0.287561,0.9544030000000001,-0.080067,0.077622,0.324741,0.067565,-0.022333000000000002,0.011082,-0.005886
314,1.301908,-1.266067,-2.477601,0.289234,0.9539280000000001,-0.079702,0.088488,0.35034299999999996,0.049448,-0.024693,0.001532,-0.005625
315,1.3061610000000001,-1.2654610000000002,-2.481912,0.290128,0.9537459999999999,-0.078622,0.042337,0.464737,-0.012977,0.008593,-0.14185599999999998,0.008767
316,1.3173979999999998,-1.26688,-2.482482,0.28968299999999997,0.9541719999999999,-0.075018,-0.018463,0.622941,-0.095858,0.138418,0.044302,-0.088129
317,1.3198159999999999,-1.2676399999999999,-2.491317,0.289161,0.954399,-0.074137,0.25394,0.509946,-0.046808999999999996,0.119103,0.199959,-0.09361799999999999
318,1.309575,-1.26689,-2.506782,0.289079,0.954175,-0.077279,0.16442400000000001,0.127545,0.022491,-0.0533,0.11268900000000001,0.00773
319,1.308391,-1.265347,-2.509346,0.29040900000000003,0.9537120000000001,-0.078003,0.028372,0.052189,0.070775,-0.091434,0.023766,0.06080700000000001
320,1.307533,-1.263548,-2.5125669999999998,0.291998,0.953169,-0.078699,0.052976999999999996,0.081871,0.085864,-0.061329999999999996,-0.036879,0.019190000000000002
321,1.31064,-1.26115,-2.509847,0.294448,0.952441,-0.07837899999999999,-0.035264,-0.0023239999999999997,0.14836300000000002,-0.022734,-0.043246,0.003824
322,1.3136139999999998,-1.258405,-2.506053,0.297207,0.951601,-0.078167,-0.007622,-0.036458,0.13578199999999999,-0.045452,-0.042086,0.019436000000000002
323,1.315356,-1.2569290000000002,-2.504397,0.298701,0.951147,-0.07800399999999999,-0.0005059999999999999,0.042669,0.055613,-0.031412999999999996,-0.021490000000000002,0.033951999999999996
324,1.317181,-1.2565030000000001,-2.504476,0.299235,0.9510149999999999,-0.077561,0.012833,0.12161500000000001,0.015013,-0.006831,0.024586,0.019806
325,1.319632,-1.2562389999999999,-2.504966,0.299667,0.950933,-0.076889,0.009795,0.158907,0.016012000000000002,0.011765000000000001,0.032236,0.012482
326,1.322001,-1.255728,-2.505988,0.300319,0.950775,-0.076299,0.031142000000000003,0.170512,0.02576,-0.003582,0.03154,0.003636
327,1.3236860000000001,-1.2555209999999999,-2.507951,0.300639,0.9507110000000001,-0.07584099999999999,0.027105,0.18770699999999998,-0.008473,-0.0074719999999999995,0.021762,0.019811000000000002
328,1.328198,-1.256315,-2.508083,0.300247,0.9509569999999999,-0.074303,-0.024616,0.26371500000000003,-0.057002,0.009323999999999999,0.018999000000000002,0.023490999999999998
329,1.335587,-1.25824,-2.506802,0.299006,0.95155,-0.071655,-0.041225,0.32147800000000004,-0.10205700000000001,0.035054,-0.003522,0.013535
330,1.34304,-1.260393,-2.5059270000000002,0.297535,0.95221,-0.068962,-0.030504000000000003,0.337403,-0.09773,0.042858,-0.021851,-0.007195
331,1.34849,-1.2620209999999998,-2.507038,0.29639499999999996,0.9527059999999999,-0.066998,0.015136000000000002,0.313692,-0.068539,0.060569000000000005,-0.038171,-0.011158
332,1.352134,-1.2627540000000002,-2.509733,0.295954,0.9529290000000001,-0.065765,0.042736,0.316654,-0.034166,0.054388,-0.012652,0.005905
333,1.3560510000000001,-1.262843,-2.512783,0.296126,0.9529559999999999,-0.06458799999999999,0.044898,0.349563,-0.007488,0.046022,-0.001098,0.008923
334,1.360148,-1.262265,-2.515988,0.296927,0.952781,-0.063489,0.056527999999999995,0.357917,0.024628999999999998,0.03425,0.002893,0.0057350000000000005
335,1.363723,-1.2610139999999999,-2.519666,0.29831799999999997,0.9524,-0.062672,0.075612,0.35031599999999996,0.044,0.027915,-0.0026320000000000002,0.016331000000000002
336,1.3667719999999999,-1.259785,-2.523962,0.299655,0.952024,-0.061999,0.05751799999999999,0.361028,0.044927999999999996,0.015561000000000002,0.0038619999999999995,0.028079000000000003
337,1.372384,-1.259053,-2.526694,0.300681,0.9518,-0.060453999999999994,0.04457,0.538021,0.016837,0.013466999999999998,0.017118,0.049071
338,1.382227,-1.2583440000000001,-2.5276560000000003,0.30192399999999997,0.951583,-0.057617999999999996,0.021012,0.5369649999999999,0.034834,0.024218,-0.016890000000000002,0.019242
339,1.390868,-1.256848,-2.529322,0.303811,0.9511219999999999,-0.055262,0.055763,0.49081400000000003,0.090683,0.016028,-0.031505,0.014841
340,1.396347,-1.25432,-2.53357,0.306476,0.9503379999999999,-0.054014,0.103566,0.473487,0.119881,0.002667,-0.030538,0.022153
341,1.401632,-1.251776,-2.538143,0.30914,0.949543,-0.0528,0.096218,0.47998599999999997,0.099526,-0.037457,0.0051990000000000005,0.052693
342,1.406413,-1.2501229999999999,-2.543488,0.31093699999999996,0.949023,-0.051578,0.10506900000000001,0.497213,0.046154,-0.045816,0.012768999999999999,0.0508
343,1.409311,-1.2495610000000001,-2.550796,0.311611,0.948846,-0.050763,0.126565,0.474998,-0.011351,-0.045437,0.020102000000000002,0.042752
344,1.412614,-1.250138,-2.5572939999999997,0.311237,0.9490280000000001,-0.049647000000000004,0.071438,0.500967,-0.064112,-0.019321,0.024879,0.033915
345,1.420234,-1.25159,-2.55958,0.310243,0.949485,-0.047067000000000005,0.007359,0.47460600000000003,-0.076277,0.002852,0.009393,0.019708
346,1.428293,-1.252899,-2.5605740000000003,0.309381,0.949895,-0.044389,0.016707,0.43827299999999997,-0.055869,0.016196000000000002,0.000819,0.005219
347,1.433871,-1.253894,-2.563787,0.308687,0.950205,-0.042533,0.073188,0.434837,-0.044787,0.036269,0.004446,0.009925
348,1.435288,-1.254789,-2.571455,0.30790300000000004,0.950484,-0.041981,0.12463199999999999,0.461392,-0.070099,0.036488,0.00609,0.016804
349,1.4376,-1.256321,-2.579485,0.306555,0.950959,-0.041075,0.116399,0.49776400000000004,-0.10118200000000001,0.033257999999999996,-0.003403,0.021697
350,1.4398540000000002,-1.258052,-2.587613,0.305014,0.951493,-0.040168999999999996,0.104717,0.499974,-0.11087999999999999,0.039286,-0.009431,0.0071189999999999995
351,1.444806,-1.259989,-2.593048,0.30338000000000004,0.9520870000000001,-0.038426,0.052426,0.502266,-0.10590799999999999,0.036647000000000006,-0.008209000000000001,0.001912
352,1.4497229999999999,-1.26163,-2.59757,0.302014,0.9525879999999999,-0.036746,0.06693500000000001,0.42756400000000006,-0.085414,0.019306,0.001987,-0.005414
353,1.452599,-1.2625,-2.602489,0.301295,0.952852,-0.035779000000000005,0.065312,0.35280300000000003,-0.036192,-0.004161,0.029448000000000002,-0.003985
354,1.456321,-1.262386,-2.6053029999999997,0.301535,0.952817,-0.03467,0.036066,0.301584,0.010672,-0.020697,0.014238999999999998,-0.012831
355,1.459907,-1.2617530000000001,-2.607181,0.302257,0.952625,-0.033655000000000004,0.027224,0.250413,0.027767,-0.021785,-0.008289,-0.021551
356,1.46217,-1.260976,-2.609557,0.30306700000000003,0.9523879999999999,-0.033051,0.050523,0.217286,0.033313,-0.014203,-0.021999,-0.022735
357,1.462719,-1.260106,-2.61361,0.30390900000000004,0.9521229999999999,-0.032974,0.072937,0.226766,0.040935,-0.005142,-0.007817000000000001,-0.010986
358,1.462587,-1.259132,-2.618799,0.304827,0.951824,-0.033115,0.084758,0.250143,0.045261,0.0007610000000000001,0.016025,-0.004346
359,1.462784,-1.258138,-2.62394,0.305774,0.951519,-0.033156,0.073071,0.257654,0.041964999999999995,-0.005725,0.0018039999999999998,-0.002885
360,1.464661,-1.257261,-2.627389,0.306665,0.951249,-0.032671,0.049618999999999996,0.257753,0.037528,-0.010568000000000001,-0.005677000000000001,-0.006743000000000001
361,1.4664190000000001,-1.256314,-2.63056,0.30761700000000003,0.9509569999999999,-0.032225,0.055804,0.22146500000000002,0.049368,-0.02121,0.0011,-0.000429
362,1.466805,-1.255061,-2.633818,0.308814,0.9505680000000001,-0.03223,0.054373000000000005,0.14899600000000002,0.057997,-0.039481,0.022271,0.010181
363,1.467627,-1.254046,-2.635738,0.3098,0.950253,-0.032076,0.020263999999999997,0.12353800000000001,0.039532,-0.045594,0.030948000000000003,0.013216
364,1.469734,-1.253617,-2.636,0.310272,0.950119,-0.031464,0.004319,0.11091300000000001,0.013799,-0.039337000000000004,0.027282999999999998,0.007523
365,1.469714,-1.253365,-2.6379200000000003,0.31050900000000003,0.95004,-0.031494,0.046849,0.075623,0.010937,-0.036965,0.019579,0.003571
366,1.4665979999999998,-1.2531510000000001,-2.641942,0.310611,0.949974,-0.032483,0.067861,0.005232,0.013309999999999999,-0.036989999999999995,-0.012687,0.011136
367,1.463095,-1.253132,-2.644989,0.310514,0.949968,-0.033573,0.036763,-0.04785,-0.004999,-0.016416,0.020552,0.037097000000000005
368,1.460237,-1.253403,-2.646355,0.310161,0.950052,-0.034432,0.008851999999999999,-0.097774,-0.016880000000000003,-0.010112999999999999,0.054525,0.042427
369,1.459376,-1.253839,-2.644336,0.309719,0.9501879999999999,-0.034652999999999996,-0.065116,-0.164675,-0.005561,-0.025341,0.062446,0.020645
370,1.4622,-1.25401,-2.636988,0.309655,0.950241,-0.033760000000000005,-0.130626,-0.243346,0.011174,-0.044518,0.013198,-0.014641
371,1.461645,-1.253798,-2.630564,0.309837,0.950175,-0.033954000000000005,-0.072629,-0.37147600000000003,0.035244,-0.033195,-0.018747999999999997,-0.01611
372,1.460452,-1.253307,-2.62433,0.310259,0.9500219999999999,-0.034375,-0.09600399999999999,-0.35115,0.033987,-0.028292,-0.027277999999999997,0.011395
373,1.4586940000000002,-1.2529649999999999,-2.6188689999999997,0.310521,0.949915,-0.034957,-0.07248099999999999,-0.343758,0.029869,-0.013859999999999999,-0.013803999999999999,0.027326999999999997
374,1.456516,-1.252645,-2.614268,0.310748,0.949815,-0.035668,-0.071279,-0.313934,0.029838999999999997,-0.016452,0.006468000000000001,0.043007
375,1.4541600000000001,-1.252332,-2.610357,0.310958,0.949717,-0.036433999999999994,-0.054109000000000004,-0.297989,0.023528999999999998,-0.020675,0.012563,0.040112
376,1.453547,-1.252141,-2.605378,0.311116,0.949658,-0.036646,-0.0923,-0.254162,0.018933000000000002,-0.008916,0.002445,0.016932
377,1.4547139999999998,-1.2521010000000001,-2.599169,0.311195,0.9496450000000001,-0.036287,-0.093171,-0.218971,0.010336,0.024941,0.007951,0.035265
378,1.457608,-1.252139,-2.592552,0.311263,0.949657,-0.035383,-0.106714,-0.14224,0.014416,0.037523,-0.020412,0.040708
379,1.461755,-1.251986,-2.586304,0.311551,0.949609,-0.034107,-0.072248,-0.061434,0.023099,0.021411000000000003,-0.024255000000000002,0.023150999999999998
380,1.462496,-1.251649,-2.5850560000000002,0.311894,0.9495030000000001,-0.033911000000000004,0.015508000000000001,-0.003141,0.021501,0.002849,0.013036,0.007437
381,1.460876,-1.2509430000000001,-2.586966,0.31250500000000003,0.949282,-0.03449,0.035744,0.007368,0.039789,-6.6e-05,0.021284,0.015141
382,1.46024,-1.2497479999999999,-2.5873630000000003,0.31361100000000003,0.9489049999999999,-0.034814,0.006698999999999999,-0.028818,0.056724000000000004,-0.015729,0.002252,0.03222
383,1.461074,-1.248713,-2.585676,0.314616,0.948578,-0.03466,-0.028512,-0.045676,0.040476,-0.040293999999999996,-0.002136,0.019447
384,1.461848,-1.2483549999999999,-2.583776,0.31498000000000004,0.948465,-0.034453,-0.023086000000000002,-0.055162,0.010616,-0.039833999999999994,0.018683,0.013671
385,1.4625620000000001,-1.2483950000000001,-2.581896,0.314967,0.948477,-0.034224,-0.032621,-0.052947,-0.0022719999999999997,-0.017848,0.038446,0.012251
386,1.463776,-1.248427,-2.5795,0.314979,0.9484870000000001,-0.033838,-0.033741,-0.054051,0.008404,-0.006141,0.01155,0.0057469999999999995
387,1.463566,-1.2482600000000001,-2.578255,0.31513,0.948434,-0.033921,-0.009366,-0.082929,0.016087999999999998,-0.0014550000000000001,0.010031,0.004991
388,1.462623,-1.2481870000000002,-2.5771330000000003,0.315166,0.948411,-0.034226,-0.023297,-0.106278,0.0064069999999999995,-0.0061600000000000005,0.015913999999999998,-0.001693
389,1.462465,-1.248564,-2.575148,0.314804,0.9485309999999999,-0.034237000000000004,-0.031664,-0.097611,-0.022504,-0.003189,0.001558,0.0018280000000000002
390,1.462206,-1.249316,-2.573722,0.314085,0.9487690000000001,-0.034241,-0.021871,-0.068827,-0.03636,0.006502,-0.004326,0.003098
391,1.461316,-1.2498,-2.573407,0.31359899999999996,0.9489219999999999,-0.034470999999999995,0.002614,-0.05835,-0.01377,0.018112,-0.0074849999999999995,0.011293000000000001
392,1.459171,-1.249841,-2.574284,0.313486,0.948934,-0.035139,0.017435,-0.068053,0.00237,-0.005091,-6e-06,0.015928
393,1.457841,-1.249867,-2.574398,0.31341399999999997,0.948943,-0.035552999999999994,-0.010206999999999999,-0.053016999999999995,-0.004252000000000001,-0.009245,0.007905,0.02005
394,1.458647,-1.25014,-2.572889,0.313185,0.9490290000000001,-0.035271,-0.031362,-0.018828,-0.010853,-0.010588,0.017294999999999998,0.022363
395,1.4608430000000001,-1.2502440000000001,-2.570416,0.313164,0.9490620000000001,-0.034573,-0.03883,-0.00607,0.0018969999999999998,0.013054,-0.002345,0.004956
396,1.462121,-1.250075,-2.56886,0.313367,0.949008,-0.03419,-0.006911,-0.013686000000000002,0.013880000000000002,0.00954,-0.005954,0.001536
397,1.460977,-1.249789,-2.5696849999999998,0.31359699999999996,0.948918,-0.034578,0.020837,-0.013774000000000002,0.011937999999999999,0.004061,-0.002919,0.001085
398,1.4605540000000001,-1.249614,-2.570221,0.313746,0.9488629999999999,-0.034729,0.008179,0.016107,0.009675,0.001668,0.01119,0.01825
399,1.461151,-1.249396,-2.570459,0.313974,0.948794,-0.034564,0.009413,0.054448,0.010703,-0.003045,0.009031,0.02045
400,1.461151,-1.2492450000000002,-2.571873,0.314117,0.9487459999999999,-0.03458,0.034071,0.069323,-0.000895,-0.011703,0.010498,0.021534
401,1.4606940000000002,-1.24942,-2.573807,0.31393699999999997,0.948802,-0.034706,0.017072999999999998,0.067324,-0.019171,-0.020586,0.014776,0.011009
402,1.462228,-1.249903,-2.573465,0.313535,0.9489540000000001,-0.034174,-0.017095,0.056808000000000004,-0.023669,-0.009778,0.020651,0.000239
403,1.465052,-1.250437,-2.571713,0.313127,0.9491219999999999,-0.033235,-0.033103,0.057921,-0.021646000000000002,0.012831,0.006765,-0.0026379999999999997
404,1.468711,-1.2509860000000002,-2.569324,0.312729,0.9492950000000001,-0.032036,-0.041513,0.080343,-0.027074,0.016632,0.002441,-0.0038060000000000004
405,1.4723959999999998,-1.2520950000000002,-2.56757,0.311796,0.949643,-0.030780000000000002,-0.024108,0.11771600000000002,-0.064388,0.01816,0.0019100000000000002,-0.013852000000000001
406,1.4757129999999998,-1.253657,-2.567253,0.31042,0.950131,-0.029605000000000003,-0.00465,0.163498,-0.07499299999999999,0.032873,0.0013,-0.037366
407,1.4777120000000001,-1.254677,-2.568392,0.30951300000000004,0.950449,-0.028894,0.023882,0.140874,-0.036308999999999994,0.039135,-0.008798,-0.036413
408,1.478265,-1.254656,-2.570595,0.30954699999999996,0.950442,-0.028725,0.037473,0.12784600000000002,0.012941,0.012795,-0.011004,-0.00634
409,1.477711,-1.253719,-2.573582,0.310417,0.950151,-0.028979,0.056402999999999995,0.108438,0.054759,-0.008034,0.002852,0.0067469999999999995
410,1.476257,-1.252176,-2.577315,0.31183299999999997,0.9496680000000001,-0.029568999999999998,0.062704,0.10620399999999999,0.075102,-0.020177,-0.004753,0.024059999999999998
411,1.475233,-1.250375,-2.580752,0.31350500000000003,0.949103,-0.030050999999999998,0.058464999999999996,0.118976,0.081465,-0.019392,-0.01589,0.033484
412,1.474261,-1.2484870000000001,-2.5844869999999998,0.315258,0.948506,-0.030527999999999996,0.072377,0.13806400000000002,0.091152,-0.017131,0.0036119999999999998,0.044978
413,1.47348,-1.246515,-2.5885540000000002,0.31709499999999996,0.94788,-0.030956,0.072483,0.164683,0.094323,-0.0041979999999999995,0.023144,0.049404
414,1.474161,-1.2444870000000001,-2.591704,0.31902800000000003,0.947232,-0.030926,0.056624,0.194273,0.101588,-0.005857,0.012912,0.044979000000000005
415,1.475457,-1.2423799999999998,-2.5947139999999997,0.32105500000000003,0.9465540000000001,-0.030701999999999997,0.067374,0.21234499999999998,0.10164,-0.015009,0.00020800000000000001,0.04088
416,1.47605,-1.240314,-2.598783,0.32302,0.945886,-0.030697000000000002,0.083459,0.22191100000000002,0.093194,-0.030341000000000003,0.005255,0.042660000000000003
417,1.477432,-1.238659,-2.602392,0.32461999999999996,0.945348,-0.030396,0.058079,0.245542,0.06628099999999999,-0.048451,0.012858000000000001,0.034638
418,1.4801870000000001,-1.237774,-2.604741,0.325536,0.945059,-0.029577999999999997,0.044373,0.243614,0.027732,-0.047216,0.014169999999999999,0.02056
419,1.482702,-1.237638,-2.607155,0.325738,0.9450139999999999,-0.02877,0.040235,0.236317,-0.008607,-0.027596,0.010033,0.016624
420,1.485746,-1.238235,-2.6089830000000003,0.32526,0.945209,-0.02773,0.022266,0.24289499999999997,-0.03972,0.0014449999999999999,0.013744999999999999,0.011525
421,1.4903469999999999,-1.239257,-2.6096220000000003,0.324421,0.945543,-0.026156,0.007498,0.269622,-0.050539,0.016918,0.022918,-0.0012640000000000001
422,1.494225,-1.2402090000000001,-2.611513,0.323623,0.945852,-0.024829,0.045933999999999996,0.28755,-0.038543,0.02472,0.030253,-0.012631
423,1.495369,-1.240604,-2.616319,0.323278,0.9459799999999999,-0.02443,0.090598,0.281961,-0.011519,0.015375,0.033313999999999996,-0.012648999999999999
424,1.49553,-1.240483,-2.621943,0.323396,0.945941,-0.024387,0.087263,0.268059,0.004499,-0.0018629999999999999,0.017789,-0.006924
425,1.496133,-1.240245,-2.626782,0.32363400000000003,0.9458639999999999,-0.024208,0.074408,0.254264,0.002291,-0.025569,-0.010881,-0.000831
426,1.496317,-1.240117,-2.631575,0.323759,0.9458219999999999,-0.024158000000000002,0.078575,0.22445199999999998,-0.00512,-0.040159,-0.018179,0.008045
427,1.496317,-1.240333,-2.635956,0.32355500000000004,0.945892,-0.024143,0.061486,0.20009100000000002,-0.025504,-0.044273,-0.011276000000000001,0.02277
428,1.4974290000000001,-1.241069,-2.638986,0.322887,0.9461309999999999,-0.023732,0.038116000000000004,0.20026300000000002,-0.0481,-0.037472000000000005,0.022055,0.019444
429,1.499427,-1.242016,-2.641004,0.32204,0.9464370000000001,-0.023023,0.023108,0.18858,-0.043917000000000005,-0.01781,0.026432999999999998,0.002637
430,1.501592,-1.2425329999999999,-2.642191,0.321601,0.9466040000000001,-0.022292,0.016375999999999998,0.149051,-0.009729999999999999,-0.001335,0.018805000000000002,0.004759
431,1.502946,-1.2425,-2.643418,0.321662,0.946593,-0.021858000000000002,0.023619,0.118056,0.009588,0.005059,0.003114,0.009895999999999999
432,1.504099,-1.2424389999999998,-2.644909,0.321743,0.946573,-0.021491,0.022734,0.146869,-0.002206,0.018787,0.0027370000000000003,0.007758
433,1.5071620000000001,-1.242933,-2.6459759999999997,0.32134,0.946733,-0.020475999999999998,0.016888999999999998,0.235449,-0.037611,0.028895,0.011229000000000001,-0.0009019999999999999
434,1.511528,-1.243937,-2.647406,0.32047800000000004,0.947055,-0.019015999999999998,0.01944,0.311143,-0.054782000000000004,0.034808,-0.010256999999999999,-0.016491
435,1.5158719999999999,-1.244919,-2.649509,0.319629,0.94737,-0.017573,0.039672000000000006,0.31103800000000004,-0.046095,0.027661,-0.017957,-0.024602000000000002
436,1.517499,-1.245536,-2.653716,0.319073,0.9475680000000001,-0.017022,0.076734,0.269281,-0.025486,0.017551,-0.009595000000000001,-0.026115
437,1.518233,-1.24558,-2.658525,0.31904299999999997,0.9475819999999999,-0.016784999999999998,0.0766,0.26067399999999996,-0.004111999999999999,-0.033582,0.0033759999999999997,0.019288
438,1.519001,-1.245158,-2.6631650000000002,0.319456,0.9474469999999999,-0.016561000000000003,0.074303,0.258415,0.030057999999999998,-0.033993999999999996,0.003512,0.019063999999999998
439,1.5197370000000001,-1.244126,-2.668052,0.320444,0.947116,-0.016375999999999998,0.083914,0.276427,0.046126,-0.046579,0.022305000000000002,0.037341
440,1.52015,-1.2431590000000001,-2.673727,0.321365,0.9468049999999999,-0.01629,0.091502,0.298788,0.041877,-0.036529,0.010790000000000001,0.045251
441,1.521024,-1.2423110000000002,-2.6791099999999997,0.322182,0.9465319999999999,-0.016049,0.083001,0.29990900000000004,0.035407,-0.031197000000000003,0.011979,0.046612
442,1.523436,-1.241795,-2.683234,0.322708,0.946366,-0.015295,0.059726,0.32563000000000003,0.017052,-0.028258999999999996,0.015747,0.047125
443,1.5280209999999999,-1.241845,-2.685942,0.322728,0.946382,-0.013812999999999999,0.044039999999999996,0.377956,-0.001285,-0.011861,0.005584,0.046482
444,1.533626,-1.241983,-2.68903,0.322671,0.946426,-0.011999,0.06149299999999999,0.454629,-0.009807,-0.007943,0.008026,0.042196
445,1.538725,-1.242428,-2.6942880000000002,0.322307,0.94657,-0.01034,0.10354200000000001,0.530207,-0.032043,-0.003887,0.010706,0.034388
446,1.542018,-1.243175,-2.702813,0.321633,0.94681,-0.009259,0.165674,0.583267,-0.034881,0.018837,-0.001269,0.002881
447,1.542814,-1.243372,-2.714242,0.321454,0.946874,-0.008997,0.189996,0.5681350000000001,-0.001577,0.015933000000000003,0.0012619999999999999,0.004496
448,1.543145,-1.242928,-2.7250810000000003,0.321878,0.946731,-0.008903,0.166098,0.500995,0.026116000000000004,-0.006645999999999999,0.018906,0.020484
449,1.544538,-1.242248,-2.733126,0.322533,0.9465120000000001,-0.008471,0.11024300000000001,0.42446000000000006,0.033301,-0.052513,0.032614,0.023425
450,1.548111,-1.241441,-2.737357,0.323324,0.9462510000000001,-0.007336,0.051200999999999997,0.351132,0.04046,-0.075018,0.018227,0.00082
451,1.5520690000000001,-1.240549,-2.739687,0.324194,0.9459620000000001,-0.006072,0.037038999999999996,0.285138,0.039377999999999996,-0.05310700000000001,0.0064150000000000006,-0.011506
452,1.554382,-1.239575,-2.7426009999999996,0.32512800000000003,0.9456459999999999,-0.005337,0.058113,0.244511,0.057737000000000004,-0.001397,0.008334000000000001,0.004925
453,1.555821,-1.2383170000000001,-2.746433,0.326324,0.9452360000000001,-0.004887,0.060351999999999996,0.27218400000000004,0.061989999999999996,-0.007415000000000001,0.014115,0.005268999999999999
454,1.559999,-1.237584,-2.748809,0.327034,0.944997,-0.0035310000000000003,0.025606,0.35123000000000004,0.038145,-0.01728,0.040293999999999996,0.003959000000000001
455,1.566408,-1.237039,-2.750195,0.32756399999999997,0.944818,-0.001437,0.026956,0.407711,0.031673,-0.0019260000000000002,-0.0035340000000000002,0.00217
456,1.572239,-1.236273,-2.75326,0.32829,0.944567,0.00047400000000000003,0.07086,0.456509,0.044736,0.014636000000000001,-0.037783,-0.017777
457,1.575791,-1.2357209999999998,-2.7601419999999997,0.328809,0.944385,0.0016420000000000002,0.132107,0.522466,0.0141,0.001468,-0.033115,-0.028269
458,1.578516,-1.236458,-2.768427,0.328106,0.944628,0.0025329999999999997,0.139132,0.571804,-0.075644,0.033375,-0.101046,-0.0026089999999999998
459,1.583358,-1.239471,-2.779477,0.32524200000000003,0.9456120000000001,0.004086,0.21779600000000002,0.875566,-0.183375,0.135452,-0.012263,-0.017544
460,1.584051,-1.242742,-2.798796,0.32214499999999996,0.9466709999999999,0.00427,0.343695,0.938795,-0.120619,0.151854,0.063842,-0.052365999999999996
461,1.579976,-1.2435180000000001,-2.818972,0.321424,0.9469209999999999,0.002951,0.316849,0.792424,0.009704,0.07886,0.023400999999999998,0.06994
462,1.578534,-1.242264,-2.834429,0.322615,0.946517,0.002496,0.20572100000000001,0.5805640000000001,0.073292,-0.001082,0.027116,0.026648
463,1.5801290000000001,-1.240583,-2.844948,0.324201,0.945973,0.003026,0.152358,0.578612,0.075059,-0.0017059999999999998,0.010448,0.012767
464,1.58475,-1.238767,-2.852618,0.3259,0.945383,0.004548,0.104378,0.603208,0.092852,-0.000156,0.000983,-0.000779
465,1.591307,-1.23662,-2.858393,0.327893,0.944681,0.006726,0.101105,0.594392,0.108796,-0.018307,-0.022668999999999998,-0.012981999999999999
466,1.595172,-1.234507,-2.86639,0.329861,0.9439850000000001,0.008042,0.152114,0.546289,0.10600899999999999,-0.053219,-0.012513,-0.018708000000000002
467,1.596032,-1.232832,-2.876395,0.331433,0.9434319999999999,0.008366,0.154204,0.504864,0.07403,-0.09155,0.0054210000000000005,-0.007984
468,1.599134,-1.2321879999999998,-2.883476,0.332013,0.943218,0.009411,0.095694,0.482937,0.013829,-0.076276,0.036824,0.002994
469,1.604184,-1.232317,-2.888202,0.33184,0.943261,0.011082999999999999,0.073338,0.47457,-0.0055439999999999994,-0.029518,0.022758,-0.0017760000000000002
470,1.6090520000000001,-1.232436,-2.893207,0.331671,0.9433,0.012695,0.085074,0.48513900000000004,0.005207,-0.008856000000000001,0.018049000000000003,-0.006194
471,1.613312,-1.232728,-2.898978,0.331339,0.9433969999999999,0.014096000000000001,0.10007200000000001,0.48408100000000004,-0.009642,-0.019586000000000003,0.034386,-0.005139
472,1.6163129999999999,-1.233465,-2.905801,0.3306,0.943641,0.015058000000000002,0.12351400000000001,0.455326,-0.031875,-0.04401,0.017601,-0.00514
473,1.616434,-1.234536,-2.913954,0.329588,0.943995,0.015052000000000001,0.132713,0.349896,-0.047699,-0.06117,0.012806999999999999,0.0007559999999999999
474,1.616934,-1.2356209999999999,-2.919606,0.328556,0.9443530000000001,0.01517,0.070385,0.25209899999999996,-0.045872,-0.071979,0.017958000000000002,-0.009036
475,1.6171659999999999,-1.2362739999999999,-2.922966,0.327936,0.944567,0.015216999999999998,0.045099,0.12101700000000001,-0.010629000000000001,-0.06492,0.024946,-0.009678
476,1.616264,-1.235969,-2.9248220000000003,0.32823800000000003,0.9444670000000001,0.014934000000000001,0.016565,-0.00267,0.042741,-0.078086,0.020377000000000003,0.018879
477,1.61527,-1.234831,-2.924732,0.329326,0.944092,0.014656,-0.016949000000000002,-0.07933899999999999,0.06396900000000001,-0.082454,0.015685,0.022789
478,1.614767,-1.2335200000000002,-2.922695,0.330568,0.94366,0.014544999999999999,-0.04609,-0.148502,0.06919600000000001,-0.08090399999999999,0.013706999999999999,0.029827999999999997
479,1.614044,-1.2323629999999999,-2.919486,0.331669,0.943276,0.014353,-0.070877,-0.204871,0.068026,-0.091847,0.012168,0.04096
480,1.614223,-1.230964,-2.9141880000000002,0.332986,0.94281,0.014469999999999998,-0.099936,-0.265473,0.063628,-0.093163,0.012634000000000001,0.040844
481,1.614506,-1.229942,-2.907258,0.333944,0.942469,0.014606000000000001,-0.126919,-0.34523200000000004,0.052860000000000004,-0.099325,0.036687,0.019391
482,1.615615,-1.229096,-2.897924,0.334723,0.9421860000000001,0.015012000000000001,-0.168733,-0.404686,0.038757,-0.08655399999999999,0.034758,0.022219
483,1.616814,-1.2283979999999999,-2.887346,0.335363,0.941952,0.015444,-0.17745999999999998,-0.458938,0.027014999999999997,-0.07474199999999999,0.02547,0.017225999999999998
484,1.617625,-1.228024,-2.87608,0.335701,0.941826,0.015732,-0.194702,-0.514204,0.009873999999999999,-0.051200999999999997,0.022407,-0.006806
485,1.618378,-1.228089,-2.863804,0.335629,0.9418479999999999,0.015982,-0.21079099999999998,-0.552421,-0.009417,-0.009091,-0.000183,-0.006933
486,1.619951,-1.2282899999999999,-2.850588,0.335414,0.941916,0.016501,-0.228818,-0.529978,-0.011709,0.02332,-0.006705,-0.000921
487,1.62311,-1.228499,-2.836616,0.33516399999999996,0.9419860000000001,0.01755,-0.229645,-0.48307700000000003,-0.018184,0.034739,0.005386,-0.017214
488,1.625243,-1.228831,-2.8245139999999997,0.334812,0.942098,0.018248,-0.18043,-0.455539,-0.02108,0.04417,-0.004018,-0.040525
489,1.623271,-1.229011,-2.816738,0.334679,0.9421579999999999,0.017578,-0.102693,-0.473976,-0.006626000000000001,0.060036,-0.019703000000000002,-0.031143
490,1.617486,-1.228637,-2.812433,0.33512600000000003,0.942032,0.015658000000000002,-0.061387,-0.5040979999999999,0.031088,0.06592100000000001,-0.007935,-0.000384
491,1.6106479999999999,-1.227381,-2.808698,0.336407,0.9416100000000001,0.013413999999999999,-0.074425,-0.516994,0.070538,0.036929000000000003,0.003611,0.026793
492,1.605789,-1.225686,-2.803249,0.338063,0.9410379999999999,0.011835,-0.11060199999999999,-0.48813500000000004,0.077726,-0.012943999999999999,0.017855000000000003,0.031561
493,1.60337,-1.2242,-2.7957110000000003,0.339489,0.940534,0.011062,-0.145602,-0.463426,0.056085,-0.044247,0.021456,0.024369
494,1.602799,-1.2231450000000001,-2.786705,0.340487,0.940175,0.0109,-0.153998,-0.449479,0.038917,-0.038377999999999995,0.006220000000000001,0.024745
495,1.602134,-1.2222,-2.777961,0.341381,0.939853,0.010702,-0.1401,-0.444197,0.037939,-0.031185,-0.000583,0.029077999999999996
496,1.5999729999999999,-1.2213829999999999,-2.770838,0.342171,0.939574,0.009986,-0.108109,-0.44750500000000004,0.038167,-0.025856999999999998,-0.0007,0.030037
497,1.5960889999999999,-1.22053,-2.765018,0.343008,0.9392809999999999,0.008676999999999999,-0.099766,-0.48165699999999995,0.046814999999999996,-0.037451,0.008076,0.038472000000000006
498,1.5924260000000001,-1.219655,-2.757978,0.343859,0.938981,0.007439,-0.133035,-0.533706,0.038103,-0.072863,0.024703,0.034355000000000004
499,1.58976,-1.2191809999999998,-2.748691,0.344323,0.938818,0.006529999999999999,-0.167371,-0.599543,0.015515000000000001,-0.082192,0.052240999999999996,0.022109999999999998
500,1.586011,-1.2189290000000002,-2.73831,0.344582,0.938731,0.005243,-0.183887,-0.7208979999999999,0.008078,-0.081688,0.036413,0.018941999999999997
501,1.5814620000000001,-1.218782,-2.726435,0.34474,0.93868,0.003677,-0.21209499999999998,-0.826258,0.006948,-0.081053,0.007441,0.027817
502,1.576011,-1.218979,-2.7136080000000002,0.34457,0.9387479999999999,0.001797,-0.218736,-0.8954139999999999,-0.009033,-0.076137,0.009815,0.043751
503,1.570638,-1.21963,-2.699967,0.343964,0.9389719999999999,-5.4000000000000005e-05,-0.247493,-0.9143680000000001,-0.03912,-0.058899,0.014672,0.050882
504,1.565877,-1.2207620000000001,-2.684913,0.342897,0.9393610000000001,-0.0016870000000000001,-0.268993,-0.962184,-0.050960000000000005,-0.050539,0.022889,0.031915
505,1.562317,-1.221992,-2.6679470000000003,0.341733,0.939782,-0.002898,-0.298937,-0.984424,-0.05755,-0.051694000000000004,0.01934,0.011549
506,1.558068,-1.2232379999999998,-2.6509720000000003,0.340547,0.940207,-0.004335,-0.272491,-1.0314020000000002,-0.0541,-0.029375,0.0033350000000000003,-0.000472
507,1.551291,-1.224324,-2.635792,0.339489,0.940576,-0.006623,-0.256632,-1.05705,-0.047547000000000006,-0.012799,-0.00271,-0.004211
508,1.5442930000000001,-1.2253530000000001,-2.621257,0.338467,0.940925,-0.008973,-0.235127,-1.014535,-0.04211,0.035068,-0.0029980000000000002,-0.0043630000000000006
509,1.53751,-1.226464,-2.6079,0.337354,0.941301,-0.011234000000000001,-0.225161,-0.9431579999999999,-0.051746,0.06694299999999999,-0.002687,-0.006924
510,1.530797,-1.2274459999999998,-2.595426,0.336347,0.941632,-0.013461,-0.202762,-0.917776,-0.024916,0.058764,-0.003293,-0.01933
511,1.52395,-1.227563,-2.583962,0.33613699999999996,0.9416709999999999,-0.015758,-0.18773499999999999,-0.8572700000000001,0.015703,0.035323,0.009165000000000001,-0.030567
512,1.517099,-1.227071,-2.574013,0.336484,0.941506,-0.018086,-0.15123599999999998,-0.7818649999999999,0.041499,0.050525,-0.00158,-0.024456
513,1.509269,-1.226119,-2.566351,0.337227,0.941184,-0.020775,-0.104203,-0.742691,0.061005,0.038551,-0.026115,-0.013008
514,1.4998790000000002,-1.22476,-2.5607849999999996,0.338292,0.940725,-0.024031,-0.08712400000000001,-0.726827,0.074991,0.0034590000000000003,-0.025594,-0.0012369999999999998
515,1.490893,-1.223367,-2.554996,0.33936900000000003,0.9402510000000001,-0.027175,-0.100921,-0.7129220000000001,0.072741,-0.027144,0.007106,-0.00139
516,1.483818,-1.2224709999999999,-2.547911,0.340009,0.939946,-0.029648,-0.12302,-0.683128,0.042575,-0.031063999999999998,0.021999,-0.005065
517,1.4750860000000001,-1.2219280000000001,-2.542027,0.34024499999999996,0.93976,-0.032665,-0.079446,-0.734358,0.029057999999999997,-0.020451,0.007306999999999999,0.000926
518,1.464283,-1.221732,-2.537855,0.34005599999999997,0.939693,-0.036358,-0.072906,-0.72683,0.005593,-0.013777000000000001,0.004673,0.017651
519,1.456049,-1.222233,-2.532312,0.339277,0.939865,-0.039103,-0.111824,-0.630707,-0.022576,0.000674,0.006608,0.025156
520,1.4505059999999999,-1.223035,-2.52547,0.338307,0.9401379999999999,-0.040892000000000005,-0.127621,-0.5795399999999999,-0.017411000000000003,0.043621,0.006883,0.019011
521,1.447422,-1.2235989999999999,-2.5171040000000002,0.33765300000000004,0.9403299999999999,-0.04187,-0.147791,-0.5401229999999999,-0.0005099999999999999,0.031014,0.034081,-0.007217
522,1.443808,-1.223745,-2.509725,0.337364,0.9403799999999999,-0.043073,-0.11148800000000002,-0.521126,0.012537000000000001,0.027718,0.044650999999999996,-0.011172
523,1.438941,-1.223701,-2.503407,0.337192,0.940365,-0.044719999999999996,-0.10206900000000001,-0.5584560000000001,0.015856,0.023602,0.034275,-0.008777
524,1.434549,-1.223549,-2.496245,0.337133,0.940313,-0.04622,-0.12336300000000001,-0.548794,0.015694999999999997,0.013406999999999999,-0.024145,0.006425
525,1.430814,-1.223495,-2.4893509999999996,0.337008,0.9402950000000001,-0.047486,-0.107144,-0.495608,0.021081,0.016325,-0.028536000000000002,0.011627
526,1.425607,-1.2233100000000001,-2.484491,0.336928,0.940232,-0.049264999999999996,-0.068694,-0.490399,0.01707,0.0063479999999999995,-0.028275,0.019343
527,1.419335,-1.223274,-2.480875,0.336646,0.940219,-0.051382000000000004,-0.061111,-0.477591,0.004288,-0.041526,0.013653,-0.008829
528,1.413737,-1.223586,-2.476747,0.336064,0.940326,-0.05322,-0.078109,-0.47322299999999995,-0.007587000000000001,-0.040943,0.013547,-0.006991
529,1.409055,-1.2239149999999999,-2.471377,0.335505,0.9404379999999999,-0.05474299999999999,-0.09849,-0.494471,-0.004497999999999999,-0.009806,0.041649,0.006525
530,1.40552,-1.224444,-2.464699,0.334819,0.940617,-0.055847,-0.120822,-0.48902299999999993,-0.015343,-0.00056,-0.000554,0.005188
531,1.402152,-1.2252889999999999,-2.457955,0.333846,0.9409040000000001,-0.056840999999999996,-0.115435,-0.48687299999999994,-0.024922,3.1e-05,0.0034170000000000003,0.002963
532,1.398048,-1.22642,-2.4524779999999997,0.332561,0.9412860000000001,-0.058027999999999996,-0.10455999999999999,-0.455958,-0.039841,-0.007015,-0.000795,0.0037670000000000004
533,1.3951120000000001,-1.227825,-2.445893,0.331086,0.94176,-0.058772000000000005,-0.128031,-0.46330299999999996,-0.047473,0.000121,0.029523,0.0097
534,1.392715,-1.2291969999999999,-2.4386919999999996,0.32967199999999997,0.9422200000000001,-0.059337,-0.12906900000000002,-0.452664,-0.043220999999999996,0.010462,0.031596,0.013637
535,1.389913,-1.230393,-2.432245,0.328396,0.9426200000000001,-0.06005800000000001,-0.10664100000000001,-0.439989,-0.035602999999999996,0.013766999999999998,0.015785,0.011153
536,1.38589,-1.231172,-2.427403,0.32742899999999997,0.9428799999999999,-0.06124299999999999,-0.07359199999999999,-0.426333,-0.016161000000000002,0.026956,0.002799,0.001596
537,1.381559,-1.231647,-2.4232400000000003,0.326721,0.9430379999999999,-0.062577,-0.07775900000000001,-0.394398,-0.0066170000000000005,0.022994999999999998,-0.002441,0.009278
538,1.3803290000000001,-1.2322389999999999,-2.417147,0.326096,0.943235,-0.062873,-0.11264400000000001,-0.328207,-0.012287000000000001,0.008743,-0.01872,0.013297
539,1.3790149999999999,-1.232788,-2.4118939999999998,0.32550500000000004,0.9434170000000001,-0.063203,-0.062334,-0.290037,-0.010916,0.017696,0.019672,-0.006362
540,1.37588,-1.232999,-2.4097049999999998,0.32511,0.9434870000000001,-0.064184,-0.034394,-0.24220999999999998,-0.0075780000000000005,0.028986,0.037959,0.010031
541,1.374135,-1.233434,-2.407016,0.32459499999999997,0.943631,-0.064671,-0.055463,-0.194152,-0.019537,0.022283,-0.010053,0.000599
542,1.373674,-1.233939,-2.403874,0.32409899999999997,0.9437979999999999,-0.064728,-0.044726999999999996,-0.17290899999999998,-0.013080000000000001,0.033491,-0.0049700000000000005,-0.0028079999999999997
543,1.371657,-1.234194,-2.402007,0.323732,0.943882,-0.065334,-0.030997000000000004,-0.197485,-0.006543000000000001,0.0231,0.00114,0.013637
544,1.370676,-1.2346709999999999,-2.398653,0.323227,0.94404,-0.065562,-0.071523,-0.210062,-0.022833000000000003,0.014725,-0.005533,0.001811
545,1.370791,-1.235676,-2.394518,0.322305,0.944371,-0.065336,-0.076599,-0.175861,-0.046414,0.033378,0.019451,0.005445
546,1.371592,-1.237076,-2.390515,0.321061,0.94483,-0.064816,-0.082751,-0.135299,-0.061464,0.038971,0.021463,0.020093
547,1.3740620000000001,-1.238578,-2.385241,0.319828,0.945321,-0.063746,-0.101921,-0.12459200000000001,-0.05840700000000001,0.021374,-0.006157999999999999,-0.003698
548,1.37605,-1.239707,-2.380163,0.31890599999999997,0.9456889999999999,-0.062903,-0.08190900000000001,-0.152479,-0.028321,0.014468,-0.010111,-0.014641999999999999
549,1.376599,-1.240075,-2.376292,0.31859899999999997,0.945808,-0.062661,-0.05538099999999999,-0.15376099999999998,0.002845,0.014577000000000001,-0.014107,-0.00074
550,1.37714,-1.239726,-2.37302,0.31895500000000004,0.9456950000000001,-0.062552,-0.040369,-0.102817,0.037067,0.014449000000000002,-0.015472999999999999,0.008734
551,1.377831,-1.238526,-2.371204,0.32011300000000004,0.945304,-0.06254900000000001,0.0024879999999999998,-0.02429,0.075722,-0.004378,0.008874,0.011569
552,1.3769879999999999,-1.236664,-2.372532,0.321786,0.9446950000000001,-0.063158,0.055071,0.052191999999999995,0.084537,-0.013131,0.009651,0.022768
553,1.3766049999999999,-1.235066,-2.3751889999999998,0.323243,0.9441700000000001,-0.063572,0.05235,0.132205,0.057710000000000004,-0.011933,-0.003572,0.028095
554,1.377464,-1.234198,-2.377539,0.3241,0.9438840000000001,-0.063452,0.053728,0.163247,0.019224,-0.013981,-0.012701,0.029211
555,1.379666,-1.234434,-2.3798790000000003,0.324022,0.943961,-0.062696,0.026599,0.247704,-0.032349,-0.001466,-0.010627,0.039120999999999996
556,1.383346,-1.235272,-2.382113,0.323472,0.9442379999999999,-0.06135499999999999,0.032320999999999996,0.312752,-0.05375599999999999,0.009047,0.012473,0.028335000000000003
557,1.386852,-1.2360229999999999,-2.385389,0.32298699999999997,0.944485,-0.060091,0.05584,0.34029899999999996,-0.036536,0.002315,0.02895,0.026522000000000004
558,1.389852,-1.2361879999999998,-2.389741,0.32301199999999997,0.9445389999999999,-0.05909400000000001,0.082469,0.35396,-0.012865999999999999,-0.025649,0.03596,0.024609
559,1.391641,-1.23601,-2.394935,0.323282,0.9444799999999999,-0.05854500000000001,0.08337699999999999,0.324108,-0.007481,-0.032952999999999996,0.020623,0.026868
560,1.394293,-1.235989,-2.398501,0.323455,0.9444739999999999,-0.057691,0.049007999999999996,0.273094,-0.0076549999999999995,-0.023422,0.013656,0.041761
561,1.3969690000000001,-1.235729,-2.400487,0.32385,0.9443879999999999,-0.056867999999999995,0.025211,0.21877600000000003,0.010408,-0.043546,0.017297,0.038939
562,1.400126,-1.2356260000000001,-2.40188,0.32412399999999997,0.9443540000000001,-0.055862,0.033813,0.22198800000000002,-0.001287,-0.020763999999999998,0.017834,0.028426999999999997
563,1.402172,-1.2358069999999999,-2.404604,0.32406799999999997,0.944414,-0.055170000000000004,0.045697,0.239056,-0.017249,0.030256,-0.01317,0.027246
564,1.404061,-1.23576,-2.407652,0.324216,0.944398,-0.054564999999999995,0.05733099999999999,0.242108,0.008466,0.040408,-0.025162999999999998,0.024978
565,1.404709,-1.235292,-2.412464,0.32468600000000003,0.9442440000000001,-0.054428,0.104374,0.266437,0.0109,0.030935,-0.006729000000000001,0.01976
566,1.4047180000000001,-1.234983,-2.418796,0.324974,0.9441430000000001,-0.054473,0.098294,0.3251,-0.002037,0.023994,0.009761,0.020019
567,1.408123,-1.2350709999999998,-2.423465,0.32507600000000003,0.9441709999999999,-0.053353,0.069016,0.43289399999999995,-0.026948000000000003,0.023893,0.009732,0.018897999999999998
568,1.413456,-1.235649,-2.428465,0.324816,0.944362,-0.051533,0.093179,0.544582,-0.061166,0.039106,0.0032549999999999996,0.004383
569,1.418216,-1.236733,-2.43633,0.32404499999999997,0.9447180000000001,-0.04983,0.140653,0.6371979999999999,-0.08659,0.030676,-0.014633000000000002,0.00381
570,1.4210129999999999,-1.2378799999999999,-2.447752,0.32311100000000004,0.9450930000000001,-0.048762,0.191097,0.707317,-0.083123,0.03161,-0.015009,0.002741
571,1.423504,-1.239013,-2.460977,0.322171,0.9454629999999999,-0.047799,0.21598499999999998,0.770142,-0.097985,-0.009427,-0.002165,0.020272
572,1.4256870000000001,-1.240211,-2.4752560000000003,0.321154,0.945852,-0.046932,0.218167,0.779726,-0.09905,-0.029695999999999997,0.018213,0.032589
573,1.4279600000000001,-1.24143,-2.488439,0.32011799999999996,0.946247,-0.046038,0.190045,0.705212,-0.088469,-0.034184,0.020107,0.034106
574,1.431647,-1.242617,-2.498363,0.319173,0.946631,-0.044702,0.12456800000000001,0.620205,-0.085613,-0.044118,0.026407,0.026010000000000002
575,1.436323,-1.244092,-2.505205,0.317994,0.947105,-0.043021,0.092155,0.526587,-0.088924,-0.042069,0.022484,0.022056
576,1.440832,-1.245566,-2.511037,0.3168,0.947577,-0.041406,0.08232300000000001,0.483975,-0.08039199999999999,-0.023908000000000002,0.018686,0.016656999999999998
577,1.44405,-1.2467059999999999,-2.517264,0.315861,0.947941,-0.04025,0.10016699999999999,0.445456,-0.053513,-0.001468,0.007458,0.015516
578,1.44557,-1.247386,-2.524679,0.315281,0.9481569999999999,-0.039689,0.119203,0.420837,-0.040529,-0.001011,0.0073939999999999995,0.014588
579,1.4467809999999999,-1.2480129999999998,-2.532166,0.314738,0.948356,-0.039234,0.10850599999999999,0.41554300000000005,-0.039529,-0.005137,0.010247,0.015368999999999999
580,1.449234,-1.248684,-2.538278,0.314202,0.948569,-0.038383999999999995,0.08611100000000001,0.416691,-0.040755,0.0015630000000000002,0.0011539999999999999,0.00686
581,1.45156,-1.24921,-2.544336,0.313795,0.948735,-0.037594,0.099875,0.397451,-0.036362,0.0033740000000000003,-0.003682,0.003536
582,1.453656,-1.249631,-2.551009,0.31347600000000003,0.948868,-0.03689,0.10326300000000001,0.44110699999999997,-0.034257,-0.007156,0.014038,0.013528
583,1.4571049999999999,-1.250058,-2.557248,0.313198,0.949003,-0.035762,0.091671,0.47735,-0.030112,-0.006984999999999999,0.013933000000000001,0.01054
584,1.4609889999999999,-1.250509,-2.563252,0.31290999999999997,0.9491450000000001,-0.034499,0.090686,0.49228,-0.033343,-0.009946,0.012967,0.00659
585,1.46528,-1.2508139999999999,-2.568895,0.312769,0.949241,-0.033125,0.086255,0.468808,-0.020525,-0.01217,8e-06,-0.002275
586,1.4688709999999998,-1.250985,-2.574383,0.31272300000000003,0.9492950000000001,-0.031985,0.084982,0.42831099999999994,-0.015141,-0.012812,0.001267,-0.006253
587,1.472437,-1.25115,-2.579434,0.31268,0.9493469999999999,-0.030855,0.078523,0.41448900000000005,-0.016236,-0.010358,0.006128,-0.003386
588,1.476022,-1.251433,-2.5845290000000003,0.31252199999999997,0.9494360000000001,-0.029708,0.077552,0.428371,-0.023739,-0.00698,0.012523999999999999,-0.0016489999999999999
589,1.47937,-1.251827,-2.589873,0.312247,0.949559,-0.028627,0.09021599999999999,0.396372,-0.024677,-0.005667,0.016856,-0.013669999999999998
590,1.482807,-1.252076,-2.595151,0.312107,0.9496370000000001,-0.027533,0.072089,0.41235900000000003,-0.010937,-0.008898999999999999,0.0072109999999999995,-0.008707
591,1.486887,-1.251998,-2.598846,0.31229,0.9496129999999999,-0.026266,0.053636,0.36015199999999997,0.00716,-0.011234000000000001,0.0020629999999999997,-0.023188
592,1.490951,-1.251731,-2.601839,0.31264699999999995,0.9495290000000001,-0.025016999999999998,0.041814,0.34208,0.008169,-0.00268,-0.007390000000000001,-0.018715
593,1.49519,-1.251747,-2.6047130000000003,0.312734,0.949534,-0.02369,0.048373,0.357052,-0.0121,0.007075,0.003621,-0.009940000000000001
594,1.498917,-1.2521959999999999,-2.608925,0.312396,0.949675,-0.022493,0.068965,0.408195,-0.032318,0.009579,0.028719,0.0029620000000000002
595,1.502939,-1.252628,-2.6135080000000004,0.312073,0.94981,-0.021209,0.06143,0.410283,-0.015281999999999999,0.009932999999999999,0.00481,-0.003968
596,1.5065620000000002,-1.25223,-2.61718,0.312526,0.949686,-0.020103,0.057620000000000005,0.322751,0.032873,-0.01556,-0.023584,-0.016319999999999998
597,1.508225,-1.2514049999999999,-2.621277,0.313341,0.949427,-0.019632,0.071207,0.25985199999999997,0.033049,-0.025240000000000002,-0.012537000000000001,-0.0008300000000000001
598,1.509519,-1.250913,-2.625035,0.313832,0.9492719999999999,-0.019255,0.049865,0.238702,0.012631,-0.014072999999999999,0.005455,0.015944
599,1.512071,-1.250813,-2.627439,0.313975,0.949241,-0.018459,0.033962,0.247335,-0.0013779999999999999,0.007344,0.023675,0.01965
600,1.515501,-1.2507110000000001,-2.6291860000000002,0.314134,0.949209,-0.017388,0.022203,0.255843,0.012416,0.025985,0.015588999999999999,0.015221
601,1.518976,-1.249976,-2.630265,0.31489,0.9489770000000001,-0.016332,0.013212999999999999,0.197113,0.055157000000000005,0.021124,-0.011385,-0.004190999999999999
602,1.521792,-1.248523,-2.630696,0.316312,0.9485180000000001,-0.015512999999999999,0.012872,0.144821,0.078722,0.008487,-0.020158000000000002,-0.005926
603,1.523464,-1.246933,-2.631666,0.317843,0.9480129999999999,-0.015055,0.024493,0.12133599999999999,0.08097,-0.005099,-0.020828,0.002833
604,1.524324,-1.2452379999999998,-2.6333159999999998,0.319461,0.947472,-0.014856999999999999,0.036227999999999996,0.12235599999999999,0.08211900000000001,0.001737,0.0030440000000000003,0.019785
605,1.524837,-1.243609,-2.6354490000000004,0.321009,0.94695,-0.014764,0.041606,0.124498,0.07467599999999999,-0.010264,0.021708,0.028375
606,1.524303,-1.242049,-2.638338,0.32247600000000004,0.9464469999999999,-0.015004,0.044701,0.10635599999999999,0.080062,-0.018505,0.015787,0.028905
607,1.526232,-1.2402870000000001,-2.638194,0.32416799999999996,0.9458770000000001,-0.014456,-0.021646000000000002,0.073517,0.091391,-0.022319,0.01036,0.014074000000000001
608,1.529274,-1.23834,-2.635751,0.326049,0.9452440000000001,-0.013546,-0.035832,0.013868,0.102051,-0.015044,0.000206,0.001415
609,1.531151,-1.236321,-2.6336009999999996,0.32797800000000005,0.944583,-0.013009999999999999,-0.024221,-0.014931,0.101101,-0.009115,0.003934,0.001993
610,1.5318049999999999,-1.234453,-2.6324799999999997,0.32974899999999996,0.943968,-0.012863999999999999,-0.009290000000000001,-0.025598,0.09160499999999999,-0.007606,0.015444,0.005173
611,1.532845,-1.232891,-2.630649,0.33123600000000003,0.943451,-0.012577,-0.040253,-0.042487,0.07966000000000001,0.001513,0.023132,-0.0068319999999999995
612,1.534507,-1.231435,-2.627623,0.332627,0.942967,-0.012076,-0.045697,-0.073335,0.073252,0.000121,0.023615999999999998,-0.007333
613,1.534545,-1.2301090000000001,-2.625722,0.333876,0.942525,-0.012109,-0.021207,-0.091501,0.065968,0.019303999999999998,-0.024633000000000002,-0.007789
614,1.533947,-1.229115,-2.624688,0.334805,0.9421930000000001,-0.012343000000000002,-0.011404000000000001,-0.068013,0.044642,0.005146,-0.007393,0.009123000000000001
615,1.5335299999999998,-1.228665,-2.624331,0.33522399999999997,0.942042,-0.012498,-0.007809999999999999,-0.015686000000000002,0.009349,-0.000339,0.010549,0.012544
616,1.534812,-1.228844,-2.623369,0.335071,0.942102,-0.012062,-0.022392,0.036670999999999995,-0.017525,-0.011066,0.027777,0.010292
617,1.537693,-1.229121,-2.621375,0.334843,0.9421950000000001,-0.011087999999999999,-0.039428,0.051614,-0.010186,-0.011859999999999999,0.02155,-0.001393
618,1.54083,-1.229034,-2.618887,0.334958,0.9421649999999999,-0.01004,-0.039629000000000004,0.028093,0.011207,-0.005307,0.0045509999999999995,-0.00853
619,1.5427110000000002,-1.228653,-2.6171919999999997,0.335335,0.9420379999999999,-0.00942,-0.018402,0.007520999999999999,0.023077,-0.007561,-0.012747,0.005301
620,1.5436239999999999,-1.228198,-2.61643,0.33577199999999996,0.9418850000000001,-0.009126,-0.013043,0.013888999999999999,0.024175,-0.018908,-0.008795,0.022355
621,1.545247,-1.227855,-2.615192,0.33610999999999996,0.9417700000000001,-0.008589,-0.027879,0.027824,0.015508000000000001,-0.031224000000000002,0.009051,0.026717
622,1.548363,-1.227607,-2.612559,0.336368,0.941686,-0.007547,-0.053474,0.030044,0.015326,-0.029498000000000003,0.009516,0.014428999999999999
623,1.551498,-1.227223,-2.609469,0.336751,0.941557,-0.006499,-0.046183,0.001213,0.026095999999999998,-0.019430000000000003,0.002672,0.003997
624,1.5536729999999999,-1.22641,-2.606978,0.33753,0.941283,-0.0057799999999999995,-0.03463,-0.014905000000000002,0.050766000000000006,-0.016714,-0.004775,0.001859
625,1.554669,-1.225203,-2.605526,0.338672,0.940875,-0.005462,-0.014459999999999999,-0.02037,0.068006,-0.016422,0.0202,0.015106
626,1.554673,-1.223849,-2.604997,0.339946,0.940415,-0.005482,-0.004906000000000001,-0.028933999999999998,0.07022,-0.021861000000000002,0.027327999999999998,0.031223
627,1.5542049999999998,-1.222587,-2.604845,0.34113000000000004,0.9399850000000001,-0.00566,-0.000601,-0.028914999999999996,0.061703999999999995,-0.02683,0.025637,0.041961
628,1.5539530000000001,-1.2215,-2.604837,0.34215100000000004,0.939614,-0.005764,0.002758,-0.003322,0.052080999999999995,-0.027331,0.027443000000000002,0.043438
629,1.553605,-1.220633,-2.605187,0.342963,0.939317,-0.0058969999999999995,0.011359999999999999,-0.00117,0.03932,-0.036627999999999994,0.01155,0.041297
630,1.552629,-1.220184,-2.606288,0.343379,0.939163,-0.006239,0.024306,0.00634,0.014831,-0.041331,0.017762,0.04495
631,1.552538,-1.2201799999999998,-2.606746,0.343383,0.939161,-0.00627,0.004175,0.020328,-0.002419,-0.035276999999999996,0.015581,0.049361
632,1.553451,-1.2203950000000001,-2.606328,0.343186,0.939235,-0.005953,-0.011732,0.028957,-0.015359999999999999,-0.029466000000000003,0.008626,0.04465
633,1.555004,-1.220993,-2.605443,0.34263299999999997,0.9394399999999999,-0.005412,-0.012665000000000001,0.039689999999999996,-0.034608,-0.031598,0.015591999999999998,0.039652
634,1.5569030000000001,-1.2220440000000001,-2.604278,0.341656,0.9398,-0.0047469999999999995,-0.017932,0.035524,-0.053867,-0.039319,0.018574,0.022615
635,1.5586440000000001,-1.223239,-2.603047,0.340541,0.940207,-0.004139,-0.015856,0.019551,-0.057037,-0.030330000000000003,0.024728,0.015995
636,1.559166,-1.2243,-2.6025080000000003,0.339545,0.9405690000000001,-0.003949,-4.5e-05,-0.013567,-0.04727,-0.021368,0.021452000000000002,0.016705
637,1.558597,-1.225259,-2.602605,0.33864099999999997,0.940893,-0.004132,0.002046,-0.023162000000000002,-0.047243,-0.022098,0.010385,0.021359
638,1.5584149999999999,-1.226401,-2.602667,0.337566,0.9412799999999999,-0.00418,0.003281,0.0035090000000000004,-0.057951,-0.021587000000000002,0.010014,0.027433999999999997
639,1.559023,-1.227708,-2.602694,0.336337,0.9417200000000001,-0.00396,-0.003961999999999999,0.048297,-0.0634,-0.012332,0.009207,0.021462000000000002
640,1.5600889999999998,-1.2289459999999999,-2.602695,0.33517600000000003,0.9421360000000001,-0.003589,0.0024100000000000002,0.051432000000000005,-0.053746,0.001066,-0.000699,0.011127
641,1.56087,-1.229671,-2.6028990000000003,0.334496,0.9423790000000001,-0.003321,0.006523999999999999,0.047037,-0.023801,0.001975,-0.000103,0.00268
642,1.560891,-1.229981,-2.6038330000000003,0.334204,0.942483,-0.003311,0.024569999999999998,0.040527,-0.00978,0.0019320000000000001,0.005850999999999999,-0.001145
643,1.559342,-1.2300209999999998,-2.605991,0.334161,0.9424959999999999,-0.0038280000000000002,0.039333,0.016978999999999998,0.005309,-0.005166,0.0046170000000000004,0.0030960000000000002
644,1.558071,-1.229803,-2.607823,0.334362,0.942423,-0.004255,0.027598,0.024447,0.012695,-0.016384,0.002539,-0.002352
645,1.556912,-1.2295969999999998,-2.6095349999999997,0.33455100000000004,0.9423540000000001,-0.004645000000000001,0.032927,0.018058,0.007398999999999999,-0.017153,0.00366,-0.0012900000000000001
646,1.5548440000000001,-1.229543,-2.612011,0.334592,0.9423360000000001,-0.005338,0.046806,0.010591,-0.0021079999999999996,-0.01489,0.014863,0.014280000000000001
647,1.5527790000000001,-1.229702,-2.6145650000000002,0.33443,0.9423889999999999,-0.006026,0.038372,0.023443000000000002,-0.011798000000000001,-0.008213,0.024072,0.024947
648,1.551654,-1.230082,-2.616466,0.334065,0.942516,-0.006396,0.027823,0.040562,-0.021507,-0.008229,0.014149,0.018984
649,1.550842,-1.230592,-2.618072,0.333581,0.942686,-0.006657,0.023508,0.026742000000000002,-0.024725,-0.010842000000000001,-0.004561,0.007268000000000001
650,1.550278,-1.231085,-2.618909,0.333111,0.942851,-0.006836,0.008457,0.002288,-0.02373,-0.005475,-0.0057020000000000005,0.007019
651,1.549756,-1.2316049999999998,-2.61931,0.33261799999999997,0.943024,-0.007,0.009461,-0.011564,-0.023705,-0.00112,0.005325,0.015941
652,1.549364,-1.23213,-2.619702,0.332119,0.943199,-0.0071189999999999995,0.006371,0.009766,-0.026958999999999997,-0.002606,0.012291,0.021874
653,1.549526,-1.232779,-2.620245,0.331509,0.943414,-0.007051999999999999,0.014031,0.045984,-0.033361,-0.021771000000000002,0.014228,0.012576
654,1.5501610000000001,-1.233465,-2.620834,0.330866,0.943641,-0.006829000000000001,0.006639,0.063054,-0.033435,-0.018916,0.005227000000000001,0.0066760000000000005
655,1.5504799999999999,-1.233917,-2.62135,0.330442,0.9437909999999999,-0.006714,0.008505,0.021429,-0.015209,-0.009656,-0.0019420000000000001,0.00029
656,1.550286,-1.233951,-2.6214560000000002,0.330409,0.943802,-0.006778,0.0018399999999999998,-0.016978999999999998,0.00509,0.0044,0.002914,0.011889
657,1.5499209999999999,-1.233899,-2.621398,0.33045599999999997,0.943785,-0.006899,-0.001361,-0.021212,0.000801,0.004032,0.009873999999999999,0.011691
658,1.549617,-1.234063,-2.6213290000000002,0.33029899999999995,0.943839,-0.006996,-0.00447,-0.014754,-0.013116,0.000618,0.015313,0.011101
659,1.550316,-1.234423,-2.6204259999999997,0.329964,0.943958,-0.006759,-0.020416,-0.005098,-0.016444999999999998,0.000465,0.000531,-0.005555
660,1.551215,-1.234637,-2.619195,0.329768,0.9440290000000001,-0.006458,-0.017321,-0.018994999999999998,-0.006790999999999999,0.000661,0.00045999999999999996,-0.005856
661,1.551218,-1.234712,-2.618525,0.32969699999999996,0.944053,-0.006456,-0.007815,-0.037150999999999997,-0.0034969999999999997,-0.003556,0.007897,-0.002226
662,1.550974,-1.234939,-2.617977,0.329482,0.9441280000000001,-0.006532,-0.0077670000000000005,-0.038169999999999996,-0.015246000000000001,-0.008407,0.002878,0.007631000000000001
663,1.550343,-1.235334,-2.617937,0.32910500000000004,0.944258,-0.006731999999999999,0.000826,-0.030721,-0.020536000000000002,-0.008029000000000001,0.002748,0.007831
664,1.549713,-1.235767,-2.618114,0.328692,0.944401,-0.0069310000000000005,-0.00017900000000000001,-0.018991,-0.022695,-0.006167,0.010952,0.007358
665,1.5497239999999999,-1.236221,-2.617727,0.328264,0.94455,-0.0069180000000000005,-0.012996,-0.02002,-0.020647,-0.004152,0.006958,0.007345999999999999
666,1.550119,-1.2366030000000001,-2.616763,0.327906,0.944675,-0.006781000000000001,-0.015177000000000001,-0.028543000000000002,-0.018515,-0.005625,0.006085,0.008292
667,1.550369,-1.237058,-2.615998,0.32747800000000005,0.944824,-0.006690000000000001,-0.010847,-0.021075999999999998,-0.024903,-0.00921,0.009537,0.010475
668,1.55081,-1.2375770000000001,-2.615216,0.326992,0.944994,-0.006536,-0.01722,-0.013600999999999999,-0.023888999999999997,-0.01083,0.001356,0.011937999999999999
669,1.551384,-1.237917,-2.614284,0.32667399999999996,0.945105,-0.006342,-0.012988,-0.015997,-0.011091,-0.006620999999999999,0.002328,0.009165000000000001
670,1.551192,-1.238037,-2.6141509999999997,0.326559,0.9451450000000001,-0.006403,0.005111,-0.017155,-0.003486,-0.009085,0.005814,0.005045
671,1.550342,-1.2381010000000001,-2.614693,0.326493,0.945166,-0.006679000000000001,0.009369,-0.01824,-0.002386,-0.0070810000000000005,0.0027559999999999998,0.013668000000000001
672,1.5498379999999998,-1.238235,-2.614938,0.326363,0.945209,-0.006841,0.001977,-0.008597,-0.009928,-0.012993000000000001,0.007137,0.018116999999999998
673,1.5500770000000001,-1.238612,-2.614667,0.326008,0.945332,-0.006756,-0.008586,0.0021449999999999998,-0.022834,-0.021565,0.019099,0.015224000000000001
674,1.551085,-1.239096,-2.61361,0.32555700000000004,0.9454899999999999,-0.006418000000000001,-0.021427,-0.006333,-0.022913,-0.014232,0.011877,0.00683
675,1.551341,-1.239501,-2.612775,0.325176,0.945622,-0.006327,-0.008783,-0.038348,-0.019579,-0.005032,0.00346,0.004984000000000001
676,1.550946,-1.239963,-2.612293,0.324737,0.945772,-0.006447,-0.006639,-0.040469,-0.023834,-0.009429,0.010679000000000001,0.018059
677,1.551361,-1.240632,-2.611454,0.32410700000000003,0.945989,-0.0063,-0.016040000000000002,-0.006305,-0.034626,-0.004328,0.009608,0.013075
678,1.552449,-1.241268,-2.610447,0.32351199999999997,0.9461950000000001,-0.005936,-0.014925,0.011771,-0.027163999999999997,-0.004588,-0.002332,0.006516
679,1.553021,-1.241614,-2.6100369999999997,0.32318800000000003,0.946307,-0.005745,-0.003295,0.00421,-0.011049,-0.012718,0.0052770000000000004,-0.003135
680,1.552743,-1.2416969999999998,-2.610106,0.323108,0.946334,-0.005834000000000001,0.0040100000000000005,-0.021425,-0.000283,-0.015735,0.006562,0.006459
681,1.551973,-1.2417,-2.610188,0.323101,0.946335,-0.006083,-0.000339,-0.040581,-0.0013570000000000001,-0.012676,0.006058,0.013865
682,1.551183,-1.24175,-2.610178,0.323048,0.946351,-0.006337,-0.00031,-0.037372,-0.004566,-0.011906,0.013274000000000001,0.021443
683,1.551034,-1.2418719999999999,-2.6097080000000004,0.32293099999999997,0.94639,-0.006383,-0.013055,-0.026667000000000003,-0.006804999999999999,-0.015405,0.014761000000000002,0.019948
684,1.551397,-1.242047,-2.608731,0.322768,0.9464469999999999,-0.006261999999999999,-0.017356,-0.033048,-0.005759,-0.019911,0.010431999999999999,0.011725
685,1.551459,-1.242183,-2.607663,0.322639,0.946491,-0.00624,-0.015332,-0.056495000000000004,-0.004646,-0.024238,0.008754999999999999,0.0059039999999999995
686,1.5509540000000002,-1.242292,-2.60677,0.322533,0.946526,-0.0064010000000000004,-0.014333000000000002,-0.072473,-0.005686999999999999,-0.023674,0.011818,0.011162
687,1.5506360000000001,-1.24256,-2.605522,0.322277,0.9466120000000001,-0.006498,-0.020691,-0.076657,-0.019613,-0.018948,0.01138,0.020429
688,1.5504440000000002,-1.243182,-2.604421,0.32168800000000003,0.9468129999999999,-0.006548,-0.017338,-0.050255,-0.03457,-0.015428,0.011897,0.024584
689,1.550593,-1.24401,-2.603681,0.320905,0.9470790000000001,-0.006484,-0.005425,-0.016187,-0.039871,-0.005994,0.012195000000000001,0.01741
690,1.550924,-1.244689,-2.603186,0.320265,0.9472959999999999,-0.006365,-0.012912,-0.006628,-0.026049,-0.00025699999999999996,0.003189,0.007677
691,1.551384,-1.2450729999999999,-2.602316,0.319903,0.94742,-0.006211,-0.011989,-0.025858,-0.013199,-0.006731,0.001524,0.004929
692,1.5516299999999998,-1.245303,-2.601481,0.319687,0.947493,-0.006128,-0.00988,-0.028009,-0.009977,-0.016708,0.008836,0.008690999999999999
693,1.5516809999999999,-1.245551,-2.600795,0.319452,0.947572,-0.0061070000000000004,-0.0077599999999999995,-0.033333999999999996,-0.012092,-0.018885,0.009748999999999999,0.009342
694,1.551332,-1.2457690000000001,-2.600393,0.319244,0.947642,-0.006215,-0.0056549999999999994,-0.03655,-0.008868000000000001,-0.015075,0.006581999999999999,0.008137
695,1.5510979999999999,-1.2459149999999999,-2.59991,0.319104,0.9476889999999999,-0.006287,-0.005665,-0.036558999999999994,-0.006731999999999999,-0.010662999999999999,0.008061,0.003235
696,1.550684,-1.2460790000000002,-2.5994990000000002,0.318948,0.947741,-0.006416,-0.010191,-0.041999,-0.006487000000000001,-0.007989,0.005964,0.011482
697,1.550935,-1.2462799999999998,-2.598395,0.318758,0.9478049999999999,-0.006332,-0.020826,-0.037688,-0.009772,-0.0038469999999999997,0.009592,0.013472999999999999
698,1.551369,-1.246481,-2.597245,0.31856999999999996,0.9478690000000001,-0.00619,-0.013334,-0.030266,-0.007592,-0.006268,0.010473999999999999,0.011668000000000001
699,1.551431,-1.246588,-2.596646,0.318468,0.947903,-0.006168,-0.009062,-0.02285,-0.001163,-0.010073,0.011691,0.00864
700,1.55116,-1.246572,-2.5962959999999997,0.31848200000000004,0.9478979999999999,-0.006255,-0.002738,-0.034611,0.0042380000000000004,-0.011765000000000001,0.004098,0.009306
701,1.550729,-1.246458,-2.596061,0.31858800000000004,0.9478620000000001,-0.0063939999999999995,-0.003795,-0.030355,0.006361,-0.014740000000000001,0.009444,0.019806999999999998
702,1.550514,-1.246427,-2.595878,0.318616,0.947852,-0.006462999999999999,-0.001556,-0.014353999999999999,-0.001121,-0.015256,0.008447,0.019983
703,1.550581,-1.246542,-2.5956189999999997,0.31850700000000004,0.947889,-0.00644,-0.005751,-0.005787,-0.008639,-0.015773,0.008395,0.017807
704,1.550966,-1.246842,-2.5951400000000002,0.318225,0.947984,-0.006311,-0.006855,2.2e-05,-0.014704,-0.02103,0.013396000000000002,0.020685
705,1.551879,-1.247233,-2.594261,0.317861,0.948108,-0.006014,-0.017476,0.004346,-0.021193,-0.020544,0.009640000000000001,0.017565
706,1.552848,-1.247696,-2.593184,0.31742800000000004,0.948256,-0.005698,-0.016462,-0.008437,-0.022238,-0.016996999999999998,0.008058,0.013297
707,1.553679,-1.248219,-2.5920490000000003,0.31693699999999997,0.948421,-0.005425999999999999,-0.016462,-0.01162,-0.025438,-0.009747,0.01096,0.00921
708,1.554484,-1.2488569999999999,-2.591078,0.316336,0.948623,-0.005161,-0.014256,-0.003076,-0.032911,-0.007498,0.007812999999999999,0.009967
709,1.555148,-1.249568,-2.59037,0.315664,0.9488479999999999,-0.00494,-0.011032,0.001179,-0.033962,-0.006872,0.006764,0.010676999999999999
710,1.556039,-1.25029,-2.589573,0.31498400000000004,0.949076,-0.004649,-0.01207,0.007573999999999999,-0.033977999999999994,-0.004727,0.006765,0.0059
711,1.55643,-1.250869,-2.58929,0.31443699999999997,0.949258,-0.004518,0.0006799999999999999,0.004299,-0.025338999999999997,-0.002898,0.003134,0.005265
712,1.5558100000000001,-1.2512940000000001,-2.5899970000000003,0.314031,0.949392,-0.004706,0.015593000000000001,0.000794,-0.019457,-0.008076999999999999,0.0042369999999999994,0.011817
713,1.5550190000000002,-1.251658,-2.5909020000000003,0.313681,0.949506,-0.004949,0.012397,0.003992,-0.017347,-0.016196000000000002,0.007051999999999999,0.017752
714,1.554662,-1.252031,-2.591327,0.313325,0.949623,-0.005056000000000001,0.002791,0.000839,-0.019547,-0.018312000000000002,0.014809000000000001,0.017782
715,1.555061,-1.252469,-2.5908029999999997,0.312911,0.94976,-0.004924,-0.014308000000000001,-0.008676,-0.022858,-0.019393,0.014641,0.017009
716,1.55608,-1.252809,-2.5894630000000003,0.312593,0.949867,-0.0046,-0.021853,-0.015084,-0.012221,-0.016527,0.007226000000000001,0.006889
717,1.556245,-1.252925,-2.58882,0.312483,0.949903,-0.004547,-0.004874,-0.024774,-0.001407,-0.008345,-0.0023469999999999997,0.006302
718,1.555944,-1.252905,-2.588543,0.31250100000000003,0.9498969999999999,-0.004642,-0.004932,-0.032251999999999996,0.003943,-0.007248999999999999,0.002877,0.015979
719,1.555816,-1.252817,-2.588027,0.31258400000000003,0.9498690000000001,-0.004683,-0.008131999999999999,-0.029057999999999997,0.007121,-0.013022999999999998,0.019063999999999998,0.016173
720,1.55592,-1.252613,-2.587471,0.31277699999999997,0.9498049999999999,-0.004653,-0.004912,-0.018442,0.013538999999999999,-0.014087,0.011056,0.005889
721,1.555456,-1.252297,-2.587564,0.313076,0.9497059999999999,-0.004803,0.0047810000000000005,-0.020366,0.018287,-0.004009,-0.001174,0.010785
722,1.554575,-1.251891,-2.588032,0.31345700000000004,0.9495790000000001,-0.005085,0.010101,-0.021458,0.020462,0.002049,0.0016539999999999999,0.019169
723,1.553803,-1.25157,-2.588506,0.313759,0.9494790000000001,-0.005332,0.008043999999999999,-0.011834,0.012958,-0.009575,0.010986,0.02288
724,1.553772,-1.251492,-2.5885540000000002,0.313833,0.9494540000000001,-0.005343,-0.004615,0.007437,2.6000000000000002e-05,-0.017599,0.017068,0.019488
725,1.554853,-1.251639,-2.5876740000000003,0.313699,0.9495,-0.005002,-0.018412,0.013915,-0.009693,-0.016091,0.012978,0.008878
726,1.5561129999999999,-1.251931,-2.5865150000000003,0.31342800000000004,0.949592,-0.004603,-0.014178,-0.000984,-0.017121,-0.012418,0.00657,0.004099
727,1.5565149999999999,-1.252322,-2.585801,0.313058,0.949714,-0.004471,-0.008901000000000001,-0.018029,-0.021336,-0.014398,0.002404,0.008927
728,1.556826,-1.252946,-2.585092,0.312467,0.949909,-0.004366,-0.010768000000000002,-0.01848,-0.033727999999999994,-0.011854,0.00935,0.013261000000000002
729,1.5575219999999999,-1.25365,-2.584018,0.311801,0.9501290000000001,-0.004139,-0.019274,-0.012058,-0.033795,-0.007159,0.008763,0.013874000000000001
730,1.558573,-1.254258,-2.5827430000000002,0.311228,0.950319,-0.003804,-0.017169,-0.007847,-0.023104,-0.000986,0.0064069999999999995,0.001256
731,1.558845,-1.254538,-2.582118,0.310962,0.950406,-0.0037170000000000003,-0.005587,-0.025001,-0.005909,0.0043,0.002048,0.004998
732,1.558203,-1.254505,-2.582023,0.310992,0.9503959999999999,-0.003917,-0.001449,-0.042107,0.0058920000000000005,0.00218,-0.000872,0.008052
733,1.557966,-1.254334,-2.581395,0.311153,0.950342,-0.003992,-0.013193999999999999,-0.039952,0.01008,-0.008388,0.008688,0.014368
734,1.558316,-1.254142,-2.5804169999999997,0.311336,0.950283,-0.003886,-0.014178999999999999,-0.019717,0.012184,-0.005229999999999999,0.005268999999999999,0.014048
735,1.558578,-1.253862,-2.5798740000000002,0.311603,0.9501950000000001,-0.003807,-0.003482,-0.009119,0.016518,-0.0025670000000000003,-0.0015869999999999999,0.010247
736,1.558322,-1.253494,-2.5800669999999997,0.31195300000000004,0.9500799999999999,-0.003892,0.008509000000000001,-0.002123,0.020137000000000002,-0.005968,0.004326,0.010941
737,1.5578459999999998,-1.253121,-2.5805569999999998,0.312305,0.9499639999999999,-0.004045,0.009590000000000001,8e-06,0.019074,-0.006885,0.007494,0.015199
738,1.557536,-1.252758,-2.580907,0.312648,0.949851,-0.004146,0.003213,0.005357,0.019022999999999998,-0.007167,0.00921,0.017986000000000002
739,1.55778,-1.2524110000000002,-2.580931,0.31297800000000003,0.949742,-0.004074,0.002203,0.014961000000000002,0.015799,-0.009634,0.003795,0.015456999999999999
740,1.557676,-1.252111,-2.5814220000000003,0.313264,0.9496479999999999,-0.00411,0.010781,0.021335,0.012646,-0.015,0.010038,0.023122999999999998
741,1.557847,-1.2519790000000002,-2.5816939999999997,0.31339,0.949607,-0.004059,0.001204,0.019268,0.005104,-0.015065,0.013498,0.018553999999999998
742,1.558334,-1.25187,-2.581449,0.31349499999999997,0.949573,-0.003907,-0.003117,0.010748,0.008289,-0.014362,0.003919,0.010392
743,1.55873,-1.2517129999999999,-2.581375,0.313646,0.949523,-0.003785,0.004399,0.021374,0.008328,-0.008561,0.002152,0.011719
744,1.558514,-1.251511,-2.582173,0.313837,0.9494600000000001,-0.003855,0.020684,0.030306,0.011032,-0.008143000000000001,-0.001889,0.013315
745,1.557862,-1.251354,-2.5837060000000003,0.313983,0.949411,-0.004061,0.026108999999999997,0.045222000000000005,0.00571,-0.012622,0.0008460000000000001,0.018618
746,1.557558,-1.251355,-2.585099,0.313981,0.949411,-0.004157,0.020837,0.053784000000000005,0.000321,-0.017365000000000002,0.01116,0.018408
747,1.5575709999999998,-1.251327,-2.586116,0.31400900000000004,0.9494020000000001,-0.0041530000000000004,0.014369,0.043137,0.004563,-0.011504,0.010269,0.018191
748,1.5575430000000001,-1.251018,-2.586887,0.314302,0.949305,-0.0041659999999999996,0.01212,0.032432,0.019516,-0.013016999999999999,0.008718,0.017777
749,1.557344,-1.2505760000000001,-2.587745,0.31472100000000003,0.949166,-0.004234,0.017426,0.031327,0.024895,-0.019707,0.015281,0.018119
750,1.5572190000000001,-1.250119,-2.588638,0.315154,0.9490219999999999,-0.004279,0.015345,0.039869,0.021665,-0.020628999999999998,0.01045,0.019126
751,1.556972,-1.249711,-2.5896470000000003,0.31554,0.948894,-0.0043619999999999996,0.019574,0.032393,0.022772,-0.01955,0.009145,0.014815
752,1.556408,-1.249209,-2.590859,0.316015,0.948735,-0.004547,0.02398,0.026387999999999998,0.031767000000000004,-0.013281,0.005901,0.012726000000000001
753,1.55531,-1.248469,-2.592508,0.316711,0.948501,-0.004905,0.030333,0.02314,0.039293,-0.014999,0.005769,0.016364
754,1.554129,-1.24773,-2.594345,0.317407,0.9482659999999999,-0.005291,0.029324,0.032744,0.036069,-0.022165,0.011603,0.024441
755,1.553269,-1.2471729999999999,-2.596139,0.317931,0.948089,-0.005573,0.028363,0.044513,0.024297,-0.025497,0.016205,0.027225
756,1.553128,-1.246795,-2.597299,0.318288,0.9479690000000001,-0.0056240000000000005,0.015603,0.047779,0.017794,-0.026387999999999998,0.011931,0.020334
757,1.553013,-1.246504,-2.59826,0.318564,0.947876,-0.005666,0.016632,0.03607,0.014612,-0.02532,0.005447,0.014088999999999999
758,1.552835,-1.246273,-2.599157,0.318782,0.9478030000000001,-0.005726,0.014503,0.032899,0.010328,-0.026164999999999997,0.008023,0.020878
759,1.552927,-1.246215,-2.599962,0.318837,0.947784,-0.005698,0.014618,0.048916,0.0006940000000000001,-0.023045,0.016998,0.021582
760,1.553174,-1.246336,-2.600912,0.318725,0.947823,-0.0056170000000000005,0.018084,0.058917,-0.006490999999999999,-0.027785,0.019203,0.014376
761,1.553032,-1.24647,-2.602102,0.318598,0.947866,-0.00566,0.01906,0.041857,-0.003258,-0.022591999999999998,0.012019,0.007354
762,1.552713,-1.246409,-2.603118,0.318654,0.947846,-0.005763,0.017868000000000002,0.025833999999999996,0.008505,-0.009969,0.003585,0.004649
763,1.55215,-1.246169,-2.6042330000000002,0.318879,0.9477700000000001,-0.005947,0.018911,0.026869999999999998,0.01492,-0.0022129999999999997,-1.6e-05,0.010295
764,1.551757,-1.245894,-2.6053990000000002,0.319137,0.947682,-0.006077,0.021112,0.043899,0.01705,-0.007751000000000001,0.006435,0.012318
765,1.551078,-1.245557,-2.607176,0.31945100000000004,0.947574,-0.0063,0.033929,0.050233,0.020336,-0.017907,0.011852,0.011961
766,1.550117,-1.245126,-2.6092880000000003,0.31985399999999997,0.9474370000000001,-0.006615,0.030757,0.054514,0.018172,-0.023788,0.022397,0.015725
767,1.549683,-1.244725,-2.610808,0.320231,0.947308,-0.006762000000000001,0.026418,0.043855,0.023497,-0.009531999999999999,0.00687,0.007723000000000001
768,1.54885,-1.244173,-2.612368,0.32074899999999995,0.947131,-0.00704,0.025465,0.027243,0.029081,-0.010415,0.00131,0.011801
769,1.5479100000000001,-1.243627,-2.613985,0.321259,0.9469559999999999,-0.007354,0.028709,0.034697000000000006,0.026957,-0.01793,0.0013779999999999999,0.022628
770,1.547112,-1.243266,-2.615933,0.321596,0.94684,-0.007618000000000001,0.034216,0.061357,0.015211,-0.023790000000000002,0.013365,0.022007
771,1.546541,-1.243098,-2.618039,0.321751,0.946786,-0.0078060000000000004,0.034321,0.07524299999999999,0.00558,-0.025334,0.018744999999999998,0.020028
772,1.5463850000000001,-1.243056,-2.619795,0.321791,0.946772,-0.007857,0.027925,0.072087,0.001267,-0.016279,0.011739,0.019225
773,1.545964,-1.24306,-2.621428,0.321783,0.946774,-0.007992,0.026737999999999998,0.044398,0.000226,-0.015951,0.011036,0.017117
774,1.545403,-1.243064,-2.622782,0.321774,0.946775,-0.008173,0.019237,0.034845,-0.0019510000000000003,-0.019742,0.010943000000000001,0.018076
775,1.545259,-1.2432370000000001,-2.623672,0.32160900000000003,0.946831,-0.008215,0.015007,0.034894,-0.010526,-0.024093,0.009316,0.012899
776,1.545008,-1.243527,-2.624721,0.321332,0.946924,-0.008289,0.018312000000000002,0.038258,-0.011562000000000001,-0.018247,0.014319,0.014087
777,1.5451540000000001,-1.243754,-2.6253830000000002,0.32111799999999996,0.946997,-0.008236,0.0055,0.037233999999999996,-0.010582,-0.013409,0.015543000000000001,0.013973
778,1.5453219999999999,-1.243874,-2.625731,0.321006,0.9470350000000001,-0.008179,0.008556999999999999,0.015875,0.000149,-0.013663999999999999,-2.8999999999999997e-05,0.0039829999999999996
779,1.544673,-1.243749,-2.626471,0.321119,0.946995,-0.00839,0.014819,-0.0033689999999999996,0.011968000000000001,-0.012556,0.005092,0.001158
780,1.543687,-1.243463,-2.627392,0.321381,0.946903,-0.008714,0.015875999999999998,-0.003382,0.014111000000000002,-0.011658,0.0079,0.004732
781,1.542966,-1.243184,-2.6282799999999997,0.32164,0.9468129999999999,-0.008954,0.014872,0.012593,0.01622,-0.010803,0.013316,0.013881999999999999
782,1.542419,-1.2428549999999998,-2.6291860000000002,0.321946,0.946707,-0.009138,0.015939,0.014711000000000002,0.018362,-0.012787,0.012903,0.006071
783,1.541564,-1.242422,-2.6302119999999998,0.322348,0.9465680000000001,-0.009426,0.017957,-0.004497,0.02481,-0.0129,0.007273999999999999,0.000515
784,1.540171,-1.2417479999999999,-2.631218,0.322973,0.94635,-0.009894,0.01551,-0.031436,0.038547000000000005,-0.009161,-6.1e-05,0.0037909999999999997
785,1.538952,-1.2409629999999998,-2.63177,0.323702,0.9460959999999999,-0.010312,0.009081,-0.036744,0.039577999999999995,-0.008288,0.0026190000000000002,0.014569
786,1.5380209999999999,-1.240243,-2.632126,0.324374,0.9458629999999999,-0.010634999999999999,0.005971,-0.021797999999999998,0.034196,-0.012546,0.008605,0.015732
787,1.53736,-1.2397610000000001,-2.632623,0.32482300000000003,0.9457059999999999,-0.010865000000000001,0.010392,-0.002578,0.019247,-0.016352000000000002,0.014484,0.012315000000000001
788,1.5367620000000002,-1.239542,-2.633298,0.325024,0.945635,-0.011066,0.010464,0.0038520000000000004,0.009625,-0.018749000000000002,0.011366,0.015003
789,1.53652,-1.2394479999999999,-2.633505,0.32510900000000004,0.9456049999999999,-0.011148,-0.002348,-0.007783,-6.4e-05,-0.018834,0.011396,0.015085
790,1.5367879999999998,-1.23956,-2.632838,0.325006,0.945641,-0.011056999999999999,-0.013065,-0.024765000000000002,-0.0065260000000000006,-0.015496000000000001,0.003807,0.010615000000000001
791,1.537132,-1.2398129999999998,-2.631888,0.324771,0.945723,-0.010937,-0.016250999999999998,-0.026862999999999998,-0.011887,-0.010638,0.014116,0.018033
792,1.537988,-1.2400959999999999,-2.630707,0.32451199999999997,0.945815,-0.01065,-0.022547,-0.003404,-0.011961,-0.010379000000000001,0.014024000000000002,0.017746
793,1.539066,-1.2402389999999999,-2.629673,0.324388,0.9458620000000001,-0.010296,-0.010083,0.004425,0.000608,-0.010835,0.007523,0.002362
794,1.538723,-1.240089,-2.629796,0.324527,0.9458129999999999,-0.010412000000000001,0.011072,-0.023397,0.013609999999999999,-0.00867,-0.00253,0.005896
795,1.537457,-1.239696,-2.630343,0.324885,0.945685,-0.010836,0.005608,-0.042592000000000005,0.023209999999999998,-0.00799,0.000558,0.014603999999999999
796,1.536706,-1.239198,-2.630292,0.325348,0.945523,-0.011096,-0.000769,-0.036182,0.024225999999999998,-0.008026,0.001315,0.017184
