,attitude.roll,attitude.pitch,attitude.yaw,gravity.x,gravity.y,gravity.z,rotationRate.x,rotationRate.y,rotationRate.z,userAcceleration.x,userAcceleration.y,userAcceleration.z
0,3.138105,-1.3825690000000002,1.8970919999999998,0.0006519999999999999,0.9823370000000001,0.18708,0.7208220000000001,-0.071867,-0.40626,0.074528,0.190316,-0.048164
1,-3.1056220000000003,-1.398264,1.937936,-0.006173,0.9851530000000001,0.17152699999999999,0.833857,0.016815,-0.304103,-0.002983,0.082565,-0.109805
2,-3.073557,-1.416819,1.9697740000000001,-0.010424,0.9881690000000001,0.15297,1.008285,0.022093,-0.176841,-0.057234,0.058187,-0.128647
3,-3.034694,-1.439024,2.011805,-0.014013,0.991331,0.130592,1.206628,-0.275656,-0.214598,-0.058710000000000005,0.049532,-0.11759100000000001
4,-2.983038,-1.464105,2.073768,-0.016804,0.9943139999999999,0.105093,1.303939,-0.646928,-0.16003199999999998,0.073567,0.045451,-0.08058799999999999
5,-2.938967,-1.488781,2.134925,-0.016471,0.9966389999999999,0.08017300000000001,1.2616290000000001,-0.883901,-0.002995,0.079826,0.069371,-0.038212
6,-2.891639,-1.514828,2.198495,-0.01381,0.998434,0.054096000000000005,1.361876,-0.7750020000000001,0.116138,0.037689999999999994,0.084772,-0.014912
7,-2.733605,-1.542899,2.3721259999999997,-0.010981,0.999611,0.025405,1.483436,-0.817919,0.088198,-0.052633000000000006,0.07633200000000001,0.043184
8,-1.150408,-1.559387,-2.309874,-0.009937,0.999935,-0.004442,1.520761,-0.895516,0.013783000000000002,-0.068997,0.06590700000000001,0.11813499999999999
9,-0.315508,-1.53306,-1.460106,-0.011658,0.999288,-0.035716000000000005,1.582394,-0.5980260000000001,-0.10901300000000001,-0.032547,0.064387,0.160396
10,-0.209144,-1.503361,-1.346087,-0.013973,0.997727,-0.065832,1.462081,-0.283442,-0.086756,-0.008748,0.057632,0.15386
11,-0.158067,-1.476582,-1.288517,-0.014799000000000001,0.9955649999999999,-0.092843,1.292534,-0.377094,0.037162,0.038862,0.07700599999999999,0.171258
12,-0.121826,-1.4536950000000002,-1.243628,-0.014193,0.993151,-0.115923,1.101115,-0.425634,0.087161,0.05589500000000001,0.08529400000000001,0.18399200000000002
13,-0.096923,-1.432675,-1.208715,-0.013319999999999999,0.990476,-0.136999,1.0492350000000001,-0.5226029999999999,0.139266,0.048553,-0.00897,0.107397
14,-0.068767,-1.413368,-1.168079,-0.01077,0.987634,-0.156375,0.9436180000000001,-0.63565,0.262587,0.04994,-0.065469,0.161181
15,-0.038489999999999996,-1.3965809999999999,-1.124714,-0.006669,0.9848629999999999,-0.173178,0.805604,-0.6397579999999999,0.343881,0.046616000000000005,-0.071746,0.178778
16,-0.008499,-1.381873,-1.078232,-0.001596,0.9822069999999999,-0.18777,0.720874,-0.881661,0.438671,0.046976,-0.074904,0.188548
17,0.022494,-1.368408,-1.025751,0.004521,0.9795889999999999,-0.200935,0.637153,-1.117253,0.552688,0.080974,-0.06244500000000001,0.201789
18,0.051891999999999994,-1.356951,-0.9713860000000001,0.011006,0.9772219999999999,-0.211912,0.48184499999999997,-1.202138,0.6029869999999999,0.067271,-0.032367,0.22723200000000002
19,0.08280900000000001,-1.348443,-0.915219,0.018239,0.9753809999999999,-0.21974899999999997,0.336536,-1.19864,0.653242,0.020228,-0.014184,0.223381
20,0.11645599999999999,-1.341493,-0.8561340000000001,0.026407999999999997,0.973825,-0.225739,0.254114,-1.1954129999999998,0.716755,-0.034404000000000004,-0.021721999999999998,0.22348099999999999
21,0.14972,-1.3347229999999999,-0.79956,0.034884,0.9722639999999999,-0.231251,0.23043000000000002,-1.038601,0.6832739999999999,-0.084505,-0.011158,0.14816700000000002
22,0.182117,-1.3286930000000001,-0.745903,0.043417000000000004,0.970836,-0.235762,0.182617,-1.008551,0.6690149999999999,-0.083411,-0.018213999999999998,0.093932
23,0.20938099999999998,-1.323525,-0.696879,0.050871,0.969584,-0.23939699999999997,0.10714800000000001,-1.010161,0.604396,-0.062147,-0.040141,0.077974
24,0.229992,-1.320115,-0.655695,0.056547,0.968744,-0.241515,0.03223,-0.943377,0.48521499999999995,-0.0408,-0.045373000000000004,0.08557100000000001
25,0.24051199999999998,-1.317991,-0.625368,0.059575,0.9682149999999999,-0.242905,-0.001286,-0.941642,0.34717800000000004,-0.055134,-0.039182999999999996,0.10513399999999999
26,0.245479,-1.317393,-0.600421,0.060921,0.968065,-0.243168,-0.066312,-0.983808,0.292298,-0.06542200000000001,-0.038423,0.116703
27,0.2476,-1.317712,-0.576151,0.061362,0.968145,-0.24274,-0.10540899999999999,-1.1328280000000002,0.296489,-0.067053,-0.058034,0.104648
28,0.247873,-1.318957,-0.549847,0.061131,0.968456,-0.24155300000000002,-0.16608399999999998,-1.325487,0.310199,-0.034612000000000004,-0.06539500000000001,0.088416
29,0.24939,-1.321878,-0.520141,0.060799,0.9691799999999999,-0.238717,-0.276186,-1.356064,0.326561,0.012428,-0.040072,0.05964
30,0.254537,-1.326411,-0.48776400000000003,0.06092,0.9702860000000001,-0.234146,-0.332418,-1.280259,0.33248,0.008019,0.008672,0.027267000000000003
31,0.264287,-1.330654,-0.45398599999999995,0.062124,0.9713040000000001,-0.229566,-0.27171,-1.064227,0.334764,-0.039511000000000004,0.034983,-0.042773
32,0.274621,-1.331951,-0.42426,0.064152,0.971612,-0.227698,-0.071119,-0.8528180000000001,0.30598400000000003,-0.12053299999999999,0.045188,-0.15453499999999998
33,0.278633,-1.3283479999999999,-0.402866,0.066027,0.9707530000000001,-0.230805,0.20620300000000003,-0.8814280000000001,0.294071,-0.13638599999999998,0.068721,-0.18443299999999999
34,0.27163899999999996,-1.320298,-0.389729,0.066506,0.9687889999999999,-0.23878200000000002,0.41802,-1.03645,0.249815,-0.105386,0.08148899999999999,-0.155597
35,0.25945999999999997,-1.309282,-0.381858,0.066328,0.9659989999999999,-0.24987600000000001,0.538103,-0.9228120000000001,0.23234899999999997,-0.078336,0.037556,-0.035815
36,0.2485,-1.297592,-0.376673,0.066358,0.9629110000000001,-0.26151599999999997,0.5475909999999999,-0.740563,0.202271,-0.08163200000000001,0.034373,-0.011037
37,0.238806,-1.286067,-0.373048,0.066441,0.9597379999999999,-0.272913,0.544971,-0.629691,0.183951,-0.087285,0.028681,-0.0034240000000000004
38,0.22926999999999997,-1.274442,-0.370688,0.066367,0.956408,-0.284381,0.5624239999999999,-0.554079,0.174362,-0.053473,0.011961,-0.001996
39,0.221825,-1.262397,-0.368645,0.066778,0.9528209999999999,-0.296085,0.579228,-0.393212,0.157182,-0.054204999999999996,-0.005967,0.009128
40,0.217025,-1.251792,-0.36489,0.06752799999999999,0.949548,-0.306253,0.44431899999999996,-0.46426000000000006,0.19265,-0.093193,-0.05544400000000001,-0.012259
41,0.212718,-1.2451370000000002,-0.359427,0.06754099999999999,0.94744,-0.312712,0.23643899999999998,-0.46020900000000003,0.159146,-0.053595000000000004,-0.141455,0.005461
42,0.21138,-1.242664,-0.352917,0.067614,0.9466459999999999,-0.315092,0.025039,-0.297389,0.11793699999999999,-0.048602,-0.134298,0.026961000000000002
43,0.214694,-1.244238,-0.346289,0.068341,0.947152,-0.31340999999999997,-0.168993,-0.064339,0.08103099999999999,-0.054501,-0.073159,0.081827
44,0.221176,-1.249937,-0.33970300000000003,0.069185,0.948965,-0.307689,-0.384857,0.049514999999999997,0.034512,-0.072725,-0.015752000000000002,0.082531
45,0.22953800000000002,-1.259681,-0.33261199999999996,0.069648,0.951993,-0.298081,-0.5753560000000001,0.11425999999999999,-0.007494,-0.08808099999999999,0.023227,0.06881799999999999
46,0.242779,-1.273508,-0.323745,0.070418,0.956134,-0.284327,-0.796141,0.343088,-0.030694,-0.138548,0.169629,0.039514999999999995
47,0.26448499999999997,-1.2916100000000001,-0.312012,0.072035,0.9612799999999999,-0.265979,-0.979146,0.62841,-0.095363,-0.088805,0.294183,0.090473
48,0.295481,-1.311257,-0.29888000000000003,0.074728,0.966508,-0.2455,-0.9675309999999999,1.0959459999999999,-0.075584,-0.20795300000000003,0.251204,-0.074034
49,0.341575,-1.3274219999999999,-0.27113400000000004,0.080716,0.9705299999999999,-0.227043,-0.82184,0.765264,0.175821,-0.068631,0.02181,-0.142052
50,0.39215500000000003,-1.339328,-0.234579,0.08766900000000001,0.973331,-0.211977,-0.633938,0.80929,0.19203199999999998,-0.018775,-0.031421,-0.143202
51,0.44631400000000004,-1.347685,-0.199129,0.0955,0.9752139999999999,-0.199575,-0.5333720000000001,1.119953,0.204087,-0.004222,-0.088144,-0.083307
52,0.520606,-1.358242,-0.152448,0.104922,0.9774950000000001,-0.18299400000000002,-0.843648,1.611165,0.17672100000000002,-0.08327000000000001,-0.298723,0.08842
53,0.627675,-1.375964,-0.080845,0.113684,0.98108,-0.156685,-1.3184790000000002,1.983889,0.086401,-0.171957,-0.40527399999999997,0.26903499999999997
54,0.783538,-1.400994,0.031372000000000004,0.119254,0.985618,-0.119698,-1.76666,2.478407,-0.11498399999999999,-0.181372,-0.41056000000000004,0.43462399999999995
55,1.0072,-1.4294639999999998,0.207304,0.119052,0.990029,-0.075237,-2.033877,2.353586,-0.36985999999999997,-0.07464900000000001,-0.134408,0.379818
56,1.296473,-1.4555280000000002,0.456304,0.110676,0.9933639999999999,-0.031145999999999997,-1.848545,2.046039,-0.609589,0.009685,0.118575,0.23414899999999997
57,1.56851,-1.470256,0.691876,0.100325,0.99495,-0.000229,-0.9931989999999999,1.6918279999999999,-0.41728999999999994,0.11424400000000001,0.45375,-0.096832
58,1.7326400000000002,-1.47284,0.831616,0.096475,0.9952059999999999,0.015752000000000002,-0.6290720000000001,1.076962,-0.150108,0.08248,-0.018598,-0.149327
59,1.9368029999999998,-1.474386,1.0126700000000002,0.08984099999999999,0.9953559999999999,0.034434,-0.972301,1.386974,-0.38685,-0.042661000000000004,-0.18867,0.105947
60,2.216993,-1.472342,1.258265,0.07844,0.995157,0.059161,-1.094696,2.020756,-0.5327270000000001,-0.010462,-0.087885,0.134351
61,2.475192,-1.465955,1.474007,0.064661,0.994509,0.082223,-0.949167,2.153263,-0.495561,0.24555,0.042737,0.013800999999999999
62,2.66445,-1.455557,1.629875,0.052785000000000006,0.993367,0.102102,-0.8524719999999999,1.396408,-0.452255,0.47239200000000003,0.139155,-0.022451
63,2.806304,-1.445626,1.7502099999999998,0.041065,0.9921760000000001,0.117852,-0.701383,1.075205,-0.444378,0.38558600000000004,0.18066,-0.044442
64,2.9195889999999998,-1.433355,1.8389259999999998,0.030159,0.9905700000000001,0.13360999999999998,-0.788309,1.306242,-0.337391,0.21125,0.070893,-0.085774
65,2.9824450000000002,-1.419233,1.8815669999999998,0.023922,0.9885360000000001,0.149041,-0.6795100000000001,0.814926,-0.10953900000000001,0.112278,-0.032558,-0.10231900000000001
66,3.026759,-1.4081,1.9146029999999998,0.018556,0.9867940000000001,0.16088,-0.568357,0.48803500000000005,-0.242939,0.08,0.027488,-0.111472
67,3.077379,-1.3950770000000001,1.9579060000000001,0.011216,0.9846010000000001,0.174425,-0.786083,0.36988699999999997,-0.344722,0.15583699999999998,0.120853,-0.09601
68,3.127538,-1.377518,1.995845,0.002699,0.9813799999999999,0.192029,-0.945099,0.9049229999999999,-0.273879,0.14820999999999998,0.101186,-0.041883
69,-3.1031169999999997,-1.359872,2.020341,-0.008052,0.9778379999999999,0.20918299999999998,-0.820255,1.660673,-0.23338299999999998,0.070629,0.055792999999999995,-0.116577
70,-3.058436,-1.342298,2.030268,-0.018812,0.974008,0.225708,-0.912034,1.7373610000000002,-0.150801,-0.064623,0.026801,-0.24516300000000002
71,-3.015299,-1.323181,2.043089,-0.030869,0.9695,0.24311799999999997,-0.940434,1.406898,-0.335378,-0.073822,-0.017092,-0.18955999999999998
72,-2.9621470000000003,-1.304108,2.070937,-0.047033,0.964649,0.259284,-0.8450040000000001,1.2743659999999999,-0.574892,0.0651,-0.051166,-0.125129
73,-2.9030169999999997,-1.285139,2.10656,-0.06658700000000001,0.959477,0.273787,-0.8340290000000001,1.214125,-0.703993,0.22736900000000002,0.023998,-0.11738399999999999
74,-2.8499830000000004,-1.263626,2.137816,-0.086922,0.9531930000000001,0.289579,-0.974118,1.117768,-0.728349,0.315728,0.114846,-0.201139
75,-2.804989,-1.239019,2.1631009999999997,-0.107576,0.945465,0.307429,-1.070357,1.012868,-0.785502,0.322587,0.10829200000000001,-0.226771
76,-2.7638529999999997,-1.214809,2.187207,-0.12853399999999998,0.9373030000000001,0.32393099999999997,-0.920567,0.8505030000000001,-0.8045439999999999,0.298761,0.22855999999999999,-0.24789699999999998
77,-2.73073,-1.195202,2.20836,-0.146505,0.93029,0.336284,-0.641894,0.58045,-0.645223,0.238271,0.35720100000000005,-0.46546400000000004
78,-2.7056560000000003,-1.183431,2.2228779999999997,-0.159503,0.9259069999999999,0.342408,-0.330287,0.602887,-0.39952,0.207812,0.275753,-0.562837
79,-2.684736,-1.177801,2.233545,-0.168927,0.923766,0.343669,-0.045239999999999995,0.523659,-0.280992,0.23695100000000002,0.16761900000000002,-0.539043
80,-2.656828,-1.1798629999999999,2.250251,-0.177563,0.9245540000000001,0.337136,0.421439,0.71448,-0.187177,0.35390900000000003,-0.012994,-0.595986
81,-2.619936,-1.1906219999999998,2.272767,-0.184909,0.9286,0.321714,0.828981,0.83401,-0.062707,0.369831,-0.072262,-0.577345
82,-2.577362,-1.210008,2.303435,-0.188771,0.9356190000000001,0.298283,1.293277,0.555872,0.09258,0.38181,-0.090114,-0.541874
83,-2.534216,-1.2399129999999998,2.34068,-0.185405,0.9457559999999999,0.266761,1.749411,0.341864,0.467782,0.499003,0.08030599999999999,-0.429496
84,-2.507407,-1.280086,2.3675330000000003,-0.169826,0.95804,0.23088499999999998,1.907602,-0.20111400000000001,1.0506959999999999,0.5256609999999999,0.150251,-0.22531500000000002
85,-2.509289,-1.3252979999999999,2.385798,-0.143626,0.970016,0.196036,2.01985,-1.484464,1.142855,0.573954,0.174469,0.083535
86,-2.518207,-1.374068,2.411384,-0.114094,0.9807110000000001,0.15867699999999998,2.190589,-1.56449,1.293701,0.16617300000000002,0.465913,0.045455
87,-2.5193380000000003,-1.425721,2.434822,-0.084246,0.9894950000000001,0.11744500000000001,2.22503,-1.0266309999999998,1.2900479999999999,0.023316999999999997,0.6752239999999999,-0.051466
88,-2.441349,-1.472189,2.532364,-0.063412,0.995142,0.075248,2.173031,-1.042334,0.734229,-0.125431,0.9126340000000001,-0.216804
89,-2.2054720000000003,-1.505239,2.797663,-0.052704999999999995,0.9978520000000001,0.038807,1.576365,-1.715197,0.35490900000000003,-0.050062999999999996,0.9054989999999999,-0.10728800000000001
90,-1.97922,-1.528022,3.0561119999999997,-0.039166,0.999085,0.016949000000000002,1.143788,-1.2578989999999999,0.921732,0.002911,0.808425,0.237308
91,-0.596566,-1.5510540000000002,-1.830605,-0.010990999999999999,0.9998049999999999,-0.016184999999999998,1.993801,-0.413483,1.6027719999999999,-0.141536,0.552365,0.277019
92,0.331243,-1.5030860000000001,-0.890675,0.021988,0.997708,-0.063934,2.631526,-0.8719549999999999,1.683658,-0.157699,0.57593,0.146209
93,0.382716,-1.435414,-0.806653,0.050395,0.99085,-0.125184,3.159367,-1.8370919999999997,1.492029,-0.131221,0.486857,0.13398800000000002
94,0.366696,-1.376963,-0.788859,0.06905599999999999,0.981273,-0.179802,2.2704619999999998,-1.648824,1.002742,-0.09157799999999999,0.15753599999999998,-0.052055
95,0.325027,-1.336143,-0.793512,0.074244,0.9725950000000001,-0.220322,1.808664,-2.126647,0.48311000000000004,-0.019648,0.10231,0.11287
96,0.260484,-1.3073290000000002,-0.811983,0.067071,0.965493,-0.251635,1.1863540000000001,-2.383759,0.052872,0.054496,0.032325,0.14169500000000002
97,0.198299,-1.29154,-0.823635,0.0543,0.961261,-0.270231,0.6188819999999999,-2.604389,0.041713,0.083273,-0.27402,0.310591
98,0.149393,-1.2834510000000001,-0.8210850000000001,0.042181,0.959,-0.28024299999999996,0.24775300000000003,-2.417293,0.19484100000000001,-0.039739,-0.6621859999999999,0.37349
99,0.115244,-1.283842,-0.810296,0.032545,0.95911,-0.281148,-0.21205500000000002,-2.097595,0.032055,-0.089063,-0.881229,0.374898
100,0.08126,-1.293575,-0.819517,0.022215000000000002,0.9618200000000001,-0.27277399999999996,-0.646716,-0.5695020000000001,-0.24533600000000003,-0.101865,-1.398709,0.49506400000000006
101,0.07924099999999999,-1.314661,-0.823533,0.020054,0.967376,-0.25254099999999996,-1.294063,0.170153,-0.039298,0.077282,-1.133361,0.448219
102,0.10447200000000001,-1.3459290000000002,-0.805333,0.023252000000000002,0.974824,-0.221752,-1.666554,0.546802,0.13173800000000002,-0.06068099999999999,-0.762101,0.104228
103,0.154998,-1.372496,-0.769526,0.030411,0.980403,-0.194629,-1.074616,0.886115,0.27858,-0.080216,-0.370967,-0.43157700000000004
104,0.221577,-1.378023,-0.724799,0.042101,0.981477,-0.186886,0.14066700000000001,1.3009680000000001,0.441429,0.138746,-0.283448,-0.619617
105,0.285068,-1.353745,-0.693658,0.060559,0.9765370000000001,-0.20665,1.6696369999999998,1.810241,0.696079,0.23884899999999998,-0.370229,-0.318313
106,0.333546,-1.311728,-0.693832,0.08387,0.9666290000000001,-0.242054,1.76935,2.882464,0.471075,-0.332527,-1.140945,1.033634
107,0.37932899999999997,-1.3028680000000001,-0.704068,0.098027,0.9643219999999999,-0.24590700000000001,0.120395,2.611566,-0.150051,-1.8566479999999999,-1.053418,-0.296131
108,0.318391,-1.2846440000000001,-0.746505,0.088357,0.9593370000000001,-0.268069,1.508106,-3.115247,-0.580604,-0.745858,2.594908,0.702395
109,0.270884,-1.3165229999999999,-0.806739,0.06730599999999999,0.9678459999999999,-0.24236100000000002,-2.470981,1.7538169999999997,-1.0472709999999998,0.640137,0.040455,0.882986
110,0.307264,-1.350485,-0.8226319999999999,0.066093,0.9758290000000001,-0.208288,-1.584646,2.726312,-0.725064,0.050683,-0.181792,0.808355
111,0.320801,-1.411326,-0.8618809999999999,0.050067,0.9873120000000001,-0.150678,-3.293447,2.597489,-1.65871,-0.21786799999999998,0.133157,0.768506
112,0.140337,-1.483963,-1.096874,0.012126000000000001,0.996232,-0.085839,-3.028139,2.589455,-2.5424029999999997,-0.278239,1.349532,0.357415
113,-0.9567899999999999,-1.519197,-2.2193680000000002,-0.042109,0.998669,-0.029682,-2.490225,-0.22481399999999999,-2.7892759999999996,0.046992,1.6301459999999999,0.48444
114,-1.67071,-1.479806,-2.915419,-0.090378,0.9958629999999999,0.009059999999999999,-1.679631,-0.8617799999999999,-2.178184,0.347748,1.713762,0.208896
115,-1.975611,-1.430117,3.080886,-0.128861,0.9901209999999999,0.055214,-2.7736099999999997,-1.066093,-1.818095,0.60875,1.211722,-0.123116
116,-2.24748,-1.368495,2.8227330000000004,-0.156638,0.979607,0.12580999999999998,-3.6723510000000004,-0.839367,-1.261711,0.60195,1.056129,-0.408586
117,-2.419728,-1.30227,2.6607,-0.175305,0.9641629999999999,0.199126,-3.4939480000000005,-0.417608,-1.127477,0.234204,0.743265,-0.685896
118,-2.479198,-1.237354,2.592965,-0.201283,0.9449209999999999,0.25807199999999997,-3.001637,0.464487,-1.299289,0.031605,0.236765,-1.003937
119,-2.517591,-1.1812120000000002,2.5434740000000002,-0.22190900000000002,0.925067,0.30822,-2.541461,0.365912,-0.757564,0.028595,-0.143359,-0.605263
120,-2.55124,-1.138197,2.505446,-0.23336199999999999,0.9078790000000001,0.34826599999999996,-1.975107,-0.269293,-0.6406310000000001,0.27984000000000003,-0.549435,-0.503174
121,-2.573111,-1.1087639999999999,2.5020990000000003,-0.23997600000000002,0.895149,0.37564899999999996,-0.776215,-1.1582649999999999,-0.747554,0.394685,-0.72219,-1.274606
122,-2.565016,-1.097024,2.523247,-0.248721,0.8898530000000001,0.382479,-0.0035009999999999998,-0.017366999999999997,-0.615432,0.200473,-0.531867,-0.807726
123,-2.532114,-1.102351,2.541698,-0.25845100000000004,0.8922709999999999,0.370198,0.71233,1.093936,0.039760000000000004,0.263227,-0.74359,-0.49149
124,-2.492665,-1.122496,2.5714799999999998,-0.261932,0.901185,0.345323,1.598824,0.370683,0.053288,0.396011,-1.017655,-0.465395
125,-2.435351,-1.157189,2.628151,-0.260827,0.9156770000000001,0.305771,2.24898,0.193953,0.262086,0.25574600000000003,-0.694867,-0.800705
126,-2.3766119999999997,-1.1956069999999999,2.6957430000000002,-0.253766,0.9304379999999999,0.264346,2.3248450000000003,-0.40534699999999996,0.34991,0.175824,-0.77283,-0.750186
127,-2.3186419999999996,-1.235606,2.774148,-0.241162,0.944348,0.22369699999999998,2.4259939999999998,-0.9403,0.5745600000000001,0.147137,-0.7476010000000001,-0.361819
128,-2.234682,-1.286134,2.8761,-0.22117399999999998,0.959757,0.173035,3.157322,-0.263344,1.144959,0.10786199999999999,0.10475799999999999,0.24552800000000002
129,-2.0593220000000003,-1.3490309999999999,3.063615,-0.194207,0.975511,0.10322,3.875952,-1.098695,1.364694,0.30549,1.203994,0.261892
130,-1.7600639999999999,-1.3877899999999999,-2.8551830000000002,-0.178716,0.983301,0.034235,3.932638,-3.325486,-0.189525,0.149587,3.4357050000000005,0.15350899999999998
131,-1.513303,-1.362117,-2.559077,-0.206808,0.978305,-0.011903,2.192282,-1.414686,-1.7989849999999998,-0.153361,2.713345,0.202577
132,-1.34694,-1.3310170000000001,-2.395227,-0.231548,0.97139,-0.05271699999999999,2.1160080000000003,1.4023729999999999,-0.520193,-1.7374459999999998,1.7776330000000002,0.644163
133,-1.046981,-1.33463,-2.1148849999999997,-0.202593,0.972242,-0.117026,3.48316,0.866727,1.707672,-0.817228,0.6078819999999999,-0.140375
134,-0.775511,-1.306753,-1.837121,-0.182703,0.9653430000000001,-0.186352,3.344325,-0.184371,0.681488,0.285715,0.22313400000000003,0.042874
135,-0.66462,-1.27254,-1.7159220000000002,-0.181232,0.95585,-0.2313,1.950445,-0.25151999999999997,-0.23081,0.6229279999999999,-0.046274,0.312492
136,-0.6454770000000001,-1.237214,-1.6688180000000001,-0.196971,0.944875,-0.261549,1.715159,-1.794427,-0.46228100000000005,0.8300270000000001,-0.103735,0.792097
137,-0.639408,-1.21341,-1.620084,-0.20874499999999999,0.9368139999999999,-0.28071199999999996,1.2764790000000001,-2.066375,0.259258,0.6746409999999999,-0.453111,0.8456540000000001
138,-0.623787,-1.204468,-1.566411,-0.20922,0.933649,-0.29072800000000004,0.691068,-1.231395,0.548928,0.101096,-1.198175,1.028826
139,-0.603382,-1.212058,-1.535092,-0.199217,0.93634,-0.289092,-0.533468,-0.216108,0.7911739999999999,0.46308699999999997,-1.845932,0.992828
140,-0.628414,-1.245376,-1.550764,-0.18793900000000002,0.947516,-0.25862399999999997,-1.916675,-0.702904,0.6496770000000001,0.690106,-1.4016790000000001,0.774096
141,-0.678717,-1.2824879999999999,-1.60979,-0.17849500000000001,0.958726,-0.221309,-2.003077,1.138332,0.34868000000000005,0.43952700000000006,-1.241075,0.445812
142,-0.685174,-1.3195780000000001,-1.6699959999999998,-0.157299,0.9686100000000001,-0.192472,-1.91785,3.3439410000000005,0.685075,-0.382481,-0.6961189999999999,-0.646456
143,-0.647805,-1.355661,-1.705589,-0.128813,0.9769479999999999,-0.170219,-1.4032209999999998,3.3266940000000003,0.8222200000000001,-0.12288099999999999,-0.337604,-0.907158
144,-0.5805100000000001,-1.3753,-1.682837,-0.10653,0.980951,-0.162418,-0.148208,1.633234,0.717788,0.001626,-0.238871,-0.795132
145,-0.466761,-1.365836,-1.58579,-0.09158,0.9790690000000001,-0.18174400000000002,1.5343229999999999,0.707871,0.501059,0.16386099999999998,-0.30801799999999996,-0.020313
146,-0.346231,-1.32639,-1.485356,-0.082113,0.970281,-0.22760999999999998,2.132398,1.363731,0.070698,-0.14818800000000001,-1.201711,1.455759
147,-0.342192,-1.320851,-1.503674,-0.082996,0.9689260000000001,-0.23299899999999998,-0.562384,1.281893,-0.303739,-0.660519,-1.560173,1.525282
148,-0.34873699999999996,-1.303065,-1.496533,-0.090394,0.964374,-0.24861,2.453056,-1.777506,-1.070308,-0.30247399999999997,3.014157,2.24507
149,-0.529927,-1.3036940000000001,-1.680432,-0.133407,0.96454,-0.227728,-2.258364,-0.120679,-1.328599,0.507003,0.313292,1.770559
150,-0.587705,-1.32825,-1.7872299999999999,-0.133159,0.9707290000000001,-0.19986800000000002,-2.04947,2.863929,-0.903675,0.752742,-0.27943,0.45237
151,-0.9137639999999999,-1.351158,-2.161149,-0.172506,0.9759760000000001,-0.13306400000000002,-4.398527,1.520248,-3.034509,-0.6590520000000001,1.170005,1.605828
152,-1.261319,-1.333006,-2.526222,-0.224352,0.9718610000000001,-0.071737,-2.5827150000000003,-0.566467,-2.252169,0.399889,2.497255,-0.13833099999999998
153,-1.561072,-1.305389,-2.770757,-0.262276,0.964986,-0.0025510000000000003,-3.00343,-4.128448000000001,-1.6972040000000002,0.437813,2.50413,-0.207517
154,-1.8105259999999999,-1.272273,-2.96053,-0.285686,0.955772,0.06982999999999999,-2.771447,-2.927998,-1.071144,0.573924,1.322396,-0.404623
155,-2.047086,-1.2382229999999999,3.128,-0.29012899999999997,0.945205,0.149679,-3.6504190000000003,-2.300838,-0.238465,-1.219881,0.498474,-1.136007
156,-2.220805,-1.20315,2.971384,-0.286117,0.933176,0.217511,-2.914396,-0.5110680000000001,0.161762,-1.1344610000000002,0.18369100000000002,-0.9950379999999999
157,-2.3011340000000002,-1.167555,2.865884,-0.29231,0.919794,0.261772,-2.499271,1.161928,-0.32566,-0.13475299999999998,-0.092584,-0.814002
158,-2.3264009999999997,-1.135542,2.823394,-0.306886,0.9067629999999999,0.289124,-1.1827940000000001,0.5091359999999999,-0.7226199999999999,0.780412,-0.854608,-0.7990109999999999
159,-2.326152,-1.116121,2.8202580000000004,-0.319721,0.8984040000000001,0.301065,-0.446114,-0.00509,-0.637767,0.821308,-0.874966,-1.006067
160,-2.304294,-1.108018,2.838373,-0.331621,0.894816,0.298869,0.158885,0.4299,-0.45250200000000007,0.5660569999999999,-0.602305,-0.740718
161,-2.2952049999999997,-1.105327,2.8443680000000002,-0.33612600000000004,0.893611,0.297437,-0.007959,0.028321,-0.049365,0.6856899999999999,-0.960292,-0.213621
162,-2.281371,-1.1128559999999998,2.8564849999999997,-0.335099,0.896965,0.28836300000000004,0.818674,0.395448,0.131127,0.682191,-0.997582,-0.44473500000000005
163,-2.240171,-1.128846,2.892317,-0.3354,0.903919,0.265381,1.179492,0.198205,0.126423,0.334546,-0.686909,-0.777115
164,-2.202914,-1.149015,2.943458,-0.330275,0.9123610000000001,0.24188099999999998,1.7277360000000002,-0.7540439999999999,0.15711,0.241087,-0.751518,-0.47038199999999997
165,-2.140634,-1.176974,3.030078,-0.32308000000000003,0.923449,0.20701,2.456899,-0.828189,0.217846,0.261038,-0.7370479999999999,-0.47293999999999997
166,-2.04183,-1.210209,-3.134536,-0.314391,0.9356899999999999,0.160109,2.825652,-0.44902700000000006,0.449603,0.077926,-0.543371,-0.548003
167,-1.9036,-1.246948,-2.9856979999999997,-0.300745,0.948018,0.10395599999999999,3.214011,0.210531,0.873418,-0.080542,0.450847,-0.07221699999999999
168,-1.7031939999999999,-1.288645,-2.7644189999999997,-0.275972,0.9604590000000001,0.036752999999999994,4.0499279999999995,-1.462939,1.4603780000000002,0.123277,1.877768,0.641393
169,-1.4458030000000002,-1.3108520000000001,-2.447076,-0.255008,0.966404,-0.032041,3.704301,-2.270074,0.875749,-0.78056,3.9999809999999996,0.270521
170,-1.236484,-1.329936,-2.222352,-0.225318,0.971133,-0.078264,2.046589,0.878663,1.8332849999999998,-0.8443379999999999,1.8374759999999999,0.26375
171,-0.992316,-1.3524530000000001,-2.016491,-0.181355,0.976258,-0.118425,1.692943,1.9835080000000003,2.100727,-0.998943,1.398269,0.363023
172,-0.696136,-1.3341290000000001,-1.719875,-0.150344,0.972125,-0.179901,3.785992,-0.08066799999999999,1.270892,-0.497514,0.958448,0.154205
173,-0.492101,-1.28597,-1.496513,-0.132757,0.9597110000000001,-0.24764,3.054408,-0.987981,0.764881,0.38555,0.44306,-0.295954
174,-0.451138,-1.247372,-1.412028,-0.138561,0.948153,-0.286011,1.961438,-2.354148,-0.030418999999999998,0.6948810000000001,0.1331,0.23826599999999998
175,-0.475677,-1.2155340000000001,-1.37205,-0.15928499999999998,0.9375549999999999,-0.309215,1.580159,-3.5961309999999997,0.0016239999999999998,0.482314,-0.265329,0.8375959999999999
176,-0.513671,-1.1937,-1.32726,-0.18093299999999998,0.929738,-0.320696,1.200968,-3.8570620000000004,0.31443499999999996,-0.104696,-1.356969,1.1878229999999999
177,-0.529343,-1.182243,-1.295796,-0.191303,0.925458,-0.326995,0.492938,-1.154253,0.07849500000000001,-0.169933,-1.7210509999999999,1.12361
178,-0.536602,-1.1927510000000001,-1.30694,-0.18869,0.9293879999999999,-0.317222,-1.3553950000000001,0.5358470000000001,0.205492,0.394119,-1.633291,1.0392219999999999
179,-0.5788369999999999,-1.231326,-1.360085,-0.18215699999999999,0.942931,-0.278737,-2.386156,0.51277,0.21007199999999998,0.167417,-1.1512440000000002,0.473775
180,-0.614082,-1.2756299999999998,-1.4295010000000001,-0.167613,0.9567540000000001,-0.23774499999999998,-2.410561,2.262975,0.507829,0.027781999999999998,-0.949628,0.093611
181,-0.59622,-1.320516,-1.476353,-0.139069,0.968843,-0.204934,-2.027822,3.500218,0.8603620000000001,0.000549,-0.31907800000000003,-0.8600530000000001
182,-0.539281,-1.352951,-1.478373,-0.110979,0.9763649999999999,-0.185443,-0.9288879999999999,2.310779,0.854607,0.27643,-0.094438,-0.905804
183,-0.443762,-1.359779,-1.407194,-0.089922,0.9778180000000001,-0.189155,0.6449560000000001,0.8599829999999999,0.794821,0.319231,-0.311162,-0.192406
184,-0.314607,-1.338069,-1.2965,-0.071364,0.9730409999999999,-0.219302,1.845,1.412332,0.686059,0.143401,-1.014804,1.029025
185,-0.25688,-1.3287950000000002,-1.2623229999999999,-0.06088300000000001,0.9708600000000001,-0.23177199999999998,-0.8329469999999999,0.871873,-0.096801,-0.618576,-2.009618,1.7894349999999999
186,-0.274179,-1.366693,-1.294901,-0.054876,0.979243,-0.195105,-1.631083,0.733874,0.738492,-3.5926769999999997,0.812184,-6.539804
187,-0.322814,-1.322065,-1.302147,-0.078092,0.969226,-0.233448,-0.54342,0.960211,-2.721649,-0.182635,2.222043,5.098896
188,-0.7398100000000001,-1.378982,-1.779638,-0.12850899999999998,0.9816600000000001,-0.140795,-4.463785,2.1455759999999997,-1.650284,-0.49087600000000003,0.9307549999999999,3.086687
189,-0.949585,-1.388727,-2.071573,-0.147223,0.9834709999999999,-0.105374,-2.367436,3.347951,-2.320843,0.574805,0.8309059999999999,1.2032889999999998
190,-1.351876,-1.3655709999999999,-2.493975,-0.198907,0.979015,-0.044254,-3.3212800000000002,-0.48033000000000003,-2.10682,-0.12162,2.12682,1.225574
191,-1.670937,-1.339234,-2.802437,-0.22833299999999998,0.973309,0.022941999999999997,-3.168034,-1.327234,-1.439162,0.519898,2.554569,-0.6112449999999999
192,-1.912007,-1.2969950000000001,-3.006267,-0.25479,0.96275,0.090476,-2.713142,-2.627534,-1.401203,0.74243,1.99187,-0.7787689999999999
193,-2.11596,-1.252932,3.12492,-0.267221,0.9499049999999999,0.16206199999999998,-3.2067330000000003,-2.89242,-0.7996979999999999,-0.543387,0.728348,-1.243834
194,-2.297926,-1.204366,2.968468,-0.26765900000000004,0.9336120000000001,0.23815300000000003,-3.501326,-0.521995,-0.059174000000000004,-0.905803,0.297207,-0.9356629999999999
195,-2.364976,-1.161322,2.849792,-0.279026,0.91733,0.28397,-2.9024389999999998,3.0905139999999998,-0.085257,-0.455746,0.151426,-0.9278299999999999
196,-2.381641,-1.121532,2.784968,-0.299176,0.900767,0.314804,-1.865906,1.228151,-0.651402,0.615323,-0.862452,-0.6599729999999999
197,-2.378523,-1.09927,2.791052,-0.31394099999999997,0.890876,0.328283,-0.11336099999999999,-0.5675100000000001,-0.9370299999999999,0.9499270000000001,-0.484687,-0.9843350000000001
198,-2.360011,-1.091289,2.815236,-0.324962,0.887222,0.327452,0.083819,0.194385,-0.36513,0.814754,-0.4189,-0.642668
199,-2.3500080000000003,-1.0934,2.814514,-0.326889,0.888194,0.322869,0.179499,0.506854,0.26432,0.47936999999999996,-0.854991,-0.352074
200,-2.330286,-1.107063,2.8297,-0.32436,0.894389,0.30797399999999997,1.081576,0.309101,0.184349,0.311924,-0.8725379999999999,-0.744131
201,-2.2860709999999997,-1.128495,2.87492,-0.323108,0.903769,0.280698,1.583318,-0.147322,0.137164,0.209614,-0.7217319999999999,-0.752789
202,-2.244965,-1.154303,2.9377009999999997,-0.316038,0.9145129999999999,0.25253400000000004,2.023489,-0.9478639999999999,0.151946,0.202452,-0.730416,-0.449586
203,-2.174768,-1.186587,3.02829,-0.308502,0.9270950000000001,0.21286100000000002,2.575357,-0.492342,0.31011,-0.026246,-0.632997,-0.5659489999999999
204,-2.068579,-1.222104,-3.134272,-0.300191,0.9398200000000001,0.163131,2.839687,-0.199701,0.424813,-0.150539,-0.38516300000000003,-0.244598
205,-1.911876,-1.2608620000000001,-2.976884,-0.28741,0.952354,0.102017,3.3669629999999997,0.6219060000000001,0.962622,-0.148457,0.725228,0.14954
206,-1.6865970000000001,-1.3016969999999999,-2.723138,-0.264065,0.9640110000000001,0.030716000000000004,4.596924,-2.239545,0.991972,-0.027027,2.695718,0.209411
207,-1.437985,-1.305931,-2.406488,-0.259457,0.9651280000000001,-0.034663,3.33618,-1.965825,0.23505900000000002,-0.674991,4.137014,0.191737
208,-1.189909,-1.319844,-2.1863669999999997,-0.230515,0.968676,-0.092308,2.233965,3.5670550000000003,1.761714,-0.995239,2.147641,0.258751
209,-0.919493,-1.332273,-1.987909,-0.187889,0.9716879999999999,-0.14322100000000001,1.628292,3.228971,1.585933,-1.011772,1.487922,0.010393000000000001
210,-0.713262,-1.335564,-1.795202,-0.152488,0.97246,-0.176242,1.521965,-0.37388299999999997,1.7009020000000001,0.099982,1.013868,-0.21935700000000002
211,-0.579188,-1.315385,-1.614458,-0.138275,0.9675590000000001,-0.211427,2.4944189999999997,-2.294654,0.6130909999999999,0.762207,0.412033,0.77144
212,-0.507396,-1.276593,-1.4922799999999998,-0.140895,0.957033,-0.253434,2.352562,-2.553963,0.581454,0.743404,-0.25345100000000004,0.962357
213,-0.44957700000000006,-1.2530459999999999,-1.381952,-0.135773,0.949941,-0.281375,1.496833,-2.111811,1.0406549999999999,0.285858,-0.8916370000000001,1.12012
214,-0.41115,-1.2387270000000001,-1.306176,-0.13028599999999999,0.94537,-0.298822,0.894652,-1.246063,0.578141,-0.48828999999999995,-1.797192,1.212091
215,-0.40224299999999996,-1.241167,-1.287181,-0.126716,0.9461620000000001,-0.297848,-0.627671,-0.11983599999999998,0.242393,0.120323,-1.925227,0.974575
216,-0.43224399999999996,-1.271695,-1.321001,-0.123432,0.9556020000000001,-0.26755100000000004,-2.044937,0.335294,0.07488099999999999,0.176731,-1.6981549999999999,0.783145
217,-0.47420100000000004,-1.314243,-1.388126,-0.11586199999999999,0.9672700000000001,-0.225737,-2.400369,1.636633,0.223487,0.081927,-1.20691,0.10243
218,-0.47348,-1.362532,-1.437694,-0.09427200000000001,0.978391,-0.183999,-2.3334770000000002,2.842148,0.791771,-0.007962,-0.773634,-0.526877
219,-0.406328,-1.401689,-1.42315,-0.066511,0.985735,-0.154578,-1.2480069999999999,2.241865,1.049018,0.15917699999999999,-0.323077,-0.9185719999999999
220,-0.269348,-1.415103,-1.3113920000000001,-0.041257,0.9879040000000001,-0.149451,0.270696,0.92737,1.050629,0.247556,-0.070668,-0.662179
221,-0.120978,-1.391704,-1.175801,-0.021496,0.9840059999999999,-0.176814,1.967925,0.538284,0.7104689999999999,0.061336,-0.170209,-0.400212
222,-0.049388999999999995,-1.34323,-1.1215549999999999,-0.011137000000000001,0.974218,-0.22531700000000002,2.2769369999999998,1.492068,0.086496,0.01985,-0.798635,0.96955
223,-0.026871,-1.326491,-1.136107,-0.006498,0.970306,-0.24178200000000002,0.40523400000000004,1.8046400000000002,-0.000686,-2.864916,1.423783,-3.100702
224,-0.082508,-1.298209,-1.169408,-0.022187000000000002,0.9630780000000001,-0.268296,1.219841,-1.276057,-1.789934,-1.246322,2.95512,0.24493499999999999
225,-0.211216,-1.32585,-1.301351,-0.050838,0.97015,-0.23710100000000003,-1.9831869999999998,0.555326,-0.390714,0.456554,0.075458,2.209391
226,-0.291797,-1.3686610000000001,-1.438258,-0.057749,0.97964,-0.19225799999999998,-3.2342310000000003,3.312555,-1.7756509999999999,-0.342688,-0.128322,0.993085
227,-0.793949,-1.410005,-2.0210169999999996,-0.11415299999999999,0.987101,-0.11221800000000001,-4.366937,3.6370690000000003,-4.154363,-1.422727,2.2526599999999997,1.140614
228,-1.262564,-1.382152,-2.506884,-0.178668,0.982259,-0.056884000000000004,-2.530602,-2.33494,-2.799675,-0.75369,2.981486,0.410171
229,-1.663417,-1.340769,-2.813486,-0.22700700000000001,0.9736600000000001,0.021086,-2.769286,-4.649659,-2.0922810000000003,1.639788,1.729602,-0.27767800000000004
230,-1.9036520000000001,-1.3030979999999999,-3.0018990000000003,-0.249977,0.964382,0.086422,-3.074018,-2.570068,-0.8077310000000001,0.134483,0.78809,-0.6147729999999999
231,-2.167543,-1.268661,3.048238,-0.246117,0.9547030000000001,0.167205,-3.711588,-1.20525,0.22651500000000002,-0.529914,0.446298,-1.01773
232,-2.319602,-1.23136,2.882567,-0.24387899999999998,0.9429420000000001,0.22665300000000002,-3.009514,0.9907370000000001,0.037393,-0.703951,-0.076762,-0.9416190000000001
233,-2.385218,-1.189822,2.7866419999999996,-0.255169,0.9283030000000001,0.270428,-2.2374650000000003,0.824105,-0.518885,0.196346,-0.325764,-0.532971
234,-2.402628,-1.156612,2.763347,-0.271045,0.9154450000000001,0.297462,-1.204193,-0.032796,-0.7765569999999999,0.46583900000000006,-0.765115,-0.751396
235,-2.396268,-1.139559,2.769159,-0.283479,0.908449,0.30716,-0.193275,0.23582199999999998,-0.629903,0.7020890000000001,-0.8608110000000001,-0.9533860000000001
236,-2.3769,-1.133378,2.783587,-0.293257,0.905848,0.305659,0.044226,0.267627,-0.26508899999999996,0.689924,-0.719828,-0.34901
237,-2.3553740000000003,-1.139429,2.801591,-0.295883,0.9083950000000001,0.295398,0.780001,0.449349,0.005804999999999999,0.677032,-0.8395469999999999,-0.35416
238,-2.309307,-1.154669,2.836056,-0.29889899999999997,0.9146610000000001,0.272106,1.130215,0.616016,0.113792,0.403208,-0.7071109999999999,-0.766278
239,-2.269149,-1.177484,2.884559,-0.29352,0.923645,0.246403,1.772256,-0.667453,0.308996,0.367265,-0.644439,-0.5611149999999999
240,-2.210626,-1.211524,2.966866,-0.282034,0.936153,0.209912,2.467034,-0.950606,0.45308100000000007,0.364782,-0.6755939999999999,-0.439007
241,-2.117377,-1.250652,3.08406,-0.268838,0.94919,0.16356400000000001,2.80246,-0.774205,0.537451,0.038521,-0.6467149999999999,-0.575002
242,-1.984157,-1.285978,-3.045068,-0.2573,0.9597129999999999,0.11285999999999999,2.9159740000000003,-0.6808529999999999,0.5370560000000001,-0.22509200000000001,-0.287273,-0.160803
243,-1.774993,-1.321674,-2.8230619999999997,-0.24140999999999999,0.9691290000000001,0.049992,3.689307,-0.029151999999999997,0.993481,-0.239242,0.32061999999999996,0.23984899999999998
244,-1.437798,-1.349405,-2.449593,-0.21762600000000001,0.975593,-0.029116000000000003,4.974839,-2.471727,1.185051,-0.191004,4.002831,0.654803
245,-1.0991,-1.3423450000000001,-2.058094,-0.201721,0.974018,-0.102898,3.2033810000000003,-1.097911,1.220055,-1.0253299999999999,2.989452,0.067467
246,-0.8163,-1.352489,-1.80385,-0.157788,0.9762649999999999,-0.148325,1.434251,3.3022400000000003,2.345057,-0.868275,1.793037,0.18374100000000002
247,-0.500707,-1.354918,-1.524426,-0.10281900000000001,0.9767889999999999,-0.187893,2.468448,0.607362,2.180546,-0.795496,1.265307,0.061108
248,-0.29118299999999997,-1.303134,-1.297562,-0.075924,0.964392,-0.253331,3.437702,-0.7321880000000001,1.199859,0.361736,0.44638999999999995,0.123982
249,-0.23280100000000004,-1.252184,-1.203891,-0.072265,0.9496709999999999,-0.304788,2.565472,-2.252,0.274907,0.68045,0.138601,0.390237
250,-0.26402800000000004,-1.209386,-1.182295,-0.092275,0.935399,-0.341331,1.8973520000000001,-2.850429,-0.274855,0.6714680000000001,-0.21928899999999998,0.481224
251,-0.305768,-1.184801,-1.159564,-0.113328,0.926424,-0.359011,0.94191,-3.1656,0.24871300000000002,0.122697,-0.754976,1.09627
252,-0.327045,-1.1748889999999999,-1.134396,-0.123884,0.9226469999999999,-0.365197,0.464555,-1.4368459999999998,0.17693399999999998,-0.449129,-1.628519,1.1770399999999999
253,-0.33060100000000003,-1.175583,-1.143309,-0.124974,0.9229149999999999,-0.364148,-0.639238,1.172955,-0.16633699999999998,-0.042171,-2.114855,1.3262450000000001
254,-0.351962,-1.212469,-1.1807969999999999,-0.1209,0.936485,-0.329201,-2.5598549999999998,0.080776,-0.032007,0.44756,-1.5783,1.0529709999999999
255,-0.399511,-1.263997,-1.2376790000000002,-0.117467,0.953305,-0.278215,-2.674044,0.788616,0.208775,0.325063,-0.9756440000000001,0.35081599999999996
256,-0.38841,-1.312397,-1.2691629999999998,-0.09676900000000001,0.9668,-0.23648400000000003,-2.240267,2.862332,0.7250989999999999,0.038541000000000006,-0.663547,-0.37698000000000004
257,-0.302009,-1.350847,-1.249265,-0.064889,0.975909,-0.208286,-1.356109,3.233425,0.9294879999999999,0.144097,-0.24177800000000002,-0.9606290000000001
258,-0.186443,-1.3687850000000001,-1.175342,-0.037188,0.979665,-0.197142,-0.268456,1.482426,0.973512,0.19446,-0.065084,-0.8881700000000001
259,-0.08264099999999999,-1.3569959999999999,-1.085491,-0.017513,0.977232,-0.21143,1.3249790000000001,0.400919,0.72111,0.14384,-0.212812,-0.648189
260,-0.017356,-1.315558,-1.038907,-0.004382,0.9676030000000001,-0.252421,2.2482919999999997,1.92297,0.24490900000000002,-0.395048,-1.363248,2.092982
261,0.019863,-1.306301,-1.052399,0.0051920000000000004,0.965225,-0.261355,-0.455682,2.5372209999999997,-0.237306,-1.082768,-1.6457970000000002,1.781222
262,0.032256,-1.298591,-0.994555,0.00867,0.9631799999999999,-0.268701,1.950708,-6.778272,0.7859550000000001,-3.040653,3.034745,-4.083243
263,-0.10716600000000001,-1.3331110000000002,-1.131838,-0.025182,0.971886,-0.23408400000000001,-3.317539,1.4833049999999999,-1.9245139999999998,0.502935,0.870049,4.038146
264,-0.129501,-1.375448,-1.223742,-0.025064,0.98098,-0.192459,-2.006436,4.395656,-0.6372220000000001,0.822717,-0.362831,0.325989
265,-0.462631,-1.431054,-1.634903,-0.062149,0.990252,-0.12461400000000002,-4.461715,2.780926,-3.6230279999999997,-0.008468999999999999,0.6807529999999999,0.974132
266,-1.094302,-1.43181,-2.293259,-0.123074,0.9903569999999999,-0.063526,-2.034133,-0.658366,-2.387095,-0.010639000000000001,2.683547,-0.035274
267,-1.524306,-1.400382,-2.6561619999999997,-0.169375,0.9855149999999999,-0.00788,-2.740746,-4.405113,-2.264385,0.840518,2.2408490000000003,-0.46
268,-1.8793790000000001,-1.3597489999999999,-2.954227,-0.19956300000000002,0.9778120000000001,0.063614,-3.471178,-2.5944990000000003,-1.011305,0.170129,1.143205,-0.534561
269,-2.200605,-1.315874,3.0323279999999997,-0.203769,0.967683,0.14851099999999998,-4.153235,-0.906913,-0.20210999999999998,-0.368436,0.9229120000000001,-1.115842
270,-2.3897630000000003,-1.2649139999999999,2.832627,-0.205652,0.9535819999999999,0.219944,-3.43719,0.800429,0.049599000000000004,-1.016989,0.37561100000000003,-1.093525
271,-2.47202,-1.213376,2.712463,-0.217127,0.936803,0.274304,-2.929405,1.528043,-0.397507,0.143031,-0.271016,-0.573666
272,-2.501356,-1.170698,2.669618,-0.232675,0.9210229999999999,0.31235300000000005,-1.692836,-0.042769,-0.7874399999999999,0.599176,-0.9468559999999999,-1.15125
273,-2.499896,-1.1517389999999998,2.6799209999999998,-0.24354099999999998,0.913473,0.325945,-0.19328499999999998,-0.366609,-0.756255,0.784922,-0.810171,-1.3946399999999999
274,-2.4800419999999996,-1.1467120000000002,2.699046,-0.252782,0.911416,0.324665,0.131995,0.43628500000000003,-0.158944,0.529622,-0.703591,-0.46564099999999997
275,-2.463934,-1.153867,2.702925,-0.25388299999999997,0.9143370000000001,0.31546199999999996,0.617683,0.66305,0.253287,0.48377200000000004,-0.948471,-0.391176
276,-2.410937,-1.175545,2.743695,-0.256947,0.9229,0.28673899999999997,1.624159,0.713913,-0.018553,0.32005700000000004,-1.09035,-0.585018
277,-2.357323,-1.201675,2.804794,-0.254818,0.9326450000000001,0.255394,1.8541330000000003,-0.6447390000000001,0.154641,0.38012399999999996,-0.657315,-0.59359
278,-2.297587,-1.23529,2.883315,-0.246034,0.9442440000000001,0.21876199999999998,2.254444,-0.600194,0.38918400000000003,0.381425,-0.7083430000000001,-0.484051
279,-2.214547,-1.274437,2.9799889999999998,-0.233569,0.956406,0.175268,2.4997689999999997,-0.371922,0.633092,0.153521,-0.781723,-0.5449729999999999
280,-2.090062,-1.315336,3.119668,-0.219358,0.9675469999999999,0.125382,2.888009,-0.537713,0.731088,-0.23123400000000002,0.780027,0.205947
281,-1.8616119999999998,-1.359669,-2.925109,-0.200734,0.9777950000000001,0.060079999999999995,3.6835,-0.273466,1.0920239999999999,0.06329800000000001,1.2674290000000001,0.6824279999999999
282,-1.435929,-1.386742,-2.448257,-0.181323,0.98311,-0.024604,5.328636,-3.3060910000000003,0.677976,0.043994,2.485366,0.6381899999999999
283,-1.0461280000000002,-1.371983,-2.010169,-0.170916,0.980302,-0.098922,3.155494,-0.29488200000000003,1.0445659999999999,-1.0195290000000001,2.195373,0.142974
284,-0.728049,-1.3712010000000001,-1.735009,-0.131916,0.9801469999999999,-0.14798599999999998,1.6467939999999999,3.390625,1.9052470000000001,-1.1649129999999999,1.9274,0.278006
285,-0.434717,-1.354315,-1.473454,-0.090452,0.976659,-0.194795,2.895165,0.719055,1.58731,-0.9764729999999999,1.516398,0.105547
286,-0.250938,-1.3004069999999999,-1.283792,-0.066322,0.963667,-0.25872399999999995,3.11212,-0.460872,1.033794,0.472099,0.5991989999999999,-0.005634
287,-0.213299,-1.2497120000000002,-1.219755,-0.066804,0.948894,-0.308429,2.372823,-1.46939,0.003361,0.811265,-0.000285,0.510074
288,-0.238004,-1.209492,-1.200114,-0.083338,0.935436,-0.343518,1.8627490000000002,-2.59512,-0.153652,0.768061,-0.049694,0.772519
289,-0.27007600000000004,-1.181,-1.1684459999999999,-0.101383,0.9249870000000001,-0.366214,1.331932,-3.315786,0.4407,-0.036099,-0.876235,1.388416
290,-0.288062,-1.16652,-1.134664,-0.111747,0.9193870000000001,-0.377136,0.539366,-1.5153860000000001,0.307875,-0.167184,-2.280883,1.461624
291,-0.281531,-1.173174,-1.131886,-0.107579,0.921984,-0.37197199999999997,-1.006307,1.037535,0.185916,0.19430999999999998,-2.367434,1.3665399999999999
292,-0.283461,-1.220461,-1.1478620000000002,-0.095986,0.939258,-0.329504,-2.938403,0.350819,0.43181,0.276467,-1.212756,0.484472
293,-0.293338,-1.279146,-1.1778680000000001,-0.083135,0.9577709999999999,-0.27523400000000003,-2.807101,1.507439,0.385312,0.069997,-1.018623,0.059475
294,-0.257891,-1.330064,-1.195381,-0.0608,0.9711639999999999,-0.23050900000000002,-2.3124119999999997,3.1916439999999997,0.48808999999999997,-0.152747,-0.5618920000000001,-0.7063510000000001
295,-0.183204,-1.3665260000000001,-1.188045,-0.036951,0.979209,-0.199431,-1.337367,3.1849939999999997,0.50666,0.336008,0.065148,-1.048692
296,-0.086842,-1.3755870000000001,-1.1328129999999998,-0.016821,0.981007,-0.193212,0.178306,1.327755,0.640336,0.137152,0.07104099999999999,-0.806513
297,-0.017817,-1.354067,-1.066878,-0.003831,0.976606,-0.21497800000000003,1.795841,-0.360794,0.591841,-0.004638000000000001,-0.141782,-0.533924
298,0.025646,-1.294044,-1.036144,0.007006,0.9619479999999999,-0.273125,3.414028,2.534713,0.23303400000000002,-0.183535,-0.065189,1.3833090000000001
299,0.061316999999999997,-1.253456,-1.05148,0.019119999999999998,0.950069,-0.31144,1.337504,-0.129131,-0.465992,-2.853425,1.149434,-0.669395
300,-0.058998,-1.240059,-1.113361,-0.019147,0.9458030000000001,-0.324162,-0.52857,-0.862355,-1.432009,-0.22247600000000003,-0.725939,1.798497
301,-0.153225,-1.2942200000000001,-1.241702,-0.041674,0.961996,-0.26984600000000003,-3.9527370000000004,2.159843,-1.396775,0.645937,-1.670828,2.655558
302,-0.308567,-1.379752,-1.486781,-0.05765700000000001,0.981807,-0.180886,-4.967375,5.696644999999999,-2.135854,-0.017324000000000003,0.390706,0.936059
303,-0.860678,-1.4102,-2.127031,-0.121225,0.987132,-0.10422100000000001,-3.0895599999999996,0.590208,-4.417143,-0.726965,3.3999989999999998,0.605793
304,-1.297035,-1.382127,-2.521546,-0.180533,0.9822549999999999,-0.050696,-2.479551,-2.727386,-2.203821,1.161994,2.375,0.22608000000000003
305,-1.5810950000000001,-1.3436139999999999,-2.748264,-0.225189,0.974305,0.0023190000000000003,-1.9466299999999999,-3.5580199999999995,-2.203307,0.9727020000000001,1.6649009999999997,-0.15798900000000002
306,-1.878866,-1.3128360000000001,-2.984079,-0.243069,0.9669120000000001,0.07734400000000001,-3.885844,-2.824558,-0.130487,0.194225,1.144141,-0.420072
307,-2.146421,-1.284673,3.033878,-0.23672800000000002,0.9593450000000001,0.153621,-3.4171489999999998,0.38552,0.161366,-0.759717,0.5519609999999999,-1.276011
308,-2.292116,-1.248132,2.867659,-0.23809699999999998,0.9483940000000001,0.20938400000000001,-2.991061,0.655904,0.10737999999999999,-0.721513,0.133271,-1.1442290000000002
309,-2.380104,-1.211349,2.760225,-0.242694,0.936091,0.254587,-2.1765060000000003,0.5993189999999999,-0.300259,0.15694,-0.104075,-0.572183
310,-2.412014,-1.181808,2.7148,-0.252777,0.925293,0.282698,-1.309813,0.467314,-0.274808,0.587906,-0.8366399999999999,-0.6117239999999999
311,-2.412428,-1.172887,2.704228,-0.25815,0.9218729999999999,0.28894699999999995,-0.061452,0.394212,-0.126058,0.73015,-1.044218,-1.267051
312,-2.409857,-1.174985,2.704772,-0.25759899999999997,0.9226840000000001,0.28684299999999996,0.209853,-0.107867,0.254631,0.429443,-0.779938,-0.796426
313,-2.4039080000000004,-1.190679,2.713844,-0.24953000000000003,0.9286209999999999,0.274555,1.010965,0.008079000000000001,0.40215,0.413745,-0.9512799999999999,-0.45030600000000004
314,-2.361829,-1.216489,2.752626,-0.243921,0.937887,0.246685,1.589667,0.310868,0.370553,0.32976700000000003,-0.8245600000000001,-0.6437039999999999
315,-2.307766,-1.248125,2.815784,-0.23479699999999998,0.948392,0.21309,2.017991,-0.653018,0.484807,0.273814,-0.675443,-0.695786
316,-2.236047,-1.2884959999999999,2.907624,-0.21914299999999998,0.960417,0.171929,2.5477830000000004,-0.724117,0.755654,0.153378,-0.640257,-0.47084899999999996
317,-2.1082349999999996,-1.335507,3.051933,-0.200231,0.972447,0.119328,3.028593,-0.575443,0.9874209999999999,-5.6000000000000006e-05,-0.460164,-0.266927
318,-1.850207,-1.385644,-2.962154,-0.176919,0.982908,0.050761,3.9387849999999998,-0.266548,1.272189,-0.136786,0.41420200000000007,0.055623
319,-1.393882,-1.420784,-2.458593,-0.147073,0.988769,-0.026294,4.479644,-3.3385519999999995,1.539482,-0.046316,2.4892279999999998,0.314289
320,-0.9004989999999999,-1.3941219999999999,-1.893134,-0.137702,0.984434,-0.109161,4.423086,-2.067423,0.194703,-0.460687,3.993075,0.420044
321,-0.5652,-1.3552959999999998,-1.5748790000000001,-0.11451300000000002,0.9768700000000001,-0.180558,2.872468,2.874916,1.6719810000000002,-0.684575,2.5624830000000003,0.228135
322,-0.254825,-1.312883,-1.3128360000000001,-0.06429,0.966924,-0.246808,3.756306,1.814024,1.9401599999999999,-0.927989,1.921809,-0.086765
323,-0.085758,-1.233488,-1.137759,-0.028345,0.943649,-0.329718,4.285926,-0.801595,1.839321,-0.363134,1.602265,0.016974
324,-0.062444000000000006,-1.152916,-1.059359,-0.025324,0.9139510000000001,-0.405023,3.838567,-2.921909,0.734371,0.974467,0.005253,0.6530239999999999
325,-0.10636300000000001,-1.086268,-1.041608,-0.049449,0.8848950000000001,-0.46315,3.045424,-3.245606,-0.21185700000000002,0.602107,-0.475074,0.685883
326,-0.178117,-1.041136,-1.032276,-0.089515,0.862979,-0.49723999999999996,1.8285529999999999,-4.245096,0.108868,-0.314125,-0.683673,1.260607
327,-0.233891,-1.016888,-1.013976,-0.12190999999999999,0.850475,-0.511686,1.015241,-3.050555,0.18925,-0.631783,-1.1352799999999998,1.366087
328,-0.258689,-1.013225,-1.006469,-0.135356,0.848543,-0.511514,-0.441659,-0.571906,0.182307,0.282558,-1.9842540000000002,1.338571
329,-0.243283,-1.04883,-1.01226,-0.120102,0.8668399999999999,-0.483896,-2.498951,1.9250900000000002,0.36983499999999997,0.565537,-1.608021,1.136011
330,-0.210234,-1.111302,-1.029025,-0.092551,0.896277,-0.433721,-3.3368349999999998,2.421765,0.233023,0.404242,-1.270194,0.9155479999999999
331,-0.179676,-1.177054,-1.047915,-0.06856,0.92348,-0.377459,-3.206018,2.432615,0.336472,-0.187528,-0.806063,0.153933
332,-0.120558,-1.235095,-1.045077,-0.039618,0.9441799999999999,-0.327025,-2.5746759999999997,3.032626,0.522779,-0.286951,-0.650311,-0.22410700000000003
333,-0.049814,-1.267479,-1.024133,-0.014872,0.9543510000000001,-0.29830100000000004,-0.800928,1.892254,0.449036,0.154368,0.176753,-1.27163
334,-0.006299,-1.255906,-0.993767,-0.0019510000000000003,0.95083,-0.30969,1.253826,0.399241,0.40655,0.356168,-0.10578299999999999,-0.370028
335,0.047839,-1.2201899999999999,-0.971196,0.016424,0.9391649999999999,-0.343061,1.737193,2.754082,0.374862,-0.687079,-1.567521,1.5751629999999999
336,0.10951400000000001,-1.2194459999999998,-0.970824,0.037614,0.938909,-0.342091,-0.41892799999999997,2.472922,-0.170745,-1.9809889999999999,-1.305532,0.069325
337,0.044075,-1.206432,-1.008283,0.015701,0.93435,-0.35599699999999995,1.355774,-2.637582,-1.34714,0.47337399999999996,1.484381,3.1642240000000004
338,-0.06936200000000001,-1.24464,-1.1511120000000001,-0.022205000000000003,0.9472809999999999,-0.319619,-2.999643,1.8915,-1.981571,1.008045,-0.19222999999999998,1.640038
339,-0.088003,-1.300859,-1.2202979999999999,-0.023436000000000002,0.9637879999999999,-0.265619,-3.294193,2.624755,-0.748635,0.571882,-0.10268800000000002,0.9626100000000001
340,-0.213775,-1.385731,-1.423975,-0.039031,0.982924,-0.179792,-5.2418309999999995,3.6812690000000003,-2.195011,-0.389863,0.9699260000000001,0.746503
341,-0.8730969999999999,-1.438117,-2.131487,-0.10134,0.9912110000000001,-0.08496000000000001,-3.732706,0.664979,-3.9100550000000003,-0.448754,2.3078,0.7917930000000001
342,-1.400706,-1.4057549999999999,-2.622456,-0.161883,0.9864120000000001,-0.027802999999999998,-2.5758419999999997,-3.094398,-2.512742,0.811678,2.385277,-0.074461
343,-1.7324389999999998,-1.357025,-2.8928689999999997,-0.209348,0.9772379999999999,0.034137,-2.612995,-3.255155,-2.239331,0.92024,1.6478540000000002,-0.228046
344,-2.030235,-1.313425,3.135512,-0.228118,0.9670620000000001,0.11286099999999999,-3.9708639999999997,-1.645843,-0.451992,-0.45108100000000007,0.571084,-1.272575
345,-2.249016,-1.266792,2.910644,-0.233075,0.954145,0.18779400000000002,-3.44982,0.447317,-0.34421199999999996,-0.764483,0.308184,-1.359089
346,-2.366628,-1.222831,2.7732810000000003,-0.23856799999999997,0.940068,0.24359899999999998,-3.1476599999999997,0.641806,0.040072,-0.352817,0.061061000000000004,-1.07241
347,-2.444387,-1.180385,2.67093,-0.24434099999999997,0.924752,0.291742,-2.447696,1.139918,-0.190685,0.19417,-0.357705,-0.567606
348,-2.47035,-1.155586,2.626888,-0.250874,0.915032,0.31585100000000005,-0.790275,0.181349,-0.074262,0.425755,-0.865807,-1.283487
349,-2.474482,-1.1490639999999999,2.6339200000000003,-0.253254,0.912381,0.321567,-0.01457,-0.587102,-0.38298499999999996,0.494892,-0.838575,-1.258212
350,-2.471662,-1.15145,2.63607,-0.252808,0.9133549999999999,0.31914499999999996,0.288618,0.362566,0.291964,0.616333,-0.769648,-0.489692
351,-2.442949,-1.166935,2.646783,-0.252738,0.919551,0.300888,0.989924,1.341444,0.24433400000000002,0.498679,-0.9890389999999999,-0.18782000000000001
352,-2.385336,-1.189737,2.687218,-0.255187,0.928271,0.270511,1.603898,0.45320699999999997,0.19421300000000002,0.343932,-0.757708,-0.914264
353,-2.3370029999999997,-1.220582,2.7460259999999996,-0.24720300000000003,0.939299,0.23789200000000002,1.928595,-0.599459,0.488386,0.342677,-0.67137,-0.682533
354,-2.2796790000000002,-1.262592,2.819277,-0.23024899999999998,0.95288,0.197459,2.5823110000000002,-0.525483,0.868872,0.27398,-0.73033,-0.49441
355,-2.1711560000000003,-1.314132,2.9448369999999997,-0.209441,0.967242,0.143397,3.141889,-0.6752779999999999,1.080208,-0.056169000000000004,-0.308383,-0.10788900000000001
356,-1.9558740000000001,-1.373343,-3.105452,-0.181774,0.980569,0.073675,4.005357,-0.869674,1.525527,0.055903999999999995,0.6362979999999999,0.096735
357,-1.558049,-1.4188690000000002,-2.642611,-0.15129,0.9884809999999999,-0.001929,4.7452309999999995,-4.253902,1.113084,0.236907,2.2223189999999997,0.183478
358,-1.045667,-1.4004590000000001,-2.0575919999999996,-0.146646,0.9855280000000001,-0.084966,4.227201999999999,-1.73438,0.195044,-0.633185,2.553154,0.210835
359,-0.678767,-1.378041,-1.71115,-0.120253,0.9814799999999999,-0.149082,2.480378,2.781365,1.697136,-0.801988,2.133556,0.35979099999999997
360,-0.35438800000000004,-1.350133,-1.419119,-0.075946,0.9757520000000001,-0.20525500000000002,3.2164650000000004,0.7754949999999999,1.8469209999999998,-0.884473,1.6449599999999998,0.002679
361,-0.176583,-1.290491,-1.2190590000000001,-0.048595,0.9609709999999999,-0.27233,3.358483,-1.638754,1.5412219999999999,0.396755,0.592129,0.155021
362,-0.140454,-1.230707,-1.125793,-0.046696,0.942725,-0.33027399999999996,2.958518,-2.8944389999999998,0.488907,0.733402,0.037239999999999995,0.371442
363,-0.176702,-1.187084,-1.108084,-0.065805,0.9272809999999999,-0.368526,1.770307,-2.3526580000000004,-0.233659,0.567896,-0.57694,0.8389540000000001
364,-0.208957,-1.157261,-1.093306,-0.083358,0.9157059999999999,-0.393099,1.462538,-2.446246,0.261031,-0.36895900000000004,-0.820232,1.371416
365,-0.229987,-1.134242,-1.0642049999999998,-0.096386,0.906214,-0.411678,1.01932,-2.130217,0.201983,-0.566318,-1.062922,1.485897
366,-0.245131,-1.1334469999999999,-1.0540530000000001,-0.10278399999999999,0.9058780000000001,-0.410869,-0.593348,-0.7252810000000001,0.308559,0.11576900000000001,-2.1016779999999997,1.175106
367,-0.24367199999999997,-1.174896,-1.055259,-0.09304,0.92265,-0.374236,-2.817542,0.508768,0.523245,0.5931770000000001,-1.4300959999999998,0.937484
368,-0.232835,-1.240025,-1.075574,-0.074934,0.945792,-0.315996,-3.285872,2.1806330000000003,0.284959,0.347868,-1.298072,0.610842
369,-0.20229,-1.299591,-1.1074030000000001,-0.05382000000000001,0.963449,-0.262414,-2.774413,3.376559,0.20260999999999998,-0.14886300000000002,-0.581033,-0.479942
370,-0.142438,-1.341531,-1.113653,-0.032257999999999995,0.973834,-0.224939,-1.554032,3.0339549999999997,0.372875,0.141771,-0.126223,-1.057685
371,-0.068129,-1.349877,-1.073328,-0.014916,0.9756959999999999,-0.218596,0.348704,0.906852,0.524555,0.093315,-0.023899,-0.8726209999999999
372,-0.02343,-1.3199889999999999,-1.03088,-0.005814,0.9687120000000001,-0.248099,2.1435169999999997,-0.170285,0.336579,0.034699,-0.10613299999999999,-0.751199
373,-0.001358,-1.267942,-1.021968,-0.000405,0.9544889999999999,-0.29823,2.4152869999999997,1.728743,-0.075222,-0.041404,-1.276846,1.994779
374,0.04135,-1.265725,-1.0366739999999999,0.012416,0.953825,-0.30009,-0.5319619999999999,3.345188,-0.023105,-3.210994,-0.583434,-1.649968
375,-0.013653,-1.24862,-1.040726,-0.004323,0.948549,-0.316589,0.634603,-4.438818,-1.024065,-2.85316,3.326339,-5.020829
376,-0.077485,-1.3164120000000001,-1.136303,-0.019478,0.9678180000000001,-0.25087600000000004,-3.0707459999999998,2.516505,-0.244875,0.8818739999999999,-0.476943,0.650702
377,-0.065972,-1.36255,-1.193746,-0.013628,0.9783950000000001,-0.206271,-2.960876,4.0799970000000005,-1.0547549999999999,-0.052687,0.525496,0.975726
378,-0.464531,-1.449894,-1.6747560000000001,-0.054013,0.9927,-0.10778800000000001,-5.878521,3.395625,-3.7330620000000003,-0.763766,1.663657,1.6049799999999999
379,-1.3068389999999999,-1.445948,-2.5345869999999997,-0.12016700000000001,0.992217,-0.032477,-2.4504770000000002,-2.048742,-2.774924,-0.5920979999999999,2.929033,0.12503699999999998
380,-1.7431400000000001,-1.3946129999999999,-2.863267,-0.172644,0.9845200000000001,0.030052,-2.619844,-6.0714,-2.584013,0.9561370000000001,2.0760419999999997,-0.40471599999999996
381,-2.084954,-1.342956,-3.13369,-0.19664600000000002,0.9741559999999999,0.111072,-4.019444999999999,-2.6983669999999997,-0.666767,0.7021850000000001,1.656459,-0.522586
382,-2.374485,-1.286198,2.8665689999999997,-0.194855,0.959774,0.20211600000000002,-4.450687,0.21334699999999998,0.15970299999999998,-0.953094,0.534504,-1.396468
383,-2.510298,-1.236707,2.698143,-0.19351600000000002,0.944709,0.264691,-3.193151,1.788931,0.390795,-0.307476,-0.098594,-1.0066959999999998
384,-2.556834,-1.186601,2.604216,-0.20688499999999999,0.9271,0.312519,-2.744638,2.08121,-0.36168,0.067069,-0.367027,-0.7702829999999999
385,-2.5568049999999998,-1.156949,2.586693,-0.221977,0.915581,0.33529699999999996,-0.5915520000000001,-0.306084,-0.62666,0.6169819999999999,-1.02195,-1.240601
386,-2.5369770000000003,-1.148543,2.623082,-0.232949,0.912168,0.33715,0.14558,-0.246232,-0.781821,0.8594290000000001,-0.6058319999999999,-0.5655439999999999
387,-2.514891,-1.1488530000000001,2.6344849999999997,-0.24017199999999997,0.9122950000000001,0.33169499999999996,0.253129,0.8480559999999999,0.126585,0.731749,-0.797167,-0.560424
388,-2.479737,-1.159899,2.6453990000000003,-0.24547199999999997,0.9167629999999999,0.315078,0.7353430000000001,1.54736,0.120511,0.531284,-1.005935,-0.43218900000000005
389,-2.438095,-1.17668,2.669624,-0.248388,0.923336,0.292812,1.13116,0.249034,0.24885300000000002,0.538564,-0.796704,-0.8216049999999999
390,-2.4167,-1.2070889999999999,2.706273,-0.23586300000000002,0.934584,0.266283,1.8414240000000002,-0.8702690000000001,0.622717,0.47142799999999996,-0.5393819999999999,-0.657243
391,-2.369886,-1.251132,2.77108,-0.21912800000000002,0.949341,0.225212,2.667938,-0.649667,0.682687,0.092144,-0.693299,-0.729301
392,-2.275129,-1.299009,2.886932,-0.20455399999999999,0.9632930000000001,0.173814,2.9074299999999997,-0.897149,0.5596949999999999,-0.294134,-0.677419,-0.676362
393,-2.127697,-1.345824,3.05753,-0.18934700000000002,0.9748,0.117895,3.2524509999999998,-0.855427,0.7489899999999999,-0.309844,-0.18648599999999999,-0.11995499999999999
394,-1.818699,-1.396937,-2.904044,-0.167663,0.984925,0.042437,4.283217,-0.279563,1.299177,0.044448,1.0914760000000001,0.5493140000000001
395,-1.242818,-1.419075,-2.269215,-0.143049,0.9885120000000001,-0.048675,5.523191000000001,-4.149369999999999,0.9389200000000001,-0.057299,4.527143,0.5393979999999999
396,-0.792637,-1.384659,-1.774344,-0.13178499999999999,0.982726,-0.129891,3.576664,-0.190459,1.207602,-1.172567,2.863999,0.170922
397,-0.428754,-1.360303,-1.453771,-0.08685599999999999,0.977928,-0.19000999999999998,2.565614,3.301815,2.0079130000000003,-0.514676,1.5129629999999998,0.385185
398,-0.17846199999999998,-1.312433,-1.234954,-0.045351999999999996,0.9668100000000001,-0.251424,3.3466089999999995,1.167278,1.528995,-0.5231899999999999,1.151446,0.096532
399,-0.055994,-1.2506629999999999,-1.1090719999999998,-0.017611,0.9491930000000001,-0.314188,3.073741,-0.669503,1.294433,0.06147999999999999,0.8551280000000001,0.157755
400,-0.049208999999999996,-1.1920600000000001,-1.053987,-0.018187000000000002,0.929133,-0.369289,2.97044,-3.285601,0.531149,0.726683,0.24487899999999999,0.5089229999999999
401,-0.09934,-1.1468770000000001,-1.021947,-0.040794,0.911484,-0.4093,1.7850009999999998,-3.982593,0.568627,0.782768,-0.17346199999999998,0.7538130000000001
402,-0.131003,-1.124478,-0.978043,-0.056384000000000004,0.902042,-0.427942,1.00129,-2.973963,0.761618,-0.898465,-1.765049,1.502283
403,-0.149133,-1.114643,-0.9708100000000001,-0.06544900000000001,0.897754,-0.43560200000000004,0.07583200000000001,0.083624,-0.360783,-0.381786,-2.466662,1.364267
404,-0.14091700000000001,-1.132124,-0.995376,-0.059654,0.905316,-0.42052,-1.696684,1.948478,-0.311461,0.101768,-2.2422,1.2040440000000001
405,-0.152946,-1.18688,-1.031426,-0.057062,0.927205,-0.370173,-3.224036,0.640238,-0.299089,0.361185,-1.091084,0.625895
406,-0.16752899999999998,-1.247233,-1.065606,-0.053014,0.948108,-0.31348400000000004,-2.857125,1.211709,0.060596000000000004,0.050298,-0.664737,-0.047064999999999996
407,-0.124267,-1.295914,-1.065955,-0.033642,0.962457,-0.269327,-2.09904,2.757175,0.530724,-0.08353,-0.502649,-0.406775
408,-0.020082,-1.324518,-1.015556,-0.004895,0.969827,-0.24373000000000003,-0.9499489999999999,2.408731,0.890642,0.311734,-0.21361599999999997,-0.991102
409,0.085453,-1.3319219999999998,-0.9342590000000001,0.020193,0.9716049999999999,-0.23572800000000002,-0.085998,0.751125,0.950076,0.071345,-0.38119699999999995,-0.564581
410,0.143564,-1.317852,-0.8770709999999999,0.035802,0.9681799999999999,-0.247664,1.0389,-0.20700300000000002,0.619466,0.048549,-0.450312,-0.528047
411,0.16278399999999998,-1.286184,-0.8686379999999999,0.045504,0.9597709999999999,-0.27706,1.629532,1.6663919999999999,0.21419899999999997,-0.256853,-1.1744459999999999,2.1926330000000003
412,0.241085,-1.286765,-0.8610690000000001,0.066903,0.9599340000000001,-0.27211,-0.551621,3.9101470000000003,0.169382,-3.7416160000000005,0.588635,-3.100952
413,0.12060599999999999,-1.277224,-0.8857309999999999,0.034814,0.957216,-0.28725900000000004,0.7176,-6.642135000000001,-1.28024,-2.441064,3.7041459999999997,-2.734698
414,0.028312999999999998,-1.331482,-1.022256,0.00671,0.9715010000000001,-0.23692399999999997,-2.522109,2.70102,-1.307364,0.909169,-0.5037119999999999,1.7199259999999998
415,0.034513,-1.393183,-1.0713139999999999,0.006096,0.984268,-0.17655099999999999,-3.9000199999999996,3.3322519999999995,-0.793301,0.35134099999999996,0.06471299999999999,1.290504
416,-0.379949,-1.490315,-1.581956,-0.029793,0.996763,-0.074602,-5.587178,4.784165,-3.308722,-0.5154340000000001,1.661852,1.224688
417,-1.604619,-1.4838799999999999,-2.847147,-0.08669400000000001,0.996225,0.002933,-3.045246,-0.24206799999999998,-2.517543,-0.883201,2.440283,0.827572
418,-2.030113,-1.42317,3.057414,-0.13180899999999998,0.989123,0.065192,-2.94145,-2.811658,-2.305222,0.706867,1.853315,-0.740958
419,-2.273533,-1.357076,2.859366,-0.161822,0.9772489999999999,0.13706,-3.703307,-2.0885700000000003,-1.321228,0.422671,1.336686,-0.862218
420,-2.485211,-1.288784,2.666234,-0.169812,0.9604969999999999,0.220442,-3.910277,-0.355553,-0.297265,-0.41908599999999996,0.813642,-1.392104
421,-2.5650060000000003,-1.236094,2.542334,-0.179068,0.944508,0.275362,-2.949445,2.725874,0.038783,0.042669,0.241664,-1.056291
422,-2.573254,-1.192123,2.485157,-0.198967,0.929156,0.311554,-1.8004360000000001,1.8455759999999999,-0.595133,0.316444,-0.062838,-0.798325
423,-2.5510450000000002,-1.168925,2.4975709999999998,-0.217783,0.9203309999999999,0.32488,-0.30049000000000003,-0.094229,-0.844952,0.9137360000000001,-1.059475,-1.0519610000000001
424,-2.529889,-1.162954,2.523834,-0.227758,0.9179790000000001,0.324693,0.08038,-0.113379,-0.382932,0.363027,-0.7391,-0.738084
425,-2.511534,-1.166908,2.538178,-0.231539,0.9195399999999999,0.317523,0.5306649999999999,0.479162,-0.036578,0.11342100000000001,-0.932372,-0.532565
426,-2.471325,-1.179186,2.569093,-0.23708400000000002,0.9242959999999999,0.299088,1.027883,0.608933,-0.152912,0.248406,-0.960398,-0.501618
427,-2.411346,-1.1989610000000002,2.622983,-0.242344,0.9316620000000001,0.270667,1.620543,0.32322399999999996,-0.08004,0.33173,-0.659461,-0.8473879999999999
428,-2.346423,-1.226702,2.6932869999999998,-0.24084299999999997,0.9413809999999999,0.236182,1.9678740000000001,-0.231924,0.18588,0.36709400000000003,-0.62171,-0.579962
429,-2.26608,-1.263548,2.784745,-0.23221599999999998,0.953169,0.19372799999999998,2.572447,-0.271364,0.46682299999999993,0.216194,-0.6901689999999999,-0.64017
430,-2.144515,-1.305744,2.9216450000000003,-0.219996,0.9650790000000001,0.14216800000000002,2.8726599999999998,-0.759768,0.599869,-0.067037,-0.559439,-0.468675
431,-1.9734180000000001,-1.3484399999999999,3.118321,-0.202868,0.9753809999999999,0.086399,3.342421,-0.872293,0.892782,0.12901600000000002,0.289848,0.279095
432,-1.630825,-1.387505,-2.789654,-0.181908,0.9832489999999999,0.010933,4.40482,-2.185866,1.058915,0.644021,1.765164,0.477013
433,-1.171473,-1.393877,-2.250169,-0.162124,0.984391,-0.06841599999999999,4.283762,-2.705565,1.124965,-0.50145,5.242996,0.367336
434,-0.760009,-1.38505,-1.835727,-0.12721400000000002,0.982799,-0.13384300000000002,2.8891970000000002,1.604239,2.141604,-1.030623,2.204122,0.199319
435,-0.369758,-1.372935,-1.490909,-0.071031,0.9804889999999999,-0.183266,2.186305,2.242279,2.499072,-1.129988,1.6574810000000002,0.226937
436,-0.11754300000000001,-1.3232110000000001,-1.234859,-0.028737000000000002,0.969507,-0.24335700000000002,3.41329,-0.756049,1.8630740000000001,-0.365123,1.079367,0.028100999999999998
437,-0.043405,-1.2618790000000002,-1.1194709999999999,-0.013191999999999999,0.9526629999999999,-0.30373,2.998684,-2.0919470000000002,0.902626,0.457604,0.18816,0.597156
438,-0.053683,-1.2104469999999998,-1.08765,-0.018919,0.935774,-0.352084,2.246557,-2.066293,0.201927,0.7350899999999999,-0.371321,0.643115
439,-0.071507,-1.180811,-1.065042,-0.027161,0.9249139999999999,-0.379196,1.099429,-2.034814,0.5164770000000001,0.20753600000000003,-0.584262,0.819687
440,-0.07875,-1.169897,-1.029211,-0.030699,0.9207110000000001,-0.389029,0.315081,-1.780906,0.570494,-0.617677,-1.294917,1.006003
441,-0.09224299999999999,-1.175431,-1.033205,-0.035476,0.9228559999999999,-0.3835,-0.695052,0.41977299999999995,-0.37194,-0.461045,-2.093022,1.040132
442,-0.10255,-1.20861,-1.058873,-0.036271,0.935124,-0.35244899999999996,-2.335634,0.387644,-0.239148,0.402314,-1.991414,1.036242
443,-0.13009600000000002,-1.261109,-1.092066,-0.039535,0.9524290000000001,-0.302174,-2.654636,0.36753,-0.260579,0.413879,-1.342856,0.623387
444,-0.132416,-1.306022,-1.1152600000000001,-0.034549,0.965152,-0.259387,-1.991357,1.453198,0.191316,0.13953,-0.8498870000000001,-0.032605
445,-0.053863,-1.333572,-1.082207,-0.012651,0.971994,-0.23465,-0.9056860000000001,2.841714,0.7323,0.041460000000000004,-0.1354,-1.115677
446,0.078885,-1.338152,-1.0059870000000002,0.018167,0.97306,-0.229817,0.028627,2.520135,0.953951,0.077155,-0.042914999999999995,-1.191814
447,0.168689,-1.3250600000000001,-0.938248,0.040839999999999994,0.969958,-0.23980100000000001,1.092428,0.254402,0.8040510000000001,-0.05616,-0.069766,-1.0088709999999999
448,0.160657,-1.282073,-0.928931,0.045545,0.958608,-0.281048,2.511609,-0.312663,0.191918,-0.019513,-0.865301,2.508846
449,0.19552,-1.264641,-0.9522209999999999,0.058552,0.953499,-0.29564,0.153624,4.179016000000001,-0.28003,-1.222813,-0.754387,2.269288
450,0.122329,-1.240059,-0.970456,0.039625,0.9458030000000001,-0.322302,1.985371,-6.275864,-0.7356060000000001,-1.60565,3.8441440000000004,-2.953608
451,0.046644,-1.272935,-1.058508,0.013683,0.955966,-0.293144,-2.003766,1.815693,-1.203265,0.759235,-1.3860350000000001,2.095329
452,0.08557000000000001,-1.336803,-1.070843,0.019815,0.972748,-0.23099699999999998,-4.449552,3.132821,-0.261705,0.324088,-1.311707,1.0410709999999999
453,0.007364,-1.458424,-1.2480229999999999,0.000825,0.993693,-0.11208800000000001,-6.463523,5.922724,-3.026814,-1.0615709999999998,2.16712,1.197705
454,-1.377321,-1.491749,-2.7004610000000002,-0.077422,0.996877,-0.015169,-3.350508,-0.572595,-3.7765480000000005,-1.170319,3.366251,1.196138
455,-1.838499,-1.4256959999999999,-3.0630759999999997,-0.139402,0.989491,0.038236,-2.099478,-6.0133019999999995,-3.1775889999999998,1.102781,3.329875,-0.8576790000000001
456,-2.139481,-1.359342,2.999555,-0.176823,0.977727,0.11300999999999999,-3.9423480000000004,-2.7771169999999996,-1.285696,0.645741,1.498942,-0.544071
457,-2.4231130000000003,-1.293994,2.723904,-0.179869,0.9619340000000001,0.20571,-4.4855849999999995,0.38445799999999997,0.023576,-0.9354870000000001,0.24663800000000002,-1.4792239999999999
458,-2.524756,-1.242358,2.575866,-0.186579,0.9465469999999999,0.263104,-2.9768060000000003,2.688218,0.155077,-0.8231719999999999,0.097413,-1.229825
459,-2.547191,-1.195614,2.497077,-0.205202,0.930441,0.303576,-2.359628,2.209085,-0.439271,0.381517,-0.433615,-0.563067
460,-2.533496,-1.172719,2.49507,-0.221455,0.921808,0.318141,-0.177396,-0.064481,-0.665737,0.916691,-1.22114,-1.102214
461,-2.5147909999999998,-1.1713069999999999,2.524804,-0.228129,0.9212600000000001,0.31499699999999997,0.316131,-0.323135,-0.346833,1.022959,-1.219172,-1.008967
462,-2.488253,-1.176752,2.541532,-0.233355,0.923364,0.304845,0.5882609999999999,0.956181,-0.030378,0.467791,-0.808053,-0.5930989999999999
463,-2.433909,-1.1894639999999999,2.580116,-0.241919,0.928169,0.282777,1.072,0.842426,-0.240498,0.037786,-0.935616,-0.661821
464,-2.377748,-1.20502,2.6312849999999997,-0.24739099999999997,0.933846,0.258292,1.345688,0.14745899999999998,-0.109509,0.16476400000000002,-0.816522,-0.776602
465,-2.317971,-1.229744,2.700366,-0.245363,0.9424030000000001,0.227287,1.951984,-0.480994,0.1487,0.428605,-0.7091270000000001,-0.46790299999999996
466,-2.2357110000000002,-1.2650219999999999,2.8015950000000003,-0.23688499999999998,0.953614,0.185721,2.590153,-0.706701,0.36388000000000004,0.25393000000000004,-0.658219,-0.539618
467,-2.108696,-1.303087,2.946845,-0.227148,0.9643790000000001,0.135512,2.8400819999999998,-0.594856,0.41568900000000003,-0.093637,-0.46265500000000004,-0.555983
468,-1.9201840000000001,-1.339232,-3.132533,-0.21561,0.973309,0.078554,3.247213,-0.195694,0.6743939999999999,0.057102,0.377186,0.295835
469,-1.587332,-1.3714879999999998,-2.779481,-0.197935,0.9802040000000001,0.003273,4.396827,-1.477981,0.9329629999999999,0.739317,2.026022,0.7197640000000001
470,-1.165382,-1.371456,-2.270046,-0.181946,0.980197,-0.07808899999999999,4.430952,-3.120845,0.9556030000000001,-0.6131439999999999,5.388943,0.526652
471,-0.830342,-1.364727,-1.9364430000000001,-0.15102000000000002,0.978843,-0.138021,2.5584,1.9244880000000002,1.997871,-1.2232020000000001,3.0228200000000003,0.07736699999999999
472,-0.48086,-1.366113,-1.6312870000000002,-0.09400399999999999,0.979125,-0.18018699999999999,1.585818,2.410045,2.6260470000000002,-1.151708,1.6442880000000002,0.256587
473,-0.187448,-1.3351549999999999,-1.3412899999999999,-0.043504,0.9723649999999999,-0.22935999999999998,3.075088,-0.369717,2.249043,-0.16476300000000002,1.017793,-0.008143000000000001
474,-0.062614,-1.282558,-1.180867,-0.017786,0.9587459999999999,-0.283693,2.679437,-2.237248,1.287272,0.674372,0.043299000000000004,0.46977399999999997
475,-0.060972000000000005,-1.237208,-1.120116,-0.019951,0.944874,-0.326816,1.9902790000000001,-2.6932709999999997,0.574812,0.993081,-0.415195,0.476825
476,-0.069355,-1.211635,-1.076075,-0.024357,0.936192,-0.350634,1.1096409999999999,-2.791305,0.81234,0.286976,-0.776066,1.056841
477,-0.087774,-1.1953200000000002,-1.039543,-0.032146,0.930333,-0.365295,0.672337,-2.166245,0.45703999999999995,-0.633839,-1.5766040000000001,1.443908
478,-0.10768399999999999,-1.191797,-1.0480209999999999,-0.039764,0.9290360000000001,-0.36783899999999997,-0.24180300000000002,0.456138,-0.532265,-0.592896,-2.361577,1.3159129999999999
479,-0.132548,-1.221294,-1.0864639999999999,-0.045254,0.939543,-0.339416,-2.313831,0.027362,-0.467141,0.25349099999999997,-1.8486470000000002,1.12004
480,-0.17849500000000001,-1.274545,-1.130564,-0.051830999999999995,0.9564379999999999,-0.287286,-2.733556,0.004135,-0.15598499999999998,0.341855,-1.06386,0.5567409999999999
481,-0.169133,-1.322257,-1.1455870000000001,-0.041404,0.9692729999999999,-0.24246199999999998,-2.1496630000000003,2.1194889999999997,0.473497,0.020408000000000003,-0.564915,-0.256531
482,-0.052672000000000004,-1.351286,-1.094134,-0.011463,0.9760040000000001,-0.21743,-0.764472,3.754775,0.8485450000000001,-0.146984,-0.070578,-1.2189860000000001
483,0.081424,-1.347324,-1.011478,0.018024000000000002,0.9751340000000001,-0.220865,0.623138,1.6497810000000002,0.979508,0.09567,0.226404,-1.336126
484,0.156375,-1.319689,-0.939117,0.038695,0.9686379999999999,-0.245429,1.768382,-0.67416,0.9295969999999999,-0.213774,0.040716,-0.93171
485,0.138515,-1.269649,-0.925018,0.040952999999999996,0.954997,-0.293763,2.54522,-0.778804,0.318793,0.408159,-0.45521000000000006,1.028367
486,0.176714,-1.242651,-0.951354,0.056655,0.946642,-0.317258,0.733236,4.109369999999999,-0.41263199999999994,-1.772445,0.636992,1.4006319999999999
487,0.084765,-1.213315,-1.0051299999999999,0.029624,0.936781,-0.34865,1.58723,-4.079672,-1.351163,-0.485587,1.9021169999999998,1.388475
488,0.0038770000000000002,-1.250071,-1.0762120000000002,0.001222,0.9490069999999999,-0.315241,-3.04779,0.9165280000000001,-0.544978,0.936278,-1.7110459999999998,3.0998930000000002
489,0.064924,-1.338746,-1.081813,0.014919,0.973197,-0.22946999999999998,-5.144426,4.7721599999999995,-0.691682,0.144291,-0.926444,1.43789
490,-0.135543,-1.457686,-1.400318,-0.015246000000000001,0.99361,-0.111791,-6.213324,5.579432,-3.971078,-0.787748,2.039486,0.754949
491,-1.26934,-1.475092,-2.567555,-0.091195,0.995424,-0.028356,-2.733802,-1.5351920000000001,-3.080943,-0.34610599999999997,3.480467,0.9359940000000001
492,-1.7177209999999998,-1.425352,-2.936425,-0.143332,0.989442,0.021212,-2.0918900000000002,-4.593915,-2.493563,1.470328,2.792068,-0.802233
493,-2.047711,-1.375025,3.077489,-0.172789,0.9808979999999999,0.089279,-3.6951110000000003,-2.482195,-0.925431,0.42965600000000004,1.226759,-0.647324
494,-2.353631,-1.326263,2.787501,-0.171612,0.97025,0.170734,-3.663553,-0.0526,0.185832,-0.700184,0.376704,-1.338855
495,-2.480609,-1.2850219999999999,2.621534,-0.173042,0.9594440000000001,0.22251100000000001,-2.784477,2.101412,0.216986,-0.7505109999999999,0.060301,-1.314735
496,-2.523376,-1.248158,2.538932,-0.183756,0.9484020000000001,0.258367,-1.722877,1.585301,-0.30691199999999996,0.024134,-0.304359,-0.641424
497,-2.521082,-1.229024,2.528083,-0.194866,0.942162,0.272661,-0.43123599999999995,0.000252,-0.381317,0.714244,-0.986489,-0.7757430000000001
498,-2.515406,-1.224798,2.541521,-0.198741,0.940737,0.27477399999999996,-0.021498,-0.30753600000000003,-0.22316799999999998,0.743053,-1.104678,-0.841089
499,-2.499054,-1.226604,2.547671,-0.20219,0.941348,0.27012800000000003,0.378193,1.0111299999999999,-0.000944,0.068324,-0.940265,-0.598771
500,-2.4505689999999998,-1.234942,2.581492,-0.210035,0.9441290000000001,0.25395300000000004,0.8220149999999999,0.488742,-0.284526,0.006345,-0.995872,-0.54323
501,-2.398099,-1.248086,2.637274,-0.214646,0.9483790000000001,0.233433,1.270702,-0.21105100000000002,-0.16405899999999998,0.273575,-0.811828,-0.5828439999999999
502,-2.33727,-1.27342,2.7088099999999997,-0.21105900000000002,0.956109,0.203218,1.8755970000000002,-0.49613999999999997,0.275298,0.473801,-0.655648,-0.593874
503,-2.247947,-1.307923,2.813189,-0.202504,0.9656469999999999,0.162805,2.431092,-0.519606,0.333687,0.30730100000000005,-0.737284,-0.520364
504,-2.100967,-1.344592,2.9766340000000002,-0.193469,0.974525,0.113401,2.792622,-0.697008,0.428307,-0.130689,-0.54827,-0.507963
505,-1.872742,-1.378436,-3.056625,-0.1825,0.981556,0.056843,3.203779,-0.720247,0.555122,-0.013513999999999998,0.090405,0.095394
506,-1.4780389999999999,-1.401538,-2.6452139999999997,-0.167697,0.9857100000000001,-0.0156,4.1116220000000006,-0.855878,0.918424,0.173328,0.853981,0.279379
507,-0.9866959999999999,-1.389457,-2.077293,-0.150426,0.9836030000000001,-0.099438,5.076269,-4.361928,0.9382,0.840627,3.103387,0.76083
508,-0.680551,-1.354929,-1.7354610000000001,-0.13476300000000002,0.976791,-0.166461,2.862793,-0.011951999999999999,1.410683,-1.1207610000000001,2.330597,0.09827000000000001
509,-0.391808,-1.339958,-1.4678,-0.08736000000000001,0.973475,-0.211439,1.752977,1.957281,2.486789,-1.0688739999999999,1.8850759999999998,0.26508899999999996
510,-0.156124,-1.302556,-1.242126,-0.041208,0.964239,-0.261798,3.36712,-0.038276,1.695182,-1.162359,1.7098790000000001,0.27283
511,-0.082004,-1.237945,-1.145797,-0.026763,0.9451149999999999,-0.32563000000000003,2.896099,-1.284738,0.795115,0.166686,0.152893,0.337334
512,-0.085725,-1.1944350000000001,-1.115717,-0.031468,0.930008,-0.36618,2.029258,-1.871164,0.080512,0.6277659999999999,-0.232483,0.678543
513,-0.11510799999999999,-1.164364,-1.109266,-0.045405,0.918537,-0.39271100000000003,1.050794,-1.6282020000000001,0.10968499999999999,0.6822,-0.304859,0.7479359999999999
514,-0.119995,-1.156677,-1.078166,-0.048167,0.9154709999999999,-0.399482,0.20579899999999998,-1.696045,0.757622,-0.417882,-1.068135,1.19445
515,-0.11733699999999998,-1.159082,-1.059885,-0.046847,0.916436,-0.397421,-0.279506,-0.010459999999999999,0.034227,-0.724057,-1.514413,1.223761
516,-0.12996300000000002,-1.180408,-1.080084,-0.049317,0.924761,-0.37732899999999997,-1.799263,0.220031,-0.344152,0.10746800000000001,-1.991473,1.251719
517,-0.16164,-1.226133,-1.112371,-0.054376,0.9411889999999999,-0.333465,-2.434561,0.006519,-0.211585,0.342492,-1.003659,0.38011100000000003
518,-0.17285999999999999,-1.269017,-1.141434,-0.05112,0.954809,-0.29277800000000004,-1.9982849999999999,1.448412,0.065216,0.33923600000000004,-1.017279,0.339424
519,-0.107001,-1.300769,-1.128724,-0.028487000000000002,0.963764,-0.265217,-1.230251,3.373883,0.601156,-0.013963,-0.38043499999999997,-0.765575
520,0.017043,-1.315296,-1.073648,0.004307,0.9675370000000001,-0.252677,-0.42563999999999996,3.1369830000000003,0.804701,0.17205399999999998,-0.10834500000000001,-1.182641
521,0.12427200000000001,-1.315015,-0.997216,0.031358,0.9674659999999999,-0.25103400000000003,0.279031,0.884753,1.051791,0.138961,-0.124418,-0.670399
522,0.177298,-1.287417,-0.9408719999999999,0.049311,0.960116,-0.27520500000000003,1.759324,-0.422292,0.8223879999999999,0.306844,-0.25693,0.31619
523,0.22282600000000002,-1.258399,-0.930199,0.06791599999999999,0.951599,-0.29973,0.599091,3.269368,0.11093599999999999,-0.408538,-1.090012,2.857943
524,0.24596300000000001,-1.2400120000000001,-0.944528,0.079079,0.945788,-0.314998,1.845127,-2.347363,-0.020578,-3.7831650000000003,1.938459,-4.4344980000000005
525,0.086863,-1.237327,-1.0455809999999999,0.028395999999999998,0.9449120000000001,-0.32607800000000003,-2.086268,0.009117,-2.225959,0.439179,0.360691,3.596968
526,0.08634700000000001,-1.293665,-1.0932709999999999,0.023594,0.961844,-0.272563,-3.145323,3.210331,-0.526167,0.596096,-0.613929,1.591869
527,0.08744099999999999,-1.383192,-1.180591,0.016285,0.982454,-0.18576800000000002,-4.988726,4.8609849999999994,-2.257791,0.078808,0.7264079999999999,0.859108
528,-0.42112799999999995,-1.463866,-1.750299,-0.043608999999999995,0.994288,-0.097357,-3.3052879999999996,0.217967,-3.3125769999999997,-0.629975,2.7053580000000004,0.803763
529,-1.170523,-1.463798,-2.439681,-0.09830499999999999,0.994281,-0.041594,-2.711862,-4.0255,-2.377914,1.0371780000000002,2.547024,-0.021012
530,-1.735134,-1.427109,-2.944503,-0.141224,0.9896950000000001,0.02342,-3.192615,-2.748353,-1.666132,1.200504,2.213293,-0.445661
531,-2.187385,-1.381346,2.913468,-0.153615,0.982108,0.108878,-4.375483,-0.930931,-0.391652,-0.312145,0.956918,-1.340079
532,-2.4001740000000003,-1.3285049999999998,2.685061,-0.16201400000000002,0.970791,0.17693,-2.934614,1.480558,-0.235127,-1.120319,0.262226,-1.285298
533,-2.4853669999999997,-1.284481,2.566616,-0.172298,0.959291,0.223742,-2.520458,1.154743,-0.36748000000000003,-0.24886,0.147108,-1.0175040000000002
534,-2.50861,-1.2483870000000001,2.5286779999999998,-0.187422,0.948475,0.25545,-1.227459,0.37693699999999997,-0.650145,0.63603,-0.5830569999999999,-0.691531
535,-2.50035,-1.237835,2.533441,-0.195502,0.9450790000000001,0.2619,-0.047760000000000004,0.053555,-0.1907,1.036109,-1.1196700000000002,-0.968275
536,-2.4983470000000003,-1.2416209999999999,2.535036,-0.193879,0.9463090000000001,0.25864299999999996,0.325318,0.144379,0.215577,0.758042,-0.9318129999999999,-0.617209
537,-2.474068,-1.25621,2.556145,-0.19153199999999998,0.950924,0.24299,1.047131,0.171051,0.112694,0.180668,-0.9781770000000001,-0.394723
538,-2.40957,-1.277518,2.619414,-0.193206,0.9573010000000001,0.21501599999999998,1.570737,0.148754,-0.09299099999999999,0.114212,-1.049968,-0.688893
539,-2.340929,-1.300834,2.700975,-0.19142,0.963781,0.18566300000000002,1.71259,-0.872978,0.083429,0.134917,-0.780782,-0.64303
540,-2.259259,-1.331863,2.807586,-0.182739,0.971591,0.150349,2.280593,-0.994253,0.348198,0.28271399999999997,-0.7391840000000001,-0.328892
541,-2.105308,-1.368168,2.981633,-0.173149,0.979541,0.102503,2.701541,-0.828608,0.38404099999999997,0.10335499999999999,-0.689181,-0.365793
542,-1.8759130000000002,-1.398932,-3.044068,-0.163088,0.985268,0.051365,2.880921,-1.408085,0.48644899999999996,-0.134169,-0.516273,-0.176594
543,-1.52597,-1.420173,-2.66332,-0.149866,0.9886780000000001,-0.006722,3.4062870000000003,-1.095444,0.701226,0.039316000000000004,0.371857,0.294457
544,-1.049875,-1.4155719999999998,-2.146239,-0.13406600000000002,0.987977,-0.076925,4.313122,-2.7529049999999997,0.953239,0.710726,2.956969,0.496069
545,-0.698454,-1.36258,-1.739522,-0.13291,0.9784010000000001,-0.15829300000000002,3.860264,-1.3936110000000002,0.280696,0.14841300000000002,4.123573,0.230985
546,-0.43488699999999997,-1.3309739999999999,-1.4838959999999999,-0.100065,0.9713799999999999,-0.215403,2.409018,2.1965,2.036002,-0.552355,2.439219,0.337473
547,-0.172998,-1.301507,-1.26245,-0.045793,0.96396,-0.262058,2.4327419999999997,1.2974569999999999,2.269124,-1.377318,2.223906,-0.049038
548,-0.052087,-1.2415559999999999,-1.109586,-0.016833,0.9462879999999999,-0.322873,3.372327,-2.011001,1.649675,-0.21958699999999998,0.8807530000000001,0.201246
549,-0.021652,-1.184922,-1.0325950000000002,-0.008148,0.9264700000000001,-0.376271,2.6015,-1.937087,0.884691,0.321152,-0.24246399999999999,0.521153
550,-0.041076999999999995,-1.1447479999999999,-1.014714,-0.016971,0.9106059999999999,-0.412918,1.5771620000000002,-1.855563,0.034604,0.6362949999999999,-0.38997600000000004,0.510147
551,-0.07715599999999999,-1.1288120000000001,-1.0179120000000002,-0.032969,0.903905,-0.42645299999999997,0.38707800000000003,-1.595334,-0.074455,0.47472600000000004,-0.5078779999999999,0.643555
552,-0.110547,-1.126801,-1.021943,-0.047388,0.903043,-0.426921,-0.07949400000000001,-1.075515,-0.193748,-0.505468,-1.36572,1.20254
553,-0.130073,-1.13431,-1.050031,-0.05483300000000001,0.906243,-0.419179,-0.70715,0.967607,-0.695337,-0.08953,-2.026436,1.106725
554,-0.152379,-1.164623,-1.081612,-0.05997,0.91864,-0.390509,-2.171211,-0.34351,-0.285141,0.38252600000000003,-1.839019,1.121985
555,-0.18246700000000002,-1.2146620000000001,-1.108924,-0.063263,0.9372520000000001,-0.342855,-2.559389,0.21809099999999998,0.000916,0.398667,-1.30035,0.9248870000000001
556,-0.168148,-1.258308,-1.119636,-0.051448,0.951572,-0.303078,-1.9084439999999998,1.818589,0.387972,-0.012136,-0.664142,-0.22806500000000002
557,-0.07710499999999999,-1.286835,-1.0817370000000002,-0.021578999999999997,0.9599530000000001,-0.27931300000000003,-0.984002,3.156621,0.90653,-0.049237,-0.48827299999999996,-0.627578
558,0.049887,-1.298209,-1.009159,0.013424,0.9630780000000001,-0.268872,-0.387131,2.434991,1.031264,0.24722600000000003,-0.172627,-1.102618
559,0.15341300000000002,-1.2926739999999999,-0.9325479999999999,0.041951999999999996,0.961573,-0.27131,0.6588390000000001,0.854783,1.024572,0.15232300000000001,-0.24215100000000003,-0.681692
560,0.190826,-1.26194,-0.893812,0.057651,0.9526819999999999,-0.29843800000000004,1.8103049999999998,0.08522,0.668269,0.230206,-0.326293,-0.197656
561,0.230256,-1.251072,-0.8916629999999999,0.07173,0.9493219999999999,-0.30599699999999996,-0.9275530000000001,2.665829,-0.281378,-0.6543869999999999,-1.735455,2.7243470000000003
562,0.30558,-1.2732809999999999,-0.866691,0.088188,0.956068,-0.27955100000000005,0.008015999999999999,1.223805,0.6809270000000001,-4.701301,0.351046,-6.344259
563,0.08429600000000001,-1.238578,-0.963558,0.027458999999999997,0.945321,-0.324971,-3.5785339999999994,1.833435,-2.139375,-2.1107869999999997,4.181373000000001,-0.8587600000000001
564,0.09012200000000001,-1.320643,-1.021898,0.022278,0.968874,-0.246531,-1.084354,3.629357,-0.27516199999999996,1.203964,-0.128878,1.15832
565,0.091895,-1.338701,-1.11286,0.021106,0.9731870000000001,-0.229028,-2.398647,3.7911309999999996,-2.292807,0.315121,0.038441,0.46865200000000007
566,-0.212628,-1.418067,-1.464474,-0.032098,0.98836,-0.148678,-4.036321,1.427408,-2.768031,-0.647345,1.231062,1.761105
567,-0.724534,-1.4637149999999999,-1.969512,-0.07080399999999999,0.9942719999999999,-0.079993,-3.7065650000000003,-2.437775,-1.8987189999999998,-0.668622,1.9587150000000002,0.595939
568,-1.527862,-1.454494,-2.710346,-0.11588399999999999,0.993245,-0.004978,-3.015023,-3.072133,-2.100315,1.335748,2.158763,-0.23380599999999999
569,-1.982209,-1.407809,-3.115974,-0.14869200000000002,0.9867469999999999,0.064876,-3.604343,-2.425351,-1.363915,0.823924,1.593468,-0.569347
570,-2.294131,-1.346347,2.8768700000000003,-0.16681600000000002,0.974917,0.147296,-3.981721,-0.523109,-0.952382,-1.338708,0.714963,-1.490054
571,-2.435685,-1.288576,2.710433,-0.180647,0.96044,0.211918,-3.2826,1.766805,-0.386411,-0.463732,0.52981,-1.14191
572,-2.4699709999999997,-1.2381309999999999,2.6255599999999997,-0.203192,0.945175,0.255621,-2.433753,2.3254,-0.686709,0.68212,-0.07620299999999999,-0.451788
573,-2.4856540000000003,-1.204921,2.5830490000000004,-0.218192,0.9338110000000001,0.283506,-1.228042,0.343644,-0.314689,1.0171569999999999,-1.1894559999999998,-0.734388
574,-2.49693,-1.1975120000000001,2.580053,-0.219133,0.931135,0.291471,0.035213,-0.599134,-0.076058,0.939119,-0.877073,-1.185605
575,-2.52382,-1.20383,2.569254,-0.20780500000000002,0.93342,0.292455,0.218563,-0.695072,0.579098,0.564433,-0.635599,-0.546057
576,-2.536865,-1.2223110000000001,2.555657,-0.19413,0.939891,0.2809,1.044122,0.273314,0.649853,0.061364,-1.111918,-0.400758
577,-2.491972,-1.251735,2.603104,-0.189725,0.9495299999999999,0.249768,1.836772,-0.311973,0.076096,-0.16935999999999998,-0.953528,-0.652676
578,-2.4290950000000002,-1.285768,2.6882080000000004,-0.183802,0.9596540000000001,0.21276399999999998,2.30003,-1.169171,0.11995399999999999,-0.014943000000000001,-0.673841,-0.5988720000000001
579,-2.346524,-1.326184,2.800215,-0.172877,0.970231,0.16956500000000002,2.606949,-1.1842290000000002,0.422288,0.126079,-0.6666880000000001,-0.451014
580,-2.195468,-1.369367,2.972656,-0.16226400000000002,0.9797819999999999,0.11699000000000001,2.921347,-0.811303,0.39623200000000003,-0.136045,-0.5408930000000001,-0.45916899999999994
581,-1.9410020000000001,-1.408197,-3.03425,-0.150885,0.9868100000000001,0.058558000000000006,3.3530330000000004,-0.711306,0.589263,-0.261011,0.188147,0.348088
582,-1.4491319999999999,-1.4328040000000002,-2.5112419999999998,-0.13650199999999998,0.9904940000000001,-0.01669,4.51171,-2.054691,0.668512,0.275677,1.1843110000000001,0.792004
583,-0.908165,-1.3957190000000002,-1.8989099999999999,-0.137301,0.984713,-0.10714000000000001,4.332008999999999,-2.572359,0.012032,-0.191297,4.376661,0.23548200000000002
584,-0.600846,-1.365201,-1.5947850000000001,-0.11540299999999999,0.9789399999999999,-0.168378,2.786096,2.141394,1.639187,-0.583541,2.147357,0.149213
585,-0.292217,-1.334366,-1.348863,-0.067472,0.9721799999999999,-0.224289,2.52477,3.5369230000000003,1.594981,-0.984926,1.992419,0.272491
586,-0.09957,-1.284985,-1.180213,-0.028025,0.959433,-0.280528,2.803914,-0.06793300000000001,1.8760830000000002,-0.723654,1.320978,-0.239156
587,-0.01595,-1.239943,-1.059012,-0.005181,0.945765,-0.324799,2.293083,-2.1967659999999998,1.357155,0.41860299999999995,0.763997,0.45478900000000005
588,-0.020250999999999998,-1.193627,-1.020364,-0.007458,0.9297110000000001,-0.368207,2.172917,-1.8718759999999999,0.401977,0.674343,-0.27460500000000004,0.706754
589,-0.04148,-1.16164,-0.999633,-0.016497,0.917457,-0.397487,1.207941,-1.987811,0.39431700000000003,0.18196400000000001,-0.686362,0.9390059999999999
590,-0.05327899999999999,-1.149953,-0.976707,-0.021755,0.912745,-0.40794400000000003,0.310084,-1.450813,0.348902,-0.263248,-1.190027,1.090241
591,-0.0653,-1.153805,-0.981822,-0.026427999999999997,0.9143120000000001,-0.404142,-0.544097,0.38164899999999996,-0.288596,-0.327378,-2.396611,1.2330139999999998
592,-0.061956,-1.185676,-0.999497,-0.02326,0.926753,-0.374942,-2.357725,1.014856,-0.156797,0.474905,-1.7441970000000002,1.073337
593,-0.06068099999999999,-1.244,-1.013161,-0.019466999999999998,0.947076,-0.320409,-3.011127,0.770666,-0.06277200000000001,0.485241,-1.378976,0.808004
594,-0.044601,-1.296913,-1.023752,-0.012059,0.962728,-0.27019099999999996,-2.354971,1.645527,0.099855,-0.023494,-0.658208,-0.165189
595,0.026498,-1.329848,-0.994072,0.0063219999999999995,0.9711120000000001,-0.238523,-1.123949,2.323219,0.586149,-0.084264,-0.111203,-0.971087
596,0.14235599999999998,-1.333132,-0.92217,0.0334,0.971891,-0.233035,0.098264,2.123574,0.967751,0.11604500000000001,0.031192,-1.134626
597,0.24696500000000002,-1.323556,-0.8458379999999999,0.059823,0.969591,-0.237288,0.469149,1.096382,0.979136,0.019462,-0.163882,-0.613924
598,0.282034,-1.2961989999999999,-0.807516,0.075462,0.962534,-0.26043299999999997,1.673334,-0.920058,0.702779,0.16231500000000001,-0.383357,-0.089391
599,0.277461,-1.2636969999999998,-0.817388,0.0828,0.9532149999999999,-0.290722,0.951383,2.0009930000000002,-0.018511,0.172449,-0.7362350000000001,1.483532
600,0.351077,-1.275079,-0.8305110000000001,0.10022,0.956593,-0.273638,-0.404204,4.7145779999999995,-0.256852,-3.8262940000000003,0.41642299999999993,-4.170866
601,0.175177,-1.2390079999999999,-0.907536,0.05676799999999999,0.9454610000000001,-0.32074,1.039919,-4.025771,-1.300581,0.675089,1.869389,4.58899
602,0.148254,-1.295798,-0.9737309999999999,0.040108,0.962426,-0.268554,-1.975393,2.220423,-0.938678,0.9824440000000001,-0.30609899999999995,1.7183680000000001
603,0.166966,-1.33607,-1.02762,0.038649,0.972578,-0.22932600000000003,-2.74497,4.085767,-1.614083,0.28592,0.128695,0.919985
604,-0.058565,-1.42146,-1.343123,-0.008707,0.98887,-0.148499,-4.119786,3.685897,-3.784187,-0.778509,2.050009,1.2484899999999999
605,-0.610105,-1.4580629999999999,-1.8909639999999999,-0.064432,0.9936520000000001,-0.092167,-2.729562,-2.729041,-2.365817,-0.6865140000000001,2.503967,0.477009
606,-1.404583,-1.458708,-2.619284,-0.11027,0.993725,-0.018499,-3.3700069999999998,-3.054618,-1.910537,1.177806,2.183399,-0.048731000000000003
607,-1.953704,-1.423833,-3.12471,-0.135797,0.9892200000000001,0.054697,-3.799267,-2.34672,-0.879336,0.599862,1.265067,-0.616343
608,-2.357672,-1.367931,2.783128,-0.142235,0.9794930000000001,0.142655,-4.027019999999999,-0.7968,-0.402213,-0.140129,0.899566,-1.022248
609,-2.513964,-1.313479,2.6076919999999997,-0.149428,0.967076,0.20596799999999998,-3.1504790000000003,1.264665,-0.13594900000000001,-0.879717,0.270427,-1.364644
610,-2.575869,-1.2646700000000002,2.518916,-0.16153,0.953508,0.254397,-2.21842,1.231143,-0.552412,0.142197,-0.10850699999999999,-0.47195600000000004
611,-2.565826,-1.234666,2.512899,-0.179577,0.9440379999999999,0.27664099999999997,-0.784062,0.215871,-0.714144,0.578198,-1.0444870000000002,-1.066527
612,-2.546248,-1.22692,2.5361700000000003,-0.189055,0.9414549999999999,0.279119,0.124867,0.010227,-0.425521,0.709791,-0.996448,-1.0708520000000001
613,-2.535747,-1.232321,2.545815,-0.189077,0.943262,0.272935,0.522714,-0.035481,0.269525,0.485067,-0.747919,-0.40625100000000003
614,-2.513624,-1.2558129999999998,2.572505,-0.181996,0.950802,0.250681,1.626974,-0.027618,0.27616,0.351186,-1.054439,-0.544718
615,-2.451027,-1.287648,2.635831,-0.17794400000000002,0.960181,0.215354,1.8233150000000002,-0.086625,0.21030900000000002,0.032008999999999996,-0.8320069999999999,-0.8527129999999999
616,-2.381259,-1.318768,2.725526,-0.17184000000000002,0.968409,0.180678,2.079022,-1.197195,0.126992,-0.022313,-0.787409,-0.38151399999999996
617,-2.269947,-1.354113,2.8657169999999996,-0.16453299999999998,0.976616,0.138346,2.6307099999999997,-1.1077700000000001,0.195893,0.093183,-0.765098,-0.225794
618,-2.056225,-1.390317,3.099829,-0.15873900000000002,0.983758,0.08374,3.014607,-0.6925100000000001,0.178814,-0.094801,-0.568032,-0.421371
619,-1.747237,-1.413377,-2.8506720000000003,-0.154306,0.987635,0.027512,2.996299,-1.159223,0.22521799999999997,-0.183509,-0.200068,-0.075913
620,-1.330914,-1.418679,-2.4083930000000002,-0.14716300000000002,0.988452,-0.035995,3.687639,-0.9950450000000001,0.39434,0.287437,0.8734860000000001,0.74353
621,-0.858442,-1.378352,-1.884752,-0.144733,0.98154,-0.12499600000000001,5.272716,-2.800704,0.090464,0.522709,3.4817169999999997,0.40736
622,-0.610054,-1.3298889999999999,-1.613047,-0.136679,0.9711219999999999,-0.195535,2.858361,0.320866,1.3044639999999998,-0.7013189999999999,2.786675,-0.16501500000000002
623,-0.34868299999999997,-1.304768,-1.3804100000000001,-0.08981900000000001,0.964823,-0.247069,2.395051,2.224059,2.0850009999999997,-0.690974,1.7651119999999998,0.206008
624,-0.17961300000000002,-1.2619360000000002,-1.222461,-0.054301999999999996,0.952681,-0.299072,2.783384,-0.096954,1.4273209999999998,-0.717823,1.250399,0.06791699999999999
625,-0.10169299999999999,-1.216568,-1.121602,-0.035212,0.9379139999999999,-0.345067,2.109596,-1.304241,1.294907,-0.03948,0.758131,0.251546
626,-0.084205,-1.1765700000000001,-1.063439,-0.032304,0.9232940000000001,-0.382727,2.241184,-2.007821,0.507312,0.569963,0.153595,0.75849
627,-0.102078,-1.145808,-1.037852,-0.042013999999999996,0.9110440000000001,-0.410157,1.0429629999999999,-2.1385009999999998,0.393356,0.538108,-0.150042,0.572923
628,-0.115505,-1.1412200000000001,-1.00671,-0.047998,0.909142,-0.413704,-0.027991000000000002,-1.9700369999999998,0.750991,0.007379999999999999,-0.623055,0.787651
629,-0.11570699999999999,-1.147461,-0.9829540000000001,-0.047425999999999996,0.911724,-0.40805,-0.367555,-0.39026700000000003,0.255213,-0.524748,-1.38113,0.9406120000000001
630,-0.11023499999999999,-1.1629690000000001,-0.998202,-0.043632,0.917985,-0.394202,-1.222616,1.571808,-0.293794,-0.310281,-2.061631,1.0916350000000001
631,-0.105243,-1.2051370000000001,-1.019382,-0.037561000000000004,0.9338879999999999,-0.355579,-2.600852,0.81221,-0.15076099999999998,0.5350590000000001,-1.624623,0.9574010000000001
632,-0.102309,-1.258186,-1.0404959999999999,-0.031409,0.951534,-0.30592600000000003,-2.557095,1.664791,-0.012679000000000001,0.40381500000000004,-0.9963489999999999,0.510745
633,-0.055922,-1.29999,-1.041469,-0.014950999999999999,0.9635549999999999,-0.267079,-1.747844,2.572595,0.303732,-0.103854,-0.430154,-0.433299
634,0.030617000000000002,-1.31835,-1.001494,0.007645999999999999,0.968304,-0.249644,-0.392419,2.093419,0.677009,0.338149,-0.06303099999999999,-0.969412
635,0.12574100000000002,-1.314746,-0.927039,0.031760000000000004,0.967398,-0.251249,0.366261,0.5989329999999999,1.060237,0.253091,-0.19481500000000002,-0.711321
636,0.185103,-1.290451,-0.863915,0.050922,0.96096,-0.27195,1.509308,-0.39309099999999997,0.931692,0.151898,-0.6611859999999999,0.274971
637,0.22170399999999998,-1.2607540000000002,-0.8347629999999999,0.067087,0.9523209999999999,-0.297621,0.9505450000000001,1.4606370000000002,0.580378,0.005866,-1.327428,2.059294
638,0.303473,-1.277776,-0.815301,0.086314,0.957376,-0.275636,-1.80086,3.82111,-0.185348,-0.5417890000000001,-1.6932770000000001,2.288377
639,0.268113,-1.259343,-0.85462,0.081178,0.951889,-0.295485,5.2792330000000005,-9.718933,-1.1632639999999999,-3.538163,3.210602,-4.7874620000000006
640,0.035696,-1.280534,-1.000641,0.010214,0.958169,-0.286011,-7.267098,6.581489,-1.367928,0.8335520000000001,2.945808,5.511719
641,0.108455,-1.332837,-1.049204,0.025513,0.9718209999999999,-0.23432199999999997,0.707141,5.743062,-0.8090890000000001,1.7354880000000001,0.8206600000000001,1.8094860000000001
642,-0.004639,-1.3603809999999998,-1.235603,-0.0009689999999999999,0.977944,-0.208848,-3.0767439999999997,1.670418,-3.095999,0.056496000000000005,0.695747,1.26619
643,-0.351848,-1.417084,-1.596719,-0.052758000000000006,0.988209,-0.143705,-2.806655,0.025211,-2.160515,-0.488853,1.948451,0.836851
644,-0.9007799999999999,-1.449387,-2.110674,-0.094902,0.9926389999999999,-0.07518899999999999,-3.902529,-3.5821169999999998,-1.9338790000000001,0.14785,2.431479,-0.33103
645,-1.619884,-1.439792,-2.7629240000000004,-0.130439,0.991431,0.006408,-3.487651,-3.216468,-1.293722,1.567283,2.0535669999999997,-0.327987
646,-2.136372,-1.4019270000000001,3.043977,-0.141873,0.985775,0.090053,-4.149296,-1.701662,-0.45104799999999995,-0.623202,0.858432,-1.202434
647,-2.427908,-1.34463,2.75668,-0.146781,0.974533,0.16950199999999999,-3.597548,0.494098,-0.187225,-1.4161920000000001,0.28367600000000004,-1.354225
648,-2.536597,-1.2919049999999999,2.6074200000000003,-0.156564,0.961361,0.226413,-3.106427,2.21077,-0.208427,-1.026877,0.15115699999999999,-1.141178
649,-2.547907,-1.246643,2.548537,-0.17817,0.9479209999999999,0.263993,-1.953688,1.881484,-0.645402,0.6265189999999999,-0.6841729999999999,-0.481049
650,-2.555858,-1.223139,2.542532,-0.188333,0.9401729999999999,0.283893,-0.257772,-0.9584879999999999,-0.530572,1.073313,-1.252139,-1.3012270000000001
651,-2.555622,-1.2243540000000002,2.55669,-0.18776900000000002,0.9405870000000001,0.282896,0.162169,-0.33114,0.194744,0.800623,-0.424016,-0.740401
652,-2.563811,-1.236335,2.544036,-0.179277,0.9445870000000001,0.274964,0.693627,0.265442,0.525636,0.06852899999999999,-1.043968,-0.586854
653,-2.514425,-1.2621129999999998,2.5947150000000003,-0.17828,0.952734,0.245977,1.862989,-0.009346,-0.233896,-0.223041,-1.0685790000000002,-0.507848
654,-2.4161610000000002,-1.2903069999999999,2.704271,-0.183652,0.9609200000000001,0.20711300000000002,2.28095,-0.683487,-0.374322,-0.045764,-0.781812,-0.571508
655,-2.2829740000000003,-1.322278,2.861068,-0.186169,0.9692780000000001,0.160724,2.622773,-0.8750629999999999,-0.181546,0.191098,-0.692804,-0.499179
656,-2.128238,-1.3562889999999999,3.0316,-0.180623,0.977081,0.112599,2.628988,-0.357482,0.380787,-0.004802000000000001,-0.57695,-0.42171099999999995
657,-1.89967,-1.3864239999999999,-3.0053240000000003,-0.173483,0.983051,0.059204,3.0045669999999998,-0.9675530000000001,0.238914,-0.133768,-0.514958,-0.24206599999999998
658,-1.5539479999999999,-1.403097,-2.628257,-0.16686900000000002,0.9859709999999999,-0.0028120000000000003,3.7156540000000002,-1.268527,0.29661,0.105696,0.359747,0.314488
659,-1.085186,-1.3831579999999999,-2.105808,-0.164956,0.982448,-0.08705800000000001,5.316412000000001,-3.384122,0.230386,0.832833,1.78246,0.46880200000000005
660,-0.77354,-1.335901,-1.7365680000000001,-0.162599,0.9725389999999999,-0.166502,3.348327,-0.5176229999999999,0.643459,-0.26568400000000003,4.979044999999999,0.356825
661,-0.50841,-1.315692,-1.504031,-0.122833,0.9676370000000001,-0.220419,2.189283,3.062766,2.179697,-0.946976,2.3545830000000003,0.038961
662,-0.21848499999999998,-1.296154,-1.269239,-0.05878099999999999,0.962522,-0.264744,2.130256,2.4137619999999997,2.559335,-1.056697,1.870653,-0.122341
663,-0.065821,-1.2489540000000001,-1.096954,-0.020804,0.9486540000000001,-0.315621,2.818121,-1.8439869999999998,1.924389,0.049293000000000003,1.03862,0.060524
664,-0.020665,-1.1979,-1.002809,-0.007528,0.931276,-0.36422899999999997,2.540549,-2.1786790000000003,1.1494870000000001,0.7674770000000001,-0.076173,0.630785
665,-0.037281,-1.1597620000000002,-0.9653790000000001,-0.014891999999999999,0.916708,-0.399273,1.326296,-2.474002,0.398969,0.6107630000000001,-0.473257,0.603558
666,-0.060316999999999996,-1.149248,-0.942572,-0.024665,0.912457,-0.408423,0.251819,-2.164918,0.49254899999999996,-0.007425,-0.8515280000000001,0.945517
667,-0.083565,-1.1485450000000001,-0.9302790000000001,-0.034206,0.912169,-0.408378,-0.08403300000000001,-1.187027,-0.006705,-0.5969439999999999,-1.579069,1.32209
668,-0.09917000000000001,-1.159753,-0.957608,-0.039559,0.9167049999999999,-0.397596,-1.026098,1.318794,-0.594404,-0.47849200000000003,-2.280779,1.2332889999999999
669,-0.108984,-1.2027649999999999,-0.9925430000000001,-0.039132,0.9330370000000001,-0.357637,-2.886987,0.5785359999999999,-0.340467,0.36806500000000003,-1.697091,1.088701
670,-0.132223,-1.264708,-1.029194,-0.039726,0.953519,-0.298691,-3.064804,0.831993,-0.16577999999999998,0.286796,-1.012327,0.6069640000000001
671,-0.125318,-1.315344,-1.050556,-0.031581,0.967549,-0.250689,-2.200358,1.747839,0.22257600000000002,-0.07285,-0.532963,-0.179823
672,-0.041995,-1.344496,-1.012023,-0.009419,0.9745030000000001,-0.22416,-0.874654,2.461035,0.805625,-0.028560000000000002,-0.110642,-0.924293
673,0.09762799999999999,-1.347469,-0.9144709999999999,0.021586,0.975166,-0.220404,0.142623,1.9650459999999998,1.14772,0.351812,0.10814700000000001,-1.030893
674,0.199304,-1.329465,-0.837015,0.047314999999999996,0.9710209999999999,-0.23424899999999999,1.255515,0.807359,0.915559,-0.046338,-0.10978399999999999,-0.8256110000000001
675,0.210619,-1.285288,-0.8234090000000001,0.058879999999999995,0.959519,-0.275409,2.609032,0.21135500000000002,0.404485,0.06992000000000001,-0.362076,0.288729
676,0.230848,-1.2697129999999999,-0.8548950000000001,0.06785,0.955016,-0.288677,-0.854667,3.47065,-0.741246,-0.40835,-1.548186,2.9565240000000004
677,0.276372,-1.285449,-0.8645510000000001,0.076806,0.959564,-0.270796,1.306451,-1.625181,0.202255,-3.624597,-1.4013209999999998,-2.467912
678,0.081416,-1.273642,-0.933067,0.023811000000000002,0.9561729999999999,-0.291819,-5.1314779999999995,3.1027880000000003,-1.2096870000000002,0.8766709999999999,2.8548009999999997,4.954783
679,0.132927,-1.351774,-0.9838469999999999,0.028794,0.97611,-0.215342,-1.063365,5.979817,-0.9371309999999999,1.8722830000000001,1.410578,2.525431
680,0.028527999999999998,-1.386123,-1.198141,0.0052369999999999995,0.9829959999999999,-0.18353,-3.038757,3.267977,-3.30502,0.595013,0.482275,-0.595371
681,-0.470926,-1.444561,-1.715063,-0.057108000000000006,0.992043,-0.112167,-3.2152849999999997,-0.606685,-2.556737,-0.440359,1.290214,1.814209
682,-1.154158,-1.46151,-2.355284,-0.099704,0.994034,-0.044124000000000003,-3.618689,-3.9320160000000004,-2.056434,-0.052197,2.110473,0.14677
683,-1.8447939999999998,-1.4263549999999998,-2.972167,-0.13853900000000002,0.9895860000000001,0.038939,-3.620945,-3.18528,-1.516886,1.136082,1.9966959999999998,-0.478209
684,-2.253884,-1.3720370000000002,2.930026,-0.153131,0.9803120000000001,0.124615,-4.3707519999999995,-1.075875,-0.641407,0.191064,1.338596,-1.069286
685,-2.486483,-1.308029,2.693753,-0.15824100000000002,0.965675,0.205963,-3.626421,0.727565,0.062235000000000006,-1.086632,0.47135200000000005,-1.219696
686,-2.560908,-1.258651,2.576302,-0.168464,0.951677,0.256748,-2.65246,2.181033,-0.35690900000000003,-0.606942,0.303114,-0.9596889999999999
687,-2.546981,-1.2221469999999999,2.560133,-0.191366,0.9398350000000001,0.282979,-1.102116,0.722649,-0.8954129999999999,0.218191,-0.644883,-0.610433
688,-2.518136,-1.210475,2.60006,-0.20584000000000002,0.9357840000000001,0.286231,0.388971,-0.854661,-0.9470700000000001,0.8056479999999999,-0.978081,-1.117102
689,-2.493873,-1.211865,2.637282,-0.21193800000000002,0.9362729999999999,0.280114,0.45369899999999996,-0.067935,-0.077025,0.9028709999999999,-0.69201,-0.69198
690,-2.471254,-1.227716,2.649058,-0.208973,0.941723,0.263586,0.986483,0.779271,0.447971,0.6340979999999999,-0.8361780000000001,-0.292135
691,-2.414689,-1.253299,2.692754,-0.207458,0.9500200000000001,0.233267,1.6516990000000003,0.575856,0.12493399999999999,0.037337,-0.9834209999999999,-0.854864
692,-2.3453630000000003,-1.2791860000000002,2.770797,-0.205467,0.957782,0.20106300000000002,1.7859880000000001,-0.682539,0.084756,-0.082192,-0.876346,-0.8447399999999999
693,-2.273072,-1.3093860000000002,2.864921,-0.197274,0.966026,0.166931,2.138996,-0.940428,0.334311,0.19776300000000002,-0.753487,-0.373947
694,-2.14153,-1.344236,3.017543,-0.18900699999999998,0.9744450000000001,0.121343,2.68614,-0.8534639999999999,0.22372199999999998,0.035838999999999996,-0.646686,-0.375494
695,-1.9269169999999998,-1.373041,-3.021878,-0.184121,0.98051,0.068489,3.0946580000000004,-1.442551,0.133327,-0.07010599999999999,-0.538814,-0.27368899999999996
696,-1.59029,-1.391281,-2.6503639999999997,-0.17849500000000001,0.98393,0.0034799999999999996,4.027659,-1.415492,0.282951,0.377393,0.6850149999999999,0.454528
697,-1.124018,-1.377523,-2.119225,-0.1732,0.981381,-0.082978,5.543268,-3.9599910000000005,0.455963,1.050764,3.106464,0.25495999999999996
698,-0.801505,-1.341336,-1.746504,-0.163391,0.9737889999999999,-0.15821,3.087614,-0.137223,1.112233,0.265167,4.962002,0.50164
699,-0.490563,-1.3234270000000001,-1.472137,-0.11535,0.9695600000000001,-0.21596500000000002,2.497538,3.279139,2.41551,-0.978309,2.389754,0.121422
700,-0.183002,-1.30235,-1.214941,-0.048264999999999995,0.964184,-0.260792,2.006738,1.9903369999999998,2.7950880000000002,-1.2508219999999999,1.625767,0.060185
701,-0.031865,-1.254077,-1.04049,-0.009922,0.950262,-0.311282,2.94161,-2.161782,1.904291,-0.217525,0.90809,0.316866
702,-0.009714,-1.195893,-0.9640299999999999,-0.003557,0.930543,-0.366157,2.878048,-2.303769,0.705484,0.525972,-0.270402,0.662712
703,-0.039927,-1.150863,-0.9532290000000001,-0.016274,0.913116,-0.40736700000000003,1.6692080000000002,-1.870459,-0.045929000000000005,0.5435409999999999,-0.5301359999999999,0.42564700000000005
704,-0.067901,-1.136388,-0.945657,-0.028555,0.907119,-0.41989799999999994,0.319632,-1.9344849999999998,0.351719,0.024374,-0.800765,0.6850189999999999
705,-0.10576300000000001,-1.1368200000000002,-0.944098,-0.044388,0.907301,-0.418125,-0.15875899999999998,-1.687486,-0.261894,-0.349457,-1.412962,1.1438030000000001
706,-0.141439,-1.1453010000000001,-0.9772059999999999,-0.058186,0.910834,-0.408643,-0.9005700000000001,0.504576,-0.61492,-0.103709,-2.256736,1.307706
707,-0.153198,-1.198784,-0.9942200000000001,-0.055466999999999995,0.9315979999999999,-0.359225,-3.7291260000000004,-0.389975,0.433622,0.85608,-1.744739,1.528094
708,-0.15928900000000001,-1.271557,-1.005053,-0.046757,0.9555610000000001,-0.291049,-3.170169,0.976042,0.398388,0.700642,-0.975657,0.5967899999999999
709,-0.089013,-1.319597,-0.984491,-0.022095,0.968615,-0.24756599999999998,-1.8762279999999998,3.336432,0.6735939999999999,-0.17393499999999998,-0.153201,-0.543435
710,0.055751999999999996,-1.335309,-0.9126920000000001,0.013,0.9724010000000001,-0.23293699999999998,-0.067232,3.599245,1.046952,0.034226,0.257442,-1.434833
711,0.20497100000000001,-1.322899,-0.812164,0.049937999999999996,0.9694299999999999,-0.24021399999999998,0.621532,1.8731959999999999,1.324235,0.100742,0.132987,-0.982167
712,0.285211,-1.298311,-0.738408,0.07571699999999999,0.9631049999999999,-0.25824,1.247934,-0.430253,1.1286,-0.061145000000000005,-0.358567,-0.586746
713,0.27265700000000004,-1.253542,-0.7325020000000001,0.084005,0.9500959999999999,-0.300423,2.518709,-0.21749699999999997,0.369152,-0.022527000000000002,-0.7644270000000001,1.415841
714,0.295567,-1.2361870000000001,-0.759688,0.095654,0.9445389999999999,-0.31414899999999996,0.12285,3.713737,-0.30850900000000003,-1.035092,-1.529103,2.051759
715,0.20219700000000002,-1.210007,-0.7861100000000001,0.070891,0.9356190000000001,-0.345812,1.62798,-12.011773,-0.30348200000000003,-3.72859,1.5008290000000002,-5.0080089999999995
716,0.081585,-1.265418,-0.8844209999999999,0.024501,0.9537329999999999,-0.299642,-4.1331050000000005,2.693482,-2.280025,1.8135270000000001,0.41935900000000004,4.622136
717,0.128987,-1.3247149999999999,-0.90355,0.031333,0.969874,-0.24156599999999998,-2.6304220000000003,4.152163,-0.202252,1.2034850000000001,0.163411,1.561192
718,0.081871,-1.3987180000000001,-1.060208,0.014001,0.985231,-0.170631,-4.329885,4.450518,-3.272825,0.345954,1.1191389999999999,-0.036461
719,-0.493019,-1.4809649999999999,-1.6701380000000001,-0.042433,0.9959680000000001,-0.078979,-3.9159580000000003,-0.0577,-2.3080979999999998,-0.7499859999999999,1.8863869999999998,1.345642
720,-1.415967,-1.482852,-2.546696,-0.08672,0.996135,-0.013535,-3.043745,-3.489876,-2.300812,0.5597880000000001,2.5358169999999998,-0.097137
721,-2.0276419999999997,-1.433613,-3.0978630000000003,-0.12269100000000001,0.990605,0.06030599999999999,-3.7076809999999996,-2.418483,-1.391356,0.95904,1.8011119999999998,-0.47243
722,-2.4108970000000003,-1.370491,2.813008,-0.132768,0.9800059999999999,0.14815,-4.45854,0.019849000000000002,-0.188362,-0.099502,0.9541069999999999,-1.446337
723,-2.564893,-1.315999,2.622446,-0.137417,0.967714,0.211261,-3.000868,2.326111,0.160696,-1.185856,0.4158,-1.25571
724,-2.605536,-1.274043,2.5480650000000002,-0.149339,0.956291,0.25137800000000005,-1.545281,0.944514,-0.5836680000000001,-0.43360699999999996,0.114205,-0.863698
725,-2.574836,-1.253807,2.577301,-0.16734300000000002,0.9501780000000001,0.26295100000000005,-0.312665,-0.24415100000000003,-0.898274,0.545196,-0.7274,-0.8707239999999999
726,-2.5280240000000003,-1.24997,2.619581,-0.181562,0.948975,0.257811,0.340923,0.591184,-0.439717,0.8455790000000001,-0.952134,-0.8422379999999999
727,-2.4986650000000004,-1.255965,2.64249,-0.185637,0.9508489999999999,0.247813,0.617603,0.346837,-0.04757,0.463454,-0.8607299999999999,-0.591288
728,-2.448075,-1.268493,2.68437,-0.190301,0.9546530000000001,0.228929,0.995094,0.697394,-0.12870399999999999,0.29178699999999996,-1.0081959999999999,-0.43499899999999997
729,-2.390562,-1.285504,2.735208,-0.19203299999999998,0.9595790000000001,0.205708,1.2431159999999999,0.080974,0.094941,0.37349099999999996,-0.998093,-0.692555
730,-2.339784,-1.3093219999999999,2.800199,-0.185746,0.96601,0.179748,1.561986,-0.969036,0.26302,0.152528,-0.755774,-0.441482
731,-2.263918,-1.338867,2.9027380000000003,-0.176795,0.973225,0.146845,2.196189,-1.1309200000000001,0.236679,0.154288,-0.8109930000000001,-0.281458
732,-2.103078,-1.372354,3.087246,-0.16984000000000002,0.980375,0.10003300000000001,2.721891,-0.92196,0.27213000000000004,-0.056585,-0.587721,-0.48414300000000005
733,-1.864539,-1.4033309999999999,-2.9307790000000002,-0.15950999999999999,0.98601,0.048251,2.893004,-1.221063,0.5963109999999999,0.045985000000000005,0.096723,0.18806199999999998
734,-1.4720959999999998,-1.427565,-2.513225,-0.142009,0.9897600000000001,-0.014062,3.53065,-1.126933,1.01191,0.226634,0.625764,0.450204
735,-0.931436,-1.417408,-1.907525,-0.122583,0.988259,-0.091146,4.659778,-3.853883,1.059611,0.8415159999999999,1.868598,0.503332
736,-0.611425,-1.378144,-1.543539,-0.109892,0.9815,-0.156756,2.807514,-0.556812,1.056335,-0.708803,2.7232279999999998,-0.009626000000000001
737,-0.339854,-1.346935,-1.287031,-0.073996,0.9750479999999999,-0.20928000000000002,2.518582,1.851019,1.7615990000000001,-1.052271,2.089955,0.325888
738,-0.134244,-1.30274,-1.103818,-0.035447,0.9642870000000001,-0.262459,2.970002,0.455951,1.526189,-1.185516,1.872184,0.11502899999999999
739,-0.042825999999999996,-1.246027,-0.9914440000000001,-0.013661000000000001,0.947724,-0.318785,2.64194,-1.2923209999999998,1.316767,0.018101,0.690917,0.22115900000000002
740,-0.017129,-1.199511,-0.9353379999999999,-0.006214,0.9318620000000001,-0.36275,2.2090520000000002,-1.050166,0.543245,0.399952,0.29277800000000004,0.61803
741,-0.030754000000000004,-1.16501,-0.915067,-0.012138,0.918792,-0.394546,1.465627,-2.216199,0.277832,0.8208989999999999,-0.07867400000000001,0.57936
742,-0.069597,-1.145477,-0.897708,-0.028693,0.910907,-0.41160399999999997,0.7371989999999999,-2.788177,0.35786599999999996,0.029791,-0.618045,0.966353
743,-0.09701599999999999,-1.137322,-0.881655,-0.040685,0.9075120000000001,-0.41804300000000005,0.21206799999999998,-1.387851,0.141964,-0.459269,-1.083049,1.126601
744,-0.111603,-1.142667,-0.894859,-0.046237,0.909744,-0.412579,-0.642714,0.270181,-0.297693,-0.08530900000000001,-2.092819,1.1648370000000001
745,-0.108438,-1.175902,-0.9058120000000001,-0.041635000000000005,0.9230370000000001,-0.382442,-2.3226720000000003,0.770792,0.109742,0.5502560000000001,-1.657382,1.133418
746,-0.09020800000000001,-1.22943,-0.915314,-0.030157,0.942298,-0.333403,-2.659289,1.79798,0.069755,0.194571,-1.09275,0.523741
747,-0.038651,-1.275776,-0.9117059999999999,-0.011235,0.9567959999999999,-0.290528,-2.066548,2.684314,0.34836100000000003,-0.20527199999999998,-0.604456,-0.242477
748,0.06473200000000001,-1.306195,-0.8651409999999999,0.016916,0.965197,-0.260961,-1.162544,2.929871,0.760285,-0.053903999999999994,-0.28936999999999996,-0.862757
749,0.17963900000000002,-1.315697,-0.790221,0.045084,0.9676379999999999,-0.24826399999999998,-0.253209,1.519833,0.940427,0.08276900000000001,-0.222536,-0.9601719999999999
750,0.24089699999999997,-1.2992709999999998,-0.739853,0.06398200000000001,0.963363,-0.26044,1.2936159999999999,0.055979999999999995,0.706348,0.088545,-0.156448,-0.7566189999999999
751,0.23983800000000002,-1.25819,-0.74608,0.073051,0.951535,-0.298724,2.164023,1.130018,0.158781,0.134697,-0.574567,1.1412069999999999
752,0.272497,-1.254653,-0.785162,0.083672,0.950442,-0.29941799999999996,-0.5247970000000001,4.814383,-0.8656459999999999,-4.19088,1.234251,-4.899541
753,0.144467,-1.226615,-0.8709469999999999,0.048576,0.9413520000000001,-0.333899,3.054263,-6.510119,-1.4147239999999999,-1.627449,2.9302610000000002,-0.9369139999999999
754,0.056405,-1.270233,-0.982618,0.016689,0.9551700000000001,-0.295573,-3.2172959999999997,2.425968,-1.444345,0.989506,-0.29486100000000004,3.127238
755,0.078413,-1.339705,-1.0202639999999998,0.01794,0.973417,-0.22831500000000002,-3.989501,3.336958,-0.8206549999999999,0.899007,-0.688154,1.347349
756,-0.12044200000000001,-1.4368889999999999,-1.31244,-0.016036,0.9910479999999999,-0.132502,-4.792258,4.514139,-3.596602,0.44493,2.033946,1.4039709999999999
757,-0.795816,-1.476705,-1.99258,-0.067079,0.995577,-0.065696,-2.971855,-2.658044,-1.79397,-0.053266999999999995,2.826139,0.141959
758,-1.6246610000000001,-1.465886,-2.7589259999999998,-0.10450699999999999,0.994502,0.005635,-3.174482,-3.120707,-1.801202,0.7880550000000001,1.760228,-0.270588
759,-2.110127,-1.41798,3.088735,-0.130578,0.988346,0.078153,-3.815314,-2.110309,-1.109424,0.175271,1.29623,-0.7396520000000001
760,-2.445977,-1.352592,2.765863,-0.13871,0.9762879999999999,0.166155,-4.477978,-0.078966,-0.235373,-0.8406600000000001,0.5814060000000001,-1.776095
761,-2.570522,-1.292138,2.592108,-0.148668,0.961425,0.231397,-3.199193,3.273835,-0.106823,-0.6942729999999999,0.22725,-1.1388530000000001
762,-2.575037,-1.24632,2.529252,-0.171103,0.947818,0.268979,-1.725543,1.7733849999999998,-0.715244,0.181449,-0.053667999999999993,-0.606336
763,-2.5553529999999998,-1.226882,2.56189,-0.186524,0.941442,0.280857,0.018005,-1.335633,-1.024889,0.7089840000000001,-1.156988,-1.215488
764,-2.531215,-1.224035,2.601746,-0.19478299999999998,0.940478,0.278468,0.26632,-0.160302,-0.258745,0.8848010000000001,-0.7807649999999999,-0.877833
765,-2.51661,-1.234501,2.609473,-0.19305899999999998,0.943984,0.26759499999999997,0.672148,0.3003,0.353454,0.532231,-0.8105760000000001,-0.26458899999999996
766,-2.502464,-1.254033,2.628911,-0.185789,0.950249,0.249989,1.158719,-0.24646500000000002,0.267823,0.294294,-1.257011,-0.378392
767,-2.458575,-1.278082,2.668132,-0.182098,0.957464,0.2238,1.327194,0.50373,0.327859,0.101944,-0.7360899999999999,-0.724213
768,-2.413761,-1.30501,2.717365,-0.17472200000000002,0.964886,0.19609200000000002,1.615921,-0.516817,0.347206,0.010812,-0.710904,-0.648179
769,-2.341754,-1.338645,2.8028060000000004,-0.164996,0.973174,0.160298,2.184525,-0.42440500000000003,0.45360900000000004,0.003252,-0.73297,-0.44299700000000003
770,-2.193982,-1.3792659999999999,2.963641,-0.154549,0.981714,0.111079,2.8143029999999998,-0.592781,0.45608699999999996,-0.127144,-0.5200140000000001,-0.508067
771,-1.9059150000000002,-1.420188,-3.012585,-0.141653,0.9886799999999999,0.049331,3.595999,-0.689053,0.676383,-0.15795399999999998,0.259413,0.005295
772,-1.3449870000000002,-1.439083,-2.410148,-0.12795299999999998,0.9913379999999999,-0.029394,4.919376000000001,-3.023195,0.6255930000000001,0.025353,0.8368329999999999,0.381079
773,-0.8437459999999999,-1.3934819999999999,-1.836584,-0.131762,0.9843209999999999,-0.117218,4.027812,-2.039001,0.098944,-0.746152,3.1883630000000003,0.23120100000000002
774,-0.51842,-1.364424,-1.534807,-0.101522,0.9787809999999999,-0.177964,2.568542,3.413845,1.703325,-0.736521,2.171534,0.27591
775,-0.223338,-1.3362969999999998,-1.305914,-0.051459000000000005,0.9726309999999999,-0.22656500000000002,2.163307,2.643442,1.84035,-0.735513,1.557872,-0.10963099999999999
776,-0.044235000000000003,-1.294732,-1.127589,-0.012053,0.9621360000000001,-0.272289,2.317822,-0.8123739999999999,1.9879310000000001,-0.400118,1.3026200000000001,-0.08822999999999999
777,0.011159,-1.248094,-1.0237020000000001,0.003539,0.948382,-0.317098,2.4221619999999997,-2.505963,1.049727,0.826417,-0.006091,0.570974
778,-0.00023700000000000001,-1.2071040000000002,-0.9887799999999999,-8.4e-05,0.9345899999999999,-0.355716,1.63822,-1.969902,0.341742,0.678154,-0.491536,0.6171449999999999
779,-0.019937,-1.186303,-0.9700190000000001,-0.007478,0.926989,-0.37500500000000003,0.778339,-1.9435470000000001,0.357067,0.29635700000000004,-0.674272,0.816945
780,-0.054689,-1.176181,-0.967942,-0.021013999999999998,0.9231450000000001,-0.383868,0.299329,-1.393869,-0.291122,-0.645429,-1.81882,1.316302
781,-0.091388,-1.183316,-1.001203,-0.034483,0.9258639999999999,-0.37627,-0.9956209999999999,0.092313,-0.530671,0.040617,-2.217017,1.2458989999999999
782,-0.11264600000000001,-1.2267370000000002,-1.026275,-0.037915,0.941393,-0.335161,-2.6848549999999998,0.19028399999999998,-0.12385299999999999,0.42886,-1.513582,0.880999
783,-0.110266,-1.27745,-1.0425389999999999,-0.031818,0.957282,-0.28738600000000003,-2.3242990000000003,1.436289,0.187922,0.305469,-1.213385,0.44412399999999996
784,-0.047857,-1.3131059999999999,-1.019075,-0.012191,0.966981,-0.254538,-1.3091979999999999,2.197014,0.609576,-0.035752,-0.314973,-0.755502
785,0.070051,-1.32312,-0.943999,0.017158,0.969485,-0.24453200000000003,-0.161359,2.19631,1.121795,0.364831,-0.038133999999999994,-1.041677
786,0.19809100000000002,-1.315969,-0.8486790000000001,0.049605,0.967707,-0.247131,0.44295100000000004,1.4481030000000001,1.22632,0.09123400000000001,-0.214258,-0.603546
787,0.255083,-1.290275,-0.794304,0.069854,0.9609110000000001,-0.267882,1.572618,-0.686762,0.7936340000000001,-0.07559099999999999,-0.415684,-0.340958
788,0.22641399999999998,-1.2519870000000002,-0.807686,0.070359,0.949609,-0.305424,1.7088580000000002,0.287729,-0.063377,-0.045578,-0.574701,0.7001390000000001
789,0.264744,-1.250821,-0.839699,0.082301,0.9492430000000001,-0.30357199999999995,-0.294466,5.108445,-0.542883,-1.8817540000000001,-0.593057,0.413603
790,0.12105899999999999,-1.218962,-0.9017879999999999,0.041616,0.938742,-0.342088,2.19778,-8.592837,-1.177693,-0.79743,2.892602,2.139253
791,0.056954,-1.271908,-0.9819040000000001,0.016761,0.955664,-0.29396700000000003,-2.688734,1.748277,-0.792447,1.4254850000000001,0.016397,2.803412
792,0.108295,-1.313841,-0.9994379999999999,0.027466,0.967168,-0.252631,-2.542879,4.400818,-0.919809,0.576019,-0.101583,0.5336069999999999
