,attitude.roll,attitude.pitch,attitude.yaw,gravity.x,gravity.y,gravity.z,rotationRate.x,rotationRate.y,rotationRate.z,userAcceleration.x,userAcceleration.y,userAcceleration.z
0,-2.116381,-1.077507,-2.261502,-0.40476799999999996,0.8807799999999999,0.24571300000000001,-1.2642149999999999,-1.027909,-0.947909,0.282683,-0.254346,-0.40767
1,-2.148154,-1.049759,-2.284278,-0.41708100000000004,0.867303,0.27168600000000004,-1.162024,-0.26911799999999997,-0.848823,0.256712,0.079154,-0.560291
2,-2.153824,-1.026749,-2.2970080000000004,-0.43208199999999997,0.855621,0.284961,-0.665042,0.52017,-0.726722,0.2536,0.34668000000000004,-0.463275
3,-2.142509,-1.012749,-2.290595,-0.44531099999999996,0.848291,0.286507,-0.079809,0.055322,-0.604534,0.411818,0.459372,-0.510293
4,-2.130486,-1.007262,-2.274149,-0.452661,0.8453719999999999,0.2836,0.45609700000000003,-0.186877,-0.44131499999999996,0.311594,0.47730500000000003,-0.925049
5,-2.098475,-1.009309,-2.228682,-0.46001000000000003,0.846464,0.26809499999999997,1.5312729999999999,-0.36908,-0.563895,0.43906000000000006,0.8654350000000001,-0.713026
6,-2.040814,-1.022818,-2.150903,-0.464458,0.8535790000000001,0.23593899999999998,2.413919,-0.48834399999999994,-0.275566,0.6020310000000001,1.043683,-0.48483999999999994
7,-1.964881,-1.047368,-2.0451509999999997,-0.461525,0.8661110000000001,0.19192,3.3099,-0.802186,0.175475,0.598076,0.781274,-0.278391
8,-1.854589,-1.081505,-1.9073689999999999,-0.451187,0.882666,0.131596,3.873452,-0.347702,0.582617,-0.025863999999999998,0.590158,-0.174564
9,-1.721271,-1.113173,-1.7446560000000002,-0.43681099999999995,0.8971049999999999,0.06623,3.941157,-0.61985,0.9156559999999999,0.031401,0.466558,0.046685000000000004
10,-1.578385,-1.146779,-1.579809,-0.4114,0.911444,0.0031219999999999998,3.408064,-0.01811,1.6781439999999999,0.225304,0.469034,0.666647
11,-1.419538,-1.180182,-1.422941,-0.376395,0.924675,-0.057371000000000005,2.738442,1.231863,1.8908509999999998,-0.134148,0.7017439999999999,0.8544290000000001
12,-1.271528,-1.200903,-1.291996,-0.345434,0.932366,-0.10657799999999999,1.717196,1.0450629999999999,1.272934,-0.26200300000000004,0.712623,0.6846270000000001
13,-1.181317,-1.211992,-1.202443,-0.324844,0.936317,-0.133331,1.159014,0.043442,1.023559,-0.206742,0.383797,0.174804
14,-1.099968,-1.225198,-1.11944,-0.301888,0.940873,-0.15366300000000002,0.964032,0.422067,1.345383,0.0034869999999999996,0.241256,0.20818299999999998
15,-0.996872,-1.2420579999999999,-1.0229620000000001,-0.271109,0.946451,-0.175277,0.9075350000000001,0.45424499999999995,1.605593,0.26508200000000004,0.074561,0.271804
16,-0.9070440000000001,-1.2596559999999999,-0.9185540000000001,-0.24113400000000001,0.9519850000000001,-0.188599,0.8521290000000001,-1.133057,1.6638560000000002,0.35083000000000003,0.082347,0.409516
17,-0.819258,-1.272398,-0.787568,-0.21478899999999998,0.955809,-0.200715,1.189391,-2.104391,1.854395,0.278632,0.037508,0.43582200000000004
18,-0.723306,-1.279424,-0.637915,-0.19012300000000001,0.95785,-0.21533000000000002,1.254681,-2.655934,1.730576,0.030699,-0.142238,0.367262
19,-0.653998,-1.279406,-0.5023,-0.174765,0.9578450000000001,-0.227994,1.225339,-3.123152,1.380593,-0.11435899999999999,-0.347143,0.520184
20,-0.608031,-1.276865,-0.389639,-0.165493,0.9571120000000001,-0.23778000000000002,0.9651370000000001,-3.0808720000000003,1.156531,-0.202488,-0.35777800000000004,0.5339689999999999
21,-0.5812069999999999,-1.273895,-0.29439499999999996,-0.160616,0.956248,-0.244509,0.8886799999999999,-3.371953,1.021774,-0.198499,-0.316294,0.506059
22,-0.567696,-1.268899,-0.204568,-0.159865,0.954774,-0.250682,0.9238360000000001,-3.6850080000000003,0.95726,-0.13963399999999998,-0.261339,0.481104
23,-0.564685,-1.2656479999999999,-0.126659,-0.160771,0.953802,-0.253783,0.640446,-3.454597,0.8588450000000001,-0.11523,-0.289099,0.453078
24,-0.570782,-1.2671649999999999,-0.066862,-0.16153299999999998,0.954257,-0.25158,0.285804,-2.940555,0.755296,-0.12254000000000001,-0.324802,0.383889
25,-0.584389,-1.273207,-0.027436000000000002,-0.16175699999999998,0.956046,-0.244546,-0.05857999999999999,-2.350632,0.5812189999999999,-0.151399,-0.31838099999999997,0.255166
26,-0.610363,-1.2810489999999999,-0.010125,-0.163751,0.958316,-0.234111,-0.234225,-2.0358330000000002,0.33176100000000003,-0.131354,-0.273685,0.17869100000000002
27,-0.6523329999999999,-1.287536,-0.012140999999999999,-0.169651,0.960149,-0.222088,-0.303334,-1.9994150000000002,0.075927,-0.062679,-0.214346,0.155896
28,-0.708228,-1.291664,-0.02754,-0.179214,0.9612950000000001,-0.209252,-0.269969,-2.099005,-0.089287,0.032135000000000004,-0.08482999999999999,0.06292
29,-0.766466,-1.29239,-0.041844,-0.190605,0.9614950000000001,-0.197963,-0.069233,-2.341358,-0.129235,0.05027,0.11512,-0.18416300000000002
30,-0.8153590000000001,-1.288758,-0.036975,-0.202593,0.96049,-0.190803,0.3366,-2.863023,-0.028523000000000003,0.052508000000000006,0.36075300000000005,-0.512841
31,-0.8407319999999999,-1.286093,-0.005677000000000001,-0.20927600000000002,0.9597450000000001,-0.187309,0.39477399999999996,-2.570839,0.37850100000000003,0.210527,0.34323400000000004,-0.441338
32,-0.829259,-1.291682,0.048726,-0.203154,0.9613,-0.18607100000000001,0.385654,-1.712134,0.895425,0.20641900000000002,0.167072,-0.237558
33,-0.778686,-1.305021,0.12426500000000001,-0.18446500000000002,0.964889,-0.18695799999999999,0.107432,-0.713832,1.367561,0.201951,0.111847,-0.142861
34,-0.700983,-1.3282209999999999,0.21370300000000003,-0.154912,0.970722,-0.183552,-0.10340099999999999,-0.49618,1.732209,0.265127,0.149654,-0.11510799999999999
35,-0.596075,-1.347341,0.347616,-0.124395,0.975137,-0.183368,0.337435,-1.8093290000000002,1.7989279999999999,0.49085,0.165045,-0.341717
36,-0.49989300000000003,-1.3583,0.491071,-0.10108099999999999,0.977508,-0.185075,0.266586,-2.267825,1.434757,0.5954050000000001,-0.037383,-0.13841099999999998
37,-0.45516,-1.3659540000000001,0.584622,-0.089412,0.979093,-0.182685,-0.024256,-2.28894,0.840958,0.41190699999999997,-0.310911,0.114157
38,-0.443558,-1.377262,0.631283,-0.08252999999999999,0.981331,-0.173698,-0.47337299999999993,-1.1166479999999999,0.5756720000000001,-0.198446,0.201012,0.5220100000000001
39,-0.415733,-1.385665,0.665208,-0.07433200000000001,0.9829120000000001,-0.168376,0.20980300000000002,0.004366,0.430525,-0.6185390000000001,0.8522780000000001,0.103099
40,-0.31640100000000004,-1.358956,0.7735,-0.065416,0.9776459999999999,-0.19980499999999998,2.17939,-0.8040579999999999,0.5574819999999999,-0.8222790000000001,0.3638,-0.215982
41,-0.268814,-1.3306799999999999,0.835073,-0.06315599999999999,0.97131,-0.22925900000000002,0.799184,-0.530848,0.03154,-0.894699,-0.9460879999999999,0.839519
42,-0.345598,-1.337475,0.761578,-0.078319,0.9729040000000001,-0.217523,-1.2247860000000002,0.16276600000000002,-1.172418,-0.424092,-1.0483129999999998,0.8799680000000001
43,-0.516011,-1.34975,0.568967,-0.108172,0.975669,-0.190687,-1.442156,1.095625,-1.967752,-0.077466,-0.457129,0.743834
44,-0.747146,-1.346207,0.329388,-0.151327,0.974886,-0.16337100000000002,-1.3997680000000001,-0.817113,-2.39443,-0.28731799999999996,0.70558,0.394282
45,-0.975809,-1.328963,0.159276,-0.19831400000000002,0.9709,-0.13422,-0.406435,-4.200918,-1.270068,0.41291400000000006,1.389726,-0.338391
46,-1.0507549999999999,-1.308142,0.15601700000000002,-0.225304,0.9657040000000001,-0.12901300000000002,0.8722629999999999,-3.4686269999999997,-0.8924700000000001,0.308938,0.44375,0.06668099999999999
47,-1.1150879999999999,-1.294577,0.168329,-0.24487399999999998,0.962093,-0.12001600000000001,0.079666,-3.8186620000000002,-0.316445,0.031876,-0.06477000000000001,0.414633
48,-1.222992,-1.294397,0.138712,-0.256537,0.962044,-0.09300599999999999,-0.575842,-4.181544000000001,-0.109051,-0.038461,0.029899000000000002,0.17410599999999998
49,-1.3704290000000001,-1.298088,0.074656,-0.263934,0.963045,-0.053603,-1.046817,-4.205799,-0.028988,0.226077,-0.26190399999999997,0.168959
50,-1.52831,-1.302047,-0.016867,-0.26526700000000003,0.9641040000000001,-0.011276999999999999,-1.313179,-3.001811,0.144933,0.22445,-0.258263,0.174714
51,-1.680995,-1.308801,-0.12626800000000002,-0.257416,0.965875,0.028482,-1.4802549999999999,-2.035555,0.543111,0.20568899999999998,-0.174981,0.121802
52,-1.829292,-1.314408,-0.244356,-0.245141,0.9673120000000001,0.064818,-1.393782,-1.596769,0.495083,0.05993,-0.20109200000000002,0.016130000000000002
53,-1.9675200000000002,-1.313697,-0.35945,-0.234506,0.967131,0.098243,-1.379712,-1.160785,0.411301,-0.35544499999999996,-0.39685,0.0007099999999999999
54,-2.077534,-1.305133,-0.45130699999999996,-0.229535,0.9649190000000001,0.127411,-1.136358,-1.196768,-0.124268,-0.57291,-0.200621,-0.045380000000000004
55,-2.157934,-1.286485,-0.505165,-0.23350300000000002,0.9598549999999999,0.155377,-1.113024,-1.3774520000000001,-0.513775,-0.196062,-0.043762999999999996,-0.135312
56,-2.218107,-1.264701,-0.5455,-0.240362,0.9535170000000001,0.181706,-1.082798,-0.873482,-0.563348,-0.000559,-0.12211199999999998,-0.07939600000000001
57,-2.256599,-1.242077,-0.57476,-0.24982600000000002,0.946457,0.204433,-1.03231,-0.39611799999999997,-0.637314,0.046868,-0.16308599999999998,-0.041027
58,-2.2774919999999996,-1.220034,-0.588195,-0.261306,0.939111,0.22310300000000002,-0.7653369999999999,-0.43395200000000006,-0.730475,0.06221,-0.033929,-0.020283000000000002
59,-2.2859540000000003,-1.1995360000000002,-0.588553,-0.273889,0.9318709999999999,0.237882,-0.635672,-0.374475,-0.7980119999999999,0.10584400000000001,0.101409,-0.245954
60,-2.289006,-1.179345,-0.583832,-0.287273,0.924356,0.25104899999999997,-0.5792189999999999,-0.424621,-0.827463,0.130519,0.172934,-0.37162399999999995
61,-2.296827,-1.159806,-0.577998,-0.29875300000000005,0.916725,0.265231,-0.534357,-0.8393649999999999,-0.7785479999999999,0.30568,0.24498699999999998,-0.5291319999999999
62,-2.310478,-1.145239,-0.569263,-0.304937,0.910809,0.278256,-0.18784700000000001,-1.1630989999999999,-0.573819,0.31783,0.386402,-0.384748
63,-2.314229,-1.14162,-0.547995,-0.306315,0.909309,0.28162800000000004,0.44077700000000003,-1.137385,-0.356885,0.23025,0.380578,-0.399654
64,-2.305144,-1.147316,-0.511756,-0.305012,0.9116639999999999,0.275358,0.9062479999999999,-1.222437,-0.270203,0.058918,0.39570900000000003,-0.52403
65,-2.27608,-1.161846,-0.457241,-0.302766,0.917539,0.257763,1.619737,-0.8867959999999999,-0.10968900000000001,0.07676799999999999,0.567416,-0.514675
66,-2.2125630000000003,-1.188356,-0.36889,-0.298923,0.9277569999999999,0.223383,2.4594650000000002,-0.9881979999999999,0.011674,0.201053,0.578515,-0.5768979999999999
67,-2.10174,-1.2248,-0.230196,-0.29243,0.940738,0.17171,3.4415139999999997,-0.879639,0.250199,0.33257600000000004,0.5798,-0.31793499999999997
68,-1.9132930000000001,-1.2662790000000002,-0.016522,-0.2824,0.9539920000000001,0.100689,4.131687,-0.57762,0.58044,0.136022,0.315204,-0.101177
69,-1.6778549999999999,-1.302322,0.241727,-0.26372199999999996,0.9641770000000001,0.028342000000000003,3.8165129999999996,-0.641423,1.091067,-0.15249200000000002,0.132717,0.319604
70,-1.401884,-1.3216620000000001,0.533722,-0.243036,0.969126,-0.041447000000000005,3.648305,0.048808,0.987527,-0.35420799999999997,0.35352100000000003,1.014545
71,-1.1258350000000001,-1.316581,0.8006810000000001,-0.22698000000000002,0.9678610000000001,-0.10823699999999999,2.870261,1.295052,0.62905,-0.330744,0.396122,0.825659
72,-0.94253,-1.303468,0.9625729999999999,-0.2137,0.9644799999999999,-0.155245,1.6309930000000001,1.294459,0.5199819999999999,-0.31971700000000003,0.354718,0.575075
73,-0.805357,-1.305309,1.06928,-0.189183,0.964965,-0.181779,0.868848,2.117869,1.191924,-0.301707,0.440171,0.12487899999999999
74,-0.631905,-1.305727,1.205385,-0.15473499999999998,0.965074,-0.211376,1.1800469999999998,1.8599459999999999,1.4860520000000002,-0.380833,0.228529,0.357739
75,-0.47391300000000003,-1.310055,1.344211,-0.117644,0.966199,-0.22937,0.604129,0.694616,1.698236,-0.07542599999999999,0.013949000000000001,0.45698599999999995
76,-0.32222399999999995,-1.311145,1.490889,-0.081299,0.9664799999999999,-0.24351399999999998,0.785115,0.45502600000000004,1.7831279999999998,0.079804,-0.117526,0.4915
77,-0.182213,-1.303944,1.631061,-0.047781,0.964606,-0.259316,0.792361,-0.053309,1.5605719999999998,-0.036127,-0.296164,0.267723
78,-0.086061,-1.293385,1.74437,-0.023538999999999997,0.9617680000000001,-0.272839,0.632215,-0.972417,1.376897,-0.197714,-0.42291899999999993,0.292706
79,-0.027052,-1.286449,1.8299419999999997,-0.007587999999999999,0.9598450000000001,-0.280414,0.289011,-1.244665,1.026608,-0.25261999999999996,-0.49104899999999996,0.340442
80,-0.007431,-1.284511,1.881229,-0.002098,0.9593,-0.282368,0.007809999999999999,-1.6326690000000001,0.532691,-0.357994,-0.487544,0.387364
81,-0.030869,-1.285981,1.8956959999999998,-0.008672,0.9597129999999999,-0.280833,-0.089589,-1.998764,-0.004836,-0.355205,-0.496899,0.41117299999999996
82,-0.097951,-1.289085,1.8689639999999998,-0.027185,0.9605809999999999,-0.27665300000000004,-0.28786799999999996,-2.0533200000000003,-0.574445,-0.285009,-0.545618,0.41591999999999996
83,-0.206355,-1.298712,1.7957400000000001,-0.055060000000000005,0.9632129999999999,-0.263023,-0.875453,-1.807335,-1.106567,-0.10981099999999999,-0.5121020000000001,0.220344
84,-0.360664,-1.317122,1.6699509999999997,-0.08855700000000001,0.9679969999999999,-0.2348,-1.616832,-1.576765,-1.380164,-0.009358,-0.37754299999999996,0.17286400000000002
85,-0.532601,-1.3390389999999999,1.521233,-0.11662,0.9732639999999999,-0.197857,-1.639413,-1.084539,-0.845774,0.22225599999999998,0.351901,-0.340062
86,-0.6005699999999999,-1.351301,1.4595559999999999,-0.12303399999999999,0.976007,-0.179618,-0.520193,-0.203501,0.033652999999999995,0.352145,0.5574859999999999,-0.6454850000000001
87,-0.6261979999999999,-1.36284,1.450409,-0.120986,0.978455,-0.167267,-0.582192,-1.070748,0.38150300000000004,0.360686,0.14416500000000002,-0.21038800000000002
88,-0.605344,-1.377219,1.478278,-0.109452,0.9813219999999999,-0.158165,-0.20948000000000003,0.363388,0.788193,0.332017,-0.015349000000000002,0.044182
89,-0.49755699999999997,-1.383308,1.5668739999999999,-0.088948,0.982476,-0.163768,0.288234,1.021871,0.853851,0.314854,-0.075173,-0.244206
90,-0.41256499999999996,-1.3904729999999998,1.6320569999999999,-0.0719,0.983786,-0.164274,-0.210802,1.127713,0.659018,-0.079223,-0.355398,0.74629
91,-0.348199,-1.398849,1.678072,-0.058370000000000005,0.985253,-0.160805,-0.293257,0.722424,0.319266,-0.614069,-0.00187,0.649269
92,-0.37535,-1.414328,1.653216,-0.057115,0.987784,-0.144951,-1.162225,-0.778982,0.11536300000000001,-0.166243,0.558832,-0.24912199999999998
93,-0.359691,-1.4312200000000002,1.670394,-0.048956,0.990275,-0.130186,0.055871000000000004,0.9336399999999999,0.47632700000000006,-0.0047539999999999995,0.583974,-0.229448
94,-0.286308,-1.4121350000000001,1.738634,-0.044611000000000005,0.98744,-0.151535,1.218116,-0.387367,0.018257,-0.81925,-0.277952,0.06838999999999999
95,-0.33864099999999997,-1.389441,1.720359,-0.059909000000000004,0.9836,-0.170095,0.936058,-2.3629569999999998,-0.9254899999999999,-0.661496,-0.394947,-0.028376
96,-0.47348999999999997,-1.36487,1.626314,-0.09322899999999999,0.978872,-0.18195699999999998,0.7724489999999999,-2.062896,-1.495312,-0.31547800000000004,-0.042714999999999996,0.434933
97,-0.60619,-1.337768,1.5377399999999999,-0.131556,0.972972,-0.18976300000000001,0.45690299999999995,-2.378597,-1.393494,-0.034841000000000004,0.409505,0.496892
98,-0.692609,-1.323715,1.4882229999999999,-0.15616,0.9696299999999999,-0.18820599999999998,0.130423,-1.543524,-0.552949,0.414171,0.526173,0.4119
99,-0.73534,-1.322501,1.472985,-0.164847,0.969333,-0.18223599999999998,-0.27603099999999997,-1.484574,-0.024957,0.256919,0.450467,0.13203499999999999
100,-0.780597,-1.333493,1.450009,-0.165413,0.9719760000000001,-0.167009,-0.748213,-0.883175,0.238029,-0.212013,0.029688,0.062258
101,-0.8358040000000001,-1.347933,1.4068319999999999,-0.163946,0.975269,-0.148199,-0.8667889999999999,-0.572242,0.10647999999999999,-0.253946,-0.058078,-0.034525
102,-0.897524,-1.3564610000000001,1.352362,-0.166265,0.977118,-0.13261199999999998,-0.5787939999999999,-0.340097,-0.121474,-0.237604,-0.08226599999999999,-0.13858199999999998
103,-0.9192870000000001,-1.357932,1.333566,-0.167969,0.9774299999999999,-0.128091,0.031727,0.070636,-0.002368,-0.038513,0.170138,-0.52294
104,-0.856303,-1.354382,1.3774440000000001,-0.162194,0.9766739999999999,-0.140682,0.776388,1.5136290000000001,0.264835,0.001031,0.16053299999999998,-0.551136
105,-0.709087,-1.3393700000000002,1.4930700000000001,-0.149336,0.97334,-0.17406300000000002,1.846925,1.732061,0.389538,-0.071184,-0.15375999999999998,-0.305948
106,-0.552343,-1.305411,1.625103,-0.137605,0.964992,-0.223264,2.55872,1.159148,0.254238,-0.18116600000000002,-0.474681,-0.03023
107,-0.43985,-1.255231,1.726696,-0.132144,0.9506209999999999,-0.2808,3.082943,0.501124,-0.012584999999999999,-0.098325,-0.948882,0.6881189999999999
108,-0.369156,-1.204264,1.787928,-0.12930999999999998,0.9335760000000001,-0.334226,2.250034,1.016559,-0.050042,-0.007882,-1.110639,0.9681219999999999
109,-0.318215,-1.182417,1.813473,-0.118478,0.925524,-0.359668,0.638097,1.285402,0.182977,0.212747,-1.5933549999999999,0.826678
110,-0.28378600000000004,-1.1783549999999998,1.824393,-0.107079,0.9239780000000001,-0.367139,0.069523,1.330841,-0.030425,0.08428200000000001,-1.5787790000000002,0.601804
111,-0.253267,-1.180815,1.8250669999999998,-0.095256,0.924916,-0.36803400000000003,-0.21331999999999998,1.533308,0.198076,0.353389,-0.845311,0.630149
112,-0.200232,-1.188876,1.846239,-0.074127,0.927951,-0.365246,-0.348694,1.689963,0.566534,0.34976199999999996,-0.6413909999999999,0.587353
113,-0.15675999999999998,-1.1992120000000002,1.865448,-0.056684000000000005,0.931753,-0.358629,-0.56275,1.047243,0.309489,0.14903,-0.618185,0.307802
114,-0.145091,-1.21541,1.861168,-0.050306000000000003,0.9375120000000001,-0.34428600000000004,-0.932191,0.552771,-0.122951,-0.131411,-0.386075,0.14322100000000001
115,-0.177732,-1.238316,1.822755,-0.057701999999999996,0.9452360000000001,-0.321235,-1.438713,-0.14752200000000001,-0.646884,-0.31267399999999995,0.007309,-0.080774
116,-0.28294400000000003,-1.26549,1.7315490000000002,-0.083915,0.9537549999999999,-0.28862,-1.6941549999999999,-1.2514370000000001,-1.417442,-0.306894,0.831325,-0.293045
117,-0.41612299999999997,-1.278969,1.628939,-0.11628800000000002,0.9577200000000001,-0.263137,-0.753725,-1.977207,-0.822421,-0.055312,1.502867,-0.21014499999999997
118,-0.50579,-1.286339,1.575234,-0.13596,0.959814,-0.245484,-0.7433609999999999,-1.845841,-0.38347800000000004,0.16048099999999998,1.045328,-0.49088999999999994
119,-0.580575,-1.3008110000000002,1.539509,-0.146286,0.963775,-0.223,-0.95124,-2.1872409999999998,0.190211,0.068405,0.488587,-0.851295
120,-0.641579,-1.32703,1.514838,-0.144431,0.9704360000000001,-0.193348,-1.433563,-1.303108,0.6194069999999999,0.012961000000000002,0.094948,-0.31469400000000003
121,-0.6348729999999999,-1.353393,1.507105,-0.127909,0.976461,-0.173646,-0.709404,1.831178,0.729408,-0.05831,-0.394063,0.664979
122,-0.548473,-1.3564479999999999,1.562719,-0.110891,0.977115,-0.181489,0.573054,0.908274,0.510949,-0.8570049999999999,0.009762,-0.148086
123,-0.5398689999999999,-1.3584829999999999,1.5962100000000001,-0.108303,0.9775459999999999,-0.180731,-0.30930799999999997,-2.020117,0.197686,-0.86774,0.090188,0.070364
124,-0.584558,-1.366763,1.57339,-0.11179700000000001,0.9792569999999999,-0.168954,-0.47178400000000004,-0.330522,0.055517,-0.468616,0.163794,0.130548
125,-0.5621079999999999,-1.375047,1.586234,-0.103649,0.980902,-0.164551,-0.285609,0.712058,0.507339,0.11208699999999999,1.201898,-0.085953
126,-0.498015,-1.394627,1.623265,-0.083703,0.9845219999999999,-0.153943,-0.720531,2.124597,0.8881190000000001,-0.566001,2.421621,-1.33559
127,-0.31053400000000003,-1.381845,1.7644919999999997,-0.057385000000000005,0.982202,-0.178817,2.2236290000000003,1.798959,0.9155110000000001,0.364865,0.8841620000000001,-0.223786
128,-0.18173699999999998,-1.3412030000000001,1.8856580000000003,-0.041129,0.973759,-0.223811,1.8840540000000001,-0.278937,0.563288,-0.664667,-0.186329,0.058176
129,-0.17068599999999998,-1.313339,1.908914,-0.043246,0.967041,-0.250902,1.3101559999999999,-0.394964,-0.29194499999999995,-0.656812,0.067429,0.345918
130,-0.21192399999999997,-1.295516,1.879118,-0.057170000000000006,0.962349,-0.265718,0.42304200000000003,-0.833733,-0.619114,-0.05449299999999999,-0.26679200000000003,0.656755
131,-0.28079699999999996,-1.298669,1.828373,-0.07447899999999999,0.963201,-0.258235,-0.7717649999999999,-1.062799,-0.641053,-0.017836,-0.29489699999999996,0.449932
132,-0.383184,-1.318286,1.7443970000000002,-0.093399,0.9682879999999999,-0.231697,-1.492407,-0.9950629999999999,-0.704925,-0.09407,-0.131405,0.23239899999999997
133,-0.47720799999999997,-1.337387,1.6540650000000001,-0.106223,0.9728829999999999,-0.205434,-1.105013,0.151264,-0.530636,0.007926,0.434435,-0.39828
134,-0.531554,-1.3452469999999999,1.588964,-0.113345,0.974671,-0.192761,-0.433993,0.504213,-0.399283,0.067874,0.442275,-0.606418
135,-0.5382939999999999,-1.341051,1.566094,-0.11673800000000001,0.9737239999999999,-0.19550399999999998,0.343352,0.9836799999999999,-0.29725999999999997,0.011361,-0.06565900000000001,-0.526725
136,-0.499935,-1.325835,1.579294,-0.116245,0.970147,-0.21281799999999998,0.933846,1.429715,-0.19756700000000002,-0.061795,-0.20777199999999998,-0.49165
137,-0.42666099999999996,-1.300414,1.619225,-0.110527,0.963669,-0.243137,1.723571,1.8440400000000001,-0.06653099999999999,-0.073799,-0.24806199999999998,-0.245114
138,-0.329206,-1.2574809999999998,1.685152,-0.099638,0.951317,-0.291647,2.677605,1.698981,0.21698800000000001,-0.08166699999999999,-0.22348800000000002,0.028127999999999997
139,-0.223194,-1.2033610000000001,1.7604819999999999,-0.07951,0.9332520000000001,-0.35030100000000003,2.977471,1.635621,0.6165430000000001,-0.23910900000000002,-0.262292,0.516454
140,-0.137651,-1.1456540000000002,1.8257700000000001,-0.056594000000000005,0.9109799999999999,-0.408539,3.129738,0.941257,0.701817,-0.262025,-0.240021,0.574692
141,-0.097621,-1.087056,1.872537,-0.04533,0.8852620000000001,-0.462871,2.86143,-0.511196,0.78833,-0.093525,-0.41826599999999997,0.794795
142,-0.056483000000000005,-1.03968,1.923228,-0.028593,0.862242,-0.505681,2.237917,0.20864899999999997,1.132361,0.251752,-0.669982,0.564214
143,-0.019771,-1.002932,1.962114,-0.010631999999999999,0.843051,-0.537722,1.628539,0.095904,0.818465,0.055432,-0.23349299999999998,0.28328200000000003
144,0.007006999999999999,-0.9819979999999999,1.988507,0.0038909999999999995,0.831609,-0.555343,0.721236,0.34565100000000004,0.687893,0.068511,0.076213,0.390731
145,0.031861,-0.976759,2.010812,0.017830000000000002,0.8286879999999999,-0.5594210000000001,-0.014861000000000001,0.282475,0.608057,-0.19361099999999998,0.23127899999999998,0.530964
146,0.053996,-0.9862139999999999,2.030598,0.029782999999999997,0.833943,-0.551041,-0.8734290000000001,0.419282,0.440583,-0.534513,-0.285694,0.6030270000000001
147,0.07749,-1.02025,2.0396959999999997,0.040498,0.852239,-0.521576,-2.246983,0.9355540000000001,-0.13583,-0.67273,-0.45988999999999997,0.497788
148,0.079073,-1.08404,2.018901,0.036948,0.883855,-0.466291,-3.5970699999999995,0.9604950000000001,-1.204969,-0.29621,-0.42177299999999995,0.051939
149,0.023771,-1.165555,1.94025,0.009370999999999999,0.919007,-0.39411799999999997,-4.142857,0.7142,-2.2745509999999998,-0.178316,-0.34401,-0.015276
150,-0.121298,-1.250934,1.782604,-0.038044999999999995,0.9492790000000001,-0.312109,-4.413757,-0.592561,-2.655056,-0.114711,0.5727399999999999,-0.066751
151,-0.33167800000000003,-1.3149950000000001,1.602203,-0.082384,0.967461,-0.239209,-3.224605,-1.914593,-1.018153,0.17718699999999998,1.043007,-0.201373
152,-0.47688100000000005,-1.353499,1.464539,-0.098946,0.976484,-0.19151400000000002,-1.8319849999999998,0.060996,-0.7695390000000001,0.5936670000000001,0.326083,-0.273604
153,-0.594431,-1.366591,1.355688,-0.113553,0.9792219999999999,-0.167979,-0.8876059999999999,-1.288832,-0.492021,0.41231999999999996,0.08100399999999999,-0.623433
154,-0.7196130000000001,-1.378026,1.277982,-0.126246,0.981477,-0.144054,-0.95344,-3.001925,-0.136704,0.273478,0.122405,-0.2645
155,-0.8418260000000001,-1.38911,1.220911,-0.134741,0.98354,-0.120332,-0.600524,-3.300213,0.092606,0.081289,0.034144,-0.083739
156,-0.88605,-1.395899,1.221754,-0.134752,0.9847440000000001,-0.11003099999999999,-0.006386,-1.413499,0.348575,-0.078261,-0.11888399999999999,-0.625061
157,-0.887755,-1.4052719999999999,1.222849,-0.127772,0.986332,-0.103969,-0.615049,0.657173,0.399354,-0.389424,-0.457554,-0.462483
158,-0.9143879999999999,-1.432591,1.1547690000000002,-0.109096,0.9904649999999999,-0.08404299999999999,-1.310142,2.803684,1.005976,-0.6459090000000001,-0.393099,-0.094683
159,-0.776308,-1.4407969999999999,1.242604,-0.09079,0.991562,-0.092455,0.8381860000000001,1.797584,0.33006399999999997,-0.474167,-0.217865,0.949801
160,-0.758991,-1.431179,1.278047,-0.095737,0.9902690000000001,-0.10093200000000001,-0.0228,-3.0462580000000004,-0.24658200000000002,-1.119305,0.298137,-2.139806
161,-0.69922,-1.403202,1.356161,-0.10733699999999999,0.9859889999999999,-0.127637,2.508644,0.8843639999999999,-0.514879,0.12216800000000001,1.4079620000000002,0.597287
162,-0.560951,-1.373674,1.488759,-0.104172,0.980634,-0.165805,1.805621,-0.9252,0.27515,0.521972,1.32033,-0.89822
163,-0.498882,-1.3321040000000002,1.588798,-0.113107,0.971648,-0.20759299999999997,2.2681709999999997,-1.146971,-0.077053,0.131708,-0.252959,1.2396969999999998
164,-0.471371,-1.319333,1.621193,-0.112981,0.968549,-0.221665,-0.37059699999999995,-0.627997,0.033105,-0.198955,0.607363,0.118775
165,-0.537328,-1.340817,1.5855139999999999,-0.116664,0.973671,-0.19580999999999998,-1.074198,-1.32171,0.164743,-0.13702899999999998,0.475655,0.312112
166,-0.584398,-1.350698,1.548446,-0.120433,0.9758760000000001,-0.182068,-0.552285,-0.504791,-0.25033299999999997,-0.076161,0.28320300000000004,0.384598
167,-0.6758810000000001,-1.357483,1.476656,-0.132416,0.9773350000000001,-0.165133,-0.799888,-1.250735,-0.505343,-0.32156399999999996,0.300222,0.028674
168,-0.774963,-1.359769,1.393476,-0.146538,0.977816,-0.14962899999999998,-0.558617,-0.590757,-0.591029,-0.36037399999999997,0.23014600000000002,-0.081939
169,-0.825938,-1.355266,1.341966,-0.15720699999999999,0.9768629999999999,-0.144951,0.027589999999999996,0.29113,-0.526108,-0.34541700000000003,0.098347,-0.406853
170,-0.800046,-1.3393549999999999,1.3522319999999999,-0.16453399999999999,0.9733370000000001,-0.15978299999999998,1.010258,1.074711,-0.463632,0.032438999999999996,-0.054452999999999994,-0.555396
171,-0.709754,-1.3099379999999998,1.421708,-0.16805,0.9661690000000001,-0.19561099999999998,2.032833,1.02821,-0.377382,0.11339300000000001,-0.141966,-0.474387
172,-0.616745,-1.265906,1.502735,-0.173612,0.95388,-0.244867,2.5399689999999997,0.737229,-0.510199,0.051634000000000006,-0.700508,0.35206
173,-0.548212,-1.219731,1.55588,-0.17921800000000002,0.9390069999999999,-0.293488,2.296525,0.892699,-0.550554,0.003833,-0.875347,0.631074
174,-0.506117,-1.182951,1.586919,-0.183336,0.925726,-0.330769,1.515983,0.439881,-0.38771500000000003,0.18771500000000002,-1.213858,0.815235
175,-0.482995,-1.170828,1.605212,-0.180839,0.9210729999999999,-0.34483400000000003,0.24652600000000002,0.412911,0.263613,0.41558,-1.446265,0.523438
176,-0.452683,-1.174973,1.617475,-0.16863399999999998,0.9226790000000001,-0.34672,-0.198239,1.219544,0.327839,0.459405,-1.2408549999999998,0.43995100000000004
177,-0.40721399999999996,-1.186967,1.637974,-0.148306,0.9272370000000001,-0.343839,-0.46843599999999996,1.338118,0.7456109999999999,0.487692,-0.76969,0.479185
178,-0.355281,-1.202756,1.671097,-0.125148,0.933034,-0.337304,-0.478087,0.735785,0.867024,0.516567,-0.581472,0.534356
179,-0.319577,-1.2185549999999998,1.700568,-0.10838199999999999,0.938602,-0.327519,-0.7466079999999999,0.411397,0.703195,0.347518,-0.519687,0.42410699999999996
180,-0.29875799999999997,-1.241822,1.715973,-0.095086,0.9463739999999999,-0.308744,-1.1578389999999998,0.098341,0.49348800000000004,-0.230949,-0.309015,0.190381
181,-0.339345,-1.266304,1.692869,-0.09979099999999999,0.9539989999999999,-0.28269299999999997,-1.3179049999999999,-1.6725720000000002,-0.325755,-0.541658,0.46114700000000003,-0.162071
182,-0.477162,-1.2841200000000002,1.595167,-0.129853,0.959189,-0.251162,-1.3631,-2.2861279999999997,-1.095472,-0.466995,0.726984,-0.299894
183,-0.595587,-1.297675,1.512435,-0.151308,0.9629340000000001,-0.22327399999999997,-1.024082,-1.639258,-0.38677,-0.186461,0.862002,-0.11528800000000002
184,-0.654826,-1.308529,1.4623700000000002,-0.157885,0.9658049999999999,-0.20561999999999997,-0.7888029999999999,0.180456,-0.11399400000000001,-0.06687699999999999,0.839173,-0.5986859999999999
185,-0.690005,-1.323818,1.424699,-0.1556,0.969656,-0.188528,-0.9502870000000001,-0.497932,0.24360199999999999,-0.161188,0.586604,-0.969081
186,-0.7511770000000001,-1.345168,1.392008,-0.15266500000000002,0.9746540000000001,-0.16348800000000002,-1.0923120000000002,-1.718115,0.477046,-0.033904000000000004,0.186433,-0.773783
187,-0.786604,-1.362149,1.372683,-0.146618,0.9783120000000001,-0.146265,-0.422608,0.050294,0.41643199999999997,-0.330875,-0.132212,0.358927
188,-0.7205560000000001,-1.360947,1.412483,-0.13742100000000002,0.9780620000000001,-0.156507,0.677388,1.683821,0.14749,-0.544235,0.046504000000000004,-0.06680499999999999
189,-0.659191,-1.3520889999999999,1.46166,-0.132867,0.9761790000000001,-0.171484,0.573695,-0.10196799999999999,0.067869,-0.59635,0.059145,0.186376
190,-0.675678,-1.349219,1.4675200000000002,-0.137428,0.9755520000000001,-0.171456,-0.102557,-1.322274,-0.003657,-0.144707,-0.014691,0.356484
191,-0.678761,-1.359385,1.467416,-0.131721,0.977736,-0.163301,-0.5005609999999999,0.803596,0.711888,-0.08474,3.219072,-1.764632
192,-0.516867,-1.358737,1.588817,-0.10399000000000001,0.9776,-0.182948,1.929444,1.516094,1.0452110000000001,-0.112472,3.219208,-1.744984
193,-0.361128,-1.305223,1.755872,-0.092726,0.964942,-0.245509,3.320301,-0.31238299999999997,0.488975,-0.350007,-0.34310100000000004,1.518381
194,-0.323544,-1.2806,1.813392,-0.090965,0.9581879999999999,-0.27127199999999996,0.207058,-1.1035270000000001,0.169141,-0.436867,-0.14993,0.704362
195,-0.365442,-1.286612,1.7956419999999997,-0.100187,0.9598909999999999,-0.261837,-0.597795,-1.447102,-0.325287,-0.434329,0.26874699999999996,0.806774
196,-0.43933900000000004,-1.297305,1.745729,-0.114871,0.962834,-0.244421,-0.808394,-1.1042610000000002,-0.364585,-0.128201,0.42153500000000005,0.131673
197,-0.49061899999999997,-1.309451,1.70248,-0.121728,0.966043,-0.227877,-0.709364,0.009904000000000001,-0.155949,-0.040717,0.437094,-0.273481
198,-0.50262,-1.314216,1.681589,-0.122235,0.9672629999999999,-0.222363,-0.07889199999999999,0.48913900000000005,-0.135068,-0.25897600000000004,0.549048,-0.468113
199,-0.48697399999999996,-1.2996370000000002,1.688016,-0.125328,0.963461,-0.236688,1.234432,0.48657700000000004,-0.366241,-0.305061,0.27617800000000003,-0.526541
200,-0.439572,-1.257826,1.728868,-0.131012,0.9514229999999999,-0.278595,2.585682,0.344571,-0.390804,-0.18042,0.02134,-0.563476
201,-0.374348,-1.200731,1.7838349999999998,-0.132246,0.9323040000000001,-0.33661199999999997,3.146544,0.895962,-0.23911,-0.015673,-0.302207,-0.027051
202,-0.32658000000000004,-1.133359,1.8217330000000003,-0.13589500000000002,0.90584,-0.40121599999999996,3.485696,0.501046,-0.6079760000000001,-0.047241000000000005,-0.7743399999999999,0.7286239999999999
203,-0.307196,-1.07421,1.8345029999999998,-0.144062,0.8792139999999999,-0.454113,2.3478209999999997,0.40369299999999997,-0.583753,0.016071000000000002,-0.940585,1.0599020000000001
204,-0.286139,-1.040867,1.844925,-0.14266700000000002,0.862843,-0.484911,1.295358,0.936333,0.060897,0.333875,-1.3290899999999999,0.94478
205,-0.243677,-1.0268389999999998,1.862714,-0.12486300000000002,0.855668,-0.5022270000000001,0.596882,1.4280709999999999,0.238054,0.330719,-1.164872,0.588104
206,-0.20515300000000003,-1.018019,1.876537,-0.10695999999999999,0.8510690000000001,-0.514034,0.426781,1.3751959999999999,0.288208,0.147976,-0.688655,0.677028
207,-0.161721,-1.015562,1.89421,-0.084877,0.849777,-0.520255,0.067352,1.398935,0.523881,0.28164,-0.528961,0.7120270000000001
208,-0.11904200000000001,-1.023684,1.914532,-0.061780999999999996,0.85403,-0.516532,-0.635034,1.152875,0.595133,0.189879,-0.437725,0.598762
209,-0.095601,-1.046936,1.925876,-0.047748,0.8658950000000001,-0.497932,-1.336048,0.28544400000000003,0.21213,-0.004086,-0.393467,0.44477
210,-0.121012,-1.077552,1.912853,-0.05715599999999999,0.8808010000000001,-0.470012,-1.710827,-1.295044,-0.356757,-0.084628,-0.270511,0.29153
211,-0.199181,-1.111893,1.871896,-0.087646,0.896539,-0.43419399999999997,-1.888536,-2.369543,-0.825572,-0.13284400000000002,-0.03695,0.000875
212,-0.307282,-1.148892,1.7964040000000001,-0.123856,0.9123110000000001,-0.390303,-2.3818490000000003,-1.892241,-1.210985,-0.301132,0.703778,-0.413912
213,-0.44889399999999996,-1.186982,1.699338,-0.162497,0.927243,-0.337345,-2.389365,-3.202896,-0.8472299999999999,-0.264704,1.548068,-0.652523
214,-0.560955,-1.227335,1.6403599999999998,-0.179137,0.9415950000000001,-0.285122,-2.321462,-2.185857,0.49896899999999994,0.053114,1.447352,-0.73119
215,-0.630787,-1.272851,1.593669,-0.173119,0.955942,-0.23704499999999998,-2.152693,-0.9272889999999999,0.76559,0.224846,0.10361300000000001,-0.75583
216,-0.665988,-1.312384,1.5728959999999998,-0.157866,0.9667969999999999,-0.20091199999999998,-1.49997,-0.686776,1.0582610000000001,-0.00937,-0.260407,-0.313156
217,-0.6630119999999999,-1.3432950000000001,1.581734,-0.138798,0.974233,-0.177732,-0.9825969999999999,-0.047053,1.003371,-0.10595299999999999,-0.368001,0.08039600000000001
218,-0.628893,-1.364183,1.618387,-0.120653,0.9787309999999999,-0.165865,-0.197605,0.04539,0.914732,-0.310774,-0.17827,0.141725
219,-0.5318510000000001,-1.35833,1.7053220000000002,-0.10692,0.977514,-0.18171099999999998,1.1151879999999998,0.724036,0.29385,-0.709929,0.281672,0.562128
220,-0.531784,-1.345284,1.724862,-0.11336600000000001,0.9746799999999999,-0.192696,0.42932,-1.420164,-0.22628099999999998,-1.018073,0.32263800000000004,-0.804344
221,-0.510133,-1.3328,1.735293,-0.115102,0.9718120000000001,-0.20571,0.623564,1.6971580000000002,-0.209691,-0.072246,-0.7031810000000001,1.081961
222,-0.496929,-1.328108,1.7110319999999999,-0.114548,0.9706950000000001,-0.211218,-0.860131,0.722579,-0.5585,-0.07896399999999999,0.31472,0.855978
223,-0.682395,-1.358842,1.573476,-0.13264600000000001,0.9776219999999999,-0.16323,0.633061,0.8009189999999999,-0.132632,-0.43617100000000003,3.624582,-3.052575
224,-0.512311,-1.296843,1.712727,-0.132602,0.962709,-0.235781,3.649721,0.827974,-0.455563,0.286808,-0.412721,1.2532370000000002
225,-0.49967399999999995,-1.26617,1.743698,-0.1437,0.953959,-0.263244,-0.118843,-1.9853759999999998,-0.13004100000000002,-0.008751,-0.08161399999999999,0.810333
226,-0.618929,-1.2957020000000001,1.684704,-0.157577,0.9624,-0.221225,-2.1679049999999997,-3.6533889999999998,-0.004416,-0.292069,0.359744,0.355609
227,-0.804741,-1.321344,1.5688799999999998,-0.177886,0.9690479999999999,-0.17113399999999998,-1.6142040000000002,-3.153906,-0.450909,-0.224717,0.507652,-0.269418
228,-0.917509,-1.3301290000000001,1.4790530000000002,-0.189243,0.9711790000000001,-0.144848,-1.015518,-0.340075,-0.280486,-0.010754000000000001,0.521359,-0.24504499999999999
229,-0.995149,-1.342841,1.389633,-0.18953299999999998,0.974131,-0.123001,-1.255047,0.792985,0.025105000000000002,0.110203,0.222464,-0.329041
230,-1.010631,-1.350451,1.347953,-0.185128,0.975822,-0.11610899999999999,-0.044373,1.505474,0.08606,0.22156599999999999,0.20136300000000001,-0.615947
231,-0.921858,-1.3457270000000001,1.402759,-0.177777,0.9747790000000001,-0.134849,0.9328799999999999,1.8319279999999998,0.184335,0.0247,-0.147142,-0.864525
232,-0.772872,-1.327246,1.517627,-0.168345,0.9704879999999999,-0.17261600000000002,2.063975,1.840904,0.155904,0.21752399999999997,-0.36917,-0.304892
233,-0.617898,-1.291484,1.648221,-0.1597,0.9612450000000001,-0.224694,2.547315,1.1807040000000002,0.201787,0.048585,-0.7250850000000001,0.22342800000000002
234,-0.489788,-1.251009,1.7579169999999997,-0.147878,0.9493020000000001,-0.277384,2.5217080000000003,1.125729,0.385413,0.046422000000000005,-0.8439709999999999,0.687144
235,-0.394638,-1.216327,1.8475380000000001,-0.13344,0.937831,-0.320395,1.933645,0.276145,0.768022,0.079577,-0.815608,0.735052
236,-0.303122,-1.194612,1.931562,-0.10965599999999999,0.9300729999999999,-0.350607,1.344566,0.8848370000000001,1.173325,0.135703,-0.952641,0.747382
237,-0.215586,-1.1748459999999998,2.0081700000000002,-0.08250199999999999,0.92263,-0.37674,1.389166,0.480362,1.0523770000000001,0.009977,-0.698647,0.48871000000000003
238,-0.158538,-1.150655,2.071989,-0.06439299999999999,0.9130309999999999,-0.40275900000000003,1.4035540000000002,-0.365471,1.040743,-0.0764,-0.575049,0.47528400000000004
239,-0.11801600000000001,-1.127283,2.134626,-0.050523,0.90325,-0.426117,1.287809,-1.010297,1.2244950000000001,0.10688900000000001,-0.391836,0.63092
240,-0.075657,-1.1095709999999999,2.196976,-0.033638,0.895508,-0.44376000000000004,0.7933600000000001,-0.335598,1.291747,0.215141,-0.142594,0.392261
241,-0.01936,-1.107008,2.252132,-0.00866,0.8943639999999999,-0.447243,-0.191334,0.704978,1.129712,-0.197487,0.171279,0.28054
242,0.032292,-1.1180780000000001,2.289798,0.014122,0.8992610000000001,-0.43717,-0.750536,0.895316,0.636316,-0.405983,0.463074,0.151403
243,0.068259,-1.139925,2.311144,0.028486,0.908602,-0.416675,-1.34012,0.878518,0.287184,-0.44518800000000003,0.35870100000000005,0.084674
244,0.08144900000000001,-1.170652,2.3041549999999997,0.031692000000000005,0.921005,-0.388243,-1.60742,0.986608,-0.669812,-0.38156100000000004,0.5052949999999999,0.164717
245,0.03399,-1.209967,2.232609,0.011997,0.9356040000000001,-0.352827,-2.020937,0.839457,-1.872125,-0.21118499999999998,0.668628,0.082853
246,-0.093941,-1.250569,2.097687,-0.029525,0.9491639999999999,-0.313371,-2.048993,-0.793068,-2.249448,-0.044846,0.360437,-0.309569
247,-0.275625,-1.275023,1.9505709999999998,-0.079319,0.956577,-0.280453,-1.257577,-2.5138540000000003,-1.779175,0.148929,0.417141,-0.319523
248,-0.434205,-1.276263,1.833036,-0.12211199999999998,0.956938,-0.263331,-0.36002,-2.0838099999999997,-1.410261,0.590282,0.200014,-0.42244499999999996
249,-0.523784,-1.273642,1.7758180000000001,-0.14643399999999998,0.9561729999999999,-0.25352199999999997,-0.333056,-1.487141,-0.398163,0.6832229999999999,0.474704,-0.5345489999999999
250,-0.525667,-1.287575,1.787555,-0.140211,0.96016,-0.241696,-0.563277,0.011997,1.057499,0.671293,0.7057640000000001,-0.9890479999999999
251,-0.44847600000000004,-1.3093700000000001,1.873052,-0.112052,0.9660219999999999,-0.23287,-0.182398,-1.112166,1.599984,0.45593900000000004,0.735119,-0.925135
252,-0.359674,-1.310997,2.0039279999999997,-0.090405,0.966442,-0.240419,1.016286,-1.739365,1.564295,0.098721,0.071278,0.10388399999999999
253,-0.24560300000000002,-1.2913350000000001,2.139607,-0.067061,0.9612040000000001,-0.26753299999999997,1.588733,-0.284827,1.225667,0.166991,-0.41313900000000003,0.143815
254,-0.18673399999999998,-1.274824,2.201795,-0.054144000000000005,0.956519,-0.286575,0.492408,-0.310665,0.380556,-0.054025,-0.869941,-0.130905
255,-0.211302,-1.275153,2.204218,-0.061102,0.956615,-0.284851,0.113205,-1.596427,-0.095803,-0.311076,-0.635356,-0.12796
256,-0.23411500000000002,-1.246306,2.223174,-0.07395700000000001,0.9478129999999999,-0.310106,1.572919,-2.897201,-0.011301,-0.41096800000000006,0.055421000000000005,1.12697
257,-0.308287,-1.227937,2.216246,-0.102,0.9417969999999999,-0.320312,0.575285,-3.209047,-0.547708,-0.30785100000000004,-0.105524,1.316833
258,-0.394887,-1.225027,2.180707,-0.130376,0.940815,-0.312818,-0.49857700000000005,-2.259957,-0.664316,-0.472423,0.44363,0.949735
259,-0.47948999999999997,-1.232968,2.119191,-0.152892,0.943477,-0.294044,0.223162,-0.503508,-0.443608,-1.533204,5.057225,-1.9934470000000002
260,-0.485774,-1.164541,2.1625669999999997,-0.184496,0.918607,-0.34944200000000003,4.071979,-3.099055,-1.247679,0.163668,-0.038587,1.339753
261,-0.514987,-1.101853,2.188715,-0.222586,0.8920459999999999,-0.393315,2.0489490000000004,-2.7866470000000003,-0.8968790000000001,0.122351,-0.563051,1.4185379999999999
262,-0.6028899999999999,-1.095257,2.183201,-0.259587,0.8890459999999999,-0.37709299999999996,-0.6876479999999999,-5.160667,0.28879699999999997,0.21718200000000001,0.6190869999999999,1.075809
263,-0.733156,-1.128331,2.1643830000000004,-0.286528,0.903699,-0.318146,-1.7362819999999999,-5.09092,0.8048109999999999,0.40411199999999997,1.012225,0.621887
264,-0.804374,-1.157635,2.151508,-0.289231,0.915856,-0.278457,-1.053493,-2.154576,0.90089,0.24645999999999998,0.796622,0.512984
265,-0.856979,-1.188886,2.1361470000000002,-0.281692,0.9279540000000001,-0.243998,-1.453761,-1.932771,0.924515,-0.298127,0.264123,0.43697600000000003
266,-0.9470059999999999,-1.223881,2.086179,-0.275947,0.940426,-0.19858399999999998,-1.973334,-2.330855,0.760095,-0.322396,-0.014721000000000001,0.42879300000000004
267,-1.089327,-1.25298,1.9949740000000002,-0.276943,0.9499200000000001,-0.144697,-1.9064599999999998,-3.219341,0.18165599999999998,-0.386921,-0.261291,0.15399000000000002
268,-1.2441229999999999,-1.261535,1.9066619999999999,-0.288231,0.952559,-0.09765599999999999,-1.220949,-3.520418,-0.244732,-0.161644,-0.5729350000000001,-0.094971
269,-1.374566,-1.264941,1.8230650000000002,-0.295299,0.9535899999999999,-0.058702,-1.364426,-1.7800340000000001,-0.051411,0.048305,-0.597145,-0.06350599999999999
270,-1.486816,-1.267787,1.726577,-0.297309,0.954443,-0.025027,-1.402264,-0.772937,-0.121332,0.037742000000000005,-0.545263,-0.030118000000000002
271,-1.578518,-1.264166,1.648623,-0.30180500000000005,0.953356,0.0023309999999999997,-1.035536,-1.0121280000000001,-0.29685700000000004,0.043916000000000004,-0.46333500000000005,0.073139
272,-1.662986,-1.254972,1.5845209999999998,-0.309247,0.950541,0.028589999999999997,-1.0144440000000001,-1.227803,-0.45880299999999996,0.067441,-0.36643400000000004,0.098378
273,-1.749035,-1.241188,1.517643,-0.31851199999999996,0.946169,0.057379999999999994,-1.229516,-1.002902,-0.570621,0.07467599999999999,-0.304644,0.139153
274,-1.8342060000000002,-1.222932,1.444169,-0.32910100000000003,0.940103,0.088751,-1.490215,-0.6937989999999999,-0.6540229999999999,0.05583200000000001,-0.220468,0.007441
275,-1.9090580000000001,-1.200749,1.3730959999999999,-0.34113499999999997,0.9323100000000001,0.120005,-1.529334,-0.195954,-0.710481,0.07139,0.076937,-0.163554
276,-1.96122,-1.175386,1.3090959999999998,-0.356173,0.922839,0.146583,-1.580228,0.752606,-0.782555,0.134874,0.241056,-0.270622
277,-1.976588,-1.148976,1.261752,-0.376145,0.9123450000000001,0.161606,-1.1552639999999998,1.6836229999999999,-0.875851,0.329362,0.29018499999999997,-0.176086
278,-1.972141,-1.12782,1.2437040000000001,-0.394543,0.90348,0.167436,-0.64049,0.224194,-0.789201,0.331815,0.335625,-0.073411
279,-2.022652,-1.10914,1.225223,-0.400702,0.895316,0.19447899999999999,-0.793758,-2.627631,-0.635998,0.18465299999999998,0.48815299999999995,-0.188101
280,-2.0716,-1.09494,1.224631,-0.401819,0.888901,0.21993400000000002,0.030264,-1.81987,-0.621663,0.267282,0.682892,-0.370126
281,-2.0605700000000002,-1.0882459999999998,1.254102,-0.409462,0.885814,0.218283,0.606522,-0.366706,-0.620568,0.34098,0.7329600000000001,-0.316565
282,-2.0307060000000003,-1.085644,1.299527,-0.417861,0.8846040000000001,0.20698200000000003,1.096457,-0.7488819999999999,-0.577132,0.41133100000000006,0.734338,-0.280422
283,-1.9904220000000001,-1.089503,1.37015,-0.422738,0.8863969999999999,0.188593,1.873725,-1.244109,-0.48347399999999996,0.514061,0.640153,-0.27019699999999996
284,-1.9236490000000002,-1.102008,1.4784680000000001,-0.423944,0.892116,0.156123,2.968785,-1.6641740000000003,-0.28087,0.48735900000000004,0.608082,-0.286601
285,-1.8223790000000002,-1.1201299999999998,1.633537,-0.42182600000000003,0.900157,0.108421,3.796824,-1.9202919999999999,-0.086751,0.374417,0.457554,-0.085289
286,-1.680696,-1.137189,1.820805,-0.41758500000000004,0.9074559999999999,0.046077999999999994,4.223153,-0.9516620000000001,0.268567,0.17266600000000001,0.155685,0.137638
287,-1.512473,-1.151017,2.0170529999999998,-0.406839,0.9131790000000001,-0.023755000000000002,3.89824,-0.383523,0.729178,0.127374,0.160582,0.366101
288,-1.350632,-1.158058,2.2001020000000002,-0.391412,0.916026,-0.087595,3.474647,-0.191104,0.9289350000000001,0.078652,0.261357,0.503366
289,-1.187286,-1.159022,2.374473,-0.371139,0.9164120000000001,-0.149751,3.2783580000000003,0.507516,1.148859,0.042007,0.484253,0.72693
290,-1.017335,-1.152196,2.536753,-0.34578000000000003,0.913659,-0.21365,2.766261,1.171042,1.095293,-0.013580000000000002,0.363975,0.76202
291,-0.893042,-1.13996,2.650214,-0.325311,0.908617,-0.261861,1.90872,0.8983709999999999,0.763845,0.033868,0.370085,0.5585680000000001
292,-0.814122,-1.1360299999999999,2.730813,-0.306249,0.906968,-0.289143,1.224494,-0.197051,1.169598,0.070653,0.18524000000000002,0.474476
293,-0.7491479999999999,-1.143362,2.8271740000000003,-0.28229299999999996,0.910032,-0.303539,1.3291950000000001,-1.4992159999999999,1.9763689999999998,0.334005,0.253984,0.4799
294,-0.668338,-1.1441700000000001,2.959059,-0.256414,0.910367,-0.324759,1.9554220000000002,-2.115417,2.084082,0.606771,0.266482,0.5407930000000001
295,-0.593697,-1.134293,3.093809,-0.236502,0.906235,-0.350414,2.051919,-2.635,1.932667,0.299902,0.117477,0.493968
296,-0.541732,-1.122628,-3.06803,-0.22341799999999998,0.901242,-0.371258,1.748933,-2.954252,1.84657,0.084975,-0.109678,0.617809
297,-0.510379,-1.11372,-2.965758,-0.21558400000000003,0.8973459999999999,-0.38506999999999997,1.380154,-3.1054310000000003,1.611315,0.077279,-0.171211,0.6368560000000001
298,-0.501486,-1.104806,-2.881734,-0.215988,0.8933770000000001,-0.393971,1.231817,-3.3999099999999998,1.323305,0.084747,-0.10478699999999999,0.6634260000000001
299,-0.509359,-1.096882,-2.810704,-0.22252800000000003,0.8897889999999999,-0.398426,1.083005,-3.6502489999999996,1.1858540000000002,0.056466999999999996,-0.080417,0.6558729999999999
300,-0.525382,-1.091252,-2.748097,-0.23139200000000001,0.8872049999999999,-0.399138,0.869822,-3.488172,1.065584,0.075432,-0.098341,0.618437
301,-0.543118,-1.0899510000000001,-2.696195,-0.239031,0.8866040000000001,-0.395959,0.526776,-3.002942,0.96429,0.015825,-0.175697,0.534524
302,-0.5617409999999999,-1.094551,-2.658036,-0.24418800000000002,0.8887219999999999,-0.38798299999999997,0.10658699999999999,-2.404317,0.811037,-0.062437,-0.245946,0.511289
303,-0.5847220000000001,-1.103294,-2.635741,-0.24874000000000002,0.892697,-0.375775,-0.19250699999999998,-2.019848,0.561696,-0.139428,-0.26218800000000003,0.458554
304,-0.618421,-1.113229,-2.630401,-0.256104,0.8971299999999999,-0.35993600000000003,-0.44136899999999996,-1.8910669999999998,0.274577,-0.132583,-0.31502199999999997,0.400936
305,-0.6671560000000001,-1.124939,-2.641738,-0.266816,0.902241,-0.33875500000000003,-0.725713,-1.9500970000000002,0.09854600000000001,0.035462,-0.334416,0.294352
306,-0.727197,-1.139045,-2.666881,-0.278172,0.908234,-0.312594,-0.9753860000000001,-1.792329,0.021825,0.10825,-0.304795,0.257159
307,-0.7959069999999999,-1.153125,-2.702737,-0.28980900000000004,0.9140360000000001,-0.28378200000000003,-0.9975120000000001,-1.871579,-0.12030199999999999,0.133483,-0.010578,-0.06627000000000001
308,-0.8731,-1.16183,-2.738589,-0.304721,0.917532,-0.25546599999999997,-0.622239,-2.421446,-0.132999,0.132373,0.601999,-0.7807430000000001
309,-0.9097799999999999,-1.1621620000000001,-2.72361,-0.313644,0.9176639999999999,-0.243932,0.755591,-2.458369,0.44603400000000004,0.421432,0.829024,-0.997691
310,-0.874527,-1.1621270000000001,-2.647385,-0.30487600000000004,0.91765,-0.254855,1.180701,-1.060165,1.267606,0.63143,0.8407110000000001,-0.899716
311,-0.801277,-1.175124,-2.562664,-0.276816,0.922738,-0.268162,0.598586,-0.067021,1.694898,0.589911,0.20854899999999998,-0.102779
312,-0.7353390000000001,-1.190299,-2.480877,-0.249123,0.92848,-0.275402,0.5605319999999999,-0.8375950000000001,1.55675,0.42272200000000004,-0.002912,-0.10983699999999999
313,-0.699377,-1.199442,-2.410387,-0.233585,0.931837,-0.277673,0.373731,-1.817179,1.069591,0.608692,-0.093793,-0.123328
314,-0.694221,-1.206452,-2.371395,-0.227965,0.934358,-0.273846,0.124544,-1.207319,0.622688,0.294356,0.081084,0.198193
315,-0.663416,-1.209332,-2.3300400000000003,-0.21776399999999999,0.9353799999999999,-0.278616,0.656274,0.203921,0.757053,0.17413900000000002,1.377913,0.112265
316,-0.572617,-1.199407,-2.242555,-0.196625,0.931824,-0.305003,1.415187,0.02145,0.975165,-0.70375,-0.625138,0.194377
317,-0.5677810000000001,-1.193224,-2.209882,-0.198243,0.9295620000000001,-0.310802,-0.08517000000000001,-1.640237,-0.155887,-0.6991569999999999,-1.177243,0.65855
318,-0.6594399999999999,-1.202893,-2.283786,-0.22034,0.933084,-0.28423400000000004,-1.6468650000000002,-0.517291,-1.23432,-0.143536,-0.40371,0.585854
319,-0.7760229999999999,-1.2029969999999999,-2.424097,-0.251838,0.9331209999999999,-0.256605,-1.590734,1.074573,-2.1663900000000003,-0.15992,0.16314700000000001,0.8971690000000001
320,-0.8973200000000001,-1.18595,-2.5643740000000004,-0.29343,0.9268559999999999,-0.234136,-1.105953,-0.298074,-2.4432549999999997,-0.22516999999999998,0.315896,0.8252
321,-1.028593,-1.155517,-2.6480200000000003,-0.345562,0.915003,-0.20817600000000003,-0.090602,-4.128031,-1.919577,0.254803,0.575246,0.27501
322,-1.146733,-1.131525,-2.674411,-0.38759099999999996,0.905062,-0.17498,0.082974,-4.4657800000000005,-0.991783,0.671481,0.6141949999999999,0.27707600000000004
323,-1.224486,-1.11875,-2.681274,-0.410854,0.8995549999999999,-0.148258,0.081789,-3.1855759999999997,-0.39415900000000004,0.6947439999999999,0.6197020000000001,0.250354
324,-1.290497,-1.1212030000000002,-2.688672,-0.417617,0.900624,-0.120223,-0.391806,-2.9746040000000002,0.269901,0.316222,0.11256,0.25259299999999996
325,-1.379577,-1.1358489999999999,-2.723992,-0.413659,0.906892,-0.080078,-1.2523879999999998,-2.687864,0.70363,0.232125,-0.026581999999999998,0.347488
326,-1.49519,-1.158121,-2.802219,-0.39989,0.9160510000000001,-0.030292000000000003,-1.89573,-1.9739220000000002,0.942844,0.13264700000000001,-0.138601,0.267383
327,-1.615949,-1.178208,-2.898861,-0.382162,0.9239219999999999,0.017266999999999998,-1.931175,-1.301661,0.955622,0.059363,-0.203204,0.13051400000000002
328,-1.7306380000000001,-1.18884,-3.00393,-0.367956,0.9279370000000001,0.059321000000000006,-1.8954990000000003,-0.623822,0.57792,0.015585,-0.13692100000000001,-0.054178
329,-1.8378279999999998,-1.188585,-3.108088,-0.359725,0.9278420000000001,0.09840800000000001,-1.825662,-0.596151,0.25790599999999997,-0.026613,-0.15141400000000002,-0.086262
330,-1.9242139999999999,-1.178261,3.098722,-0.358861,0.923942,0.132386,-1.3422129999999999,-0.8238,-0.24049,-0.165355,-0.171928,-0.178498
331,-1.9759509999999998,-1.163327,3.0487580000000003,-0.364177,0.918127,0.15618900000000002,-1.170721,0.18807100000000002,-0.35381999999999997,0.07888300000000001,-0.043523,-0.115021
332,-2.0076490000000002,-1.146059,2.996983,-0.373356,0.9111469999999999,0.174335,-1.359189,0.949469,-0.38815900000000003,0.160984,-0.034499,-0.07294099999999999
333,-2.036388,-1.126378,2.952022,-0.384144,0.902861,0.19300599999999998,-1.2133399999999999,0.258186,-0.534737,0.08932899999999999,-0.079527,0.138994
334,-2.074078,-1.104641,2.92068,-0.3937,0.8933030000000001,0.21675999999999998,-1.073628,-0.865511,-0.697896,0.133385,0.031058999999999996,-0.006295
335,-2.1205979999999998,-1.080886,2.896786,-0.40117800000000003,0.882375,0.24585500000000002,-1.065169,-1.4213559999999998,-0.762286,0.22423800000000002,0.146312,-0.214498
336,-2.162624,-1.059207,2.879105,-0.406277,0.871967,0.273102,-0.81812,-1.123538,-0.595367,0.419049,0.26469000000000004,-0.660568
337,-2.179296,-1.046253,2.87242,-0.41090200000000004,0.865553,0.28626999999999997,-0.33161999999999997,-0.182323,-0.362439,0.280134,0.40217800000000004,-0.566864
338,-2.174693,-1.03938,2.874653,-0.41710200000000003,0.8620899999999999,0.287748,-0.091137,0.165127,-0.34731799999999996,0.123554,0.32252600000000003,-0.431547
339,-2.161623,-1.034728,2.88846,-0.424154,0.8597229999999999,0.284503,0.36286199999999996,0.008202,-0.392016,0.177313,0.35025300000000004,-0.319155
340,-2.137204,-1.035842,2.916404,-0.430166,0.8602920000000001,0.273548,0.741267,0.017195,-0.304994,0.26950599999999997,0.36196799999999996,-0.226169
341,-2.113746,-1.040859,2.950508,-0.432763,0.8628389999999999,0.26114899999999996,0.958872,-0.5954689999999999,-0.194799,0.35447,0.33224499999999996,-0.251323
342,-2.092666,-1.050777,2.996159,-0.43073199999999995,0.867809,0.247691,1.395257,-1.00735,-0.135675,0.31977,0.433414,-0.35329699999999997
343,-2.058734,-1.0658040000000002,3.0609830000000002,-0.42731899999999995,0.875178,0.22679699999999997,2.073029,-1.150443,-0.10405199999999999,0.42680100000000004,0.443899,-0.615499
344,-1.9785869999999999,-1.091048,-3.111817,-0.423684,0.8871110000000001,0.183035,3.409872,-0.692569,0.117275,0.46358599999999994,0.427296,-0.307684
345,-1.844988,-1.1239709999999998,-2.953161,-0.41593800000000003,0.9018229999999999,0.116993,3.979003,-0.151944,0.556392,0.334441,0.40486300000000003,-0.061512
346,-1.690176,-1.155723,-2.782025,-0.400361,0.9150870000000001,0.048023,3.736335,-0.111107,0.943478,-0.015822,0.20654099999999997,0.201
347,-1.5244010000000001,-1.180021,-2.6013599999999997,-0.380469,0.9246139999999999,-0.017665,3.4683339999999996,0.24284,1.106727,-0.20433900000000002,0.442619,0.477336
348,-1.3481809999999999,-1.1911180000000001,-2.432225,-0.361452,0.928784,-0.081821,2.74978,1.484405,0.801014,-0.28532199999999996,0.466587,0.678882
349,-1.198151,-1.191866,-2.316119,-0.344516,0.929061,-0.134674,1.757089,2.2721270000000002,0.741796,-0.244427,0.488008,0.738999
350,-1.0644360000000002,-1.195647,-2.2153169999999998,-0.320413,0.9304530000000001,-0.177698,1.598377,1.632495,0.9957440000000001,-0.21587199999999998,0.360349,0.44834300000000005
351,-0.944707,-1.197347,-2.111716,-0.295612,0.931075,-0.21377,1.367182,1.150093,1.153912,-0.149807,0.392991,0.204004
352,-0.837023,-1.206515,-2.016671,-0.264575,0.9343799999999999,-0.238577,0.917934,0.68729,1.660909,0.23976399999999998,0.204933,0.339453
353,-0.719726,-1.217032,-1.8976380000000002,-0.228346,0.938075,-0.260495,1.288098,-0.059486000000000004,1.877028,0.398863,0.19073900000000002,0.37254
354,-0.609342,-1.2155770000000001,-1.76358,-0.199041,0.9375700000000001,-0.285184,1.518232,-1.035301,1.6833330000000002,0.30203800000000003,0.10459,0.322706
355,-0.525718,-1.208151,-1.647071,-0.178015,0.9349620000000001,-0.306827,1.329114,-1.365925,1.412176,-0.003428,-0.29571,0.415699
356,-0.47155600000000003,-1.199915,-1.557944,-0.16463699999999998,0.932008,-0.322865,0.945084,-1.471817,1.053911,-0.146948,-0.47871499999999995,0.358204
357,-0.44772700000000004,-1.1956360000000001,-1.5018280000000002,-0.158622,0.930449,-0.330288,0.479812,-1.403674,0.667082,-0.133324,-0.566527,0.395581
358,-0.452666,-1.194716,-1.474684,-0.160626,0.930111,-0.330271,0.134012,-1.563969,0.294199,-0.132236,-0.60812,0.447687
359,-0.480012,-1.197748,-1.471711,-0.168294,0.931221,-0.323253,-0.280186,-1.403816,0.030454000000000002,-0.10405999999999999,-0.621925,0.448329
360,-0.520633,-1.207426,-1.492424,-0.17679,0.9347040000000001,-0.308318,-0.798487,-0.840888,-0.168304,-0.06461900000000001,-0.6165430000000001,0.4178
361,-0.574348,-1.222882,-1.540261,-0.18521600000000002,0.9400860000000001,-0.28621599999999997,-1.25546,-0.19919800000000001,-0.403054,-0.025157,-0.594169,0.309913
362,-0.646926,-1.239601,-1.619366,-0.195981,0.9456540000000001,-0.259452,-1.521069,0.197193,-0.7322930000000001,0.013837,-0.5682590000000001,0.235114
363,-0.750339,-1.250989,-1.7273150000000002,-0.214358,0.9492959999999999,-0.22994099999999998,-1.517521,-0.314865,-1.086262,0.128329,-0.44444399999999995,0.047889
364,-0.878741,-1.252613,-1.842479,-0.24084899999999998,0.9498049999999999,-0.19961500000000001,-1.257185,-1.359351,-1.1835149999999999,0.065495,-0.064292,-0.190857
365,-1.001783,-1.247441,-1.9330349999999998,-0.267662,0.948175,-0.171191,-0.827008,-2.042438,-0.962786,0.082909,0.032064999999999996,-0.203977
366,-1.098096,-1.240926,-1.9892419999999997,-0.288378,0.946084,-0.14746700000000001,-0.539175,-2.162254,-0.5536300000000001,0.163226,0.07004400000000001,-0.080575
367,-1.1701409999999999,-1.242601,-2.0278150000000004,-0.296784,0.946626,-0.125708,-0.662327,-1.412216,0.064118,0.394776,0.080794,-0.137598
368,-1.206564,-1.2580149999999999,-2.059751,-0.287494,0.9514809999999999,-0.109605,-0.8710110000000001,0.314705,0.74945,0.467182,0.15148499999999998,-0.362471
369,-1.256349,-1.278849,-2.1193400000000002,-0.27367600000000003,0.957685,-0.08901,-1.199322,0.214248,0.581711,0.48272200000000004,0.172732,-0.444742
370,-1.287396,-1.297652,-2.164945,-0.258968,0.9629270000000001,-0.075422,-0.747508,1.012923,0.793215,0.26675,0.091241,-0.037326
371,-1.304997,-1.316317,-2.2038029999999997,-0.242865,0.9677950000000001,-0.066118,-0.759833,0.787507,0.698346,0.098624,-0.037252999999999994,0.024492
372,-1.340545,-1.330252,-2.247809,-0.23190500000000003,0.971208,-0.054361,-0.6239239999999999,0.156325,0.449072,0.01964,-0.117525,-0.06867100000000001
373,-1.375947,-1.338184,-2.284095,-0.226117,0.973068,-0.044625,-0.424349,-0.072424,0.20506799999999997,-0.011447,-0.136901,-0.074363
374,-1.410549,-1.340608,-2.317012,-0.225196,0.9736229999999999,-0.036399,-0.409837,-0.147233,-0.01372,-0.027489,-0.198614,-0.166421
375,-1.450421,-1.340095,-2.353973,-0.226963,0.973506,-0.027454000000000003,-0.37242,-0.23641900000000002,-0.12016600000000001,0.027545999999999998,-0.306392,-0.084012
376,-1.48716,-1.338003,-2.380761,-0.22984699999999997,0.9730260000000001,-0.019269,-0.243694,-0.8215889999999999,-0.148428,0.031513,-0.330494,0.180676
377,-1.521919,-1.332159,-2.38496,-0.236056,0.9716610000000001,-0.011547,0.036088999999999996,-1.9508020000000001,-0.385376,-0.034193,-0.203488,0.309398
378,-1.566091,-1.3239319999999999,-2.3860259999999998,-0.244321,0.969684,-0.00115,-0.000616,-2.059281,-0.398312,-0.064746,0.010526,0.12427300000000001
379,-1.593624,-1.319295,-2.385934,-0.248754,0.96854,0.005679,-0.060379999999999996,-0.818152,-0.10121799999999999,0.219991,0.224438,-0.111408
380,-1.641509,-1.31996,-2.433938,-0.24755300000000002,0.9687049999999999,0.017534,-1.123283,0.280868,0.106798,-0.240819,2.358397,-0.736468
381,-1.649209,-1.322447,-2.479151,-0.245008,0.969319,0.019251,0.963929,2.37175,0.22551999999999997,0.383238,0.982295,-1.4472909999999999
382,-1.39943,-1.322209,-2.245203,-0.242394,0.969261,-0.04195,3.217715,0.42468100000000003,0.07284299999999999,-0.059044000000000006,-0.601585,1.056201
383,-1.28885,-1.3143479999999998,-2.114864,-0.24359699999999998,0.967297,-0.070561,0.486703,-1.5552059999999999,-0.071883,-0.047632,-0.043744,0.5010720000000001
384,-1.3638350000000001,-1.31368,-2.153354,-0.248831,0.9671270000000001,-0.052246,-0.8407379999999999,-1.7184409999999999,-0.190973,-0.069025,0.391973,0.672425
385,-1.489905,-1.313382,-2.259998,-0.253712,0.967052,-0.020568,-1.5116319999999999,-0.786949,-0.2524,-0.11901500000000001,0.489903,0.132339
386,-1.60148,-1.306658,-2.36484,-0.260917,0.965318,0.008008,-1.158195,-0.397679,-0.403186,-0.166985,0.360534,-0.27723400000000004
387,-1.6608720000000001,-1.2978379999999998,-2.427787,-0.268451,0.9629780000000001,0.024246,-0.700332,0.406916,-0.34547100000000003,-0.073056,0.349507,-0.40942399999999995
388,-1.656641,-1.294622,-2.4488630000000002,-0.271636,0.9621059999999999,0.023375999999999997,0.025867,1.854987,-0.00042300000000000004,0.126632,0.394004,-0.82286
389,-1.551445,-1.2972709999999998,-2.394011,-0.27004,0.962825,-0.005226,1.211833,2.867566,0.161455,-0.069223,0.21964,-1.120567
390,-1.333841,-1.29292,-2.221971,-0.266617,0.9616399999999999,-0.064386,3.066046,2.255476,0.041664,-0.042755,-0.017228,-0.9483090000000001
391,-1.081813,-1.2624030000000002,-1.985944,-0.267934,0.952822,-0.14256300000000002,3.962909,0.795691,-0.379626,-0.169093,-0.252352,-0.31558200000000003
392,-0.895016,-1.21056,-1.8060439999999998,-0.275007,0.9358139999999999,-0.22047399999999998,3.729858,0.9635020000000001,-0.584431,0.081189,-0.6066819999999999,1.0475459999999999
393,-0.786432,-1.159742,-1.7040240000000002,-0.28282199999999996,0.9167,-0.282238,2.66132,0.338798,-0.610323,0.274491,-0.8632790000000001,0.828792
394,-0.734901,-1.127472,-1.6474520000000001,-0.287603,0.903331,-0.318221,1.588767,0.170672,0.005174,0.321386,-1.042628,0.8753190000000001
395,-0.6761659999999999,-1.1142370000000001,-1.6001530000000002,-0.275886,0.897575,-0.343851,0.9153319999999999,1.08293,0.49282,0.454322,-1.107047,0.673578
396,-0.6157229999999999,-1.110782,-1.5632139999999999,-0.25640100000000005,0.8960459999999999,-0.362419,0.534551,1.4343620000000001,0.583713,0.32451599999999997,-1.05756,0.655967
397,-0.557904,-1.112262,-1.530457,-0.234327,0.896702,-0.375504,0.216022,1.434936,0.716084,0.32243099999999997,-0.9583020000000001,0.681473
398,-0.503286,-1.121716,-1.498427,-0.20938,0.900847,-0.380293,-0.275912,1.121657,0.8978510000000001,0.49079799999999996,-0.721709,0.609114
399,-0.471393,-1.14316,-1.480874,-0.188329,0.909949,-0.369477,-1.1140430000000001,0.6052890000000001,0.752721,0.253897,-0.663046,0.176499
400,-0.495036,-1.173799,-1.503625,-0.183676,0.922226,-0.34021999999999997,-1.776684,-0.687769,-0.050348000000000004,0.142096,-0.476471,-0.048086000000000004
401,-0.5926739999999999,-1.2022680000000001,-1.587321,-0.201214,0.932858,-0.298788,-2.072018,-1.009333,-0.8958950000000001,-0.027194,0.203204,-0.18049
402,-0.720416,-1.218133,-1.7059119999999999,-0.227845,0.938456,-0.259562,-1.821434,-0.645664,-1.215077,-0.369705,0.946401,-0.152608
403,-0.826205,-1.2259309999999999,-1.8230279999999999,-0.24858899999999998,0.9411209999999999,-0.229086,-1.495284,0.604358,-1.0787360000000001,0.092446,0.677455,-0.40766399999999997
404,-0.9121299999999999,-1.232129,-1.9161099999999998,-0.262712,0.943198,-0.20333099999999998,-1.474688,-0.47476199999999996,-0.565531,0.10753,0.736398,-0.74752
405,-1.047136,-1.2494049999999999,-2.023701,-0.27353299999999997,0.9487969999999999,-0.157947,-2.098824,-2.334633,-0.050488,0.38538,0.7185159999999999,-1.1979790000000001
406,-1.177767,-1.267978,-2.111669,-0.275446,0.9545,-0.1142,-1.1782030000000001,-1.9835479999999999,0.330438,0.47687799999999997,-0.121858,-0.277539
407,-1.22441,-1.281533,-2.140907,-0.26827399999999996,0.9584540000000001,-0.096831,-0.507019,-0.29943800000000004,0.570114,0.328897,-0.196949,-0.186159
408,-1.216279,-1.299065,-2.147991,-0.251678,0.9633079999999999,-0.09316,-0.221691,1.3185360000000002,0.900114,-0.064286,0.112223,0.090002
409,-1.1494739999999999,-1.314516,-2.1107650000000002,-0.231285,0.96734,-0.103653,0.337035,1.424421,0.842992,-0.275627,-0.23676399999999997,0.66069
410,-1.119725,-1.326877,-2.0899349999999997,-0.21732100000000001,0.970399,-0.10526500000000001,-0.619639,-0.465095,0.536425,-0.265757,-0.519029,0.395411
411,-1.319215,-1.337651,-2.2487470000000003,-0.223727,0.9729450000000001,-0.057504,-1.920643,-1.6694759999999997,-0.576729,-0.884366,1.27617,-0.848441
412,-1.059954,-1.328799,-2.067259,-0.20901599999999998,0.9708610000000001,-0.117146,3.8060110000000003,3.152013,0.571249,0.7180949999999999,-0.7534850000000001,1.303364
413,-0.771107,-1.275496,-1.7735330000000002,-0.202807,0.956715,-0.208688,4.232124,-0.483621,0.164414,0.449114,-0.8527110000000001,1.8144
414,-0.754674,-1.257583,-1.728773,-0.21105900000000002,0.951348,-0.22444299999999998,-0.403409,-1.353265,-0.5163300000000001,-0.12107899999999999,-0.8697600000000001,0.459139
415,-0.9150889999999999,-1.265937,-1.841434,-0.237889,0.953889,-0.182996,-2.249552,-3.7016739999999997,-0.643724,-0.223124,0.909026,0.45269499999999996
416,-1.0834270000000001,-1.289189,-1.9745700000000002,-0.24551599999999998,0.9606100000000001,-0.130127,-1.626187,0.000147,0.149575,0.453874,0.891395,-0.371994
417,-1.124938,-1.304054,-2.048478,-0.237792,0.964635,-0.11365399999999999,-1.311289,1.3376430000000001,0.26542899999999997,0.019545,0.465404,-0.13338599999999998
418,-1.209964,-1.315056,-2.143305,-0.23663800000000001,0.967476,-0.089296,-1.227667,-0.241576,-0.219072,-0.200328,0.267295,-0.267866
419,-1.279008,-1.310101,-2.207504,-0.24682199999999999,0.966211,-0.07413600000000001,-0.389056,-0.101438,-0.5594979999999999,-0.291127,0.11105999999999999,-0.37488499999999997
420,-1.289994,-1.297721,-2.217375,-0.25909699999999997,0.9629459999999999,-0.07472999999999999,0.327789,-0.27271999999999996,-0.7048909999999999,-0.068143,0.059178999999999995,-0.425911
421,-1.254132,-1.277955,-2.1756189999999997,-0.274289,0.9574280000000001,-0.089882,1.21636,0.072915,-0.797403,0.079877,0.10740699999999999,-0.65673
422,-1.142488,-1.250257,-2.072524,-0.286592,0.949066,-0.130851,2.356847,0.9227209999999999,-0.649521,0.115816,0.046708,-0.736612
423,-0.995547,-1.213846,-1.944466,-0.293162,0.936967,-0.19008599999999998,2.915098,1.5531620000000002,-0.550289,0.23163899999999998,-0.095246,-0.349724
424,-0.8543379999999999,-1.169705,-1.830196,-0.294417,0.920636,-0.256385,3.002821,1.737684,-0.41745299999999996,0.12228299999999999,-0.343625,0.343909
425,-0.749216,-1.122299,-1.7407139999999999,-0.29530700000000004,0.9011,-0.31748899999999997,2.8726119999999997,0.800601,-0.394729,0.152882,-0.6519689999999999,0.8154140000000001
426,-0.68313,-1.077272,-1.678306,-0.299023,0.880669,-0.367417,2.404878,0.461363,-0.401835,0.254757,-1.002724,0.745286
427,-0.634497,-1.048794,-1.6382940000000001,-0.295559,0.866822,-0.401561,1.345537,0.954235,0.07083400000000001,0.480969,-1.205568,0.6002310000000001
428,-0.5826979999999999,-1.033817,-1.606303,-0.281485,0.859258,-0.42711899999999997,1.0173889999999999,1.276202,0.29138800000000004,0.533987,-0.922811,0.6345930000000001
429,-0.534593,-1.02301,-1.575813,-0.265337,0.8536799999999999,-0.448126,0.72593,0.955772,0.48951999999999996,0.575533,-0.6646989999999999,0.6938380000000001
430,-0.495155,-1.023625,-1.5470979999999999,-0.247212,0.853999,-0.45777700000000004,0.062265,0.6675260000000001,0.687148,0.5503279999999999,-0.570705,0.585249
431,-0.47422700000000007,-1.0400209999999999,-1.536823,-0.23115300000000003,0.8624149999999999,-0.45033100000000004,-1.01615,0.572784,0.539799,0.202649,-0.623355,0.40855199999999997
432,-0.481933,-1.071277,-1.556187,-0.222009,0.877813,-0.42443500000000006,-1.933053,0.311272,0.13314600000000001,0.11274100000000001,-0.506963,0.370724
433,-0.532317,-1.110919,-1.612482,-0.225255,0.896107,-0.382414,-2.538189,-0.24596300000000001,-0.38311300000000004,-0.304225,0.007717,0.28958
434,-0.644355,-1.146663,-1.715327,-0.24719000000000002,0.9113959999999999,-0.32900100000000004,-2.826294,-1.439475,-1.097168,-0.23009000000000002,0.726254,-0.146829
435,-0.81694,-1.1753360000000002,-1.8579919999999999,-0.280842,0.9228190000000001,-0.26366100000000003,-2.875795,-2.4907,-1.1047129999999998,-0.021084000000000002,0.78235,-0.37289
436,-0.981463,-1.194007,-1.977632,-0.305852,0.929851,-0.20449,-1.949216,-2.501506,-0.272491,0.158147,1.52509,-0.866555
437,-1.089114,-1.216365,-2.050651,-0.307546,0.937844,-0.16077,-1.592268,-1.816686,0.5206770000000001,0.536199,0.570411,-1.169201
438,-1.1821629999999999,-1.242437,-2.11825,-0.298417,0.946573,-0.122189,-1.585701,-1.326487,0.738012,0.418549,0.26627199999999995,-0.945163
439,-1.274527,-1.264977,-2.1879619999999997,-0.287929,0.953601,-0.087891,-1.279519,-1.133509,0.6982430000000001,-0.144749,-0.273043,-0.24221700000000002
440,-1.3416290000000002,-1.284171,-2.251672,-0.275294,0.959203,-0.064217,-1.056916,0.180372,0.672477,-0.333989,-0.201742,-0.078606
441,-1.341435,-1.297185,-2.27815,-0.263102,0.962801,-0.061426,0.091584,2.198147,0.44076800000000005,-0.47838400000000003,0.277174,-0.047247000000000004
442,-1.239049,-1.295936,-2.225625,-0.256583,0.962463,-0.08838700000000001,0.9298040000000001,2.38239,-0.006539,-0.50802,0.232041,0.452401
443,-1.212888,-1.2915809999999999,-2.2021900000000003,-0.25810700000000003,0.9612719999999999,-0.096536,-0.143062,-1.465327,-0.15651700000000002,-0.021174000000000002,-0.49381899999999995,-0.285452
444,-1.258873,-1.295491,-2.232226,-0.258691,0.962342,-0.083415,-0.378211,1.328697,0.361689,0.331384,1.755797,-1.037847
445,-1.071185,-1.3026659999999999,-2.107601,-0.23251799999999997,0.964268,-0.126908,2.593435,1.7612459999999999,0.9694139999999999,0.726735,1.661129,-0.978454
446,-0.8629620000000001,-1.272884,-1.9046349999999999,-0.222991,0.955951,-0.190829,2.741427,0.39941,0.146457,-0.06189,-0.749591,1.496509
447,-0.8970870000000001,-1.2605959999999998,-1.907889,-0.238535,0.9522719999999999,-0.190425,-0.747699,-2.6022689999999997,-0.8899469999999999,-0.384252,-0.155947,0.344127
448,-1.079664,-1.264035,-2.019704,-0.266255,0.953317,-0.142405,-1.8770349999999998,-4.096227,-0.600024,0.146428,0.8402629999999999,0.268015
449,-1.2254120000000002,-1.2727030000000001,-2.131215,-0.276326,0.9558979999999999,-0.099424,-1.384975,-0.260552,-0.132553,0.46480299999999997,0.799,-0.44572700000000004
450,-1.2950270000000002,-1.279798,-2.210808,-0.276038,0.957958,-0.078113,-1.173768,0.122656,0.023324,0.092429,0.49469399999999997,-0.152005
451,-1.3628799999999999,-1.281633,-2.27274,-0.278978,0.958483,-0.058855,-0.545453,-0.6528520000000001,-0.257577,-0.221419,0.32116500000000003,-0.7162149999999999
452,-1.335433,-1.269903,-2.242289,-0.288173,0.9550719999999999,-0.069106,1.288429,0.412711,-0.586896,-0.319585,0.328436,-0.933213
453,-1.203538,-1.2427469999999998,-2.119394,-0.300687,0.946672,-0.115678,2.692225,0.8338270000000001,-0.821184,-0.187441,0.21642899999999998,-0.6763899999999999
454,-1.048192,-1.198466,-1.9684560000000002,-0.315211,0.9314819999999999,-0.18157,3.545838,0.548836,-0.887496,0.09904,-0.130396,-0.052408
455,-0.9325450000000001,-1.145211,-1.849875,-0.331565,0.910797,-0.24596500000000002,3.159092,0.342808,-0.977527,0.135627,-0.294174,0.44268100000000005
456,-0.858358,-1.0948879999999999,-1.7789580000000003,-0.3467,0.888877,-0.29947199999999996,2.368484,0.76015,-1.029518,0.245077,-0.750235,0.810214
457,-0.817974,-1.066602,-1.756953,-0.35254,0.8755639999999999,-0.330289,0.7871239999999999,1.1634200000000001,-0.341395,0.546922,-1.188995,0.8133819999999999
458,-0.77653,-1.064834,-1.7403819999999999,-0.339638,0.8747090000000001,-0.34571599999999997,0.157531,1.4553639999999999,0.454999,0.680031,-1.28488,0.819028
459,-0.735216,-1.073804,-1.7250619999999999,-0.319793,0.8790209999999999,-0.353615,-0.237344,1.394132,0.658486,0.5907439999999999,-1.168159,0.671303
460,-0.693345,-1.0925040000000001,-1.7129869999999998,-0.294152,0.887782,-0.353984,-0.6990460000000001,1.684561,0.889898,0.491464,-0.926479,0.47805299999999995
461,-0.656831,-1.118776,-1.708434,-0.266696,0.899567,-0.345891,-1.115789,1.540065,0.889309,0.453097,-0.837967,0.483968
462,-0.639917,-1.1509639999999999,-1.716949,-0.24338400000000002,0.913157,-0.326947,-1.4858120000000001,0.973037,0.752855,0.382209,-0.872783,0.430051
463,-0.6573869999999999,-1.178534,-1.7425009999999999,-0.23358099999999998,0.924047,-0.302595,-1.315727,-0.21514899999999998,0.174453,0.413101,-0.431493,0.21236999999999998
464,-0.7391439999999999,-1.1913559999999999,-1.796309,-0.249509,0.9288719999999999,-0.273728,-1.041796,-2.655986,-0.788315,0.132001,0.121467,0.088075
465,-0.921525,-1.1807,-1.8939759999999999,-0.302885,0.9248719999999999,-0.229906,-1.024019,-5.583976,-1.980848,-0.072024,0.930077,-0.5287
466,-1.1038299999999999,-1.169876,-1.968475,-0.348465,0.920702,-0.175681,-0.627685,-5.018939,-0.571955,-0.189377,1.3790719999999999,-0.540338
467,-1.151229,-1.166557,-1.9669130000000001,-0.359186,0.919402,-0.160216,0.346783,-1.026693,0.01619,0.149424,1.15822,-0.764649
468,-1.1672040000000001,-1.174398,-1.962303,-0.355059,0.922457,-0.151622,-0.371502,-1.418695,0.63338,-0.016356,0.545438,-0.990315
469,-1.2030809999999998,-1.192791,-1.961898,-0.344375,0.9294030000000001,-0.132666,-0.261943,-1.876336,0.963744,-0.21730100000000002,0.018869999999999998,-0.43389300000000003
470,-1.229609,-1.214718,-1.9614,-0.328484,0.937271,-0.11663599999999999,-0.495673,-0.8893,1.01853,-0.562766,-0.173447,-0.404208
471,-1.237211,-1.233566,-1.9780659999999999,-0.31261,0.943675,-0.108331,-0.493559,1.37578,0.67488,-0.43433900000000003,-0.058436,-0.267036
472,-1.166677,-1.245092,-1.961745,-0.29417600000000005,0.947425,-0.125807,0.265954,3.153595,0.581767,0.047701,-0.110481,0.959501
473,-1.099124,-1.246815,-1.933391,-0.283559,0.947976,-0.14463499999999999,0.47079799999999994,1.215086,0.065458,0.093602,-0.258614,0.785474
474,-1.150012,-1.2497790000000002,-1.963285,-0.287983,0.948915,-0.128876,-1.9426860000000001,-3.638265,-0.250693,-0.160457,1.181029,-0.287139
475,-1.216942,-1.2604030000000002,-2.007444,-0.286482,0.9522139999999999,-0.105827,2.086894,3.4970800000000004,0.751075,0.289931,2.581234,-2.538734
476,-0.989084,-1.2370290000000002,-1.8136310000000002,-0.2737,0.944815,-0.17999,3.448917,0.970757,-0.023454,0.067661,-0.326468,1.3978549999999998
477,-0.938744,-1.2072479999999999,-1.74295,-0.28688,0.9346409999999999,-0.21007199999999998,0.5581010000000001,-2.013984,-0.753394,-0.24884099999999998,-0.067957,0.5046579999999999
478,-1.048984,-1.206043,-1.795045,-0.309225,0.934212,-0.177795,-1.3111110000000001,-3.450668,-0.292455,0.029226,0.720421,0.73085
479,-1.18284,-1.21597,-1.8780240000000001,-0.321585,0.937707,-0.131421,-1.295395,-1.802943,-0.242114,0.285848,0.70507,-0.076632
480,-1.253494,-1.2177930000000001,-1.936522,-0.328434,0.9383389999999999,-0.107857,-1.000137,-0.650382,-0.21482300000000001,0.12949000000000002,0.31407199999999996,-0.335029
481,-1.313604,-1.22102,-1.989541,-0.331389,0.939449,-0.087161,-0.7119340000000001,-0.249243,-0.080864,0.073165,0.215275,-0.5148590000000001
482,-1.316415,-1.2164059999999999,-1.99439,-0.33582399999999996,0.937858,-0.08731900000000001,0.385975,0.199737,-0.35791799999999996,-0.18665199999999998,0.257363,-0.7796390000000001
483,-1.273507,-1.203096,-1.956808,-0.343677,0.933157,-0.10529200000000001,1.05826,0.575032,-0.48723,-0.028805,0.080943,-0.883707
484,-1.203389,-1.183555,-1.894037,-0.35241100000000003,0.925954,-0.13563699999999998,1.58665,0.523579,-0.598841,0.160806,-0.21562699999999999,-0.426726
485,-1.12562,-1.157917,-1.822498,-0.362121,0.915969,-0.172775,1.836638,0.792397,-0.641237,0.32704099999999997,-0.859924,0.32663000000000003
486,-1.047282,-1.13052,-1.765595,-0.36909200000000003,0.904634,-0.213054,1.548249,1.6308610000000001,-0.680645,0.326947,-0.9021469999999999,0.423808
487,-0.977095,-1.111712,-1.731291,-0.36728299999999997,0.896459,-0.24789,0.786087,2.0904409999999998,-0.132151,0.32819,-0.922033,0.553233
488,-0.9192969999999999,-1.108001,-1.7091319999999999,-0.35499400000000003,0.894808,-0.27070900000000003,0.538003,1.596696,0.21285300000000001,0.29077,-1.199358,0.686465
489,-0.891192,-1.102689,-1.686549,-0.350939,0.892424,-0.283561,0.440558,-0.273071,0.083177,0.140795,-0.962492,0.553596
490,-0.8919739999999999,-1.103397,-1.677809,-0.350669,0.8927430000000001,-0.28289000000000003,0.000628,-0.262326,0.17516199999999998,0.244529,-0.846585,0.488746
491,-0.880041,-1.108954,-1.669136,-0.343439,0.895233,-0.283889,-0.024997,0.531158,0.499774,0.6486,-0.651169,0.521881
492,-0.850806,-1.122207,-1.658657,-0.326045,0.9010600000000001,-0.285958,-0.47638100000000005,1.124467,0.6368659999999999,0.682185,-0.529569,0.19603800000000002
493,-0.841454,-1.144577,-1.671577,-0.308247,0.910535,-0.27549,-1.208687,0.854066,0.694054,0.26671300000000003,-0.40467600000000004,0.351968
494,-0.878439,-1.174442,-1.7098919999999997,-0.297151,0.922475,-0.246429,-1.7665509999999998,-0.653154,0.34278000000000003,-0.09248200000000001,0.22227,0.635055
495,-1.015711,-1.1908889999999999,-1.8192990000000002,-0.315137,0.9286989999999999,-0.19542400000000001,-2.320626,-2.802829,-0.786378,-0.148654,0.507077,-0.021357
496,-1.226009,-1.203438,-1.9447740000000002,-0.337992,0.9332790000000001,-0.12138399999999999,-2.316992,-5.655981,-0.171673,-0.036444,0.656397,-0.6608729999999999
497,-1.376113,-1.2189889999999999,-2.0229150000000002,-0.338059,0.938752,-0.06665900000000001,-0.626219,-0.86925,0.6469199999999999,-0.252685,2.087585,-0.9937809999999999
498,-1.304814,-1.229429,-1.987481,-0.322977,0.942298,-0.087991,0.612885,1.448292,0.496645,-0.190039,1.250222,-1.597983
499,-1.3475709999999999,-1.236679,-1.976121,-0.319772,0.9447,-0.072591,-0.131787,-5.194304,0.493546,0.083062,-0.245207,-2.0000720000000003
500,-1.348457,-1.251441,-1.935301,-0.306198,0.9494379999999999,-0.06922400000000001,0.741803,1.8445029999999998,0.935009,-0.046341,-0.371435,0.279277
501,-1.2163979999999999,-1.263015,-1.889404,-0.284092,0.953008,-0.10512,0.281905,4.967046,0.746197,0.057454,-0.30498200000000003,1.262057
502,-1.1307530000000001,-1.2740200000000002,-1.88662,-0.264554,0.956284,-0.12456099999999999,-0.406622,3.0270509999999997,0.310176,-0.283252,0.266448,0.654834
503,-1.17009,-1.278433,-1.928857,-0.265358,0.957565,-0.11241199999999998,-0.82185,-1.794223,-0.43537,-0.8220290000000001,2.07695,0.241013
504,-1.5766850000000001,-1.2531809999999999,-2.145098,-0.312266,0.949983,0.0018390000000000001,-3.1347270000000003,-15.205497,-2.028127,-1.405141,4.591552,-1.5337450000000001
505,-1.3926530000000001,-1.224098,-1.914452,-0.33439,0.9405,-0.060208000000000005,4.377764,3.2074279999999997,-1.257901,0.426034,-0.661829,1.52203
506,-1.1447200000000002,-1.190032,-1.718073,-0.338384,0.9283809999999999,-0.153586,3.4320190000000004,2.973163,-0.197053,0.498174,-0.5356350000000001,0.9783850000000001
507,-1.058051,-1.191073,-1.6493810000000002,-0.32297800000000004,0.928767,-0.181826,-0.6702739999999999,-0.787569,1.037477,0.217112,0.749929,0.8944270000000001
508,-1.201119,-1.2249459999999999,-1.7401360000000001,-0.31607199999999996,0.940788,-0.122475,-2.5043900000000003,-3.4168239999999996,0.8015720000000001,0.040757,0.438485,0.777489
509,-1.408881,-1.253267,-1.877075,-0.308107,0.95001,-0.050328,-2.700933,-4.733573000000001,0.722838,-0.133055,0.364352,0.520405
510,-1.6553,-1.266094,-2.032178,-0.29890500000000003,0.953936,0.025319,-1.856929,-3.9030150000000003,0.347382,-0.20800700000000003,0.101621,-0.44118199999999996
511,-1.74587,-1.262291,-2.12391,-0.29896100000000003,0.952788,0.052881,-1.514533,1.598552,-0.06961,-0.153142,-0.167022,-0.23719200000000001
512,-1.81025,-1.254362,-2.2357259999999997,-0.302268,0.9503510000000001,0.073795,-1.80805,2.074573,-0.04236,-0.0299,-0.234119,-0.257023
513,-1.870825,-1.242284,-2.333478,-0.308191,0.946523,0.09534400000000001,-1.511061,1.226478,-0.265662,0.206735,-0.403616,-0.20160699999999998
514,-1.9172080000000002,-1.226397,-2.3965919999999996,-0.317546,0.9412780000000001,0.114624,-1.0826559999999998,0.403559,-0.50517,0.289042,-0.500696,-0.19775299999999998
515,-1.9476849999999999,-1.209608,-2.430338,-0.328556,0.935477,0.130046,-0.7179760000000001,-0.219412,-0.608646,0.22359,-0.5705180000000001,-0.116496
516,-1.9827810000000001,-1.192092,-2.4494569999999998,-0.33875500000000003,0.9291440000000001,0.148034,-0.671668,-1.198058,-0.734187,0.065898,-0.525946,-0.12304000000000001
517,-2.025807,-1.169822,-2.467144,-0.350578,0.920681,0.17152,-0.8290209999999999,-1.286152,-0.9456110000000001,0.035164,-0.390606,-0.266705
518,-2.05571,-1.142356,-2.4848209999999997,-0.367533,0.909615,0.193643,-1.01505,-0.116221,-1.1150520000000002,0.128428,-0.395424,-0.505548
519,-2.0503869999999997,-1.1124690000000002,-2.5028669999999997,-0.392511,0.8967940000000001,0.20414100000000002,-0.9921459999999999,1.632976,-1.138498,0.280908,-0.43468100000000004,-0.20675
520,-2.030533,-1.0876700000000001,-2.511114,-0.41629399999999994,0.885547,0.206116,-0.5656979999999999,0.8486370000000001,-0.901642,0.50745,-0.193881,-0.047882
521,-2.037428,-1.070272,-2.51241,-0.428559,0.877331,0.215881,-0.34672,-0.82634,-0.734528,0.7090770000000001,0.132938,-0.511352
522,-2.0467880000000003,-1.057477,-2.499869,-0.436462,0.8711190000000001,0.22500799999999999,0.220719,-1.077667,-0.713151,0.628448,0.117498,-0.574617
523,-2.043057,-1.04788,-2.470952,-0.444723,0.866367,0.22716999999999998,0.48814399999999997,-1.020674,-0.811769,0.258321,0.037975999999999996,-0.619016
524,-2.024982,-1.035268,-2.43197,-0.45853900000000003,0.859999,0.223872,0.743049,-0.609229,-1.094662,0.16859200000000002,0.129121,-0.5650430000000001
525,-1.9808740000000002,-1.02853,-2.3652349999999998,-0.47326899999999994,0.856541,0.20574099999999998,1.808684,-0.719087,-0.919367,0.21863000000000002,0.134517,-0.57952
526,-1.919268,-1.034046,-2.2773849999999998,-0.48058999999999996,0.859375,0.174597,2.5233,-0.685455,-0.360011,0.451171,0.8958889999999999,-0.482199
527,-1.8458880000000002,-1.055144,-2.1650240000000003,-0.47453999999999996,0.8699709999999999,0.133938,3.224612,-1.45709,0.45665600000000006,0.53173,1.074517,0.276341
528,-1.7571169999999998,-1.091732,-2.040547,-0.45294799999999996,0.887426,0.085384,3.344429,-0.582839,1.502162,0.554632,1.341379,0.7349439999999999
529,-1.64445,-1.135844,-1.9105290000000001,-0.420199,0.90689,0.031005,2.8932279999999997,-0.20877800000000002,1.8553169999999999,-0.028562,1.268723,0.583466
530,-1.5474940000000001,-1.164887,-1.789796,-0.39472199999999996,0.918744,-0.0092,2.3601509999999997,-0.9408120000000001,1.034274,-0.288903,1.027866,0.279067
531,-1.444102,-1.175961,-1.658327,-0.381548,0.92306,-0.0486,2.540891,-0.732251,0.669937,-0.404264,1.131032,0.19476400000000002
532,-1.334525,-1.1849319999999999,-1.54866,-0.36588000000000004,0.926473,-0.08809199999999999,1.46928,1.3317219999999999,0.932204,-0.164958,0.755518,0.1021
533,-1.2606899999999999,-1.210205,-1.517213,-0.335974,0.935688,-0.10766099999999999,-0.5047659999999999,2.49034,1.677504,-0.204324,0.43322299999999997,0.34818499999999997
534,-1.2352610000000002,-1.255976,-1.520176,-0.292351,0.950852,-0.101949,-0.709305,-0.068525,2.13869,-0.265281,0.142928,0.635946
535,-1.233814,-1.2866799999999998,-1.4658790000000002,-0.264515,0.95991,-0.092672,0.986843,-2.979706,1.4139899999999999,0.172565,0.17969300000000002,0.73557
536,-1.178405,-1.292589,-1.3493709999999999,-0.253732,0.961549,-0.10500799999999999,1.391909,-2.94791,0.571815,0.423944,0.044157999999999996,0.406018
537,-1.160497,-1.290325,-1.262788,-0.253806,0.960925,-0.110402,1.023837,-3.243709,0.27159,-0.17376,-0.505679,0.380254
538,-1.16612,-1.286666,-1.207549,-0.257654,0.9599059999999999,-0.110357,0.615058,-2.7865279999999997,0.049163,-0.21230100000000002,-0.776617,0.276739
539,-1.2017149999999999,-1.281434,-1.186325,-0.266098,0.958426,-0.10292899999999999,0.24473899999999998,-2.857596,-0.238548,-0.145858,-0.894934,0.190392
540,-1.2672940000000001,-1.2717690000000001,-1.187568,-0.281099,0.955623,-0.088034,0.087966,-3.435137,-0.594621,-0.096647,-0.850124,0.173788
541,-1.349675,-1.2580049999999998,-1.199902,-0.300196,0.951478,-0.067483,-0.025175,-3.592878,-0.742624,-0.030813,-0.711046,0.102868
542,-1.418717,-1.244912,-1.1978389999999999,-0.31642600000000004,0.947368,-0.048496,0.34792,-3.4512199999999997,-0.527623,0.07683200000000001,-0.43792299999999995,-0.077907
543,-1.4031639999999999,-1.236701,-1.119674,-0.323292,0.944708,-0.05470800000000001,2.096526,-2.488836,-0.023122999999999998,-0.048839,0.09701,-0.781993
544,-1.283567,-1.230836,-0.946059,-0.319766,0.942768,-0.094458,2.939099,-2.3676470000000003,0.6406310000000001,0.027087,0.889401,-1.42431
545,-1.1882979999999999,-1.233854,-0.791589,-0.30669,0.9437700000000001,-0.123385,1.903039,-2.115765,1.1522270000000001,0.653004,0.098772,-0.912641
546,-1.112475,-1.256889,-0.695331,-0.276889,0.951134,-0.136606,0.60314,-0.415525,1.9966150000000003,0.9682950000000001,-0.212365,0.377954
547,-0.988351,-1.285396,-0.55489,-0.23509899999999997,0.959549,-0.154852,1.417657,-0.754996,2.2676580000000004,1.095221,0.166748,-0.027093
548,-0.8661409999999999,-1.299107,-0.38569899999999996,-0.204425,0.963319,-0.173818,1.3089680000000001,-2.647736,1.7661919999999998,0.927325,0.15628,-0.349528
549,-0.811289,-1.308362,-0.26416799999999996,-0.188113,0.9657610000000001,-0.178616,0.506628,-2.953847,1.224732,0.488849,-0.085726,-0.015735
550,-0.769199,-1.3179809999999998,-0.200848,-0.17396099999999998,0.9682120000000001,-0.17969000000000002,0.336648,-0.213457,0.7147640000000001,-0.7122539999999999,1.388706,0.575625
551,-0.681284,-1.300359,-0.08355,-0.168234,0.9636540000000001,-0.20749499999999999,2.691433,-1.8408790000000002,0.7247520000000001,-1.1981600000000001,2.7126919999999997,-0.160563
552,-0.596621,-1.276313,0.040583999999999995,-0.16306199999999998,0.956952,-0.24008400000000002,1.051612,-1.590322,0.493992,-0.8659450000000001,-1.544507,1.117449
553,-0.642702,-1.288248,0.010291,-0.16709000000000002,0.960348,-0.223158,-1.6675659999999999,-0.20332999999999998,-0.345037,-0.6409090000000001,-1.490011,0.711622
554,-0.7791680000000001,-1.3059129999999999,-0.164867,-0.183942,0.965123,-0.186249,-2.202994,2.517224,-1.7035639999999999,-0.361788,-0.84406,0.7339939999999999
555,-0.937133,-1.293658,-0.375861,-0.220466,0.961842,-0.161985,-1.315117,1.3346149999999999,-2.699976,-0.11034400000000001,0.022014,0.901106
556,-1.08837,-1.248189,-0.45920200000000005,-0.28083600000000003,0.948412,-0.147074,0.8101659999999999,-6.334665,-2.055734,-0.055544,1.6828740000000002,0.004358
557,-1.223438,-1.21855,-0.46505799999999997,-0.32438,0.9386,-0.11743800000000001,0.516935,-5.499444,-1.0152,0.788141,0.7395,-0.198129
558,-1.285113,-1.214988,-0.451111,-0.33420700000000003,0.937365,-0.098162,-0.038652,-3.035128,0.446567,0.641641,0.187894,0.439166
559,-1.356998,-1.235991,-0.47071899999999994,-0.32108000000000003,0.9444739999999999,-0.069712,-0.853723,-2.57805,1.133564,0.05927,0.08177100000000001,0.13311199999999998
560,-1.465752,-1.26294,-0.530889,-0.301318,0.9529850000000001,-0.031769,-1.2818319999999999,-2.575758,1.197868,0.059085000000000006,0.009753,0.056839
561,-1.605488,-1.289786,-0.631135,-0.277127,0.9607760000000001,0.009618000000000002,-1.6757810000000002,-1.7685919999999997,1.351111,0.036481,-0.026373,0.09324199999999999
562,-1.777568,-1.311325,-0.791519,-0.251069,0.966526,0.052667,-2.102585,-0.472322,1.231101,-0.153136,-0.075351,-0.138909
563,-1.945513,-1.317004,-0.9510620000000001,-0.233619,0.967967,0.091882,-1.610349,-1.025396,0.587905,-0.336037,-0.28028400000000003,-0.203775
564,-2.067829,-1.3107209999999998,-1.040071,-0.226005,0.9663709999999999,0.122598,-0.919501,-2.15905,0.039776,-0.18903399999999998,-0.329408,-0.14489100000000002
565,-2.158889,-1.301025,-1.092745,-0.22170700000000002,0.963832,0.147834,-0.8753569999999999,-1.737844,-0.10359700000000001,-0.055285,-0.229854,-0.151908
566,-2.235475,-1.288348,-1.147689,-0.219347,0.960376,0.17188699999999998,-1.019152,-0.9120010000000001,-0.042634,0.048281,-0.17084000000000002,-0.105847
567,-2.304388,-1.274706,-1.205084,-0.216702,0.956484,0.19533699999999998,-1.100227,-0.610496,0.019438,0.084927,-0.26060700000000003,0.060842999999999994
568,-2.3675029999999997,-1.257967,-1.259261,-0.215115,0.9514670000000001,0.220036,-1.196683,-0.578829,-0.090235,0.05006,-0.31601399999999996,0.164226
569,-2.4209509999999996,-1.238552,-1.300818,-0.215204,0.945313,0.24505,-1.117071,-0.810766,-0.232523,-0.056402999999999995,-0.14914000000000002,0.07392
570,-2.469416,-1.2168430000000001,-1.328254,-0.21581,0.93801,0.271185,-1.165537,-1.322299,-0.406327,-0.204051,0.060708000000000005,-0.164221
571,-2.515892,-1.1910370000000001,-1.348594,-0.217087,0.9287540000000001,0.300446,-1.303501,-1.285093,-0.533388,-0.252579,0.19630699999999998,-0.379333
572,-2.544265,-1.1613120000000001,-1.364541,-0.22391,0.917326,0.329173,-1.454105,-0.239119,-0.637261,-0.157346,0.214403,-0.5227
573,-2.546843,-1.129421,-1.379053,-0.23933600000000002,0.904165,0.35380900000000004,-1.4604709999999999,0.969933,-0.6228319999999999,0.10516600000000001,0.137186,-0.491458
574,-2.530462,-1.104458,-1.388189,-0.257973,0.8932209999999999,0.368216,-0.903234,1.156083,-0.5048779999999999,0.267831,0.285826,-0.400946
575,-2.516932,-1.088414,-1.387053,-0.271279,0.885893,0.37627,-0.544652,0.25245500000000004,-0.48091999999999996,0.290444,0.326281,-0.23903200000000002
576,-2.523129,-1.07644,-1.382148,-0.275073,0.880274,0.386561,-0.329487,-0.974577,-0.442593,0.158633,0.33673600000000004,-0.42273900000000003
577,-2.5332790000000003,-1.069728,-1.365483,-0.274506,0.8770700000000001,0.394173,0.20765100000000003,-1.228412,-0.566702,0.086518,0.396169,-0.6733779999999999
578,-2.517068,-1.070846,-1.3278809999999999,-0.280287,0.877607,0.388876,0.757849,-0.596561,-0.812565,0.140776,0.469211,-0.746023
579,-2.478157,-1.079854,-1.2706819999999999,-0.29032199999999997,0.8818889999999999,0.37143400000000004,1.50746,-0.725791,-0.8466870000000001,0.35077800000000003,0.5247729999999999,-0.616842
580,-2.4227,-1.100136,-1.184513,-0.298621,0.8912690000000001,0.341238,2.3623380000000003,-1.185566,-0.8946059999999999,0.466742,0.559689,-0.4522
581,-2.339022,-1.1323450000000002,-1.0652760000000001,-0.305286,0.90541,0.294977,3.355055,-1.0876540000000001,-0.666675,0.597675,0.601304,-0.119425
582,-2.224349,-1.1788100000000001,-0.916215,-0.303279,0.9241520000000001,0.23225900000000002,3.910165,-1.19071,0.11393199999999999,0.331721,0.637768,0.053447
583,-2.0941400000000003,-1.229192,-0.750217,-0.290135,0.942219,0.16741099999999998,3.849632,-1.124249,0.595192,0.124028,0.575619,0.232934
584,-1.9217549999999999,-1.275139,-0.556682,-0.273579,0.9566110000000001,0.100162,3.579387,-0.195548,0.8837389999999999,0.13538,0.648187,0.478009
585,-1.703809,-1.310163,-0.340895,-0.255385,0.9662270000000001,0.034171,3.10608,0.7790590000000001,1.057577,0.033186,0.532629,0.651147
586,-1.475732,-1.332689,-0.121473,-0.234765,0.971786,-0.022385,2.446098,0.594039,1.0126110000000001,-0.024436000000000003,0.308564,0.529145
587,-1.309481,-1.3425129999999998,0.05351,-0.21858899999999998,0.9740559999999999,-0.058457,1.595479,-0.66438,0.766864,-0.035882,0.20288499999999998,0.07013
588,-1.182933,-1.348742,0.205744,-0.203843,0.975447,-0.08328200000000001,1.559381,-1.164564,0.940305,0.025117,0.167101,0.006347
589,-1.007282,-1.355934,0.39364499999999997,-0.18021700000000002,0.9770059999999999,-0.113871,1.637729,0.072382,1.364419,0.06866,0.101638,0.06588200000000001
590,-0.823207,-1.360832,0.590859,-0.152818,0.978038,-0.141678,1.36826,-1.084239,1.5306620000000002,0.34472800000000003,-0.049633,0.27649
591,-0.662308,-1.358068,0.794557,-0.12980899999999998,0.977459,-0.166463,1.839457,-2.1086840000000002,1.301325,0.227557,-0.143825,0.606648
592,-0.514997,-1.340008,0.981248,-0.11265,0.9734860000000001,-0.199049,1.768561,-1.625376,1.178434,0.175241,-0.28487199999999996,0.525359
593,-0.415592,-1.319532,1.1281139999999998,-0.100369,0.968599,-0.22744099999999998,1.7122540000000002,-2.6293029999999997,1.070368,-0.029468,-0.211015,0.47640299999999997
594,-0.361469,-1.2955709999999998,1.249159,-0.0961,0.962364,-0.25418,1.6722290000000002,-3.3403089999999995,0.9556319999999999,-0.033737,-0.20478,0.503142
595,-0.34007600000000004,-1.269899,1.346649,-0.098852,0.9550709999999999,-0.279384,1.720905,-3.7831660000000005,0.8390350000000001,-0.079355,-0.12249000000000002,0.5843470000000001
596,-0.33514099999999997,-1.2426409999999999,1.43119,-0.105999,0.9466379999999999,-0.304349,1.6652330000000002,-3.662299,0.764784,-0.039097,-0.183089,0.444333
597,-0.334717,-1.2195989999999999,1.50308,-0.113006,0.9389620000000001,-0.324914,1.369053,-3.13274,0.7257170000000001,-0.071427,-0.194241,0.39206799999999997
598,-0.333237,-1.203136,1.560859,-0.117566,0.9331709999999999,-0.339645,0.9407270000000001,-2.336385,0.68218,-0.10426600000000001,-0.22824499999999998,0.353073
599,-0.32916599999999996,-1.194283,1.607734,-0.118849,0.929952,-0.347926,0.56777,-1.8065220000000002,0.634031,-0.153704,-0.303671,0.38682
600,-0.331561,-1.1907159999999999,1.6422889999999999,-0.120761,0.928635,-0.350774,0.260367,-1.728234,0.5035970000000001,-0.124081,-0.306595,0.400121
601,-0.344442,-1.19309,1.667786,-0.124524,0.9295129999999999,-0.347114,-0.094593,-1.9133490000000002,0.484263,-0.067477,-0.278802,0.391517
602,-0.36849699999999996,-1.201374,1.686209,-0.13005899999999998,0.932536,-0.336823,-0.352464,-2.1232029999999997,0.44000200000000006,-0.003196,-0.276912,0.331375
603,-0.399769,-1.2122469999999999,1.697862,-0.136572,0.936407,-0.323231,-0.45648,-2.076737,0.365508,0.04537,-0.250646,0.183171
604,-0.43450600000000006,-1.222638,1.703428,-0.143611,0.940003,-0.30945,-0.409675,-1.977397,0.257817,-0.011662,-0.199967,-0.06730499999999999
605,-0.47081000000000006,-1.229065,1.710816,-0.152005,0.942176,-0.298643,-0.040897,-2.288709,0.267202,0.092404,0.36777600000000005,-0.745654
606,-0.479001,-1.221415,1.748077,-0.15776300000000001,0.939585,-0.303775,1.106531,-1.982414,0.463899,0.146822,0.663626,-0.928494
607,-0.43803800000000004,-1.197525,1.8266950000000002,-0.15467,0.9311389999999999,-0.33021999999999996,1.862612,-1.380682,0.910653,0.127921,0.851484,-0.945934
608,-0.374108,-1.1732,1.9193470000000001,-0.141495,0.9219940000000001,-0.360408,1.680725,-0.975316,1.194078,-0.014022999999999999,0.093997,-0.23054899999999998
609,-0.31575,-1.157052,2.005712,-0.12484100000000001,0.9156219999999999,-0.382152,1.139292,-1.119149,1.401989,-0.007178,-0.19751300000000002,-0.127644
610,-0.278,-1.1487379999999998,2.081312,-0.11241500000000001,0.912248,-0.393898,0.6528010000000001,-1.9383400000000002,1.289613,0.080447,-0.401597,0.12804400000000002
611,-0.272268,-1.149653,2.138304,-0.10993,0.9126219999999999,-0.393732,0.020274,-2.411241,1.018746,0.076727,-0.21413600000000002,0.000178
612,-0.270989,-1.16114,2.162963,-0.10661300000000001,0.917258,-0.383745,-0.5323180000000001,0.013704,0.33879899999999996,-0.371567,0.96615,0.402819
613,-0.262374,-1.1603139999999998,2.164402,-0.1035,0.9169280000000001,-0.385382,0.702976,0.346341,-0.000171,-0.624726,2.3931459999999998,-0.24795
614,-0.25253600000000004,-1.1334440000000001,2.181865,-0.105824,0.905876,-0.41009700000000004,1.26233,-1.000029,0.012938999999999999,-0.345715,1.065712,0.0347
615,-0.25685399999999997,-1.130434,2.184732,-0.10828499999999999,0.904597,-0.412271,-0.43134300000000003,0.33205,0.028244,-0.18495799999999998,-1.470546,1.134714
616,-0.24407199999999998,-1.15572,2.1719180000000002,-0.097447,0.9150860000000001,-0.39129400000000003,-1.6692,1.8865349999999999,-0.026192,-0.100872,-0.330506,0.487806
617,-0.230868,-1.1888290000000001,2.127982,-0.085289,0.927933,-0.362842,-1.8286080000000002,2.8005169999999997,-0.680092,-0.083061,0.31396399999999997,0.722186
618,-0.25252199999999997,-1.2158209999999998,2.060335,-0.08683400000000001,0.9376549999999999,-0.336527,-1.3975950000000001,1.621734,-0.906307,-0.08995399999999999,0.18879400000000002,0.409175
619,-0.29781599999999997,-1.233407,1.9922509999999998,-0.09712799999999999,0.943622,-0.31643499999999997,-1.082538,0.573209,-0.838673,0.061560000000000004,0.110455,0.34004
620,-0.359765,-1.24784,1.929884,-0.111725,0.9483010000000001,-0.297034,-0.9422590000000001,-0.5741689999999999,-0.674921,0.08401499999999999,0.24223499999999998,0.309104
621,-0.430993,-1.257331,1.87782,-0.128814,0.9512709999999999,-0.280138,-0.64557,-1.3163209999999999,-0.48602700000000004,0.084106,0.377556,0.005938000000000001
622,-0.497457,-1.265403,1.8373810000000002,-0.143466,0.953729,-0.264208,-0.67432,-1.383966,-0.328044,-0.043912,0.015296,0.104189
623,-0.5686100000000001,-1.275151,1.791868,-0.156872,0.956614,-0.24549200000000002,-0.816117,-1.366409,-0.33333,-0.058505999999999996,-0.115336,0.13510999999999998
624,-0.645692,-1.2868700000000002,1.738116,-0.168552,0.9599629999999999,-0.223714,-0.9663430000000001,-1.24475,-0.257623,0.028613999999999997,0.0037670000000000004,0.12001500000000001
625,-0.720479,-1.300733,1.685371,-0.17599800000000002,0.9637540000000001,-0.200472,-0.991504,-1.1592770000000001,-0.032514,0.122973,0.11928399999999999,0.030688
626,-0.7808510000000001,-1.31529,1.644236,-0.177877,0.967535,-0.179502,-0.8303649999999999,-0.9422959999999999,0.177705,0.049306,0.041375999999999996,-0.062335
627,-0.827039,-1.328812,1.61355,-0.17632899999999999,0.970864,-0.162223,-0.6944130000000001,-0.7789659999999999,0.240402,-0.076815,-0.042779000000000005,-0.030983999999999998
628,-0.876014,-1.341021,1.580193,-0.174938,0.9737180000000001,-0.145795,-0.713592,-0.839355,0.17411600000000002,-0.11015699999999999,-0.057809000000000006,0.112408
629,-0.9320700000000001,-1.351673,1.5382129999999998,-0.174492,0.976088,-0.129571,-0.64213,-0.689066,0.091101,-0.070168,-0.078231,0.161706
630,-0.986874,-1.3578649999999999,1.494466,-0.17628,0.977416,-0.11648399999999999,-0.547067,-0.603466,-0.08566900000000001,-0.056187,-0.110991,0.07877999999999999
631,-1.055094,-1.361265,1.44182,-0.180918,0.9781280000000001,-0.102557,-0.5450550000000001,-0.945116,-0.163197,0.00535,-0.0004980000000000001,-0.132596
632,-1.1129,-1.3626,1.398155,-0.185369,0.978405,-0.09135499999999999,-0.349242,-0.559188,-0.14096,-0.05619299999999999,0.051715,-0.25349299999999997
633,-1.135832,-1.361888,1.377548,-0.188047,0.978258,-0.087375,-0.05923099999999999,0.128966,-0.122724,-0.103778,0.05218300000000001,-0.263928
634,-1.11005,-1.356551,1.3908129999999999,-0.190407,0.977137,-0.094514,0.45288599999999996,0.9723809999999999,-0.229187,-0.12271900000000001,0.03481,-0.307998
635,-1.017867,-1.341659,1.459226,-0.19326300000000002,0.9738629999999999,-0.119271,1.390547,1.3327120000000001,-0.309625,-0.34468499999999996,-0.022432,-0.536323
636,-0.8746360000000001,-1.3099610000000002,1.571835,-0.19785999999999998,0.966175,-0.16535999999999998,2.4149830000000003,1.9878,-0.6504810000000001,-0.216142,-0.131397,-0.166473
637,-0.724292,-1.254873,1.683555,-0.205855,0.9505100000000001,-0.232686,3.4027629999999998,2.149527,-0.9247299999999999,-0.0571,-0.287164,0.094929
638,-0.599133,-1.188627,1.772819,-0.21029899999999999,0.927858,-0.30796599999999996,3.537329,2.1047290000000003,-0.761363,-0.053341999999999994,-0.4572,0.612028
639,-0.503966,-1.1250229999999999,1.82968,-0.2082,0.902277,-0.377542,3.06632,2.07514,-0.679158,0.088617,-0.642863,1.148432
640,-0.44665900000000003,-1.079123,1.857705,-0.203922,0.8815440000000001,-0.425777,1.824525,1.287484,-0.29799000000000003,0.160526,-0.988051,1.082622
641,-0.418494,-1.063277,1.8748529999999999,-0.19750399999999999,0.8739530000000001,-0.44406,0.385457,0.177216,0.21253699999999998,0.21203000000000002,-1.3330440000000001,0.565459
642,-0.398067,-1.059542,1.887318,-0.189657,0.872131,-0.451008,0.431091,1.123881,0.263986,0.476797,-0.83136,0.731632
643,-0.33602,-1.053841,1.912222,-0.162962,0.8693280000000001,-0.466587,0.381626,2.275521,0.5537890000000001,0.58145,-0.7875260000000001,0.7236819999999999
644,-0.275267,-1.058007,1.936896,-0.133347,0.8713790000000001,-0.472131,-0.259938,1.5944639999999999,0.663412,0.642884,-0.686824,0.678201
645,-0.23974,-1.076028,1.953615,-0.112746,0.8800790000000001,-0.46123800000000004,-1.159993,0.8629979999999999,0.550172,0.33755300000000005,-0.46584799999999993,0.417415
646,-0.23779899999999998,-1.1130200000000001,1.943256,-0.10410599999999999,0.8970379999999999,-0.42950600000000005,-2.214986,0.329937,-0.026945,0.014842,-0.251087,0.418642
647,-0.301718,-1.160099,1.8880419999999998,-0.11863699999999999,0.9168430000000001,-0.3812,-2.73838,-1.524057,-0.800549,-0.39671300000000004,0.273511,0.101507
648,-0.46078199999999997,-1.203921,1.774529,-0.15948800000000002,0.9334530000000001,-0.321275,-2.8792240000000002,-2.696615,-1.0222209999999998,-0.355862,0.25690100000000005,0.041581
649,-0.545309,-1.252137,1.703379,-0.16248900000000002,0.949656,-0.267838,-2.323531,-0.05733099999999999,0.475926,-0.024843,1.7568709999999998,-0.592986
650,-0.592329,-1.284858,1.6659,-0.157458,0.9593969999999999,-0.233988,-1.451508,-1.2074850000000001,0.433284,0.164432,0.8872059999999999,-1.196142
651,-0.654713,-1.318232,1.644059,-0.152148,0.968275,-0.198195,-1.577149,-2.315871,0.932687,0.079287,0.178545,-0.95099
652,-0.686084,-1.348036,1.653329,-0.13993699999999998,0.975291,-0.17090999999999998,-0.660279,-1.731108,0.955433,-0.32307600000000003,-0.554088,0.094662
653,-0.6678930000000001,-1.360939,1.6932770000000001,-0.128998,0.9780610000000001,-0.16353,-0.131824,-0.610748,0.5752649999999999,-0.481308,-0.564181,0.0795
654,-0.629081,-1.3592739999999999,1.7249580000000002,-0.12351400000000001,0.977712,-0.16973,0.6574220000000001,1.141157,0.010239,-0.702597,0.22753400000000001,0.55683
655,-0.564289,-1.344615,1.759382,-0.11992,0.9745299999999999,-0.18946500000000002,0.73998,1.385156,-0.07388600000000001,-0.254348,-0.111844,0.33079200000000003
656,-0.533434,-1.343012,1.7778029999999998,-0.11481300000000001,0.9741690000000001,-0.19442,-0.065788,0.699561,0.24717199999999998,0.158193,-0.44414,0.16941099999999998
657,-0.48662700000000003,-1.352492,1.802446,-0.101265,0.976266,-0.191404,-0.6764720000000001,0.6589729999999999,0.536719,0.21800999999999998,2.315634,-1.365816
658,-0.526176,-1.374563,1.7762509999999998,-0.09790399999999999,0.980808,-0.168571,-0.096427,0.389389,0.583845,-0.067165,4.788876,-2.9880459999999998
659,-0.355074,-1.347184,1.9144169999999998,-0.077084,0.975103,-0.207891,2.675927,2.0250209999999997,0.203736,0.011883,-0.779821,1.371114
660,-0.308931,-1.293842,1.9412080000000003,-0.083126,0.961893,-0.260461,1.933301,-0.36861700000000003,-0.758716,-0.483662,-0.175073,0.118996
661,-0.415099,-1.29189,1.8818,-0.111015,0.961357,-0.251904,-1.150539,-3.003326,-0.678604,-0.18024400000000002,0.5257649999999999,0.844616
662,-0.5535100000000001,-1.315549,1.7995720000000002,-0.132711,0.967601,-0.21476199999999998,-1.57341,-2.715728,-0.30591199999999996,0.140982,0.618871,0.008601000000000001
663,-0.645766,-1.32955,1.732388,-0.143763,0.9710409999999999,-0.190782,-0.717398,-0.427587,-0.231294,-0.029501,0.44331099999999996,-0.548475
664,-0.653466,-1.334991,1.711023,-0.142013,0.972327,-0.185471,-0.11626900000000001,1.175499,0.084908,-0.249604,0.44347600000000004,-0.606689
665,-0.584482,-1.32213,1.7569439999999998,-0.13578099999999999,0.969241,-0.205233,1.6248690000000001,1.073941,-0.003213,-0.33332,0.22570500000000002,-0.640027
666,-0.486225,-1.2697370000000001,1.848327,-0.13855699999999999,0.955023,-0.26214499999999996,3.466528,0.21172,-0.43041999999999997,-0.34462800000000005,-0.205267,-0.394059
667,-0.426658,-1.193781,1.909346,-0.152344,0.929768,-0.335129,3.9097690000000003,0.22524699999999998,-0.999908,-0.207474,-0.507618,0.514405
668,-0.408413,-1.1186180000000001,1.9191470000000002,-0.173522,0.8994969999999999,-0.400979,3.2299729999999998,0.43613100000000005,-1.46533,0.086806,-0.785636,1.010964
669,-0.401823,-1.0636649999999999,1.9099669999999997,-0.189941,0.874141,-0.446978,1.9335200000000001,0.882908,-0.98144,0.42721499999999996,-1.161937,0.924578
670,-0.36190500000000003,-1.0390709999999999,1.9244729999999999,-0.17951099999999998,0.861934,-0.47417,0.884753,1.667648,0.283551,0.6138680000000001,-1.308924,0.7466
671,-0.31409000000000004,-1.029506,1.947743,-0.159182,0.8570450000000001,-0.49002700000000005,0.634437,1.188569,0.42662700000000003,0.409319,-0.8994639999999999,0.8055479999999999
672,-0.266042,-1.022952,1.9759349999999998,-0.136936,0.853649,-0.502516,0.39950399999999997,1.198849,0.723007,0.491688,-0.704052,0.724852
673,-0.215781,-1.0269620000000002,2.007134,-0.11078299999999999,0.8557309999999999,-0.505413,-0.303637,1.144051,0.916855,0.35892199999999996,-0.6190060000000001,0.6276970000000001
674,-0.170044,-1.049442,2.037834,-0.08428200000000001,0.867145,-0.49086199999999997,-1.339984,0.8492620000000001,0.943108,0.043709,-0.5212439999999999,0.429796
675,-0.146899,-1.088341,2.0526880000000003,-0.06790800000000001,0.885858,-0.45894799999999997,-2.121536,0.203177,0.421458,-0.016229,-0.33552,0.31579
676,-0.174482,-1.1356110000000001,2.037232,-0.073183,0.906792,-0.41516400000000003,-2.4887900000000003,-1.406994,-0.190067,-0.19836199999999998,-0.164864,0.12236400000000001
677,-0.279114,-1.1828319999999999,1.984879,-0.10422000000000001,0.925681,-0.363649,-2.613191,-3.332203,-0.550596,-0.58154,0.594171,-0.194716
678,-0.391234,-1.232677,1.915189,-0.126485,0.9433799999999999,-0.306631,-2.672822,-1.556427,-0.223208,-0.376766,1.290629,-0.16381300000000001
679,-0.468261,-1.272604,1.8550689999999999,-0.132588,0.9558690000000001,-0.262146,-2.007647,-0.911185,0.077577,-0.10793599999999999,1.2708,-0.649963
680,-0.5431279999999999,-1.312719,1.797478,-0.131888,0.966882,-0.21846999999999997,-2.305889,-0.902069,0.453633,0.229773,0.5938479999999999,-0.933416
681,-0.600789,-1.3594979999999999,1.751479,-0.118538,0.977759,-0.17297300000000002,-2.030616,-0.560199,1.034094,0.054908000000000005,-0.21181399999999997,-0.561814
682,-0.576307,-1.391309,1.7780340000000001,-0.09726,0.983935,-0.149652,-0.682746,0.20543000000000003,1.007276,-0.439224,-0.234698,-0.088156
683,-0.497026,-1.394306,1.848638,-0.083696,0.984466,-0.154293,0.797859,0.638788,0.3099,-0.48184099999999996,-0.063674,0.022976
684,-0.404972,-1.376031,1.919372,-0.076237,0.981093,-0.177846,1.054876,1.459645,0.20489000000000002,-0.32861,-0.175704,0.731312
685,-0.378861,-1.370016,1.951586,-0.073749,0.9799110000000001,-0.185256,0.005221,-1.479541,0.07206900000000001,-0.280163,0.1419,-0.281495
686,-0.401161,-1.371833,1.9550029999999998,-0.077166,0.9802719999999999,-0.181925,0.083969,-0.797035,0.087768,-0.42645,2.877898,-2.017019
687,-0.263331,-1.355082,2.048953,-0.05570599999999999,0.976824,-0.20663299999999998,1.709964,2.841669,0.8774700000000001,-0.067325,0.476133,0.7420329999999999
688,-0.169509,-1.301942,2.111319,-0.044806,0.964076,-0.261794,2.883701,0.8838030000000001,-0.166158,-0.20667399999999997,-0.61938,1.124876
689,-0.212236,-1.27821,2.083871,-0.060752,0.957501,-0.281935,-0.050051,-1.7467549999999998,-0.720595,-0.343087,0.161975,0.675322
690,-0.311406,-1.2978180000000001,2.028924,-0.082597,0.9629719999999999,-0.25660900000000003,-1.6941540000000002,-2.577657,-0.364614,-0.101516,0.70344,0.769411
691,-0.425987,-1.33158,1.959379,-0.097896,0.9715239999999999,-0.215738,-1.714573,-1.924359,-0.15195,-0.018819,0.74007,0.392313
692,-0.476245,-1.347801,1.9103240000000001,-0.10137,0.97524,-0.196512,-0.647223,0.8244520000000001,-0.111697,-0.357614,0.57191,-0.509085
693,-0.472958,-1.345102,1.892165,-0.101923,0.9746389999999999,-0.199188,0.669539,1.042669,-0.412563,-0.484411,0.490663,-0.5419470000000001
694,-0.42402799999999996,-1.3000040000000002,1.9229150000000002,-0.110046,0.963559,-0.24378200000000003,2.955605,0.687535,-0.69631,-0.39068600000000003,0.380862,-0.9248129999999999
695,-0.392943,-1.2330459999999999,1.953173,-0.126875,0.9435030000000001,-0.306093,3.4015269999999997,0.071742,-1.066284,-0.48614700000000005,-0.08014500000000001,0.126176
696,-0.387831,-1.1561860000000002,1.9548,-0.152339,0.915273,-0.372902,3.483682,0.22497899999999998,-1.62886,0.182536,-0.6179859999999999,0.5346
697,-0.401602,-1.085699,1.935043,-0.182267,0.8846299999999999,-0.429183,2.791691,0.267014,-1.6839540000000002,0.143784,-0.626604,0.614974
698,-0.396881,-1.03793,1.9259540000000002,-0.19636199999999998,0.861355,-0.468508,1.753497,0.931634,-0.757363,0.428417,-0.8901479999999999,0.9981559999999999
699,-0.361777,-1.013606,1.939226,-0.18716,0.848744,-0.494565,0.9679760000000001,1.2367059999999999,0.088132,0.5084489999999999,-1.259236,0.7863439999999999
700,-0.333109,-0.998135,1.948193,-0.17718,0.840462,-0.512077,0.76608,1.02498,-0.068967,0.253413,-1.0347520000000001,0.565696
701,-0.301058,-0.9878520000000001,1.958407,-0.163233,0.8348450000000001,-0.525718,0.440696,1.300925,0.202939,0.364329,-0.7770600000000001,0.629432
702,-0.263256,-0.986075,1.97,-0.14363399999999998,0.833866,-0.5329430000000001,0.011477,1.360477,0.334461,0.450854,-0.665333,0.650786
703,-0.23063499999999998,-0.9962610000000001,1.9848080000000001,-0.124227,0.8394450000000001,-0.529047,-0.6731020000000001,0.769452,0.6103109999999999,0.379598,-0.47250200000000003,0.544901
704,-0.209389,-1.022921,1.999078,-0.108268,0.853633,-0.5094890000000001,-1.536701,0.22051300000000001,0.6402329999999999,0.11908699999999998,-0.31087800000000004,0.47395200000000004
705,-0.21797399999999997,-1.063967,2.00146,-0.104968,0.874288,-0.473912,-2.2792790000000003,-0.9764879999999999,0.393025,-0.270917,-0.174367,0.172749
706,-0.26587,-1.1156409999999999,1.9881389999999999,-0.115502,0.898193,-0.424145,-2.707704,-2.201622,0.24846100000000002,-0.799095,0.409028,-0.215061
707,-0.349765,-1.172669,1.9391349999999998,-0.132848,0.921789,-0.364206,-3.166585,-1.823914,-0.302158,-0.297419,0.908869,-0.36235700000000004
708,-0.46395,-1.225323,1.8597740000000003,-0.151529,0.940915,-0.30282800000000004,-2.833345,-2.106749,-0.19050899999999998,-0.027837999999999998,1.309191,-0.537122
709,-0.5704859999999999,-1.275448,1.7869259999999998,-0.15717899999999999,0.956701,-0.244959,-2.7006490000000003,-1.504092,0.564878,0.17494,0.575389,-0.680212
710,-0.6178239999999999,-1.3245930000000001,1.746427,-0.141163,0.9698450000000001,-0.19864500000000002,-1.980261,0.210837,1.046276,-0.011104000000000001,-0.15237,-0.446572
711,-0.603429,-1.357809,1.752637,-0.119932,0.977404,-0.174021,-1.005128,0.332538,0.935427,-0.524889,-0.45505,-0.240774
712,-0.5754859999999999,-1.3732030000000002,1.7794279999999998,-0.10681900000000001,0.980542,-0.164658,-0.12478399999999999,-0.102204,0.466775,-1.016853,0.172504,-0.468247
713,-0.552391,-1.366466,1.802704,-0.10645299999999999,0.979197,-0.172702,0.77187,0.500387,-0.22100999999999998,-0.6360239999999999,0.259206,0.145007
714,-0.462537,-1.357787,1.8497860000000002,-0.094316,0.977399,-0.189157,0.400006,2.672375,0.660233,0.086336,-0.18832100000000002,0.71673
715,-0.369489,-1.3664319999999999,1.908728,-0.073278,0.97919,-0.18921400000000002,-0.35993200000000003,1.1527399999999999,0.391953,0.31555700000000003,0.8865780000000001,-0.00561
716,-0.329897,-1.368195,1.9374740000000001,-0.06517200000000001,0.9795459999999999,-0.190332,0.614491,0.8019890000000001,0.6812199999999999,0.266572,2.8677740000000003,-1.783316
717,-0.18987300000000001,-1.332116,2.059816,-0.044614999999999995,0.971651,-0.23214200000000002,2.865373,0.9963799999999999,0.467025,-0.21586799999999998,-0.49566800000000005,1.558665
718,-0.154832,-1.278643,2.079682,-0.044413,0.957626,-0.284547,1.902526,0.386849,-0.513137,-0.47222,-0.369933,0.600526
719,-0.23504299999999997,-1.277447,2.024416,-0.06733600000000001,0.9572809999999999,-0.28118699999999996,-1.010945,-2.4122529999999998,-0.761705,-0.308137,0.664622,0.8055399999999999
720,-0.367096,-1.308697,1.951516,-0.092986,0.9658479999999999,-0.24181999999999998,-2.019455,-3.0271470000000003,-0.363106,-0.043046,0.918551,0.771468
721,-0.451496,-1.337764,1.893674,-0.100743,0.9729709999999999,-0.20776,-1.170844,-0.120457,0.079201,0.186925,0.7570859999999999,-0.512516
722,-0.45279899999999995,-1.3516780000000002,1.879061,-0.095081,0.976089,-0.195434,-0.42790600000000006,0.458517,0.10180800000000001,-0.341183,0.49398800000000004,-0.461503
723,-0.460142,-1.336059,1.8768740000000002,-0.103272,0.972575,-0.208367,1.5432489999999999,-0.436795,-0.686579,-0.648223,0.352742,-0.7954319999999999
724,-0.434043,-1.282841,1.896902,-0.11942,0.9588270000000001,-0.25763600000000003,2.874113,0.7540859999999999,-1.016367,-0.6112770000000001,0.109548,-0.252801
725,-0.400505,-1.213838,1.910727,-0.136228,0.9369639999999999,-0.321757,3.4378620000000004,1.065291,-1.274542,-0.15126199999999998,-0.263075,0.327327
726,-0.384813,-1.143369,1.913095,-0.155604,0.910035,-0.384203,2.979637,0.45230699999999996,-1.2972540000000001,0.16405699999999998,-0.365556,0.399843
727,-0.391341,-1.0853110000000001,1.9046040000000002,-0.177984,0.8844489999999999,-0.431349,2.337533,-0.122177,-1.198453,0.256338,-0.620502,0.928861
728,-0.38614,-1.050522,1.907487,-0.187219,0.867683,-0.460506,1.232595,0.5188,-0.162272,0.534982,-1.407905,0.913234
729,-0.341416,-1.040915,1.9304029999999999,-0.169226,0.862867,-0.476249,0.41125600000000007,1.4872049999999999,0.531504,0.519354,-1.544645,0.813239
730,-0.29228000000000004,-1.039115,1.9492599999999998,-0.14607699999999998,0.8619559999999999,-0.48547299999999993,0.133076,1.6920220000000001,0.435295,0.372609,-1.178835,0.631316
731,-0.240046,-1.04411,1.9765259999999998,-0.119506,0.8644780000000001,-0.488249,-0.160224,1.198072,0.870782,0.4888,-0.741751,0.478178
732,-0.199794,-1.053985,2.004048,-0.098063,0.869399,-0.48427200000000004,-0.48296000000000006,0.660895,0.6876180000000001,0.35488400000000003,-0.829833,0.505359
733,-0.16922,-1.0733219999999999,2.026589,-0.08036599999999999,0.878791,-0.47038,-1.132629,0.551914,0.798588,0.29546999999999995,-0.8288639999999999,0.46372700000000006
734,-0.13543,-1.107283,2.052143,-0.060363,0.894487,-0.44298699999999996,-1.8368490000000002,0.541562,0.80116,0.157058,-0.530733,0.44449799999999995
735,-0.12728699999999998,-1.15069,2.059054,-0.051773,0.9130459999999999,-0.404544,-2.198819,-0.48544799999999994,0.07142000000000001,-0.038758,-0.168035,0.23156999999999997
736,-0.223296,-1.190756,2.006942,-0.082143,0.92865,-0.36173099999999997,-2.230058,-3.538302,-1.02195,-0.50851,0.612061,-0.303552
737,-0.38371500000000003,-1.230232,1.92058,-0.125038,0.942566,-0.30971,-2.229156,-3.7736680000000002,-0.505691,-0.460991,1.099105,-0.322569
738,-0.477621,-1.257816,1.87475,-0.141519,0.95142,-0.273419,-1.08392,-1.752429,-0.003558,0.069406,1.201824,-0.44067700000000004
739,-0.520642,-1.273938,1.8542470000000002,-0.14549700000000002,0.95626,-0.253737,-0.896436,-1.085123,0.255406,0.101383,0.9017719999999999,-0.740953
740,-0.557318,-1.2980459999999998,1.850297,-0.142464,0.9630340000000001,-0.228593,-1.129365,-2.116327,0.727254,-0.146919,0.258829,-0.629943
741,-0.5993970000000001,-1.3238860000000001,1.865632,-0.137863,0.969672,-0.201775,-0.795271,-3.069582,0.9284309999999999,-0.402863,-0.15750799999999998,-0.349846
742,-0.5815640000000001,-1.33797,1.9135389999999999,-0.126727,0.973018,-0.192768,0.149471,0.315895,0.634794,-1.026792,0.20108499999999999,-0.46250600000000003
743,-0.481364,-1.334642,1.964936,-0.108307,0.972245,-0.207348,0.46233599999999997,3.565497,0.502492,-0.402801,-0.198304,1.089123
744,-0.340318,-1.335565,2.029776,-0.077784,0.97246,-0.219669,0.148137,3.752848,0.808773,0.119226,-0.516833,0.883609
745,-0.363088,-1.342019,2.021837,-0.08053400000000001,0.973944,-0.211968,-0.7440399999999999,-6.234062000000001,-0.82545,-0.50548,4.005167,-3.330222
746,-0.252921,-1.288641,2.132161,-0.06966499999999999,0.960458,-0.269542,3.943541,2.663723,0.81852,0.11629500000000001,0.082236,1.638729
747,-0.156126,-1.211662,2.1964080000000004,-0.054647,0.9362010000000001,-0.34717,3.4903690000000003,1.293866,-0.141085,-0.061991,-0.6008899999999999,1.3442399999999999
748,-0.182566,-1.1930120000000002,2.178038,-0.066965,0.929484,-0.362715,-0.627074,-1.903641,-0.679563,-0.401632,0.777379,0.9010299999999999
749,-0.317277,-1.222561,2.1179189999999997,-0.106454,0.939976,-0.324189,-2.126127,-4.688694,-0.606348,-0.158377,0.937541,0.8849799999999999
750,-0.484142,-1.263533,2.039475,-0.140764,0.9531649999999999,-0.26766999999999996,-2.254105,-4.42709,-0.116195,0.289049,0.67684,-0.640732
751,-0.559876,-1.283934,2.000912,-0.150252,0.9591360000000001,-0.239722,-0.809297,-0.675453,0.029026999999999997,-0.12141500000000001,0.54802,-0.069788
752,-0.6161449999999999,-1.30094,1.962071,-0.15404500000000002,0.963809,-0.217545,-1.104208,-1.524367,-0.009333,-0.303795,0.29496500000000003,-0.265441
753,-0.712919,-1.311018,1.914981,-0.167981,0.966447,-0.19428399999999998,-0.437734,-2.853857,-0.313827,-0.344256,0.114928,-0.571112
754,-0.7566350000000001,-1.299999,1.901673,-0.183611,0.963558,-0.19448900000000002,0.632501,-0.495788,-0.595657,-0.234815,0.11264400000000001,-0.55403
755,-0.732843,-1.274116,1.922468,-0.19555699999999998,0.956312,-0.21727399999999997,1.540877,0.20988600000000002,-0.699174,-0.079208,0.044344,-0.551098
756,-0.6802189999999999,-1.228641,1.9756470000000002,-0.211015,0.942034,-0.260826,2.605368,0.153856,-0.929881,-0.019897,-0.079439,-0.341194
757,-0.6291770000000001,-1.174567,2.0230770000000002,-0.227109,0.922523,-0.312025,2.5843830000000003,0.449093,-0.950702,0.153165,-0.5737979999999999,0.385023
758,-0.593477,-1.1262219999999998,2.052865,-0.240508,0.9027940000000001,-0.356518,2.1736720000000003,0.313796,-0.8593940000000001,0.30895900000000004,-0.768059,0.6733979999999999
759,-0.573871,-1.089011,2.072218,-0.251546,0.8861690000000001,-0.389123,1.443793,0.047049,-0.386655,0.346181,-0.85382,0.772729
760,-0.546825,-1.0843479999999999,2.100329,-0.243077,0.883999,-0.399309,0.054654999999999995,0.171207,0.9355559999999999,0.634984,-1.236523,0.747743
761,-0.504366,-1.095015,2.14078,-0.22133899999999998,0.888935,-0.400988,0.141958,0.416785,0.9849889999999999,0.372798,-1.124241,0.639879
762,-0.46524,-1.0999139999999998,2.179887,-0.203529,0.8911680000000001,-0.405442,0.11705399999999999,0.003924,0.890272,0.283454,-0.9939819999999999,0.6238100000000001
763,-0.434725,-1.1056139999999999,2.214763,-0.188921,0.89374,-0.40684899999999996,0.10789800000000001,0.004354,0.790863,0.367159,-0.7502770000000001,0.589893
764,-0.409323,-1.10791,2.247008,-0.17770899999999998,0.894768,-0.409632,0.24763600000000002,-0.400287,0.62892,0.383459,-0.703133,0.582743
765,-0.400431,-1.110493,2.2700669999999996,-0.17315899999999998,0.895918,-0.409067,-0.130393,-0.596633,0.507958,0.14636400000000002,-0.548887,0.40677800000000003
766,-0.40432199999999996,-1.1234540000000002,2.283788,-0.170166,0.9016,-0.397679,-0.661642,-1.025283,0.537912,0.026657,-0.24806599999999998,0.24782300000000002
767,-0.44549399999999995,-1.140881,2.269142,-0.179592,0.9090010000000001,-0.376101,-1.045085,-1.3854030000000002,-0.44600100000000004,-0.21893800000000002,0.71368,0.564211
768,-0.545196,-1.1454950000000002,2.221089,-0.21395799999999998,0.9109139999999999,-0.352767,-0.21109499999999998,-4.555321,-0.455342,-0.8984530000000001,1.9584549999999998,0.279738
769,-0.710389,-1.161424,2.1905419999999998,-0.259558,0.9173709999999999,-0.30174,-1.6681849999999998,-7.169165,0.188377,-0.46114499999999997,1.190173,-0.539981
770,-0.81211,-1.176094,2.161836,-0.279058,0.923111,-0.264534,-0.19730799999999998,-0.9377770000000001,0.097731,-0.45426400000000006,1.084701,-1.0102010000000001
771,-0.774057,-1.1818819999999999,2.180018,-0.265052,0.925321,-0.27113400000000004,-0.10240199999999999,1.037847,0.663088,-0.33560999999999996,0.278429,-1.417846
772,-0.755674,-1.193349,2.203528,-0.25273,0.929608,-0.26821999999999996,0.041056,-0.7173069999999999,0.69839,-0.420152,-0.354352,-0.357421
773,-0.7309180000000001,-1.194151,2.239961,-0.245515,0.9299040000000001,-0.273838,0.5718409999999999,0.05542999999999999,0.402005,-0.029051,-0.675234,0.278568
774,-0.679709,-1.193342,2.270302,-0.23165,0.9296059999999999,-0.28663099999999997,0.298322,1.662684,0.434355,0.278998,-0.47265100000000004,0.691707
775,-0.6010949999999999,-1.197135,2.314469,-0.206429,0.930997,-0.301028,0.271757,1.7235669999999998,0.948974,0.229866,0.084094,1.046405
776,-0.5494319999999999,-1.20613,2.343267,-0.186227,0.934243,-0.304132,-0.3561,1.088675,0.425178,-0.301627,0.525215,0.649515
777,-0.535608,-1.2224190000000001,2.340891,-0.174214,0.9399280000000001,-0.29355,-0.8911969999999999,0.539568,0.47876,-0.486842,0.749907,0.444963
778,-0.585123,-1.248045,2.3103290000000003,-0.17516600000000002,0.9483659999999999,-0.264395,-1.917757,-3.173396,-0.10903800000000001,-0.5284479999999999,1.643614,-0.488733
779,-0.673693,-1.22902,2.31292,-0.20908600000000002,0.942161,-0.26192,3.3948419999999997,-0.899824,-0.786279,-0.13735,1.653314,-0.768811
780,-0.5838260000000001,-1.1717819999999999,2.377376,-0.214146,0.921444,-0.324144,2.735176,1.418424,-0.533211,0.095081,-0.140698,1.009843
781,-0.545905,-1.140514,2.411259,-0.216561,0.908848,-0.356488,0.812254,-0.30900500000000003,-0.044501,0.38040999999999997,0.15574200000000002,0.825253
782,-0.563336,-1.155263,2.419681,-0.21556,0.9149010000000001,-0.34128800000000004,-1.228478,-1.724494,0.858524,0.471938,0.7818609999999999,0.839564
783,-0.617946,-1.195496,2.405727,-0.212356,0.930398,-0.29875,-1.983902,-2.2299330000000004,0.83894,0.314513,0.585914,0.638731
784,-0.703595,-1.240636,2.371771,-0.209727,0.94599,-0.24718800000000002,-2.281393,-3.007088,0.972454,-0.134007,0.425729,0.262844
785,-0.8198629999999999,-1.285771,2.315698,-0.205539,0.9596540000000001,-0.191838,-2.029465,-3.07574,0.87282,-0.271497,0.358736,0.202199
786,-0.9203020000000001,-1.312732,2.264148,-0.203066,0.966886,-0.15453,-1.0138209999999999,-1.889614,0.40730900000000003,-0.355589,0.065616,-0.182384
