,attitude.roll,attitude.pitch,attitude.yaw,gravity.x,gravity.y,gravity.z,rotationRate.x,rotationRate.y,rotationRate.z,userAcceleration.x,userAcceleration.y,userAcceleration.z
0,-0.592598,-1.297544,-0.274336,-0.150721,0.9628979999999999,-0.223845,-2.128603,1.056006,1.126628,0.018946,0.00035800000000000003,-0.042543
1,-0.603366,-1.342543,-0.29072800000000004,-0.128389,0.9740629999999999,-0.186316,-1.6532470000000001,-0.133957,0.9936719999999999,-0.225646,-0.059878999999999995,-0.367684
2,-0.583074,-1.362322,-0.274952,-0.11395,0.978348,-0.172764,-0.216784,0.673622,0.523039,-0.263202,-0.19828800000000002,-0.442684
3,-0.5334899999999999,-1.3604209999999999,-0.243912,-0.10619300000000001,0.9779530000000001,-0.1798,0.436233,0.9374120000000001,0.057245000000000004,-0.21918600000000002,-0.21693600000000002,-0.297388
4,-0.518829,-1.35089,-0.23831599999999997,-0.108162,0.9759180000000001,-0.189424,0.415783,0.267939,-0.337282,-0.153205,-0.163204,-0.013091
5,-0.535343,-1.337056,-0.260799,-0.118152,0.972807,-0.199206,0.564458,0.252797,-0.67485,-0.08344700000000001,-0.17823599999999998,0.041934
6,-0.5549729999999999,-1.318316,-0.283697,-0.131624,0.9682959999999999,-0.212308,0.551002,0.30201500000000003,-0.717733,0.259813,0.51054,0.399808
7,-0.573984,-1.310935,-0.314192,-0.139514,0.966426,-0.21576399999999998,-0.043854000000000004,0.63458,-0.252297,0.705645,0.760549,0.34018400000000004
8,-0.55493,-1.315585,-0.291715,-0.133008,0.9676100000000001,-0.214561,0.044275999999999996,-0.835564,0.7511260000000001,0.08859,0.369838,0.263847
9,-0.47564300000000004,-1.328633,-0.212015,-0.109805,0.9708209999999999,-0.213178,-0.21679,0.7874680000000001,1.355041,-0.132154,0.411274,-0.139513
10,-0.38102800000000003,-1.34486,-0.11146600000000001,-0.083304,0.974585,-0.207945,-0.180622,-0.9170219999999999,1.336114,-0.025338999999999997,0.454446,-0.10658499999999999
11,-0.297189,-1.355889,-0.012078,-0.062446,0.9769959999999999,-0.2039,-0.187461,-0.295015,1.104533,-0.157998,1.209619,-0.30195900000000003
12,-0.26468400000000003,-1.353643,0.041117,-0.056361,0.9765149999999999,-0.20793899999999998,0.658792,-1.81054,0.015322,-0.31925,1.530108,-0.791817
13,-0.293069,-1.34215,0.024133,-0.065478,0.973974,-0.21698699999999999,0.12218299999999999,0.9474870000000001,-0.325245,-0.004514,-0.327505,0.170264
14,-0.275509,-1.349889,-0.003699,-0.059605,0.975699,-0.210842,-0.626844,2.3701630000000002,-0.075927,0.638371,0.337228,0.095608
15,-0.236486,-1.362157,0.0040420000000000005,-0.048526,0.9783139999999999,-0.201354,-0.6830149999999999,1.229816,0.364181,0.540972,0.45978100000000005,0.280456
16,-0.202683,-1.38844,0.030195999999999997,-0.036503,0.983419,-0.177624,-1.455855,-0.25569400000000003,0.6298779999999999,-0.022579,0.035105000000000004,0.13261099999999998
17,-0.188186,-1.413804,0.070408,-0.029247000000000002,0.9877020000000001,-0.153576,-0.9066280000000001,-1.632314,0.49126899999999996,-0.13094,-0.39061,-0.201847
18,-0.20496799999999998,-1.425063,0.084112,-0.029554,0.9894,-0.14216600000000001,-0.345337,-1.35545,0.032293999999999996,-0.136934,-0.44986400000000004,-0.194916
19,-0.265047,-1.429111,0.043271,-0.036988,0.989979,-0.13627,-0.303491,-0.734071,-0.350633,-0.097899,-0.256947,-0.103949
20,-0.35188600000000003,-1.4367729999999999,-0.030837,-0.046051,0.991032,-0.125423,-0.634602,-0.8032819999999999,-0.337902,-0.112274,-0.213902,-0.200154
21,-0.44963000000000003,-1.444949,-0.10647100000000001,-0.054547000000000005,0.992092,-0.113028,-0.420363,-1.3122129999999999,-0.325071,-0.148151,-0.24936999999999998,-0.300455
22,-0.551968,-1.440502,-0.181631,-0.068121,0.991524,-0.11062000000000001,0.138126,-1.307444,-0.669417,0.036749000000000004,-0.505257,-0.184852
23,-0.653547,-1.428792,-0.26926100000000003,-0.086042,0.989934,-0.112353,0.109125,-0.351037,-0.857784,0.17680099999999999,-0.45686899999999997,-0.15048
24,-0.728106,-1.417419,-0.343922,-0.101659,0.9882610000000001,-0.11402999999999999,0.070423,-0.037217,-0.715314,0.169728,-0.328974,-0.155776
25,-0.791567,-1.41114,-0.406472,-0.113099,0.987282,-0.11171199999999999,-0.20307,-0.12349,-0.482105,0.032227,-0.165978,-0.353468
26,-0.8552280000000001,-1.4087180000000001,-0.461153,-0.121781,0.986894,-0.105859,-0.25961999999999996,-0.681059,-0.325825,0.12094200000000001,-0.18470899999999998,-0.398901
27,-0.901854,-1.408504,-0.493807,-0.126748,0.9868600000000001,-0.100198,-0.081169,-0.6516109999999999,-0.11951800000000001,0.288506,-0.063794,-0.265997
28,-0.8900110000000001,-1.400349,-0.47103199999999995,-0.131802,0.985509,-0.10675499999999999,0.74083,-0.496043,-0.308392,-0.022769,-0.160619,-0.140102
29,-0.847242,-1.373099,-0.414454,-0.147196,0.9805209999999999,-0.13003,1.526141,-0.68247,-0.987398,-0.305746,0.080239,0.22355100000000003
30,-0.820908,-1.330683,-0.38424,-0.174017,0.971311,-0.162077,1.7457650000000002,0.172205,-1.524275,-0.273798,0.483965,-0.06563
31,-0.7895,-1.282366,-0.34765300000000005,-0.201953,0.958692,-0.200303,2.1155310000000003,-0.572803,-1.217362,0.11120899999999999,0.849353,-0.043502
32,-0.763051,-1.2390860000000001,-0.297736,-0.22507,0.9454870000000001,-0.23536100000000001,2.0457259999999997,-1.2388430000000001,-0.8303,0.37449899999999997,1.026757,0.077829
33,-0.744314,-1.201968,-0.24270100000000003,-0.24423899999999998,0.93275,-0.26518,1.962346,-2.0689189999999997,-0.435645,0.43273100000000003,1.021611,0.191328
34,-0.73582,-1.166994,-0.18116,-0.26372199999999996,0.919574,-0.291259,2.276508,-2.314441,-0.31456300000000004,0.238484,0.870984,0.19853099999999999
35,-0.716852,-1.121249,-0.11310899999999999,-0.285509,0.900644,-0.32760100000000003,2.7924919999999998,-2.0495349999999997,-0.6744939999999999,-0.276473,0.6850649999999999,0.153376
36,-0.715866,-1.066276,-0.074548,-0.317231,0.8754069999999999,-0.364726,2.503536,-1.386858,-1.241383,-0.429275,0.374456,0.20011400000000001
37,-0.7059380000000001,-1.022078,-0.037331,-0.338382,0.853194,-0.396933,2.148835,-1.08028,-0.346947,-0.294004,-0.338011,-0.079919
38,-0.697055,-0.9971700000000001,0.00298,-0.34838,0.839939,-0.416092,1.2011290000000001,-1.3506770000000001,0.161663,0.177176,-0.457004,-0.157914
39,-0.71311,-0.9941040000000001,0.019236000000000003,-0.356698,0.8382709999999999,-0.412391,0.060204999999999995,-1.564486,0.273608,0.31594099999999997,-0.34912,0.071769
40,-0.747132,-0.999524,0.026093,-0.36742600000000003,0.8412139999999999,-0.39668000000000003,-0.098807,-2.2257130000000003,0.33423400000000003,0.036433,-0.398739,0.6881689999999999
41,-0.779295,-1.00644,0.029656000000000002,-0.375895,0.844933,-0.38051199999999996,-0.25311500000000003,-1.193969,0.328629,-0.004324000000000001,-0.5047689999999999,0.5237609999999999
42,-0.78498,-1.020414,0.027468,-0.36967,0.852325,-0.369979,-0.791697,0.24413,0.534532,-0.04247,-0.509612,0.41564799999999996
43,-0.790713,-1.050686,0.007338,-0.35327600000000003,0.867765,-0.34954,-1.858945,0.71637,0.8458709999999999,0.039967,-0.46156,0.10388900000000001
44,-0.8086939999999999,-1.1025120000000002,-0.032905000000000004,-0.32650300000000004,0.892344,-0.311634,-2.801298,0.9656450000000001,1.395512,0.05536900000000001,-0.452647,0.01218
45,-0.835965,-1.16658,-0.084053,-0.29180300000000003,0.9194110000000001,-0.263689,-2.960948,0.884001,1.704286,0.148248,-0.31826,-0.094465
46,-0.870818,-1.230218,-0.135043,-0.255483,0.9425620000000001,-0.21518099999999998,-2.687831,0.48645,1.784684,0.090765,-0.033397,-0.314146
47,-0.921774,-1.2855290000000001,-0.20242000000000002,-0.22419,0.9595870000000001,-0.170085,-2.449984,0.9392360000000001,1.30186,-0.073447,0.341256,-0.43095900000000004
48,-0.9825,-1.3186,-0.282454,-0.207576,0.968367,-0.138472,-1.164145,0.281296,0.354558,-0.27815700000000004,0.285082,-0.833192
49,-0.9704219999999999,-1.309888,-0.243873,-0.212842,0.9661559999999999,-0.14573,1.648614,-1.661634,-0.251419,-0.174319,-0.24017399999999997,-0.307594
50,-0.88759,-1.278492,-0.143163,-0.223478,0.9575819999999999,-0.18190599999999998,1.9110150000000001,-0.28193,-0.5216149999999999,-0.065249,-0.382875,-0.07995
51,-0.864504,-1.250841,-0.09979600000000001,-0.239277,0.94925,-0.204128,1.187314,-1.5249110000000001,-0.741926,-0.09713300000000001,-0.106049,-0.012974000000000001
52,-0.869519,-1.218232,-0.05887100000000001,-0.263816,0.9384899999999999,-0.222786,1.7737630000000002,-2.141354,-0.8054060000000001,0.314399,0.359132,0.856773
53,-0.84055,-1.206307,-0.047557,-0.265572,0.934306,-0.237783,-0.385173,2.735865,0.168847,0.8601620000000001,0.829549,0.402792
54,-0.7963560000000001,-1.237178,-0.071364,-0.23407199999999997,0.9448639999999999,-0.22899699999999998,-1.664697,2.784908,1.000537,1.050326,0.343619,-0.080756
55,-0.788259,-1.280259,-0.067335,-0.203138,0.95809,-0.201979,-1.468651,-0.687661,2.1034200000000003,0.43699399999999994,0.40426,0.606779
56,-0.8038390000000001,-1.337065,-0.060115999999999996,-0.166759,0.972809,-0.16072,-2.196409,-1.232736,1.583084,-0.345982,3.398453,0.192992
57,-0.9527040000000001,-1.347335,-0.168654,-0.1806,0.975136,-0.128412,-0.063,-3.250239,-0.829628,-0.488254,2.66584,-0.727957
58,-0.981401,-1.340329,-0.171849,-0.189884,0.97356,-0.126972,-0.135962,0.20508600000000002,-0.127403,0.075779,-0.145099,-0.089978
59,-0.980592,-1.351575,-0.204426,-0.180673,0.976067,-0.121024,-0.835736,2.051089,0.508413,0.36643400000000004,0.278999,0.028144
60,-1.0067959999999998,-1.38038,-0.266085,-0.159946,0.9819260000000001,-0.101172,-1.6772189999999998,1.3916899999999999,0.969125,0.400593,0.31838299999999997,0.309348
61,-1.156886,-1.419504,-0.432828,-0.137978,0.988577,-0.060612,-2.39132,0.278225,1.11832,0.28724,-0.104681,0.613881
62,-1.497408,-1.452656,-0.776505,-0.117533,0.99303,-0.008641,-2.67067,0.108529,0.907215,0.08869400000000001,-0.45659099999999997,0.106084
63,-1.9033229999999999,-1.458774,-1.192384,-0.105646,0.993732,0.036485000000000004,-1.9979959999999999,0.19451500000000002,0.400125,-0.030218000000000002,-0.47192700000000004,-0.562822
64,-2.097455,-1.450338,-1.355418,-0.103869,0.9927540000000001,0.060392999999999995,-0.554711,-2.337128,-0.180481,0.001574,-0.34604,-0.40272399999999997
65,-2.156529,-1.441179,-1.392042,-0.107696,0.991611,0.07144400000000001,-0.520188,-0.198904,-0.264165,0.142287,-0.356464,-0.097598
66,-2.231015,-1.429224,-1.4712969999999999,-0.11143800000000001,0.9899950000000001,0.086526,-0.9141219999999999,0.133163,-0.114586,0.236087,-0.280645,-0.011696999999999999
67,-2.337837,-1.415043,-1.572238,-0.111675,0.9878950000000001,0.10764800000000001,-1.062983,-0.606015,-0.016403,0.27318899999999996,-0.162715,-0.311689
68,-2.437891,-1.400102,-1.6579490000000001,-0.109903,0.985467,0.129505,-0.9679139999999999,-0.820456,-0.018668,0.215799,-0.125802,-0.459751
69,-2.4967770000000002,-1.387132,-1.703731,-0.10976500000000002,0.983181,0.145953,-0.613105,-0.5676800000000001,-0.136155,0.011712,-0.031536,-0.53757
70,-2.516692,-1.3765120000000002,-1.7174099999999999,-0.11293900000000001,0.9811860000000001,0.15657000000000001,-0.513753,-0.184043,-0.25666100000000003,0.041512,0.176102,-0.24554299999999998
71,-2.534798,-1.362085,-1.731628,-0.118147,0.978299,0.170201,-0.731743,-0.30454699999999996,-0.301827,0.188993,0.259571,-0.201757
72,-2.55907,-1.349358,-1.7453560000000001,-0.120822,0.975582,0.183402,-0.490703,-0.667038,-0.170424,0.288882,0.338825,-0.137718
73,-2.585873,-1.342592,-1.756211,-0.119342,0.974074,0.19217599999999999,-0.266933,-0.8408959999999999,-0.043656,0.045016,0.453294,-0.284339
74,-2.603803,-1.340653,-1.7574009999999998,-0.116844,0.973634,0.195906,0.034138,-0.808864,-0.056549,-0.19004100000000002,0.41619799999999996,-0.6814100000000001
75,-2.593386,-1.344164,-1.730589,-0.117096,0.9744290000000001,0.19175899999999999,0.5539609999999999,-0.738409,-0.277335,-0.053284000000000005,0.21159099999999997,-0.590013
76,-2.5024490000000004,-1.356808,-1.626396,-0.126666,0.9771920000000001,0.17043,1.509317,-0.41482600000000003,-0.773141,0.238589,0.013668000000000001,-0.142278
77,-2.307563,-1.372897,-1.420247,-0.145609,0.980482,0.13209300000000002,2.278534,-0.321173,-1.150311,0.288736,0.035067,-0.018781
78,-2.009905,-1.380025,-1.113599,-0.17161600000000002,0.981858,0.080607,2.8540520000000003,-0.029077,-1.435086,0.361313,0.22084,0.053732
79,-1.665632,-1.371752,-0.770504,-0.196831,0.9802559999999999,0.018723,3.14546,0.613963,-1.058928,0.370598,0.687163,0.23689200000000002
80,-1.3671200000000001,-1.356242,-0.478951,-0.2085,0.9770709999999999,-0.043064,2.866576,0.484375,-0.379184,0.101871,0.41208900000000004,0.24634099999999998
81,-1.158567,-1.336001,-0.24976900000000002,-0.213146,0.972562,-0.093206,2.725159,-1.6620400000000002,-0.019566999999999998,0.158581,0.338901,0.344396
82,-1.032259,-1.3142340000000001,-0.050225,-0.21783200000000003,0.967268,-0.130142,2.5969759999999997,-4.310814,0.215804,0.519361,0.262743,0.49076800000000004
83,-0.9552129999999999,-1.290956,0.127088,-0.225494,0.9611,-0.15948299999999999,2.539572,-4.610475,0.345042,0.5527489999999999,0.30715,0.21185199999999998
84,-0.907327,-1.268383,0.262479,-0.234638,0.9546209999999999,-0.183412,2.012826,-3.9636169999999997,0.21020999999999998,0.492588,0.288589,0.130159
85,-0.9085790000000001,-1.244841,0.35590900000000003,-0.25252399999999997,0.9473450000000001,-0.196884,1.861327,-4.876397,-0.230854,0.34517600000000004,0.161023,0.193161
86,-0.9366700000000001,-1.213429,0.432835,-0.28179699999999996,0.9368209999999999,-0.207249,2.0246459999999997,-4.955513,-0.56717,0.22682,-0.062645,0.33775700000000003
87,-0.949527,-1.1800700000000002,0.513706,-0.309687,0.924633,-0.22168200000000002,2.291521,-4.030373,-0.38596199999999997,0.222086,-0.09045,0.34471399999999996
88,-0.94084,-1.149885,0.603507,-0.33016,0.912717,-0.24070300000000003,2.276204,-3.5798419999999997,-0.086476,0.259268,0.005603,0.274989
89,-0.9374889999999999,-1.127173,0.683473,-0.345975,0.9032030000000001,-0.254012,1.894161,-3.312289,0.202138,0.206525,-0.06589199999999999,0.41755600000000004
90,-0.929207,-1.114641,0.761113,-0.352901,0.897753,-0.263623,1.5776370000000002,-3.041282,0.635414,0.200542,-0.093798,0.36530799999999997
91,-0.926077,-1.111934,0.8282579999999999,-0.354015,0.8965569999999999,-0.26618600000000003,1.095091,-2.633629,0.874007,0.062190999999999996,-0.22361399999999998,0.25816
92,-0.9154909999999999,-1.117325,0.8880959999999999,-0.34734,0.898932,-0.266969,0.794403,-1.913287,1.080355,0.018223,-0.158987,0.22917300000000002
93,-0.8979159999999999,-1.126517,0.946464,-0.336118,0.9029209999999999,-0.267871,0.666883,-1.678971,1.20201,-0.022494,-0.139768,0.25204699999999997
94,-0.8814799999999999,-1.138672,1.0011729999999999,-0.323177,0.908078,-0.266358,0.398508,-1.602279,1.1701270000000001,0.08781,-0.312436,0.201982
95,-0.8757790000000001,-1.154,1.0382149999999999,-0.310925,0.9143899999999999,-0.259252,-0.088024,-1.2772290000000002,1.024238,0.082227,-0.315452,0.13944
96,-0.882682,-1.175201,1.055345,-0.297663,0.922767,-0.24473000000000003,-0.621688,-1.050748,1.0597450000000002,0.066309,-0.312202,0.157602
97,-0.9025690000000001,-1.204752,1.052675,-0.280937,0.933751,-0.221764,-1.164858,-0.739268,1.1591690000000001,0.046776,-0.2683,0.125802
98,-0.93524,-1.241557,1.028199,-0.260185,0.9462889999999999,-0.191928,-1.580578,-0.331241,1.246541,-0.006615,-0.129455,-0.031964
99,-0.9745530000000001,-1.2808629999999999,0.9870129999999999,-0.23655,0.9582629999999999,-0.16053199999999998,-1.615099,0.217811,1.167616,-0.116782,0.15929100000000002,-0.355475
100,-1.001191,-1.305561,0.9542280000000001,-0.220739,0.965031,-0.14136400000000002,-0.485755,0.13248800000000002,0.48127,0.133825,0.809566,-0.874292
101,-0.944592,-1.289103,1.0163,-0.22522899999999998,0.960586,-0.162912,2.1450400000000003,-0.49981000000000003,-0.584857,-0.08426499999999999,0.308625,-0.7381800000000001
102,-0.8834069999999999,-1.24447,1.113261,-0.24775999999999998,0.947227,-0.2034,2.29137,-2.191817,-0.890383,0.16556099999999999,-0.180366,-0.510254
103,-0.9059719999999999,-1.220864,1.155427,-0.269812,0.9393959999999999,-0.21149600000000002,0.767584,-3.6351160000000005,-0.14074,0.49631400000000003,-0.636418,-0.408545
104,-0.93385,-1.22255,1.205865,-0.274329,0.939973,-0.202951,0.63772,-3.49179,0.8911399999999999,0.521644,-0.116547,0.075388
105,-0.914861,-1.233391,1.2732780000000001,-0.262335,0.943617,-0.201896,0.514811,-1.50506,1.265886,0.188635,0.138964,0.047142
106,-0.8688670000000001,-1.247449,1.34531,-0.242621,0.948177,-0.20515799999999998,0.505743,-1.19697,1.217358,-0.254755,0.720356,0.12337100000000001
107,-0.8503219999999999,-1.250758,1.401659,-0.23641500000000001,0.9492229999999999,-0.207551,0.45769,-1.943902,0.23735599999999998,-0.032475,0.388698,1.029725
108,-0.888675,-1.245143,1.397589,-0.24833400000000003,0.947442,-0.201691,-0.16294,-1.73491,-0.338746,-0.056323000000000005,-0.38250100000000004,1.045868
109,-0.960518,-1.244843,1.3407229999999999,-0.26240399999999997,0.9473459999999999,-0.183508,-0.985344,-0.068063,-0.613682,0.126356,-0.679203,0.47173100000000007
110,-0.9989379999999999,-1.251091,1.2707760000000001,-0.264276,0.9493280000000001,-0.170086,-1.098407,2.0429880000000002,-0.168524,0.756158,0.453794,-0.07349
111,-1.040045,-1.261403,1.200876,-0.262585,0.952519,-0.154118,-1.17911,0.469841,-0.164935,0.64935,0.717159,0.27571599999999996
112,-1.0934030000000001,-1.2750190000000001,1.15323,-0.258887,0.956576,-0.13392300000000001,-0.873698,-0.532744,0.674901,0.12550999999999998,0.09449500000000001,-0.050648
113,-1.140832,-1.304067,1.110427,-0.239578,0.9646379999999999,-0.109865,-1.359883,-0.23888800000000002,1.135805,0.033615,-0.017846,-0.186369
114,-1.219148,-1.3336299999999999,1.038201,-0.22055999999999998,0.972008,-0.080923,-1.329485,-0.563084,0.931334,0.008768000000000001,-0.069221,-0.09954299999999999
115,-1.298914,-1.353836,0.964332,-0.207342,0.976556,-0.057803999999999994,-0.95245,-0.124025,0.5638,0.08486,-0.046731,0.018299
116,-1.35043,-1.363823,0.903115,-0.200516,0.978657,-0.044916000000000005,-0.648575,0.67102,0.213459,0.150025,-0.018574,0.031779
117,-1.391642,-1.3681450000000002,0.845874,-0.19803099999999998,0.9795360000000001,-0.035863,-0.631786,0.705615,0.072527,0.162936,-0.054289,0.1162
118,-1.448216,-1.3726479999999999,0.778687,-0.19536199999999998,0.980433,-0.024068,-0.7110310000000001,0.25067399999999995,0.15801400000000002,0.022968000000000002,-0.0011539999999999999,0.007894
119,-1.517406,-1.378007,0.7148100000000001,-0.191308,0.981474,-0.010223999999999999,-0.588638,-0.7013020000000001,0.22311399999999998,0.10859,0.002398,-0.073929
120,-1.595119,-1.382578,0.658216,-0.18703599999999998,0.982339,0.00455,-0.536855,-1.286318,0.22315700000000002,0.177392,-0.007593000000000001,-0.121188
121,-1.684841,-1.386627,0.5955020000000001,-0.181922,0.983089,0.020838,-0.58675,-1.438598,0.25291399999999997,0.231818,-0.046672000000000005,-0.12327
122,-1.782995,-1.3899920000000001,0.52395,-0.175767,0.983699,0.037868,-0.6152529999999999,-1.334251,0.28996900000000003,0.179887,-0.07346699999999999,-0.130626
123,-1.883566,-1.392307,0.44761999999999996,-0.16891,0.9841129999999999,0.054623000000000005,-0.643618,-1.2403899999999999,0.285377,0.151408,-0.087598,-0.145016
124,-1.9897619999999998,-1.392068,0.36277800000000004,-0.162383,0.9840709999999999,0.072314,-0.75144,-1.051326,0.251267,0.121153,-0.094315,-0.167392
125,-2.102019,-1.387752,0.269036,-0.156919,0.983294,0.0922,-0.8968719999999999,-0.986507,0.151892,0.110304,-0.06666799999999999,-0.185522
126,-2.207435,-1.3792389999999999,0.180338,-0.153072,0.981709,0.11317100000000001,-0.932143,-0.84862,0.066011,0.11333800000000001,-0.038243,-0.21587800000000001
127,-2.297814,-1.367861,0.10303599999999999,-0.15057,0.9794790000000001,0.133941,-0.949264,-0.657734,0.030395,0.139309,0.041212,-0.313598
128,-2.375257,-1.356675,0.03714,-0.147345,0.9771639999999999,0.15307300000000001,-0.8324600000000001,-0.7286600000000001,0.08364500000000001,0.185675,0.14005399999999998,-0.347561
129,-2.443753,-1.3479700000000001,-0.012833,-0.141985,0.9752770000000001,0.169311,-0.5549890000000001,-1.14737,0.12350699999999999,0.181383,0.19405,-0.354614
130,-2.489722,-1.344458,-0.028644,-0.136132,0.9744950000000001,0.178379,-0.05531799999999999,-1.714075,-0.048533,0.325875,0.194954,-0.240421
131,-2.507874,-1.346634,-0.011746,-0.131615,0.974981,0.179111,0.332873,-1.594717,-0.130364,0.14516500000000002,0.430964,-0.206393
132,-2.489777,-1.353458,0.029283999999999998,-0.130795,0.976475,0.171406,0.664966,-0.8489909999999999,-0.159978,-0.023807,0.414394,-0.331059
133,-2.436045,-1.365631,0.099978,-0.13209300000000002,0.9790270000000001,0.155073,1.153299,-0.779978,-0.259205,-0.0021379999999999997,0.21616300000000002,-0.301633
134,-2.297513,-1.382941,0.257471,-0.139553,0.9824069999999999,0.12406600000000001,2.054351,-0.8017810000000001,-0.649193,0.104,0.133743,-0.170712
135,-2.017377,-1.39602,0.553553,-0.15681099999999998,0.984765,0.075088,2.814018,-0.289169,-1.094265,0.162915,0.108725,0.04747
136,-1.6636009999999999,-1.389974,0.909384,-0.179042,0.9836959999999999,0.016663999999999998,2.918997,0.269775,-1.1038620000000001,0.237956,0.25518,0.24934299999999998
137,-1.384946,-1.369584,1.198628,-0.19639600000000002,0.979825,-0.036926,2.739015,-0.61884,-0.6382359999999999,0.17361400000000002,0.284564,0.140854
138,-1.176947,-1.350447,1.439926,-0.201821,0.9758209999999999,-0.083869,2.596636,-1.9430990000000001,0.047197,0.29204600000000003,0.24205900000000002,0.149558
139,-1.040793,-1.335193,1.6371719999999998,-0.20139100000000001,0.972374,-0.118,2.1838599999999997,-3.192788,0.43474799999999997,0.356665,0.343087,0.26044
140,-0.948183,-1.318692,1.801147,-0.202625,0.96839,-0.145457,2.055108,-3.4932519999999996,0.294296,0.316791,0.279642,0.223063
141,-0.90648,-1.2942639999999999,1.927391,-0.21495,0.962008,-0.16831600000000002,2.123968,-4.27896,-0.147528,0.25395100000000004,0.058408,0.236873
142,-0.876899,-1.259918,2.045772,-0.23515100000000003,0.9520649999999999,-0.195625,2.556037,-3.954969,-0.29234,0.22418000000000002,-0.021325,0.17214200000000002
143,-0.8445870000000001,-1.222138,2.1521939999999997,-0.255434,0.939832,-0.22685500000000003,2.456343,-3.113045,-0.295183,0.054385,-0.10223099999999999,0.157504
144,-0.81406,-1.189675,2.243331,-0.27044,0.928248,-0.255365,2.2096459999999998,-2.5915630000000003,0.044256000000000004,-0.045614999999999996,-0.170558,0.203852
145,-0.791741,-1.164247,2.323711,-0.281383,0.918491,-0.277836,1.844228,-2.553643,0.201889,-0.023503,-0.148029,0.28603
146,-0.783271,-1.146217,2.384489,-0.290659,0.9112120000000001,-0.29189899999999996,1.297275,-2.175936,0.25954099999999997,-0.037649,-0.16438599999999998,0.304548
147,-0.7785890000000001,-1.1365809999999998,2.43038,-0.295442,0.907201,-0.299493,0.869175,-1.627437,0.393648,-0.035017,-0.174001,0.262185
148,-0.7691020000000001,-1.1342139999999998,2.46747,-0.294081,0.9062020000000001,-0.303825,0.490692,-0.96404,0.522614,-0.019181999999999998,-0.18968,0.20806100000000002
149,-0.755905,-1.137694,2.49651,-0.287881,0.907668,-0.305383,0.196978,-0.48182700000000006,0.600061,0.007241,-0.25509499999999996,0.165078
150,-0.740172,-1.147753,2.519834,-0.27686900000000003,0.9118440000000001,-0.303117,-0.195893,-0.20600100000000002,0.694172,0.051678999999999996,-0.314706,0.172929
151,-0.7352850000000001,-1.162707,2.526634,-0.266206,0.917881,-0.29431999999999997,-0.6423840000000001,0.046316,0.587112,0.002367,-0.31306799999999996,0.095513
152,-0.741904,-1.185875,2.513327,-0.253709,0.9268280000000001,-0.27679699999999996,-1.2754940000000001,0.436226,0.598214,-0.044752999999999994,-0.31845999999999997,-0.022473
153,-0.767716,-1.220181,2.4732979999999998,-0.23853600000000003,0.939161,-0.247125,-2.031617,0.6025159999999999,0.6942,-0.030170999999999996,-0.284727,-0.049598
154,-0.8145,-1.263305,2.409949,-0.22014899999999998,0.9530959999999999,-0.20769400000000002,-2.223887,0.711201,0.8540190000000001,-0.084646,-0.027039999999999998,-0.12554300000000002
155,-0.844245,-1.30035,2.3565270000000003,-0.19968699999999998,0.9636520000000001,-0.177467,-1.494544,1.347761,0.8732530000000001,0.15690199999999999,0.557375,-0.644417
156,-0.8242370000000001,-1.320893,2.346647,-0.181524,0.968936,-0.167945,-0.220428,1.439893,0.438723,0.10634400000000001,0.650357,-0.87066
157,-0.776262,-1.3070110000000001,2.394761,-0.182669,0.96541,-0.186038,1.504477,-0.9920760000000001,-0.270367,0.084204,0.128935,-0.46102600000000005
158,-0.7453649999999999,-1.278905,2.461055,-0.195167,0.957701,-0.211454,1.520075,-1.752904,-0.22869099999999998,0.18855999999999998,-0.119399,-0.323825
159,-0.7316729999999999,-1.26454,2.514745,-0.201425,0.953469,-0.22432,0.849239,-1.8561450000000002,0.32757800000000004,0.15241400000000002,-0.401604,-0.074325
160,-0.704397,-1.261542,2.57215,-0.19708299999999998,0.9525610000000001,-0.231908,0.5678979999999999,-1.015849,0.62257,0.279846,-0.16121,0.21721300000000002
161,-0.668326,-1.264686,2.622347,-0.18673399999999998,0.9535129999999999,-0.236512,0.32051999999999997,-0.39864,0.733283,0.190824,-0.089988,0.311692
162,-0.624698,-1.265206,2.683583,-0.175952,0.9536690000000001,-0.24403000000000002,0.704651,-1.093497,0.741129,-0.024534,-0.026118000000000002,0.430462
163,-0.606023,-1.258049,2.73477,-0.17524800000000001,0.951492,-0.252877,0.560665,-1.40288,0.18077200000000002,-0.026748,1.182343,0.338158
164,-0.638878,-1.248851,2.736238,-0.188671,0.948622,-0.253999,0.550208,-2.408268,-0.400194,0.015224000000000001,-0.001906,0.252641
165,-0.6668569999999999,-1.2336799999999999,2.747464,-0.20458099999999999,0.9437120000000001,-0.25990100000000005,0.36801500000000004,-0.553546,-0.26177,-0.114907,-0.328386,0.501478
166,-0.6766939999999999,-1.235368,2.700957,-0.20613,0.944269,-0.25663400000000003,-0.837666,2.4314009999999997,-0.825219,-0.10991,0.231359,0.0030629999999999998
167,-0.693813,-1.238913,2.6449689999999997,-0.208351,0.9454299999999999,-0.250492,-0.644543,1.219951,-0.136519,0.348274,0.586216,0.076801
168,-0.673967,-1.261024,2.6434849999999996,-0.190244,0.9524030000000001,-0.238183,-1.098166,1.0563799999999999,0.934085,0.6312840000000001,0.616399,0.07171
169,-0.656171,-1.293841,2.645244,-0.16680999999999999,0.961892,-0.21664,-1.294192,0.566394,1.093577,0.36316,-0.001199,0.0024980000000000002
170,-0.6331899999999999,-1.326231,2.663782,-0.143271,0.9702430000000001,-0.195189,-1.089561,0.111604,1.1618190000000002,0.11186800000000001,-0.241956,-0.10223600000000001
171,-0.62057,-1.358012,2.678157,-0.122796,0.977447,-0.171798,-1.275468,-0.12989900000000001,0.9781639999999999,-0.049704000000000005,-0.26914899999999997,-0.109269
172,-0.640338,-1.3869799999999999,2.6597630000000003,-0.1092,0.983153,-0.146564,-1.194109,-0.019809,0.550234,-0.366233,-0.190673,-0.25156799999999996
173,-0.665353,-1.405716,2.63413,-0.101441,0.986405,-0.12927,-0.688308,0.014484,0.32726,-0.147034,-0.217042,-0.281283
174,-0.660891,-1.415394,2.636899,-0.094997,0.987949,-0.122178,-0.1724,0.131,0.312555,0.026149000000000002,-0.178974,-0.304595
175,-0.6413310000000001,-1.416964,2.6572720000000003,-0.09166200000000001,0.9881909999999999,-0.12277,0.117556,-0.160933,0.073536,0.219637,-0.276872,-0.192614
176,-0.628839,-1.412692,2.677515,-0.09260299999999999,0.987527,-0.12731800000000001,0.371419,-0.49278900000000003,-0.007587000000000001,0.007139,-0.391733,-0.234895
177,-0.612507,-1.402231,2.712843,-0.096447,0.985826,-0.13726,0.7525850000000001,-1.253209,-0.11825,-0.068745,-0.435076,-0.305992
178,-0.595529,-1.380356,2.7655529999999997,-0.10617599999999999,0.9819209999999999,-0.156696,1.410873,-1.933243,-0.325356,-0.170343,-0.43976099999999996,-0.256939
179,-0.5845130000000001,-1.350624,2.808008,-0.12050599999999999,0.9758600000000001,-0.182132,1.434798,-1.084554,-0.5281710000000001,-0.235467,-0.520522,-0.077191
180,-0.570439,-1.324724,2.8319240000000003,-0.13153900000000002,0.969877,-0.20501999999999998,0.9920329999999999,-0.24833899999999998,-0.404148,-0.19905799999999998,-0.525846,-0.011792
181,-0.581045,-1.316749,2.829917,-0.13794700000000001,0.9679030000000001,-0.210073,0.06802799999999999,-0.7212649999999999,-0.150419,0.11364,-0.146294,-0.22234600000000002
182,-0.597857,-1.310498,2.831466,-0.144862,0.9663129999999999,-0.212721,0.35923499999999997,-0.535696,-0.18921500000000002,0.21755500000000003,-0.124761,0.158155
183,-0.596715,-1.3086229999999999,2.8228400000000002,-0.145637,0.965829,-0.214385,-0.194293,0.8005909999999999,-0.08369800000000001,0.192665,-0.23128600000000002,0.158004
184,-0.594915,-1.311695,2.812008,-0.143587,0.966621,-0.21218800000000002,-0.14069,0.43480699999999994,-0.031581,0.122759,-0.290275,0.13656600000000002
185,-0.599761,-1.3128030000000002,2.80081,-0.144009,0.9669040000000001,-0.210606,-0.131731,0.17319500000000002,-0.150824,0.12870499999999999,-0.158737,-0.024548
186,-0.623228,-1.312208,2.778473,-0.149247,0.9667520000000001,-0.20763600000000001,-0.164743,-0.169231,-0.270256,0.202317,0.007049,-0.016974
187,-0.6473479999999999,-1.3104360000000002,2.755033,-0.155244,0.966297,-0.205342,0.025343,0.012653,-0.365302,0.109224,0.275982,-0.044444
188,-0.655409,-1.293541,2.750022,-0.166822,0.96181,-0.216998,1.0448600000000001,-0.337156,-0.616242,0.06587,0.300534,0.006548999999999999
189,-0.6378159999999999,-1.261332,2.77276,-0.181338,0.9524969999999999,-0.244669,1.6391930000000001,-0.05714400000000001,-0.8260930000000001,-0.094862,0.47354399999999996,0.049707999999999995
190,-0.6287739999999999,-1.21759,2.784451,-0.20344500000000001,0.938268,-0.27974899999999997,2.051273,-0.260042,-1.325019,-0.085496,0.8348180000000001,-0.08089199999999999
191,-0.636101,-1.164765,2.7954529999999997,-0.23463299999999998,0.918696,-0.317715,2.3024419999999997,-1.161929,-1.3765889999999998,-0.074037,0.8687799999999999,-0.148258
192,-0.6457149999999999,-1.112531,2.8076119999999998,-0.266217,0.8968209999999999,-0.353323,2.176056,-1.008194,-1.350963,-0.026507999999999997,0.504851,0.076986
193,-0.660249,-1.065835,2.819834,-0.296703,0.875193,-0.382101,1.954425,-1.331513,-1.024153,-0.147893,0.8931629999999999,-0.053766999999999995
194,-0.655274,-1.027116,2.8431029999999997,-0.315222,0.8558110000000001,-0.410146,1.845853,-0.37940999999999997,-0.600979,-0.40809,0.482263,0.08594299999999999
195,-0.6466770000000001,-0.9941549999999999,2.86639,-0.328509,0.838299,-0.435126,1.6214959999999998,-0.7670170000000001,-0.44501999999999997,-0.513746,0.15099,0.145834
196,-0.643652,-0.9630040000000001,2.8930439999999997,-0.34270100000000003,0.8209110000000001,-0.45679200000000003,1.736313,-0.944858,-0.293371,-0.097164,-0.021442,0.021092
197,-0.637023,-0.934472,2.916027,-0.353458,0.804285,-0.47769300000000003,1.3284280000000002,-0.350965,-0.33971,0.168475,-0.342158,0.024888
198,-0.639786,-0.918918,2.922479,-0.362202,0.794945,-0.486692,0.396964,-0.530176,-0.27014299999999997,0.10364200000000001,-0.23581799999999997,0.19238
199,-0.6577930000000001,-0.9184399999999999,2.920312,-0.371138,0.794656,-0.480391,-0.247768,-0.9851979999999999,0.059222000000000004,-0.06819299999999999,-0.320062,0.589965
200,-0.684628,-0.9295540000000001,2.912639,-0.378286,0.801353,-0.46338999999999997,-0.678929,-0.870297,0.203477,-0.069148,-0.45252200000000004,0.572887
201,-0.691765,-0.9423549999999999,2.9075349999999998,-0.375008,0.808945,-0.45274,-0.569674,0.323964,0.35333000000000003,0.011727,-0.646317,0.347592
202,-0.678082,-0.960584,2.900012,-0.359467,0.819526,-0.44627,-1.048691,1.35544,0.42984700000000003,0.07711900000000001,-0.710106,0.154827
203,-0.657795,-0.9899979999999999,2.881178,-0.335454,0.836025,-0.4342,-1.7645369999999998,1.9816099999999999,0.57039,0.16428099999999998,-0.72929,0.064144
204,-0.639788,-1.0342879999999999,2.856494,-0.305161,0.859499,-0.41004399999999996,-2.343962,1.9222080000000001,1.0086629999999999,0.309845,-0.653032,0.006189
205,-0.6178859999999999,-1.091329,2.837263,-0.267239,0.887241,-0.37601,-2.770616,1.927182,1.4660799999999998,0.060772,-0.495105,0.023715
206,-0.601428,-1.162644,2.816296,-0.22458000000000003,0.9178559999999999,-0.327264,-3.38542,1.682074,1.7558610000000001,-0.08467000000000001,-0.324533,0.016198
207,-0.593771,-1.23751,2.787055,-0.183034,0.9449719999999999,-0.27115,-3.2962839999999995,1.860426,1.566111,-0.093684,-0.217586,-0.103743
208,-0.587618,-1.301179,2.752366,-0.147662,0.963873,-0.22167800000000001,-2.684399,1.8385310000000001,1.183717,0.14285599999999998,0.050638,-0.315614
209,-0.596946,-1.3431549999999999,2.719463,-0.126854,0.974201,-0.186643,-1.383401,0.703719,0.6622859999999999,0.004677000000000001,-0.23431799999999997,-0.002306
210,-0.5727220000000001,-1.3515840000000001,2.742496,-0.117842,0.9760690000000001,-0.182753,0.417017,-0.259777,0.289401,-0.11766199999999999,-0.36539699999999997,0.074782
211,-0.542149,-1.338647,2.787848,-0.118707,0.973174,-0.197071,0.833053,-0.7683180000000001,0.030175999999999998,0.023828,0.036301,0.47212600000000005
212,-0.532792,-1.34025,2.803402,-0.116066,0.973542,-0.196831,-0.511664,-0.069299,0.346763,0.263908,1.1306,0.241249
213,-0.527113,-1.356846,2.8050189999999997,-0.106803,0.9772,-0.183495,-0.57324,-0.003032,0.34518000000000004,0.251807,1.420261,-0.204414
214,-0.499834,-1.3626850000000001,2.828927,-0.099021,0.9784229999999999,-0.181329,-0.125895,1.161305,0.492091,-0.002755,0.128053,0.080117
215,-0.436882,-1.381208,2.851882,-0.079734,0.982082,-0.170746,-1.053282,1.747627,0.657914,-0.277413,1.423832,-0.482879
216,-0.41851800000000006,-1.395019,2.870313,-0.07106599999999999,0.984591,-0.159771,0.128843,-1.148734,0.135771,-0.43410699999999997,2.662168,-0.8804200000000001
217,-0.419325,-1.3660459999999999,2.9433759999999998,-0.08277799999999999,0.9791120000000001,-0.1857,2.284304,-4.389275,0.39105700000000004,0.269256,-0.44564899999999996,0.237382
218,-0.354727,-1.3329870000000001,3.040016,-0.081821,0.9718559999999999,-0.22090100000000001,1.380896,0.63978,0.136884,0.15369000000000002,-0.9689270000000001,0.439468
219,-0.297611,-1.324419,3.0432040000000002,-0.071517,0.969802,-0.23316599999999998,-0.064068,3.360257,-0.149092,0.11143399999999999,-0.720245,0.20415899999999998
220,-0.264878,-1.33459,3.0216279999999998,-0.061262,0.972233,-0.225848,-0.753293,1.9574619999999998,-0.127539,0.274122,-0.0069310000000000005,0.488879
221,-0.248986,-1.356956,3.0177389999999997,-0.052292,0.977223,-0.20566199999999998,-1.39101,0.385428,0.6124350000000001,0.344544,-0.23230399999999998,0.4912
222,-0.19681400000000002,-1.4013639999999998,3.090185,-0.032971,0.9856809999999999,-0.165356,-2.29451,-1.659847,1.381069,0.208783,-0.244195,0.315106
223,-0.115559,-1.447219,-3.073265,-0.014211000000000001,0.992374,-0.122425,-1.879393,-1.813035,0.968627,-0.118907,0.102993,-0.704601
224,-0.14794100000000002,-1.463012,-3.037194,-0.015854,0.9941969999999999,-0.10638299999999999,0.033431,-4.8342730000000005,-0.12616,-0.5030060000000001,0.050786000000000005,-0.7437600000000001
225,-0.29546,-1.453227,-3.104198,-0.03415,0.9930969999999999,-0.112201,0.383948,-2.340802,-0.610811,-0.621993,-0.924142,0.041139999999999996
226,-0.37769400000000003,-1.443244,3.07438,-0.046905,0.991876,-0.118227,0.182409,2.4152400000000003,-0.865073,-0.41354399999999997,-0.84501,-0.31500100000000003
227,-0.441392,-1.42992,2.9691490000000003,-0.059976999999999996,0.990093,-0.126941,0.498884,1.481606,-0.760185,0.362132,-0.26920700000000003,-0.178479
228,-0.446499,-1.41909,2.937484,-0.065252,0.9885149999999999,-0.136298,0.201458,1.2582440000000001,-0.322937,0.465017,0.132915,-0.10502
229,-0.448934,-1.411905,2.924155,-0.068665,0.987403,-0.142535,0.437778,0.073416,-0.201195,-0.010452,-0.431709,0.040148
230,-0.46872600000000003,-1.404719,2.9059779999999997,-0.07467599999999999,0.986241,-0.147474,0.056764,-0.071799,-0.319038,0.0073230000000000005,-0.36885500000000004,-0.314013
231,-0.5112329999999999,-1.403137,2.8760220000000003,-0.081639,0.985978,-0.145529,-0.136428,-0.887741,-0.16658599999999998,0.44647700000000007,0.166152,-0.214151
232,-0.541138,-1.410627,2.854894,-0.082147,0.9872,-0.136688,-0.46441499999999997,-0.23682899999999998,0.11016300000000001,0.42768199999999995,0.43391199999999996,-0.082977
233,-0.537292,-1.407891,2.870386,-0.083003,0.9867600000000001,-0.139325,0.712699,-0.786816,-0.034733999999999994,-0.051015,-0.230321,-0.057224000000000004
234,-0.528209,-1.379895,2.89412,-0.095624,0.981834,-0.163876,1.6468639999999999,-0.656241,-0.996186,-0.534396,-0.168738,0.077695
235,-0.572021,-1.3241479999999999,2.854659,-0.132166,0.969736,-0.205283,2.318162,0.088765,-2.203815,-0.681631,0.380087,0.017294
236,-0.606845,-1.2587620000000002,2.82045,-0.17507,0.9517110000000001,-0.252178,2.598144,-0.45470600000000005,-2.134933,-0.28322800000000004,0.9682870000000001,-0.13866099999999998
237,-0.623805,-1.195462,2.8231189999999997,-0.21412899999999999,0.930385,-0.297539,2.550033,-1.123578,-1.591755,0.32650999999999997,0.725163,0.129753
238,-0.647049,-1.1401350000000001,2.827089,-0.251664,0.90869,-0.333084,2.136968,-1.405482,-1.598552,0.484361,0.428834,0.315246
239,-0.66901,-1.085831,2.8262110000000003,-0.289126,0.884691,-0.365684,2.078535,-0.903423,-1.626309,0.068896,0.437513,-0.078637
240,-0.6797989999999999,-1.041514,2.830669,-0.317406,0.8631700000000001,-0.392669,1.7042869999999999,-0.297146,-1.069952,-0.215034,0.749761,-0.280808
241,-0.655725,-1.012398,2.848479,-0.32305300000000003,0.8481049999999999,-0.419943,1.27541,0.65066,-0.36059,-0.619193,0.404535,0.045857999999999996
242,-0.632223,-0.983611,2.8624549999999997,-0.327391,0.8325030000000001,-0.446935,1.4557149999999999,0.407065,-0.604709,-0.433306,-0.023344999999999998,0.07343
243,-0.6227590000000001,-0.9562459999999999,2.876434,-0.336312,0.817033,-0.468347,1.1323370000000001,-0.35327600000000003,-0.391281,0.261025,-0.315064,-0.03742
244,-0.627409,-0.947733,2.880385,-0.342557,0.812095,-0.47239200000000003,-0.047617,-0.42533000000000004,0.0022199999999999998,0.572278,-0.181785,0.171046
245,-0.642469,-0.961047,2.878002,-0.343122,0.819792,-0.45848199999999995,-0.8264540000000001,-0.892222,0.48555600000000004,0.20799099999999998,-0.004576,0.432054
246,-0.6724100000000001,-0.983993,2.8700419999999998,-0.344885,0.832715,-0.43317100000000003,-1.123394,-1.1799819999999999,0.510556,-0.344538,-0.203824,0.644734
247,-0.697263,-1.009973,2.859477,-0.341532,0.846817,-0.40774099999999996,-1.207854,-0.513754,0.741985,-0.42944899999999997,-0.48205600000000004,0.625881
248,-0.696029,-1.0417530000000002,2.8632470000000003,-0.323604,0.86329,-0.387308,-1.141229,0.073176,1.225603,-0.195606,-0.553766,0.346491
249,-0.6890189999999999,-1.0799459999999999,2.864145,-0.29969,0.8819319999999999,-0.36383899999999997,-1.6995490000000002,0.528706,1.2788030000000001,0.040168,-0.531926,0.060098
250,-0.678471,-1.128407,2.857869,-0.268675,0.903731,-0.333287,-2.050976,0.910343,1.516209,0.346327,-0.347121,-0.025584
251,-0.6635949999999999,-1.179763,2.852588,-0.234764,0.924516,-0.300255,-2.095027,1.007724,1.4442059999999999,0.239571,-0.33160500000000004,-0.046729
252,-0.653273,-1.232586,2.839311,-0.20166099999999998,0.94335,-0.263477,-2.342259,1.302627,1.43676,-0.071426,-0.28356,0.133716
253,-0.649414,-1.287686,2.8074689999999998,-0.16892100000000002,0.960191,-0.222475,-2.556824,1.932003,1.140694,-0.232477,-0.316484,0.10208300000000001
254,-0.676137,-1.338194,2.737061,-0.144245,0.9730700000000001,-0.179791,-2.4440560000000002,2.135771,0.702181,-0.244625,-0.17299,-0.08617000000000001
255,-0.722643,-1.376142,2.650299,-0.12792,0.981115,-0.145075,-1.7641790000000002,1.6605509999999999,0.4063,-0.227762,-0.038883999999999995,-0.194967
256,-0.763012,-1.398625,2.583437,-0.11839300000000001,0.985215,-0.12381600000000001,-0.937307,1.059521,0.27611399999999997,-0.105575,0.10449100000000001,-0.314965
257,-0.766541,-1.409737,2.56192,-0.11122699999999999,0.987058,-0.115503,-0.318472,0.778473,0.22631700000000002,-0.087565,-0.02963,-0.330939
258,-0.753901,-1.413289,2.561554,-0.107357,0.9876209999999999,-0.114343,-0.050416,0.689717,0.078752,-0.151416,-0.083172,-0.27123200000000003
259,-0.734266,-1.413435,2.562533,-0.104994,0.9876440000000001,-0.11632100000000001,0.047893,1.0839889999999999,-0.036433999999999994,-0.20314200000000002,0.312527,-0.154584
260,-0.714453,-1.408156,2.562877,-0.10608499999999998,0.9868030000000001,-0.12231600000000001,0.343546,0.660902,-0.249606,-0.178797,0.23774499999999998,-0.183134
261,-0.70024,-1.389937,2.584619,-0.115904,0.9836889999999999,-0.13753900000000002,1.081608,-0.9020530000000001,-0.573597,-0.096834,0.260527,-0.004398
262,-0.6925819999999999,-1.368903,2.600178,-0.12803399999999998,0.9796889999999999,-0.154317,0.56818,0.320173,-0.483677,0.587431,-0.074308,0.48646999999999996
263,-0.698259,-1.3710440000000002,2.5661,-0.12755899999999998,0.980116,-0.15198,-0.66596,1.76721,-0.045499,0.27627199999999996,-0.319395,-0.124753
264,-0.688792,-1.386723,2.5516389999999998,-0.11633099999999999,0.9831059999999999,-0.141297,-0.5549470000000001,0.6123149999999999,0.690625,0.100218,-0.045591,-0.301528
265,-0.616067,-1.401126,2.615087,-0.097563,0.985641,-0.137803,-0.167844,0.79861,0.9195530000000001,0.126249,1.103913,0.130127
266,-0.53778,-1.4175659999999999,2.670598,-0.078175,0.988283,-0.131074,-0.593585,1.091599,0.7463569999999999,-0.054439,1.272184,-0.350554
267,-0.47488400000000003,-1.4256360000000001,2.7431400000000004,-0.066133,0.989483,-0.128632,0.425629,-1.545975,0.650034,0.056625999999999996,0.764393,-0.611099
268,-0.40558299999999997,-1.419035,2.839147,-0.059642999999999995,0.988506,-0.138902,0.44079300000000005,-0.389984,0.32926,0.22002800000000003,-0.169476,0.08982899999999999
269,-0.37183099999999997,-1.416288,2.849334,-0.055908000000000006,0.988087,-0.14336400000000002,0.0683,1.757448,-0.105519,0.052368,-0.024342,0.25856799999999996
270,-0.346409,-1.4178469999999999,2.838923,-0.051723000000000005,0.988326,-0.14329,-0.221047,1.597093,0.019784,0.001277,0.16385,0.237544
271,-0.32911599999999996,-1.425801,2.841314,-0.046695,0.989507,-0.136719,-0.418048,0.21426399999999998,0.215664,0.055987,0.10535699999999999,0.215698
272,-0.327251,-1.4369379999999998,2.8498919999999996,-0.042894,0.9910540000000001,-0.12636,-0.582821,-0.589499,0.22836199999999998,0.018159,-0.114727,0.008409999999999999
273,-0.348256,-1.450485,2.848278,-0.040951999999999995,0.992771,-0.112798,-0.625903,-1.1804729999999999,0.20211300000000001,0.019269,-0.162525,-0.11300199999999999
274,-0.37280599999999997,-1.461074,2.847683,-0.039876,0.9939870000000001,-0.10196000000000001,-0.435162,-1.036094,0.161599,0.007665000000000001,-0.32748299999999997,-0.073562
275,-0.39871599999999996,-1.470221,2.831643,-0.038973,0.9949469999999999,-0.09251000000000001,-0.482283,-0.22910100000000003,0.057687,-0.041807,-0.31619,-0.085026
276,-0.436801,-1.478891,2.797107,-0.038814999999999995,0.9957799999999999,-0.083137,-0.42248100000000005,-0.269577,0.004745,-0.041964999999999995,-0.317023,-0.094399
277,-0.47980200000000006,-1.484297,2.764221,-0.039867,0.9962610000000001,-0.076615,-0.25015,-0.637624,-0.012806999999999999,-0.057774,-0.338943,-0.39974899999999997
278,-0.519925,-1.4875209999999999,2.737784,-0.041312,0.9965350000000001,-0.072166,-0.16156700000000002,-0.669734,-0.051672,-0.054100999999999996,-0.44346499999999994,-0.436806
279,-0.573997,-1.48671,2.693611,-0.045591,0.996467,-0.070507,0.040055,-0.404358,-0.25677,0.078688,-0.192527,-0.43059200000000003
280,-0.609731,-1.477156,2.668218,-0.053532,0.995619,-0.076637,0.509096,-0.63339,-0.39741,0.090291,-0.117323,-0.351937
281,-0.629055,-1.463699,2.657445,-0.06288200000000001,0.9942709999999999,-0.08641599999999999,0.41003500000000004,-0.202353,-0.477703,-0.109786,-0.462929,-0.107981
282,-0.685311,-1.45421,2.60379,-0.073611,0.9932120000000001,-0.090046,0.138149,-0.220356,-0.535127,0.016512,-0.456667,-0.233014
283,-0.742332,-1.44681,2.550998,-0.08359,0.992324,-0.091119,-0.038167,-0.213626,-0.46693199999999996,0.320422,-0.025572,-0.154441
284,-0.804194,-1.442065,2.492196,-0.092454,0.991726,-0.089043,-0.049083999999999996,-0.189407,-0.386923,0.33250599999999997,-0.14164300000000002,0.0041270000000000005
285,-0.8335549999999999,-1.433391,2.473169,-0.101395,0.990575,-0.092071,0.42263199999999995,-0.718011,-0.472681,0.080124,-0.18925899999999998,-0.076584
286,-0.843146,-1.408183,2.4857099999999996,-0.120886,0.986808,-0.107673,1.214836,-1.4798200000000001,-1.124196,-0.33605300000000005,0.040001999999999996,-0.374429
287,-0.866461,-1.375629,2.498059,-0.147775,0.981015,-0.125568,0.965169,-1.6263370000000001,-1.030681,0.125802,-0.011914,-0.10953900000000001
288,-0.8715360000000001,-1.350012,2.506242,-0.167594,0.975726,-0.140951,0.9105629999999999,0.087498,-0.934982,0.159523,0.34473899999999996,0.064626
289,-0.851325,-1.318225,2.520155,-0.187954,0.9682729999999999,-0.164673,1.367585,0.19755799999999998,-1.14878,-0.098026,0.562183,0.151016
290,-0.823074,-1.282502,2.556182,-0.20846900000000002,0.95873,-0.193324,1.606542,-0.725823,-0.876735,-0.092419,0.948908,0.040706
291,-0.8012600000000001,-1.248604,2.6078189999999997,-0.22742300000000001,0.948544,-0.22032,1.8198849999999998,-1.619416,-0.572862,-0.034617,0.972935,0.024413
292,-0.777411,-1.2140520000000001,2.670419,-0.244957,0.937039,-0.248901,2.0406560000000002,-1.8302189999999998,-0.52832,-0.09056900000000001,0.6085699999999999,0.096161
293,-0.7649,-1.173435,2.723411,-0.267972,0.922085,-0.27919,2.145627,-1.774087,-0.8032600000000001,0.157407,0.43620600000000004,0.050308
294,-0.7542439999999999,-1.134556,2.764774,-0.28932399999999997,0.9063469999999999,-0.307937,1.855752,-1.055776,-0.631017,0.11703699999999999,0.42582200000000003,-0.050584
295,-0.733492,-1.106791,2.8053310000000002,-0.299608,0.894267,-0.332445,1.460078,-0.733743,-0.102219,-0.20678600000000003,0.5391279999999999,-0.113875
296,-0.723903,-1.089683,2.83878,-0.30649499999999996,0.8864799999999999,-0.346715,0.985663,-1.24286,0.021169999999999998,-0.16195,0.438151,0.121495
297,-0.732938,-1.076834,2.8666259999999997,-0.31721,0.880461,-0.35236799999999996,0.91622,-1.871552,0.126176,-0.07387300000000001,0.159456,0.213071
298,-0.738851,-1.067494,2.899407,-0.324813,0.875994,-0.356551,0.817284,-1.6025200000000002,0.332375,0.068053,-0.178698,0.281859
299,-0.7377199999999999,-1.063283,2.92884,-0.326887,0.873956,-0.359644,0.47815100000000005,-1.0189469999999998,0.409375,0.144072,-0.40576999999999996,0.285593
300,-0.736991,-1.067252,2.946662,-0.324291,0.875878,-0.357311,-0.055985,-0.611564,0.49378500000000003,0.004482,-0.391472,0.34685900000000003
301,-0.739535,-1.0800040000000002,2.954885,-0.31764499999999996,0.8819600000000001,-0.34820500000000004,-0.486734,-0.42839099999999997,0.614455,-0.036511,-0.44446,0.390777
302,-0.743533,-1.0988850000000001,2.9569970000000003,-0.307707,0.8907010000000001,-0.334613,-0.7625,-0.194576,0.723324,-0.050081,-0.477401,0.33008200000000004
303,-0.746923,-1.12572,2.9548669999999997,-0.292491,0.9025780000000001,-0.315911,-1.1959959999999998,-0.018308,0.9743069999999999,-0.067204,-0.507909,0.227868
304,-0.754301,-1.163724,2.945144,-0.271117,0.918284,-0.288527,-1.698088,0.102746,1.239837,0.161742,-0.579753,0.10536
305,-0.762437,-1.207735,2.929695,-0.24528699999999998,0.9348139999999999,-0.256818,-1.820238,0.545983,1.324941,0.195268,-0.570297,0.102612
306,-0.756899,-1.253853,2.910866,-0.214008,0.950192,-0.22656700000000002,-1.929107,1.5633860000000002,1.402994,0.042545,-0.347928,0.051992
307,-0.740976,-1.30105,2.883297,-0.179878,0.9638389999999999,-0.196613,-2.057045,2.311481,1.18002,-0.208779,-0.032396,0.050464999999999996
308,-0.7546689999999999,-1.3453709999999999,2.819946,-0.153118,0.974699,-0.16283,-2.1295490000000004,2.4218990000000002,0.803358,-0.205387,-0.075956,0.010471
309,-0.789417,-1.3791719999999998,2.738281,-0.135207,0.9816959999999999,-0.134124,-1.538474,2.051695,0.42981,-0.181795,-0.127646,-0.058213
310,-0.816427,-1.395131,2.6800650000000004,-0.127345,0.98461,-0.11967799999999999,-0.561448,1.20056,0.110849,-0.154866,-0.158301,-0.25146199999999996
311,-0.8046439999999999,-1.3970129999999998,2.675025,-0.12459100000000001,0.9849379999999999,-0.11988499999999999,0.112945,0.655303,0.016918,-0.155682,-0.024412,-0.48393500000000006
312,-0.775508,-1.393788,2.695074,-0.123269,0.984375,-0.12573199999999998,0.28823899999999997,0.47047799999999995,-0.001917,-0.0866,-0.052413999999999995,-0.427231
313,-0.723946,-1.387281,2.728183,-0.12086500000000001,0.983208,-0.136714,0.5340600000000001,1.256952,-0.02364,-0.062225,-0.20586500000000002,0.139201
314,-0.672076,-1.378367,2.757503,-0.11906800000000001,0.981543,-0.14965,0.46732299999999993,0.8069,-0.10578299999999999,-0.017972,-0.25705500000000003,0.17566700000000002
315,-0.662934,-1.3704370000000001,2.770204,-0.122482,0.9799950000000001,-0.156863,0.27252,-0.583415,-0.170523,0.212142,-0.040145,0.139896
316,-0.69795,-1.372858,2.743864,-0.126373,0.980474,-0.150661,-0.449032,-0.306517,-0.05948200000000001,0.5550229999999999,0.539439,0.077785
317,-0.716171,-1.378565,2.727314,-0.125421,0.9815799999999999,-0.14411,-0.12356700000000001,-0.07523099999999999,0.160412,0.293146,0.577105,0.071585
318,-0.682733,-1.382113,2.757643,-0.118335,0.982252,-0.145519,0.039962,0.5004810000000001,0.43535,-0.11832899999999999,0.64966,0.08337
319,-0.62479,-1.391265,2.796846,-0.104446,0.983928,-0.14482899999999999,-0.248376,0.832158,0.591008,-0.316849,0.5503279999999999,-0.432457
320,-0.570476,-1.401078,2.849687,-0.091211,0.985632,-0.142153,-0.076809,0.22799699999999998,0.745736,0.194376,0.07792,0.05595599999999999
321,-0.47760699999999995,-1.4148530000000001,2.9228,-0.071387,0.987866,-0.137926,-0.462034,1.3418219999999998,0.92642,0.26401399999999997,0.146534,-0.014265
322,-0.356495,-1.435989,3.024858,-0.046902,0.990927,-0.125943,-0.793014,0.622768,1.2113129999999999,0.243283,0.74653,-0.134082
323,-0.213308,-1.460598,-3.1146700000000003,-0.023278999999999998,0.993934,-0.107475,-0.988717,-0.317748,1.084033,0.11944,1.14077,-0.218315
324,-0.095444,-1.480449,-2.97588,-0.008598,0.995921,-0.089806,-0.7126399999999999,-1.40719,0.76155,-0.141991,-0.068828,-0.069038
325,-0.014333000000000002,-1.488919,-2.874757,-0.001172,0.99665,-0.081773,-0.247824,-0.47088900000000006,0.111981,-0.21132199999999998,-0.418754,0.071916
326,-0.085377,-1.490329,-2.9494990000000003,-0.006854000000000001,0.996764,-0.080084,-0.018650999999999997,0.42720699999999995,-0.36933699999999997,-0.109601,-0.300109,-0.035470999999999996
327,-0.141584,-1.493156,-3.014589,-0.010945,0.9969879999999999,-0.076784,-0.328489,0.33250799999999997,-0.128893,0.14438299999999998,-0.023828,0.092454
328,-0.113729,-1.505355,-2.984717,-0.007421,0.997859,-0.06497,-0.740649,-0.421254,0.380872,0.119192,-0.24314499999999997,0.112623
329,0.056396,-1.523179,-2.7957419999999997,0.0026829999999999996,0.998866,-0.047518,-0.87203,-1.17169,0.6148560000000001,0.069537,-0.366924,-0.183149
330,0.340206,-1.5349709999999999,-2.4895240000000003,0.011947,0.999358,-0.033750999999999996,-0.5677449999999999,-0.877807,0.384801,0.010438,-0.290908,-0.345018
331,0.468425,-1.539431,-2.353996,0.014155000000000001,0.999508,-0.027975,-0.128604,-0.192719,-0.024275,-0.235514,-0.197979,-0.45488900000000004
332,0.29025500000000004,-1.5390059999999999,-2.5247080000000004,0.009095,0.999495,-0.03045,0.289563,-0.545411,-0.364869,-0.193421,-0.417158,-0.319022
333,-0.065506,-1.530318,-2.869783,-0.002649,0.999181,-0.040379000000000005,0.570998,-0.432217,-0.677106,-0.12476199999999998,-0.465917,-0.22813000000000003
334,-0.316481,-1.515701,-3.1194509999999998,-0.017138,0.998483,-0.052329999999999995,0.5866859999999999,0.163404,-0.723693,0.07271,-0.421792,-0.080665
335,-0.45062299999999994,-1.500597,3.020346,-0.030548000000000002,0.9975370000000001,-0.063139,0.49736,0.49808199999999997,-0.691631,0.096176,-0.215692,-0.148394
336,-0.5448569999999999,-1.48605,2.922964,-0.043871,0.996411,-0.072388,0.437518,-0.20067000000000002,-0.656971,0.184801,-0.197949,-0.12461900000000001
337,-0.6046189999999999,-1.4731100000000001,2.8706080000000003,-0.055441,0.995233,-0.08023999999999999,0.41625500000000004,-0.265142,-0.500008,0.459662,-0.219293,0.083444
338,-0.6498470000000001,-1.459908,2.82742,-0.066957,0.993858,-0.08810499999999999,0.411621,-0.251769,-0.643199,-0.021636000000000002,0.164131,-0.236571
339,-0.713568,-1.443257,2.784618,-0.08325199999999999,0.991878,-0.096161,0.524309,-1.5930819999999999,-0.707991,-0.136215,0.203602,-0.32453899999999997
340,-0.757134,-1.430104,2.775527,-0.096313,0.9901190000000001,-0.101918,0.446647,-1.48959,-0.414905,0.066635,-0.004584,-0.178798
341,-0.751735,-1.408628,2.7891790000000003,-0.11026,0.98688,-0.11794500000000001,1.190513,0.264087,-0.8509959999999999,-0.097,0.31399299999999997,-0.046819
342,-0.70222,-1.367775,2.820002,-0.130235,0.979462,-0.153925,1.9720669999999998,1.1494149999999999,-1.282506,-0.213759,0.562774,-0.075277
343,-0.654371,-1.32125,2.848216,-0.150318,0.969024,-0.19595,1.940855,0.7866350000000001,-1.109207,-0.336956,0.691941,-0.124225
344,-0.634234,-1.28119,2.869707,-0.169221,0.958356,-0.230039,1.696727,-0.414872,-0.928843,-0.210891,0.441439,0.21522199999999997
345,-0.648705,-1.243886,2.876172,-0.19400499999999998,0.947039,-0.255888,1.480882,-1.603369,-1.0954700000000002,-0.07222999999999999,0.561567,0.310042
346,-0.6966100000000001,-1.207411,2.882325,-0.22805799999999998,0.934699,-0.272631,1.5136040000000002,-3.226369,-0.977794,0.079697,1.065942,0.229845
347,-0.7236020000000001,-1.172083,2.909369,-0.25704499999999997,0.9215610000000001,-0.290952,1.750199,-1.765899,-0.644727,0.022807,1.137521,0.163434
348,-0.697604,-1.137731,2.947954,-0.269579,0.907684,-0.321616,1.840452,-0.101586,-0.5447489999999999,-0.661818,0.023652,-0.056115
349,-0.671758,-1.10296,2.982766,-0.280658,0.892546,-0.352976,1.796468,-0.315862,-0.467869,-0.109357,0.12425399999999999,-0.132696
350,-0.662316,-1.071808,3.000918,-0.294274,0.878067,-0.37736,1.239348,-0.34711,-0.694979,0.318139,0.100815,-0.034154000000000004
351,-0.664449,-1.053194,3.005954,-0.305104,0.869008,-0.389532,0.561279,-0.296371,-0.275696,0.338887,0.049388,0.06665599999999999
352,-0.6711159999999999,-1.051217,3.011596,-0.308762,0.868028,-0.388834,-0.058725,-0.821227,0.179981,0.23056100000000002,-0.12343,0.27234899999999995
353,-0.6914600000000001,-1.059194,3.010509,-0.312183,0.8719610000000001,-0.377127,-0.42831899999999995,-0.8596030000000001,0.240473,-0.102719,-0.317274,0.533667
354,-0.7063229999999999,-1.070451,3.004348,-0.311363,0.877417,-0.36495500000000003,-0.5644319999999999,-0.24674899999999997,0.278262,-0.202599,-0.36444699999999997,0.555964
355,-0.708472,-1.083857,3.000505,-0.304465,0.883769,-0.35531999999999997,-0.582121,0.228933,0.417466,-0.076592,-0.48701000000000005,0.286519
356,-0.705393,-1.103129,2.995605,-0.292272,0.8926219999999999,-0.343224,-1.0151139999999998,0.442784,0.5936279999999999,0.022831999999999998,-0.513838,0.185524
357,-0.7056479999999999,-1.134002,2.981376,-0.274351,0.906112,-0.32201199999999996,-1.579489,0.733345,0.8809379999999999,0.14485,-0.5080720000000001,0.115454
358,-0.709291,-1.175306,2.9571400000000003,-0.250919,0.922808,-0.29234499999999997,-2.059781,1.06046,1.01176,0.152988,-0.498934,0.044114999999999994
359,-0.713778,-1.223737,2.924975,-0.222683,0.940377,-0.25710500000000003,-2.253331,1.413942,1.226804,0.201077,-0.489617,0.022226
360,-0.708045,-1.27665,2.894551,-0.188551,0.95705,-0.220235,-2.3949529999999997,1.91218,1.427071,0.180265,-0.38187,0.026539999999999998
361,-0.710893,-1.332452,2.844173,-0.154053,0.97173,-0.17890699999999998,-2.640023,2.475317,1.205652,-0.201156,-0.09222899999999999,-0.012484
362,-0.755328,-1.383543,2.750963,-0.127618,0.982519,-0.135534,-2.346737,2.073142,0.8268610000000001,-0.283927,-0.005117,-0.287379
363,-0.822917,-1.413575,2.660612,-0.11479,0.9876659999999999,-0.106485,-1.066225,0.452492,0.342227,-0.152376,-0.05619299999999999,-0.303077
364,-0.8128810000000001,-1.417067,2.670138,-0.11120899999999999,0.988207,-0.10525899999999999,0.438097,-0.019457,0.111921,-0.31649499999999997,-0.062365,-0.250531
365,-0.747793,-1.408082,2.735421,-0.110161,0.986791,-0.118775,0.715172,0.048154,0.013356999999999999,-0.337043,-0.12550899999999998,-0.19261099999999998
366,-0.699386,-1.396982,2.780341,-0.11133,0.9849319999999999,-0.13234,0.597008,0.41356499999999996,-0.155647,-0.262389,-0.253533,0.001771
367,-0.678271,-1.3903530000000002,2.781104,-0.112605,0.983764,-0.139743,0.058088,1.248824,-0.24166700000000002,-0.155171,0.286088,0.11461199999999999
368,-0.697281,-1.38514,2.746854,-0.118533,0.982815,-0.141506,-0.043276999999999996,0.5300229999999999,-0.485008,-0.14924400000000002,0.287036,0.116375
369,-0.743202,-1.386778,2.689627,-0.12381400000000001,0.983116,-0.13473,-0.511817,0.325877,-0.176099,0.5051770000000001,0.8367540000000001,-0.009145
370,-0.7660640000000001,-1.390056,2.670798,-0.124627,0.9837110000000001,-0.12954200000000002,-0.028644,-0.628151,0.089145,0.786874,0.210473,0.1524
371,-0.735603,-1.399371,2.703358,-0.11447,0.9853430000000001,-0.126478,-0.34323899999999996,0.600426,0.8149689999999999,0.540999,-0.390952,0.32913000000000003
372,-0.642699,-1.425816,2.780754,-0.086591,0.989509,-0.115648,-0.776574,0.517219,1.485028,-0.043551,0.602197,-0.375593
373,-0.568453,-1.454434,2.8707689999999997,-0.0625,0.993238,-0.097842,-0.753315,-1.133428,1.066427,0.021118,1.531619,0.091311
374,-0.472605,-1.473207,2.972941,-0.044353,0.995242,-0.086754,-0.441507,0.091711,1.044602,-0.03336,0.930844,0.157631
375,-0.31652199999999997,-1.483601,3.126788,-0.027107,0.996201,-0.08276,0.016718,0.19117,0.550952,-0.243432,-0.019393999999999998,-0.169727
376,-0.29639699999999997,-1.477925,3.133157,-0.027086000000000002,0.995691,-0.08869400000000001,0.33613200000000004,1.0957649999999999,-0.301485,-0.021452000000000002,0.41745600000000005,-0.068945
377,-0.304329,-1.4728709999999998,3.097919,-0.029297000000000004,0.995209,-0.093276,0.04275,1.369472,-0.030420999999999997,0.478134,0.265335,0.068862
378,-0.21364699999999998,-1.482374,-3.116874,-0.018723,0.996093,-0.086299,-0.677369,0.8717520000000001,0.652054,0.493424,0.049439,0.170405
379,-0.013872,-1.5054239999999999,-2.925748,-0.000906,0.997864,-0.065314,-1.198359,0.303818,0.872401,-0.031045999999999997,-0.136826,0.027625
380,0.22937800000000003,-1.526571,-2.679265,0.010052,0.999022,-0.043052,-0.9816590000000001,-0.415016,0.362089,-0.079449,-0.07548400000000001,-0.11261800000000001
381,0.432598,-1.538502,-2.46718,0.013536000000000001,0.9994790000000001,-0.029313,-0.54386,-0.36325999999999997,0.093752,-0.045228,-0.126127,-0.16409200000000002
382,0.573732,-1.54706,-2.316507,0.012879,0.999718,-0.019929,-0.46509399999999995,-0.567411,-0.06994199999999999,-0.026001999999999997,-0.288369,-0.135466
383,0.743071,-1.555699,-2.134461,0.010204000000000001,0.999886,-0.011106,-0.423462,-0.648171,-0.156074,0.052601,-0.32232,-0.231463
384,0.752354,-1.56287,-2.115425,0.005397,0.999969,-0.005765999999999999,-0.151341,-0.292779,-0.289224,0.04038,-0.28102,-0.27237100000000003
385,-0.265984,-1.562912,-3.133117,-0.0020670000000000003,0.999969,-0.007585,0.231533,0.014301,-0.42474399999999995,-0.099603,-0.500259,-0.309645
386,-0.6860689999999999,-1.549882,2.731176,-0.013247,0.9997809999999999,-0.016179,0.5233760000000001,-0.086988,-0.6554479999999999,-0.19378399999999998,-0.624552,-0.130137
387,-0.8564379999999999,-1.529749,2.5598330000000002,-0.030999000000000002,0.999158,-0.02688,0.521725,0.11376099999999999,-1.039208,-0.184883,-0.563321,-0.156851
388,-0.953818,-1.5054889999999999,2.463131,-0.053227,0.997868,-0.037757,0.591781,-0.236825,-1.072453,0.160526,-0.15501800000000002,-0.282556
389,-0.958123,-1.4836850000000001,2.464466,-0.071175,0.996208,-0.050029000000000004,0.5575100000000001,-0.197456,-0.765095,0.36185500000000004,-0.149544,-0.15395
390,-0.9936229999999999,-1.470007,2.4403040000000003,-0.08431799999999999,0.994925,-0.054903,0.193433,-1.028883,-0.58818,0.262633,-0.2405,-0.228544
391,-1.047672,-1.4584979999999999,2.413792,-0.09707400000000001,0.9937010000000001,-0.055984000000000006,0.19933900000000002,-1.330562,-0.541818,0.290815,-0.24959099999999998,-0.191315
392,-1.0903049999999999,-1.4492969999999998,2.389272,-0.107478,0.9926280000000001,-0.056021,0.027319,-0.804148,-0.43473599999999996,-0.03063,0.174547,-0.447733
393,-1.115967,-1.440876,2.387649,-0.11638399999999999,0.9915719999999999,-0.056915,0.298171,-1.449975,-0.335876,-0.110972,0.23929299999999998,-0.498521
394,-1.102061,-1.434058,2.428156,-0.121609,0.9906659999999999,-0.061579999999999996,0.450586,-1.058176,-0.146238,0.094112,-0.017643,-0.316258
395,-1.05755,-1.422044,2.48762,-0.129109,0.988957,-0.07277,0.82899,-0.5488270000000001,-0.510648,-0.13253299999999998,0.033962,0.060639
396,-1.010394,-1.3933959999999999,2.538615,-0.149478,0.9843059999999999,-0.09379900000000001,1.217317,0.050741,-1.3333709999999999,-0.280545,0.092537,0.060138
397,-0.973427,-1.350967,2.577428,-0.180299,0.975935,-0.122654,1.567243,-0.21891999999999998,-1.599773,-0.41184899999999997,0.151079,0.058887
398,-0.947837,-1.308138,2.615513,-0.210875,0.9657030000000001,-0.15149,1.6587759999999998,-0.816451,-1.4349299999999998,0.044127,0.812388,-0.04045
399,-0.919645,-1.26968,2.672742,-0.23590100000000003,0.9550059999999999,-0.17976199999999998,1.800009,-1.781332,-0.8238209999999999,0.314881,1.014873,-0.052385
400,-0.9023389999999999,-1.2415370000000001,2.741537,-0.253752,0.946282,-0.2004,1.656475,-2.674054,-0.16245,0.245207,0.9156559999999999,-0.006601
401,-0.8765270000000001,-1.2185709999999998,2.825908,-0.26513000000000003,0.938607,-0.22073099999999998,1.9144450000000002,-2.556311,0.005843999999999999,0.106805,0.708091,0.086408
402,-0.8415159999999999,-1.1930319999999999,2.9081490000000003,-0.275029,0.929491,-0.245773,1.968236,-1.7405150000000003,0.010515,-0.027217,0.544462,0.129775
403,-0.781775,-1.168685,2.996518,-0.27573000000000003,0.9202370000000001,-0.27773600000000004,2.057159,-0.776258,0.42009799999999997,-0.210323,0.321356,0.065608
404,-0.726201,-1.147556,3.075335,-0.27273000000000003,0.9117629999999999,-0.307094,1.700647,-1.064718,0.405158,-0.09070399999999999,0.410549,0.085537
405,-0.704317,-1.129458,3.139176,-0.27658499999999997,0.9041809999999999,-0.325511,1.505195,-2.2339700000000002,0.46938500000000005,0.251012,-0.021109,0.15986199999999998
406,-0.700353,-1.118778,-3.082433,-0.2815,0.899568,-0.333969,1.0653920000000001,-2.6684069999999998,0.8012229999999999,0.290198,-0.187074,0.09877000000000001
407,-0.705501,-1.1207040000000001,-3.0304849999999997,-0.282092,0.900407,-0.331196,0.46070600000000006,-2.456014,0.9580290000000001,0.12648299999999998,-0.222444,0.240513
408,-0.712133,-1.127238,-2.989467,-0.280432,0.90323,-0.324858,0.29573499999999997,-1.993768,0.8558709999999999,-0.17106,-0.356767,0.382704
409,-0.715399,-1.134102,-2.955387,-0.277418,0.9061549999999999,-0.319253,0.139505,-1.5281870000000002,0.711041,-0.216234,-0.44494300000000003,0.439233
410,-0.720593,-1.1431870000000002,-2.933912,-0.273629,0.90996,-0.311609,-0.16623,-1.049479,0.610016,-0.101325,-0.404177,0.297052
411,-0.727387,-1.15741,-2.924734,-0.26710700000000004,0.915766,-0.300045,-0.548268,-0.5773659999999999,0.62597,0.073961,-0.386316,0.20547100000000001
412,-0.734884,-1.175973,-2.926333,-0.257905,0.9230649999999999,-0.28537199999999996,-0.800057,-0.17140999999999998,0.5563939999999999,0.060136,-0.535384,0.190965
413,-0.752683,-1.197306,-2.943994,-0.249423,0.93106,-0.266301,-1.154051,0.002841,0.443673,0.031787,-0.594008,0.191563
414,-0.7868649999999999,-1.2227649999999999,-2.983533,-0.24151,0.9400459999999999,-0.24080300000000002,-1.539951,0.21443099999999998,0.34563499999999997,-0.0014550000000000001,-0.614118,0.18298699999999998
415,-0.8445219999999999,-1.250966,-3.051544,-0.235066,0.9492889999999999,-0.20879299999999998,-1.916077,0.425079,0.208142,-0.082149,-0.469354,0.15801099999999998
416,-0.928682,-1.279082,3.128351,-0.230314,0.957752,-0.172237,-2.1692720000000003,0.925059,0.07006799999999999,-0.151247,-0.28726599999999997,0.059841
417,-1.024117,-1.305093,3.0040400000000003,-0.224318,0.964908,-0.136508,-2.063444,1.3205200000000001,0.183532,-0.17679,-0.217502,-0.082746
418,-1.1009520000000002,-1.329619,2.899044,-0.212964,0.971058,-0.10813699999999998,-1.5211059999999998,1.110266,0.6106060000000001,0.011365,0.01347,-0.47426
419,-1.140395,-1.3516569999999999,2.847012,-0.19756400000000002,0.9760850000000001,-0.09070299999999999,-0.643494,0.153422,0.7055560000000001,0.238839,0.407323,-0.711055
420,-1.122943,-1.355094,2.8712470000000003,-0.192925,0.976826,-0.092683,0.69875,-0.31385799999999997,-0.018338,0.160683,0.576793,-0.6277149999999999
421,-1.035374,-1.337575,2.95797,-0.198769,0.9729270000000001,-0.117914,1.41108,0.384133,-0.427659,-0.48749499999999996,0.19179200000000002,-0.40460799999999997
422,-0.96291,-1.318316,3.02812,-0.20505500000000002,0.9682959999999999,-0.142673,1.074252,-0.13717000000000001,-0.306498,-0.25193000000000004,-0.45378500000000005,-0.671612
423,-0.939608,-1.3014700000000001,3.0735080000000004,-0.214815,0.96395,-0.15701600000000002,0.9180520000000001,-1.487127,-0.374225,-0.24216999999999997,-0.44943900000000003,-0.657269
424,-0.9523520000000001,-1.27987,3.098775,-0.233711,0.9579790000000001,-0.1663,0.9577760000000001,-2.043009,-0.9885309999999999,-0.242058,0.8640120000000001,-0.166234
425,-0.985202,-1.232118,3.122818,-0.276884,0.9431950000000001,-0.18362699999999998,2.290754,-3.3033690000000004,-2.107784,0.22624,0.36988499999999996,1.056674
426,-0.973743,-1.184569,-3.111238,-0.311526,0.9263370000000001,-0.211781,1.302471,0.229794,-0.631182,0.260882,0.386743,1.0848280000000001
427,-0.904194,-1.195142,-3.114554,-0.28834099999999996,0.930268,-0.22684899999999997,-1.207809,4.694468,0.718228,0.790157,0.357162,-0.6773560000000001
428,-0.884526,-1.223193,-3.1337610000000002,-0.26352800000000004,0.940192,-0.215852,-0.708646,-0.145292,1.137046,0.42749899999999996,0.9809200000000001,0.5570229999999999
429,-0.8376469999999999,-1.2652139999999998,-3.090853,-0.22355100000000003,0.953672,-0.20133099999999998,-1.317137,0.870816,2.237103,0.387522,0.96744,0.542502
430,-0.8832209999999999,-1.305663,-3.125586,-0.202498,0.965058,-0.16630599999999998,-1.239348,-2.0329599999999997,0.532212,0.052291,1.421692,-0.060425
431,-0.94037,-1.317869,3.133032,-0.20213599999999998,0.968184,-0.147513,-0.695185,-0.7061310000000001,0.187141,0.158405,-0.036147000000000006,0.308142
432,-0.97116,-1.3367129999999998,3.081147,-0.191484,0.972727,-0.130899,-1.165453,1.670422,0.61344,0.0068980000000000005,-0.01771,-0.009451000000000001
433,-0.98174,-1.365381,3.038199,-0.169596,0.9789760000000001,-0.113322,-1.2692809999999999,1.340835,1.073541,-0.027533,0.214658,0.26018800000000003
434,-1.032339,-1.3999540000000001,2.961955,-0.145955,0.985442,-0.087184,-1.628499,1.171658,1.068044,0.068547,-0.086501,0.313594
435,-1.178868,-1.43441,2.802439,-0.125654,0.990714,-0.051934,-2.022969,0.10422200000000001,0.885059,0.0032630000000000003,-0.20983000000000002,0.30111
436,-1.500414,-1.45686,2.48768,-0.113408,0.993516,-0.007995,-2.193743,-0.7809689999999999,0.487622,0.0031940000000000002,-0.390519,0.122222
437,-1.8749310000000001,-1.4597209999999998,2.134988,-0.10575899999999999,0.9938379999999999,0.033195,-1.674463,-1.491568,0.319108,0.213623,-0.324801,-0.395957
438,-2.102909,-1.456395,1.94796,-0.09836900000000001,0.9934629999999999,0.057914999999999994,-0.6981850000000001,-2.289257,0.22119499999999997,0.21451900000000002,-0.248102,-0.352105
439,-2.224418,-1.452144,1.8578709999999998,-0.093976,0.9929690000000001,0.07198,-0.5829270000000001,-1.0043440000000001,0.074007,0.107175,-0.26268400000000003,-0.20531100000000002
440,-2.331436,-1.44296,1.7557509999999998,-0.09235299999999999,0.9918399999999999,0.087889,-0.880501,-0.047704,0.060021000000000005,0.07743,-0.18674100000000002,-0.094649
441,-2.4422080000000004,-1.428613,1.6489369999999999,-0.091222,0.989909,0.108438,-1.072143,-0.482538,0.010101,0.072362,-0.12057000000000001,-0.12194200000000001
442,-2.541184,-1.411449,1.567343,-0.089648,0.987331,0.130923,-1.013863,-1.107809,-0.051716,0.088091,-0.043316,-0.224978
443,-2.616326,-1.394988,1.515318,-0.08770499999999999,0.984585,0.151326,-0.8881889999999999,-1.184833,-0.079581,0.085065,-0.035992,-0.318196
444,-2.673289,-1.378239,1.477508,-0.086379,0.981518,0.170765,-0.939768,-0.823398,-0.111383,0.07926799999999999,0.034031,-0.307789
445,-2.7120919999999997,-1.358914,1.447199,-0.087573,0.9776370000000001,0.1912,-0.9902059999999999,-0.208431,-0.143502,0.078311,0.37034,-0.115166
446,-2.733644,-1.343004,1.426734,-0.08959199999999999,0.974167,0.20729499999999998,-0.683815,-0.118076,-0.094476,0.080574,0.373672,-0.10985199999999999
447,-2.750204,-1.334449,1.419494,-0.089323,0.9722,0.21644699999999997,-0.283302,-0.756419,-0.11436099999999999,0.13985999999999998,0.31246799999999997,-0.298127
448,-2.7570419999999998,-1.330977,1.431978,-0.08910599999999999,0.9713809999999999,0.22018000000000001,-0.036914999999999996,-0.923909,-0.267318,-0.10905899999999999,0.388223,-0.5690569999999999
449,-2.741878,-1.3290520000000001,1.460503,-0.093163,0.970922,0.22052600000000003,0.128211,-0.41998800000000003,-0.421702,-0.146843,0.246363,-0.699392
450,-2.674791,-1.332892,1.528773,-0.106058,0.971834,0.21045300000000003,0.7625970000000001,0.280341,-0.815547,0.11055899999999999,0.106047,-0.5117229999999999
451,-2.548334,-1.34209,1.652418,-0.12675,0.9739610000000001,0.187976,1.3450389999999999,0.221906,-1.0923459999999998,0.34276799999999996,0.186104,-0.147556
452,-2.361486,-1.354005,1.844914,-0.15129,0.976593,0.1529,2.077408,-0.18434,-1.366584,0.38764899999999997,0.267487,0.006462999999999999
453,-2.1091029999999997,-1.3634469999999999,2.10449,-0.176753,0.9785799999999999,0.105544,2.605085,0.111475,-1.208385,0.41532399999999997,0.29635300000000003,0.129487
454,-1.8260619999999999,-1.368853,2.3844950000000003,-0.194074,0.9796790000000001,0.050644999999999996,2.695145,0.553042,-0.624004,0.119931,0.272808,0.217498
455,-1.5645440000000002,-1.3680620000000001,2.6446509999999996,-0.201344,0.9795200000000001,-0.001259,2.53959,0.015216999999999998,-0.258002,-0.009196,0.15901500000000002,0.18656199999999998
456,-1.341344,-1.359505,2.897034,-0.204225,0.9777610000000001,-0.0477,2.6859740000000003,-2.087976,-0.034230000000000003,0.15498499999999998,0.228233,0.258943
457,-1.179871,-1.344857,3.136609,-0.20711999999999997,0.974584,-0.08536200000000001,2.63821,-4.412111,0.19915,0.46946400000000005,0.238108,0.48018299999999997
458,-1.083587,-1.328999,-2.95187,-0.211585,0.970909,-0.1121,2.105867,-4.579883000000001,0.25867199999999996,0.31264400000000003,0.32967399999999997,0.249536
459,-1.03905,-1.3165069999999999,-2.816421,-0.216822,0.967842,-0.127549,1.66995,-4.250236,0.25093200000000004,0.246989,0.298973,0.174836
460,-1.001384,-1.299247,-2.689515,-0.225902,0.963356,-0.144609,1.9831919999999998,-4.300616000000001,0.0577,0.17995799999999998,0.208015,0.181428
461,-0.9693959999999999,-1.274393,-2.563403,-0.24083400000000002,0.956393,-0.165259,2.275718,-4.418165,-0.10354400000000001,0.255833,0.067304,0.22600399999999998
462,-0.934378,-1.2452530000000002,-2.4381909999999998,-0.25721,0.947477,-0.190076,2.432818,-4.075876999999999,-0.056951999999999996,0.311837,-0.0050030000000000005,0.195188
463,-0.905473,-1.217617,-2.326029,-0.27211199999999997,0.9382780000000001,-0.21351799999999999,2.207434,-3.7475940000000003,0.093809,0.31035,-0.029724,0.211687
464,-0.894575,-1.197863,-2.235107,-0.284171,0.931263,-0.228027,1.678489,-3.6902699999999995,0.335733,0.281805,-0.007206000000000001,0.32818600000000003
465,-0.894783,-1.1864569999999999,-2.156713,-0.292486,0.9270459999999999,-0.23459899999999997,1.427129,-3.6347970000000003,0.533663,0.251562,-0.03871,0.344386
466,-0.88718,-1.178536,-2.073155,-0.29637800000000003,0.924047,-0.24144699999999997,1.5115889999999998,-3.370744,0.760378,0.082602,-0.178396,0.267005
467,-0.867935,-1.172668,-1.985011,-0.295809,0.9217879999999999,-0.250606,1.458344,-2.968459,0.9037,0.045686000000000004,-0.130941,0.172573
468,-0.84298,-1.1698309999999998,-1.897991,-0.29141500000000004,0.9206850000000001,-0.259648,1.298928,-2.671334,1.063508,0.0028710000000000003,-0.117584,0.180837
469,-0.8226530000000001,-1.170774,-1.818328,-0.28544,0.9210520000000001,-0.264927,0.9970969999999999,-2.6479169999999996,1.0635059999999998,0.030573000000000003,-0.172777,0.218281
470,-0.814974,-1.173146,-1.7543490000000002,-0.28180700000000003,0.9219729999999999,-0.265612,0.7234189999999999,-2.476858,0.8808450000000001,0.005989,-0.211509,0.213748
471,-0.815155,-1.177732,-1.705141,-0.278775,0.92374,-0.26265900000000003,0.412842,-2.130211,0.775683,0.015316,-0.25705300000000003,0.216119
472,-0.82184,-1.18559,-1.6715650000000002,-0.2752,0.9267209999999999,-0.255839,0.054278999999999994,-1.730325,0.718186,-0.017769,-0.28768299999999997,0.182887
473,-0.831247,-1.1999879999999998,-1.6509619999999998,-0.267708,0.9320350000000001,-0.244221,-0.34734499999999996,-1.240449,0.837599,-0.013557,-0.25355300000000003,0.092685
474,-0.837844,-1.220433,-1.636994,-0.255096,0.939248,-0.22965,-0.579919,-0.867331,0.97116,-0.058426,-0.16350599999999998,-0.023798
475,-0.845298,-1.244541,-1.627125,-0.239786,0.947249,-0.212653,-0.732548,-0.844576,1.0074530000000002,-0.137457,-0.067534,-0.17815599999999998
476,-0.8602540000000001,-1.2682879999999999,-1.624196,-0.22582199999999997,0.954592,-0.194313,-0.727959,-0.937674,0.84203,-0.08945499999999999,0.075132,-0.409065
477,-0.876492,-1.280518,-1.6176469999999998,-0.219958,0.9581639999999999,-0.183136,0.109602,-1.265311,0.266119,-0.058316999999999994,0.530788,-0.658233
478,-0.856555,-1.263011,-1.563971,-0.228904,0.9530069999999999,-0.198444,1.716877,-1.7680209999999998,-0.352261,-0.267266,0.498058,-0.753033
479,-0.833625,-1.2329459999999999,-1.4984680000000001,-0.245403,0.943469,-0.22280500000000003,1.575991,-2.053944,-0.389198,0.004802000000000001,-0.389133,-0.401828
480,-0.846593,-1.2174209999999999,-1.455629,-0.259212,0.93821,-0.229282,0.809228,-3.14624,0.105705,0.09608,-0.512566,-0.28297100000000003
481,-0.872236,-1.2160959999999998,-1.410539,-0.265957,0.937751,-0.223359,0.574814,-3.227589,0.6713979999999999,0.31296999999999997,-0.399405,-0.081176
482,-0.868986,-1.221968,-1.3569639999999998,-0.261021,0.939774,-0.220664,0.572763,-1.880579,0.813868,-0.196987,0.9327690000000001,-0.09691799999999999
483,-0.8426889999999999,-1.214276,-1.291643,-0.260517,0.937117,-0.232254,1.56996,-1.933482,0.126556,-0.388928,1.7974569999999999,-0.185745
484,-0.832623,-1.1788450000000001,-1.226435,-0.282559,0.924165,-0.25705700000000004,1.944332,-2.8420330000000003,-0.76163,0.088284,0.932112,0.6827310000000001
485,-0.867574,-1.169613,-1.216734,-0.29786399999999996,0.9206,-0.252533,-0.607047,-1.389875,0.070061,0.6310859999999999,-1.27024,1.017593
486,-0.895496,-1.19652,-1.262082,-0.285356,0.930773,-0.22854699999999997,-1.77162,2.043614,0.786054,0.512011,-0.746767,0.705201
487,-0.901717,-1.228891,-1.310383,-0.262993,0.942118,-0.207963,-1.428859,0.9354299999999999,0.563405,0.46195200000000003,0.7499899999999999,-0.345519
488,-0.942425,-1.246238,-1.336999,-0.257977,0.947792,-0.187452,-0.73793,-0.801318,0.584344,0.649289,0.692803,0.740873
489,-0.939915,-1.276498,-1.34517,-0.23423200000000002,0.9570059999999999,-0.171098,-1.145691,1.124027,1.371649,0.050211,-0.079,0.21600500000000003
490,-0.935376,-1.310073,-1.364506,-0.20746599999999998,0.9662040000000001,-0.152996,-1.181284,0.966669,1.060749,-0.19701400000000002,-0.153246,-0.17416800000000002
491,-0.9543360000000001,-1.34075,-1.39303,-0.186049,0.973656,-0.131831,-1.199432,0.251933,1.06047,-0.212434,-0.07273099999999999,-0.170049
492,-0.98954,-1.3714540000000002,-1.439288,-0.165502,0.980197,-0.10872899999999999,-1.287268,0.734355,0.907551,0.23947600000000002,0.035184,0.027598
493,-1.033578,-1.396099,-1.505036,-0.149325,0.9847790000000001,-0.088946,-1.0612489999999999,1.121426,0.6180770000000001,0.285097,-0.065971,0.089114
494,-1.065572,-1.413625,-1.558461,-0.136968,0.9876739999999999,-0.075758,-0.703436,0.876624,0.521546,0.179128,-0.165256,0.035337
495,-1.113151,-1.428088,-1.6139809999999999,-0.12758699999999998,0.989834,-0.06283899999999999,-0.733233,0.058026999999999995,0.397405,0.063653,-0.170285,0.009418000000000001
496,-1.210772,-1.441136,-1.7048729999999999,-0.121004,0.991606,-0.04555,-0.8831680000000001,-0.6038100000000001,0.33631700000000003,0.0226,-0.13667100000000001,0.012819999999999998
497,-1.352652,-1.4538149999999999,-1.831048,-0.113945,0.993166,-0.025258000000000003,-0.941577,-0.9405469999999999,0.414321,0.049582999999999995,-0.122011,-0.022471
498,-1.525923,-1.4649860000000001,-1.986833,-0.105503,0.9944069999999999,-0.004737,-0.9008010000000001,-0.8471120000000001,0.456146,0.12031900000000001,-0.125572,-0.043236000000000004
499,-1.7022130000000002,-1.473673,-2.150517,-0.096131,0.995287,0.012706,-0.745821,-0.536634,0.467513,0.086503,-0.17,0.00655
500,-1.8773360000000001,-1.480373,-2.321262,-0.086088,0.995915,0.027248,-0.722772,-0.11503,0.508795,0.09461699999999999,-0.097447,0.033756
501,-2.088495,-1.482679,-2.532404,-0.07647000000000001,0.9961200000000001,0.04355,-0.868477,-0.052576,0.46817299999999995,0.066582,0.018818,-7.8e-05
502,-2.3163869999999998,-1.478985,-2.75735,-0.067357,0.9957879999999999,0.062197,-0.9504790000000001,-0.28016599999999997,0.444391,0.058461,0.011032,-0.06737
503,-2.531551,-1.469126,-2.965284,-0.058145,0.994836,0.08318500000000001,-1.074916,-0.45328199999999996,0.421311,0.056679999999999994,-0.034982,-0.09759
504,-2.707877,-1.453331,-3.134407,-0.049249,0.993109,0.106341,-1.188528,-0.369643,0.383022,0.060861,-0.009618999999999999,-0.161365
505,-2.836919,-1.4343920000000001,3.023752,-0.040791,0.990711,0.129716,-1.127104,-0.195306,0.421684,0.020588,0.046932,-0.29625
506,-2.9275330000000004,-1.415777,2.9386810000000003,-0.032798,0.988008,0.150871,-0.979294,-0.42224799999999996,0.30336599999999997,0.073951,0.068953,-0.35385900000000003
507,-2.984259,-1.4009280000000002,2.890463,-0.026488,0.985607,0.166962,-0.7088409999999999,-0.38451799999999997,0.22402199999999997,0.129057,0.084034,-0.28775
508,-3.0142860000000002,-1.390168,2.860802,-0.022808000000000002,0.9837309999999999,0.17819100000000002,-0.475657,0.138067,0.138455,0.136166,0.145267,-0.171676
509,-3.0067619999999997,-1.4059409999999999,2.867269,-0.022059,0.986442,0.162613,0.000732,-0.105952,0.009636,0.063243,0.300225,-0.24229499999999998
510,-3.010544,-1.408327,2.865909,-0.021136000000000002,0.9868309999999999,0.16036199999999998,0.133205,-0.026677,0.049984,0.001666,0.35872,-0.294609
511,-3.005029,-1.410181,2.864184,-0.021772,0.987129,0.158432,0.09158999999999999,0.600187,-0.034431,-0.021440999999999998,0.10529300000000001,-0.342301
512,-2.9630259999999997,-1.416595,2.89122,-0.027280000000000002,0.988135,0.151144,0.527155,0.6943010000000001,-0.23767600000000003,-0.008639,0.033747000000000006,-0.327016
513,-2.882733,-1.4304459999999999,2.9665060000000003,-0.035808,0.990167,0.135226,0.9660479999999999,0.067361,-0.47843,0.027857999999999997,0.014365000000000001,-0.298709
514,-2.716713,-1.451509,3.137731,-0.049053,0.992894,0.108419,1.629449,-0.335122,-0.8343389999999999,0.066463,-0.013951,-0.11520899999999999
515,-2.3187740000000003,-1.473509,-2.733506,-0.0712,0.9952709999999999,0.066062,2.510484,-0.662098,-1.349053,0.074222,0.21867199999999998,0.11592999999999999
516,-1.6352790000000001,-1.47058,-2.0418830000000003,-0.09983500000000001,0.9949819999999999,0.006447,3.2509,0.176266,-1.456051,0.19005999999999998,0.368421,0.27079000000000003
517,-1.098714,-1.434344,-1.52067,-0.121148,0.990705,-0.061857,3.3279959999999997,1.3707209999999999,-0.794745,0.147241,0.782153,0.47379799999999994
518,-0.786776,-1.3903159999999999,-1.232817,-0.127101,0.983758,-0.126751,2.990716,0.927639,-0.254945,-0.104375,0.502189,0.266354
519,-0.626134,-1.345343,-1.051411,-0.131002,0.974693,-0.18114,2.798701,-1.8893419999999999,0.009038,0.012655,0.42357700000000004,0.37646799999999997
520,-0.5643279999999999,-1.303201,-0.931483,-0.14142000000000002,0.964409,-0.223415,2.4047009999999998,-3.0983169999999998,0.055904999999999996,0.298311,0.27922800000000003,0.424266
521,-0.562496,-1.267036,-0.854015,-0.15951500000000002,0.954219,-0.25302399999999997,1.9794720000000001,-3.856843,-0.095644,0.063934,0.238515,0.34518699999999997
522,-0.583329,-1.2295,-0.7967380000000001,-0.184359,0.9423219999999999,-0.279358,2.1791240000000003,-3.6252660000000003,-0.371216,0.088778,0.25041199999999997,0.371521
523,-0.60646,-1.182982,-0.744552,-0.21554,0.925738,-0.310727,2.645762,-3.525836,-0.598819,0.018183,-0.144823,0.359647
524,-0.613761,-1.128607,-0.684584,-0.24645799999999998,0.903817,-0.34981799999999996,2.99211,-2.859282,-0.5555939999999999,0.09034500000000001,-0.157769,0.240657
525,-0.6194890000000001,-1.078971,-0.634984,-0.274188,0.881473,-0.384482,2.3835450000000002,-2.177784,-0.49128299999999997,0.10989700000000001,-0.172748,0.129599
526,-0.629808,-1.045901,-0.6046090000000001,-0.295155,0.865376,-0.404977,1.392082,-1.8044490000000002,-0.287179,0.12068599999999999,-0.092641,0.259759
527,-0.651346,-1.028225,-0.58832,-0.31303400000000003,0.856384,-0.410628,0.777243,-1.720894,-0.136689,0.088989,-0.21148699999999998,0.407103
528,-0.669771,-1.019454,-0.574592,-0.32519699999999996,0.851822,-0.41066400000000003,0.43852700000000006,-1.3351389999999999,0.12537,-0.005903,-0.348557,0.41988100000000006
529,-0.676685,-1.019576,-0.560301,-0.327964,0.851886,-0.408325,0.111525,-0.709767,0.394681,-0.009317,-0.301059,0.30375599999999997
530,-0.667748,-1.026016,-0.5432319999999999,-0.320898,0.855241,-0.406923,0.004527000000000001,-0.07753099999999999,0.6217229999999999,0.046865,-0.18751600000000002,0.031876999999999996
531,-0.6480020000000001,-1.034497,-0.521623,-0.308411,0.859605,-0.407382,-0.006959,0.086126,0.730392,0.041504,-0.22302399999999997,-0.041165
532,-0.631103,-1.04589,-0.501505,-0.295685,0.8653709999999999,-0.404602,-0.273509,-0.079263,0.762925,0.079636,-0.263778,0.037613
533,-0.620218,-1.062892,-0.487054,-0.282671,0.8737659999999999,-0.39576500000000003,-0.57857,-0.052677999999999996,0.77251,0.066347,-0.27502600000000005,0.208952
534,-0.608719,-1.0806879999999999,-0.47930500000000004,-0.26916599999999996,0.882282,-0.386171,-0.613827,0.454233,0.577198,0.036134,-0.31351,0.22866999999999998
535,-0.592112,-1.095942,-0.47872700000000007,-0.255175,0.889359,-0.379375,-0.64042,0.9941190000000001,0.386177,0.0064719999999999995,-0.335252,0.238644
536,-0.573601,-1.112427,-0.484285,-0.24011999999999997,0.896775,-0.371667,-0.84616,1.2176870000000002,0.333179,0.002876,-0.30758800000000003,0.174371
537,-0.561739,-1.133247,-0.496542,-0.225698,0.9057930000000001,-0.358607,-1.125229,1.1014,0.351675,0.0156,-0.30291799999999997,0.142192
538,-0.554928,-1.159178,-0.51242,-0.21080100000000002,0.916475,-0.340054,-1.345621,1.051752,0.43779300000000004,0.065416,-0.202211,0.098751
539,-0.5505140000000001,-1.188008,-0.52785,-0.195391,0.9276270000000001,-0.318325,-1.378123,0.8255379999999999,0.559633,0.134127,0.06439299999999999,-0.07217799999999999
540,-0.545579,-1.216198,-0.536907,-0.180173,0.937786,-0.29680700000000004,-1.211867,0.589367,0.60169,0.12897999999999998,0.18271300000000001,-0.12413699999999998
541,-0.535028,-1.237054,-0.5361670000000001,-0.167022,0.944823,-0.281802,-0.652158,0.408812,0.5139630000000001,0.129378,0.057222,-0.084988
542,-0.516061,-1.248176,-0.51995,-0.156452,0.948408,-0.27576300000000004,-0.243069,0.035616,0.513026,0.125431,0.022417,-0.071711
543,-0.494173,-1.2596690000000001,-0.495883,-0.145199,0.951989,-0.26950599999999997,-0.451191,-0.046380000000000005,0.6857979999999999,0.087674,0.036307,-0.180796
544,-0.468562,-1.279945,-0.471551,-0.129505,0.958,-0.25586,-0.85267,0.24744899999999997,0.814008,-0.058192999999999995,0.097099,-0.08197
545,-0.440489,-1.299933,-0.45119499999999996,-0.11408399999999999,0.96354,-0.24202100000000001,-0.671299,0.495937,0.587425,-0.1715,0.010901000000000001,0.019258
546,-0.420508,-1.312043,-0.43998699999999996,-0.10445399999999999,0.9667100000000001,-0.23358299999999999,-0.38859699999999997,0.412066,0.271177,-0.22167199999999998,-0.14390999999999998,0.204378
547,-0.417195,-1.3196430000000001,-0.437895,-0.1007,0.968626,-0.227204,-0.368475,-0.202239,0.164215,-0.11971400000000001,-0.127104,-0.042144
548,-0.42687600000000003,-1.330228,-0.437217,-0.09864400000000001,0.971203,-0.216873,-0.54478,-0.644087,0.256485,-0.098957,-0.126644,-0.10482799999999999
549,-0.43936499999999995,-1.340465,-0.440537,-0.09711,0.973591,-0.20661500000000002,-0.36216,-0.299951,0.085336,-0.015713,-0.011784000000000001,-0.068882
550,-0.45898500000000003,-1.339309,-0.45803999999999995,-0.101643,0.973326,-0.20567800000000003,0.168374,-0.0015970000000000001,-0.39310900000000004,0.108555,0.518297,0.201604
551,-0.473239,-1.327925,-0.47403199999999995,-0.109608,0.9706520000000001,-0.214058,0.454416,-0.13606400000000002,-0.314027,0.2132,0.670859,0.31557399999999997
552,-0.47661000000000003,-1.322908,-0.457981,-0.112561,0.969433,-0.218011,0.22850700000000002,-1.399943,0.262855,0.625943,0.016285,0.29429
553,-0.45083599999999996,-1.324293,-0.409344,-0.10632,0.969772,-0.219631,0.324658,-0.5791609999999999,0.581873,0.14718299999999998,0.197129,0.073666
554,-0.401546,-1.317495,-0.358552,-0.097945,0.96809,-0.23066599999999998,0.499222,0.324362,0.388586,-0.112062,-0.09878200000000001,0.327513
555,-0.35683400000000004,-1.3255649999999999,-0.329597,-0.08480499999999999,0.970081,-0.227485,-0.730837,0.9682569999999999,0.538334,-0.058460000000000005,-0.116764,0.30471
556,-0.325303,-1.352524,-0.311929,-0.06920599999999999,0.976273,-0.20518499999999998,-1.358684,0.5574640000000001,0.715005,-0.071633,1.9588619999999999,-0.277923
557,-0.328257,-1.378025,-0.306519,-0.061763,0.981477,-0.181349,-0.8693040000000001,-1.5170700000000001,0.135696,-0.13122999999999999,1.550612,-0.795626
558,-0.36475799999999997,-1.379876,-0.279893,-0.067692,0.98183,-0.177277,0.232287,-2.8193599999999996,0.376863,0.030202,-0.039096,-0.37348899999999996
559,-0.38090599999999997,-1.381586,-0.289437,-0.069922,0.982153,-0.174603,-0.242436,0.551283,-0.303752,0.096945,-0.660391,0.005306
560,-0.384277,-1.383599,-0.304005,-0.06976900000000001,0.9825299999999999,-0.172534,-0.154029,0.447085,0.101855,0.179297,-0.042375,0.237246
561,-0.37997600000000004,-1.394108,-0.29935300000000004,-0.065193,0.984431,-0.163233,-0.661804,-0.486354,0.339855,0.007331,0.215871,0.17821700000000001
562,-0.397383,-1.4122780000000001,-0.28457899999999997,-0.061091,0.9874620000000001,-0.145555,-0.8011050000000001,-2.163095,0.459603,0.055201,-0.076909,-0.036254
563,-0.43370299999999995,-1.424942,-0.272138,-0.061076,0.989382,-0.131883,-0.344364,-2.364048,0.23445100000000002,0.13235,-0.278033,-0.23440500000000003
564,-0.476471,-1.424331,-0.277727,-0.066936,0.989293,-0.129688,0.21178400000000003,-1.581115,-0.23589000000000002,-0.037648,-0.32448299999999997,-0.302151
565,-0.532612,-1.41565,-0.314245,-0.07846399999999999,0.9879889999999999,-0.13311900000000002,0.144832,-0.640084,-0.542006,-0.10879200000000001,-0.39488,-0.041594
566,-0.604876,-1.408993,-0.372037,-0.09160900000000001,0.9869379999999999,-0.13251300000000002,0.048327999999999996,-0.981715,-0.539038,-0.005681,-0.28392,-0.11036099999999999
567,-0.656313,-1.400876,-0.402032,-0.10318499999999999,0.985598,-0.13397,0.26609,-1.037426,-0.38148699999999997,0.097036,-0.216494,-0.218554
568,-0.676625,-1.39022,-0.407543,-0.112456,0.98374,-0.14002799999999999,0.423058,-0.535153,-0.38316999999999996,0.048262,-0.325446,-0.10583699999999999
569,-0.690336,-1.378578,-0.420231,-0.12165,0.981583,-0.147293,0.356408,0.184615,-0.502063,0.0848,-0.373947,-0.0043479999999999994
570,-0.707222,-1.369167,-0.44250600000000007,-0.130117,0.979742,-0.15223499999999998,0.081081,0.282061,-0.389811,0.13303099999999998,-0.261846,0.013715
571,-0.734545,-1.3699290000000002,-0.473779,-0.13372699999999998,0.979894,-0.148069,-0.385852,-0.082773,-0.124481,0.20388699999999998,-0.016316999999999998,-0.1532
572,-0.769768,-1.376737,-0.501197,-0.134212,0.9812299999999999,-0.138474,-0.462255,-0.451042,0.128625,0.35551,0.029085000000000003,0.012803
573,-0.798145,-1.383621,-0.522075,-0.133247,0.982534,-0.129892,-0.27574899999999997,-0.409536,-0.022881,0.034156,-0.2114,0.008555
574,-0.8402639999999999,-1.379035,-0.5565329999999999,-0.141952,0.98167,-0.127172,0.078415,-0.49908500000000006,-0.578972,-0.239655,0.034321,-0.262858
575,-0.860972,-1.3650879999999999,-0.563575,-0.154925,0.978917,-0.133116,0.531496,-0.505212,-0.505297,0.315814,0.306224,0.049558
576,-0.826974,-1.3472,-0.5337970000000001,-0.163172,0.9751059999999999,-0.15013800000000002,1.082576,0.582594,-0.49002299999999993,0.176981,0.259223,0.054771
577,-0.763323,-1.3151700000000002,-0.480596,-0.174801,0.967505,-0.182694,1.8363919999999998,0.5857,-0.854366,-0.175861,0.27707800000000005,0.140977
578,-0.713104,-1.269047,-0.44011300000000003,-0.194417,0.9548180000000001,-0.224775,2.220757,0.472045,-1.269211,-0.317821,0.773667,0.05202999999999999
579,-0.674054,-1.220415,-0.40265300000000004,-0.214245,0.939242,-0.26818400000000003,2.16886,-0.05644,-0.9313379999999999,-0.226032,0.78523,0.123607
580,-0.653414,-1.177698,-0.365254,-0.232857,0.9237270000000001,-0.304147,2.161104,-1.08636,-0.70895,-0.088219,0.597178,0.283395
581,-0.662151,-1.136327,-0.329569,-0.258792,0.9070940000000001,-0.331974,1.998046,-2.707148,-0.708012,0.084522,0.7523,0.391926
582,-0.696926,-1.0960239999999999,-0.298304,-0.29341799999999996,0.8893969999999999,-0.35054,2.03864,-3.1675,-0.705002,0.093421,0.8531569999999999,0.239029
583,-0.709134,-1.056539,-0.257725,-0.320306,0.870658,-0.37330599999999997,2.09072,-1.8050119999999998,-0.48419399999999996,-0.117942,0.988244,-0.021972
584,-0.706661,-1.021026,-0.225346,-0.339252,0.8526450000000001,-0.397372,1.7684099999999998,-1.1592280000000001,-0.527866,-0.170163,-0.1053,0.02518
585,-0.706187,-0.990193,-0.20083900000000002,-0.35596,0.836132,-0.417343,1.4549889999999999,-0.835485,-0.497355,-0.062192,-0.228679,0.117477
586,-0.708912,-0.9685549999999999,-0.189556,-0.36879,0.824068,-0.43000600000000005,0.7349359999999999,-0.500913,-0.424833,0.173905,-0.264223,0.242155
587,-0.718745,-0.9600129999999999,-0.190967,-0.37762199999999996,0.819199,-0.431642,0.066524,-0.417376,-0.223442,0.218106,-0.337998,0.427354
588,-0.730932,-0.9619200000000001,-0.197772,-0.38181,0.820291,-0.425843,-0.332813,-0.27197899999999997,-0.007431999999999999,0.014241,-0.418893,0.576234
589,-0.7377560000000001,-0.971138,-0.204681,-0.379605,0.8255290000000001,-0.41761499999999996,-0.5875819999999999,0.066498,0.283047,0.004055,-0.515516,0.486737
590,-0.73851,-0.9918819999999999,-0.21267399999999997,-0.36830999999999997,0.8370569999999999,-0.40457600000000005,-1.137035,0.43338699999999997,0.6504800000000001,0.095926,-0.600058,0.372975
591,-0.735946,-1.022841,-0.228661,-0.34970300000000004,0.853592,-0.38611999999999996,-1.5860889999999999,1.040656,0.7576609999999999,0.183412,-0.569763,0.100338
592,-0.728781,-1.061092,-0.250373,-0.324934,0.8728889999999999,-0.36398,-1.866955,1.4285450000000002,0.9688459999999999,0.358122,-0.527018,0.005628
593,-0.707263,-1.104731,-0.264193,-0.291983,0.893343,-0.341588,-1.851884,1.820122,1.3327129999999998,0.243292,-0.446429,0.015934999999999998
594,-0.670967,-1.155405,-0.265999,-0.25090300000000004,0.9149579999999999,-0.31606599999999996,-2.11147,1.883436,1.707901,0.013247,-0.321056,0.065868
595,-0.639732,-1.212394,-0.269886,-0.209407,0.936458,-0.281413,-2.370283,1.6270129999999998,1.588918,-0.04627,-0.146892,0.060069000000000004
596,-0.62279,-1.26495,-0.283018,-0.17563099999999998,0.953592,-0.24456799999999998,-2.0988919999999998,1.361177,1.2333,0.076999,-0.053187,-0.048874
597,-0.61724,-1.303982,-0.296781,-0.152601,0.964616,-0.215006,-1.422854,0.646676,0.8394219999999999,-0.034426,-0.095063,-0.267644
598,-0.608704,-1.327713,-0.292746,-0.13763,0.9706,-0.197462,-0.707056,0.000304,0.68929,-0.362645,-0.003437,-0.392915
599,-0.589114,-1.341723,-0.274233,-0.126167,0.973877,-0.188796,-0.314283,0.30230999999999997,0.482275,-0.29348,0.029113999999999998,-0.291261
600,-0.5543130000000001,-1.345779,-0.254273,-0.117441,0.9747899999999999,-0.18971,0.143898,1.046602,0.169396,-0.197882,0.010042,-0.08581699999999999
601,-0.526937,-1.336244,-0.24806599999999998,-0.116873,0.972618,-0.200879,0.624602,0.827857,-0.421965,-0.328378,0.276771,-0.009616
602,-0.5404979999999999,-1.314799,-0.258996,-0.13029100000000002,0.967411,-0.21711399999999997,0.875107,-0.729151,-0.745096,-0.205249,0.65498,0.035244
603,-0.567545,-1.302767,-0.277223,-0.14236300000000002,0.9642950000000001,-0.22330999999999998,0.148615,-0.062497000000000004,-0.330146,0.494963,0.490112,0.441053
604,-0.562264,-1.300044,-0.294682,-0.14258099999999999,0.96357,-0.22628,0.004416,1.58589,-0.30656,0.581164,0.177528,0.202492
605,-0.536442,-1.293469,-0.301818,-0.139926,0.961791,-0.23532600000000004,0.363606,1.510168,-0.063604,0.14468599999999998,0.525957,0.019201
606,-0.491624,-1.294633,-0.26974899999999996,-0.12871300000000002,0.962109,-0.24037199999999997,-0.086025,0.213513,0.645285,0.131063,0.608829,-0.059326
607,-0.45316899999999993,-1.309199,-0.22933299999999998,-0.113229,0.9659780000000001,-0.232517,-0.513572,0.075408,0.920213,0.20414100000000002,0.656748,0.130497
608,-0.388902,-1.3281399999999999,-0.171274,-0.09110800000000001,0.9707030000000001,-0.22233699999999998,-0.571994,0.5287810000000001,1.0794569999999999,0.117505,0.42862,0.066118
609,-0.311614,-1.346547,-0.10476400000000001,-0.068178,0.9749610000000001,-0.211662,-0.705378,0.624604,0.9416700000000001,0.050814,0.037612,0.17261500000000002
610,-0.249522,-1.36687,-0.057234,-0.050008,0.9792790000000001,-0.19624,-0.831822,0.923427,0.64878,-0.064631,0.002441,0.29249200000000003
611,-0.21005700000000002,-1.381365,-0.033139,-0.039263,0.9821120000000001,-0.184157,-0.512644,0.5574939999999999,0.24234899999999998,-0.211729,0.059347000000000004,0.12234400000000001
612,-0.209821,-1.387429,-0.034371,-0.037979,0.9832350000000001,-0.17834,-0.189235,-0.15203599999999998,-0.023675,-0.08984400000000001,0.24976700000000002,-0.040744999999999996
613,-0.22111599999999998,-1.3896600000000001,-0.035497,-0.039508999999999996,0.98364,-0.175758,-0.081148,-0.7045710000000001,0.06324600000000001,0.098606,0.04819,-0.114922
614,-0.22474,-1.391993,-0.022906,-0.039633999999999996,0.984057,-0.173376,-0.12140799999999999,-0.780464,0.162407,0.13913599999999998,-0.246234,-0.03889
615,-0.233801,-1.395773,-0.020293000000000002,-0.040341,0.984722,-0.16939,-0.173469,-0.45033500000000004,-0.031728,0.099088,-0.385235,-0.002759
616,-0.26201599999999997,-1.395276,-0.043973000000000005,-0.045231,0.9846360000000001,-0.168658,0.050017,-0.119844,-0.2891,-0.026195,-0.362749,-0.053586
617,-0.30225599999999997,-1.392242,-0.087007,-0.052868,0.984101,-0.16955399999999998,0.012853999999999999,0.21656399999999998,-0.468183,-0.230136,-0.21855300000000003,-0.25648699999999997
618,-0.348775,-1.388423,-0.134428,-0.06197999999999999,0.983416,-0.170443,0.108753,-0.240952,-0.42313,-0.14064100000000002,-0.268938,-0.325254
619,-0.38104299999999997,-1.381378,-0.159002,-0.070021,0.9821139999999999,-0.174781,0.31799,-0.342252,-0.313648,0.172408,-0.48124399999999995,-0.21410500000000002
620,-0.39984699999999995,-1.37232,-0.18052,-0.07675499999999999,0.980368,-0.18162,0.33121999999999996,0.369691,-0.40954,0.11125499999999999,-0.487418,0.070048
621,-0.42451700000000003,-1.362609,-0.210957,-0.08513,0.9784069999999999,-0.18834,0.341017,0.079224,-0.506308,0.043717,-0.405623,0.027908999999999996
622,-0.46373100000000006,-1.353982,-0.244216,-0.09622,0.9765879999999999,-0.19239900000000001,0.135967,-0.6201840000000001,-0.44809099999999996,0.118986,-0.148249,-0.1584
623,-0.503242,-1.349242,-0.263998,-0.105976,0.975557,-0.192502,0.12247000000000001,-1.030086,-0.227607,0.292423,-0.042787,0.032682
624,-0.532176,-1.345887,-0.27814,-0.11316099999999998,0.974814,-0.192174,0.047002999999999996,-0.73154,-0.22958499999999998,0.159608,-0.055259,-0.036357
625,-0.5696359999999999,-1.338444,-0.29577,-0.124188,0.9731270000000001,-0.193906,0.387679,-1.155651,-0.49158100000000005,-0.017734,0.140123,-0.317492
626,-0.603276,-1.320597,-0.310154,-0.140472,0.9688629999999999,-0.20389000000000002,0.781037,-0.716256,-0.69129,0.048888,-0.026663,-0.017438
627,-0.616482,-1.294253,-0.3221,-0.157857,0.9620049999999999,-0.22276999999999997,1.126258,0.252307,-1.046906,0.038625,-0.008712000000000001,0.09127
628,-0.6297050000000001,-1.256194,-0.341285,-0.182229,0.9509200000000001,-0.25008800000000003,1.492443,0.135493,-1.4554639999999999,-0.213385,0.318474,0.079052
629,-0.644134,-1.215862,-0.352948,-0.20869200000000002,0.9376690000000001,-0.27789,1.519873,-0.445981,-1.254769,-0.114229,0.657179,0.085385
630,-0.657497,-1.176875,-0.35042199999999996,-0.23456100000000002,0.9234110000000001,-0.303796,1.579143,-0.8707950000000001,-1.0978510000000001,-0.01849,0.646566,0.123879
631,-0.667559,-1.137294,-0.34027399999999997,-0.26004099999999997,0.9075,-0.32988,1.7849540000000002,-1.0868719999999998,-1.053407,0.20012,0.542985,0.24035700000000002
632,-0.6724859999999999,-1.0952709999999999,-0.321129,-0.285181,0.8890520000000001,-0.358129,1.931012,-1.169062,-0.872821,0.10820999999999999,1.00232,0.079046
633,-0.676661,-1.05637,-0.291173,-0.308109,0.870575,-0.38362399999999997,2.032041,-1.6447060000000002,-0.561721,0.040317,1.233551,0.049349000000000004
634,-0.671902,-1.018461,-0.255542,-0.326598,0.851302,-0.410632,2.028123,-0.9517629999999999,-0.420563,-0.39979699999999996,-0.145216,0.169848
635,-0.65069,-0.983432,-0.219928,-0.33568000000000003,0.832404,-0.440933,1.9111939999999998,-0.228649,-0.267414,-0.296004,-0.100272,0.02449
636,-0.634509,-0.9520200000000001,-0.19506600000000002,-0.343837,0.814589,-0.467142,1.521432,-0.282887,-0.48478000000000004,-0.063924,0.019976,-0.10423900000000001
637,-0.634877,-0.9277850000000001,-0.184884,-0.355615,0.800294,-0.482771,0.9011129999999999,-0.5441600000000001,-0.409729,0.380685,-0.044801,0.139326
638,-0.645269,-0.920056,-0.18035199999999998,-0.364321,0.795636,-0.48397700000000005,0.063567,-0.809393,0.044095999999999996,0.270388,-0.007092,0.26107600000000003
639,-0.671521,-0.9287129999999999,-0.184821,-0.3726,0.80085,-0.468837,-0.658451,-1.282712,0.221257,0.11443699999999998,-0.014702000000000002,0.386806
640,-0.701577,-0.943192,-0.192971,-0.378997,0.809437,-0.448524,-0.673663,-1.033678,0.294539,-0.159196,-0.225254,0.532706
641,-0.718396,-0.9573200000000001,-0.19601,-0.378922,0.817652,-0.433433,-0.587684,-0.52,0.43228199999999994,-0.035736000000000004,-0.28882800000000003,0.267509
642,-0.7260270000000001,-0.9745520000000001,-0.200946,-0.372807,0.827451,-0.41992799999999997,-0.847975,0.026068,0.495993,0.021993000000000002,-0.280331,0.18276099999999998
643,-0.726258,-0.997635,-0.20900900000000003,-0.360123,0.840191,-0.405451,-1.09848,0.484313,0.668845,0.090149,-0.267773,0.127665
644,-0.720312,-1.0265520000000001,-0.217666,-0.341532,0.855519,-0.38915700000000003,-1.32972,0.7251479999999999,0.848519,0.04635,-0.356862,0.102352
645,-0.715091,-1.061739,-0.23006999999999997,-0.31955100000000003,0.8732040000000001,-0.367969,-1.630508,0.835542,0.941348,0.019913999999999998,-0.409536,0.084826
646,-0.7086720000000001,-1.1010950000000002,-0.246042,-0.294577,0.891703,-0.343641,-1.802405,1.160583,1.0572350000000001,0.000891,-0.465983,0.130888
647,-0.696825,-1.145543,-0.26340399999999997,-0.26477,0.910934,-0.316379,-2.02665,1.491048,1.194114,0.0044859999999999995,-0.387893,0.189777
648,-0.689045,-1.1940469999999999,-0.289084,-0.233911,0.9298649999999999,-0.283965,-2.269013,1.6019649999999999,1.105753,0.017144,-0.31132,0.23683
649,-0.690335,-1.241382,-0.32789,-0.205996,0.946232,-0.24941999999999998,-2.178599,1.842039,0.930889,0.08095,-0.16101500000000002,0.196106
650,-0.698721,-1.281498,-0.371277,-0.183503,0.9584440000000001,-0.21842899999999998,-1.8024950000000002,1.475295,0.677612,0.103867,-0.071085,-0.098313
651,-0.713973,-1.31186,-0.410566,-0.167673,0.9666629999999999,-0.19351500000000002,-1.300642,0.93515,0.5215770000000001,-0.01293,0.003171,-0.276532
652,-0.717979,-1.331073,-0.429046,-0.156199,0.971404,-0.178819,-0.575192,0.608042,0.44267399999999996,-0.301748,0.020173,-0.43150200000000005
653,-0.691002,-1.334489,-0.41105699999999995,-0.149203,0.972209,-0.180411,0.354261,0.36201700000000003,0.156788,-0.204236,-0.155772,-0.328592
654,-0.6519729999999999,-1.32199,-0.37446599999999997,-0.149412,0.9692069999999999,-0.195739,0.8946299999999999,0.160078,-0.16071300000000002,-0.173815,-0.274398,-0.124009
655,-0.623658,-1.306927,-0.355688,-0.15232,0.9653879999999999,-0.211718,0.569543,0.555962,-0.311974,-0.103967,-0.233256,-0.074033
656,-0.6233890000000001,-1.2953709999999998,-0.360743,-0.15876500000000002,0.96231,-0.220802,0.438837,0.031902999999999994,-0.478858,-0.287982,0.179399,-0.024361
657,-0.640009,-1.2842790000000002,-0.381643,-0.168777,0.959234,-0.226681,0.11195,0.376211,-0.5179020000000001,0.05545,0.56161,0.228634
658,-0.642658,-1.279767,-0.385779,-0.171969,0.9579489999999999,-0.22969499999999998,0.14593699999999998,-0.13395,-0.041652,0.581774,0.44857600000000003,0.376607
659,-0.6482979999999999,-1.2797020000000001,-0.389121,-0.1733,0.95793,-0.22877199999999998,-0.183585,0.36259600000000003,-0.054203999999999995,0.578329,0.036836,0.551419
660,-0.613296,-1.292414,-0.385371,-0.158166,0.961501,-0.22471999999999998,-0.558504,1.6120860000000001,0.8217909999999999,0.12480999999999999,0.288804,-0.167736
661,-0.5492199999999999,-1.3136139999999998,-0.321452,-0.13278,0.96711,-0.21694899999999998,-0.389424,-0.5257189999999999,1.422847,0.227354,1.012183,-0.162964
662,-0.478462,-1.334635,-0.249271,-0.107724,0.9722430000000001,-0.207698,-0.46325,0.536821,1.105844,0.127683,1.403901,0.10883599999999999
663,-0.41843199999999997,-1.3418290000000002,-0.190824,-0.092225,0.973901,-0.20739000000000002,0.286603,-0.29553,0.549196,-0.22123600000000002,0.269675,-0.107216
664,-0.406488,-1.336435,-0.17681,-0.091817,0.9726629999999999,-0.213299,0.203732,0.405736,-0.25558400000000003,0.042531,-0.109412,0.133984
665,-0.40016999999999997,-1.333957,-0.20255,-0.091406,0.9720840000000001,-0.216094,-0.14918800000000002,2.1666,-0.206895,0.09326799999999999,-0.014091999999999999,0.115676
666,-0.35754400000000003,-1.345515,-0.20432999999999998,-0.078177,0.9747309999999999,-0.20925300000000002,-0.805823,1.9661099999999998,0.415822,0.306723,0.33725,0.08025499999999999
667,-0.30498400000000003,-1.373237,-0.176654,-0.058938,0.980548,-0.187219,-1.44251,0.8616159999999999,0.9180590000000001,0.37958600000000003,0.088376,0.381417
668,-0.24783200000000002,-1.411456,-0.1187,-0.038921,0.987332,-0.153819,-1.8000509999999998,-0.582757,0.925959,-0.055607000000000004,-0.203763,0.053614
669,-0.23434899999999997,-1.444974,-0.080192,-0.02914,0.9920950000000001,-0.12205899999999999,-1.329727,-1.4925469999999998,0.529827,-0.101414,-0.238677,-0.143963
670,-0.253253,-1.466415,-0.071881,-0.026105,0.994557,-0.100867,-0.886642,-1.06972,0.16811700000000002,-0.06314299999999999,-0.250157,-0.158411
671,-0.293134,-1.47596,-0.10521199999999999,-0.027361,0.995506,-0.090652,-0.272778,-0.089548,-0.126885,-0.08856,-0.137276,-0.262696
672,-0.33894,-1.47489,-0.145844,-0.031838,0.9954040000000001,-0.090309,0.124356,-0.36751500000000004,-0.222032,-0.068901,-0.135953,-0.273812
673,-0.369637,-1.466899,-0.166826,-0.037468,0.994607,-0.096704,0.463909,-0.5741689999999999,-0.25251,-0.041344,-0.33703,-0.380423
674,-0.39018800000000003,-1.453983,-0.180083,-0.044329,0.993185,-0.10778499999999999,0.631564,-0.158918,-0.34587399999999996,0.032229,-0.531805,-0.215121
675,-0.402202,-1.436708,-0.19305899999999998,-0.052330999999999996,0.991024,-0.123018,0.808188,0.089158,-0.465668,0.014993000000000001,-0.509472,-0.132109
676,-0.439479,-1.418142,-0.22725700000000001,-0.064697,0.9883709999999999,-0.13761099999999998,0.695868,-0.403974,-0.657032,-0.002426,-0.403013,-0.06818400000000001
677,-0.49995900000000004,-1.4010479999999998,-0.275212,-0.080985,0.985627,-0.148257,0.5294260000000001,-0.754486,-0.7699090000000001,0.168906,-0.20318699999999998,-0.084272
678,-0.560131,-1.38486,-0.31948699999999997,-0.098218,0.982764,-0.156615,0.484994,-0.8440709999999999,-0.7060109999999999,0.338971,-0.198492,0.021925999999999998
679,-0.602374,-1.372149,-0.34484699999999996,-0.11181400000000001,0.980334,-0.162608,0.330937,-0.9064049999999999,-0.435679,0.38390799999999997,-0.216617,0.141902
680,-0.639828,-1.364236,-0.360966,-0.12245199999999999,0.978742,-0.164525,0.21712800000000002,-1.220599,-0.35275,0.21777399999999997,-0.202146,0.113027
681,-0.678476,-1.352951,-0.374329,-0.135642,0.9763649999999999,-0.16826,0.45441800000000004,-1.3356190000000001,-0.565658,-0.135537,0.241194,-0.29365399999999997
682,-0.7108800000000001,-1.336761,-0.378872,-0.151317,0.9727389999999999,-0.175733,0.635406,-1.293088,-0.43626099999999995,0.13460899999999998,0.146539,-0.403826
683,-0.706724,-1.3242200000000002,-0.363055,-0.158495,0.9697540000000001,-0.185625,0.627078,0.076336,-0.299205,0.257571,0.062793,-0.022215000000000002
684,-0.6669609999999999,-1.3004129999999998,-0.339893,-0.16522799999999999,0.963669,-0.209862,1.40825,1.179783,-0.664768,-0.028176999999999997,0.358689,0.080055
685,-0.630379,-1.263852,-0.316625,-0.1781,0.953261,-0.244075,1.785682,0.19503,-0.881991,-0.366654,0.515351,-0.002919
686,-0.607467,-1.2274459999999998,-0.28510599999999997,-0.192152,0.941632,-0.276417,1.712245,-0.554141,-0.482029,-0.185838,0.33613899999999997,-0.034557
687,-0.596826,-1.195254,-0.261344,-0.206136,0.930309,-0.30337,1.517577,-0.406644,-0.701495,0.051274,0.345143,0.258921
688,-0.595962,-1.1602860000000002,-0.25031,-0.224004,0.916917,-0.33028,1.5763530000000001,-0.702673,-0.78189,0.155385,0.884016,0.236636
689,-0.614585,-1.133902,-0.23214400000000002,-0.243983,0.90607,-0.3457,1.1036780000000002,-2.4962590000000002,-0.191099,0.164882,1.051312,0.295193
690,-0.6357649999999999,-1.1125040000000002,-0.19680699999999998,-0.262704,0.896809,-0.355977,1.494766,-2.39405,0.016600999999999998,0.128351,1.094661,0.235188
691,-0.633782,-1.08523,-0.16109500000000002,-0.276384,0.8844110000000001,-0.376071,1.592292,-0.930575,-0.280491,-0.429442,0.336613,0.104526
692,-0.615687,-1.057585,-0.131415,-0.283549,0.871172,-0.40082199999999996,1.492764,-0.14993199999999998,-0.143318,-0.18332400000000001,-0.074145,0.005268999999999999
693,-0.6023850000000001,-1.0354290000000002,-0.113396,-0.28906,0.860081,-0.420362,0.9246629999999999,-0.20582199999999998,-0.32560700000000004,0.086515,0.121151,-0.047915
694,-0.606596,-1.0245360000000001,-0.10513,-0.29615,0.8544729999999999,-0.426814,0.369436,-0.893508,0.034591000000000004,0.38898499999999997,0.298114,0.204249
695,-0.629119,-1.025735,-0.097851,-0.305085,0.855096,-0.419207,-0.113756,-1.637182,0.214835,0.121018,-0.051704999999999994,0.382449
696,-0.659838,-1.0332,-0.100093,-0.313895,0.858942,-0.404584,-0.42962,-1.2268139999999998,0.162965,-0.043847000000000004,-0.171915,0.48007
697,-0.6758850000000001,-1.041532,-0.102394,-0.31585799999999997,0.8631790000000001,-0.393899,-0.286697,-0.44253100000000006,0.245211,-0.216338,-0.365544,0.47503
698,-0.679669,-1.049956,-0.102547,-0.312765,0.867401,-0.387031,-0.447321,-0.08409900000000001,0.259653,0.002294,-0.37393200000000004,0.156089
699,-0.687755,-1.0653860000000002,-0.111571,-0.30735100000000004,0.874976,-0.374102,-0.89115,0.028845,0.371776,0.049722,-0.350272,0.13078599999999999
700,-0.69599,-1.087983,-0.12368299999999999,-0.297666,0.885692,-0.356292,-1.1387770000000002,0.2121,0.579183,0.149168,-0.31316700000000003,0.154281
701,-0.701056,-1.116533,-0.13813599999999998,-0.283037,0.8985850000000001,-0.335314,-1.410008,0.505555,0.688008,-0.03108,-0.433909,0.204974
702,-0.708659,-1.148916,-0.161645,-0.266494,0.9123209999999999,-0.31088899999999997,-1.63186,0.743935,0.6744020000000001,-0.047624,-0.44764499999999996,0.180549
703,-0.7214149999999999,-1.184248,-0.192126,-0.248984,0.926216,-0.283074,-1.7640259999999999,0.820901,0.722518,0.057548,-0.542366,0.167061
704,-0.727761,-1.22147,-0.22439099999999998,-0.227675,0.9396030000000001,-0.255558,-1.801247,1.45646,0.857108,0.060087,-0.41631899999999994,0.11159100000000001
705,-0.7325619999999999,-1.262805,-0.268798,-0.202736,0.952944,-0.225377,-2.16131,2.000152,0.8026220000000001,0.010506,-0.153597,-0.024363
706,-0.7651359999999999,-1.303377,-0.33755599999999997,-0.183023,0.964456,-0.19059500000000001,-2.028822,1.331651,0.565122,-0.0194,-0.07209199999999999,-0.14017000000000002
707,-0.8047989999999999,-1.329674,-0.3958,-0.172094,0.9710709999999999,-0.165543,-1.0697940000000001,0.585743,0.320676,-0.02186,-0.114946,-0.22277800000000003
708,-0.8162510000000001,-1.339264,-0.41823,-0.167186,0.973316,-0.157176,-0.235486,0.581676,0.081887,-0.207234,-0.13455599999999998,-0.330602
709,-0.801035,-1.337004,-0.41304700000000005,-0.166354,0.9727950000000001,-0.161232,0.294576,0.34307,-0.11493099999999999,-0.395825,-0.038911,-0.379875
710,-0.7817109999999999,-1.325279,-0.393413,-0.171232,0.9700120000000001,-0.1725,0.77349,-0.179543,-0.37263,-0.298082,-0.153224,0.051177
711,-0.760996,-1.302037,-0.366101,-0.183124,0.964101,-0.19228699999999999,1.233883,-0.314325,-0.632024,-0.185574,-0.17069,0.127879
712,-0.750785,-1.279617,-0.346258,-0.19585,0.9579059999999999,-0.2099,0.63195,-0.436449,-0.472634,0.18274300000000002,0.093913,0.222077
713,-0.77064,-1.279425,-0.362674,-0.200107,0.957851,-0.206102,-0.5159819999999999,0.274093,-0.011545999999999999,0.44902299999999995,0.771428,0.23446799999999998
714,-0.77605,-1.286744,-0.386017,-0.196303,0.9599280000000001,-0.200008,-0.34782399999999997,0.976261,0.070982,0.250594,0.39757,0.174511
715,-0.7383390000000001,-1.291767,-0.373485,-0.18537599999999999,0.9613229999999999,-0.203699,0.121504,1.3575620000000002,0.479696,0.13656300000000002,0.502849,-0.035773
716,-0.668385,-1.2993190000000001,-0.32487,-0.16618,0.963376,-0.21045300000000003,0.102855,1.1165399999999999,0.829183,0.11233199999999999,0.826419,0.011219
717,-0.587505,-1.309675,-0.271999,-0.143096,0.966101,-0.214876,-0.19305899999999998,1.549894,0.872495,0.11714100000000001,0.639246,0.068148
718,-0.529119,-1.328143,-0.232935,-0.12128599999999999,0.9707040000000001,-0.207421,-0.647235,0.716121,0.915256,0.23929699999999998,0.186675,0.141152
719,-0.48048900000000005,-1.350396,-0.19581800000000002,-0.101048,0.9758100000000001,-0.193864,-0.8573959999999999,0.698824,0.893517,0.18633,0.323247,0.039811
720,-0.443513,-1.3736,-0.171039,-0.08407200000000001,0.98062,-0.176964,-0.905328,0.465639,0.6413800000000001,0.082424,0.52881,-0.057380999999999995
721,-0.405157,-1.392692,-0.13781600000000002,-0.06982999999999999,0.984181,-0.16281800000000002,-0.675363,0.219427,0.741578,0.136984,0.113276,0.071159
722,-0.363541,-1.411051,-0.092658,-0.056561,0.987268,-0.148668,-0.726615,-0.407267,0.5978140000000001,0.0854,-0.034234,0.055390999999999996
723,-0.35875300000000004,-1.424376,-0.075894,-0.051225,0.9893,-0.136606,-0.458873,-0.564315,0.213189,-0.038757,-0.276592,-0.005896
724,-0.378409,-1.431845,-0.089005,-0.051168,0.9903620000000001,-0.12870299999999998,-0.381379,-0.181175,-0.030316000000000003,-0.028635,-0.20877600000000002,0.014063999999999998
725,-0.411588,-1.439192,-0.12086400000000001,-0.052497,0.991353,-0.120262,-0.434439,-0.132992,-0.045703,0.015113,-0.161992,-0.069145
726,-0.445875,-1.4473129999999998,-0.149409,-0.053114,0.9923860000000001,-0.111123,-0.43897299999999995,-0.368647,0.015456000000000001,0.073988,-0.170349,-0.173774
727,-0.479357,-1.452511,-0.17544400000000002,-0.054424,0.9930120000000001,-0.10470299999999999,-0.18463800000000002,-0.364915,-0.072503,-0.000935,-0.244157,-0.3371
728,-0.5118550000000001,-1.449308,-0.201698,-0.059354,0.9926290000000001,-0.10565,0.228729,-0.274785,-0.326104,-0.07403799999999999,-0.30435100000000004,-0.387331
729,-0.555066,-1.435361,-0.24246700000000002,-0.07115199999999999,0.990843,-0.11474300000000001,0.5657439999999999,0.002653,-0.7343029999999999,-0.130447,-0.449903,-0.16402
730,-0.604831,-1.419139,-0.30067699999999997,-0.085901,0.9885219999999999,-0.124269,0.325968,0.524465,-0.7494649999999999,0.260294,-0.360425,-0.20954699999999998
731,-0.63065,-1.408325,-0.334067,-0.09537899999999999,0.9868309999999999,-0.13063699999999998,0.312318,0.242808,-0.365708,0.42763900000000005,-0.2863,-0.165536
732,-0.635835,-1.40222,-0.338505,-0.099632,0.985825,-0.134986,0.200267,-0.272148,-0.1618,0.224983,-0.21629299999999999,-0.013985
733,-0.652508,-1.392787,-0.338544,-0.107511,0.9841979999999999,-0.14069,0.47080500000000003,-1.0881239999999999,-0.40242,0.170652,-0.22568400000000002,0.080296
734,-0.68776,-1.377951,-0.35149,-0.12165899999999999,0.981463,-0.148079,0.537089,-1.267541,-0.6132350000000001,0.201035,-0.011233,-0.21771999999999997
735,-0.738011,-1.364829,-0.374341,-0.137597,0.978864,-0.15129700000000001,0.194118,-1.3060530000000001,-0.541874,0.24820799999999998,0.15468099999999999,-0.185999
736,-0.77153,-1.3559430000000001,-0.38724000000000003,-0.148649,0.977008,-0.15283,0.323033,-0.88555,-0.317185,0.194303,0.091001,-0.08090399999999999
737,-0.765072,-1.3428959999999999,-0.36929,-0.156474,0.974143,-0.162968,0.8187180000000001,-0.370202,-0.41906899999999997,-0.115193,0.024743,0.042241
738,-0.753293,-1.313264,-0.35164,-0.174219,0.9670209999999999,-0.185781,1.426153,-0.300155,-1.1455799999999998,-0.466513,0.230992,-0.050807
739,-0.758146,-1.2752620000000001,-0.345889,-0.200253,0.9566469999999999,-0.211477,1.348948,-0.614182,-1.136103,0.21021700000000001,0.427325,0.127706
740,-0.757488,-1.2435370000000001,-0.338486,-0.22086399999999998,0.9469270000000001,-0.23355,1.140886,-0.070461,-1.063477,0.269463,0.492709,0.18218900000000002
741,-0.754812,-1.211236,-0.33506199999999997,-0.241076,0.936052,-0.256293,1.423417,-0.09813999999999999,-1.046513,0.121874,0.46942,0.23683800000000002
742,-0.739261,-1.1692420000000001,-0.30887800000000004,-0.263329,0.9204549999999999,-0.28882199999999997,1.99845,-0.7576510000000001,-0.9861040000000001,-0.017112,0.693864,0.172351
743,-0.738644,-1.133937,-0.268798,-0.284862,0.906085,-0.312827,1.817129,-2.460919,-0.32395799999999997,-0.011815,0.85806,0.174872
744,-0.749913,-1.10314,-0.214585,-0.307249,0.8926270000000001,-0.329867,2.033056,-2.960705,-0.20216900000000002,0.058012,0.8031739999999999,0.15553499999999998
745,-0.751628,-1.066674,-0.16833399999999998,-0.329831,0.875599,-0.352896,1.999657,-1.7149619999999999,-0.547966,0.23805,0.33019699999999996,0.037435
746,-0.746898,-1.033514,-0.13221,-0.3477,0.8591030000000001,-0.37555900000000003,1.706284,-1.110431,-0.423671,0.093809,0.15681199999999998,-0.10318599999999999
747,-0.742175,-1.009766,-0.107358,-0.359613,0.846707,-0.39212600000000003,1.020944,-0.765811,-0.230211,0.044045999999999995,0.22816799999999998,-0.06959
748,-0.750727,-1.000682,-0.092279,-0.368185,0.8418389999999999,-0.39464299999999997,0.43449099999999996,-1.276564,0.132747,0.100637,0.183475,0.041082
749,-0.766766,-1.001131,-0.076012,-0.374204,0.842082,-0.388415,0.193911,-1.564577,0.43801599999999996,0.055372000000000005,-0.1179,0.306719
750,-0.7816609999999999,-1.0086899999999999,-0.060757000000000005,-0.37545300000000004,0.846134,-0.37827,-0.063412,-1.189439,0.62054,0.035227999999999995,-0.161686,0.350926
751,-0.79104,-1.020412,-0.049301,-0.371906,0.8523229999999999,-0.367733,-0.26898299999999997,-0.8426450000000001,0.653911,-0.018063,-0.270796,0.370754
752,-0.7968930000000001,-1.0357,-0.039546,-0.364689,0.8602200000000001,-0.35639899999999997,-0.407306,-0.64873,0.7648590000000001,0.024799,-0.34194,0.243484
753,-0.80385,-1.055712,-0.033393,-0.354692,0.870251,-0.34183800000000003,-0.7264470000000001,-0.578782,0.8650899999999999,0.014802000000000001,-0.351971,0.22892300000000002
754,-0.813009,-1.083883,-0.035372,-0.33986,0.8837809999999999,-0.321592,-1.1833870000000002,-0.179706,1.095327,0.131868,-0.32117399999999996,0.113936
755,-0.816792,-1.120456,-0.044083,-0.31729,0.900299,-0.297968,-1.4971649999999999,0.38764099999999996,1.212049,0.032149000000000004,-0.289078,0.114069
756,-0.819468,-1.16089,-0.057590999999999996,-0.29123000000000004,0.917158,-0.27203299999999997,-1.611392,0.5110520000000001,1.3510309999999999,-0.073989,-0.283827,0.17932
757,-0.81973,-1.202668,-0.068061,-0.263047,0.933002,-0.24557800000000002,-1.573574,0.409598,1.381335,-0.071075,-0.25851799999999997,0.144946
758,-0.8324889999999999,-1.243945,-0.089783,-0.237456,0.947058,-0.216083,-1.71335,0.44922,1.184823,0.104827,-0.22267699999999999,0.23234899999999997
759,-0.8462959999999999,-1.280429,-0.12068399999999999,-0.214387,0.958139,-0.189746,-1.392108,0.9529120000000001,0.9524809999999999,0.100664,-0.226129,0.086505
760,-0.8446450000000001,-1.304836,-0.135643,-0.196525,0.964841,-0.174516,-0.6946869999999999,0.614924,0.6885939999999999,0.03791,-0.188962,-0.185927
761,-0.822147,-1.317674,-0.121394,-0.18345799999999998,0.9681350000000001,-0.17044600000000001,-0.085762,0.419466,0.555297,-0.07408,-0.134181,-0.247522
762,-0.775281,-1.324891,-0.086508,-0.170376,0.969917,-0.17385899999999999,0.07070599999999999,0.8342940000000001,0.5772229999999999,-0.103748,-0.124474,-0.205154
763,-0.722377,-1.3345479999999998,-0.052964,-0.154744,0.972223,-0.17559,-0.186746,1.058654,0.6370939999999999,-0.10573900000000001,-0.11297,-0.156365
764,-0.679072,-1.345993,-0.027912,-0.139999,0.9748379999999999,-0.173454,-0.247993,0.8632549999999999,0.537572,0.039429,-0.096374,-0.16683199999999998
765,-0.6439819999999999,-1.3539290000000002,-0.008476000000000001,-0.129179,0.976576,-0.172067,-0.159902,0.804074,0.342778,0.063093,-0.105895,-0.206916
766,-0.6190359999999999,-1.360688,0.000279,-0.12101400000000001,0.978008,-0.169855,-0.271428,0.808087,0.235172,-0.011691,-0.118603,-0.27927199999999996
767,-0.611925,-1.368067,-0.0069310000000000005,-0.11565399999999999,0.9795209999999999,-0.164799,-0.370651,0.662011,0.08832000000000001,-0.135414,-0.041257999999999996,0.057927
768,-0.6211439999999999,-1.3740459999999999,-0.031626,-0.113758,0.980707,-0.15896,-0.38769499999999996,0.7532310000000001,-0.06467200000000001,-0.127133,0.142248,0.19109500000000001
769,-0.651554,-1.3778,-0.067014,-0.11630499999999999,0.981434,-0.152499,-0.291245,-0.233017,-0.19733,0.231539,0.281887,0.23481999999999997
770,-0.674271,-1.379683,-0.07847799999999999,-0.118585,0.981793,-0.148374,-0.13635,-0.653211,0.053186000000000004,0.33812800000000004,0.109241,0.10947899999999999
771,-0.6895560000000001,-1.387048,-0.092611,-0.11623499999999999,0.983166,-0.140961,-0.559232,0.7233729999999999,0.091198,0.34433800000000003,0.16281500000000002,0.28137199999999996
772,-0.683815,-1.393497,-0.11567999999999999,-0.11141600000000002,0.984324,-0.136708,-0.097854,1.3172059999999999,0.10540999999999999,0.012249,0.372015,-0.20954499999999998
773,-0.618093,-1.397601,-0.056003,-0.099856,0.9850389999999999,-0.14043699999999998,0.109463,0.004248,0.858433,0.11621300000000001,0.32355500000000004,-0.12154100000000001
774,-0.5028699999999999,-1.415381,0.047793,-0.07459299999999999,0.9879469999999999,-0.13561600000000001,-0.578511,0.995426,1.336262,0.214837,0.744536,-0.0407
775,-0.357962,-1.4427219999999998,0.180312,-0.044745,0.9918100000000001,-0.11961300000000001,-0.961458,0.41252799999999995,1.449702,0.10658800000000002,0.525784,0.017471
776,-0.16825,-1.471754,0.356568,-0.016555,0.995099,-0.097463,-1.197015,1.146264,1.181129,-0.004503,0.10115299999999999,0.192052
777,0.010894,-1.496083,0.501549,0.000813,0.99721,-0.074614,-1.105792,1.957441,0.444721,-0.16988,-0.11441300000000001,0.36941399999999996
778,0.090877,-1.5141639999999998,0.544852,0.0051340000000000005,0.998397,-0.056336000000000004,-0.7410760000000001,1.6397439999999999,-0.075753,-0.377067,0.080079,0.17968800000000001
779,0.043689,-1.522593,0.47693199999999997,0.0021030000000000003,0.9988379999999999,-0.048094,-0.25514499999999996,0.678728,-0.196109,-0.194119,0.32332,-0.038622000000000004
780,0.035212,-1.529188,0.458009,0.001463,0.999134,-0.04152,-0.43292700000000006,0.46983100000000005,-0.016553000000000002,0.095675,-4e-06,-0.133376
781,0.039471,-1.540804,0.45412399999999997,0.001181,0.99955,-0.029894,-0.6176470000000001,0.42047299999999993,-0.033804,0.23491900000000002,-0.29790500000000003,-0.065809
782,0.036853,-1.553027,0.44076400000000004,0.00065,0.999842,-0.017641999999999998,-0.62297,0.662301,-0.032014,0.289511,-0.411189,-0.062298
783,0.039652999999999994,-1.564737,0.427408,0.000227,0.9999819999999999,-0.005718,-0.546652,0.780315,-0.040178,0.11325299999999999,-0.404477,-0.148854
784,-2.704017,-1.566516,-2.3238790000000003,-0.001621,0.999991,0.0034659999999999995,-0.44021499999999997,0.15500799999999998,-0.134774,-0.05363099999999999,-0.42255200000000004,-0.089007
785,-2.787162,-1.554529,-2.405862,-0.005606,0.999868,0.015147999999999998,-0.6717930000000001,-0.198511,-0.23848699999999998,-0.014246,-0.308751,-0.223644
786,-2.805341,-1.538553,-2.418182,-0.010621,0.9994799999999999,0.030388,-0.807347,-0.22886199999999998,-0.25648699999999997,0.169328,-0.24401799999999998,-0.23473400000000003
