,attitude.roll,attitude.pitch,attitude.yaw,gravity.x,gravity.y,gravity.z,rotationRate.x,rotationRate.y,rotationRate.z,userAcceleration.x,userAcceleration.y,userAcceleration.z
0,-0.571908,-1.308533,-1.294909,-0.14032,0.9658059999999999,-0.218002,-0.0019199999999999998,-0.813389,-0.166932,0.38150100000000003,-0.191971,0.029677999999999996
1,-0.599827,-1.306075,-1.308961,-0.14769100000000002,0.9651649999999999,-0.21595999999999999,0.018286,-0.677819,-0.25455900000000004,0.29548800000000003,-0.249421,0.27772800000000003
2,-0.6260760000000001,-1.3012540000000001,-1.323925,-0.15603399999999998,0.963893,-0.21577800000000003,0.155947,-0.489518,-0.31045500000000004,0.18442999999999998,-0.11799100000000001,0.567539
3,-0.6197,-1.2900909999999999,-1.314734,-0.160895,0.96086,-0.225514,0.784853,0.011559,-0.156085,-0.22441999999999998,0.278627,0.526433
4,-0.5887479999999999,-1.2725,-1.271379,-0.163201,0.955839,-0.24440599999999998,1.157506,-1.0742129999999999,0.117102,-0.395957,0.720843,0.16033
5,-0.5720069999999999,-1.253431,-1.218161,-0.168924,0.950061,-0.262384,1.308994,-1.776805,0.129742,-0.32622399999999996,0.709699,-0.173102
6,-0.539288,-1.230381,-1.166043,-0.171452,0.942616,-0.286489,1.487199,-0.135723,0.10217899999999999,0.217381,0.568736,0.015065
7,-0.478257,-1.206497,-1.114077,-0.163976,0.9343739999999999,-0.316314,1.4822309999999999,0.8807200000000001,0.329443,0.056661,1.024168,0.031310000000000004
8,-0.409734,-1.1911120000000002,-1.051831,-0.147644,0.928782,-0.339945,0.889892,0.163768,0.847517,-0.301575,1.291555,-0.23808800000000002
9,-0.357249,-1.1791639999999999,-0.997209,-0.13347799999999999,0.9242870000000001,-0.357595,1.0564129999999998,0.011544,0.675823,0.024728,0.447219,-0.29272
10,-0.326874,-1.161985,-0.955614,-0.127636,0.917594,-0.376467,1.041231,-0.616628,0.337895,0.287319,0.033975,-0.159406
11,-0.317131,-1.1439,-0.9320430000000001,-0.129116,0.9102549999999999,-0.393398,0.9903639999999999,-0.547288,0.09176000000000001,0.29859600000000003,0.06299600000000001,0.057231
12,-0.318864,-1.129366,-0.919198,-0.133932,0.904142,-0.405694,0.5936130000000001,-0.844887,-0.00036,0.251058,0.001483,0.11631199999999998
13,-0.344013,-1.1234899999999999,-0.9185469999999999,-0.14587999999999998,0.901616,-0.40719299999999997,0.10678900000000001,-1.521248,-0.133217,0.07877200000000001,-0.173787,0.235531
14,-0.388345,-1.124663,-0.928977,-0.163382,0.902122,-0.39934899999999995,-0.28268000000000004,-1.8402580000000002,-0.204963,0.006827,-0.373832,0.25053000000000003
15,-0.44088599999999994,-1.132868,-0.946614,-0.180964,0.905632,-0.38351,-0.662507,-1.778475,-0.141466,-0.006002,-0.42083000000000004,0.237789
16,-0.491598,-1.147149,-0.9662229999999999,-0.194047,0.911596,-0.362404,-0.9024120000000001,-1.589715,0.014713,0.036805000000000004,-0.400167,0.196327
17,-0.540583,-1.16584,-0.985765,-0.202754,0.91912,-0.337798,-1.057591,-1.5163950000000002,0.195133,0.169993,-0.41167299999999996,0.15959
18,-0.58505,-1.187319,-1.002034,-0.206618,0.927369,-0.311918,-1.0697530000000002,-1.437158,0.370135,0.205977,-0.439042,0.159253
19,-0.623273,-1.209558,-1.013439,-0.20629499999999998,0.9354600000000001,-0.286975,-1.002872,-1.369783,0.51259,0.26289,-0.471821,0.18493900000000002
20,-0.656539,-1.231658,-1.018367,-0.20305499999999999,0.943042,-0.26351199999999997,-0.91009,-1.49735,0.6319739999999999,0.138541,-0.432116,0.18398299999999998
21,-0.688836,-1.254785,-1.018342,-0.19754000000000002,0.9504819999999999,-0.23991300000000002,-0.896473,-1.6407490000000002,0.782872,0.061859000000000004,-0.431226,0.20291099999999998
22,-0.723372,-1.278399,-1.024925,-0.19079300000000002,0.957556,-0.216061,-1.08111,-1.180018,0.5438470000000001,-0.136966,-0.343634,0.375683
23,-0.788086,-1.3002040000000001,-1.0776299999999999,-0.18951400000000002,0.9636129999999999,-0.188498,-1.340716,-0.544434,0.066928,-0.24318,0.10636400000000001,0.40476100000000004
24,-0.8703930000000001,-1.3155430000000001,-1.152514,-0.193045,0.967599,-0.162732,-1.20084,-0.531134,-0.183144,-0.28383800000000003,0.15492899999999998,0.093564
25,-0.97688,-1.3278379999999999,-1.246233,-0.199373,0.9706299999999999,-0.134625,-1.277409,-0.955893,-0.188476,-0.12592899999999999,0.05505,-0.515476
26,-1.054098,-1.331892,-1.302522,-0.20574,0.971598,-0.116899,-0.15219000000000002,-1.016345,-0.16558299999999998,0.11817000000000001,-0.06798799999999999,-0.729079
27,-0.99985,-1.322897,-1.241889,-0.206445,0.9694299999999999,-0.1326,1.376723,0.200241,0.096706,0.31838299999999997,-0.323709,-0.48658599999999996
28,-0.880498,-1.3072540000000001,-1.1253440000000001,-0.20085799999999998,0.9654729999999999,-0.165876,1.630248,0.315719,0.302359,0.13231500000000002,-0.20142000000000002,0.047468
29,-0.789239,-1.292972,-1.042837,-0.194674,0.9616540000000001,-0.193184,1.001335,0.707566,0.092365,-0.042112000000000004,0.576538,0.46782700000000005
30,-0.78164,-1.285255,-1.037112,-0.19842200000000002,0.9595090000000001,-0.199919,0.09831000000000001,-0.37806,-0.42850200000000005,0.133893,0.961633,0.378157
31,-0.806139,-1.273562,-1.047001,-0.211342,0.95615,-0.202752,0.25351399999999996,-0.6813779999999999,-0.368277,0.7648699999999999,0.758968,0.511361
32,-0.84205,-1.282363,-1.069858,-0.21219899999999997,0.958691,-0.189422,-0.99135,-0.847266,0.369927,0.215892,0.5186350000000001,0.038986
33,-0.856656,-1.297318,-1.0734860000000002,-0.204085,0.962837,-0.17689100000000002,0.176154,-0.523287,0.389417,0.047514,1.596626,-0.5612520000000001
34,-0.842168,-1.285272,-1.043696,-0.21014000000000002,0.959514,-0.187539,0.285867,-0.275986,-0.276704,0.014643999999999999,0.716649,0.32108400000000004
35,-0.876843,-1.2883879999999999,-1.066591,-0.214214,0.9603870000000001,-0.178227,-0.530564,-1.032627,-0.028268,-0.047642000000000004,0.131639,0.021291
36,-0.9225760000000001,-1.295447,-1.095024,-0.216729,0.9623299999999999,-0.16415,-0.45711199999999996,-0.686188,0.118147,-0.012092,0.058665999999999996,-0.02541
37,-0.9386469999999999,-1.304466,-1.1011360000000001,-0.21232600000000001,0.964743,-0.15550999999999998,-0.331519,-0.46514300000000003,0.408229,0.159058,0.043268,0.073769
38,-0.960032,-1.31946,-1.115406,-0.203729,0.9685809999999999,-0.142622,-0.7990010000000001,-0.348035,0.5650470000000001,0.328912,0.117128,0.276778
39,-1.018794,-1.341465,-1.1699030000000001,-0.193555,0.9738190000000001,-0.11920399999999999,-1.305507,-0.304659,0.5464979999999999,0.257474,-0.002932,0.242189
40,-1.120635,-1.361572,-1.2620559999999998,-0.186999,0.9781920000000001,-0.09036799999999999,-1.338275,-0.750846,0.26803499999999997,0.22380300000000003,-0.384809,0.22856700000000002
41,-1.247883,-1.3736030000000001,-1.3742729999999999,-0.18578,0.98062,-0.06216699999999999,-1.265436,-0.8760379999999999,0.07749299999999999,0.24644899999999997,-0.40071,0.21614299999999997
42,-1.39657,-1.3818030000000001,-1.511563,-0.185015,0.982194,-0.032565,-1.451857,-0.580287,0.071539,0.23596399999999998,-0.32573,0.11101
43,-1.557915,-1.385255,-1.663668,-0.18445,0.9828370000000001,-0.002376,-1.35372,-0.645364,0.010351,0.23420900000000003,-0.22664099999999998,-0.029896
44,-1.6885740000000002,-1.382108,-1.783984,-0.18625899999999998,0.982251,0.022039,-0.97057,-0.559679,-0.170817,0.214488,-0.16891199999999998,-0.148489
45,-1.7635580000000002,-1.374833,-1.8526919999999998,-0.191093,0.9808610000000001,0.037299,-0.5728949999999999,-0.280357,-0.304061,0.220955,-0.148021,-0.15441
46,-1.8018580000000002,-1.365975,-1.887973,-0.197975,0.9790969999999999,0.046576,-0.380968,-0.15179,-0.387275,0.184349,-0.10662999999999999,-0.16701400000000002
47,-1.8276279999999998,-1.356231,-1.9114520000000002,-0.205927,0.9770690000000001,0.054083000000000006,-0.35309,-0.153886,-0.420192,0.166239,0.0031100000000000004,-0.30831
48,-1.851116,-1.346701,-1.932278,-0.21353899999999998,0.9749959999999999,0.061478,-0.311454,-0.105199,-0.377235,0.139931,0.08622300000000001,-0.322495
49,-1.8503889999999998,-1.339158,-1.9324299999999999,-0.220648,0.973292,0.063351,0.056534,0.10659600000000001,-0.381345,0.029776,0.174765,-0.121121
50,-1.818652,-1.332006,-1.897968,-0.229289,0.971625,0.058024,0.384044,-0.23503600000000002,-0.479033,0.115337,0.141718,-0.11426800000000001
51,-1.778788,-1.324891,-1.852589,-0.23817800000000003,0.969917,0.050266000000000005,0.487962,-0.120426,-0.459226,0.36587800000000004,0.20786300000000002,-0.149845
52,-1.722579,-1.317813,-1.7986119999999999,-0.247406,0.9681700000000001,0.037843,0.649422,0.417045,-0.47587799999999997,0.771026,0.37237600000000004,0.190902
53,-1.642278,-1.311269,-1.725798,-0.25595999999999997,0.966511,0.018328,1.083326,0.267883,-0.31349099999999996,0.358392,0.41863599999999995,0.5909409999999999
54,-1.556643,-1.311142,-1.631142,-0.256712,0.9664790000000001,-0.003633,1.198138,-0.642679,0.057013999999999995,-0.142519,0.32777199999999995,0.397478
55,-1.473559,-1.308294,-1.5212219999999999,-0.258264,0.965744,-0.025192,1.675443,-1.2655049999999999,-0.18027200000000002,-0.24933400000000003,0.381119,0.009537
56,-1.379897,-1.294029,-1.393166,-0.268277,0.961944,-0.051845,1.740618,-1.644425,-0.582051,0.24729600000000002,0.482072,0.111767
57,-1.3188520000000001,-1.275061,-1.297046,-0.282236,0.9565879999999999,-0.072651,1.4476209999999998,-1.332288,-0.597316,0.6399779999999999,0.515092,0.154057
58,-1.240524,-1.258041,-1.202385,-0.291047,0.9514889999999999,-0.09977899999999999,1.776146,-0.145624,-0.336962,0.504029,0.41064700000000004,0.15317
59,-1.1365040000000002,-1.2386139999999999,-1.092826,-0.295829,0.945333,-0.137213,2.0221169999999997,-0.085369,-0.16760999999999998,0.33182399999999995,0.15625999999999998,0.162741
60,-1.053092,-1.2195639999999999,-0.995224,-0.29896500000000004,0.93895,-0.170266,1.7803259999999999,-0.6249640000000001,-0.08315,0.21398899999999998,-0.07713300000000001,0.112175
61,-0.998353,-1.2003780000000002,-0.918488,-0.304291,0.932176,-0.19609100000000002,1.582393,-1.011932,-0.10967400000000001,0.150146,-0.094194,0.027634
62,-0.964571,-1.183124,-0.8524299999999999,-0.310667,0.9257920000000001,-0.21539,1.458669,-1.572415,0.03439,0.24838000000000002,0.007206999999999999,0.10542
63,-0.9423450000000001,-1.170334,-0.790043,-0.315357,0.920881,-0.22918400000000003,1.247023,-1.954843,0.21606799999999998,0.349903,-0.094266,0.12501199999999998
64,-0.9400229999999999,-1.162728,-0.738668,-0.320471,0.917889,-0.23404,0.939466,-2.386708,0.323432,0.455999,-0.22130999999999998,0.126664
65,-0.946426,-1.157161,-0.691168,-0.326104,0.915666,-0.234967,0.9493530000000001,-2.539164,0.34506,0.514397,-0.277055,0.114376
66,-0.951498,-1.152202,-0.6412640000000001,-0.330985,0.9136610000000001,-0.235942,0.9543809999999999,-2.539455,0.413462,0.391547,-0.22356700000000002,0.137294
67,-0.9574389999999999,-1.150203,-0.592817,-0.333873,0.912847,-0.23502199999999998,0.799546,-2.446731,0.536175,0.288448,-0.17336,0.20748000000000003
68,-0.96367,-1.15245,-0.549142,-0.333646,0.9137620000000001,-0.231767,0.577138,-2.216272,0.639012,0.12164000000000001,-0.194752,0.239992
69,-0.974291,-1.158966,-0.5152770000000001,-0.331156,0.9163899999999999,-0.224861,0.24298699999999998,-2.002151,0.662041,0.10241099999999999,-0.199654,0.233787
70,-0.992834,-1.170174,-0.495619,-0.326644,0.920819,-0.21305700000000002,-0.11232400000000001,-1.733686,0.699808,0.087737,-0.174038,0.20027
71,-1.019004,-1.1851120000000002,-0.48896300000000004,-0.320356,0.926541,-0.197203,-0.398433,-1.554716,0.680488,0.036268,-0.060025,0.129393
72,-1.050039,-1.20075,-0.492487,-0.313713,0.9323110000000001,-0.17993599999999998,-0.386101,-1.236034,0.628892,-0.046363999999999995,0.064866,-0.006679000000000001
73,-1.072401,-1.212048,-0.48710600000000004,-0.308386,0.9363370000000001,-0.16783,-0.095461,-1.532557,0.47106800000000004,0.068594,0.31001599999999996,-0.207552
74,-1.09385,-1.2194,-0.476245,-0.30579,0.938893,-0.15801199999999999,0.026400999999999997,-1.548684,0.402506,0.458454,0.19221,-0.205131
75,-1.10914,-1.225082,-0.45738999999999996,-0.303388,0.9408340000000001,-0.15094000000000002,0.287862,-1.781777,0.391812,0.5727359999999999,0.07552400000000001,-0.310502
76,-1.1115059999999999,-1.22906,-0.419637,-0.300388,0.942174,-0.148561,0.5374760000000001,-1.8992790000000002,0.521893,0.640705,0.016536000000000002,-0.372969
77,-1.102399,-1.2360879999999999,-0.367687,-0.293107,0.944506,-0.148298,0.67404,-2.089453,0.8083060000000001,0.648987,-0.002398,-0.39728
78,-1.0878510000000001,-1.245786,-0.305793,-0.28279099999999996,0.9476479999999999,-0.148285,0.6294649999999999,-2.192959,0.89038,0.716217,0.13945,-0.177811
79,-1.0829959999999998,-1.256437,-0.254166,-0.273136,0.950995,-0.14491700000000002,0.394956,-2.208935,0.8268059999999999,0.14928,0.683984,0.055759
80,-1.07417,-1.265344,-0.20652199999999998,-0.264388,0.9537110000000001,-0.14328,0.40124099999999996,-1.4774049999999999,0.633632,-0.055833,1.1587459999999998,0.47364799999999996
81,-1.096594,-1.27203,-0.20637800000000003,-0.261855,0.9557,-0.134401,-0.525606,-1.215379,0.114076,-0.083726,0.8911469999999999,0.459337
82,-1.174115,-1.279894,-0.24481399999999998,-0.26453699999999997,0.9579850000000001,-0.11081099999999999,-0.658656,-2.548728,0.135151,-0.058126,-0.354302,0.213747
83,-1.279742,-1.285165,-0.285014,-0.269904,0.959484,-0.080853,-0.59306,-3.7734099999999997,-0.017713,0.082771,-0.564602,0.18472
84,-1.3858059999999999,-1.2846950000000001,-0.314085,-0.277389,0.9593510000000001,-0.051908,-0.23414400000000002,-3.8209459999999997,-0.16255999999999998,0.321151,-0.723527,0.165143
85,-1.462457,-1.2845950000000002,-0.320844,-0.280645,0.9593229999999999,-0.030524000000000003,-0.109635,-3.3475019999999995,0.146419,0.647634,-0.15459,0.49588699999999997
86,-1.548038,-1.292116,-0.349908,-0.275006,0.961419,-0.00626,-0.619107,-2.489274,0.417362,0.43833599999999995,0.515784,0.41156400000000004
87,-1.648425,-1.301018,-0.411696,-0.265704,0.96383,0.020668000000000002,-0.909702,-1.968949,0.5513979999999999,0.213702,0.723395,0.141076
88,-1.770141,-1.313803,-0.490961,-0.24912800000000002,0.967159,0.050331,-0.865823,-2.358041,0.8459639999999999,-0.027482999999999997,0.078007,-0.167976
89,-1.873461,-1.3272979999999999,-0.554203,-0.23012800000000003,0.9705,0.071859,-0.42568900000000004,-1.9697759999999997,0.870973,0.023737,-0.09061799999999999,-0.193624
90,-1.955741,-1.342294,-0.601491,-0.20992800000000003,0.974007,0.08505399999999999,-0.221926,-1.7233900000000002,0.883832,0.06294,-0.098732,-0.147951
91,-2.038396,-1.354751,-0.6531939999999999,-0.191343,0.9767530000000001,0.09661900000000001,-0.30375100000000005,-1.554225,0.742038,0.157637,-0.09148400000000001,-0.014191
92,-2.125914,-1.3616030000000001,-0.7118939999999999,-0.176472,0.9781989999999999,0.10944300000000001,-0.401521,-1.480443,0.491296,0.148228,-0.129352,-0.015738
93,-2.210307,-1.362067,-0.767444,-0.16625399999999999,0.978295,0.12365699999999999,-0.49992,-1.493161,0.29407300000000003,0.13978,-0.13781,-0.041885000000000006
94,-2.294571,-1.359037,-0.8231649999999999,-0.157477,0.977663,0.139173,-0.563509,-1.476647,0.21562699999999999,0.100547,-0.085283,-0.111479
95,-2.3658799999999998,-1.35376,-0.868841,-0.150773,0.97654,0.153723,-0.514885,-1.214309,0.103467,0.111436,-0.060875,-0.13085
96,-2.421067,-1.3468719999999998,-0.905126,-0.146499,0.975033,0.166856,-0.537592,-0.877318,0.032374,0.126083,-0.025113,-0.16636800000000002
97,-2.469128,-1.338027,-0.9388350000000001,-0.143681,0.973031,0.18044100000000002,-0.605945,-0.685213,0.002809,0.128773,-0.024591,-0.162405
98,-2.510616,-1.328266,-0.9695959999999999,-0.14166900000000002,0.970733,0.193905,-0.6030300000000001,-0.532803,-0.018731,0.114402,-0.018371000000000002,-0.172467
99,-2.54454,-1.3177510000000001,-0.994133,-0.140743,0.9681540000000001,0.20703000000000002,-0.600427,-0.49207399999999996,-0.082858,0.047848,0.027512,-0.216521
100,-2.567688,-1.307051,-1.00971,-0.14153,0.9654200000000001,0.21891999999999998,-0.5107119999999999,-0.30567300000000003,-0.155109,-0.045711,0.109989,-0.23353800000000002
101,-2.573754,-1.298216,-1.012737,-0.144781,0.9630790000000001,0.22695700000000002,-0.323755,-0.09188400000000001,-0.234194,-0.023005,0.14892,-0.22466799999999998
102,-2.5674799999999998,-1.302654,-1.005708,-0.143879,0.9642649999999999,0.222453,-0.093155,0.005064,-0.169683,0.13863,0.21667399999999998,-0.225962
103,-2.551711,-1.313028,-0.9908040000000001,-0.141796,0.9669610000000001,0.211831,0.048273,0.046595,-0.022401,0.335064,0.22618400000000002,-0.22355
104,-2.550855,-1.3153139999999999,-0.9920959999999999,-0.140746,0.967541,0.209873,0.12164200000000001,0.143732,0.130742,0.414199,0.325992,-0.16359300000000002
105,-2.5512900000000003,-1.321038,-0.994784,-0.13757,0.9689719999999999,0.20533,0.274287,-0.005157,0.202502,0.16766,0.446296,-0.152092
106,-2.549266,-1.330733,-0.9914879999999999,-0.132734,0.9713229999999999,0.197247,0.562149,0.018068,0.271781,0.16534200000000002,0.355047,0.02663
107,-2.5232650000000003,-1.3479889999999999,-0.967091,-0.12808,0.975281,0.180043,1.024689,0.101858,0.228971,0.051374,0.13836700000000002,0.2597
108,-2.464984,-1.368519,-0.907753,-0.12578399999999998,0.979612,0.156629,1.290607,-0.035701,0.033384,-0.091303,-0.09122999999999999,0.223971
109,-2.372236,-1.387467,-0.807523,-0.12681099999999998,0.9832420000000001,0.130946,1.379629,-0.371847,-0.16744900000000001,-0.027364,-0.126949,0.150029
110,-2.237262,-1.4045809999999999,-0.6631279999999999,-0.13003,0.986218,0.102271,1.5611680000000001,-0.362779,-0.19503399999999999,0.031199,-0.022061,-0.076056
111,-2.066193,-1.419031,-0.48138100000000006,-0.132987,0.988506,0.071858,1.6175629999999999,-0.38114499999999996,-0.179662,0.088172,0.125462,-0.124028
112,-1.8646330000000002,-1.428712,-0.274326,-0.135512,0.989923,0.041005,1.542904,-0.065856,-0.10687999999999999,0.102126,0.232825,-0.058904
113,-1.641105,-1.4332,-0.048435,-0.136796,0.990549,0.009634,1.621981,0.018862999999999998,-0.049819999999999996,0.103334,0.25864299999999996,-0.044409
114,-1.410285,-1.431114,0.185106,-0.137415,0.99026,-0.022248,1.6012600000000001,-0.046188,-0.01463,0.136958,0.147893,-0.060622
115,-1.203149,-1.422097,0.39654,-0.138231,0.988965,-0.053241,1.543007,-0.200403,-0.02659,0.143343,-0.046292,-0.029477
116,-1.052543,-1.410795,0.557769,-0.138382,0.9872270000000001,-0.078911,1.23146,-0.601238,0.049727,0.188049,-0.12898099999999998,0.015771
117,-0.9600989999999999,-1.400765,0.669795,-0.13861300000000001,0.9855790000000001,-0.097023,0.9551,-1.054201,0.078288,0.23663499999999998,-0.159102,-0.032478
118,-0.896813,-1.391534,0.755632,-0.139302,0.9839760000000001,-0.111268,0.852907,-1.0080200000000001,0.073242,0.215794,-0.162778,-0.070143
119,-0.8371,-1.381217,0.8338459999999999,-0.13994700000000002,0.982083,-0.126176,0.8332360000000001,-0.889645,0.057998,0.08677,-0.257947,-0.028182
120,-0.806416,-1.372975,0.8882700000000001,-0.141849,0.980497,-0.136008,0.562608,-1.2775530000000002,0.063014,0.08413999999999999,-0.28118699999999996,-0.050301
121,-0.800258,-1.36952,0.923394,-0.143439,0.9798120000000001,-0.139238,0.25842,-1.445198,0.15938,0.112479,-0.298385,-0.106276
122,-0.807852,-1.3719379999999999,0.944734,-0.142779,0.9802930000000001,-0.136507,-0.047062,-1.409438,0.272569,0.128451,-0.281959,-0.084333
123,-0.827355,-1.379585,0.9521790000000001,-0.13989100000000002,0.981775,-0.128619,-0.286952,-1.2896299999999998,0.356197,0.146803,-0.249505,-0.060788999999999996
124,-0.850058,-1.3900780000000001,0.952749,-0.135027,0.983715,-0.118604,-0.365157,-1.060578,0.419451,-0.029370999999999998,-0.10403,-0.054705
125,-0.8597950000000001,-1.401289,0.959269,-0.12780899999999998,0.985668,-0.110078,-0.301846,-0.67862,0.483497,-0.143782,-0.004391,-0.11056400000000001
126,-0.845881,-1.410651,0.9865790000000001,-0.119352,0.9872040000000001,-0.105722,-0.055730999999999996,-0.745557,0.492779,-0.172121,0.099557,-0.217977
127,-0.828685,-1.417562,1.022578,-0.11248399999999999,0.988283,-0.103144,-0.021043,-0.9434870000000001,0.409954,0.073116,0.161681,-0.198812
128,-0.814399,-1.423291,1.0559209999999999,-0.106878,0.9891409999999999,-0.100853,0.007863,-0.9625969999999999,0.36851999999999996,0.173941,0.011637,-0.31823
129,-0.787311,-1.4266290000000001,1.105225,-0.101766,0.989626,-0.101378,0.24381999999999998,-1.147766,0.38322399999999995,0.24652600000000002,-0.089388,-0.33748
130,-0.7238399999999999,-1.4264569999999999,1.1936950000000002,-0.09524500000000001,0.9896010000000001,-0.10775699999999999,0.552304,-1.230289,0.506193,0.257629,-0.173698,-0.296479
131,-0.632053,-1.423833,1.312908,-0.086502,0.9892200000000001,-0.11813,0.659921,-1.3675469999999998,0.638512,0.21698,-0.021874,-0.148395
132,-0.539695,-1.421418,1.434159,-0.076467,0.988864,-0.127654,0.5209600000000001,-1.3651790000000001,0.699495,0.022618,0.277005,0.037581
133,-0.453118,-1.4211040000000001,1.5459180000000001,-0.065278,0.9888170000000001,-0.13406600000000002,0.387998,-1.032377,0.7056180000000001,-0.312194,0.760786,0.22342199999999998
134,-0.393921,-1.420612,1.622342,-0.057418,0.988743,-0.13814300000000002,0.095113,-0.804068,0.34221999999999997,-0.325013,0.715724,0.167424
135,-0.427511,-1.426199,1.618012,-0.059733,0.9895639999999999,-0.131106,-0.424666,-1.83023,0.06964400000000001,-0.015676,0.033750999999999996,0.14107
136,-0.497849,-1.436481,1.593135,-0.063936,0.990993,-0.11763599999999999,-0.551552,-2.5487580000000003,0.046178,0.18094100000000002,-0.37252399999999997,0.102148
137,-0.600216,-1.441702,1.545939,-0.072699,0.9916790000000001,-0.10621400000000002,-0.255499,-2.7392369999999997,-0.261294,0.274267,-0.550471,0.261243
138,-0.695519,-1.440775,1.4931889999999999,-0.083066,0.991559,-0.099521,-0.201407,-1.8382919999999998,-0.23856999999999998,0.181286,-0.02284,0.300219
139,-0.779076,-1.44494,1.441273,-0.08817699999999999,0.992091,-0.089299,-0.48669300000000004,-1.500393,-0.043375,-0.009266,0.479604,0.164617
140,-0.8764770000000001,-1.456072,1.36875,-0.087948,0.993426,-0.073227,-0.795767,-1.120252,0.264832,-0.177052,0.504758,-0.086136
141,-0.945708,-1.471795,1.31708,-0.08012000000000001,0.9951030000000001,-0.057816,-0.580901,-0.778979,0.514791,-0.283543,0.02014,-0.188019
142,-0.951974,-1.485248,1.322342,-0.069563,0.996343,-0.049538,-0.27771799999999996,-0.428782,0.5880310000000001,-0.1252,-0.170232,-0.077628
143,-0.919383,-1.498389,1.359767,-0.057489,0.9973799999999999,-0.043831999999999996,-0.296953,-0.165723,0.620674,-0.05683,-0.23338699999999998,0.040368
144,-0.909791,-1.511822,1.373085,-0.046475,0.9982620000000001,-0.036145,-0.42688000000000004,-0.234029,0.499145,-0.070056,-0.21672199999999997,0.035976999999999995
145,-0.988676,-1.5234020000000001,1.300762,-0.039508,0.998877,-0.026004000000000003,-0.509803,-0.382019,0.284043,-0.06463300000000001,-0.132727,-0.01495
146,-1.127315,-1.530053,1.171239,-0.036706,0.9991700000000001,-0.017437,-0.32910500000000004,-0.49582299999999996,0.08248899999999999,0.000588,-0.184641,-0.033238
147,-1.254721,-1.5331190000000001,1.049298,-0.035701,0.99929,-0.011676,-0.279141,-0.09001,0.053475999999999996,0.024745,-0.20616900000000002,-0.006421
148,-1.375039,-1.534658,0.9264629999999999,-0.035327,0.999347,-0.007005,-0.204983,0.199761,-0.014744,-0.006665000000000001,-0.196002,-0.050444
149,-1.464428,-1.533654,0.8330860000000001,-0.036805000000000004,0.99931,-0.0039299999999999995,-0.115003,0.17961300000000002,-0.11557,-0.0005639999999999999,-0.173489,-0.15903399999999998
150,-1.466884,-1.530123,0.82691,-0.040333999999999995,0.999173,-0.0042060000000000005,0.086128,0.20381400000000002,-0.21460900000000002,-0.024714,-0.176678,-0.18662
151,-1.378355,-1.523946,0.909551,-0.045877999999999995,0.9989030000000001,-0.008939,0.302919,0.384573,-0.31801199999999996,-0.025838,-0.248903,-0.114825
152,-1.2655040000000002,-1.515001,1.012023,-0.053112,0.998444,-0.016738,0.340314,0.557326,-0.394885,0.030788,-0.368881,-0.118974
153,-1.258799,-1.506161,1.011665,-0.06140399999999999,0.9979120000000001,-0.019805,0.027429000000000002,0.206012,-0.446826,0.015291999999999998,-0.330523,-0.159196
154,-1.280698,-1.495576,0.990208,-0.071949,0.997172,-0.021478,0.18771500000000002,-0.10296199999999998,-0.574566,0.026173000000000002,-0.117,-0.181723
155,-1.221068,-1.4822440000000001,1.046165,-0.08303300000000001,0.996082,-0.030284,0.541129,0.466657,-0.538644,0.064555,-0.090946,0.003947
156,-1.155593,-1.4703899999999999,1.098355,-0.091681,0.994964,-0.040416,0.347113,0.618134,-0.42268900000000004,-0.019540000000000002,-0.316512,-0.030369999999999998
157,-1.1423020000000002,-1.460761,1.1098370000000002,-0.099848,0.9939520000000001,-0.045610000000000005,0.239841,-0.19653800000000002,-0.395689,0.059458000000000004,-0.322443,-0.19058
158,-1.128361,-1.4528379999999999,1.1278629999999998,-0.10631900000000001,0.993051,-0.05037,0.268507,-0.090662,-0.257823,0.20876599999999998,-0.069574,-0.20822100000000002
159,-1.094517,-1.447151,1.158982,-0.109572,0.992366,-0.056527,0.315369,0.248516,-0.137222,0.22924699999999998,-0.02154,-0.153937
160,-1.042808,-1.441769,1.20428,-0.11111900000000001,0.9916879999999999,-0.06480599999999999,0.384883,0.348157,-0.073839,0.181447,-0.08411,-0.077985
161,-0.9978450000000001,-1.43706,1.246507,-0.112018,0.9910709999999999,-0.072267,0.354594,0.031818,-0.057626,0.082599,-0.172757,-0.067427
162,-0.9576870000000001,-1.432121,1.2870780000000002,-0.11303099999999999,0.9904,-0.079524,0.3693,0.003975,-0.033987,0.124124,-0.202192,-0.051870000000000006
163,-0.908536,-1.4295879999999999,1.335134,-0.11096500000000001,0.9900469999999999,-0.086523,0.365879,0.20750300000000002,0.219966,-0.07639800000000001,-0.064342,0.295263
164,-0.808654,-1.4311120000000002,1.431287,-0.100694,0.99026,-0.096116,0.479627,0.06903,0.650363,-0.224029,0.147069,0.130189
165,-0.68515,-1.432405,1.5662559999999999,-0.08727599999999999,0.990439,-0.106796,0.762586,-0.758891,0.721766,-0.32874000000000003,0.651193,-0.329895
166,-0.549311,-1.416323,1.713858,-0.080318,0.988093,-0.131205,1.4958209999999998,-0.25552199999999997,0.213496,-0.013416999999999998,0.716741,-0.24419200000000002
167,-0.46685699999999997,-1.396741,1.8005669999999998,-0.077935,0.984891,-0.154628,0.917342,-0.29933699999999996,0.216989,0.24062399999999998,0.663791,-0.054234000000000004
168,-0.384714,-1.3862219999999998,1.8839540000000001,-0.06887,0.9830139999999999,-0.170096,0.780261,0.408146,0.56657,-0.394783,0.974139,-0.483926
169,-0.298553,-1.378608,1.9643389999999998,-0.056177,0.9815889999999999,-0.182541,0.524859,0.242085,0.491292,-0.399405,0.603525,-0.169541
170,-0.25323,-1.3708209999999998,2.008798,-0.049763,0.9800709999999999,-0.19229300000000002,0.49210200000000004,-0.014281,0.162379,-0.26511799999999996,0.21409699999999998,-0.16456400000000002
171,-0.253907,-1.359912,2.009346,-0.052576,0.9778459999999999,-0.202597,0.526237,-0.012501,-0.311675,0.029427999999999996,0.02487,-0.09981699999999999
172,-0.286632,-1.348737,1.9735209999999999,-0.062263,0.9754459999999999,-0.21124,0.357634,0.184121,-0.584433,-0.16909100000000002,-0.010587000000000001,-0.12976400000000002
173,-0.325504,-1.3423100000000001,1.927296,-0.07242799999999999,0.97401,-0.214596,0.006231,0.337663,-0.581743,-0.22557600000000003,-0.187221,-0.14122300000000002
174,-0.367709,-1.34336,1.878687,-0.08105,0.974248,-0.21039499999999997,-0.378096,0.2052,-0.42295699999999997,-0.059529,-0.330937,-0.01925
175,-0.405898,-1.353472,1.837705,-0.085129,0.9764780000000001,-0.19808399999999998,-0.798669,0.000848,-0.104098,-0.017547,-0.46059300000000003,-0.073034
176,-0.44314899999999996,-1.3729209999999998,1.800477,-0.084286,0.9804870000000001,-0.177581,-1.180728,-0.045561000000000004,0.11120999999999999,0.038937,-0.473925,-0.176026
177,-0.493447,-1.398874,1.749602,-0.081023,0.985258,-0.150649,-1.463653,0.009355,0.20957699999999999,0.111143,-0.400922,-0.155198
178,-0.5580109999999999,-1.427565,1.684575,-0.075568,0.9897600000000001,-0.12106700000000001,-1.482599,-0.07724400000000001,0.303559,0.097434,-0.34405399999999997,-0.152035
179,-0.635158,-1.453093,1.612277,-0.06965199999999999,0.993081,-0.094501,-1.164012,-0.357653,0.354213,0.060129999999999996,-0.37046100000000004,-0.053646000000000006
180,-0.67391,-1.470558,1.578553,-0.062422000000000005,0.99498,-0.07816000000000001,-0.604267,-0.16905699999999999,0.390996,0.013746000000000001,-0.373856,0.07343
181,-0.670215,-1.482533,1.580969,-0.054723,0.996107,-0.06904099999999999,-0.455084,0.240654,0.366944,-0.161617,-0.260939,0.192775
182,-0.7137439999999999,-1.4955200000000002,1.529028,-0.049194,0.997168,-0.056802,-0.7540560000000001,0.46937299999999993,0.172283,-0.30362,-0.102744,0.058053
183,-0.8522129999999999,-1.5088620000000001,1.380354,-0.046532,0.9980829999999999,-0.040695,-0.8251809999999999,0.48161000000000004,0.10447200000000001,-0.313606,-0.14884,-0.168548
184,-1.0259129999999999,-1.518788,1.197027,-0.044375,0.998648,-0.026895,-0.646904,0.47471899999999995,0.074748,0.000185,-0.420676,-0.284262
185,-1.195199,-1.525836,1.01708,-0.041713,0.9989889999999999,-0.016447999999999997,-0.469997,0.539712,0.184859,-0.0024760000000000003,-0.42101700000000003,-0.294709
186,-1.272931,-1.534102,0.9284120000000001,-0.034950999999999996,0.9993270000000001,-0.01073,-0.211775,0.528345,0.405663,-0.003242,-0.379271,-0.301679
187,-1.2447700000000002,-1.544008,0.9481379999999999,-0.025209,0.999641,-0.008523000000000001,-0.104226,0.352831,0.514529,-0.006285,-0.294426,-0.271171
188,-1.356362,-1.554809,0.832304,-0.015332,0.999872,-0.003339,-0.402719,0.117583,0.46253999999999995,-0.075153,-0.08349,0.172574
189,-2.056395,-1.560393,0.127924,-0.008779,0.9999459999999999,0.004633,-0.27781,0.372707,0.22380300000000003,-0.216288,0.139245,0.274023
190,-1.67575,-1.560753,0.502963,-0.009501,0.99995,0.001001,0.47028500000000006,-0.001058,-0.194576,-0.17629,0.594029,0.336142
191,-1.171632,-1.552914,1.010062,-0.016237,0.99984,-0.006848999999999999,0.09338300000000001,0.065665,-0.303048,0.342729,0.574455,0.486799
192,-1.561841,-1.552378,0.6099359999999999,-0.018174,0.9998299999999999,-0.00016299999999999998,-0.397913,0.5262060000000001,0.036897000000000006,0.219178,0.643556,-0.300786
193,-1.3812389999999999,-1.559926,0.788047,-0.010263,0.999941,-0.0019690000000000003,0.652192,0.088239,0.492378,-0.297385,1.6339700000000001,-0.800048
194,-0.355969,-1.52668,1.8073110000000001,-0.015334,0.999027,-0.041243,2.022686,0.639227,-0.753915,0.036941,1.7983669999999998,0.17819100000000002
195,-0.439479,-1.5029569999999999,1.713466,-0.028814,0.9977,-0.061287,0.656254,0.135243,-0.6079220000000001,0.049839999999999995,0.079937,-0.235802
196,-0.493781,-1.489956,1.659891,-0.038248000000000004,0.996734,-0.071059,0.34772800000000004,0.118211,-0.344068,0.10894200000000001,-0.410293,-0.127702
197,-0.47232399999999997,-1.487144,1.67918,-0.037991000000000004,0.996503,-0.074361,0.042925,0.01591,0.194454,-0.027514999999999998,-0.428724,-0.144358
198,-0.417166,-1.496691,1.7361490000000002,-0.029974,0.9972549999999999,-0.067635,-0.564971,-0.074923,0.525746,0.141333,-0.26710700000000004,-0.019646
199,-0.32907,-1.515919,1.8214700000000001,-0.017699,0.998495,-0.051828,-0.8825870000000001,0.305132,0.596748,0.148024,0.08642000000000001,0.09801699999999999
200,-0.283086,-1.535367,1.8608419999999999,-0.009857,0.9993719999999999,-0.033886,-0.89187,0.239558,0.22075300000000003,0.043762,0.172182,0.0592
201,-0.440892,-1.550265,1.7014330000000002,-0.008659,0.9997889999999999,-0.01835,-0.6932510000000001,0.05653300000000001,-0.001952,0.085411,-0.06517300000000001,-0.008139
202,-0.8910030000000001,-1.558315,1.247092,-0.009389,0.999922,-0.007589,-0.445651,0.259351,-0.053892999999999996,0.058995000000000006,-0.113798,-0.102061
203,-1.339969,-1.558964,0.7927270000000001,-0.011093,0.9999299999999999,-0.002607,-0.13384400000000002,0.25957399999999997,-0.11367200000000001,0.02507,-0.181204,-0.151125
204,-1.353389,-1.5557969999999999,0.7730060000000001,-0.014301,0.9998879999999999,-0.003159,0.100599,0.37299699999999997,-0.176273,-0.007640999999999999,-0.34012800000000004,-0.20343
205,-1.184871,-1.550964,0.9325530000000001,-0.01813,0.9998030000000001,-0.007365999999999999,0.25814699999999996,0.49934700000000004,-0.20845,-0.019727,-0.43246599999999996,-0.18201099999999998
206,-1.012434,-1.543539,1.095691,-0.022952,0.9996290000000001,-0.014338,0.389194,0.397936,-0.269361,0.026309,-0.40597,-0.159307
207,-0.8699049999999999,-1.533685,1.2335180000000001,-0.028244,0.9993110000000001,-0.023833,0.512914,0.169465,-0.25111300000000003,0.11946099999999998,-0.410948,-0.057039
208,-0.756213,-1.523193,1.349679,-0.032574,0.9988670000000001,-0.034533,0.527261,-0.378371,-0.192627,0.049847,-0.398708,-0.133908
209,-0.706104,-1.513469,1.418763,-0.037117000000000004,0.9983569999999999,-0.043525,0.477469,-1.2527760000000001,-0.196127,0.039055,-0.36404899999999996,-0.204125
210,-0.697075,-1.503055,1.4533459999999998,-0.043405,0.997706,-0.05184,0.42760200000000004,-1.044508,-0.287541,0.150385,-0.28072600000000003,-0.165949
211,-0.705025,-1.493685,1.454502,-0.049877,0.997028,-0.058615999999999994,0.343035,-0.182329,-0.309526,0.13259500000000002,-0.09169400000000001,-0.109155
212,-0.7154510000000001,-1.4838280000000001,1.4473209999999999,-0.056937,0.9962209999999999,-0.06551699999999999,0.355698,-0.268439,-0.364875,0.111472,-0.063451,-0.09883600000000001
213,-0.740628,-1.4727649999999999,1.433301,-0.066005,0.995199,-0.072197,0.400909,-0.731677,-0.443014,0.085201,-0.008169,-0.144478
214,-0.752909,-1.460353,1.436468,-0.075333,0.993907,-0.08039400000000001,0.507145,-0.747305,-0.356794,0.20239300000000002,-0.11893800000000002,0.063716
215,-0.71878,-1.4473989999999999,1.484102,-0.08102100000000001,0.992396,-0.09260499999999999,0.7940020000000001,-0.56593,-0.142447,0.22958,-0.12461400000000002,0.21459899999999998
216,-0.624434,-1.434023,1.587181,-0.079694,0.990661,-0.11059000000000001,0.9742940000000001,-0.390331,0.276262,0.04704,0.039719,0.138193
217,-0.515783,-1.421131,1.715481,-0.073527,0.988821,-0.129682,1.111441,-1.2926540000000002,0.432201,-0.215811,0.328043,-0.194598
218,-0.435431,-1.399345,1.818432,-0.07195399999999999,0.9853379999999999,-0.154669,1.472184,-0.5886560000000001,0.157149,-0.057165999999999995,0.640486,-0.45060100000000003
219,-0.351034,-1.373475,1.902247,-0.067406,0.9805950000000001,-0.184068,1.454025,0.221667,0.260669,-0.21167800000000003,0.813503,-0.180724
220,-0.30096,-1.3471309999999999,1.95993,-0.065746,0.9750909999999999,-0.211817,1.384147,-0.5985010000000001,0.031564999999999996,0.083888,0.44202299999999994,0.00207
221,-0.279871,-1.3271979999999999,1.9844419999999998,-0.066621,0.970476,-0.23179499999999997,0.844052,0.512417,0.008209000000000001,0.024278,0.480253,-0.242585
222,-0.22015500000000002,-1.313332,2.016571,-0.055603,0.967039,-0.248468,0.733668,1.447838,0.342729,-0.765961,1.0896780000000001,-0.321356
223,-0.17405299999999999,-1.303827,2.050548,-0.045683,0.964575,-0.259808,0.45594700000000005,0.1037,0.257054,-0.22644299999999998,0.200983,-0.150592
224,-0.180135,-1.294143,2.057579,-0.048934,0.961975,-0.268704,0.538941,-1.0529549999999999,-0.13933099999999998,0.047621,-0.127914,-0.088305
225,-0.22368200000000002,-1.283779,2.041547,-0.062793,0.9590920000000001,-0.276027,0.340751,-1.497554,-0.405065,0.139423,-0.279481,0.08054700000000001
226,-0.281622,-1.282359,2.011225,-0.07905,0.9586899999999999,-0.273235,-0.276291,-1.3696,-0.43304,0.068872,-0.40861,0.12136500000000001
227,-0.342296,-1.289771,1.971844,-0.093085,0.960772,-0.261238,-0.6183390000000001,-0.99361,-0.389977,-0.054773,-0.44066000000000005,0.061211
228,-0.39677199999999996,-1.301526,1.931905,-0.102799,0.963965,-0.245348,-0.8238409999999999,-0.7240989999999999,-0.211229,-0.13919,-0.44095500000000004,-0.00485
229,-0.438679,-1.31781,1.9016950000000001,-0.106305,0.9681690000000001,-0.226582,-0.927945,-0.5545260000000001,0.09654299999999999,-0.116748,-0.529357,-0.03213
230,-0.45701899999999995,-1.3374409999999999,1.89032,-0.102034,0.9728959999999999,-0.20749499999999999,-0.9536020000000001,-0.24360900000000002,0.420705,-0.019655000000000002,-0.5828810000000001,0.015036
231,-0.44856,-1.360378,1.8994509999999998,-0.090571,0.977944,-0.18818800000000002,-1.014203,0.080397,0.6986720000000001,0.048258999999999996,-0.5865859999999999,0.047258
232,-0.41618999999999995,-1.3864040000000002,1.931257,-0.074115,0.9830479999999999,-0.167677,-1.047388,0.003068,0.88441,0.057773000000000005,-0.5505680000000001,0.024214
233,-0.364601,-1.411442,1.985167,-0.056573000000000005,0.9873299999999999,-0.148226,-0.969044,-0.120821,0.895798,-0.002372,-0.42954499999999995,0.091784
234,-0.293763,-1.434466,2.052674,-0.039344,0.990721,-0.130056,-0.865351,0.520582,0.779265,-0.178536,-0.210891,0.200277
235,-0.23470500000000002,-1.4577,2.106055,-0.026236000000000002,0.993611,-0.109724,-1.210323,-0.038649,0.536153,-0.27317199999999997,-0.021519999999999997,0.102171
236,-0.23378800000000002,-1.487003,2.113709,-0.019375999999999997,0.996491,-0.081362,-1.517987,-0.380641,0.280206,-0.289645,-0.018205000000000002,-0.163556
237,-0.303645,-1.518311,2.048106,-0.015658000000000002,0.9986229999999999,-0.049970999999999995,-1.475356,-0.015000999999999999,0.18069000000000002,-0.26456999999999997,-0.055035,-0.322419
238,-0.35987800000000003,-1.5366959999999998,1.9862330000000001,-0.011951,0.9994190000000001,-0.031763,-0.5411159999999999,0.364243,0.16857,-0.20817199999999997,-0.233458,-0.386008
239,-0.305204,-1.539669,2.032705,-0.0093,0.999516,-0.029519,0.045248000000000003,0.428562,0.092467,-0.079903,-0.363789,-0.29288400000000003
240,-0.212182,-1.540583,2.118513,-0.006326,0.9995440000000001,-0.029363999999999998,-0.137159,0.32853699999999997,0.222712,-0.019568000000000002,-0.30409400000000003,-0.049524
241,-0.053385,-1.549598,2.264191,-0.001118,0.999775,-0.020921000000000002,-0.528094,0.87664,0.157322,-0.312191,0.11051500000000002,0.140977
242,-0.349029,-1.556465,1.942861,-0.0047799999999999995,0.9998969999999999,-0.013133,-0.286423,1.443496,-0.350189,-0.162579,0.9789690000000001,0.347957
243,-1.01504,-1.554411,1.255524,-0.013651,0.999866,-0.008478,-0.117602,0.699699,-0.437788,0.435542,0.668622,0.004282
244,-0.707484,-1.5473540000000001,1.551347,-0.0151,0.999725,-0.017657,0.657572,0.7435039999999999,0.189276,0.7527560000000001,0.041809,0.036136
245,-0.091789,-1.542901,2.152925,-0.002541,0.999611,-0.027602999999999996,0.331539,0.5173449999999999,0.817539,0.376824,0.205727,-0.131332
246,0.246194,-1.529871,2.491562,0.009943,0.9991629999999999,-0.039568,1.400828,-0.385644,0.33264699999999997,-0.084864,2.242811,-0.803786
247,0.119527,-1.492329,2.35129,0.009340000000000001,0.996923,-0.07776799999999999,1.54274,1.193792,-0.230271,-0.262346,1.48527,0.164544
248,0.052784000000000005,-1.471726,2.2794220000000003,0.005215999999999999,0.9950969999999999,-0.098723,0.857749,-0.256794,-0.24921999999999997,-0.274961,-0.085596,0.20117100000000002
249,0.024668,-1.464982,2.250195,0.002604,0.9944069999999999,-0.10554100000000001,0.038665,0.283065,-0.013146000000000001,-0.094813,-0.669852,0.115245
250,0.071186,-1.4745139999999999,2.2896360000000002,0.006834000000000001,0.995368,-0.095841,-0.8297059999999999,0.32657600000000003,0.247788,-0.15191500000000002,-0.39119699999999996,-0.0037979999999999997
251,0.177722,-1.496624,2.395685,0.013088999999999998,0.99725,-0.072872,-1.183057,-0.103996,0.33773800000000004,-0.056058000000000004,-0.173413,-0.08353
252,0.357606,-1.5140280000000002,2.575973,0.01983,0.998389,-0.053066999999999996,-0.911789,0.172123,0.315778,0.062736,0.18168,-0.102146
253,0.608379,-1.527798,2.818623,0.0245,0.9990760000000001,-0.035175,-0.885993,0.505141,0.13072899999999998,0.11417200000000001,0.047662,-0.006802
254,0.981142,-1.540758,-3.100788,0.024815,0.999549,-0.016603,-0.9294040000000001,0.392061,-0.057436,0.188838,0.00863,-0.050214999999999996
255,1.551439,-1.548284,-2.5349,0.022269,0.9997469999999999,-0.00043099999999999996,-0.690738,0.20633400000000002,-0.171967,0.28920799999999997,-0.047812,-0.10805899999999999
256,2.0704540000000002,-1.551116,-2.021929,0.017029,0.999806,0.009295,-0.362028,0.337806,-0.30123099999999997,0.091552,-0.150121,-0.13583699999999999
257,2.524723,-1.553043,-1.572065,0.010089,0.999842,0.014227000000000002,-0.18855999999999998,0.171298,-0.37030799999999997,0.020687999999999998,-0.16225699999999998,-0.18800899999999998
258,3.014902,-1.5546,-1.0859530000000002,0.002006,0.999869,0.015747,0.017986000000000002,0.263457,-0.41918999999999995,-0.06446,-0.20691500000000002,-0.287659
259,-2.5592580000000003,-1.557228,-0.386935,-0.007243,0.999908,0.010999,0.376207,0.62251,-0.476968,-0.023458,-0.239669,-0.21201799999999998
260,-1.495248,-1.553016,0.661564,-0.017431,0.999842,-0.0013189999999999999,0.687541,0.770745,-0.520917,0.021047,-0.231684,-0.211754
261,-1.0863040000000002,-1.539493,1.06024,-0.027551,0.99951,-0.014500999999999998,0.62563,0.318101,-0.491928,0.1448,-0.269743,-0.168299
262,-0.9061670000000001,-1.5246879999999998,1.240256,-0.036199,0.9989370000000001,-0.028364,0.756622,-0.11206400000000001,-0.391115,0.15781099999999998,-0.280965,-0.013461
263,-0.791675,-1.510118,1.363071,-0.043091000000000004,0.99816,-0.042554,0.663355,-0.608472,-0.313151,0.117005,-0.315558,0.0017519999999999999
264,-0.7503920000000001,-1.497115,1.421409,-0.050155,0.997287,-0.053796000000000004,0.603,-0.991719,-0.323763,0.05998200000000001,-0.361178,-0.106208
265,-0.729431,-1.483537,1.4640950000000001,-0.058045000000000006,0.996195,-0.064935,0.609219,-1.0301,-0.32153400000000004,0.143464,-0.27714,-0.131064
266,-0.7137600000000001,-1.471649,1.495103,-0.064774,0.9950889999999999,-0.07479,0.47422299999999995,-0.620808,-0.26104499999999997,0.150193,-0.276034,-0.121209
267,-0.715029,-1.4631459999999998,1.5047549999999998,-0.070418,0.9942110000000001,-0.081098,0.326322,-0.515962,-0.245121,0.13230799999999998,-0.08967,-0.07585399999999999
268,-0.717019,-1.4543059999999999,1.511975,-0.07635399999999999,0.993223,-0.08758099999999999,0.357846,-0.40945,-0.268538,0.020507,-0.026594,-0.151646
269,-0.7205,-1.444825,1.516026,-0.08286900000000001,0.9920760000000001,-0.094389,0.40421999999999997,-0.34444600000000003,-0.314231,0.042617,-0.034968,-0.12399500000000001
270,-0.711858,-1.433574,1.529844,-0.089337,0.9906,-0.103547,0.543353,-0.204486,-0.27070900000000003,0.23193000000000003,-0.20721399999999998,0.15471
271,-0.665006,-1.421545,1.580601,-0.091737,0.988883,-0.11698800000000001,0.7939430000000001,-0.142763,0.059974,0.252763,-0.076575,0.33316
272,-0.561401,-1.409084,1.6913040000000001,-0.085702,0.9869530000000001,-0.136273,1.153805,-0.399102,0.44844399999999995,-0.078345,0.223176,0.117382
273,-0.43648100000000006,-1.388575,1.823276,-0.076599,0.9834430000000001,-0.164204,1.593637,-0.02702,0.5247470000000001,-0.475677,0.566956,-0.293575
274,-0.315846,-1.361797,1.942203,-0.064442,0.978239,-0.1972,1.641327,0.188864,0.57501,-0.391964,0.602144,-0.15044100000000002
275,-0.25448899999999997,-1.33473,2.007877,-0.058876,0.972266,-0.226332,1.427543,-0.327465,0.145822,-0.164406,0.500269,-0.11723499999999999
276,-0.211848,-1.309866,2.047564,-0.054242,0.96615,-0.25219899999999995,1.3118530000000002,0.878337,0.26845,-0.153476,0.588354,-0.38163600000000003
277,-0.14009000000000002,-1.291984,2.095304,-0.038426999999999996,0.961383,-0.27250599999999997,0.681311,0.960201,0.58868,-0.357111,0.868008,-0.34130900000000003
278,-0.089525,-1.282318,2.139602,-0.025434000000000002,0.958678,-0.28334299999999996,0.590449,0.10551700000000001,0.484455,-0.272768,0.593705,-0.3849
279,-0.077266,-1.2680690000000001,2.157833,-0.023011,0.954527,-0.297225,0.812207,-0.384513,0.027297000000000002,0.015443,0.085512,-0.11923299999999999
280,-0.095586,-1.2530860000000001,2.14886,-0.029814,0.949953,-0.310956,0.61758,-0.57427,-0.301764,0.016432,0.045195,-0.078967
281,-0.129169,-1.246512,2.1290240000000002,-0.041042,0.9478790000000001,-0.31596599999999997,0.092855,-0.823633,-0.357452,0.03947,0.011075,-0.054975
282,-0.16827999999999999,-1.248294,2.1060529999999997,-0.053082000000000004,0.9484450000000001,-0.31245500000000004,-0.276659,-0.8789129999999999,-0.332189,-0.050586,-0.19647699999999998,0.057847
283,-0.208458,-1.2572729999999999,2.082569,-0.063824,0.951253,-0.301725,-0.623734,-0.862093,-0.24169899999999997,-0.107349,-0.25501,0.057127
284,-0.241182,-1.270333,2.0607729999999997,-0.070688,0.955199,-0.287385,-0.741708,-0.41789,-0.135202,-0.198401,-0.21348499999999998,-0.027846
285,-0.263239,-1.284249,2.0425020000000003,-0.073543,0.959226,-0.272894,-0.732324,-0.14236600000000002,-0.047895,-0.213673,-0.228314,-0.037103
286,-0.279592,-1.298108,2.027576,-0.07431900000000001,0.96305,-0.25885,-0.7270949999999999,-0.11913599999999999,-0.0008869999999999999,-0.143347,-0.311775,-0.024138999999999997
287,-0.298819,-1.3136290000000002,2.011602,-0.07487200000000001,0.9671139999999999,-0.243058,-0.862167,-0.22215900000000002,0.038894,-0.05646,-0.374967,-0.021621
288,-0.31907199999999997,-1.33286,1.994804,-0.07393,0.971826,-0.22378699999999999,-1.0404959999999999,-0.160143,0.135845,-0.001204,-0.391733,-0.017393000000000002
289,-0.3346,-1.355138,1.980263,-0.070267,0.976836,-0.202106,-1.136423,-0.028162,0.247169,0.02002,-0.365141,-0.022915
290,-0.344244,-1.3792309999999999,1.973271,-0.064249,0.981707,-0.179206,-1.175417,-0.265044,0.378592,-0.027089999999999996,-0.334277,-0.022866
291,-0.35646,-1.404094,1.969634,-0.057895,0.986137,-0.155479,-1.169979,-0.46114799999999995,0.397041,-0.020734,-0.347557,-0.005151
292,-0.36486599999999997,-1.4284709999999998,1.964745,-0.050604,0.9898889999999999,-0.132482,-1.156981,0.044862,0.384733,-0.078913,-0.154791,0.048101
293,-0.374743,-1.451463,1.9506759999999999,-0.043564,0.9928879999999999,-0.110758,-1.015297,0.17033099999999998,0.3204,-0.23458800000000002,0.053253999999999996,-0.07248500000000001
294,-0.371094,-1.46561,1.9504599999999999,-0.038060000000000004,0.9944729999999999,-0.09780900000000001,-0.41143599999999997,0.289081,0.203757,-0.259548,-0.027569,-0.109695
295,-0.347075,-1.4689,1.967913,-0.034587,0.994813,-0.095618,-0.015055,0.33171,0.122082,-0.078481,-0.247865,-0.245187
296,-0.311554,-1.469592,1.999752,-0.030958,0.994883,-0.096131,0.041237,0.12132000000000001,0.206066,0.053785,-0.301707,-0.306656
297,-0.24824899999999997,-1.466433,2.0618220000000003,-0.025587000000000002,0.994559,-0.10094600000000001,0.42576099999999995,0.046219,0.271873,-0.007143000000000001,-0.37961500000000004,-0.356589
298,-0.18349000000000001,-1.4538,2.125944,-0.021293,0.9931639999999999,-0.11474000000000001,0.742065,0.060425,0.174719,-0.008584,-0.359802,-0.227179
299,-0.144905,-1.448028,2.166225,-0.017679,0.9924729999999999,-0.121146,-0.026423000000000002,-0.193853,0.227361,0.052743,-0.271755,-0.015283000000000001
300,-0.12004300000000001,-1.459934,2.199994,-0.013244999999999998,0.9938610000000001,-0.109805,-0.837152,-0.582234,0.28628899999999996,-0.00047300000000000006,-0.23197399999999999,-0.070325
301,-0.10574800000000001,-1.479868,2.226832,-0.00958,0.995869,-0.090255,-0.9014780000000001,-0.501763,0.198143,-0.383883,-0.003971,-0.187577
302,-0.115324,-1.48404,2.20922,-0.009965,0.996239,-0.086029,0.26648,0.913739,-0.218529,-0.5290819999999999,0.5103989999999999,-0.064117
303,-0.131858,-1.47033,2.17137,-0.013182,0.994958,-0.09938999999999999,0.677905,1.286275,-0.231087,-0.019181999999999998,0.523963,0.415109
304,-0.073011,-1.466594,2.196576,-0.007585,0.994576,-0.103699,-0.109321,1.5969309999999999,0.285376,0.359162,0.263816,0.418702
305,0.020286000000000002,-1.473483,2.2860270000000003,0.00197,0.9952690000000001,-0.09710099999999999,-0.40422600000000003,-0.414184,0.509152,0.462279,0.120301,0.068704
306,0.146592,-1.47958,2.420276,0.013299,0.995843,-0.090074,-0.052797000000000004,-0.231473,0.600035,0.031622000000000004,0.713096,-0.46641499999999997
307,0.078927,-1.456696,2.346898,0.008974,0.993498,-0.11346600000000001,1.18448,0.9754780000000001,-0.735624,-0.282198,2.0092950000000003,-0.201552
308,-0.008604,-1.441832,2.2502150000000003,-0.001106,0.9916959999999999,-0.128575,0.7838229999999999,-0.216617,-0.375836,0.004967,0.713276,-0.088939
309,-0.043814,-1.430266,2.219432,-0.0061340000000000006,0.990142,-0.139908,0.399183,-0.027984,-0.062571,0.061172000000000004,-0.171966,0.025635
310,0.000953,-1.431561,2.260535,0.000132,0.9903219999999999,-0.138759,-0.414879,0.24548499999999998,0.45268400000000003,-0.055552,-0.473416,0.074337
311,0.094819,-1.450231,2.353361,0.011384,0.992741,-0.11970399999999999,-1.1911559999999999,-0.003747,0.582178,-0.089509,-0.427433,0.040175
312,0.215164,-1.473286,2.472902,0.020778,0.99525,-0.095075,-1.219058,0.209248,0.355247,-0.09695,-0.0218,-0.016436000000000003
313,0.341735,-1.4946979999999999,2.5908599999999997,0.025461,0.9971059999999999,-0.071582,-1.144858,0.567897,0.11068599999999999,-0.020273,0.155223,0.011982
314,0.49487200000000003,-1.514701,2.733582,0.026593000000000002,0.9984270000000001,-0.049276,-1.060533,0.46153999999999995,-0.005025,0.076221,0.048601,-0.005991
315,0.689348,-1.530783,2.920545,0.02538,0.9992,-0.030792,-0.812949,0.36630999999999997,-0.11426800000000001,0.11852599999999999,-0.16549,-0.07692
316,0.8704049999999999,-1.542257,3.094661,0.021707,0.9995930000000001,-0.018298,-0.5021140000000001,0.328427,-0.23382600000000003,0.05676900000000001,-0.233571,-0.140698
317,0.981318,-1.551175,-3.0821959999999997,0.016127000000000002,0.999807,-0.010785,-0.298597,0.194863,-0.309145,0.038073,-0.21658899999999998,-0.268725
318,0.8666280000000001,-1.5582639999999999,3.082051,0.009307,0.999922,-0.007906,-0.046294999999999996,0.259169,-0.35874,0.037232,-0.248457,-0.351881
319,0.18304,-1.560476,2.390298,0.0018039999999999998,0.9999469999999999,-0.009745,0.178791,0.456662,-0.391604,0.071576,-0.36025300000000005,-0.296529
320,-0.354871,-1.5532700000000002,1.8406900000000002,-0.0060079999999999995,0.9998459999999999,-0.016212,0.41119700000000003,0.645508,-0.399836,0.117671,-0.43611000000000005,-0.11571500000000001
321,-0.482655,-1.540252,1.701356,-0.014112999999999999,0.999534,-0.026933999999999996,0.568364,0.44271800000000006,-0.439071,0.169509,-0.40673000000000004,-0.082166
322,-0.552851,-1.526355,1.631632,-0.023281,0.9990129999999999,-0.037731,0.528706,-0.32514699999999996,-0.454388,0.19447,-0.317601,-0.151219
323,-0.572234,-1.5122360000000001,1.625881,-0.031655,0.998286,-0.049144,0.625254,-0.7862210000000001,-0.31959499999999996,0.234902,-0.236735,-0.20630300000000001
324,-0.551891,-1.501717,1.6598240000000002,-0.036156,0.9976149999999999,-0.058723000000000004,0.402385,-0.5731470000000001,-0.13128099999999998,0.128167,-0.137706,-0.257531
325,-0.544141,-1.4955100000000001,1.677788,-0.038909,0.997167,-0.064305,0.27574,-0.474814,-0.10345,0.082702,-0.100378,-0.294505
326,-0.550561,-1.489392,1.680241,-0.042515,0.9966879999999999,-0.069256,0.23049299999999998,-0.41149600000000003,-0.180759,0.089863,-0.103546,-0.285313
327,-0.576874,-1.485163,1.6599560000000002,-0.046622000000000004,0.9963360000000001,-0.071648,0.091252,-0.290654,-0.176545,0.1659,-0.07838200000000001,-0.154305
328,-0.593843,-1.481514,1.6478869999999999,-0.049866,0.996017,-0.073861,0.181146,-0.187803,-0.134388,0.08430499999999999,-0.006942,-0.112495
329,-0.56904,-1.472656,1.672277,-0.052774,0.995188,-0.082508,0.618301,0.195364,-0.163872,0.03367,-0.088541,0.08063200000000001
330,-0.501011,-1.455497,1.7332130000000001,-0.055241,0.99336,-0.100876,1.039402,0.389793,-0.133406,0.025166,-0.168638,0.176697
331,-0.41515799999999997,-1.436293,1.8142669999999999,-0.054074000000000004,0.9909680000000001,-0.12268,1.0422870000000002,0.11385799999999999,0.137228,-0.156436,-0.090501,0.19815
332,-0.353288,-1.421353,1.8911919999999998,-0.051503999999999994,0.9888540000000001,-0.13966800000000001,0.84665,-1.285687,0.24981799999999998,-0.199717,0.42549799999999993,-0.24720300000000003
333,-0.297273,-1.3996709999999999,1.9717330000000002,-0.049874,0.9853940000000001,-0.1628,1.5580040000000002,-0.659542,0.225142,-0.20897600000000002,0.765674,-0.256496
334,-0.240856,-1.367042,2.032269,-0.048262,0.9793139999999999,-0.19648800000000002,1.6676959999999998,-0.190401,0.02555,-0.0019089999999999999,0.69694,-0.243209
335,-0.216218,-1.3377430000000001,2.064268,-0.049544,0.972966,-0.225557,1.462417,-0.20281,0.10959,0.116042,0.5325880000000001,-0.129149
336,-0.16134500000000002,-1.3122120000000002,2.1139759999999996,-0.041076999999999995,0.9667530000000001,-0.252379,1.1990530000000001,0.449592,0.49040600000000006,-0.580978,0.720503,-0.362795
337,-0.11213699999999999,-1.294849,2.163668,-0.030487,0.962168,-0.270735,0.863431,-0.108725,0.5432560000000001,-0.24118,0.31964699999999996,-0.145052
338,-0.078797,-1.280115,2.201315,-0.022559,0.9580489999999999,-0.28570500000000004,0.73405,-0.131983,0.34476100000000004,-0.07174,-0.009379,-0.018403
339,-0.074279,-1.26809,2.209263,-0.022122,0.954533,-0.297272,0.53089,-0.189192,-0.090283,-0.012424,-0.045795999999999996,-0.015609
340,-0.09064,-1.2596319999999999,2.195512,-0.027712,0.9519780000000001,-0.30490100000000003,0.302665,-0.126891,-0.287441,-0.032575,-0.091382,-0.020966
341,-0.111034,-1.257709,2.178575,-0.034127,0.9513870000000001,-0.306091,-0.070734,-0.31751599999999996,-0.24494000000000002,-0.133476,-0.191149,0.041427
342,-0.135487,-1.261701,2.1640900000000003,-0.041087,0.952609,-0.3014,-0.307203,-0.612158,-0.150074,-0.12698800000000002,-0.151782,0.08265
343,-0.153784,-1.27088,2.155839,-0.045252999999999995,0.955361,-0.291944,-0.583338,-0.43066000000000004,-0.01123,-0.15176800000000001,-0.099786,0.05639400000000001
344,-0.166431,-1.286325,2.148352,-0.046492,0.95981,-0.276762,-0.887545,-0.182627,0.030124,-0.192781,-0.097078,-0.028887
345,-0.182887,-1.305998,2.136034,-0.047596,0.965145,-0.257338,-1.057593,-0.324579,-0.021088,-0.182568,-0.139736,-0.051744000000000005
346,-0.21356399999999998,-1.328771,2.113796,-0.050794,0.9708549999999999,-0.23421199999999998,-1.242884,-0.524046,-0.061651,0.000669,-0.365233,-0.014613999999999999
347,-0.256251,-1.3552879999999998,2.082147,-0.054196,0.9768680000000001,-0.206846,-1.45155,-0.6119399999999999,-0.011720999999999999,0.138318,-0.44796800000000003,-0.043749
348,-0.303917,-1.385418,2.0464580000000003,-0.055153999999999995,0.982867,-0.17585399999999998,-1.5793549999999998,-0.656813,0.131653,0.163323,-0.49276899999999996,-0.087177
349,-0.353083,-1.415977,2.009916,-0.053314,0.9880389999999999,-0.14466700000000002,-1.502997,-0.646876,0.244337,0.06080599999999999,-0.5271170000000001,-0.005464
350,-0.38621,-1.442295,1.986475,-0.048258999999999996,0.9917549999999999,-0.11868,-1.171756,-0.437497,0.343591,-0.135548,-0.401591,0.002179
351,-0.428109,-1.4672290000000001,1.954178,-0.042901999999999996,0.994642,-0.094014,-1.252507,-0.396602,0.309859,-0.178702,-0.31097199999999997,0.025929
352,-0.49099499999999996,-1.489952,1.890793,-0.038051999999999996,0.996734,-0.07116900000000001,-1.039037,0.21142800000000003,0.185589,-0.271244,-0.019607,0.070619
353,-0.605542,-1.50624,1.770234,-0.036681,0.997917,-0.052984,-0.89896,0.297055,-0.0368,-0.255967,-0.049644,-0.159968
354,-0.807233,-1.5182930000000001,1.560825,-0.037845,0.9986219999999999,-0.036227999999999996,-0.792856,0.38518,-0.0554,-0.23646199999999998,-0.129832,-0.277829
355,-0.9384030000000001,-1.524417,1.421807,-0.037312,0.998925,-0.027342,-0.165805,0.429437,0.054676999999999996,-0.184169,-0.232796,-0.446352
356,-0.768251,-1.519775,1.5801319999999999,-0.035372,0.998699,-0.036607,0.762516,0.720116,0.08429,-0.151456,-0.264812,-0.468368
357,-0.531008,-1.5069860000000002,1.8021509999999998,-0.032253,0.997965,-0.054920000000000004,0.806042,0.739931,0.152935,-0.098103,-0.242304,-0.172375
358,-0.420145,-1.502601,1.902637,-0.027767,0.997676,-0.062153,0.06398999999999999,0.418508,0.190892,-0.088246,-0.234614,-0.076351
359,-0.42413500000000004,-1.5066680000000001,1.8929799999999999,-0.026344,0.997944,-0.058342,-0.224827,0.192732,-0.106733,-0.381859,0.072688,0.019645
360,-0.516049,-1.4975610000000001,1.8012240000000002,-0.036074,0.9973200000000001,-0.063587,0.55345,-0.037736,-0.688524,-0.300672,0.7185159999999999,0.018328999999999998
361,-0.526265,-1.479515,1.781061,-0.045762,0.9958370000000001,-0.078776,0.6123390000000001,1.1279629999999998,-0.279409,0.47403,0.24580100000000002,0.386058
362,-0.47266499999999995,-1.482018,1.8062799999999999,-0.040341,0.9960620000000001,-0.078895,-0.36311,1.029542,0.402907,0.47161499999999995,0.213106,0.14794100000000002
363,-0.339909,-1.494512,1.9403849999999998,-0.025388,0.997092,-0.071792,-0.318815,-0.287013,0.8653069999999999,0.21082800000000002,0.28768299999999997,-0.27607800000000005
364,-0.18464,-1.480365,2.103255,-0.016571000000000002,0.995914,-0.088726,1.7902049999999998,-0.066962,-0.04746,-0.021408,0.765195,-0.6155430000000001
365,-0.187289,-1.450676,2.089412,-0.022306,0.9927940000000001,-0.117704,1.042732,0.239234,-0.31372,0.203382,1.378925,0.12473800000000002
366,-0.21584499999999998,-1.434914,2.0713470000000003,-0.029006,0.9907819999999999,-0.13229200000000002,0.548035,-0.5466409999999999,-0.22537,0.049895999999999996,0.126909,-0.107271
367,-0.200026,-1.431217,2.089502,-0.027638,0.990275,-0.136323,-0.014884999999999999,0.082722,0.315752,-0.130092,-0.5181680000000001,0.137468
368,-0.124748,-1.44516,2.163318,-0.015587,0.992118,-0.1243,-0.998224,0.066491,0.6977369999999999,-0.196327,-0.6180180000000001,0.196459
369,-0.032429,-1.473496,2.2581689999999996,-0.003148,0.9952700000000001,-0.097051,-1.450919,-0.185814,0.516506,-0.196879,-0.427597,0.148305
370,0.035483,-1.500026,2.329174,0.002506,0.997497,-0.070603,-1.2704469999999999,0.009776,0.199185,0.035397000000000005,0.306245,-0.030029000000000004
371,0.118149,-1.5239690000000001,2.4043740000000002,0.0055060000000000005,0.9989040000000001,-0.046385,-1.160952,0.531792,0.096732,0.116,0.218885,-0.051897000000000006
372,0.25249099999999997,-1.5451059999999999,2.528942,0.006371,0.9996700000000001,-0.024694999999999998,-1.045903,0.37632899999999997,-0.01977,0.224311,0.001215,-0.025689
373,0.602342,-1.562749,2.879962,0.004211,0.9999680000000001,-0.006125,-0.845491,-0.287421,-0.17241099999999998,0.23905900000000002,-0.229521,-0.048059
374,-3.004131,-1.561974,-0.7181350000000001,-0.0011359999999999999,0.9999610000000001,0.008216,-0.636185,-0.37285300000000005,-0.301163,0.24424,-0.244819,-0.093055
375,-2.757904,-1.5516370000000002,-0.46814700000000004,-0.007086,0.999816,0.017554,-0.343675,-0.09477200000000001,-0.299476,0.120078,-0.17344600000000002,-0.178702
376,-2.567787,-1.546606,-0.282112,-0.013037,0.999707,0.02017,-0.02034,0.399437,-0.293578,0.027868,-0.172727,-0.20605199999999999
377,-2.3231889999999997,-1.544599,-0.048594,-0.019009,0.999657,0.017794,0.173342,0.534025,-0.285988,0.079708,-0.31848899999999997,-0.220491
378,-2.0746450000000003,-1.5427629999999999,0.195173,-0.024422,0.999607,0.013463999999999999,0.241531,0.067083,-0.25714000000000004,0.1278,-0.37648400000000004,-0.232672
379,-1.766977,-1.540532,0.503541,-0.029554,0.999542,0.005873,0.46726,-0.033838,-0.256502,0.181806,-0.262115,-0.250365
380,-1.446317,-1.536319,0.824606,-0.034095,0.9994059999999999,-0.004266,0.500155,-0.019258,-0.201812,0.20564899999999997,-0.220246,-0.235526
381,-1.200504,-1.53147,1.0733489999999999,-0.03656,0.9992270000000001,-0.014193,0.481254,-0.307297,-0.081934,0.22285500000000003,-0.23142,-0.09234400000000001
382,-1.082128,-1.5277100000000001,1.207482,-0.037954,0.999072,-0.020179,0.24422199999999997,-1.0267309999999998,-0.049553,0.136221,-0.310641,-0.24684899999999999
383,-1.0461280000000002,-1.523844,1.2669569999999999,-0.04055,0.998898,-0.023469999999999998,0.203682,-1.117836,-0.141586,0.14048,-0.282956,-0.355147
384,-1.036849,-1.519068,1.291052,-0.044442,0.998662,-0.026275,0.14243599999999998,-0.563431,-0.20361300000000002,0.19941,-0.166997,-0.205246
385,-1.07492,-1.5136530000000001,1.2642870000000002,-0.050171,0.998368,-0.027141000000000002,0.03152,-0.6775979999999999,-0.32815500000000003,0.18657,-0.068223,-0.11858099999999999
386,-1.12975,-1.5048110000000001,1.227589,-0.059571000000000006,0.9978239999999999,-0.028120999999999997,0.17821099999999998,-0.986281,-0.516878,0.169953,-0.004873,-0.148667
387,-1.115333,-1.49001,1.2562959999999999,-0.07242699999999999,0.9967389999999999,-0.035476,0.594173,-0.430075,-0.643941,0.315454,-0.042988,0.16586199999999998
388,-1.009617,-1.47631,1.364846,-0.07984,0.99554,-0.050187,0.783107,-0.120725,-0.114247,0.11598800000000001,0.066289,0.383179
389,-0.8781479999999999,-1.468756,1.510804,-0.078361,0.994798,-0.065024,0.8575510000000001,-1.0893469999999998,0.158842,-0.36591399999999996,0.35735900000000004,0.065085
390,-0.7556430000000001,-1.455907,1.659361,-0.07858899999999999,0.9934069999999999,-0.08341,1.081817,-1.190725,0.008851000000000001,-0.48601700000000003,0.598176,-0.307566
391,-0.662413,-1.4365459999999999,1.7695919999999998,-0.082301,0.991002,-0.10551700000000001,1.296771,-0.5504979999999999,-0.17633800000000002,-0.29894,0.534404,-0.394941
392,-0.562924,-1.4083379999999999,1.870049,-0.08630399999999999,0.986833,-0.136767,1.6824419999999998,0.278008,-0.174706,0.013581000000000001,0.328917,-0.23002399999999998
393,-0.474732,-1.385326,1.953856,-0.084284,0.98285,-0.163998,1.086678,0.148338,0.267815,0.046350999999999996,0.5482779999999999,-0.06978200000000001
394,-0.384728,-1.3757469999999998,2.045921,-0.072733,0.981038,-0.17962999999999998,0.676088,-0.040746,0.7555029999999999,-0.092794,0.892466,-0.362591
395,-0.294159,-1.368157,2.142043,-0.058346,0.9795389999999999,-0.19259400000000002,0.707972,-0.347487,0.71339,-0.200229,0.45039300000000004,-0.341143
396,-0.242313,-1.35677,2.209668,-0.050960000000000005,0.977184,-0.206175,0.7065670000000001,-0.99913,0.37238499999999997,-0.114933,0.108449,-0.307512
397,-0.252882,-1.346871,2.2306220000000003,-0.055554,0.975033,-0.21498,0.4111,-1.869977,-0.040897,0.10542,-0.14060699999999998,-0.10560699999999999
398,-0.30504000000000003,-1.3423129999999999,2.221056,-0.068021,0.9740110000000001,-0.21603000000000003,0.045533,-2.1833810000000002,-0.203282,0.248288,-0.324414,0.086742
399,-0.371744,-1.344997,2.196297,-0.081319,0.974615,-0.208578,-0.37648899999999996,-2.0647900000000003,-0.190359,0.212315,-0.44208400000000003,0.11896400000000001
400,-0.43733900000000003,-1.355335,2.167242,-0.090543,0.976878,-0.19366,-0.706454,-1.6947880000000002,0.0076879999999999995,0.023541,-0.501139,-0.003117
401,-0.481299,-1.372501,2.1528400000000003,-0.091188,0.980404,-0.174602,-0.9021889999999999,-1.428237,0.385198,-0.056303,-0.487926,0.015224000000000001
402,-0.511926,-1.394468,2.151965,-0.08591900000000001,0.9844940000000001,-0.15291,-0.98565,-1.539462,0.566355,-0.039692000000000005,-0.519208,0.050738
403,-0.539172,-1.416415,2.157109,-0.07893700000000001,0.988107,-0.131934,-0.876396,-1.6624240000000001,0.585436,0.038745,-0.5458609999999999,0.125434
404,-0.566277,-1.43565,2.1655159999999998,-0.072269,0.9908819999999999,-0.113679,-0.744853,-1.868325,0.547094,0.096363,-0.5380010000000001,0.102281
405,-0.5893609999999999,-1.452868,2.180971,-0.06537799999999999,0.9930549999999999,-0.097778,-0.60531,-1.910384,0.554532,0.09844299999999999,-0.48223599999999994,0.062851
406,-0.595689,-1.4682,2.215919,-0.05744199999999999,0.994742,-0.084744,-0.507516,-2.1581490000000003,0.624967,0.032310000000000005,-0.377753,-0.046741000000000005
407,-0.622503,-1.486903,2.228798,-0.048831,0.996483,-0.068038,-0.8826870000000001,-1.6771580000000001,0.545887,-0.125058,-0.353279,0.09088099999999999
408,-0.732816,-1.505264,2.137659,-0.043765,0.9978540000000001,-0.048628,-0.865274,-0.5783659999999999,0.14188,-0.19103699999999998,-0.261464,0.16487000000000002
409,-0.9067639999999999,-1.516724,1.972236,-0.042503,0.9985379999999999,-0.033262,-0.7509279999999999,-0.5955699999999999,0.082881,-0.543389,0.15968,-0.223162
410,-1.119392,-1.5193729999999999,1.790525,-0.046183,0.9986780000000001,-0.022389,-0.082174,-2.217666,-0.309884,-0.666265,0.129755,-0.718197
411,-0.986783,-1.505889,1.9606270000000001,-0.054061,0.9978940000000001,-0.03573,1.175641,-1.2623030000000002,-0.28736799999999996,-0.219804,-0.086273,-0.765814
412,-0.6786399999999999,-1.480672,2.2795349999999996,-0.056469000000000005,0.995942,-0.070025,2.191681,-0.037301999999999995,-0.08635599999999999,-0.20763,-0.11888199999999999,-0.18057
413,-0.48262299999999997,-1.441157,2.478805,-0.059983,0.991609,-0.11448299999999999,1.923604,-0.29116,-0.039833,-0.052047,0.237884,0.070217
414,-0.420926,-1.4237819999999999,2.547153,-0.05984400000000001,0.9892129999999999,-0.133674,0.21733400000000003,-0.13284,-0.057295000000000006,0.387908,0.992812,0.9184180000000001
415,-0.44788100000000003,-1.4305350000000001,2.532577,-0.060529999999999994,0.9901790000000001,-0.12598800000000002,-0.373275,-1.117532,0.28380500000000003,0.7783800000000001,0.704019,-0.059696000000000006
416,-0.399953,-1.437674,2.621945,-0.05167000000000001,0.991152,-0.122226,0.183804,-2.212453,0.8200049999999999,0.699634,0.8229350000000001,-0.315334
417,-0.346911,-1.429391,2.7065740000000003,-0.047907,0.9900190000000001,-0.13251300000000002,0.4705,-1.127056,0.06965700000000001,-0.047628,1.5442069999999999,-0.259776
418,-0.365055,-1.432735,2.706907,-0.049121,0.9904850000000001,-0.128526,-0.40964700000000004,-1.086833,0.09764099999999999,-0.32179,0.171747,0.34124899999999997
419,-0.408841,-1.445553,2.692832,-0.049647000000000004,0.992167,-0.11459200000000001,-0.724486,-1.496225,0.185697,-0.413304,0.039952999999999995,0.176359
420,-0.44482700000000003,-1.461747,2.678877,-0.046814,0.99406,-0.098207,-0.7801170000000001,-0.90859,0.333038,-0.327865,-0.005138,0.011644
421,-0.442342,-1.481487,2.692713,-0.038158,0.996015,-0.080563,-0.978311,-0.360313,0.589461,0.01234,0.139377,0.12159400000000001
422,-0.44562700000000005,-1.5108,2.694134,-0.025813,0.998201,-0.054039,-1.478626,-0.321391,0.61369,0.11251300000000002,0.23091,0.075783
423,-0.485415,-1.539069,2.666434,-0.014736,0.999497,-0.027935,-1.123531,-0.692964,0.5205069999999999,0.251262,-0.073914,-0.040669
424,-0.8423959999999999,-1.5589629999999999,2.318779,-0.008551000000000001,0.9999299999999999,-0.007628,-1.025767,-0.36825,0.218467,0.204489,-0.32811599999999996,0.11125
425,-2.8349330000000004,-1.553475,0.336867,-0.005154,0.99985,0.016277,-1.302287,-0.714304,0.151817,0.177655,-0.388583,0.14485599999999998
426,-3.1036900000000003,-1.526334,0.088554,-0.00168,0.9990120000000001,0.044316,-1.422468,-1.135612,0.12053900000000001,0.12068399999999999,-0.400959,0.056651
427,3.130546,-1.5008,0.06328500000000001,0.000772,0.9975510000000001,0.069871,-1.146743,-1.154189,-0.001425,0.097205,-0.292549,-0.071229
428,3.123443,-1.482615,0.075291,0.0015970000000000001,0.996115,0.08799900000000001,-0.7781560000000001,-0.845309,-0.041975,0.06749400000000001,-0.20335899999999998,-0.136095
429,3.131025,-1.471039,0.097398,0.001052,0.995028,0.09954099999999999,-0.468476,-0.630858,-0.126613,-0.033523000000000004,-0.061526,-0.200264
430,-3.127269,-1.464045,0.12936,-0.001525,0.994308,0.106494,-0.294281,-0.14866300000000002,-0.183698,-0.040223,-0.020293000000000002,-0.181598
431,-3.08794,-1.458815,0.167413,-0.00599,0.9937370000000001,0.111546,-0.24259499999999998,0.147492,-0.23071799999999998,-0.037146,-0.010079000000000001,-0.177265
432,-3.046527,-1.45297,0.207632,-0.011155,0.993066,0.11698499999999999,-0.292164,-0.004497999999999999,-0.273598,-0.05708200000000001,-0.023187,-0.18967799999999999
433,-2.993166,-1.449558,0.263604,-0.01788,0.99266,0.119576,0.002194,-0.171129,-0.41660699999999995,-0.1646,0.046357,-0.110009
434,-2.926443,-1.449676,0.336463,-0.025788,0.992674,0.118004,0.078404,-0.296072,-0.406301,-0.142547,0.166094,-0.2761
435,-2.8776770000000003,-1.4498790000000001,0.386894,-0.031456,0.992698,0.11641099999999999,0.113569,0.12063399999999999,-0.21644499999999997,-0.031456,0.22754699999999997,-0.29786799999999997
436,-2.8422970000000003,-1.453232,0.415422,-0.034572000000000006,0.9930969999999999,0.112041,0.267998,0.44653699999999996,-0.066233,0.248989,0.315283,-0.174328
437,-2.8074049999999997,-1.461101,0.442634,-0.035894,0.9939899999999999,0.103379,0.5434140000000001,0.314267,0.005294,0.13533599999999998,0.453642,0.10391199999999999
438,-2.774909,-1.4761959999999998,0.47258599999999995,-0.033848,0.9955290000000001,0.088135,0.8906149999999999,0.09087999999999999,0.15648900000000002,0.035573,0.275895,0.21418800000000002
439,-2.686341,-1.499115,0.559163,-0.031462000000000004,0.997432,0.06426799999999999,1.391189,0.071286,0.09378099999999999,-0.21714899999999998,-0.021755,0.292055
440,-2.350197,-1.527758,0.893919,-0.030537,0.999074,0.030173000000000002,1.839434,0.050767,0.041389999999999996,-0.301098,-0.11520899999999999,0.27868000000000004
441,-1.440602,-1.5407540000000002,1.8108220000000002,-0.029660000000000002,0.999549,-0.0038829999999999997,1.582487,-0.629024,0.034057,-0.254474,-0.006751000000000001,0.247658
442,-0.764551,-1.526289,2.508064,-0.030739999999999996,0.9990100000000001,-0.03205,1.3843290000000001,-1.153062,-0.079887,-0.17691600000000002,0.162642,0.08187
443,-0.507624,-1.503749,2.77948,-0.032541,0.9977530000000001,-0.058501,1.38824,-0.246671,-0.043633,0.193002,0.455265,-0.086809
444,-0.33616399999999996,-1.4739280000000001,2.941463,-0.031891,0.9953120000000001,-0.091268,1.733989,0.795788,0.034358,0.192139,0.406071,-0.057551
445,-0.2323,-1.4402110000000001,3.030759,-0.029970999999999998,0.9914860000000001,-0.12669,1.7685099999999998,0.6083189999999999,-0.000412,0.134418,0.301559,-0.00095
446,-0.179135,-1.40565,3.079209,-0.029287999999999998,0.9863940000000001,-0.161745,1.734939,0.041634,0.01824,0.048819,-0.009939,0.021883
447,-0.145761,-1.374295,3.120819,-0.028355,0.980756,-0.193153,1.541548,-0.565576,0.186446,0.051716,-0.028133999999999996,0.06943400000000001
448,-0.12002,-1.3477299999999999,-3.120001,-0.026486000000000003,0.975224,-0.21961599999999998,1.258638,-1.003795,0.263011,0.08341599999999999,-0.070484,0.07197200000000001
449,-0.114253,-1.327339,-3.0873209999999998,-0.027481000000000002,0.97051,-0.23947600000000002,0.932399,-1.4468,0.24207199999999998,0.072891,-0.356817,0.09363300000000001
450,-0.12230799999999999,-1.313761,-3.063572,-0.031014,0.967148,-0.252305,0.597179,-1.544503,0.190718,0.07737000000000001,-0.40570100000000003,0.08720499999999999
451,-0.132649,-1.30474,-3.043877,-0.034774,0.964815,-0.26060900000000004,0.406594,-1.441639,0.206346,-0.02028,-0.282915,0.019565
452,-0.141986,-1.300807,-3.0229619999999997,-0.037742000000000005,0.963774,-0.264027,0.11578,-1.503782,0.28130700000000003,-0.030465,-0.232771,0.052739
453,-0.148978,-1.304009,-2.9986599999999997,-0.039129000000000004,0.964623,-0.260703,-0.24227600000000002,-1.561472,0.36647399999999997,-0.034082999999999995,-0.271859,0.039878
454,-0.155583,-1.3130899999999999,-2.973055,-0.039491000000000005,0.9669770000000001,-0.251774,-0.457916,-1.536435,0.419415,-0.018584,-0.283124,-0.012997
455,-0.155835,-1.323865,-2.943364,-0.037935,0.9696670000000001,-0.241456,-0.463848,-1.394882,0.45658000000000004,-0.001967,-0.253023,-0.008513
456,-0.152194,-1.3338079999999999,-2.911773,-0.035592,0.9720489999999999,-0.23205,-0.410183,-1.345976,0.43445900000000004,0.001641,-0.11998299999999999,0.029719
457,-0.148181,-1.338255,-2.879582,-0.034022000000000004,0.9730840000000001,-0.227913,-0.018765,-1.4567350000000001,0.354014,-0.08164,0.260421,-0.056603
458,-0.152318,-1.3368209999999998,-2.850206,-0.035176,0.9727520000000001,-0.22915,0.168514,-1.592573,0.32879,-0.011516,0.520763,-0.005072
459,-0.15176800000000001,-1.336463,-2.82333,-0.035102999999999995,0.972669,-0.229514,0.024252000000000003,-1.208413,0.288835,-0.046883,0.421786,-0.09855
460,-0.156626,-1.333132,-2.7993509999999997,-0.036723,0.971891,-0.232539,0.388969,-1.528015,0.24372199999999997,0.14216099999999998,0.073779,-0.376576
461,-0.156282,-1.3191190000000002,-2.766151,-0.038758999999999995,0.9684959999999999,-0.245984,0.9440129999999999,-1.632517,0.32144,0.25786,-0.145879,-0.194476
462,-0.151016,-1.2983559999999998,-2.726876,-0.04048,0.963117,-0.266011,1.117902,-1.628889,0.329059,0.34561,0.0036799999999999997,0.13614300000000001
463,-0.15298,-1.285467,-2.693623,-0.042891000000000006,0.959569,-0.278177,0.38640599999999997,-1.707589,0.397758,0.210936,0.17361,0.24031999999999998
464,-0.167295,-1.288284,-2.670375,-0.046418,0.960358,-0.274868,-0.31364699999999995,-1.8814400000000002,0.258495,-0.056884000000000004,0.498443,0.20704299999999998
465,-0.210831,-1.2976889999999999,-2.674147,-0.05644400000000001,0.962938,-0.263743,-0.53952,-2.141388,-0.07282999999999999,-0.11871199999999998,0.865294,0.26536
466,-0.277605,-1.3090870000000001,-2.690975,-0.070904,0.965949,-0.248817,-0.588237,-2.729446,-0.026477999999999998,-0.18742799999999998,-0.06880900000000001,0.175743
467,-0.33402,-1.3186440000000001,-2.692556,-0.08179,0.9683780000000001,-0.23569099999999998,-0.41541300000000003,-2.736314,0.208679,-0.221448,-0.23772600000000002,0.260318
468,-0.38484,-1.3303399999999999,-2.686452,-0.089399,0.9712290000000001,-0.22071799999999997,-0.6538189999999999,-2.991516,0.299208,-0.106951,-0.459617,0.44189399999999995
469,-0.459596,-1.349769,-2.691665,-0.09724400000000001,0.9756729999999999,-0.196474,-1.027855,-3.7575529999999997,0.38303400000000004,0.49562,-0.407023,0.511598
470,-0.549068,-1.3740729999999999,-2.7097119999999997,-0.102001,0.980712,-0.166717,-1.2328940000000002,-3.278722,0.43012700000000004,0.600765,-0.12438900000000001,0.49796999999999997
471,-0.641487,-1.4004780000000001,-2.7493060000000002,-0.10141599999999999,0.9855309999999999,-0.13579000000000002,-1.28702,-2.473305,0.45969499999999996,0.27875300000000003,0.341389,0.223223
472,-0.7336050000000001,-1.4254879999999999,-2.794787,-0.096938,0.989461,-0.10753800000000001,-1.113901,-2.31238,0.558974,-0.096375,0.155085,-0.025671
473,-0.807819,-1.447058,-2.822883,-0.089192,0.9923540000000001,-0.08528,-0.766501,-2.328804,0.6351289999999999,-0.183131,0.005586,-0.07222200000000001
474,-0.8591709999999999,-1.4651809999999998,-2.828945,-0.079814,0.9944280000000001,-0.068828,-0.607117,-2.206969,0.664928,-0.159398,-0.300763,0.021038
475,-0.9186540000000001,-1.484185,-2.847302,-0.068727,0.996252,-0.052479,-0.695492,-1.943484,0.651155,0.034989,-0.38606799999999997,0.225544
476,-0.999554,-1.502227,-2.897195,-0.057603999999999995,0.99765,-0.037023,-0.680756,-1.3233540000000001,0.6034609999999999,0.078997,0.075424,0.330893
477,-1.165386,-1.5184600000000001,-3.037011,-0.048026,0.9986309999999999,-0.020612000000000002,-0.812893,-1.4458309999999999,0.44459899999999997,0.038687,0.293545,0.11521600000000001
478,-1.511099,-1.5274889999999999,2.93286,-0.043157999999999995,0.9990620000000001,-0.002579,-0.796751,-1.6982830000000002,0.15982000000000002,0.12966,0.250281,-0.070525
479,-1.7974430000000001,-1.5275809999999999,2.68073,-0.042039,0.999066,0.009695,-0.33311,-1.7142009999999999,0.009255,0.204835,0.02344,-0.093923
480,-1.839347,-1.527976,2.6715619999999998,-0.041216,0.9990829999999999,0.011343,0.12290999999999999,-1.574262,0.049648000000000005,0.23337,-0.125548,0.027415
481,-1.8219580000000002,-1.530675,2.7185200000000003,-0.038784,0.999195,0.009951,0.08154199999999999,-1.4391559999999999,0.131439,0.11983900000000001,-0.180088,0.059736000000000004
482,-1.8644619999999998,-1.5324360000000001,2.704254,-0.036646,0.9992639999999999,0.011082,-0.030883999999999998,-1.38194,0.039782,0.032297,-0.141308,0.036236000000000004
483,-1.8977680000000001,-1.529295,2.695608,-0.03923,0.9991389999999999,0.013305,-0.11895,-1.112984,-0.276303,-0.15623499999999998,-0.069863,0.113755
484,-2.00032,-1.518828,2.613426,-0.047175999999999996,0.99865,0.021609,-0.534659,-0.986115,-0.473786,-0.05517999999999999,-0.11184000000000001,0.046522
485,-2.148748,-1.5043540000000002,2.481194,-0.055572,0.9977940000000001,0.036246,-0.721444,-0.699175,-0.407092,-0.046525,-0.052969,-0.090888
486,-2.223895,-1.492083,2.4148330000000002,-0.062422000000000005,0.9969040000000001,0.047758999999999996,-0.422433,-0.321293,-0.32750799999999997,-0.276934,0.05569299999999999,-0.189696
487,-2.253218,-1.482524,2.3908720000000003,-0.068387,0.996107,0.055576,-0.334318,-0.170373,-0.31640300000000005,-0.08795499999999999,0.198855,-0.145206
488,-2.217777,-1.4757209999999998,2.426339,-0.07572100000000001,0.995484,0.057203,0.11311700000000001,0.089335,-0.38304499999999997,0.656486,0.197647,0.198
489,-2.161003,-1.472907,2.4832080000000003,-0.081174,0.9952129999999999,0.054375,0.082624,-0.074398,-0.170472,0.6952020000000001,0.27624099999999996,0.180779
490,-2.1953270000000003,-1.471013,2.4553689999999997,-0.080788,0.9950260000000001,0.05823,-0.30896399999999996,-0.543832,0.080563,0.199959,0.459976,-0.096361
491,-2.274721,-1.469969,2.388046,-0.076708,0.9949209999999999,0.065126,-0.173827,-0.5223399999999999,0.18295999999999998,-0.11454600000000001,0.176359,-0.086214
492,-2.2409470000000002,-1.475047,2.426014,-0.074902,0.9954200000000001,0.05936,0.583388,-0.050213,0.007115000000000001,-0.008594,0.144488,0.08570599999999999
493,-2.101538,-1.4841540000000002,2.5660819999999998,-0.074597,0.9962489999999999,0.043782,0.857456,-0.041725,0.04427,0.048016,0.140546,0.274425
494,-1.9097,-1.494277,2.765021,-0.07205399999999999,0.997074,0.025399,0.975246,-0.5453979999999999,0.15790099999999999,-0.042158,0.06779099999999999,0.392401
495,-1.642457,-1.50126,3.050639,-0.069253,0.997583,0.004971,1.216784,-1.0039959999999999,0.081127,-0.151831,0.064734,0.20798000000000003
496,-1.247354,-1.49595,-2.8189490000000004,-0.070858,0.9972,-0.023753,1.631937,-0.744531,-0.16306400000000001,-0.10368699999999999,0.056572000000000004,0.145197
497,-0.932999,-1.475746,-2.493122,-0.076223,0.9954860000000001,-0.056491,1.684136,-0.390625,-0.266771,0.005666,0.075177,0.095401
498,-0.732568,-1.4505370000000002,-2.287139,-0.080216,0.992778,-0.089173,1.6400270000000001,-0.10443599999999999,-0.136054,-0.026184,0.09197000000000001,0.133713
499,-0.6022770000000001,-1.424515,-2.156118,-0.082564,0.9893200000000001,-0.12009600000000001,1.500733,0.001505,-0.135027,-0.090257,0.106109,0.140772
500,-0.519582,-1.3973719999999998,-2.068166,-0.085668,0.985,-0.149768,1.548342,-0.308722,-0.118273,-0.009348,0.115479,0.135883
501,-0.463341,-1.369746,-2.0023310000000003,-0.089246,0.979857,-0.17862999999999998,1.464264,-0.496996,-0.115415,0.059141,0.045274,0.140941
502,-0.432329,-1.344347,-1.9588900000000002,-0.094065,0.9744700000000001,-0.203849,1.255675,-0.644239,-0.14232,0.086618,0.013262000000000001,0.156638
503,-0.421066,-1.3229540000000002,-1.9308130000000001,-0.100262,0.9694440000000001,-0.223874,1.028412,-0.875714,-0.133997,0.11310999999999999,-0.002205,0.14612999999999998
504,-0.41736999999999996,-1.304108,-1.910179,-0.106823,0.964649,-0.240905,0.948016,-0.73583,-0.147557,0.068859,-0.10733399999999998,0.126144
505,-0.418774,-1.287144,-1.895011,-0.1138,0.96004,-0.255671,0.8368270000000001,-0.792945,-0.153601,-0.009415,-0.253298,0.165827
506,-0.41813,-1.271563,-1.879965,-0.11969500000000001,0.9555629999999999,-0.269383,0.758354,-0.626731,-0.093474,-0.024363,-0.265133,0.169972
507,-0.4169,-1.26044,-1.865487,-0.12365999999999999,0.952225,-0.279231,0.47497799999999996,-0.658157,0.018887,-0.054486,-0.299622,0.11783900000000001
508,-0.41873599999999994,-1.256557,-1.8530330000000002,-0.125675,0.951032,-0.28238,0.129701,-0.6819609999999999,0.143624,-0.046154,-0.303632,0.008302
509,-0.42379399999999995,-1.259184,-1.8419439999999998,-0.126074,0.9518399999999999,-0.279463,-0.152116,-0.849714,0.24762399999999998,0.032019,-0.298581,-0.010409
510,-0.43126099999999995,-1.2677120000000002,-1.832482,-0.124759,0.95442,-0.271129,-0.42319399999999996,-0.765033,0.351376,0.127719,-0.261,-0.007115000000000001
511,-0.433587,-1.280014,-1.8202040000000002,-0.120447,0.9580200000000001,-0.260162,-0.46812299999999996,-0.6864680000000001,0.456716,0.041757,-0.067273,-0.084092
512,-0.42927200000000004,-1.290278,-1.7992700000000001,-0.11522400000000001,0.9609120000000001,-0.251723,-0.223617,-0.853618,0.486412,-0.045817000000000004,0.086436,-0.061646000000000006
513,-0.416386,-1.292355,-1.766434,-0.11116400000000001,0.961485,-0.251362,0.238841,-1.044593,0.424725,-0.05264,0.157396,-0.075665
514,-0.401368,-1.286872,-1.727081,-0.10943399999999999,0.9599639999999999,-0.257852,0.625035,-1.100063,0.375151,-0.080263,0.28288,0.019844999999999998
515,-0.380186,-1.275652,-1.685534,-0.10793900000000001,0.95676,-0.270097,0.753305,-0.8744059999999999,0.309528,-0.066759,0.135937,0.008348000000000001
516,-0.36084299999999997,-1.2652780000000001,-1.6492759999999997,-0.10619300000000001,0.953691,-0.281406,0.638736,-0.715334,0.322411,-0.022072,-0.090792,-0.066586
517,-0.341046,-1.256283,-1.61352,-0.103467,0.950947,-0.291526,0.575455,-0.733455,0.380743,0.06489299999999999,0.027614,-0.067376
518,-0.32665500000000003,-1.2487979999999999,-1.581955,-0.101542,0.9486049999999999,-0.299718,0.43648000000000003,-0.8584200000000001,0.316907,0.09701,0.165775,0.046651
519,-0.322874,-1.2458559999999999,-1.559397,-0.101293,0.9476700000000001,-0.302745,0.23513499999999998,-0.8404799999999999,0.267408,-0.167445,0.48944899999999997,0.229625
520,-0.32852800000000004,-1.237108,-1.545442,-0.105674,0.9448409999999999,-0.310004,0.599348,-1.076927,-0.058758000000000005,-0.172234,0.708831,0.365286
521,-0.37098000000000003,-1.229417,-1.5535430000000001,-0.121366,0.9422940000000001,-0.31200300000000003,0.055532000000000005,-2.201123,-0.303602,0.002012,0.23885900000000002,0.360496
522,-0.44299099999999997,-1.2358559999999998,-1.5780889999999999,-0.140896,0.9444299999999999,-0.29697399999999996,-0.66513,-2.4727069999999998,-0.22710300000000003,0.52528,-0.301272,0.35714
523,-0.510954,-1.247126,-1.604256,-0.155523,0.948075,-0.277417,-0.696338,-1.8385759999999998,-0.007012000000000001,0.49590100000000004,-0.266831,0.41671400000000003
524,-0.5538109999999999,-1.262055,-1.619022,-0.159804,0.952717,-0.258431,-0.774092,-1.295066,0.271623,0.129667,0.205197,0.240486
525,-0.578771,-1.27437,-1.621326,-0.159773,0.9563870000000001,-0.24452,-0.362257,-1.021791,0.306196,0.000654,0.397068,0.180509
526,-0.583306,-1.285401,-1.6106340000000001,-0.155059,0.95955,-0.23497300000000002,-0.472463,-0.627107,0.5345880000000001,-0.076447,0.19831700000000002,0.10757699999999999
527,-0.585553,-1.303024,-1.597641,-0.146217,0.964363,-0.220493,-0.683116,-0.8399530000000001,0.6647810000000001,-0.06021900000000001,0.038491000000000004,0.039921
528,-0.586601,-1.319725,-1.581772,-0.137512,0.9686469999999999,-0.206895,-0.499997,-0.756162,0.597586,0.051588999999999996,-0.11589400000000001,0.03293
529,-0.580695,-1.3316620000000001,-1.5608879999999998,-0.129934,0.971543,-0.198021,-0.262535,-0.709756,0.508387,0.148061,-0.197251,0.052223
530,-0.569064,-1.3399590000000001,-1.5338,-0.12327300000000001,0.973475,-0.19272,-0.16011199999999998,-0.7334510000000001,0.484563,0.211759,-0.210139,0.09170700000000001
531,-0.557687,-1.347672,-1.508426,-0.117094,0.975211,-0.18773199999999998,-0.177424,-0.620189,0.41379499999999997,0.22205999999999998,-0.146109,0.11243
532,-0.550686,-1.353574,-1.489742,-0.11276300000000002,0.9765,-0.18363800000000002,-0.101742,-0.529374,0.28174699999999997,0.197144,-0.107878,0.08572300000000001
533,-0.5415770000000001,-1.354733,-1.4712530000000001,-0.110502,0.976749,-0.18368900000000002,0.161938,-0.382778,0.156283,0.169508,-0.09038099999999999,0.105502
534,-0.523859,-1.350019,-1.447843,-0.10953299999999999,0.975727,-0.189603,0.433062,-0.201215,0.071418,0.103246,-0.130833,0.09183999999999999
535,-0.505005,-1.341118,-1.4241219999999999,-0.11013699999999998,0.9737399999999999,-0.199229,0.531454,-0.260762,-0.04105,-0.017853,-0.224106,0.052561000000000004
536,-0.504017,-1.328425,-1.41337,-0.115901,0.970772,-0.210144,0.7124510000000001,-0.591696,-0.289325,-0.022771,-0.368767,0.019944
537,-0.503369,-1.309169,-1.4013950000000002,-0.124761,0.9659700000000001,-0.226556,1.007658,-0.460491,-0.322683,0.012426000000000001,-0.43807700000000005,-0.000877
538,-0.49117799999999995,-1.288646,-1.383059,-0.13131500000000002,0.9604590000000001,-0.245493,0.98626,-0.168803,-0.25484,-0.008395,-0.44378100000000004,0.046564
539,-0.486834,-1.272534,-1.374291,-0.13747,0.955849,-0.259706,0.613657,-0.254743,-0.28510599999999997,0.033939,-0.40612,0.087144
540,-0.49891199999999997,-1.263675,-1.37828,-0.144643,0.9532079999999999,-0.265453,0.240994,-0.517814,-0.241439,0.157583,-0.323371,0.063641
541,-0.514809,-1.258127,-1.38305,-0.151446,0.951516,-0.267719,0.230855,-0.568125,-0.172011,0.287752,-0.222527,0.094822
542,-0.5220899999999999,-1.2533219999999998,-1.379543,-0.155669,0.9500270000000001,-0.270569,0.187797,-0.473887,0.008097,0.24426199999999998,-0.16683900000000002,0.160706
543,-0.528229,-1.253863,-1.375237,-0.157068,0.9501959999999999,-0.269164,-0.045728,-0.620337,0.070747,0.17222,-0.06564400000000001,0.141265
544,-0.535749,-1.252794,-1.3704610000000002,-0.159606,0.9498620000000001,-0.268849,0.180315,-0.46963,0.015517,0.18106,0.007444,0.163136
545,-0.5308039999999999,-1.246225,-1.360956,-0.161431,0.947787,-0.275011,0.505736,-0.083694,-0.076708,0.206002,-0.081958,0.30948000000000003
546,-0.510566,-1.231112,-1.341078,-0.16281400000000001,0.94286,-0.290686,0.987941,0.148979,-0.07256900000000001,0.310977,-0.062091999999999994,0.460242
547,-0.47693500000000005,-1.2118659999999999,-1.307934,-0.161249,0.9362729999999999,-0.312062,1.1456899999999999,0.043367,0.09424199999999999,0.24093,0.07778,0.42555699999999996
548,-0.450496,-1.1925649999999999,-1.271788,-0.16078299999999998,0.929319,-0.332425,1.123733,-0.6644720000000001,0.237069,-0.22486799999999998,0.733019,-0.044391
549,-0.424418,-1.174297,-1.2327620000000001,-0.159026,0.9224180000000001,-0.351919,1.179296,-0.137489,0.270965,-0.164964,0.834097,-0.11310799999999999
550,-0.392857,-1.154568,-1.2023629999999998,-0.154779,0.9146200000000001,-0.373504,1.062883,0.08115499999999999,0.040204000000000004,-0.133444,0.8208989999999999,-0.031068000000000002
551,-0.367446,-1.1392129999999998,-1.182149,-0.150267,0.9083049999999999,-0.390378,0.789866,0.7875479999999999,0.24783200000000002,0.081237,0.818395,-0.24602
552,-0.31485100000000005,-1.130226,-1.1496520000000001,-0.13205999999999998,0.904508,-0.405484,0.5952609999999999,1.029747,0.586925,-0.518025,0.8336809999999999,-0.07498400000000001
553,-0.280888,-1.122825,-1.120316,-0.12006700000000001,0.901328,-0.416155,0.49918900000000005,0.099861,0.37914200000000003,-0.11673399999999999,0.233423,-0.190992
554,-0.276624,-1.114507,-1.111987,-0.120335,0.8976940000000001,-0.423861,0.44084700000000004,-0.335708,-0.134522,0.030949,0.090267,-0.061567
555,-0.29734099999999997,-1.104956,-1.121434,-0.131596,0.893444,-0.42945600000000006,0.321855,-0.745348,-0.42004300000000006,0.183568,-0.039211,0.244321
556,-0.33214,-1.102099,-1.1407129999999999,-0.14729,0.892157,-0.427029,-0.2347,-0.9212319999999999,-0.44186499999999995,0.243664,-0.375327,0.276074
557,-0.370924,-1.110931,-1.165373,-0.160874,0.8961120000000001,-0.413637,-0.760365,-0.730272,-0.321868,0.181016,-0.426233,0.224885
558,-0.399552,-1.125386,-1.187149,-0.16759100000000002,0.9024340000000001,-0.396886,-0.896214,-0.29096900000000003,-0.040301,-0.006664,-0.32348499999999997,0.136251
559,-0.41203,-1.144739,-1.196809,-0.16550399999999998,0.910602,-0.378688,-1.009352,-0.17061600000000002,0.329427,-0.076592,-0.322101,0.14415999999999998
560,-0.416177,-1.1683729999999999,-1.1968889999999999,-0.158327,0.920115,-0.358209,-1.130015,-0.224293,0.536957,-0.034010000000000006,-0.351191,0.135751
561,-0.41820799999999997,-1.193814,-1.1939170000000001,-0.149496,0.9297799999999999,-0.336381,-1.1143040000000002,-0.253256,0.5734229999999999,0.10079,-0.37312399999999996,0.121583
562,-0.42023599999999994,-1.216744,-1.189281,-0.14144,0.937976,-0.31652399999999997,-0.958677,-0.339861,0.518005,0.160117,-0.336642,0.22790100000000002
563,-0.42133999999999994,-1.238444,-1.184187,-0.133432,0.9452780000000001,-0.29772,-0.96047,-0.248304,0.533899,0.033319,-0.30240900000000004,0.272436
564,-0.421019,-1.2604360000000001,-1.181157,-0.12480899999999999,0.952224,-0.27871799999999997,-1.035134,-0.098536,0.44131800000000004,-0.056649,-0.24854899999999996,0.19256700000000002
565,-0.439064,-1.285102,-1.194985,-0.11979400000000001,0.9594659999999999,-0.255077,-1.263443,-0.273865,0.262623,-0.072742,-0.067315,0.19009
566,-0.46543599999999996,-1.307174,-1.218105,-0.116943,0.9654520000000001,-0.232843,-1.02798,-0.195502,0.175505,-0.08708300000000001,-0.163145,0.008326
567,-0.49245200000000006,-1.32415,-1.241997,-0.115423,0.9697370000000001,-0.21512399999999998,-0.7991729999999999,-0.16084400000000001,0.101215,-0.07093300000000001,-0.191935,-0.060007000000000005
568,-0.505488,-1.3346850000000001,-1.255287,-0.113264,0.972255,-0.20465,-0.357535,0.085739,0.126414,-0.062502,-0.254909,-0.171708
569,-0.492142,-1.336436,-1.245555,-0.10971800000000001,0.9726629999999999,-0.20464300000000002,0.188361,0.25954699999999997,0.14389100000000002,-0.052437,-0.25340999999999997,-0.182594
570,-0.45729,-1.3291959999999998,-1.21643,-0.105627,0.9709559999999999,-0.21465599999999999,0.594286,0.361508,0.134845,-0.021021,-0.257852,-0.110372
571,-0.42585500000000004,-1.324003,-1.191583,-0.100911,0.969701,-0.22246,0.074475,0.353553,0.17715799999999998,0.030049,-0.21960900000000003,0.282885
572,-0.43077299999999996,-1.334714,-1.2010530000000001,-0.097661,0.9722620000000001,-0.21251,-0.8202889999999999,0.066372,0.043089999999999996,-0.24862199999999998,0.079756,0.536775
573,-0.48563599999999996,-1.345216,-1.25345,-0.104393,0.974665,-0.197792,-0.548076,-0.505254,-0.565299,-0.25035799999999997,0.766409,0.208168
574,-0.556686,-1.3317430000000001,-1.307345,-0.1251,0.971563,-0.201015,0.614731,-0.285729,-0.793536,0.605157,0.543696,0.441539
575,-0.509338,-1.328181,-1.3008469999999999,-0.11713299999999999,0.9707129999999999,-0.209731,0.002053,2.633033,0.292304,0.352759,0.628973,-0.029144999999999997
576,-0.44364499999999996,-1.3298379999999999,-1.251555,-0.102421,0.97111,-0.21551399999999998,0.27851,-0.034815,0.68435,0.364216,0.366689,-0.11514400000000001
577,-0.37848899999999996,-1.33012,-1.180894,-0.08807100000000001,0.9711770000000001,-0.221471,0.616092,-0.13203299999999998,0.727425,-0.044406,1.622695,-0.5731
578,-0.326728,-1.3069870000000001,-1.133756,-0.08368400000000001,0.965404,-0.24694899999999997,1.2123059999999999,0.6639109999999999,-0.100507,0.118047,0.9808399999999999,-0.037765
579,-0.31126,-1.290374,-1.11969,-0.084756,0.960939,-0.263448,0.7265149999999999,-0.36345700000000003,-0.101515,-0.02317,0.098372,0.152776
580,-0.31218,-1.2833629999999998,-1.114989,-0.087065,0.958975,-0.269775,0.10941500000000001,-0.055184000000000004,0.064695,0.04045,-0.29697199999999996,0.238159
581,-0.297164,-1.290563,-1.102044,-0.080981,0.960991,-0.264444,-0.5323869999999999,0.142793,0.395379,0.042819,-0.479652,0.218698
582,-0.27691,-1.309882,-1.08365,-0.07051900000000001,0.9661549999999999,-0.248121,-0.982203,0.12573299999999998,0.522582,0.016548,-0.399748,0.244825
583,-0.266318,-1.329523,-1.073801,-0.06287999999999999,0.9710340000000001,-0.23049899999999998,-0.8571059999999999,-0.026182999999999998,0.31000700000000003,0.092054,0.206395,0.087585
584,-0.27222199999999996,-1.344739,-1.0786129999999998,-0.060259,0.974558,-0.215865,-0.644784,-0.066277,0.02953,0.205965,0.099249,0.028411000000000002
585,-0.29393400000000003,-1.353424,-1.101709,-0.062477,0.976468,-0.206396,-0.43687600000000004,0.169266,-0.179759,0.317222,-0.088253,0.095724
586,-0.315265,-1.359704,-1.132442,-0.064962,0.9778030000000001,-0.199182,-0.345467,0.515373,-0.23190700000000003,0.206731,-0.179585,0.07731
587,-0.337834,-1.360403,-1.1630850000000001,-0.069214,0.977949,-0.197021,-0.016516,0.24515599999999999,-0.341426,0.016449000000000002,-0.293501,-0.132279
588,-0.365624,-1.355361,-1.194754,-0.076424,0.976883,-0.199625,0.17561500000000002,0.181971,-0.424393,0.03492,-0.381791,-0.172354
589,-0.38513000000000003,-1.3483530000000001,-1.2210969999999999,-0.082873,0.975361,-0.20443599999999998,0.262664,0.382761,-0.363153,0.075839,-0.483616,-0.125749
590,-0.388662,-1.339245,-1.234866,-0.08695800000000001,0.9733120000000001,-0.212356,0.407069,0.542806,-0.285438,0.21867199999999998,-0.6468189999999999,0.162185
591,-0.387318,-1.330275,-1.239774,-0.08996699999999999,0.9712139999999999,-0.220548,0.352041,0.025956,-0.190088,0.23503200000000002,-0.51551,0.105848
592,-0.402744,-1.324181,-1.2437200000000002,-0.095676,0.969744,-0.22457600000000003,0.24434699999999998,-0.867605,-0.148035,0.221546,-0.379183,0.038127999999999995
593,-0.42418500000000003,-1.3176290000000002,-1.245327,-0.103082,0.968124,-0.22825900000000002,0.30166,-0.9370360000000001,-0.15075,0.11583900000000001,-0.096435,-0.14256
594,-0.43927200000000005,-1.311765,-1.2488920000000001,-0.108927,0.9666389999999999,-0.231814,0.202002,-0.357038,-0.186372,0.104518,-0.10644,-0.034925
595,-0.45705200000000007,-1.307064,-1.262864,-0.11503599999999999,0.965424,-0.23391599999999999,0.115843,-0.19534400000000002,-0.320709,0.080765,-0.162628,0.016112
596,-0.481887,-1.299023,-1.284139,-0.124403,0.9632959999999999,-0.23785900000000001,0.324437,-0.24332199999999998,-0.491174,0.183348,-0.144815,0.22994
597,-0.5021220000000001,-1.285843,-1.299231,-0.13529000000000002,0.959675,-0.246402,0.5995050000000001,-0.241263,-0.445459,0.24490900000000002,0.022427000000000002,0.395954
598,-0.49102799999999996,-1.268905,-1.2829899999999999,-0.140194,0.9547760000000001,-0.262187,1.0246520000000001,-0.402156,-0.006448000000000001,-0.175953,1.017087,0.100352
599,-0.470671,-1.2488540000000001,-1.235044,-0.143483,0.948623,-0.281996,1.426556,-1.474899,0.1804,-0.31811100000000003,0.932634,0.007734
600,-0.419783,-1.217862,-1.1758620000000002,-0.140871,0.938362,-0.315634,1.91855,0.554483,0.278444,-0.33395199999999997,0.55027,0.184332
601,-0.362761,-1.186994,-1.1274870000000001,-0.132873,0.9272469999999999,-0.350073,1.610239,0.190695,0.14536500000000002,0.064315,0.351668,0.31659499999999996
602,-0.334991,-1.164307,-1.093278,-0.129985,0.918515,-0.373402,1.093065,-0.0033380000000000003,0.36526,0.230266,0.674793,0.14101
603,-0.285238,-1.154426,-1.050131,-0.113803,0.9145629999999999,-0.38809499999999997,0.5333939999999999,0.567701,0.837046,-0.042386,1.318759,-0.44784300000000005
604,-0.24004299999999998,-1.1476709999999999,-1.004341,-0.09761900000000001,0.91181,-0.398832,0.642358,-0.026494999999999998,0.685813,0.104974,0.340616,-0.10861400000000002
605,-0.225233,-1.135397,-0.982593,-0.094194,0.906702,-0.411113,0.664343,-0.49283599999999994,0.072336,0.186647,0.203574,-0.151921
606,-0.242968,-1.12506,-0.984282,-0.10372,0.902294,-0.41845299999999996,0.39461799999999997,-0.776071,-0.25819699999999995,0.225714,0.054158000000000005,0.077831
607,-0.265509,-1.1203459999999998,-1.000381,-0.11424000000000001,0.900251,-0.420109,-0.062194000000000006,-0.306012,-0.462816,-0.089862,-0.126051,0.09942999999999999
608,-0.300886,-1.124736,-1.027197,-0.127855,0.9021540000000001,-0.412026,-0.502582,-0.749675,-0.486688,-0.148421,-0.158181,0.157708
609,-0.341986,-1.133229,-1.054068,-0.142101,0.9057850000000001,-0.399192,-0.623948,-0.794536,-0.35181399999999996,-0.149677,-0.19739600000000002,0.17140899999999998
610,-0.373303,-1.144102,-1.076537,-0.15093,0.9103389999999999,-0.385353,-0.694344,-0.394386,-0.19258499999999998,-0.169168,-0.3582,0.24329299999999998
611,-0.395654,-1.157045,-1.0952309999999998,-0.15495,0.9156190000000001,-0.370979,-0.784845,-0.226268,-0.065246,-0.036929000000000003,-0.422516,0.263588
612,-0.416013,-1.173254,-1.113019,-0.156452,0.9220149999999999,-0.354124,-0.959075,-0.193063,0.040316000000000005,0.026095999999999998,-0.436404,0.228392
613,-0.43611300000000003,-1.194774,-1.130824,-0.155119,0.930133,-0.33284400000000003,-1.211463,-0.164078,0.203022,0.16702,-0.523684,0.16988
614,-0.454604,-1.221121,-1.14689,-0.15043099999999998,0.939484,-0.307789,-1.339158,-0.169595,0.361302,0.153147,-0.593964,0.193241
615,-0.46925,-1.24866,-1.158305,-0.143164,0.9485610000000001,-0.28236300000000003,-1.3049,-0.248015,0.49517,0.109992,-0.622633,0.184081
616,-0.48918900000000004,-1.277803,-1.169809,-0.135713,0.957384,-0.254934,-1.458972,-0.579857,0.497724,-0.012129000000000001,-0.668474,0.166036
617,-0.525413,-1.3094940000000002,-1.19641,-0.12956800000000002,0.9660540000000001,-0.22348099999999999,-1.60389,-0.399994,0.399273,-0.032099,-0.577749,0.264054
618,-0.5869479999999999,-1.3414139999999999,-1.252183,-0.125917,0.973807,-0.189307,-1.755526,-0.395456,0.195246,0.032289,-0.24779400000000001,0.17446099999999998
619,-0.6740510000000001,-1.368157,-1.334496,-0.125603,0.9795389999999999,-0.157226,-1.448038,-0.295658,0.010334999999999999,0.020316999999999998,0.00476,-0.090226
620,-0.757788,-1.386667,-1.41539,-0.125827,0.9830959999999999,-0.132974,-1.068876,-0.127903,0.08754400000000001,-0.001248,0.08894099999999999,-0.28821399999999997
621,-0.783503,-1.401759,-1.4446450000000002,-0.118717,0.9857469999999999,-0.11916800000000001,-0.487994,0.372375,0.482997,-0.182842,-0.077468,-0.35843200000000003
622,-0.7237600000000001,-1.4108479999999999,-1.397985,-0.105452,0.9872350000000001,-0.119324,0.258214,0.832677,0.6093970000000001,-0.293642,-0.038413,-0.119781
623,-0.567936,-1.395003,-1.26655,-0.09406,0.9845879999999999,-0.14741600000000002,1.965185,1.617667,0.22507199999999997,-0.333918,0.42312700000000003,0.407029
624,-0.447354,-1.355277,-1.171107,-0.092502,0.976865,-0.192794,2.000625,0.833779,-0.376153,-0.132687,1.570376,0.64659
625,-0.47226,-1.3262610000000001,-1.190239,-0.110126,0.97025,-0.21559099999999998,0.6183029999999999,-0.9736950000000001,-0.850305,0.669651,0.11263599999999999,0.47578400000000004
626,-0.505081,-1.326427,-1.221252,-0.11706400000000002,0.97029,-0.211721,-0.364745,0.46347200000000005,-0.026868,0.299804,0.309892,-0.324854
627,-0.451838,-1.316905,-1.1738819999999999,-0.109661,0.967942,-0.22595300000000001,1.583823,0.113651,0.25104099999999996,-0.298802,2.064666,-0.742858
628,-0.41378100000000007,-1.283344,-1.128206,-0.11398699999999999,0.9589690000000001,-0.259573,0.8850899999999999,0.174285,-0.186547,0.290867,0.48786899999999994,0.269018
629,-0.411645,-1.2843360000000001,-1.133737,-0.113052,0.95925,-0.258944,-0.23413,0.267248,-0.08659299999999999,0.033416,0.129694,-0.039686
630,-0.419842,-1.28359,-1.142973,-0.115462,0.959039,-0.25866100000000003,0.029263,-0.053034000000000005,-0.13989100000000002,0.066771,0.07677300000000001,-0.050131
631,-0.42717,-1.285475,-1.149206,-0.116605,0.959571,-0.256162,-0.20828000000000002,-0.031609,0.035748,0.11600999999999999,0.119591,0.025175
632,-0.42458,-1.292598,-1.14878,-0.113122,0.9615520000000001,-0.250228,-0.39917199999999997,0.16222899999999998,0.21149099999999998,0.242731,0.307369,0.170882
633,-0.423141,-1.305053,-1.149869,-0.10783599999999999,0.9648979999999999,-0.23945100000000002,-0.682451,0.0789,0.250211,0.340364,0.242225,0.181498
634,-0.43178,-1.320338,-1.157111,-0.10371500000000002,0.968799,-0.225088,-0.707957,-0.183943,0.2023,0.215211,0.00048499999999999997,0.14066099999999998
635,-0.45096499999999995,-1.332537,-1.171124,-0.102855,0.97175,-0.212402,-0.60107,-0.29235900000000004,0.049361,0.121608,-0.192301,0.155807
636,-0.482441,-1.34439,-1.198033,-0.104137,0.9744790000000001,-0.19884200000000002,-0.7147060000000001,-0.252243,-0.027327999999999998,0.064342,-0.270561,0.131261
637,-0.522116,-1.357517,-1.2344870000000001,-0.10555199999999999,0.977342,-0.18345,-0.7889550000000001,-0.166718,-0.038638,0.080177,-0.189164,0.102014
638,-0.565314,-1.36989,-1.2776459999999998,-0.10688900000000001,0.979886,-0.168494,-0.719703,0.019584,-0.068303,0.070832,-0.104734,0.029501
639,-0.606322,-1.378474,-1.32236,-0.10890799999999999,0.981563,-0.157051,-0.499692,0.21202,-0.164221,0.039313,-0.063426,-0.058342
640,-0.631935,-1.380326,-1.3558430000000001,-0.11182,0.981915,-0.15274200000000002,-0.1013,0.49315,-0.217346,0.019733,-0.1069,-0.084715
641,-0.623939,-1.375691,-1.3643290000000001,-0.11325299999999999,0.9810270000000001,-0.157324,0.25096999999999997,1.0329959999999998,-0.19421300000000002,0.072177,-0.34255399999999997,0.10163
642,-0.601146,-1.3675629999999999,-1.3668959999999999,-0.11414500000000001,0.979419,-0.166436,0.331491,1.262233,-0.314653,0.10906400000000001,-0.405994,0.18261
643,-0.601916,-1.357161,-1.3846479999999999,-0.12003599999999999,0.977267,-0.174738,0.314143,0.520623,-0.521059,0.195217,-0.42987299999999995,0.087091
644,-0.627251,-1.344989,-1.412621,-0.131397,0.974614,-0.181259,0.36094699999999996,-0.101194,-0.63744,0.163441,-0.359898,-0.007141
645,-0.6509119999999999,-1.328349,-1.430304,-0.145457,0.9707530000000001,-0.190977,0.647571,-0.428138,-0.6435649999999999,0.170283,-0.287572,-0.010209999999999999
646,-0.6602899999999999,-1.311916,-1.430113,-0.15700699999999998,0.966677,-0.20218,0.598182,-0.48755200000000004,-0.394938,0.163888,-0.312502,-0.014999
647,-0.668858,-1.301807,-1.427098,-0.16478399999999999,0.96404,-0.208483,0.340721,-0.6502479999999999,-0.24484,0.20876,-0.21129299999999998,-0.067197
648,-0.683188,-1.293779,-1.428215,-0.17263599999999998,0.961875,-0.21209699999999998,0.284704,-0.559397,-0.27205300000000004,0.283903,-0.129158,-0.022324
649,-0.684717,-1.2858450000000001,-1.42636,-0.177782,0.959675,-0.217739,0.365852,0.003554,-0.197432,0.23729099999999997,-0.060215,0.177288
650,-0.6737380000000001,-1.274674,-1.4137440000000001,-0.182059,0.956475,-0.228042,0.675772,-0.162464,-0.240988,0.143378,-0.149636,0.189864
651,-0.662992,-1.257728,-1.395751,-0.189548,0.951393,-0.242727,0.916399,-0.385486,-0.35439,0.23628600000000002,-0.14388299999999998,0.361166
652,-0.641813,-1.23719,-1.3686559999999999,-0.196023,0.944868,-0.262286,1.146652,-0.015218,-0.175931,0.162591,0.074297,0.34505
653,-0.599908,-1.217172,-1.326941,-0.19550399999999998,0.938124,-0.285825,1.2958399999999999,0.14219600000000002,0.02253,-0.353797,0.7047899999999999,0.12183800000000002
654,-0.555157,-1.194479,-1.281404,-0.193696,0.930024,-0.3123,1.4107299999999998,0.130889,0.086372,-0.43546999999999997,0.662154,-0.068117
655,-0.5201060000000001,-1.1694069999999999,-1.251851,-0.194162,0.9205190000000001,-0.33902899999999997,1.3537489999999999,0.585433,-0.314123,0.163462,0.22053299999999998,0.000558
656,-0.48006000000000004,-1.142203,-1.228818,-0.191931,0.909551,-0.368611,1.449599,1.288175,-0.04623,0.29746,0.45426400000000006,0.199223
657,-0.40221999999999997,-1.1199379999999999,-1.186069,-0.170573,0.9000739999999999,-0.400958,1.148556,1.8641240000000001,0.571566,-0.402929,1.213467,-0.250608
658,-0.349616,-1.1092520000000001,-1.150204,-0.152541,0.895366,-0.418386,0.718042,0.776967,0.5560649999999999,0.003173,0.473836,-0.12104300000000001
659,-0.310218,-1.0987129999999998,-1.121494,-0.138816,0.8906229999999999,-0.43303100000000005,0.723793,0.6510600000000001,0.336213,0.047994999999999996,0.189547,-0.111555
660,-0.283644,-1.084708,-1.1045479999999999,-0.13073900000000002,0.884167,-0.44849799999999995,0.771224,0.49960699999999997,0.07502400000000001,0.227525,0.130435,0.010922
661,-0.272762,-1.0761969999999998,-1.098587,-0.127874,0.880159,-0.457125,0.229121,0.161967,-0.0009689999999999999,0.047506,-0.002809,-0.025907
662,-0.274223,-1.076098,-1.100658,-0.128565,0.8801120000000001,-0.45702200000000004,-0.10968299999999999,-0.050653,-0.082112,0.045160000000000006,-0.166229,0.12139000000000001
663,-0.28171199999999996,-1.080748,-1.106589,-0.13084500000000002,0.88231,-0.45211,-0.352354,-0.121333,-0.045261,0.027573,-0.24842899999999998,0.20624499999999998
664,-0.289396,-1.091921,-1.1116979999999999,-0.131493,0.8875139999999999,-0.441615,-0.716104,-0.19842200000000002,0.10078,-0.028297000000000003,-0.24900999999999998,0.178507
665,-0.29748,-1.110002,-1.1157709999999998,-0.130333,0.8957,-0.425124,-0.973783,-0.22136799999999998,0.201559,-0.048897,-0.258981,0.153212
666,-0.30551500000000004,-1.1315,-1.1209790000000002,-0.127922,0.905051,-0.405602,-1.11002,-0.147397,0.202649,-0.036308,-0.335044,0.162132
667,-0.32018800000000003,-1.156575,-1.1313549999999999,-0.126676,0.91543,-0.382015,-1.374417,-0.35946,0.18398299999999998,0.116818,-0.5399109999999999,0.215435
668,-0.345545,-1.187838,-1.1469200000000002,-0.12656199999999998,0.9275629999999999,-0.351572,-1.681189,-0.6548189999999999,0.25272100000000003,0.15714,-0.580121,0.238916
669,-0.377981,-1.222992,-1.16612,-0.12578,0.9401229999999999,-0.316766,-1.7810110000000001,-0.715486,0.325809,0.135988,-0.598708,0.28626399999999996
670,-0.40507600000000005,-1.256255,-1.186886,-0.121919,0.950939,-0.284333,-1.590638,-0.163164,0.30185700000000004,-0.113982,-0.213878,0.200638
671,-0.43405299999999997,-1.285955,-1.215463,-0.118172,0.959706,-0.254936,-1.494398,-0.019114,0.15920299999999998,-0.180321,0.06454,0.261909
672,-0.46565100000000004,-1.3105229999999999,-1.257686,-0.115543,0.9663200000000001,-0.229933,-1.2529190000000001,0.804334,-0.0474,-0.177243,0.20796599999999998,0.248412
673,-0.488541,-1.329931,-1.302849,-0.111951,0.971132,-0.210625,-1.01728,1.022907,-0.033216,-0.236469,0.028319,0.132271
674,-0.507725,-1.344366,-1.338834,-0.109142,0.974474,-0.196166,-0.739526,0.667048,0.006568000000000001,-0.062855,-0.194262,-0.000306
675,-0.516776,-1.356568,-1.360097,-0.10503,0.977141,-0.184818,-0.583828,0.568943,0.162674,0.003482,-0.253722,-0.11337
676,-0.494008,-1.361716,-1.347979,-0.09840800000000001,0.9782219999999999,-0.182728,0.114454,0.519361,0.234913,-0.032833,-0.016262000000000002,-0.259655
677,-0.468102,-1.35911,-1.328467,-0.094791,0.977678,-0.18749000000000002,0.16733199999999998,0.206826,0.025243,-0.08237799999999999,0.09561,-0.13035
678,-0.47400299999999995,-1.353002,-1.333491,-0.098621,0.976376,-0.19223800000000002,0.480908,-0.16781600000000002,-0.329941,-0.269986,0.321292,-0.13198
679,-0.46121,-1.328825,-1.325898,-0.10662999999999999,0.9708680000000001,-0.21456599999999998,1.330134,0.5810350000000001,-0.523658,-0.158674,0.47612299999999996,0.110273
680,-0.441352,-1.309053,-1.323246,-0.110529,0.9659399999999999,-0.233956,0.5294479999999999,1.0320479999999999,-0.196544,0.587854,0.093462,0.483971
681,-0.401231,-1.311205,-1.301612,-0.100243,0.9664950000000001,-0.23628600000000002,-0.17572100000000002,0.605375,0.5543100000000001,0.74392,0.017925999999999997,0.129215
682,-0.337853,-1.31979,-1.237005,-0.08232300000000001,0.9686629999999999,-0.23432399999999998,-0.017759,-0.003589,1.122352,0.412142,0.154674,0.085428
683,-0.25801799999999997,-1.3200399999999999,-1.152621,-0.06331200000000001,0.968725,-0.23990799999999998,0.723276,-0.202961,0.788089,-0.540661,1.496409,-0.372732
684,-0.24836799999999998,-1.294163,-1.14584,-0.067135,0.96198,-0.264725,0.9028209999999999,0.445043,-0.776433,-0.567157,2.060572,-0.022979
685,-0.289574,-1.277831,-1.18306,-0.08246,0.957392,-0.27675700000000003,0.827341,-0.5257890000000001,-0.6197560000000001,0.051698,0.30596,0.021584
686,-0.302644,-1.265175,-1.195538,-0.089674,0.9536600000000001,-0.28720100000000004,0.25859,0.174129,-0.135379,0.169157,-0.246018,0.40325900000000003
687,-0.288146,-1.2708030000000001,-1.182509,-0.083975,0.9553379999999999,-0.28331999999999996,-0.503324,0.048582,0.485437,0.039175,-0.587861,0.292933
688,-0.26086,-1.2922069999999999,-1.153195,-0.070922,0.9614440000000001,-0.26568400000000003,-1.09932,-0.09838,0.723949,-0.10928399999999999,-0.405857,0.152067
689,-0.25248899999999996,-1.317034,-1.142526,-0.062712,0.967975,-0.24307399999999998,-1.170652,-0.05259400000000001,0.258716,0.059126,0.25657399999999997,0.143281
690,-0.266588,-1.339124,-1.157583,-0.060483,0.973284,-0.22148,-1.064753,0.0554,0.067037,0.11569000000000002,0.398878,0.149489
691,-0.280901,-1.357809,-1.17521,-0.058595,0.977404,-0.20307999999999998,-0.8782409999999999,0.22847399999999998,0.046754000000000004,0.187364,0.018644,0.128831
692,-0.294451,-1.372433,-1.196914,-0.057186,0.98039,-0.188566,-0.692365,0.43801,-0.033401,0.130642,-0.11717000000000001,0.127363
693,-0.315209,-1.382298,-1.224887,-0.058086,0.9822870000000001,-0.17813299999999999,-0.467555,0.244918,-0.158702,0.091426,-0.22127,0.09166200000000001
694,-0.3462,-1.387165,-1.259573,-0.061953999999999995,0.983187,-0.171748,-0.24360500000000002,0.126282,-0.255262,0.070698,-0.182146,-0.011845
695,-0.373463,-1.38631,-1.291296,-0.06692000000000001,0.983031,-0.17077799999999999,0.038987,0.293772,-0.294095,0.031794,-0.156142,-0.1042
696,-0.383657,-1.380927,-1.3126959999999999,-0.070637,0.982029,-0.174992,0.257185,0.6658109999999999,-0.281298,0.042927,-0.209339,-0.069927
697,-0.383971,-1.372615,-1.324963,-0.07374800000000001,0.980426,-0.182534,0.358558,0.461872,-0.251486,0.084551,-0.248416,-0.068397
698,-0.385235,-1.363358,-1.3318299999999998,-0.077387,0.978562,-0.190844,0.45323900000000006,0.18448699999999998,-0.230173,0.26314699999999996,-0.266419,-0.132108
699,-0.382002,-1.35176,-1.3313059999999999,-0.08099500000000001,0.976107,-0.20161199999999999,0.57121,0.126378,-0.18654600000000002,0.385682,-0.261859,0.031431
700,-0.368576,-1.339854,-1.318198,-0.082463,0.9734510000000001,-0.21350999999999998,0.612664,-0.218511,-0.021308,0.379368,-0.235521,0.189553
701,-0.374294,-1.330807,-1.302586,-0.086899,0.97134,-0.22122399999999998,0.428933,-1.417525,0.016333,0.20790100000000003,-0.319836,-0.052489
702,-0.388758,-1.322457,-1.286111,-0.09316100000000001,0.9693219999999999,-0.227442,0.464866,-1.471005,0.039085,0.18215,-0.305992,-0.049505
703,-0.396762,-1.316747,-1.2707620000000002,-0.097116,0.9679030000000001,-0.23179,0.250345,-0.988851,0.062606,0.146234,-0.27079000000000003,-0.026068
704,-0.409469,-1.3126209999999998,-1.267306,-0.101643,0.966857,-0.2342,0.199053,-0.6993090000000001,-0.105834,0.051852999999999996,0.046845,-0.003181
705,-0.42857,-1.3072139999999999,-1.274693,-0.108268,0.965463,-0.23696799999999998,0.237688,-0.550809,-0.245692,0.059410000000000004,0.070105,-0.022508
706,-0.44375299999999995,-1.298468,-1.28274,-0.115475,0.963147,-0.242914,0.43131,-0.246623,-0.292799,0.166851,-0.123517,0.24680500000000002
707,-0.443342,-1.284835,-1.281552,-0.12099700000000001,0.959391,-0.254801,0.7419560000000001,0.07065199999999999,-0.25151100000000004,0.25587,-0.23032600000000003,0.409098
708,-0.42053100000000004,-1.2669549999999998,-1.259201,-0.12213800000000001,0.9541940000000001,-0.27311199999999997,1.007902,-0.005125,0.085865,0.29349400000000003,-0.214418,0.63003
709,-0.38710900000000004,-1.250552,-1.211092,-0.11883800000000001,0.949158,-0.291498,1.1661780000000002,-1.020065,0.414079,-0.366773,0.40774499999999997,-0.087943
710,-0.356454,-1.224564,-1.161685,-0.11841700000000001,0.940658,-0.31801799999999997,1.674821,-0.305264,0.239391,-0.400961,0.590638,-0.158361
711,-0.296835,-1.1927370000000002,-1.108214,-0.10796300000000002,0.929383,-0.35296900000000003,1.8351540000000002,0.694646,0.462488,-0.312752,0.883483,-0.102842
712,-0.25057199999999996,-1.158179,-1.06855,-0.099432,0.916075,-0.388479,1.893515,0.236868,0.073581,-0.028437,0.38344,0.12227400000000001
713,-0.243639,-1.1249120000000001,-1.056203,-0.10403299999999999,0.90223,-0.41851400000000005,1.4389530000000001,-0.27397,-0.18851700000000002,0.28794699999999995,0.185524,0.138622
714,-0.217741,-1.104484,-1.040435,-0.097123,0.893232,-0.438975,0.914286,1.2045489999999999,0.286623,-0.393951,0.870684,-0.457189
715,-0.172579,-1.091676,-1.011382,-0.079164,0.887401,-0.454146,0.752606,0.433679,0.595198,-0.338485,0.7967420000000001,-0.064485
716,-0.15806199999999998,-1.07605,-0.9898389999999999,-0.074736,0.8800889999999999,-0.46888500000000005,0.8602299999999999,-0.48542299999999994,0.178384,-0.214448,0.36486,-0.035052
717,-0.174664,-1.061173,-0.9893270000000001,-0.084776,0.872928,-0.480422,0.6337189999999999,-1.0027,-0.269052,0.089476,-0.038272,0.037581
718,-0.211157,-1.054111,-1.0057,-0.10353699999999999,0.869461,-0.483025,-0.008177,-1.193243,-0.546756,0.11861300000000001,-0.22056599999999998,0.250893
719,-0.26183,-1.0590110000000001,-1.034163,-0.12676600000000002,0.871871,-0.47303900000000004,-0.5771069999999999,-1.3527879999999999,-0.647734,-0.015995,-0.23934899999999998,0.22658000000000003
720,-0.31508600000000003,-1.069978,-1.06451,-0.148794,0.8771899999999999,-0.456502,-0.803704,-1.2462719999999998,-0.44862700000000005,-0.116052,-0.193047,0.14949500000000002
721,-0.350105,-1.084824,-1.084533,-0.160201,0.8842209999999999,-0.43873,-0.900874,-0.631807,-0.049509,-0.19345199999999999,-0.234456,0.08655700000000001
722,-0.368868,-1.104423,-1.094899,-0.162124,0.8932049999999999,-0.4194,-1.065468,-0.457492,0.19053599999999998,-0.16056900000000002,-0.26850999999999997,0.053449
723,-0.38564499999999996,-1.12788,-1.104193,-0.16121,0.9035049999999999,-0.397096,-1.208366,-0.365691,0.267401,0.011689,-0.311449,0.060288
724,-0.398846,-1.15256,-1.113291,-0.157728,0.9138059999999999,-0.374266,-1.206724,-0.200728,0.304589,0.129164,-0.348117,0.11018199999999999
725,-0.413818,-1.177135,-1.1248,-0.15423499999999998,0.9235110000000001,-0.35119,-1.224956,-0.268654,0.25754699999999997,0.191451,-0.344669,0.189447
726,-0.43437600000000004,-1.201925,-1.138493,-0.151738,0.9327350000000001,-0.327072,-1.24186,-0.420062,0.306761,0.161824,-0.339702,0.313751
727,-0.453687,-1.227878,-1.153458,-0.14736300000000002,0.9417770000000001,-0.302215,-1.370025,-0.209771,0.309869,-0.028525,-0.210378,0.262817
728,-0.486084,-1.257217,-1.186779,-0.144101,0.9512360000000001,-0.272728,-1.590617,0.108244,0.094276,-0.250217,0.07089,0.271202
729,-0.521491,-1.281111,-1.229315,-0.142298,0.958334,-0.24767199999999998,-1.182748,0.31708200000000003,-0.0035549999999999996,-0.302633,0.068369,0.051383000000000005
730,-0.562569,-1.298751,-1.274086,-0.143309,0.9632229999999999,-0.22728099999999998,-1.0142719999999998,-0.066499,-0.129005,-0.160128,-0.06060499999999999,-0.20623699999999998
731,-0.604345,-1.3056370000000002,-1.3101450000000001,-0.148903,0.965051,-0.215635,-0.142925,-0.487721,-0.24201999999999999,0.062401,-0.15174200000000002,-0.413058
732,-0.591128,-1.2933459999999999,-1.295803,-0.15264,0.961757,-0.227417,1.004337,0.40059,-0.139005,0.18521700000000002,-0.292476,-0.290619
733,-0.539759,-1.2728979999999999,-1.256533,-0.150839,0.9559559999999999,-0.251775,1.077784,0.66745,-0.071536,0.10454400000000001,-0.215935,0.05255599999999999
734,-0.5214,-1.26516,-1.24128,-0.149872,0.953656,-0.260909,0.013105,-0.11243199999999999,0.076919,0.06977799999999999,-0.28435900000000003,0.300246
735,-0.543632,-1.277849,-1.257533,-0.14936300000000002,0.9573969999999999,-0.247135,-1.0138280000000002,-0.468959,0.083021,-0.266729,-0.106262,0.194446
736,-0.595316,-1.292117,-1.300715,-0.154253,0.96142,-0.227753,-0.614846,-0.391018,-0.306329,-0.24191100000000001,0.640524,0.136551
737,-0.607738,-1.284926,-1.322523,-0.16101400000000002,0.959417,-0.231489,0.48009399999999997,1.008512,-0.395546,0.383167,0.517009,0.34063499999999997
738,-0.557545,-1.279442,-1.30102,-0.151979,0.9578559999999999,-0.24373699999999998,0.163152,1.5295450000000002,0.382443,0.550676,0.19622799999999999,0.662148
739,-0.506831,-1.290037,-1.267774,-0.134493,0.9608450000000001,-0.24224099999999998,-0.40370500000000004,0.478288,0.83062,0.43069700000000005,0.22096300000000002,0.367134
740,-0.474894,-1.309268,-1.233209,-0.118217,0.965996,-0.229933,-0.6772640000000001,-0.339918,0.8201440000000001,0.012642,0.490684,-0.095674
741,-0.45182,-1.313296,-1.200982,-0.11118099999999999,0.96703,-0.22909699999999997,0.609323,-0.171951,0.058727,-0.514795,1.3348200000000001,-0.538665
742,-0.44386400000000004,-1.296624,-1.205832,-0.116263,0.96265,-0.244502,0.5497489999999999,0.786904,-0.448187,-0.028604,1.208585,-0.05367
743,-0.443021,-1.286559,-1.212232,-0.12020499999999999,0.9598760000000001,-0.253342,0.323969,0.186891,-0.18728,0.239452,0.07322000000000001,0.10543800000000002
744,-0.431255,-1.286334,-1.2054479999999999,-0.117306,0.9598129999999999,-0.25493499999999997,-0.10975,0.282434,0.27104,0.351437,-0.486638,0.343543
745,-0.409341,-1.298875,-1.185724,-0.106892,0.9632569999999999,-0.246381,-0.7065229999999999,0.018071,0.565244,0.088825,-0.5109859999999999,0.28210100000000005
746,-0.40951,-1.318132,-1.181993,-0.09952799999999999,0.96825,-0.22930100000000003,-0.838766,-0.26259,0.270919,-0.039541,-0.077579,0.080985
747,-0.426196,-1.332833,-1.1972770000000001,-0.097444,0.9718200000000001,-0.214623,-0.726583,0.096626,0.119554,0.052873,0.11517000000000001,0.065072
748,-0.43629700000000005,-1.345676,-1.214389,-0.094324,0.974767,-0.202297,-0.601164,0.39157,0.045277,0.224329,0.118693,0.11242200000000001
749,-0.45486499999999996,-1.354752,-1.239523,-0.094172,0.9767530000000001,-0.192554,-0.49992700000000007,0.209682,-0.11081099999999999,0.24250300000000002,-0.23212399999999997,0.111393
750,-0.48871899999999996,-1.360211,-1.274751,-0.098131,0.977909,-0.18454500000000001,-0.332971,-0.059819000000000004,-0.258851,0.22862399999999997,-0.312213,0.10670999999999999
751,-0.523564,-1.361651,-1.309066,-0.103796,0.978209,-0.179794,-0.206866,-0.023993,-0.269766,0.22466,-0.363478,0.083694
752,-0.549701,-1.361772,-1.338917,-0.10839700000000001,0.978234,-0.176919,-0.107272,0.288881,-0.276949,0.010740999999999999,-0.164605,-0.08866
753,-0.562782,-1.3572600000000001,-1.3632870000000001,-0.11305599999999999,0.9772879999999999,-0.17921700000000002,0.152071,0.686779,-0.372856,0.047382,-0.146126,-0.155866
754,-0.564476,-1.347631,-1.381033,-0.11838900000000001,0.975202,-0.186969,0.388361,0.7437060000000001,-0.42789399999999994,0.227489,-0.28828200000000004,-0.154157
755,-0.559232,-1.336324,-1.387229,-0.12325,0.9726370000000001,-0.196922,0.431443,0.476764,-0.309747,0.410558,-0.38460900000000003,-0.041191000000000005
756,-0.555709,-1.329058,-1.38907,-0.126281,0.970923,-0.203355,0.21230100000000002,0.060385,-0.155852,0.486129,-0.275122,0.028245
757,-0.561318,-1.324563,-1.386026,-0.129742,0.9698370000000001,-0.20633600000000002,0.238916,-0.827383,-0.080821,0.312618,-0.040576999999999995,-0.123727
758,-0.5797800000000001,-1.317264,-1.380914,-0.137403,0.968032,-0.209823,0.364583,-1.2119950000000002,-0.177727,0.358747,-0.089797,-0.182176
759,-0.6067359999999999,-1.3104149999999999,-1.384978,-0.146785,0.966292,-0.211484,0.216071,-1.118411,-0.275024,0.30346300000000004,-0.19486900000000001,-0.054385
760,-0.635372,-1.300402,-1.393727,-0.15851500000000002,0.963666,-0.21497199999999997,0.43536899999999995,-0.923534,-0.447862,0.32117399999999996,-0.24180300000000002,0.260306
761,-0.659612,-1.285947,-1.401385,-0.172199,0.9597040000000001,-0.22205300000000003,0.5591510000000001,-0.796732,-0.563596,0.316333,-0.11836500000000001,0.6229319999999999
762,-0.6625310000000001,-1.270849,-1.393535,-0.18174,0.9553520000000001,-0.232949,0.6926720000000001,-0.375835,-0.175438,-0.13156900000000002,0.22815,0.46927700000000006
763,-0.647418,-1.262583,-1.362823,-0.182955,0.9528770000000001,-0.24195999999999998,0.61585,-0.970361,0.182641,-0.652555,0.64748,0.093798
764,-0.631662,-1.248911,-1.326365,-0.186796,0.948641,-0.255304,1.0433780000000001,-0.772857,-0.02827,-0.5796680000000001,0.971724,-0.10600899999999999
765,-0.5964010000000001,-1.229243,-1.283947,-0.188125,0.942235,-0.277117,1.3095649999999999,0.073047,-0.011470999999999999,-0.3508,0.7093149999999999,-0.06550399999999999
766,-0.551668,-1.2040629999999999,-1.2433040000000002,-0.187923,0.9335040000000001,-0.30536599999999997,1.4577440000000002,0.421278,-0.111295,0.176555,0.32314899999999996,0.151695
767,-0.5136229999999999,-1.184308,-1.207544,-0.185199,0.9262379999999999,-0.32829400000000003,0.986333,0.05839400000000001,0.20313900000000001,0.34006,0.567948,0.008759999999999999
768,-0.483196,-1.174383,-1.1705709999999998,-0.17938800000000002,0.922452,-0.341901,0.716889,-0.30702199999999996,0.443143,0.195913,0.656467,-0.106921
769,-0.454449,-1.1635719999999998,-1.130776,-0.17385499999999998,0.9182239999999999,-0.355856,0.9383610000000001,-0.411103,0.438414,0.001888,0.282491,-0.129328
770,-0.43063,-1.149667,-1.094507,-0.17064400000000002,0.9126280000000001,-0.371463,0.8605079999999999,-0.5349430000000001,0.306638,-0.065959,0.139847,-0.084103
771,-0.428521,-1.141022,-1.0744690000000001,-0.17313199999999998,0.9090600000000001,-0.378984,0.366257,-1.0140040000000001,0.124338,0.000342,-0.18626600000000001,0.084978
772,-0.454588,-1.140871,-1.072345,-0.18301199999999998,0.9089969999999999,-0.374467,-0.14893,-1.585896,-0.001374,0.13497699999999999,-0.298111,0.18332
773,-0.49460200000000004,-1.144872,-1.080233,-0.196117,0.9106569999999999,-0.363642,-0.285354,-1.630923,-0.078113,0.11889200000000001,-0.40325700000000003,0.178202
774,-0.538683,-1.151219,-1.092703,-0.208981,0.9132610000000001,-0.34967800000000004,-0.498885,-1.6398669999999997,-0.053956,0.100675,-0.43256400000000006,0.16233
775,-0.582633,-1.162288,-1.107422,-0.218567,0.9177139999999999,-0.331696,-0.691824,-1.418358,0.13028299999999998,0.09134,-0.439931,0.15773099999999998
776,-0.615923,-1.178764,-1.117216,-0.22071999999999997,0.924134,-0.311852,-0.844347,-1.127076,0.412992,0.092424,-0.44200200000000006,0.136269
777,-0.6469090000000001,-1.2012180000000001,-1.123432,-0.21771100000000002,0.93248,-0.28823000000000004,-1.06002,-1.4042370000000002,0.646849,0.08329600000000001,-0.473221,0.023582
778,-0.685859,-1.227479,-1.1328040000000001,-0.21318299999999998,0.941643,-0.260488,-1.129865,-1.487196,0.674242,0.243945,-0.514229,0.10449800000000001
