,attitude.roll,attitude.pitch,attitude.yaw,gravity.x,gravity.y,gravity.z,rotationRate.x,rotationRate.y,rotationRate.z,userAcceleration.x,userAcceleration.y,userAcceleration.z
0,0.46516499999999994,-1.387931,-0.941427,0.081552,0.9833270000000001,-0.162486,1.990071,1.044194,1.7318169999999997,-0.385736,0.885234,0.13906400000000002
1,0.53298,-1.342919,-0.900924,0.11476800000000001,0.9741479999999999,-0.194547,1.7233209999999999,1.559246,1.299868,-0.480781,0.675922,0.08149400000000001
2,0.5753729999999999,-1.302763,-0.887732,0.144094,0.9642940000000001,-0.22216999999999998,1.495763,1.338009,1.1458059999999999,-0.17291800000000002,0.21048000000000003,-0.130994
3,0.600963,-1.269776,-0.880835,0.16763599999999998,0.955034,-0.244527,1.292281,0.700471,0.9155340000000001,-0.24245,0.274336,-0.097224
4,0.597102,-1.238744,-0.8939290000000001,0.183272,0.945375,-0.269561,1.435398,0.374384,0.553756,-0.231413,0.30196999999999996,0.008468
5,0.573414,-1.211371,-0.920467,0.190808,0.936099,-0.29546100000000003,1.3493899999999999,-0.19237,0.369079,-0.057507,-0.024981,0.10770199999999999
6,0.543755,-1.186051,-0.938573,0.194166,0.926894,-0.321176,1.175476,-0.87369,0.405057,-0.012403,-0.23795999999999998,0.108178
7,0.5163399999999999,-1.162674,-0.942074,0.195936,0.917867,-0.345132,0.96193,-1.379932,0.648837,0.01636,-0.6223810000000001,0.109857
8,0.49685100000000004,-1.1393950000000002,-0.9277059999999999,0.19930599999999998,0.908381,-0.367573,0.834341,-1.761793,0.882376,-0.069759,-0.700922,0.104374
9,0.477847,-1.117413,-0.906078,0.20142100000000002,0.89897,-0.388935,0.7102569999999999,-1.999208,0.9544530000000001,0.01678,-0.6487569999999999,0.13858399999999998
10,0.461246,-1.097318,-0.87849,0.20293699999999998,0.8899879999999999,-0.408323,0.5462359999999999,-2.101197,1.027145,0.070119,-0.529453,0.17716700000000002
11,0.450534,-1.080341,-0.845842,0.205102,0.8821190000000001,-0.424016,0.39669,-1.8516130000000002,1.079192,0.080131,-0.44104799999999994,0.18648199999999998
12,0.445219,-1.0635860000000001,-0.813787,0.209182,0.8741030000000001,-0.438379,0.43972700000000003,-1.589481,1.023609,0.002869,-0.312229,0.160455
13,0.43904499999999996,-1.050236,-0.785929,0.211414,0.867541,-0.45018500000000006,0.163752,-1.493891,0.801505,-0.076541,-0.25754,0.380849
14,0.43247399999999997,-1.050932,-0.762311,0.208198,0.8678870000000001,-0.451017,-0.579835,-1.227415,0.341975,-0.044578,-0.266965,0.423566
15,0.42963999999999997,-1.069979,-0.7412350000000001,0.199996,0.8771899999999999,-0.43649499999999997,-1.381393,-0.990766,-0.067715,-0.010467,-0.23596999999999999,0.393771
16,0.438263,-1.106273,-0.711317,0.19011,0.894035,-0.405645,-2.2852580000000002,-0.830895,-0.103075,0.033523000000000004,-0.098808,0.3579
17,0.46964799999999995,-1.152616,-0.660384,0.183782,0.9138299999999999,-0.362115,-2.577391,-0.680106,0.0036490000000000003,-0.073339,-0.009884,0.092691
18,0.51166,-1.188114,-0.602359,0.182822,0.927666,-0.325573,-1.618215,-0.387378,0.293053,-0.071281,0.721916,-0.5871310000000001
19,0.547335,-1.184808,-0.5682649999999999,0.195913,0.926427,-0.32146199999999997,0.614505,0.33129899999999995,0.850384,0.022684,1.193171,-0.6197
20,0.536068,-1.160498,-0.573856,0.203725,0.9170020000000001,-0.342915,1.422617,-0.7582840000000001,0.36818,-0.19556199999999999,0.210653,-0.661357
21,0.48853100000000005,-1.1355879999999998,-0.6015189999999999,0.19786199999999998,0.906782,-0.372269,1.0674620000000001,-1.12299,-0.026938999999999998,-0.031602,-0.506804,-0.301269
22,0.461729,-1.132543,-0.618613,0.18904400000000002,0.905494,-0.37990799999999997,-0.059615999999999995,-0.102624,-0.339495,-0.109347,-0.410713,0.162974
23,0.47748900000000005,-1.148543,-0.61175,0.188324,0.912168,-0.363965,-1.330722,0.792312,-0.063237,-0.031159,0.29776199999999997,0.311262
24,0.56094,-1.186762,-0.538327,0.19930499999999998,0.927161,-0.317234,-3.0418369999999997,0.691576,0.5039170000000001,-0.137354,1.096368,0.280735
25,0.6833020000000001,-1.226265,-0.41293199999999997,0.213231,0.941234,-0.26191,-2.049935,0.016572,0.614259,-0.644261,1.936665,0.107522
26,0.7106600000000001,-1.229714,-0.380833,0.218196,0.942393,-0.25351599999999996,0.126809,-0.11508299999999999,-0.049757,-0.9237620000000001,-0.230006,0.377372
27,0.65386,-1.230963,-0.43704799999999994,0.202736,0.94281,-0.26456,0.638387,-0.072253,-1.079209,-0.908913,-0.379685,0.309192
28,0.577864,-1.239262,-0.520162,0.177784,0.945544,-0.27262600000000003,0.357324,0.10091900000000001,-1.517228,-0.408665,-0.314746,0.247006
29,0.47699300000000006,-1.255168,-0.623129,0.142503,0.9506020000000001,-0.275744,-0.049203,-0.317865,-1.930797,-0.110963,-0.29307,0.6332270000000001
30,0.398352,-1.283398,-0.703944,0.10994300000000001,0.9589850000000001,-0.26124,-1.441411,0.13054300000000002,-1.505261,-0.052463,-0.144333,0.8026220000000001
31,0.394099,-1.338406,-0.718291,0.088418,0.9731190000000001,-0.21261799999999997,-2.846912,0.7248680000000001,-1.0618459999999998,0.090415,-0.186864,0.5325489999999999
32,0.453545,-1.394247,-0.688542,0.076934,0.984456,-0.157835,-2.355739,2.0843540000000003,-0.737554,0.074448,0.169139,0.10786199999999999
33,0.572524,-1.4295,-0.625599,0.076261,0.990034,-0.11831900000000001,-1.5721450000000001,3.097239,-0.303954,-0.158735,0.251085,0.225359
34,0.6864680000000001,-1.4570319999999999,-0.567366,0.0719,0.9935360000000001,-0.087746,-1.18135,2.5424279999999997,-0.6914819999999999,-0.42711000000000005,-0.045552999999999996,0.24529299999999998
35,0.7347060000000001,-1.48315,-0.559679,0.058612,0.9961620000000001,-0.064877,-0.923391,1.68012,-0.7900560000000001,-0.035663,-0.29593600000000003,0.13783
36,0.774767,-1.503896,-0.5456770000000001,0.046669999999999996,0.997763,-0.047673,-0.752637,1.170619,-0.596999,0.054023,-0.25119600000000003,0.10956300000000001
37,0.9359879999999999,-1.521467,-0.404273,0.039550999999999996,0.998784,-0.02913,-1.026449,0.893191,-0.24604299999999998,0.118377,-0.263737,0.135956
38,1.4730590000000001,-1.530226,0.115505,0.040129000000000005,0.9991770000000001,-0.003935,-1.297477,1.0427469999999999,0.150319,0.126665,-0.102586,0.231794
39,2.046813,-1.524448,0.660629,0.040991,0.998926,0.021133000000000002,-1.104587,1.684416,-0.109802,-0.10753399999999999,-0.15217,0.042817
40,2.445389,-1.517568,1.019125,0.034000999999999997,0.998584,0.04068,-0.741675,2.154066,-0.389879,0.049419,-0.037585,-0.060791
41,2.750743,-1.51575,1.283881,0.020893000000000002,0.9984850000000001,0.050706,-0.294444,1.9107869999999998,-0.678068,0.10348099999999999,0.019062,-0.261812
42,-3.139844,-1.516165,1.639593,-9.499999999999999e-05,0.998508,0.054426999999999996,-0.11348,1.9000279999999998,-1.0741690000000002,0.317722,-0.179569,-0.161955
43,-2.730375,-1.508585,2.01247,-0.024788,0.998065,0.056843,-0.206431,1.816414,-1.129191,0.504051,-0.184818,-0.19411099999999998
44,-2.5041290000000003,-1.491062,2.208436,-0.047329,0.9968229999999999,0.06390599999999999,-0.534094,1.252249,-0.953432,0.47993100000000005,-0.012616,-0.080233
45,-2.465377,-1.473637,2.232478,-0.060644,0.9952840000000001,0.07557699999999999,-0.634955,0.53115,-0.357144,0.584677,0.04532,-0.034546
46,-2.508623,-1.4661389999999999,2.1774709999999997,-0.061736,0.9945280000000001,0.084147,-0.308795,0.711284,0.133081,0.40393,0.284356,-0.296458
47,-2.523287,-1.469278,2.145212,-0.058685,0.994851,0.082498,0.217336,0.858135,0.248731,0.234512,0.563208,-0.47550299999999995
48,-2.506309,-1.4771239999999999,2.151885,-0.055438,0.995616,0.075197,0.376337,0.28276799999999996,0.140552,0.231265,0.5624439999999999,-0.468203
49,-2.4632169999999998,-1.484306,2.197173,-0.054129,0.9962620000000001,0.067159,0.441354,-0.28281100000000003,0.063751,0.34425900000000004,0.356994,-0.157476
50,-2.397374,-1.499206,2.273376,-0.048353,0.9974379999999999,0.052509,1.052717,-0.651682,0.403915,0.234815,0.266844,-0.040927
51,-2.092803,-1.5298180000000001,2.596483,-0.035289999999999995,0.9991610000000001,0.0203,1.9807419999999998,-1.044116,0.767687,0.29581799999999997,0.06867999999999999,0.181834
52,-0.411321,-1.543582,-1.9868689999999998,-0.01073,0.9996299999999999,-0.024598,2.38132,-0.648034,1.534824,0.01633,-0.184307,0.149369
53,0.367729,-1.491435,-1.198085,0.028456,0.9968530000000001,-0.073862,2.479711,-0.383755,2.225244,0.028063,-0.12623199999999998,-0.069753
54,0.550742,-1.424877,-1.008705,0.076058,0.989373,-0.123848,2.539776,-0.14177,2.397337,-0.12128499999999999,0.591743,0.052025
55,0.604147,-1.36279,-0.961556,0.11728599999999999,0.9784450000000001,-0.16992000000000002,2.2301830000000002,0.658474,1.811968,-0.311118,0.8956709999999999,0.233473
56,0.6294609999999999,-1.311165,-0.956816,0.151117,0.966485,-0.207496,2.0518490000000003,1.2059879999999998,1.4436209999999998,-0.358606,0.7817149999999999,0.186805
57,0.646424,-1.261837,-0.9645450000000001,0.183135,0.952651,-0.242698,1.9647709999999998,1.1556959999999998,1.305285,-0.24854899999999996,0.390809,-0.110207
58,0.6505310000000001,-1.223441,-0.9754299999999999,0.206143,0.940276,-0.270869,1.482207,0.411301,0.8670329999999999,-0.400098,0.427201,0.033397
59,0.638231,-1.193682,-0.9946729999999999,0.21937600000000002,0.929731,-0.29573499999999997,1.336336,0.311165,0.461286,-0.26112399999999997,0.06903300000000001,0.12299000000000002
60,0.615097,-1.168136,-1.017787,0.22611199999999998,0.9200219999999999,-0.32003000000000004,1.272524,-0.403223,0.41368599999999994,0.0012900000000000001,-0.088158,0.058387
61,0.58434,-1.143856,-1.033355,0.228422,0.9102370000000001,-0.345367,1.110211,-1.092116,0.468983,0.130709,-0.424153,-0.032715
62,0.558746,-1.118754,-1.0280049999999998,0.231552,0.8995569999999999,-0.37036199999999997,0.952319,-1.7817290000000001,0.9665549999999999,0.153351,-0.6093810000000001,-0.021698
63,0.530606,-1.0911030000000002,-1.010934,0.233542,0.8871370000000001,-0.398038,1.016401,-2.386335,1.059644,0.087534,-0.47089200000000003,0.098233
64,0.495845,-1.062651,-0.9910540000000001,0.23148600000000003,0.873648,-0.42794899999999997,0.964485,-2.6869389999999997,1.15367,0.080037,-0.49626800000000004,0.182313
65,0.466786,-1.036846,-0.961678,0.22902600000000004,0.8608030000000001,-0.454481,0.69496,-2.709943,1.278936,0.082497,-0.48342299999999994,0.20884499999999998
66,0.443553,-1.0164799999999998,-0.92814,0.225885,0.85026,-0.475418,0.46664799999999995,-2.574509,1.174618,-0.024499,-0.518489,0.229751
67,0.411211,-1.000359,-0.901833,0.21584499999999998,0.841665,-0.494975,0.43816400000000005,-2.84574,0.829731,-0.169794,-0.569448,0.331996
68,0.368498,-0.9899370000000001,-0.8849049999999999,0.19766199999999998,0.835991,-0.511897,0.15732000000000002,-2.748656,0.505042,-0.135757,-0.496758,0.5522560000000001
69,0.332911,-0.991699,-0.871858,0.178842,0.836957,-0.517212,-0.449299,-2.009195,0.192209,-0.08972999999999999,-0.45748599999999995,0.5804600000000001
70,0.317266,-1.008733,-0.855756,0.166256,0.8461569999999999,-0.506326,-1.2923229999999999,-1.1135,0.174491,0.137348,-0.16100699999999998,0.497278
71,0.3414,-1.044646,-0.817449,0.168139,0.8647469999999999,-0.473214,-2.422792,-0.009255,0.46641800000000005,-0.095416,-0.049485,-0.053413
72,0.409289,-1.0902100000000001,-0.754178,0.18397,0.886724,-0.42410299999999995,-2.6508979999999998,0.9208350000000001,0.637753,-0.114284,0.33062199999999997,-0.41233800000000004
73,0.48815200000000003,-1.116911,-0.691807,0.205629,0.89875,-0.387237,-1.07684,1.142778,0.779855,0.07148600000000001,1.466926,-0.917802
74,0.520946,-1.109436,-0.664895,0.22155300000000003,0.8954479999999999,-0.386102,0.5317689999999999,-0.152783,0.49792200000000003,-0.072703,1.318007,-0.8494780000000001
75,0.494721,-1.094272,-0.670499,0.217775,0.888595,-0.403685,0.681716,-1.315209,0.154355,-0.17718599999999998,0.463899,-0.605607
76,0.475429,-1.07884,-0.674175,0.21619899999999997,0.8814110000000001,-0.419954,0.695078,-0.38659499999999997,0.485475,0.151935,1.5733780000000002,0.174746
77,0.503638,-1.0718969999999999,-0.645261,0.230906,0.8781100000000001,-0.41903900000000005,-0.501942,0.381292,0.767754,-0.006052,1.563022,0.620333
78,0.53565,-1.07554,-0.617392,0.242565,0.8798469999999999,-0.40868000000000004,-0.196963,0.362904,0.307368,-0.545772,0.043798000000000004,0.42863900000000005
79,0.539658,-1.072123,-0.626533,0.24574400000000002,0.878218,-0.410282,0.366842,0.80975,-0.304562,-0.62874,-0.766676,0.301639
80,0.553471,-1.0791629999999999,-0.640722,0.24813200000000002,0.8815629999999999,-0.40157800000000005,-0.5019710000000001,1.60871,-0.617166,-0.571267,-0.7145859999999999,0.334989
81,0.571241,-1.107509,-0.656377,0.241616,0.8945879999999999,-0.37592600000000004,-1.2700360000000002,1.401165,-1.32836,-0.5750810000000001,-0.6760520000000001,0.491313
82,0.56635,-1.154115,-0.680107,0.21715,0.914437,-0.341522,-1.915935,0.49915699999999996,-1.903214,-0.29194899999999996,-0.17665899999999998,0.49636800000000003
83,0.5311859999999999,-1.216603,-0.720581,0.17568,0.9379270000000001,-0.299025,-2.451663,-0.079485,-2.454212,0.122171,0.543351,0.680769
84,0.47090600000000005,-1.28059,-0.780346,0.129813,0.9581850000000001,-0.25498200000000004,-2.216869,-0.068451,-2.2207830000000004,0.029794,0.554541,0.385322
85,0.41993800000000003,-1.332311,-0.8427690000000001,0.096299,0.9716969999999999,-0.21567600000000003,-1.8774080000000002,0.82804,-1.5989229999999999,-0.005174,0.273481,0.306222
86,0.41093500000000005,-1.372293,-0.878661,0.07876,0.9803629999999999,-0.180748,-1.535854,1.533616,-0.921257,-0.007501000000000001,-0.0028539999999999998,0.18193800000000002
87,0.435778,-1.400672,-0.8904120000000001,0.07144600000000001,0.985564,-0.15343900000000002,-1.084131,1.957893,-0.588565,0.05358400000000001,-0.199416,0.139965
88,0.46908900000000003,-1.4207299999999998,-0.897329,0.067562,0.9887610000000001,-0.133305,-0.781678,1.982882,-0.44013800000000003,0.083866,-0.296684,0.078419
89,0.501737,-1.436942,-0.900315,0.064154,0.9910549999999999,-0.11695,-0.675809,1.626456,-0.375917,0.112298,-0.387173,0.05170399999999999
90,0.537851,-1.45135,-0.8918459999999999,0.06100800000000001,0.992875,-0.102274,-0.6523899999999999,1.2467059999999999,-0.268444,0.175274,-0.485154,0.040324
91,0.601309,-1.466766,-0.8455010000000001,0.058697000000000006,0.9945940000000001,-0.08555700000000001,-0.939699,0.570829,-0.16276300000000002,0.14928,-0.345973,0.019242
92,0.733345,-1.489594,-0.716832,0.054216999999999994,0.996705,-0.060177,-1.396678,0.12446900000000001,-0.296774,-0.011035,0.069686,0.131482
93,0.9697319999999999,-1.512585,-0.48693800000000004,0.047846,0.9983059999999999,-0.032808,-1.274946,0.576972,-0.342437,-0.07166499999999999,0.17601,0.164613
94,1.304088,-1.530145,-0.173278,0.038972,0.999174,-0.010648000000000001,-0.914314,1.295726,-0.577984,-0.154405,0.055559000000000004,0.1564
95,1.7493299999999998,-1.544877,0.244716,0.025127,0.999664,0.004534000000000001,-0.6274029999999999,1.34972,-0.742692,0.005222999999999999,-0.08843999999999999,-0.218844
96,2.754258,-1.555641,1.219889,0.005473,0.999885,0.013416999999999998,-0.267017,1.630169,-1.125094,0.074025,-0.159004,-0.225773
97,-2.18782,-1.544602,2.524661,-0.021053,0.999657,0.014934999999999999,-0.042087,1.8390849999999999,-1.350254,0.504741,-0.060295,-0.20730300000000002
98,-1.9106189999999998,-1.521039,2.770384,-0.046708,0.998762,0.016513,-0.200725,1.380841,-1.1691770000000001,0.561905,0.04915,-0.154193
99,-1.859347,-1.501637,2.802998,-0.066112,0.997609,0.019624000000000003,-0.192645,0.674215,-0.8231790000000001,0.646343,0.010798,-0.057710000000000004
100,-1.861215,-1.491024,2.792211,-0.076231,0.99682,0.022783,-0.17948699999999998,0.330097,-0.293877,0.614851,0.06867100000000001,-0.155351
101,-1.875227,-1.489565,2.7724439999999997,-0.077292,0.9967020000000001,0.024285,-0.030952999999999998,0.26953299999999997,0.070434,0.518455,0.189623,-0.202126
102,-1.858623,-1.493373,2.7881549999999997,-0.074037,0.9970040000000001,0.021919,0.197939,-0.170736,0.215739,0.398729,0.494649,-0.189735
103,-1.818327,-1.504074,2.839633,-0.064488,0.997775,0.016297,0.416125,-0.792215,0.6645760000000001,0.268986,0.306485,-0.037002999999999994
104,-1.657425,-1.527166,3.0246169999999997,-0.043216000000000004,0.9990479999999999,0.0037530000000000003,0.8926709999999999,-1.446158,1.281902,0.231571,0.260488,0.064148
105,-0.440355,-1.5468540000000002,-2.0070580000000002,-0.010023,0.999713,-0.021272,1.550094,-1.743829,1.891489,-0.07155,-0.165332,0.257188
106,0.47634499999999996,-1.50348,-1.0563719999999999,0.030779,0.997735,-0.059652,2.06465,-1.608356,2.198285,-0.135713,-0.110726,-0.106898
107,0.611717,-1.443387,-0.8931479999999999,0.072929,0.991894,-0.10396500000000002,2.1852,-1.149585,2.1846520000000003,-0.21949000000000002,0.668613,-0.121545
108,0.641293,-1.385686,-0.8520209999999999,0.11008,0.982916,-0.14745,2.07844,-0.149425,1.776704,-0.405078,1.108133,0.026982
109,0.656605,-1.3369280000000001,-0.845965,0.141441,0.972777,-0.183528,1.8209220000000002,0.806425,1.393393,-0.501534,0.986497,0.06422
110,0.6771699999999999,-1.292227,-0.847042,0.172282,0.96145,-0.214283,1.7437340000000001,1.156274,1.350745,-0.433802,0.783103,0.0017739999999999998
111,0.694056,-1.249041,-0.849354,0.202265,0.948682,-0.243056,1.699065,0.7344930000000001,1.3723379999999998,-0.221842,0.282412,-0.005037
112,0.691322,-1.2046780000000001,-0.85769,0.22822800000000001,0.933724,-0.27578400000000003,1.851119,0.02922,1.255731,-0.156359,0.23499299999999998,0.20283199999999998
113,0.672122,-1.163119,-0.875886,0.24685500000000002,0.9180440000000001,-0.310231,1.746736,-0.072229,0.8759129999999999,-0.097457,0.051286,0.381795
114,0.655297,-1.1301450000000002,-0.889916,0.259915,0.904474,-0.33816799999999997,1.361803,-0.314623,0.821192,-0.037563,-0.101877,0.195773
115,0.643666,-1.101226,-0.89313,0.27155300000000004,0.891763,-0.361946,1.07692,-0.546967,0.830182,-0.15726400000000001,-0.35299,0.048179
116,0.632969,-1.0766870000000002,-0.883818,0.280529,0.880391,-0.382363,0.7329479999999999,-1.24079,0.9440360000000001,-0.19459200000000001,-0.552144,0.042031
117,0.612879,-1.056557,-0.867611,0.28293,0.870667,-0.402339,0.520995,-1.95028,0.8654850000000001,-0.141039,-0.538758,0.11620699999999999
118,0.585204,-1.040284,-0.849641,0.279479,0.862548,-0.421771,0.33954,-2.247758,0.822938,-0.035613,-0.54338,0.209094
119,0.5574180000000001,-1.029064,-0.827701,0.272756,0.856817,-0.43755900000000003,0.078101,-2.35724,0.7229760000000001,-0.057683000000000005,-0.632192,0.238004
120,0.525598,-1.023644,-0.810211,0.261023,0.85401,-0.450025,-0.036657999999999996,-2.344864,0.39207800000000004,-0.031653,-0.7200989999999999,0.273954
121,0.483597,-1.023722,-0.804329,0.241866,0.85405,-0.46053,-0.11164500000000001,-2.3376669999999997,-0.010107,-0.012542,-0.74051,0.327656
122,0.43622,-1.0291709999999998,-0.805234,0.217815,0.856872,-0.467243,-0.31761,-2.2766330000000004,-0.17613,0.013005000000000001,-0.6658930000000001,0.31909499999999996
123,0.39873800000000004,-1.039568,-0.8044020000000001,0.196683,0.862186,-0.466841,-0.635624,-1.589459,-0.18457300000000001,0.031252999999999996,-0.379764,0.27989
124,0.391806,-1.060863,-0.790481,0.186388,0.872777,-0.451118,-1.4515280000000002,-0.615896,0.014647,0.16104000000000002,-0.13055899999999998,0.20720700000000003
125,0.418459,-1.090042,-0.751947,0.187912,0.8866459999999999,-0.422534,-1.719612,-0.244939,0.45240699999999995,0.104645,0.176205,-0.119306
126,0.476292,-1.1138649999999999,-0.6902520000000001,0.202276,0.8974110000000001,-0.39207800000000004,-1.541411,0.431281,0.887551,0.10848499999999998,1.062474,-0.24267199999999997
127,0.534374,-1.1120860000000001,-0.634159,0.225507,0.896624,-0.381048,0.19162,0.197725,1.048439,-0.300306,1.555326,-0.6776220000000001
128,0.5373979999999999,-1.094311,-0.623451,0.234781,0.8886120000000001,-0.393996,0.71504,-0.664834,0.516953,-0.615579,-0.349428,-0.57245
129,0.5132760000000001,-1.084275,-0.6275310000000001,0.22957800000000003,0.883965,-0.40729299999999996,0.342161,-1.1192959999999998,-0.060841,-0.422037,-0.120903,-0.412608
130,0.490741,-1.081592,-0.636817,0.22145900000000002,0.882707,-0.41445299999999996,0.025845999999999997,-0.262864,-0.040647,-0.184395,0.47271599999999997,-0.20111700000000002
131,0.528507,-1.091982,-0.608028,0.232312,0.887542,-0.397854,-1.251036,1.178958,0.406853,0.244693,1.9738470000000001,0.49984300000000004
132,0.581978,-1.104718,-0.576727,0.247009,0.893337,-0.375394,-0.35433000000000003,1.133868,0.249737,-0.397217,1.6973150000000001,0.466383
133,0.59848,-1.098355,-0.5839810000000001,0.256368,0.89046,-0.375956,0.596292,1.191908,-0.169918,-0.7209220000000001,-0.7643770000000001,0.403895
134,0.601267,-1.098423,-0.6082930000000001,0.25738,0.890491,-0.37519,0.00031299999999999996,1.294923,-0.63889,-0.496988,-0.685855,0.356575
135,0.598072,-1.119836,-0.640347,0.245385,0.9000290000000001,-0.360166,-0.715449,1.053158,-1.62848,-0.51632,-0.308766,0.35581799999999997
136,0.558855,-1.158698,-0.693221,0.21235900000000002,0.9162819999999999,-0.339581,-1.221012,0.172504,-2.07099,-0.046327999999999994,-0.028557,0.48106099999999996
137,0.5261640000000001,-1.212844,-0.730016,0.17594500000000002,0.936616,-0.30294899999999997,-2.420436,-0.004869,-1.962705,0.205204,0.092757,0.844834
138,0.510323,-1.277865,-0.74889,0.141034,0.9574010000000001,-0.251943,-2.65237,0.316938,-1.7852759999999999,-0.040173,0.121975,0.438558
139,0.506443,-1.330151,-0.7744979999999999,0.11558800000000001,0.971184,-0.20838,-1.8186740000000001,1.537459,-1.371888,-0.015506,0.22737800000000002,0.144324
140,0.551085,-1.369353,-0.772038,0.10474100000000001,0.9797790000000001,-0.170422,-1.6537970000000002,2.26631,-0.7670560000000001,-0.029408999999999998,0.131214,0.21940300000000001
141,0.616123,-1.398393,-0.7490829999999999,0.099101,0.985175,-0.139959,-1.104113,2.009128,-0.598381,-0.08456,-0.08216,0.057852
142,0.656778,-1.418883,-0.744273,0.092356,0.988483,-0.11979400000000001,-0.744115,1.675348,-0.556983,0.0008449999999999999,-0.333546,0.11343099999999999
143,0.68681,-1.436376,-0.743622,0.084926,0.990979,-0.10357000000000001,-0.6657109999999999,1.347909,-0.525037,0.093052,-0.42138400000000004,0.10561500000000001
144,0.724146,-1.452877,-0.730201,0.07787999999999999,0.9930559999999999,-0.088056,-0.710938,1.100588,-0.44171499999999997,0.140718,-0.466841,0.06117
145,0.805125,-1.4720600000000001,-0.664238,0.070985,0.99513,-0.068238,-1.154319,0.521422,-0.409887,-0.07187,-0.157269,0.165177
146,1.0187190000000002,-1.4975370000000001,-0.455682,0.062186,0.997318,-0.038305,-1.5937430000000001,0.273841,-0.45216300000000004,-0.093314,-0.007572,0.169836
147,1.436179,-1.515331,-0.048007999999999995,0.054725,0.9984620000000001,-0.007412,-1.412631,0.7587020000000001,-0.383153,-0.095863,0.204373,0.11953299999999999
148,1.8630970000000002,-1.524602,0.354601,0.04397,0.998933,0.013231,-0.66714,1.420691,-0.60953,-0.09098200000000001,0.21502600000000002,0.086012
149,2.192297,-1.534902,0.655862,0.028901999999999997,0.9993559999999999,0.020699000000000002,-0.159225,1.4401059999999999,-0.843152,0.00987,0.011371,-0.271706
150,2.80971,-1.5481049999999998,1.238536,0.007217,0.999743,0.020942,0.078706,1.8421470000000002,-1.157131,0.352402,-0.24362399999999998,-0.175315
151,-2.452213,-1.542339,2.225072,-0.017828999999999998,0.9995950000000001,0.021629,-0.168473,1.614241,-1.224795,0.523963,-0.018318,-0.10765799999999999
152,-2.161152,-1.521244,2.492395,-0.040945,0.9987729999999999,0.027436000000000002,-0.36451999999999996,0.924876,-1.022319,0.533942,0.097571,-0.056962
153,-2.103116,-1.506065,2.5406470000000003,-0.055573000000000004,0.997906,0.032735,-0.243654,0.31626,-0.509017,0.6099100000000001,0.12094500000000001,-0.062718
154,-2.1126009999999997,-1.5029139999999999,2.523919,-0.057961,0.997697,0.034886,-0.004686,0.45356499999999994,0.11097699999999999,0.475426,0.334777,-0.254414
155,-2.072489,-1.511358,2.552405,-0.051902,0.9982340000000001,0.028468,0.453499,0.594694,0.384257,0.324439,0.489864,-0.26101199999999997
156,-1.942391,-1.5230110000000001,2.676888,-0.044269,0.998858,0.017251,0.552305,0.084918,0.442216,0.361773,0.427548,-0.181634
157,-1.686078,-1.538491,2.937379,-0.031713,0.9994780000000001,0.003672,0.8432069999999999,-0.408391,0.7439819999999999,0.355459,0.230884,-0.007975
158,-0.549028,-1.545483,-2.19149,-0.012966,0.9996799999999999,-0.021195,1.530119,-1.063004,1.080768,0.37022,0.075973,0.226517
159,0.259504,-1.509217,-1.357687,0.015744,0.9981049999999999,-0.059302999999999995,2.095108,-1.2146700000000001,1.7536180000000001,0.033511,-0.23876599999999998,0.166054
160,0.497659,-1.450173,-1.097826,0.0574,0.992734,-0.10565699999999999,2.364374,-0.9561360000000001,2.400373,0.049503,0.013202,-0.084467
161,0.598434,-1.382868,-0.97898,0.105217,0.9823930000000001,-0.154313,2.4226799999999997,-0.695774,2.507269,-0.052834000000000006,0.43838299999999997,-0.030318
162,0.630795,-1.320973,-0.9419930000000001,0.145793,0.9689559999999999,-0.199625,2.189107,0.099143,1.856208,-0.360346,1.043068,0.11560999999999999
163,0.6446390000000001,-1.272351,-0.9391120000000001,0.17667,0.9557950000000001,-0.23500300000000002,1.814745,0.780105,1.3196780000000001,-0.447651,0.750138,0.145083
164,0.6569189999999999,-1.228477,-0.9439420000000001,0.204973,0.9419790000000001,-0.265791,1.762603,0.757065,1.265932,-0.192201,0.186332,-0.073884
165,0.6626569999999999,-1.1889020000000001,-0.9458620000000001,0.22926300000000002,0.92796,-0.293788,1.4733399999999999,0.125808,1.137602,-0.258713,0.23804,0.041513999999999995
166,0.658996,-1.154499,-0.9482430000000001,0.24759699999999998,0.914593,-0.319688,1.347321,-0.0988,0.9393889999999999,-0.334557,0.187382,0.25906399999999996
167,0.650834,-1.124347,-0.951197,0.261574,0.9019860000000001,-0.343489,1.1528770000000002,-0.463242,0.871199,0.002494,-0.14103,0.181701
168,0.636771,-1.0972030000000002,-0.9466620000000001,0.271181,0.889935,-0.36669,0.935106,-1.1349479999999998,0.9389049999999999,0.049009,-0.302212,0.148596
169,0.624306,-1.071057,-0.927966,0.280098,0.877707,-0.388793,0.7545029999999999,-1.629749,1.223493,-0.034706,-0.548041,0.077987
170,0.6048720000000001,-1.044915,-0.9040940000000001,0.28544400000000003,0.8648819999999999,-0.412901,0.701561,-2.267603,1.207917,-0.0697,-0.578551,0.15043399999999998
171,0.573656,-1.021575,-0.87864,0.283298,0.852931,-0.43844799999999995,0.5304220000000001,-2.845427,1.2010530000000001,0.001125,-0.600063,0.277727
172,0.54045,-1.003011,-0.845483,0.276686,0.843094,-0.46111199999999997,0.186253,-3.185268,1.2375399999999999,-0.019087,-0.54773,0.330543
173,0.508419,-0.99261,-0.808059,0.266032,0.837455,-0.477372,-0.198652,-3.0862130000000003,1.042445,-0.09952799999999999,-0.550071,0.27414
174,0.476843,-0.9912540000000001,-0.777041,0.251349,0.8367129999999999,-0.486541,-0.397957,-2.74084,0.627208,-0.110144,-0.541517,0.26450999999999997
175,0.44323599999999996,-0.99511,-0.756423,0.233474,0.8388190000000001,-0.49179399999999995,-0.44508500000000006,-2.403769,0.291026,-0.14593399999999998,-0.5128149999999999,0.24521199999999999
176,0.413022,-1.0060559999999998,-0.744866,0.214812,0.844728,-0.49018199999999995,-0.793437,-1.709695,-0.084038,-0.105467,-0.294038,0.33106399999999997
177,0.400086,-1.030049,-0.733646,0.200499,0.857324,-0.474112,-1.518415,-0.7511979999999999,-0.19181199999999998,0.093949,0.084997,0.350088
178,0.432979,-1.069089,-0.693462,0.20177799999999999,0.876763,-0.43653000000000003,-2.5639979999999998,0.244225,0.33371999999999996,0.181263,0.077842,0.378639
179,0.506124,-1.111085,-0.6214149999999999,0.21508899999999997,0.89618,-0.38805,-2.398247,0.60155,0.607885,-0.134751,0.548766,-0.08468300000000001
180,0.5797359999999999,-1.120762,-0.562086,0.23828200000000002,0.900432,-0.363906,-0.08920700000000001,1.1540030000000001,1.1093469999999999,0.31396399999999997,1.623982,-0.86908
181,0.613937,-1.101264,-0.543184,0.260654,0.8917799999999999,-0.36982800000000005,0.662838,0.44371099999999997,0.6625840000000001,-0.209842,0.27420500000000003,-0.742797
182,0.5973510000000001,-1.0834549999999998,-0.550821,0.263376,0.883581,-0.387173,0.767536,-0.9619190000000001,0.17266600000000001,-0.31766700000000003,-0.472555,-0.52068
183,0.563311,-1.073928,-0.565711,0.254531,0.87908,-0.403011,0.515756,-0.838181,-0.182833,-0.216887,0.0431,0.052532
184,0.581846,-1.08172,-0.551294,0.258184,0.882767,-0.39249,-1.3894870000000001,1.028026,0.441333,0.251444,1.703888,0.160129
185,0.658935,-1.106058,-0.482509,0.274404,0.8939389999999999,-0.354344,-1.431144,0.438537,0.575325,-0.235952,2.50311,0.551564
186,0.6689149999999999,-1.098047,-0.472332,0.282359,0.8903200000000001,-0.357195,0.866944,0.015713,0.15928900000000001,-0.713511,-0.33839400000000003,0.448489
187,0.647904,-1.08849,-0.5035270000000001,0.279915,0.885928,-0.369817,0.427691,0.663116,-0.453495,-0.536324,-0.822573,0.49466400000000005
188,0.655425,-1.105642,-0.5225989999999999,0.273385,0.893752,-0.3556,-0.783147,1.32244,-1.246873,-0.504556,-0.58995,0.41251499999999997
189,0.6325770000000001,-1.1420549999999998,-0.561573,0.245777,0.9094899999999999,-0.335271,-0.9701639999999999,0.106058,-1.923873,-0.347416,-0.31285599999999997,0.32651199999999997
190,0.596781,-1.189462,-0.596089,0.20913400000000001,0.928169,-0.307812,-2.125096,-0.259549,-1.9336080000000002,-0.168927,0.289162,0.79855
191,0.60063,-1.260561,-0.591078,0.172518,0.952262,-0.251828,-3.2652099999999997,0.102207,-1.901443,-0.012728,0.390893,0.603436
192,0.6345310000000001,-1.3226879999999999,-0.568487,0.14555099999999999,0.9693790000000001,-0.197738,-2.165091,1.067114,-1.199583,0.1561,0.342389,-0.038254
193,0.700868,-1.358757,-0.537986,0.135687,0.9776040000000001,-0.16080899999999998,-1.4709450000000002,2.177013,-0.706911,-0.10928900000000001,-0.062076,0.314496
194,0.771154,-1.384626,-0.5110520000000001,0.128966,0.98272,-0.132694,-0.9250280000000001,2.105857,-0.7019380000000001,-0.18595799999999998,-0.155404,0.24965199999999999
195,0.817149,-1.4051690000000001,-0.5000060000000001,0.120176,0.9863149999999999,-0.112778,-0.762622,1.52016,-0.627414,-0.09973,-0.421908,0.20338399999999998
196,0.868142,-1.423767,-0.47252799999999995,0.11174100000000001,0.9892110000000001,-0.094626,-0.795298,1.020161,-0.503088,-0.009720999999999999,-0.463362,0.086967
197,0.942092,-1.441691,-0.4134,0.104058,0.991677,-0.075664,-0.937224,0.6314569999999999,-0.410646,0.008201,-0.434411,0.039119
198,1.074883,-1.460064,-0.289862,0.0971,0.993875,-0.052532,-1.220652,0.5288970000000001,-0.358015,-0.011682,-0.108301,0.151302
199,1.291089,-1.4754049999999999,-0.08984199999999999,0.091425,0.9954540000000001,-0.026261000000000003,-1.207352,1.139154,-0.333067,-0.11858599999999998,0.13185,0.160477
200,1.537672,-1.4857040000000001,0.12516,0.084799,0.996382,-0.00281,-0.8804639999999999,1.885013,-0.391559,-0.107199,0.166628,0.205706
201,1.7089150000000002,-1.49488,0.258044,0.074959,0.9971200000000001,0.01042,-0.28220100000000004,1.9006299999999998,-0.552975,0.110802,0.050595,-0.21615399999999999
202,1.806007,-1.511673,0.316612,0.057255999999999994,0.9982530000000001,0.013721,0.064176,2.036708,-1.04959,0.341579,-0.263542,-0.24034499999999998
203,1.991197,-1.5349469999999998,0.461703,0.032406,0.9993569999999999,0.014487,-0.002566,1.9100400000000002,-1.282766,0.5383640000000001,-0.219252,-0.243995
204,2.8432049999999998,-1.550115,1.283612,0.005899000000000001,0.9997860000000001,0.019178,-0.32610100000000003,1.143086,-1.27977,0.568427,-0.022918,-0.03845
205,-2.625221,-1.538369,2.0899509999999997,-0.015815,0.999474,0.027855,-0.45960500000000004,0.055486,-0.9097040000000001,0.6163850000000001,-0.028114999999999998,0.00428
206,-2.524111,-1.5253889999999999,2.194154,-0.026117,0.998969,0.036779,-0.403638,-0.140123,-0.260652,0.50683,0.196221,-0.248937
207,-2.592345,-1.52358,2.1246150000000004,-0.024496,0.998886,0.040022,0.02343,0.178145,0.23010100000000003,0.248129,0.543427,-0.392302
208,-2.626694,-1.530438,2.087212,-0.019709,0.999186,0.034834,0.311802,0.005647999999999999,0.22699499999999997,0.22843400000000003,0.608374,-0.2041
209,-2.69115,-1.538386,2.028653,-0.013932,0.999475,0.028808999999999998,0.337952,-0.470021,0.34315500000000004,0.25096199999999996,0.439643,-0.11987300000000001
210,-2.928258,-1.553758,1.805964,-0.0034439999999999996,0.9998549999999999,0.015896,0.919249,-0.9503780000000001,0.617024,0.370265,0.39208200000000004,0.069599
211,0.8382790000000001,-1.5510540000000002,-0.68413,0.014204,0.9998049999999999,-0.012776000000000001,1.714494,-1.331114,1.1005610000000001,0.225969,0.055432,0.320668
212,0.6819569999999999,-1.500435,-0.816773,0.044206999999999996,0.997526,-0.054449000000000004,2.229851,-1.13105,1.770475,-0.029116000000000003,-0.26405100000000004,0.16567
213,0.684288,-1.438755,-0.795445,0.08317000000000001,0.991295,-0.101952,2.324596,-0.7984100000000001,2.152066,-0.036982,0.077934,-0.024178
214,0.693801,-1.376322,-0.775519,0.12354200000000001,0.9811489999999999,-0.148533,2.317899,-0.31409899999999996,1.9890290000000002,-0.22695,0.696127,0.055225
215,0.6876680000000001,-1.321045,-0.784301,0.156858,0.968974,-0.190958,2.075387,0.341605,1.527159,-0.354489,0.764943,0.166285
216,0.692148,-1.273974,-0.7931590000000001,0.186639,0.9562709999999999,-0.22515100000000002,1.820972,0.827659,1.409391,-0.318704,0.559995,0.14907
217,0.707313,-1.226384,-0.7951199999999999,0.219381,0.9412739999999999,-0.256626,1.837236,0.7759560000000001,1.537758,-0.20033800000000002,0.320323,-0.019802
218,0.7105060000000001,-1.182144,-0.800786,0.247137,0.9254209999999999,-0.28723200000000004,1.7119849999999999,0.161799,1.253523,-0.29743,0.34174499999999997,0.168793
219,0.694002,-1.1434229999999999,-0.818405,0.26509699999999997,0.910058,-0.31859299999999996,1.6769580000000002,-0.04174,0.7696350000000001,-0.353568,0.307288,0.289373
220,0.6634800000000001,-1.111182,-0.8430340000000001,0.273187,0.896224,-0.34948,1.5540049999999999,-0.72037,0.6222310000000001,-0.131356,0.104066,0.217369
221,0.629202,-1.080511,-0.8562799999999999,0.277102,0.882199,-0.38069000000000003,1.262813,-1.290852,0.748046,0.007383,-0.526104,0.144042
222,0.602745,-1.054167,-0.850622,0.280016,0.869489,-0.40689699999999995,0.86082,-1.7748680000000001,0.92532,-0.0954,-0.619428,0.13614500000000002
223,0.574462,-1.032314,-0.833534,0.278658,0.8584879999999999,-0.430505,0.560193,-2.393974,0.964606,-0.151308,-0.649671,0.183603
224,0.541683,-1.014348,-0.809225,0.272309,0.8491360000000001,-0.45255100000000004,0.356385,-2.7888319999999998,1.051282,-0.027939,-0.592331,0.279974
225,0.513922,-0.999884,-0.776876,0.26565300000000003,0.841409,-0.47058199999999994,0.08017300000000001,-2.696526,1.117601,-0.035459,-0.552743,0.325273
226,0.495443,-0.991323,-0.7411439999999999,0.260328,0.836751,-0.481731,-0.191082,-2.175195,0.9836469999999999,-0.031919,-0.528554,0.25303200000000003
227,0.48308199999999996,-0.987246,-0.711997,0.255936,0.834512,-0.487929,-0.154635,-1.7182009999999999,0.688487,-0.120636,-0.489572,0.148451
228,0.464398,-0.9845520000000001,-0.694288,0.247781,0.833024,-0.494634,-0.103092,-1.709705,0.384392,-0.174432,-0.457032,0.197103
229,0.435882,-0.988115,-0.684507,0.232323,0.83499,-0.49880399999999997,-0.464819,-1.8306189999999998,0.033780000000000004,-0.14368499999999998,-0.390898,0.274851
230,0.41539899999999996,-1.005925,-0.673235,0.216021,0.844657,-0.48977200000000004,-1.278843,-1.228641,-0.083772,0.140684,0.090416,0.427943
231,0.43542299999999995,-1.042348,-0.633066,0.21266100000000002,0.863591,-0.457136,-2.540555,-0.44097600000000003,0.370014,0.246705,-0.011601,0.39633
232,0.49576899999999996,-1.086012,-0.5628,0.221681,0.884775,-0.409897,-2.581379,0.22606700000000002,0.626315,0.089827,-0.000315,0.165024
233,0.5705979999999999,-1.101051,-0.49958800000000003,0.244488,0.891684,-0.380934,-0.38494,1.136796,1.13935,0.267825,1.600382,-0.898241
234,0.6064970000000001,-1.0831549999999999,-0.47193500000000005,0.267057,0.88344,-0.384966,0.667505,-0.034148000000000005,0.811712,-0.303694,-0.173708,-0.852324
235,0.5816939999999999,-1.0620290000000001,-0.47818299999999997,0.267625,0.873345,-0.406977,0.922258,-1.361168,0.246898,-0.222703,0.101828,-0.40681999999999996
236,0.545381,-1.048582,-0.494108,0.258742,0.866717,-0.426428,0.686389,-0.735931,-0.061062,-0.13735899999999998,0.766554,-0.185526
237,0.572353,-1.053978,-0.47595699999999996,0.267612,0.869396,-0.415357,-1.187308,1.2091120000000002,0.268393,0.610272,2.411366,0.767728
238,0.612499,-1.065078,-0.44540100000000005,0.2785,0.874827,-0.396359,-0.300148,0.235211,0.358091,-0.757458,-0.348048,0.45681499999999997
239,0.608726,-1.05608,-0.45887100000000003,0.281493,0.870432,-0.40385,0.843791,0.6097899999999999,-0.266786,-0.681609,-1.0982610000000002,0.580043
240,0.6173609999999999,-1.056438,-0.47840200000000005,0.284789,0.870609,-0.40115,-0.276598,1.770443,-0.502562,-0.541518,-0.9886969999999999,0.527325
241,0.64927,-1.0833959999999998,-0.487291,0.283145,0.883553,-0.37302399999999997,-1.242392,1.811325,-1.36287,-0.607196,-0.493936,0.463524
242,0.6435489999999999,-1.129161,-0.5157390000000001,0.256456,0.9040540000000001,-0.341907,-1.507328,0.500753,-2.12682,-0.351519,-0.23221,0.373707
243,0.613364,-1.188156,-0.554297,0.214908,0.927682,-0.305293,-2.301083,0.200071,-2.4353540000000002,0.047483,0.357459,0.610835
244,0.586465,-1.256887,-0.585095,0.170869,0.951134,-0.257159,-2.494307,0.080853,-2.291273,0.140548,0.505211,0.18020899999999998
245,0.568023,-1.311307,-0.614225,0.138015,0.966521,-0.216263,-1.8458419999999998,0.882661,-1.436398,0.183625,0.20610100000000003,0.201843
246,0.612013,-1.349842,-0.601413,0.125885,0.9756889999999999,-0.179345,-1.537128,1.8834080000000002,-0.75293,0.173156,0.07404,0.278466
247,0.673978,-1.373575,-0.577868,0.12225699999999999,0.980615,-0.153061,-0.858966,1.9031049999999998,-0.406387,0.009472,-0.338022,0.16528299999999999
248,0.729901,-1.389102,-0.555233,0.120449,0.9835389999999999,-0.13461900000000002,-0.705078,1.563496,-0.326897,-0.026242,-0.452701,0.187079
249,0.783434,-1.4032799999999999,-0.527207,0.117623,0.986002,-0.118086,-0.676315,1.1168930000000001,-0.288736,0.0718,-0.48140900000000003,0.079191
250,0.844134,-1.417549,-0.48042299999999993,0.11403699999999999,0.988281,-0.10137,-0.865017,0.478213,-0.246507,0.073509,-0.41513,0.029226
251,0.96321,-1.438136,-0.360696,0.10853099999999999,0.9912139999999999,-0.075465,-1.583538,-0.199627,-0.341456,-0.044215,0.057935,0.215586
252,1.169049,-1.462628,-0.150686,0.099266,0.9941559999999999,-0.042174,-1.638193,0.06325599999999999,-0.500271,-0.144295,0.210602,0.134444
253,1.399314,-1.481435,0.067135,0.087806,0.9960100000000001,-0.015206,-1.0345440000000001,1.0482209999999998,-0.653277,-0.195899,0.17743699999999998,0.16886199999999998
254,1.5716649999999999,-1.4963309999999999,0.21287199999999998,0.074237,0.997229,6.4e-05,-0.483605,1.328805,-0.702132,-0.11448900000000001,-0.0062770000000000005,-0.16875
255,1.693615,-1.514491,0.311356,0.055640999999999996,0.9984149999999999,0.006868000000000001,-0.1184,1.263,-1.0787149999999999,-0.11008499999999999,-0.08951,-0.228502
256,1.839405,-1.5385520000000001,0.425483,0.030722000000000003,0.9994799999999999,0.008457,-0.005497999999999999,1.725772,-1.286823,0.327325,-0.22361599999999998,-0.079944
257,2.706309,-1.556399,1.257894,0.0057090000000000005,0.9998959999999999,0.012276,-0.28808,1.627256,-1.18078,0.450254,0.078915,-0.013969999999999998
258,-2.499237,-1.54477,2.309598,-0.015313,0.999661,0.020465999999999998,-0.43270699999999995,1.0514270000000001,-0.910792,0.44236099999999995,0.123279,-0.033879
259,-2.3210740000000003,-1.531281,2.471393,-0.028675,0.9992190000000001,0.026728,-0.258824,0.778454,-0.463779,0.5684239999999999,0.117693,-0.076899
260,-2.261603,-1.5278,2.513934,-0.032914,0.9990760000000001,0.02721,0.109025,0.908648,-0.041565,0.509614,0.257089,-0.232044
261,-2.105864,-1.532491,2.6531,-0.032677,0.999266,0.019369,0.47253599999999996,0.67699,0.032842,0.444054,0.367692,-0.24724400000000002
262,-1.913507,-1.538343,2.840537,-0.030223000000000003,0.999473,0.010783,0.372551,0.006416,0.24771500000000002,0.480128,0.393761,-0.106868
263,-1.671297,-1.550649,3.090013,-0.019468,0.9997969999999999,0.001963,0.54589,-0.595843,0.723988,0.44533999999999996,0.263448,0.009176
264,0.17396199999999998,-1.555532,-1.325977,0.002512,0.999883,-0.014293,0.980909,-1.212432,1.3602040000000002,0.418707,0.279291,0.136104
265,0.74693,-1.516597,-0.726579,0.036667,0.998532,-0.039602,1.403337,-1.381264,1.922052,0.006286,-0.17568599999999998,0.252676
266,0.798331,-1.4641680000000001,-0.648266,0.07615,0.9943209999999999,-0.074206,1.801033,-1.260857,2.102,-0.07789,-0.156918,-0.09126000000000001
267,0.791972,-1.405636,-0.6321140000000001,0.116974,0.986392,-0.11544600000000001,2.060908,-1.042638,2.183652,-0.088547,0.431195,-0.171999
268,0.763822,-1.346134,-0.646898,0.154063,0.9748690000000001,-0.160858,2.3125,-0.473301,1.846054,-0.301707,0.907058,-0.060547000000000004
269,0.7309260000000001,-1.291483,-0.678091,0.184022,0.9612450000000001,-0.20524699999999999,2.170625,0.08167999999999999,1.443768,-0.36906500000000003,0.721952,0.054581
270,0.716635,-1.241506,-0.6990310000000001,0.21239,0.9462719999999999,-0.24380900000000003,2.088421,0.314168,1.450374,-0.350482,0.545244,-0.007351000000000001
271,0.703706,-1.191928,-0.716146,0.239308,0.929084,-0.281989,2.052338,0.023858,1.354354,-0.384191,0.43494499999999997,-0.011346
272,0.688455,-1.144788,-0.732757,0.262538,0.9106219999999999,-0.319101,1.9744439999999999,0.074938,1.168942,-0.412211,0.286964,0.335275
273,0.6748689999999999,-1.100831,-0.745704,0.282932,0.891584,-0.353572,1.8106509999999998,-0.237879,1.2173370000000001,-0.070255,-0.01605,0.330973
274,0.664588,-1.060278,-0.7473850000000001,0.301346,0.872491,-0.38462399999999997,1.484916,-0.532957,1.232531,-0.089005,-0.04194,0.320628
275,0.661932,-1.0227110000000001,-0.734897,0.320254,0.853524,-0.411,1.17632,-0.772752,1.5265799999999998,-0.029574,-0.55848,0.105611
276,0.65672,-0.986691,-0.7138720000000001,0.33666799999999997,0.834206,-0.436742,1.04643,-1.426372,1.524374,-0.140501,-0.500679,0.062611
277,0.639759,-0.953708,-0.692659,0.345457,0.815567,-0.464218,0.8709969999999999,-1.830309,1.459573,-0.10362,-0.428558,0.13578800000000002
278,0.622057,-0.92571,-0.666093,0.350358,0.799048,-0.48863100000000004,0.527772,-2.011221,1.444589,-0.049652999999999996,-0.425864,0.243835
279,0.6008899999999999,-0.905409,-0.6369199999999999,0.349038,0.786678,-0.509214,0.19645,-2.375579,1.207733,-0.05681699999999999,-0.455639,0.25186
280,0.568084,-0.895899,-0.6107229999999999,0.336158,0.780771,-0.526672,-0.21541100000000002,-2.810259,0.7781239999999999,-0.21993200000000002,-0.467875,0.24136300000000002
281,0.525705,-0.898668,-0.58909,0.31245700000000004,0.7824979999999999,-0.538568,-0.611215,-2.989353,0.354709,-0.072055,-0.44823900000000005,0.284983
282,0.489238,-0.911525,-0.572209,0.287862,0.790439,-0.5406770000000001,-0.9469299999999999,-2.042001,0.03282,0.029536,-0.382861,0.399212
283,0.47863100000000003,-0.9351889999999999,-0.554848,0.273417,0.804711,-0.526946,-1.542232,-0.788583,-0.147064,0.159505,-0.20705500000000002,0.44738599999999995
284,0.498622,-0.9712120000000001,-0.525416,0.269852,0.82557,-0.495583,-2.2259740000000003,0.108009,0.005108,0.163162,-0.195123,0.268074
285,0.552481,-1.009126,-0.473415,0.279503,0.846367,-0.45335299999999995,-2.372477,0.7606229999999999,0.497835,0.168175,0.24289699999999997,-0.225404
286,0.625946,-1.035146,-0.41171,0.29901700000000003,0.8599370000000001,-0.41362200000000005,-1.543319,0.9976959999999999,0.698807,0.27833,1.1481649999999999,-0.770155
287,0.661462,-1.0325959999999998,-0.37743899999999997,0.314862,0.858633,-0.404473,0.11741800000000001,-0.125237,0.624252,-0.26958899999999997,0.516901,-0.7207720000000001
288,0.6491140000000001,-1.019792,-0.37314400000000003,0.31646399999999997,0.851999,-0.417054,0.49047799999999997,-1.107947,0.432633,-0.346875,0.23993499999999998,-0.442428
289,0.628801,-1.01084,-0.369028,0.312402,0.8472780000000001,-0.42954799999999993,0.070891,-1.040022,0.32706599999999997,0.075843,1.6173819999999999,0.301115
290,0.656936,-1.020817,-0.333581,0.319183,0.852535,-0.41387399999999996,-1.471942,0.412851,0.373179,0.294205,2.138721,0.639521
291,0.690433,-1.03102,-0.307244,0.327307,0.857824,-0.396225,-0.097162,0.38953899999999997,0.21616999999999997,-0.548529,-0.018300999999999998,0.34863299999999997
292,0.682946,-1.0217889999999998,-0.32643099999999997,0.329315,0.853043,-0.40479,0.845234,0.66422,-0.293551,-0.656921,-0.892487,0.40620900000000004
293,0.6931930000000001,-1.024589,-0.344292,0.331918,0.8545010000000001,-0.399555,-0.344952,1.6889049999999999,-0.56596,-0.607309,-0.8453149999999999,0.311527
294,0.727021,-1.0542200000000002,-0.350999,0.328263,0.8695149999999999,-0.369015,-1.295726,1.8984,-1.513973,-0.660646,-0.17272200000000001,0.44785699999999995
295,0.729484,-1.101397,-0.376373,0.30147399999999996,0.89184,-0.337223,-1.3379780000000001,0.8540549999999999,-2.181637,-0.149725,0.369452,0.44903999999999994
296,0.719526,-1.157386,-0.398581,0.264741,0.9157559999999999,-0.302137,-2.184894,0.386301,-2.2222049999999998,0.015959,0.364823,0.631559
297,0.727852,-1.2238950000000002,-0.39803,0.22616399999999998,0.9404309999999999,-0.253816,-2.4675119999999997,0.46801499999999996,-2.165531,-0.134383,0.42394899999999996,0.238511
298,0.739781,-1.278038,-0.405308,0.194528,0.957451,-0.213137,-1.6368770000000001,1.3270870000000001,-1.669448,0.026816000000000003,0.27828200000000003,0.183428
299,0.7782319999999999,-1.316964,-0.405335,0.176261,0.967957,-0.178806,-1.292713,2.18045,-1.1885059999999998,0.0019920000000000003,0.024825999999999997,0.293109
300,0.8265530000000001,-1.3442889999999998,-0.402014,0.165165,0.974457,-0.152101,-0.799136,2.229422,-0.810175,0.039302,-0.18449400000000002,0.142717
301,0.8721409999999999,-1.363117,-0.397866,0.157843,0.978512,-0.13258699999999998,-0.61565,1.9266009999999998,-0.632249,0.065195,-0.365933,0.173617
302,0.909008,-1.381023,-0.392692,0.148769,0.9820469999999999,-0.11588699999999999,-0.583605,1.3973,-0.69544,0.040944,-0.44296899999999995,0.172726
303,0.938968,-1.399959,-0.384841,0.13713599999999998,0.9854430000000001,-0.100372,-0.685855,0.943917,-0.712665,0.097193,-0.460434,0.14240999999999998
304,1.000385,-1.421102,-0.33528600000000003,0.12546,0.9888170000000001,-0.080489,-1.12283,0.437942,-0.608247,-0.041444999999999996,-0.23791700000000002,0.168379
305,1.1533870000000002,-1.444708,-0.18729400000000002,0.114871,0.9920610000000001,-0.050942,-1.594107,0.370979,-0.503562,-0.058779,-0.107754,0.194359
306,1.398829,-1.463264,0.044529,0.105628,0.994224,-0.018346,-1.459719,1.076778,-0.500323,-0.09365,-0.082816,0.11324000000000001
307,1.6454529999999998,-1.475776,0.259884,0.09447799999999999,0.995489,0.007067,-0.8721620000000001,1.8538729999999999,-0.6040369999999999,0.012074,-0.060490999999999996,-0.076311
308,1.815393,-1.4874120000000002,0.391286,0.08065599999999999,0.996526,0.020131,-0.313287,1.934425,-0.719877,0.096575,-0.101491,-0.225469
309,1.9903990000000003,-1.504251,0.527868,0.060546,0.9977870000000001,0.027009,-0.144068,1.947041,-1.0904530000000001,0.288194,-0.166686,-0.235566
310,2.2623740000000003,-1.523671,0.764464,0.036069,0.99889,0.029865,-0.012794,1.630557,-1.179929,0.44421700000000003,-0.153156,-0.207813
311,2.7085220000000003,-1.535863,1.187187,0.0145,0.99939,0.031362,-0.12103,0.833066,-0.920085,0.6012529999999999,0.077316,0.017085
312,3.1088419999999997,-1.531569,1.580596,0.001273,0.999231,0.038860000000000006,-0.494167,0.10728499999999999,-0.5169020000000001,0.442895,0.08089299999999999,-0.043286
313,-3.1020950000000003,-1.52285,1.6468759999999998,-0.001882,0.998851,0.047614,-0.32024600000000003,0.506804,0.12046099999999998,0.653783,0.128148,-0.158057
314,3.112874,-1.5223799999999998,1.565808,0.001382,0.998828,0.048098,0.14391099999999998,0.584821,0.187697,0.330405,0.536175,-0.296709
315,3.080258,-1.529236,1.530991,0.002527,0.999137,0.041149,0.46015100000000003,-0.224041,-0.006679000000000001,0.417181,0.512491,-0.163464
316,2.9948580000000002,-1.541069,1.456469,0.00428,0.999558,0.028961,0.7209720000000001,-0.6411479999999999,0.179411,0.467232,0.490813,-0.116119
317,1.9454759999999998,-1.555267,0.42566400000000004,0.013658000000000002,0.9998790000000001,0.005371,1.474197,-1.15473,0.621165,0.331068,0.203688,0.162369
318,0.8279780000000001,-1.523306,-0.664832,0.034773,0.998873,-0.031931,2.005491,-1.3280370000000001,1.408105,0.09213400000000001,-0.009370999999999999,0.28718
319,0.749516,-1.465034,-0.7233229999999999,0.07184199999999999,0.9944120000000001,-0.077192,2.3393639999999998,-0.8272889999999999,2.166097,-0.104054,-0.15543800000000002,0.228285
320,0.751664,-1.396684,-0.709533,0.118249,0.9848809999999999,-0.12650899999999998,2.48077,-0.41029099999999996,2.457107,-0.160943,0.354627,0.035276999999999996
321,0.7464149999999999,-1.329625,-0.717079,0.162145,0.971059,-0.175306,2.471859,0.50758,2.031784,-0.42900600000000005,0.810878,0.181593
322,0.7438359999999999,-1.2724090000000001,-0.739626,0.199035,0.9558120000000001,-0.21630700000000003,2.212133,1.16746,1.606108,-0.452254,0.847808,0.227309
323,0.75322,-1.218402,-0.758761,0.236058,0.938549,-0.25176,2.1785639999999997,1.345274,1.6569209999999999,-0.185399,0.377537,-0.049738
324,0.756688,-1.1685159999999999,-0.774301,0.26876700000000003,0.920171,-0.284661,1.905299,0.568599,1.3836110000000001,-0.242781,0.35494499999999995,-0.060554
325,0.7433649999999999,-1.127067,-0.791253,0.29053,0.903157,-0.316042,1.649471,0.005343,1.0043950000000001,-0.287616,0.281841,0.195421
326,0.720654,-1.093317,-0.8115640000000001,0.30322899999999997,0.888156,-0.34527399999999997,1.531009,-0.472682,0.770239,-0.041861,0.07195800000000001,0.134245
327,0.6886479999999999,-1.060274,-0.825926,0.310513,0.87249,-0.377263,1.401313,-1.226816,0.862167,0.13675299999999999,-0.135673,0.12645499999999998
328,0.658338,-1.028318,-0.8238270000000001,0.31584,0.856432,-0.408355,1.113803,-1.78404,1.132201,-0.053205999999999996,-0.5739920000000001,0.145232
329,0.6274810000000001,-0.999192,-0.809733,0.31760700000000003,0.8410340000000001,-0.43791899999999995,0.834628,-2.360678,1.188674,-0.121669,-0.631927,0.22161
330,0.5948060000000001,-0.974153,-0.7873600000000001,0.314835,0.827226,-0.465362,0.5717899999999999,-2.613579,1.257665,-0.07833899999999999,-0.564821,0.32153200000000004
331,0.570592,-0.952939,-0.75441,0.312886,0.815122,-0.48751000000000005,0.23985599999999999,-2.471429,1.428216,0.01115,-0.473844,0.264625
332,0.559484,-0.936282,-0.715385,0.31461500000000003,0.805359,-0.502395,0.050587,-1.910211,1.371695,-0.080789,-0.411713,0.145125
333,0.550214,-0.920543,-0.6845720000000001,0.316533,0.795931,-0.516031,0.31226,-1.682968,1.060243,-0.129339,-0.395235,0.135462
334,0.521392,-0.905235,-0.6682,0.30756500000000003,0.78657,-0.535443,0.368102,-2.445481,0.689869,-0.168954,-0.481059,0.39773200000000003
335,0.47480100000000003,-0.898756,-0.657375,0.284617,0.7825529999999999,-0.553707,-0.092461,-2.737483,0.319558,-0.072245,-0.335104,0.542507
336,0.441154,-0.9100809999999999,-0.642183,0.26202800000000004,0.789553,-0.5549189999999999,-1.1498760000000001,-1.9661939999999998,0.163769,0.123608,-0.21922600000000003,0.575442
337,0.44797600000000004,-0.942664,-0.603061,0.254525,0.809126,-0.529641,-2.4044830000000004,-0.690082,0.473836,0.295829,-0.250899,0.454842
338,0.50507,-0.985482,-0.540817,0.267312,0.8335389999999999,-0.483471,-2.783648,0.8677600000000001,0.699928,0.172034,0.147861,-0.303852
339,0.591304,-1.0155379999999998,-0.47265799999999997,0.293856,0.849764,-0.437647,-1.652554,1.5003879999999998,0.821317,0.21188099999999999,1.1608100000000001,-0.862951
340,0.623894,-1.011466,-0.44634300000000005,0.309979,0.847611,-0.43064399999999997,0.535856,-0.231553,0.473491,-0.107678,0.6178279999999999,-0.780614
341,0.580879,-0.990891,-0.464629,0.300683,0.836515,-0.45806,1.147243,-1.838375,0.040781,-0.230019,-0.018888,-0.563683
342,0.5385479999999999,-0.985209,-0.474308,0.283462,0.8333879999999999,-0.474447,-0.061003999999999996,-1.426492,-0.14871600000000001,-0.16323800000000002,-0.59091,-0.14205399999999999
343,0.545056,-1.0051809999999999,-0.459675,0.277857,0.844259,-0.458266,-2.016421,0.588076,-0.084839,-0.020564,1.429118,0.310714
344,0.65647,-1.06241,-0.366051,0.297076,0.873531,-0.385581,-3.7302769999999996,1.42525,0.36786199999999997,0.21597,4.188099,0.923392
345,0.708795,-1.068717,-0.317864,0.313243,0.876584,-0.36532600000000004,0.454484,-0.24096700000000001,0.766696,-0.8932450000000001,-0.22118800000000002,0.24183600000000002
346,0.674075,-1.0440479999999999,-0.354142,0.313779,0.8644459999999999,-0.392759,1.655086,0.274416,-0.22009299999999998,-0.8665129999999999,-0.8364159999999999,0.396635
347,0.676784,-1.04051,-0.383077,0.316755,0.862662,-0.394289,-0.051186,1.911962,-0.659262,-0.7351810000000001,-0.738028,0.383334
348,0.6790729999999999,-1.065828,-0.413523,0.303838,0.8751899999999999,-0.376442,-0.620454,0.9053260000000001,-1.775036,-0.507421,-0.366263,0.429116
349,0.648628,-1.101556,-0.459795,0.273165,0.891912,-0.360356,-1.062027,0.48903900000000006,-1.983754,-0.07560900000000001,0.094614,0.684361
350,0.647922,-1.1655149999999999,-0.472818,0.23794400000000002,0.918992,-0.314354,-3.032795,0.646127,-2.26264,0.042131,0.367095,0.788658
351,0.669949,-1.241732,-0.46836700000000003,0.20064400000000002,0.9463450000000001,-0.253283,-2.7887150000000003,1.15201,-2.177194,0.341837,0.41495200000000004,0.341174
352,0.71073,-1.296606,-0.467459,0.176619,0.9626450000000001,-0.20518000000000003,-1.834523,2.4305209999999997,-1.452185,0.18251199999999998,0.141496,0.197001
353,0.773175,-1.333621,-0.45486899999999997,0.16406300000000001,0.9720059999999999,-0.168124,-1.2083700000000002,2.3839040000000002,-0.993758,-0.128602,-0.210684,0.196352
354,0.810239,-1.356683,-0.45716899999999994,0.153892,0.977165,-0.14643,-0.6417069999999999,1.6928490000000003,-0.763519,-0.054252,-0.331902,0.21297399999999997
355,0.837916,-1.375483,-0.45390600000000003,0.144199,0.980987,-0.129797,-0.67961,0.9946659999999999,-0.62402,0.06596,-0.44599799999999995,0.23499099999999998
356,0.8732209999999999,-1.392598,-0.43242200000000003,0.135796,0.984165,-0.113818,-0.761343,0.550028,-0.448833,0.092338,-0.48556800000000006,0.17721800000000001
357,0.944206,-1.410068,-0.36568,0.129572,0.9871110000000001,-0.093798,-1.137583,0.112738,-0.25755300000000003,0.095571,-0.34137399999999996,0.19735899999999998
358,1.103323,-1.42769,-0.20847600000000002,0.127236,0.989778,-0.064228,-1.641084,0.289614,-0.097858,0.067741,-0.144258,0.271289
359,1.340806,-1.4434420000000001,0.015278,0.12356400000000001,0.991901,-0.02893,-1.616809,1.174688,-0.342377,-0.090361,0.076443,-0.035156
360,1.575814,-1.454832,0.21816300000000002,0.115585,0.9932840000000001,0.00058,-1.011067,1.9698,-0.43851,0.042816,0.12455999999999999,-0.189407
361,1.705195,-1.4642959999999998,0.310616,0.10521099999999999,0.994334,0.014225999999999999,-0.16883099999999998,1.6830459999999998,-0.587151,-0.12501700000000002,0.24551900000000002,-0.355412
362,1.729153,-1.48438,0.30502199999999996,0.08507100000000001,0.996268,0.013585,0.291464,1.4228690000000002,-1.189285,0.082639,-0.237144,-0.20288599999999998
363,1.7749669999999997,-1.510305,0.324209,0.058975,0.9981709999999999,0.012211,0.030799,1.210206,-1.3275649999999999,0.41185,-0.243914,-0.064442
364,2.092031,-1.5329,0.625311,0.032539,0.999282,0.018684,-0.47709399999999996,0.559715,-1.253364,0.52137,-0.035049000000000004,0.07946
365,2.733324,-1.5372629999999998,1.2609139999999999,0.013144,0.9994379999999999,0.030387,-0.5845819999999999,0.196838,-0.723812,0.571481,0.018125,-0.00025
366,2.9622599999999997,-1.531069,1.48234,0.007022,0.9992110000000001,0.038734,-0.241223,0.561642,-0.076675,0.400937,0.27737,-0.252265
367,2.900947,-1.5326959999999998,1.406264,0.008990999999999999,0.999274,0.036639,0.29386799999999996,0.723804,0.198183,0.29044699999999996,0.579263,-0.376772
368,2.7042580000000003,-1.538974,1.202218,0.01329,0.9994940000000001,0.028426999999999997,0.43275,0.113738,0.259756,0.342499,0.6333949999999999,-0.169159
369,2.282892,-1.542658,0.787269,0.020931,0.999604,0.018068,0.603775,-0.570479,0.455175,0.322407,0.376006,-0.04799
370,1.5369270000000002,-1.535824,0.06193200000000001,0.034564,0.999389,-0.0011710000000000002,1.1642700000000001,-1.287721,0.8456370000000001,0.340955,0.170045,0.269573
371,1.066858,-1.501551,-0.380286,0.060427,0.997603,-0.033320999999999996,1.761997,-1.4238680000000001,1.606288,0.124403,-0.000579,0.340511
372,0.906626,-1.446046,-0.515868,0.097899,0.9922290000000001,-0.076636,2.235705,-1.147412,2.1230580000000003,-0.084334,-0.156886,0.122306
373,0.8453879999999999,-1.381084,-0.559811,0.141052,0.982059,-0.125068,2.380757,-0.73109,2.3136810000000003,-0.137131,0.668195,0.03968
374,0.808326,-1.318026,-0.5948869999999999,0.180815,0.968223,-0.172708,2.411834,0.259247,1.846884,-0.324461,0.858193,0.162866
375,0.779756,-1.26335,-0.639618,0.212754,0.953109,-0.21516799999999997,2.320032,0.959239,1.36785,-0.352509,0.795502,0.168446
376,0.7724979999999999,-1.211624,-0.671417,0.24530100000000002,0.9361879999999999,-0.251713,2.133485,1.160558,1.534,-0.316834,0.373657,-0.09399
377,0.77596,-1.1628610000000001,-0.685663,0.277843,0.917942,-0.283138,1.8384900000000002,0.5226,1.487892,-0.332363,0.360317,-0.094395
378,0.76176,-1.11923,-0.703105,0.30117,0.8997649999999999,-0.315756,1.8225419999999999,-0.10636099999999998,1.081594,-0.45453599999999994,0.304078,0.327002
379,0.733503,-1.0832700000000002,-0.729745,0.313598,0.883494,-0.347961,1.671273,-0.413322,0.7209399999999999,-0.017943999999999998,-0.035532999999999995,0.254852
380,0.698592,-1.050068,-0.749622,0.31995999999999997,0.8674569999999999,-0.380957,1.468323,-1.160513,0.73864,0.039705000000000004,-0.292292,0.22267800000000001
381,0.6667029999999999,-1.019441,-0.751875,0.323934,0.851815,-0.41165799999999997,1.074079,-1.677089,1.059151,0.009729999999999999,-0.629617,0.178549
382,0.640738,-0.9910209999999999,-0.736189,0.327481,0.836586,-0.43916400000000005,0.764104,-2.134662,1.203918,-0.084928,-0.6410899999999999,0.207765
383,0.6119600000000001,-0.9672270000000001,-0.715067,0.32605500000000004,0.823315,-0.464571,0.53167,-2.355365,1.186554,0.03094,-0.566479,0.28320500000000004
384,0.589475,-0.946293,-0.687742,0.32504,0.811254,-0.486008,0.363518,-2.1623669999999997,1.286613,0.0367,-0.528188,0.281219
385,0.5732010000000001,-0.927566,-0.6563640000000001,0.325271,0.800162,-0.503911,0.201973,-2.042418,1.267172,-0.033888999999999996,-0.457038,0.21034699999999998
386,0.556767,-0.9147850000000001,-0.626463,0.322325,0.792431,-0.517829,-0.023715,-1.990377,0.9696309999999999,-0.187697,-0.431683,0.154639
387,0.5319229999999999,-0.9092290000000001,-0.606646,0.31159000000000003,0.78903,-0.529462,-0.10519500000000001,-2.097827,0.472476,-0.292578,-0.40573000000000004,0.217283
388,0.49723900000000004,-0.912164,-0.5975159999999999,0.291937,0.79083,-0.5379109999999999,-0.41732600000000003,-1.9872599999999998,0.00013700000000000002,-0.211569,-0.356901,0.38655900000000004
389,0.472321,-0.928618,-0.591391,0.272486,0.800793,-0.533357,-1.078986,-1.136873,-0.299336,0.07169099999999999,-0.146283,0.48306400000000005
390,0.480688,-0.960205,-0.569174,0.26510700000000004,0.8193090000000001,-0.508368,-2.1159169999999996,-0.09904500000000001,0.004012,0.274413,-0.24129099999999998,0.477256
391,0.532658,-1.003053,-0.518742,0.273066,0.843117,-0.463222,-2.690166,0.867901,0.31602399999999997,0.156194,-0.040642000000000005,0.015636
392,0.617851,-1.033911,-0.453563,0.296274,0.8593059999999999,-0.416893,-1.645631,1.744734,0.714234,0.277991,1.051735,-0.8033060000000001
393,0.666758,-1.023372,-0.424259,0.321883,0.8538680000000001,-0.409005,0.755067,0.654895,0.779401,-0.13172799999999998,1.0010059999999998,-0.759116
394,0.6414270000000001,-0.9975799999999999,-0.44109799999999993,0.324494,0.840161,-0.434533,1.299871,-1.291498,0.34131999999999996,-0.314148,-0.34115300000000004,-0.519522
395,0.603809,-0.988238,-0.44390100000000005,0.312365,0.835058,-0.452871,-0.11574200000000001,-1.71923,0.10979000000000001,-0.030031,0.71644,0.037358999999999996
396,0.610539,-1.0057120000000002,-0.423649,0.306992,0.844543,-0.43873500000000004,-1.8722580000000002,0.343864,0.12051500000000001,0.660324,1.9086610000000002,0.604613
397,0.686213,-1.0383149999999999,-0.35364,0.321658,0.86155,-0.39274899999999996,-1.9480240000000002,0.7228899999999999,0.505128,-0.25885199999999997,2.654334,0.42638000000000004
398,0.700928,-1.033385,-0.332375,0.330138,0.859037,-0.391216,0.617153,-0.4724,0.42523299999999997,-0.74774,-0.273374,0.32610700000000004
399,0.678265,-1.0210709999999998,-0.35886799999999996,0.327801,0.852668,-0.406804,0.7563439999999999,0.46366199999999996,-0.414617,-0.817943,-0.8045869999999999,0.411351
400,0.685469,-1.030627,-0.381535,0.32555,0.857621,-0.39810500000000004,-0.36986399999999997,1.628989,-1.014704,-0.692371,-0.45994700000000005,0.367435
401,0.674221,-1.0602200000000002,-0.419998,0.305068,0.8724629999999999,-0.381741,-0.5427489999999999,0.642813,-1.996343,-0.510603,0.038577999999999994,0.338803
402,0.6426069999999999,-1.099243,-0.463322,0.272227,0.890864,-0.363645,-1.397979,0.31958200000000003,-1.9410150000000002,-0.057886,0.123998,0.704557
403,0.6504270000000001,-1.1619469999999998,-0.465847,0.24071599999999999,0.917579,-0.316366,-2.946821,0.630671,-1.9372770000000001,-0.066979,0.25316700000000003,0.656713
404,0.684707,-1.229673,-0.450111,0.21156399999999997,0.9423790000000001,-0.259119,-2.542481,1.283678,-1.7536909999999999,0.150847,0.361164,0.077051
405,0.7389020000000001,-1.277335,-0.436907,0.19479100000000002,0.957248,-0.21380300000000002,-1.7167130000000002,2.556867,-1.184466,0.17616600000000002,0.170941,0.26199
406,0.811673,-1.3130620000000002,-0.41846099999999997,0.18487699999999999,0.9669700000000001,-0.17540799999999998,-1.255002,2.662201,-1.020074,0.08831699999999999,0.002085,0.284173
407,0.86508,-1.337817,-0.411706,0.17569500000000002,0.972983,-0.14971199999999998,-0.706952,2.15423,-0.737857,0.049738,-0.223135,0.179802
408,0.909358,-1.354978,-0.40316599999999997,0.168944,0.976801,-0.13150799999999999,-0.621835,1.559891,-0.566654,0.048601,-0.30575,0.17998499999999998
409,0.958625,-1.3703809999999998,-0.37859699999999996,0.162877,0.979984,-0.11436500000000001,-0.6852199999999999,1.1472069999999999,-0.40633400000000003,0.081202,-0.34155599999999997,0.15220699999999998
410,1.0266629999999999,-1.383086,-0.328982,0.159604,0.982434,-0.096571,-0.797586,0.824965,-0.177039,0.06087000000000001,-0.30096100000000003,0.109373
411,1.123593,-1.393527,-0.24299,0.158939,0.9843290000000001,-0.07622899999999999,-1.024376,0.561127,-0.068258,0.007168000000000001,-0.180084,0.132366
412,1.2533969999999999,-1.40456,-0.124128,0.157135,0.986215,-0.051620000000000006,-1.19143,0.748734,-0.219216,-0.129654,-0.12171300000000002,0.135467
413,1.405677,-1.419429,0.007161,0.14865499999999998,0.988566,-0.024771,-1.158224,1.309572,-0.639514,-0.084888,-0.11794500000000001,0.071219
414,1.5598239999999999,-1.438568,0.13197799999999998,0.131737,0.9912709999999999,-0.0014449999999999999,-0.803288,1.589925,-0.9941780000000001,0.097344,-0.095122,-0.094639
415,1.6924990000000002,-1.4616149999999999,0.23648899999999998,0.108036,0.9940459999999999,0.013213999999999998,-0.438745,1.419553,-1.327903,0.09261699999999999,-0.276318,-0.369552
416,1.833248,-1.489262,0.348047,0.078493,0.9966780000000001,0.021087,-0.158397,1.465998,-1.463805,0.221754,-0.22301100000000001,-0.336959
417,1.982058,-1.5143469999999999,0.47433000000000003,0.051491999999999996,0.9984069999999999,0.022456999999999998,0.069454,0.8932389999999999,-1.218993,0.420279,0.004538,-0.09803400000000001
418,2.2158740000000003,-1.53074,0.699902,0.031725,0.9991979999999999,0.023872,-0.187181,0.136491,-0.8961450000000001,0.514417,0.015359000000000001,0.060767999999999996
419,2.526163,-1.5321280000000002,1.007231,0.022113999999999998,0.999252,0.031277,-0.387135,0.243106,-0.212948,0.567715,0.056183000000000004,-0.061641999999999995
420,2.598864,-1.530011,1.070645,0.020884,0.9991680000000001,0.034625,0.021972,0.5784590000000001,0.017011000000000002,0.31571,0.424461,-0.30678099999999997
421,2.4788360000000003,-1.534222,0.9425479999999999,0.022269999999999998,0.999331,0.028532,0.462501,0.200405,0.138077,0.378701,0.525098,-0.19706500000000002
422,2.016913,-1.5371059999999999,0.483563,0.030026,0.999433,0.014361,0.8956860000000001,-0.336445,0.548783,0.341922,0.287814,0.035917000000000004
423,1.281833,-1.522821,-0.23579,0.045705,0.998849,-0.013587,1.6480290000000002,-1.10333,0.9331719999999999,0.393825,0.191718,0.157356
424,0.92989,-1.4799579999999999,-0.564025,0.0726,0.995877,-0.054155999999999996,2.10417,-1.16656,1.697013,-0.0020280000000000003,-0.26994,0.202487
425,0.837988,-1.418276,-0.6356350000000001,0.11287,0.988391,-0.101582,2.383737,-1.008125,2.325809,-0.009934,-0.05936,-0.096218
426,0.80842,-1.348763,-0.6471779999999999,0.159221,0.9754520000000001,-0.152053,2.466714,-0.714838,2.436039,-0.054408000000000005,0.390393,-0.064286
427,0.7873439999999999,-1.2875159999999999,-0.669029,0.197998,0.960144,-0.197229,2.241014,0.397543,1.7750130000000002,-0.328308,1.057099,0.172693
428,0.779115,-1.235833,-0.6973550000000001,0.23096399999999997,0.944422,-0.23388499999999998,2.07127,1.231439,1.443746,-0.227408,0.843893,0.167051
429,0.78545,-1.184595,-0.717921,0.266343,0.9263469999999999,-0.266316,2.069373,1.150069,1.547455,-0.16501,0.628463,0.044804000000000004
430,0.778311,-1.138048,-0.737627,0.29441300000000004,0.907817,-0.298616,1.837738,0.130407,1.264065,-0.190897,0.436605,-0.019759
431,0.752744,-1.0978299999999999,-0.7583810000000001,0.311406,0.8902209999999999,-0.332438,1.7225720000000002,-0.441974,0.913617,-0.22965,0.37754,0.249369
432,0.723416,-1.065899,-0.781292,0.320185,0.875224,-0.362557,1.4266889999999999,-0.5474720000000001,0.646766,0.072073,0.023488,0.169625
433,0.695871,-1.03494,-0.793937,0.327298,0.8598319999999999,-0.391854,1.354265,-1.001953,0.8775790000000001,0.04935,-0.17639000000000002,0.109383
434,0.673309,-1.0009549999999998,-0.790794,0.336409,0.841987,-0.42174799999999996,1.216116,-1.429195,1.279881,-0.09735,-0.490363,0.091228
435,0.644497,-0.966973,-0.778304,0.341121,0.8231709999999999,-0.45388500000000004,1.049576,-2.367263,1.314103,-0.227229,-0.55782,0.200147
436,0.601514,-0.937017,-0.7577659999999999,0.335111,0.8057949999999999,-0.488242,0.757099,-3.2508220000000003,1.4125370000000002,-0.025068,-0.47471,0.359046
437,0.558701,-0.9125770000000001,-0.725801,0.324252,0.791083,-0.518687,0.297967,-3.463771,1.517493,0.007764,-0.459417,0.39242
438,0.529047,-0.899445,-0.682222,0.313947,0.782982,-0.536995,-0.401363,-2.9517889999999998,1.428631,-0.005476,-0.474571,0.384621
439,0.51325,-0.90055,-0.638079,0.305001,0.783669,-0.541133,-0.8393360000000001,-2.33486,0.9761280000000001,-0.1475,-0.51693,0.215709
440,0.49282299999999996,-0.906761,-0.607839,0.291576,0.787512,-0.5429510000000001,-0.621901,-2.137721,0.506308,-0.10421300000000001,-0.491858,0.289366
441,0.467995,-0.913934,-0.592037,0.275452,0.791912,-0.544967,-0.535697,-1.624061,0.116351,-0.065827,-0.48908599999999997,0.385422
442,0.45127799999999996,-0.9272879999999999,-0.584048,0.261667,0.799995,-0.53993,-0.877864,-0.864419,-0.144454,0.011495,-0.287697,0.45370299999999997
443,0.458284,-0.9519790000000001,-0.563098,0.256625,0.814565,-0.5202060000000001,-1.7132669999999999,-0.30993200000000004,0.17694400000000002,0.15962,-0.239812,0.466053
444,0.500143,-0.985768,-0.514205,0.264813,0.8336969999999999,-0.484572,-2.322396,0.363748,0.598047,-0.043759,-0.076693,0.075636
445,0.572449,-1.0155100000000001,-0.45081400000000005,0.285565,0.84975,-0.443129,-1.8338290000000002,1.223198,0.763796,0.086337,0.7633939999999999,-0.564531
446,0.625815,-1.013116,-0.407524,0.30998600000000004,0.848485,-0.428913,0.185278,0.407679,1.0235670000000001,-0.42082600000000003,0.8288979999999999,-1.050014
447,0.625929,-0.9929680000000001,-0.398447,0.31998699999999997,0.837651,-0.44264499999999996,0.961084,-0.818818,0.709023,-0.276667,0.657466,-0.8729379999999999
448,0.611182,-0.969252,-0.394462,0.324735,0.824463,-0.463458,0.6429630000000001,-0.639633,0.9298299999999999,0.30383499999999997,1.8784330000000002,0.167514
449,0.6295069999999999,-0.9613010000000001,-0.371501,0.337023,0.819937,-0.462714,-0.25708400000000003,0.243944,0.529305,-0.030748,1.400888,0.8467319999999999
450,0.636001,-0.9542709999999999,-0.365551,0.343436,0.815893,-0.46514099999999997,0.517841,-0.048076,0.15800999999999998,-0.798895,-0.332586,0.51574
451,0.6304350000000001,-0.94842,-0.379137,0.34365,0.812495,-0.470895,0.192893,0.605538,-0.24247600000000002,-0.508262,-0.723033,0.5203479999999999
452,0.658033,-0.9661059999999999,-0.380632,0.34767,0.822678,-0.449791,-1.238944,1.873229,-0.8683290000000001,-0.6001569999999999,-0.332169,0.6565479999999999
453,0.692654,-1.0114299999999998,-0.37966,0.338853,0.847592,-0.408351,-1.972641,1.387894,-1.670794,-0.5059670000000001,-0.166485,0.556606
454,0.702363,-1.07005,-0.389137,0.310131,0.877225,-0.36644,-2.1715709999999997,0.671971,-2.282289,-0.173153,0.466876,0.583817
455,0.693198,-1.136004,-0.407256,0.26914699999999997,0.906957,-0.32399,-2.261247,0.226719,-2.478898,0.029039999999999996,0.458079,0.486374
456,0.677153,-1.1982899999999999,-0.435291,0.228027,0.9314180000000001,-0.28362800000000005,-1.93346,0.751955,-2.244409,-0.078368,0.423242,0.22626999999999997
457,0.689067,-1.2487549999999998,-0.45035600000000003,0.201218,0.948591,-0.24426399999999998,-1.71534,1.587691,-1.50902,0.053986,0.175295,0.292421
458,0.734078,-1.285731,-0.440993,0.188364,0.959643,-0.208763,-1.329388,1.898162,-0.897835,0.097799,-0.099261,0.199943
459,0.788633,-1.309868,-0.426418,0.182975,0.966151,-0.181796,-0.8338049999999999,2.07953,-0.596572,0.100884,-0.259684,0.159991
460,0.839694,-1.326298,-0.415587,0.18017,0.970259,-0.16159600000000002,-0.59904,1.9717069999999999,-0.476221,0.025671,-0.422865,0.229512
461,0.885299,-1.341013,-0.404498,0.17627400000000001,0.973716,-0.144156,-0.5783520000000001,1.58602,-0.47985500000000003,0.006633,-0.446693,0.21716999999999997
462,0.933635,-1.3571360000000001,-0.382866,0.170388,0.977261,-0.126111,-0.7944979999999999,1.2139010000000001,-0.474479,-0.037163999999999996,-0.429547,0.191907
463,1.022453,-1.376736,-0.310739,0.164517,0.9812290000000001,-0.100491,-1.39574,0.7255020000000001,-0.36054899999999995,-0.08569,-0.11012000000000001,0.199963
464,1.176176,-1.3974389999999999,-0.16564600000000002,0.159164,0.9850110000000001,-0.066286,-1.7053479999999999,0.51642,-0.286599,-0.052489999999999995,-0.008189,0.17737
465,1.351807,-1.4129450000000001,-0.005517,0.153358,0.987567,-0.034131,-1.28214,1.247348,-0.424516,-0.12545,0.09216,0.108976
466,1.489716,-1.426656,0.098012,0.143073,0.9896299999999999,-0.011626000000000001,-0.660189,1.987414,-0.621946,0.1764,-0.00643,-0.13463
467,1.588208,-1.441067,0.15809700000000002,0.12923800000000002,0.991597,0.002251,-0.301244,1.89428,-0.819077,0.094807,-0.151112,-0.19722699999999999
468,1.645028,-1.462679,0.17601,0.10747999999999999,0.9941610000000001,0.007993,0.041247000000000006,1.974588,-1.218439,0.37598000000000004,-0.21388800000000002,-0.23408299999999999
469,1.717416,-1.488048,0.211671,0.081597,0.9965780000000001,0.01205,-0.102724,1.696205,-1.2735670000000001,0.5339729999999999,0.050709,-0.138469
470,1.8559279999999998,-1.508948,0.328434,0.059086,0.998088,0.017319,-0.219406,0.715378,-0.9793639999999999,0.585689,0.08749900000000001,-0.007126
471,2.032486,-1.520614,0.49883900000000003,0.044641,0.998741,0.022212,-0.217401,0.169275,-0.544953,0.607244,0.040855,-0.09756000000000001
472,2.1105389999999997,-1.524218,0.573383,0.039661,0.998915,0.02376,0.050699,0.21870599999999998,-0.085944,0.4156,0.285112,-0.24620300000000003
473,2.023964,-1.525213,0.481446,0.040664,0.9989610000000001,0.019802,0.275068,0.23423899999999998,0.097201,0.315598,0.409227,-0.191601
474,1.8647779999999998,-1.52519,0.323747,0.043315,0.9989600000000001,0.013113999999999999,0.36309600000000003,-0.259683,0.195657,0.412297,0.27698,-0.138938
475,1.622529,-1.518412,0.088424,0.052003999999999995,0.9986280000000001,0.002693,0.654053,-0.405043,0.596322,0.230039,0.115904,-0.037574
476,1.2749840000000001,-1.499778,-0.245498,0.067678,0.9974790000000001,-0.020625,1.433237,-1.00434,0.872793,0.282969,0.010898,0.140513
477,0.9748899999999999,-1.463357,-0.517914,0.088641,0.9942340000000001,-0.060111000000000005,2.080637,-1.5209190000000001,1.3565399999999999,0.097211,-0.0076159999999999995,0.131492
478,0.8616729999999999,-1.404871,-0.605444,0.12528699999999998,0.986266,-0.10749700000000001,2.357082,-1.271048,2.298187,0.020633000000000002,0.21644699999999997,0.040419
479,0.818423,-1.334262,-0.624558,0.171042,0.9721559999999999,-0.160102,2.547094,-1.0732059999999999,2.4744490000000003,-0.176275,0.8326389999999999,0.146094
480,0.78582,-1.271622,-0.649346,0.20846599999999998,0.9555799999999999,-0.20829,2.333034,-0.0766,1.71858,-0.276566,1.031663,0.213493
481,0.754985,-1.219718,-0.691095,0.235652,0.939002,-0.25044,2.336859,0.749921,1.216551,-0.33694,0.8799370000000001,0.24490100000000004
482,0.7394029999999999,-1.1678540000000002,-0.7275149999999999,0.26421500000000003,0.919911,-0.289711,2.3285150000000003,0.872136,1.296453,-0.169183,0.317256,0.02935
483,0.728071,-1.118751,-0.750124,0.290649,0.8995559999999999,-0.32604099999999997,1.995643,0.163805,1.299309,-0.084136,0.17920999999999998,0.013678000000000001
484,0.716199,-1.0763770000000001,-0.760293,0.31151999999999996,0.880244,-0.35791799999999996,1.616044,-0.160305,1.162477,-0.436382,0.248311,0.29239699999999996
485,0.7069340000000001,-1.041118,-0.766101,0.328154,0.8629700000000001,-0.38416,1.329833,-0.346302,1.03787,-0.182372,-0.041283999999999994,0.223836
486,0.6947220000000001,-1.0085870000000001,-0.763059,0.341237,0.8460799999999999,-0.40949800000000003,1.086021,-1.031038,1.1898,0.073909,-0.234141,0.11086900000000001
487,0.684272,-0.976309,-0.743185,0.354025,0.8284360000000001,-0.433986,0.8283870000000001,-1.450431,1.597667,0.072245,-0.396902,0.085506
488,0.6710430000000001,-0.943842,-0.717367,0.364792,0.809818,-0.459462,0.773858,-1.980631,1.568055,-0.017547,-0.501225,0.206319
489,0.6399050000000001,-0.914535,-0.690634,0.364331,0.792279,-0.48943100000000006,0.592464,-2.996027,1.506133,0.036381000000000004,-0.509671,0.31101
490,0.59892,-0.8901209999999999,-0.658127,0.354772,0.777148,-0.519772,0.29049400000000003,-3.4616379999999998,1.52278,0.043207999999999996,-0.501055,0.398511
491,0.561474,-0.874189,-0.6220319999999999,0.341615,0.767023,-0.543103,-0.137527,-3.034132,1.278892,-0.130998,-0.570078,0.264081
492,0.5334369999999999,-0.869641,-0.5903510000000001,0.32802600000000004,0.764097,-0.5554640000000001,-0.394138,-2.447549,0.7988529999999999,-0.226402,-0.547346,0.21154699999999999
493,0.500571,-0.869605,-0.571059,0.309609,0.764074,-0.565968,-0.24687800000000001,-2.348518,0.415195,-0.296441,-0.522085,0.232944
494,0.46390699999999996,-0.874006,-0.561683,0.287148,0.7669060000000001,-0.573923,-0.442117,-2.04684,0.001111,-0.074349,-0.183746,0.42859899999999995
495,0.43642600000000004,-0.889481,-0.554475,0.266221,0.776745,-0.5707720000000001,-1.105459,-1.3666479999999999,-0.093057,0.168304,-0.065975,0.47235299999999997
496,0.45031400000000005,-0.923105,-0.519994,0.26260100000000003,0.797479,-0.543189,-2.478697,-0.148554,0.44272,0.337451,-0.10114400000000001,0.527091
497,0.5212640000000001,-0.9679120000000001,-0.45665900000000004,0.282356,0.8237030000000001,-0.491703,-2.891248,1.6265209999999999,0.7185060000000001,0.158958,0.594616,-0.419338
498,0.615931,-0.994717,-0.392205,0.314697,0.8386049999999999,-0.44462299999999993,-1.307195,1.966552,0.8915049999999999,0.234619,1.230319,-0.9007440000000001
499,0.647931,-0.984985,-0.374904,0.33367199999999997,0.8332639999999999,-0.44081400000000004,0.682764,0.087812,0.397202,0.13259100000000001,1.338291,-1.0291569999999999
500,0.620063,-0.969685,-0.38292800000000005,0.32863000000000003,0.824707,-0.460264,0.558537,-1.387484,0.211286,-0.232271,0.46244799999999997,-0.185061
501,0.616363,-0.970448,-0.369195,0.326561,0.825139,-0.460963,-0.9906950000000001,-0.014052,0.415554,0.10334000000000002,1.408641,0.125605
502,0.674689,-0.9962850000000001,-0.317779,0.339442,0.839458,-0.42434799999999995,-1.719581,0.953267,0.236171,0.349645,2.803715,0.955735
503,0.6939350000000001,-0.9961969999999999,-0.300294,0.347593,0.83941,-0.41779399999999994,0.47035299999999997,-0.09191,0.237852,-0.64662,0.005515,0.340706
504,0.675289,-0.9843219999999999,-0.32774200000000003,0.34595,0.8328969999999999,-0.43195200000000006,0.793901,0.621789,-0.299187,-0.708805,-0.9518540000000001,0.45398599999999995
505,0.709921,-0.9954270000000001,-0.332947,0.354648,0.8389909999999999,-0.41267299999999996,-0.947317,2.560905,-0.732577,-0.785953,-0.42570699999999995,0.47795
506,0.743589,-1.033778,-0.344627,0.34629,0.859238,-0.37652800000000003,-1.1689969999999998,1.63764,-1.952852,-0.771583,-0.236862,0.450579
507,0.727858,-1.081545,-0.381739,0.312639,0.882685,-0.35086,-1.396149,0.497201,-2.405903,-0.217196,0.178792,0.5184770000000001
508,0.719867,-1.150101,-0.402044,0.269231,0.912805,-0.30704899999999996,-2.65024,0.5730430000000001,-2.702112,-0.007587999999999999,0.32565900000000003,0.5993310000000001
509,0.711507,-1.2234690000000001,-0.42620699999999995,0.222241,0.9402860000000001,-0.257774,-2.175322,0.8631979999999999,-2.681006,0.157566,0.49016499999999996,0.084022
510,0.718036,-1.2773889999999999,-0.455287,0.190248,0.9572639999999999,-0.217775,-1.6090200000000001,2.233759,-1.7291580000000002,0.275984,0.310284,0.203676
511,0.7713439999999999,-1.315081,-0.45331400000000005,0.176285,0.967483,-0.181312,-1.236219,2.588526,-0.9952770000000001,0.235641,-0.277633,0.270331
512,0.846082,-1.3382120000000002,-0.42372200000000004,0.172522,0.973074,-0.152758,-1.021392,2.0740790000000002,-0.403458,0.188135,-0.4298,0.23324899999999998
513,0.929084,-1.355024,-0.374422,0.171457,0.9768110000000001,-0.128115,-0.8909540000000001,1.586139,-0.239552,0.09316,-0.586507,0.192049
514,1.023947,-1.366276,-0.303562,0.17341700000000002,0.979159,-0.105572,-1.0111729999999999,1.0122309999999999,0.061582000000000005,0.105148,-0.54143,-0.005725
515,1.1446120000000002,-1.37473,-0.18812,0.177315,0.980841,-0.08050299999999999,-1.319257,0.017784,0.198505,0.046820999999999995,-0.32614699999999996,-0.048052
516,1.2742440000000002,-1.3859620000000001,-0.056036,0.17568,0.982967,-0.05368099999999999,-1.343531,0.242702,-0.348883,-0.324788,0.166524,0.097764
517,1.401306,-1.3998680000000001,0.054485000000000006,0.16756600000000002,0.985427,-0.028676,-0.9179719999999999,1.321727,-0.42634099999999997,-0.029581,0.23286500000000002,0.097081
518,1.500094,-1.410498,0.118397,0.15911199999999998,0.98718,-0.011268,-0.385654,1.938063,-0.506734,-0.223595,0.141788,0.092598
519,1.544042,-1.426963,0.122476,0.143173,0.9896739999999999,-0.003831,0.086287,1.963067,-1.040786,0.190888,-0.319019,-0.178053
520,1.554184,-1.453281,0.091806,0.11709000000000001,0.9931030000000001,-0.001945,0.165536,2.115626,-1.431397,0.633444,-0.14856,-0.180504
521,1.585365,-1.4825139999999999,0.082347,0.08797200000000001,0.9961059999999999,0.001282,-0.031998,1.851027,-1.423892,0.7391310000000001,-0.081402,-0.026260000000000002
522,1.695498,-1.50465,0.168445,0.065334,0.997813,0.008190000000000001,-0.364318,0.8210770000000001,-0.913215,0.6471899999999999,-0.109675,-0.052929
523,1.8643,-1.5127760000000001,0.32926700000000003,0.055232,0.998317,0.016693,-0.393244,0.294297,-0.22266999999999998,0.482732,0.272175,-0.258056
524,1.9166880000000002,-1.509909,0.375635,0.056984,0.9981469999999999,0.020536000000000002,0.007017,0.308137,0.230897,0.392158,0.567405,-0.243497
525,1.809066,-1.506006,0.26539,0.062663,0.9979020000000001,0.01522,0.37642,-0.039644,0.30229,0.323629,0.526375,-0.154472
526,1.658245,-1.499076,0.11975799999999999,0.071154,0.9974290000000001,0.0062380000000000005,0.483579,-0.42971899999999996,0.521455,0.264204,0.361519,-0.022413
527,1.456389,-1.4831370000000001,-0.066649,0.086788,0.99616,-0.009973000000000001,0.9538840000000001,-0.994481,0.9538209999999999,0.2197,0.11825,0.26514499999999996
528,1.214138,-1.4533530000000001,-0.282321,0.109672,0.9931110000000001,-0.040863,1.7046310000000002,-1.6484150000000002,1.331644,0.064828,-0.075692,0.21759
529,1.024165,-1.404742,-0.440866,0.141128,0.986245,-0.085873,2.222179,-1.499236,1.937545,-0.034988,0.06736,-0.05151699999999999
530,0.928343,-1.341125,-0.513373,0.182219,0.973741,-0.13636600000000001,2.4385220000000003,-1.139456,2.353065,-0.198408,0.7299640000000001,0.013685
531,0.8739290000000001,-1.274691,-0.555437,0.22373200000000001,0.9564799999999999,-0.187252,2.488359,-0.292706,2.079932,-0.42293500000000006,0.959169,0.14886
532,0.8397319999999999,-1.217755,-0.599073,0.257374,0.938325,-0.23082199999999997,2.359063,0.702021,1.453912,-0.478642,0.8483870000000001,0.21196199999999998
533,0.8214,-1.165813,-0.643506,0.288427,0.9191090000000001,-0.26837300000000003,2.361256,1.330914,1.356982,-0.32545999999999997,0.321827,0.029726
534,0.815384,-1.112645,-0.675849,0.321964,0.8968719999999999,-0.303212,2.266999,0.948106,1.532003,-0.205936,0.21848499999999998,-0.022792
535,0.804481,-1.060781,-0.699336,0.351711,0.8727370000000001,-0.338538,2.10662,0.288628,1.422769,-0.375789,0.29894,0.200232
536,0.7890550000000001,-1.018282,-0.722329,0.37245100000000003,0.8512069999999999,-0.369737,1.766604,0.135081,0.9559139999999999,-0.023879,-0.049679,0.126573
537,0.768731,-0.982023,-0.7381909999999999,0.386074,0.831622,-0.399163,1.4875770000000001,-0.6821649999999999,0.976377,0.017307,-0.21785300000000002,0.12288699999999998
538,0.739224,-0.95099,-0.7428020000000001,0.391335,0.813991,-0.429252,1.050159,-1.6107040000000001,0.9937389999999999,0.026602999999999998,-0.365581,0.11934600000000001
539,0.710488,-0.924532,-0.731117,0.392753,0.798339,-0.45648900000000003,0.618136,-2.111733,1.188985,-0.019493,-0.648299,0.258293
540,0.674655,-0.903056,-0.712137,0.38676900000000003,0.785223,-0.483547,0.376556,-2.782705,1.0941530000000002,0.023051,-0.642981,0.33597899999999997
541,0.635469,-0.88592,-0.690138,0.37546199999999996,0.774497,-0.509084,0.19552999999999998,-2.745694,1.053317,0.0285,-0.591041,0.37691199999999997
542,0.602525,-0.872618,-0.6683279999999999,0.364297,0.7660140000000001,-0.529617,0.11626199999999999,-2.284493,0.8716430000000001,-0.067117,-0.506127,0.24307199999999998
543,0.575032,-0.863082,-0.65284,0.353558,0.759849,-0.5455369999999999,0.125029,-1.824168,0.566671,-0.094799,-0.501854,0.22553
544,0.543605,-0.857741,-0.645785,0.338336,0.756367,-0.5598420000000001,0.079213,-1.951384,0.186227,-0.156237,-0.509495,0.20913400000000001
545,0.49693100000000007,-0.858593,-0.6436890000000001,0.311539,0.7569239999999999,-0.5744520000000001,-0.19834300000000002,-2.651673,-0.004958,-0.138093,-0.268353,0.45157299999999995
546,0.445959,-0.8689969999999999,-0.6397520000000001,0.278455,0.763682,-0.582442,-0.768127,-2.590445,-0.170318,0.08256799999999999,-0.11403900000000002,0.52835
547,0.41933400000000004,-0.893964,-0.620729,0.255006,0.779561,-0.572051,-1.8498970000000001,-1.6818220000000002,0.24825100000000003,0.31993,-0.043843,0.604934
548,0.44789399999999996,-0.936926,-0.5663600000000001,0.25648699999999997,0.805741,-0.5338350000000001,-2.988507,-0.027705,0.765879,0.11127999999999999,0.45407,-0.34070700000000004
549,0.531822,-0.9793370000000001,-0.49241899999999994,0.28274,0.8301280000000001,-0.480551,-2.505515,1.69265,0.8963030000000001,0.207204,1.273693,-0.9090520000000001
550,0.6111,-0.983275,-0.434303,0.318031,0.832317,-0.45396800000000004,-0.22520700000000002,1.255787,1.341148,-0.364433,1.522602,-0.916531
551,0.6164029999999999,-0.9645520000000001,-0.42634799999999995,0.329386,0.821794,-0.46491099999999996,1.067134,-1.036329,0.39919,-0.46233599999999997,-0.41072200000000003,-0.331949
552,0.5684899999999999,-0.950656,-0.442271,0.31285999999999997,0.813797,-0.489731,0.42087700000000006,-1.7148919999999999,-0.109723,-0.322335,-0.770813,0.011872
553,0.539643,-0.960197,-0.452482,0.294601,0.819304,-0.491868,-0.6886329999999999,-0.454574,-0.7696350000000001,-0.6057739999999999,0.6215069999999999,-0.204544
554,0.58568,-1.004618,-0.42208100000000004,0.2965,0.843957,-0.446996,-3.5303269999999998,2.008016,-0.08975,1.284433,2.942191,1.5549520000000001
555,0.661146,-1.046215,-0.36543000000000003,0.307521,0.865534,-0.3953,-1.123481,0.5542229999999999,0.143637,-0.507091,1.333624,-0.012888
556,0.645043,-1.036581,-0.37403800000000004,0.306116,0.860668,-0.406846,1.0400129999999999,-0.451506,-0.105949,-0.760324,-0.928249,0.515092
557,0.620762,-1.027141,-0.408487,0.300861,0.855824,-0.420749,0.583109,0.735274,-0.5240640000000001,-0.589084,-0.729283,0.5176270000000001
558,0.6293380000000001,-1.039295,-0.43043400000000004,0.298313,0.8620469999999999,-0.409713,-0.541629,1.5701399999999999,-1.069237,-0.63689,-0.55414,0.548583
559,0.6199979999999999,-1.070179,-0.466003,0.27886500000000003,0.877286,-0.390619,-0.707587,0.62908,-1.8842439999999998,-0.08866399999999999,0.12166099999999999,0.629083
560,0.589468,-1.1094629999999999,-0.508807,0.24745,0.89546,-0.36999899999999997,-1.620315,0.47792399999999996,-1.920336,0.044313,0.51575,0.8967940000000001
561,0.603908,-1.177486,-0.514174,0.21761599999999998,0.923645,-0.315436,-3.1661349999999997,1.13239,-2.008884,0.338918,0.537933,0.44718
562,0.6482,-1.24155,-0.49487200000000003,0.195188,0.9462860000000001,-0.25771900000000003,-2.363705,1.488556,-1.1982959999999998,-0.076124,-0.003476,0.188398
563,0.710084,-1.279175,-0.47220200000000007,0.187394,0.957779,-0.217982,-1.401864,2.3650830000000003,-0.918168,-0.178361,-0.11370899999999999,0.292873
564,0.757551,-1.30874,-0.47392799999999996,0.17798,0.965859,-0.18817899999999999,-0.9113180000000001,2.2995200000000002,-0.9317489999999999,-0.053407,-0.143975,0.192482
565,0.798304,-1.328669,-0.468027,0.171673,0.97083,-0.167298,-0.7174470000000001,1.453501,-0.520181,0.026691000000000003,-0.279866,0.196382
566,0.8449969999999999,-1.343781,-0.44410600000000006,0.168297,0.9743430000000001,-0.149344,-0.734217,1.0530959999999998,-0.274094,0.079917,-0.294548,0.115668
567,0.905316,-1.355887,-0.401738,0.16769900000000001,0.9769959999999999,-0.131631,-0.740981,0.894806,-0.111569,0.09234099999999999,-0.2853,0.097116
568,0.9766309999999999,-1.3670129999999998,-0.345142,0.167631,0.979308,-0.11325199999999999,-0.8652639999999999,0.74729,-0.143226,-0.120298,-0.06468099999999999,0.219606
569,1.062239,-1.3826889999999998,-0.276991,0.16326300000000002,0.98236,-0.091014,-1.005016,1.1570049999999998,-0.45023900000000006,-0.15777,0.046830000000000004,0.181132
570,1.152799,-1.402994,-0.215531,0.152551,0.9859540000000001,-0.067759,-0.8860319999999999,1.7053029999999998,-0.739599,-0.02685,0.069847,0.23363699999999998
571,1.242441,-1.424294,-0.161151,0.138075,0.989288,-0.047041,-0.7090890000000001,1.7330830000000002,-0.913587,0.16336199999999998,-0.165176,-0.192965
572,1.296532,-1.447209,-0.13914400000000002,0.11853699999999999,0.992373,-0.033351,-0.336064,1.656003,-1.141618,0.360802,-0.332461,-0.212667
573,1.3032709999999998,-1.472313,-0.169559,0.094666,0.9951540000000001,-0.025948000000000002,-0.099614,1.9039439999999999,-1.279153,0.559417,-0.19596,-0.197197
574,1.277782,-1.495651,-0.23025700000000002,0.07166499999999999,0.9971780000000001,-0.021621,-0.07624299999999999,1.5655299999999999,-1.119391,0.524007,0.06784,-0.017105000000000002
575,1.240767,-1.514189,-0.285546,0.053248000000000004,0.998398,-0.01824,-0.140855,0.5376529999999999,-0.825832,0.543508,0.157913,0.076071
576,1.225052,-1.526096,-0.306766,0.041691000000000006,0.999001,-0.015018,-0.128031,0.261033,-0.392759,0.468685,0.268836,-0.12337999999999999
577,1.1852260000000001,-1.527335,-0.356385,0.039904,0.9990559999999999,-0.016197,0.25049899999999997,0.620267,0.018553999999999998,0.381605,0.47584399999999993,-0.23976999999999998
578,0.994843,-1.522142,-0.5592090000000001,0.040503,0.998817,-0.026302999999999997,0.664991,0.48467,0.002395,0.387857,0.458581,-0.15102000000000002
579,0.813397,-1.510983,-0.744313,0.043235,0.9982120000000001,-0.04088,0.780038,0.005927,0.277277,0.18570799999999998,0.180148,-0.032851
580,0.709676,-1.4881229999999999,-0.840464,0.05368099999999999,0.996585,-0.062495,1.2880459999999998,-0.728295,0.6973050000000001,0.24607800000000002,0.035703,0.166682
581,0.647274,-1.450231,-0.878072,0.072449,0.992741,-0.095843,1.750641,-1.399238,1.315623,-0.020111,-0.120121,0.220004
582,0.6556270000000001,-1.3975540000000002,-0.8432639999999999,0.105038,0.985031,-0.136569,2.057442,-1.249835,2.048239,-0.083142,-0.22630300000000003,0.137286
583,0.674959,-1.334694,-0.800762,0.146127,0.9722569999999999,-0.182578,2.280484,-0.9555959999999999,2.33143,-0.10256400000000002,0.517718,0.055396
584,0.681782,-1.271336,-0.78574,0.185877,0.9554959999999999,-0.229021,2.363175,-0.003164,1.975069,-0.18245899999999998,0.913751,0.055238999999999996
585,0.687492,-1.215098,-0.7925770000000001,0.22097399999999998,0.9374040000000001,-0.26911,2.136922,0.9507450000000001,1.517204,-0.195598,0.9523520000000001,0.085775
586,0.70948,-1.1654520000000002,-0.796946,0.256866,0.918967,-0.299159,1.886681,1.382699,1.604633,-0.077666,0.386972,-0.120976
587,0.732036,-1.116535,-0.794867,0.293269,0.8985850000000001,-0.326366,1.721397,0.735402,1.6502419999999998,-0.20109100000000002,0.30278499999999997,-0.12240999999999999
588,0.740428,-1.073803,-0.7881100000000001,0.321625,0.87902,-0.351936,1.343386,-0.23513499999999998,1.462974,-0.250718,0.31495,0.192604
589,0.734809,-1.038931,-0.784039,0.339997,0.8618629999999999,-0.376263,1.1643350000000001,-0.551586,1.1021379999999998,-0.24318,0.23419099999999998,0.29873299999999997
590,0.721603,-1.009272,-0.7784439999999999,0.351736,0.8464440000000001,-0.399742,0.933285,-1.131473,1.13011,0.06192999999999999,-0.266275,0.18160199999999999
591,0.702404,-0.9794700000000001,-0.766205,0.36014,0.830202,-0.425493,0.884366,-1.609348,1.3301379999999998,-0.0056630000000000005,-0.356981,0.16179100000000002
592,0.68817,-0.947364,-0.7460359999999999,0.370792,0.811879,-0.45093999999999995,0.8645299999999999,-1.5642200000000002,1.51688,-0.116748,-0.36144,0.13488499999999998
593,0.662104,-0.915601,-0.723739,0.37458400000000003,0.792929,-0.480555,0.785883,-2.681429,1.518831,-0.055736,-0.52207,0.35033600000000004
594,0.6169979999999999,-0.887445,-0.696353,0.365311,0.775461,-0.514968,0.478445,-3.668936,1.517949,-0.001328,-0.508646,0.426192
595,0.567742,-0.8690899999999999,-0.659041,0.34711,0.763742,-0.54424,-0.147575,-3.897734,1.469004,-0.033954000000000005,-0.519174,0.47971099999999994
596,0.530262,-0.8648629999999999,-0.618239,0.328102,0.7610060000000001,-0.559645,-0.699883,-3.034522,1.064525,-0.10288299999999999,-0.644185,0.360671
597,0.507005,-0.87134,-0.585899,0.3126,0.765192,-0.5628029999999999,-0.800203,-2.099052,0.579789,-0.11383900000000001,-0.617472,0.303419
598,0.486234,-0.880743,-0.5643239999999999,0.297468,0.771212,-0.5627880000000001,-0.726947,-1.7805919999999997,0.26476700000000003,-0.074567,-0.594851,0.360746
599,0.464287,-0.894547,-0.550597,0.28025100000000003,0.779926,-0.559607,-0.9143700000000001,-1.530512,-0.040238,0.145744,-0.11778599999999999,0.42012700000000003
600,0.4501,-0.91665,-0.5336569999999999,0.264718,0.793568,-0.547868,-1.467468,-1.254301,0.09655,0.284095,-0.032948000000000005,0.39315900000000004
601,0.46948,-0.9482290000000001,-0.490005,0.263812,0.812384,-0.520019,-2.262091,-0.39099,0.675279,0.319135,0.507135,-0.078141
602,0.53691,-0.981885,-0.423183,0.284098,0.8315459999999999,-0.477285,-2.2901569999999998,1.178447,0.894194,0.239446,1.463406,-0.7008300000000001
603,0.607237,-0.990591,-0.364481,0.312791,0.83635,-0.450179,-0.397068,0.686752,1.268038,-0.512163,0.644042,-0.7938850000000001
604,0.6183649999999999,-0.972618,-0.345934,0.326443,0.826363,-0.458847,0.605324,-0.8212280000000001,0.819773,-0.372479,0.752052,-0.367417
605,0.601884,-0.9554159999999999,-0.337237,0.326839,0.816554,-0.475813,0.49307799999999996,-1.031116,0.657957,0.538411,2.379384,0.542555
606,0.61761,-0.9492,-0.315342,0.337213,0.81295,-0.474743,-0.52372,0.292663,0.5637,0.528036,2.382988,0.541485
607,0.637354,-0.948167,-0.29827800000000004,0.34702,0.812348,-0.46866800000000003,0.128917,0.101272,0.44138599999999995,-0.712727,-0.532166,0.441263
608,0.630391,-0.937786,-0.31038499999999997,0.34870100000000004,0.80625,-0.47786000000000006,0.729823,0.414088,-0.251298,-0.49558199999999997,-0.7280949999999999,0.42428599999999994
609,0.648556,-0.939359,-0.320851,0.356557,0.80718,-0.47043599999999997,-0.35635300000000003,1.9682099999999998,-0.346335,-0.692601,-0.546056,0.528434
610,0.696592,-0.966139,-0.32353699999999996,0.36473,0.8226969999999999,-0.43603000000000003,-1.301086,2.564411,-1.3022790000000002,-0.717605,-0.133549,0.605448
611,0.7168329999999999,-1.013211,-0.34279499999999996,0.34763099999999997,0.848535,-0.398898,-1.475586,1.254254,-2.248263,-0.34576999999999997,0.221869,0.5513939999999999
612,0.707878,-1.076561,-0.37098200000000003,0.308424,0.880332,-0.360373,-2.279289,0.661523,-2.773342,0.0768,0.468026,0.7507689999999999
613,0.698008,-1.149869,-0.399335,0.26259,0.91271,-0.31302199999999997,-2.264986,0.9174530000000001,-2.85155,-0.039858,0.6913239999999999,0.21564
614,0.688471,-1.2119799999999998,-0.441413,0.22309400000000001,0.936313,-0.27115,-1.7166860000000002,1.909419,-2.310607,0.12115999999999999,0.482159,0.314805
615,0.716713,-1.256099,-0.46088599999999996,0.20330499999999999,0.95089,-0.233344,-1.293366,2.424665,-1.260385,0.27634000000000003,-0.158288,0.260031
616,0.775567,-1.279399,-0.452096,0.201106,0.957843,-0.2051,-0.76827,2.559144,-0.448246,0.142232,-0.445316,0.299246
617,0.8453229999999999,-1.2919969999999998,-0.42912799999999995,0.20586500000000002,0.9613870000000001,-0.182561,-0.663274,2.218918,-0.172543,0.048957,-0.649512,0.283803
618,0.911752,-1.303971,-0.397688,0.208411,0.9646129999999999,-0.16143,-0.726842,1.567331,-0.209536,0.09981699999999999,-0.663542,0.13408599999999998
619,0.9789899999999999,-1.3177729999999999,-0.351135,0.20771199999999998,0.96816,-0.139619,-1.0291489999999999,0.805509,-0.176488,0.101538,-0.378454,0.12126300000000001
620,1.07324,-1.334263,-0.258718,0.205868,0.9721559999999999,-0.11181300000000001,-1.626452,-0.079902,-0.149616,-0.044887,0.11193499999999999,0.256925
621,1.208077,-1.3537139999999999,-0.11751400000000001,0.201302,0.9765299999999999,-0.076396,-1.839664,0.046075,-0.299749,-0.32862199999999997,0.289339,0.13375399999999998
622,1.339233,-1.3734680000000001,-0.001987,0.19073900000000002,0.9805940000000001,-0.044975,-1.136486,1.3119180000000001,-0.716271,-0.114659,0.10822799999999999,-0.010216
623,1.4203700000000001,-1.3915879999999998,0.045847000000000006,0.176149,0.983985,-0.026699,-0.323139,1.734675,-0.848932,-0.203478,0.114968,-0.196217
624,1.4329020000000001,-1.4140409999999999,0.0272,0.15453,0.9877389999999999,-0.021445,0.162827,1.577386,-1.362355,0.15575799999999998,-0.197975,-0.106958
625,1.394808,-1.44381,-0.047042,0.12456500000000001,0.9919479999999999,-0.022151,0.310255,1.8484479999999999,-1.6105690000000001,0.573677,-0.084203,-0.037022
626,1.329339,-1.473674,-0.14813800000000002,0.093998,0.995287,-0.023148,0.180625,1.591767,-1.510732,0.690716,0.017561,0.018052000000000002
627,1.287013,-1.497333,-0.211529,0.070251,0.997303,-0.020489,-0.197702,0.772891,-0.9974430000000001,0.626618,-0.088032,-0.032931999999999996
628,1.3411389999999999,-1.5102959999999999,-0.168621,0.058615,0.9981700000000001,-0.013703,-0.298923,0.5234,-0.323782,0.6020760000000001,0.18868900000000002,-0.22010700000000002
629,1.362002,-1.509382,-0.15926700000000002,0.059780999999999994,0.998115,-0.012667,0.19073299999999999,0.587659,0.230758,0.48480500000000004,0.562249,-0.22736900000000002
630,1.278046,-1.49945,-0.250969,0.068035,0.9974559999999999,-0.020506,0.48223900000000003,0.194622,0.498217,0.41214399999999995,0.669551,-0.199525
631,1.210495,-1.483325,-0.31435599999999997,0.081579,0.9961770000000001,-0.030735000000000002,0.535315,-0.5077510000000001,0.807136,0.261148,0.45713100000000007,0.018406
632,1.130803,-1.457949,-0.37340500000000004,0.101757,0.9936389999999999,-0.047904,0.927742,-1.321465,1.226458,0.160389,0.20992800000000003,0.259986
633,1.045901,-1.419085,-0.42778599999999994,0.130696,0.9885139999999999,-0.075684,1.408435,-1.6394090000000001,1.7312189999999998,-0.019275999999999998,-0.144489,0.21749899999999997
634,0.9641049999999999,-1.369292,-0.476408,0.164365,0.979767,-0.11407,1.836302,-1.674698,1.9265330000000003,0.017093,1.4999999999999999e-05,-0.096715
635,0.899242,-1.314455,-0.513716,0.198445,0.967324,-0.157721,2.045043,-1.268546,1.9413580000000001,-0.013905,0.613288,-0.030923000000000003
636,0.848058,-1.260156,-0.5491739999999999,0.22921799999999998,0.9521379999999999,-0.202153,2.161564,-0.60287,1.604829,-0.143814,0.811442,0.065205
637,0.802649,-1.21031,-0.591925,0.253657,0.935725,-0.24505300000000002,2.219145,-0.024225999999999998,1.239157,-0.239756,0.666524,0.078702
638,0.772419,-1.161693,-0.629178,0.27758299999999997,0.917478,-0.284883,2.199107,0.302731,1.2770540000000001,-0.33161399999999996,0.212191,-0.070921
639,0.756049,-1.113428,-0.652408,0.302935,0.8972180000000001,-0.321261,1.97638,0.16909200000000002,1.32374,-0.395343,0.23272600000000002,0.034166
640,0.74095,-1.0689170000000001,-0.668187,0.324705,0.8766799999999999,-0.354934,1.862228,-0.19856600000000002,1.190954,-0.407087,0.200942,0.176421
641,0.7208760000000001,-1.028874,-0.685448,0.340427,0.856719,-0.38745599999999997,1.6720119999999998,-0.294842,0.9237620000000001,-0.19125699999999998,-0.190413,0.41930200000000006
642,0.706904,-0.995087,-0.694832,0.353586,0.8388059999999999,-0.413958,1.3245559999999998,-0.222237,0.916969,-0.167673,-0.21073899999999998,0.350314
643,0.6985140000000001,-0.9644530000000001,-0.696653,0.36646,0.821737,-0.43638999999999994,1.1233030000000002,-0.497895,1.029148,-0.131017,-0.308264,0.27252600000000005
644,0.686825,-0.9318129999999999,-0.687619,0.378146,0.802702,-0.46114700000000003,1.099166,-1.278867,1.347242,-0.070483,-0.41059700000000005,0.198482
645,0.659489,-0.895733,-0.67415,0.382905,0.780667,-0.493888,1.1592639999999999,-2.2235709999999997,1.51231,0.014693000000000001,-0.370206,0.293678
646,0.62463,-0.86221,-0.6548579999999999,0.380556,0.759282,-0.527875,0.807934,-2.59176,1.451576,0.05641,-0.386815,0.370145
647,0.590309,-0.839669,-0.631089,0.371652,0.744422,-0.554703,0.272577,-2.588751,1.163685,-0.091547,-0.49599399999999993,0.24160700000000002
648,0.559443,-0.8301430000000001,-0.6067899999999999,0.358104,0.738028,-0.571893,-0.20595100000000002,-2.365107,0.795792,-0.197384,-0.470099,0.212335
649,0.526395,-0.831759,-0.5871529999999999,0.338413,0.739117,-0.582382,-0.52004,-2.392199,0.384504,-0.23711,-0.344433,0.231582
650,0.491332,-0.842808,-0.57289,0.313917,0.746514,-0.58665,-0.845901,-2.150957,0.012314,0.0069299999999999995,-0.198327,0.286968
651,0.46812200000000004,-0.8642850000000001,-0.559646,0.29291500000000004,0.7606310000000001,-0.579334,-1.365407,-1.314517,-0.119505,0.12429100000000001,-0.152065,0.27074000000000004
652,0.47712899999999997,-0.896489,-0.533317,0.286718,0.78114,-0.554616,-2.0737229999999998,-0.094374,0.127153,0.233027,-0.072201,0.076558
653,0.522135,-0.930267,-0.48950699999999997,0.298046,0.801779,-0.517979,-2.027638,0.821081,0.52368,0.155003,0.519525,-0.376506
654,0.578609,-0.948838,-0.445201,0.318608,0.812739,-0.487778,-1.042905,0.978929,0.688453,0.186763,0.8485010000000001,-0.615555
655,0.606395,-0.943679,-0.41729700000000003,0.334422,0.809723,-0.482177,0.144172,-0.22921799999999998,0.755977,-0.31705700000000003,0.17486600000000002,-0.5757
656,0.599198,-0.935501,-0.406369,0.334667,0.8048960000000001,-0.49002399999999996,0.06742100000000001,-0.9979040000000001,0.44557299999999994,-0.300838,0.212407,-0.485791
657,0.597562,-0.9309209999999999,-0.389884,0.335935,0.802171,-0.493612,-0.278646,-0.41159799999999996,0.644299,0.172336,1.488433,0.050101
658,0.641887,-0.939926,-0.350944,0.353138,0.807515,-0.47243599999999997,-1.329234,0.973089,0.532636,-0.35225300000000004,1.257915,0.399454
659,0.674024,-0.94306,-0.328121,0.366554,0.809359,-0.458866,0.074432,0.323021,0.443929,-0.665794,0.055677,0.311924
660,0.669098,-0.9333530000000001,-0.340256,0.369145,0.80362,-0.46680699999999997,0.671986,0.414074,-0.199356,-0.618992,-0.7869109999999999,0.31011500000000003
661,0.685924,-0.937058,-0.348729,0.375058,0.805819,-0.45822299999999994,-0.42983000000000005,1.6673580000000001,-0.43939399999999995,-0.8424799999999999,-0.450442,0.530977
662,0.71617,-0.965578,-0.356644,0.37349899999999997,0.822378,-0.429155,-1.192861,1.697927,-1.559987,-0.476893,-0.012319,0.521135
663,0.716727,-1.014875,-0.381445,0.34666199999999997,0.8494149999999999,-0.39787,-1.504008,0.70636,-2.405853,0.091754,0.468167,0.840558
664,0.706845,-1.079235,-0.404548,0.30652199999999996,0.881597,-0.3589,-2.4390970000000003,0.430122,-2.577605,0.070279,0.3921,0.680144
665,0.7077829999999999,-1.149665,-0.412451,0.265759,0.9126270000000001,-0.310582,-2.446567,0.522562,-2.245559,-0.079541,0.337358,0.260563
666,0.727575,-1.20448,-0.416328,0.23818699999999998,0.9336530000000001,-0.267458,-1.835078,1.634419,-1.638098,0.014925999999999998,0.18040599999999998,0.42206000000000005
667,0.779987,-1.247003,-0.40628600000000004,0.223727,0.9480350000000001,-0.226162,-1.530404,2.303399,-1.10058,0.051221,-0.07001399999999999,0.292705
668,0.8474780000000001,-1.2741799999999999,-0.383382,0.219067,0.9563309999999999,-0.193427,-1.0169,2.210991,-0.5488770000000001,0.067035,-0.314623,0.231696
669,0.915881,-1.29165,-0.352597,0.218487,0.961291,-0.167796,-0.856452,1.768684,-0.367728,0.011372,-0.420336,0.23083
670,0.980514,-1.307488,-0.315816,0.216187,0.965534,-0.14483800000000002,-0.873612,1.276576,-0.365081,0.050475,-0.426548,0.166002
671,1.04616,-1.324647,-0.26662600000000003,0.210846,0.969858,-0.12202400000000001,-1.070437,0.647841,-0.405174,-0.0009310000000000001,-0.2297,0.165801
672,1.137752,-1.3461319999999999,-0.178378,0.202152,0.9748690000000001,-0.093457,-1.636682,0.09324199999999999,-0.549424,-0.078907,-0.039932,0.21214
673,1.271658,-1.372627,-0.043894,0.188054,0.9804290000000001,-0.057995000000000005,-1.750127,0.374158,-0.904158,-0.377919,0.106424,0.076
674,1.410256,-1.400039,0.07750399999999999,0.167648,0.985456,-0.027148000000000002,-1.117582,1.350616,-1.085793,-0.099548,0.075396,0.076678
675,1.50183,-1.421797,0.134708,0.147982,0.98892,-0.010222,-0.294377,1.821421,-0.9887790000000001,-0.188372,0.059511,-0.02408
676,1.5308629999999999,-1.443807,0.126199,0.126412,0.9919479999999999,-0.005051,0.158655,2.013441,-1.1824139999999999,0.186317,-0.286717,-0.080368
677,1.512131,-1.467511,0.062414,0.10275899999999999,0.9946709999999999,-0.006035,0.34673200000000004,2.317459,-1.182558,0.544824,-0.061596000000000005,-0.097557
678,1.482923,-1.488376,-0.012555,0.081803,0.996605,-0.007206999999999999,0.188249,2.159508,-0.973023,0.5871270000000001,0.018043,-0.02476
679,1.515166,-1.5032590000000001,-0.012933000000000002,0.067129,0.99772,-0.0037380000000000004,-0.196062,1.2900969999999998,-0.60392,0.678217,-0.109491,-0.030289
680,1.60786,-1.508772,0.06051,0.061666,0.998077,0.002287,-0.20584000000000002,0.837362,-0.065024,0.6630189999999999,0.076248,-0.204923
681,1.631045,-1.505226,0.06967000000000001,0.06514199999999999,0.997851,0.003929,0.08604500000000001,0.6101770000000001,0.284478,0.590421,0.250791,-0.244957
682,1.560042,-1.499188,-0.008062,0.071301,0.9974370000000001,-0.000767,0.31743899999999997,0.125666,0.302738,0.32709099999999997,0.552856,-0.15354500000000001
683,1.4836340000000001,-1.490772,-0.080898,0.079421,0.9968,-0.006940000000000001,0.313065,-0.39504,0.5191560000000001,0.22233699999999998,0.373241,0.046918
684,1.378719,-1.473817,-0.170756,0.094877,0.995301,-0.018451,0.6690619999999999,-0.9786370000000001,0.9657020000000001,0.22384899999999996,0.324309,0.143054
685,1.246645,-1.442787,-0.279433,0.12089000000000001,0.991818,-0.040619,1.182382,-1.273751,1.593508,0.130499,0.24121399999999998,0.250321
686,1.131203,-1.39553,-0.371707,0.157709,0.9846799999999999,-0.074168,1.723925,-1.1348,2.0724709999999997,-0.09284400000000001,0.19133,-0.136266
687,1.045876,-1.339176,-0.441986,0.19859100000000002,0.9732959999999999,-0.115007,2.0341270000000002,-0.617498,2.175456,-0.125944,0.5008859999999999,-0.074965
688,0.980133,-1.281683,-0.506261,0.236756,0.9584969999999999,-0.158749,2.354721,0.114577,1.8402669999999999,-0.233673,0.789031,0.033962
689,0.920132,-1.226905,-0.577685,0.26823400000000003,0.94145,-0.20419400000000001,2.558661,0.46169799999999994,1.437459,-0.277831,0.6281760000000001,0.021623
690,0.8722850000000001,-1.173697,-0.639482,0.296144,0.9221870000000001,-0.24868600000000002,2.489661,0.48877200000000004,1.386736,-0.29358,0.526239,-0.004793
691,0.8433889999999999,-1.121237,-0.6790470000000001,0.32455900000000004,0.900639,-0.288941,2.214029,0.22849699999999998,1.446033,-0.354618,0.221462,0.072526
692,0.819334,-1.0736,-0.704677,0.348495,0.878923,-0.32561,1.931218,-0.183219,1.288625,-0.40371599999999996,0.007094,0.28319
693,0.798959,-1.033561,-0.7277060000000001,0.36672899999999997,0.8591270000000001,-0.356916,1.74144,0.010440000000000001,0.976198,-0.187851,-0.139888,0.287076
694,0.7804220000000001,-0.9968739999999999,-0.747532,0.381981,0.839778,-0.385801,1.627888,-0.155095,0.912592,-0.051262,-0.42368599999999995,0.189207
695,0.763799,-0.9620799999999999,-0.759778,0.395495,0.820383,-0.41296000000000005,1.369,-0.440122,1.020108,-0.089129,-0.466058,0.091014
696,0.7474770000000001,-0.929002,-0.761525,0.406935,0.8010229999999999,-0.43903000000000003,1.183743,-0.960825,1.126303,-0.16256500000000002,-0.45269499999999996,0.13739400000000002
697,0.72239,-0.898142,-0.7564810000000001,0.411948,0.78217,-0.467429,0.940998,-1.767579,1.1555520000000001,-0.023383,-0.44569899999999996,0.291556
698,0.690392,-0.872267,-0.743292,0.409538,0.765789,-0.49581099999999995,0.556895,-2.245622,1.155618,-0.000312,-0.455959,0.29473
699,0.659029,-0.854243,-0.722947,0.402177,0.754074,-0.519239,0.141895,-2.388459,1.005487,0.029647000000000003,-0.44818100000000005,0.251554
700,0.628322,-0.8449549999999999,-0.702331,0.390146,0.747941,-0.536986,-0.138767,-2.231798,0.699951,-0.12191099999999999,-0.434022,0.19496
701,0.595661,-0.8439209999999999,-0.685813,0.372836,0.747254,-0.55008,-0.355122,-2.278702,0.363078,-0.15878599999999998,-0.375291,0.32672199999999996
702,0.56311,-0.851757,-0.672307,0.3516,0.7524390000000001,-0.556954,-0.728796,-1.940566,0.043841000000000005,-0.095466,-0.360593,0.398049
703,0.546691,-0.871265,-0.657922,0.334712,0.7651439999999999,-0.550006,-1.307274,-1.010924,-0.16755799999999998,0.078832,-0.280052,0.392978
704,0.559136,-0.9022870000000001,-0.629627,0.328777,0.784747,-0.525415,-2.088723,-0.168657,0.068391,0.02274,-0.265994,0.179621
705,0.604437,-0.9395889999999999,-0.578697,0.335356,0.807316,-0.485551,-2.518207,0.47293199999999996,0.36687600000000004,0.059252,0.24688400000000002,-0.195296
706,0.672343,-0.96991,-0.51726,0.352115,0.824835,-0.44231400000000004,-1.9242380000000001,1.103813,0.591338,0.373821,1.2241,-0.795143
707,0.7169770000000001,-0.971483,-0.480828,0.370647,0.825723,-0.425184,0.050414999999999995,0.2824,0.765349,-0.374218,0.596137,-0.716753
708,0.710045,-0.959037,-0.477865,0.374362,0.818639,-0.435503,0.39661599999999997,-0.903034,0.41143199999999996,-0.388751,0.391856,-0.422407
709,0.693854,-0.9493219999999999,-0.47536300000000004,0.37233099999999997,0.813021,-0.447601,0.29096500000000003,-0.7903359999999999,0.291977,0.187331,2.0035380000000003,0.306625
710,0.705782,-0.9489780000000001,-0.462611,0.377825,0.81282,-0.443341,-0.602594,0.535734,0.317151,0.393995,2.4971919999999996,0.684446
711,0.727857,-0.9524219999999999,-0.44948,0.385654,0.814822,-0.43280100000000005,0.045516,0.30699099999999996,0.21514899999999998,-0.746799,-0.295428,0.46215900000000004
712,0.716841,-0.941576,-0.46472700000000006,0.38664699999999996,0.8084859999999999,-0.44366000000000005,0.9638760000000001,0.113567,-0.16168,-0.687825,-0.835159,0.591808
713,0.71315,-0.937717,-0.487108,0.387045,0.8062090000000001,-0.44743999999999995,0.100051,1.2897,-0.495029,-0.6614140000000001,-0.508892,0.595145
714,0.744721,-0.963641,-0.49500600000000006,0.386677,0.821274,-0.419487,-1.220146,1.893643,-1.46322,-0.298023,0.059417,0.512825
715,0.752243,-1.009435,-0.514447,0.363722,0.8465309999999999,-0.388677,-1.314511,0.8708450000000001,-2.14623,0.001604,0.336544,0.719625
716,0.75685,-1.065379,-0.52804,0.332434,0.874972,-0.351978,-2.202514,0.792978,-2.150197,-0.15238,0.297833,0.452716
717,0.782104,-1.1300290000000002,-0.516843,0.30066,0.904424,-0.302647,-2.468748,0.8262780000000001,-1.988661,-0.11456300000000001,0.208536,0.221958
718,0.815697,-1.182441,-0.508795,0.275721,0.9255329999999999,-0.2595,-1.624707,1.711307,-1.6014760000000001,-0.075281,0.173283,0.160363
719,0.867964,-1.221106,-0.502653,0.261383,0.9394790000000001,-0.221428,-1.264142,2.549052,-1.225085,0.00047300000000000006,0.054021000000000007,0.251854
720,0.930552,-1.24842,-0.48648800000000003,0.254037,0.948485,-0.18923800000000002,-0.949149,2.164531,-0.71178,-0.004144,-0.09750299999999999,0.182402
721,0.991974,-1.2667540000000002,-0.45942200000000005,0.25056999999999996,0.954134,-0.163744,-0.833457,1.557028,-0.47198,0.0071200000000000005,-0.463167,0.178805
722,1.043773,-1.282455,-0.43310600000000005,0.245729,0.958717,-0.142996,-0.67056,1.252823,-0.462974,0.035231,-0.388069,0.113134
723,1.093664,-1.296176,-0.405123,0.24084299999999997,0.962528,-0.124509,-0.726394,1.039547,-0.35947399999999996,0.018343,-0.27042,0.159299
724,1.168347,-1.309286,-0.345098,0.237825,0.966001,-0.101238,-1.1977309999999999,0.769988,-0.20646,-0.059069,-0.084531,0.21352800000000002
725,1.282668,-1.322922,-0.24614899999999998,0.23516399999999998,0.9694360000000001,-0.06969700000000001,-1.454042,1.125867,-0.269595,-0.287654,0.11561600000000001,0.14477
726,1.408801,-1.337515,-0.1482,0.228071,0.9729129999999999,-0.037273,-1.137988,1.872568,-0.52899,-0.146055,0.032824,-0.012028
727,1.512142,-1.3523129999999999,-0.086887,0.21629600000000002,0.9762270000000001,-0.012701,-0.519954,2.222729,-0.719539,-0.078692,-0.054077999999999994,-0.203241
728,1.564843,-1.370961,-0.075152,0.198415,0.9800989999999999,-0.001181,0.039949,2.046481,-1.085006,0.34331799999999996,-0.16381500000000002,-0.17865899999999998
729,1.58968,-1.396318,-0.092374,0.17346,0.984817,0.003276,0.189221,2.031978,-1.316818,0.486162,-0.093963,-0.135234
730,1.613686,-1.421931,-0.101099,0.148059,0.9889399999999999,0.006354,0.027625,1.3035139999999998,-1.223009,0.5216649999999999,0.024274,0.054208000000000006
731,1.663027,-1.442602,-0.066049,0.127159,0.9917940000000001,0.011761,-0.273025,0.473466,-0.913193,0.556709,0.043286,0.038303
732,1.7230349999999999,-1.453508,-0.012991999999999998,0.11551199999999999,0.99313,0.017723,-0.174449,0.415473,-0.349477,0.463574,0.212971,-0.233573
733,1.715957,-1.4547290000000002,-0.033472,0.11443099999999999,0.9932719999999999,0.016729,0.312728,0.7603800000000001,0.08718200000000001,0.360254,0.459685,-0.319448
734,1.637616,-1.453756,-0.123143,0.116354,0.993159,0.0077859999999999995,0.575196,0.310894,0.110955,0.42898000000000003,0.516515,-0.183293
735,1.536125,-1.448474,-0.224018,0.121796,0.9925280000000001,-0.004225,0.6299140000000001,-0.279566,0.403719,0.342483,0.26467399999999996,-0.096651
736,1.406512,-1.433609,-0.342346,0.13478800000000002,0.990605,-0.022345,1.004293,-0.844972,0.814051,0.327813,0.161602,0.128943
737,1.2475,-1.4054790000000001,-0.479196,0.155941,0.986366,-0.052248,1.5354139999999998,-1.3293059999999999,1.326855,0.08642999999999999,-0.112251,0.251299
738,1.10595,-1.361193,-0.5944550000000001,0.185924,0.9781129999999999,-0.09324099999999999,1.993825,-1.442399,1.771378,-0.048198000000000005,-0.19603900000000002,0.01565
739,1.003328,-1.306498,-0.67095,0.22023800000000002,0.965276,-0.14038,2.1873080000000003,-1.364112,2.0055009999999998,-0.08704400000000001,0.698909,0.014632
740,0.9308129999999999,-1.249298,-0.725007,0.253418,0.9487629999999999,-0.188674,2.308632,-0.741368,1.744905,-0.24903899999999998,0.798445,0.123504
741,0.872167,-1.199178,-0.7802520000000001,0.278023,0.9317409999999999,-0.233525,2.266724,-0.172276,1.190544,-0.229225,0.686545,0.164372
742,0.829515,-1.1530610000000001,-0.828192,0.299216,0.91401,-0.273915,2.18235,0.238328,1.1456309999999998,-0.29828499999999997,0.429588,-0.016796000000000002
743,0.805154,-1.106739,-0.863151,0.322657,0.894244,-0.310153,2.070818,0.381328,1.178852,-0.31428,0.37154899999999996,0.028064
744,0.784756,-1.062915,-0.889134,0.343646,0.873777,-0.344088,1.9207599999999998,-0.074892,1.113227,-0.284015,0.37427,0.215991
745,0.7626430000000001,-1.0221360000000002,-0.911431,0.360286,0.853224,-0.37706799999999996,1.791092,-0.121748,0.9553520000000001,-0.034038,0.044649,0.300469
746,0.743155,-0.983518,-0.9262889999999999,0.374897,0.8324520000000001,-0.407988,1.6278,-0.467962,1.096729,-0.037814999999999994,0.015159,0.273665
747,0.728222,-0.946225,-0.931781,0.389165,0.811214,-0.43642,1.37114,-0.562042,1.1367180000000001,-0.090077,-0.351238,0.086154
748,0.716439,-0.9121889999999999,-0.926097,0.401902,0.790845,-0.46153900000000003,1.068351,-1.015649,1.3488280000000001,-0.197877,-0.501935,0.10965599999999999
749,0.696008,-0.8800319999999999,-0.913122,0.40849,0.770759,-0.48892399999999997,0.880188,-1.847905,1.314397,-0.126584,-0.473213,0.22169699999999998
750,0.665017,-0.854188,-0.8972709999999999,0.405304,0.754038,-0.516854,0.540684,-2.269104,1.1801059999999999,-0.07225,-0.38324899999999995,0.297188
751,0.635644,-0.8361350000000001,-0.873865,0.397968,0.742058,-0.539402,0.064461,-2.374961,1.158755,-0.09852999999999999,-0.43544799999999995,0.30753
752,0.609105,-0.826836,-0.8443219999999999,0.387446,0.735792,-0.555409,-0.347051,-2.47087,0.991498,-0.22414699999999999,-0.530882,0.342396
753,0.575032,-0.8276209999999999,-0.8163630000000001,0.36798600000000004,0.736324,-0.567801,-0.68661,-2.895411,0.6275430000000001,-0.179754,-0.5480149999999999,0.411505
754,0.5331100000000001,-0.837174,-0.792896,0.340276,0.742754,-0.5766399999999999,-0.892287,-2.921123,0.30994499999999997,-0.074987,-0.476274,0.45765200000000006
755,0.49952799999999997,-0.852893,-0.772705,0.315091,0.7531869999999999,-0.577418,-1.090967,-2.016155,0.078798,-1.3000000000000001e-05,-0.278959,0.40589400000000003
756,0.490738,-0.876674,-0.752656,0.301475,0.768616,-0.5642050000000001,-1.577836,-0.7263270000000001,0.023538,0.12803,-0.144394,0.268169
757,0.516029,-0.909897,-0.7162970000000001,0.302874,0.789441,-0.533885,-2.193115,0.124677,0.327934,0.051739999999999994,0.111759,0.039318
758,0.568624,-0.9430930000000001,-0.665585,0.31623,0.809379,-0.49486,-2.1093290000000002,0.901329,0.504849,0.139047,0.9305049999999999,-0.429655
759,0.627985,-0.957391,-0.619478,0.338196,0.817693,-0.465814,-0.727037,0.949335,0.8872530000000001,-0.09755,1.2748059999999999,-0.744041
760,0.6469520000000001,-0.9470569999999999,-0.601919,0.352045,0.8117,-0.466034,0.419555,-0.24822800000000003,0.47484799999999994,-0.42135,0.608191,-0.5597840000000001
761,0.629501,-0.9343790000000001,-0.603525,0.349891,0.80423,-0.480387,0.516568,-0.9380649999999999,0.275584,-0.4271,-0.057555999999999996,-0.0828
762,0.61364,-0.930067,-0.606509,0.344221,0.80166,-0.48870699999999995,-0.093793,-0.373079,-0.09153,-0.406172,0.5498569999999999,-0.034441
763,0.656416,-0.953885,-0.577334,0.353049,0.815669,-0.45828,-2.313859,1.675245,0.018524000000000002,0.397882,2.8540389999999998,0.958158
764,0.711234,-0.9736,-0.544045,0.367057,0.826915,-0.42598,-0.394493,0.71319,0.246808,-0.664024,-0.071025,0.319657
765,0.701076,-0.964651,-0.5613630000000001,0.36746999999999996,0.82185,-0.435325,1.025908,0.15792899999999999,-0.387765,-0.720192,-0.678417,0.46483500000000005
766,0.687154,-0.9618540000000001,-0.592056,0.36283200000000004,0.8202530000000001,-0.44217399999999996,0.212274,0.9755280000000001,-0.614549,-0.56408,-0.5903189999999999,0.45724899999999996
767,0.710433,-0.9847959999999999,-0.602618,0.360655,0.833159,-0.419229,-1.098007,1.6944150000000002,-1.298671,-0.45078900000000005,-0.42507799999999996,0.48616899999999996
768,0.712584,-1.023807,-0.622762,0.340035,0.854094,-0.393544,-1.058252,0.516079,-1.829926,-0.027474000000000002,-0.017043,0.585286
769,0.7065739999999999,-1.0741049999999999,-0.635076,0.309356,0.879164,-0.36241799999999996,-2.362796,0.232357,-1.941224,-0.054167999999999994,0.317659,0.965232
770,0.73222,-1.14586,-0.619996,0.27558699999999997,0.911065,-0.30657399999999996,-2.989602,0.808679,-2.198441,0.12780999999999998,0.47440299999999996,0.24756799999999998
771,0.7664920000000001,-1.207459,-0.606103,0.246481,0.934716,-0.25598200000000004,-1.9988869999999999,1.332171,-1.5704870000000002,-0.039037,0.187721,0.115753
772,0.816026,-1.245742,-0.594251,0.23259899999999997,0.947634,-0.21877,-1.271369,2.222702,-1.126439,-0.178232,-0.053926,0.252141
773,0.860409,-1.2729139999999999,-0.5941529999999999,0.222465,0.95596,-0.191365,-0.711762,2.092031,-0.902309,-0.100761,-0.262692,0.20679099999999997
774,0.898515,-1.290626,-0.590808,0.216308,0.961008,-0.172175,-0.581489,1.543577,-0.523614,0.0012369999999999998,-0.351099,0.232783
775,0.9454440000000001,-1.304235,-0.570419,0.21352,0.9646819999999999,-0.154166,-0.679611,1.3054379999999999,-0.293258,0.056301,-0.397177,0.147894
776,1.010375,-1.315246,-0.528813,0.21405900000000003,0.9675239999999999,-0.13433,-0.792257,1.152598,-0.069522,0.08898099999999999,-0.29531399999999997,0.08553200000000001
777,1.091393,-1.3250979999999999,-0.46396099999999996,0.215756,0.969968,-0.112161,-1.068219,0.76577,-0.06347699999999999,-0.064419,-0.012234,0.19465
778,1.189287,-1.3382479999999999,-0.379796,0.21382199999999998,0.973082,-0.085778,-1.170892,0.980007,-0.269567,-0.212296,0.202302,0.22090900000000002
779,1.284698,-1.352973,-0.309584,0.20724499999999998,0.9763700000000001,-0.060965,-0.8472620000000001,1.530601,-0.511567,-0.033692,0.058038,0.233481
780,1.359457,-1.368775,-0.268803,0.196101,0.979663,-0.042072000000000005,-0.477076,1.7380939999999998,-0.773097,0.06804400000000001,-0.103519,-0.170147
781,1.407602,-1.3900270000000001,-0.253596,0.177302,0.983706,-0.029194,-0.25139,1.7175529999999999,-1.159259,0.41522700000000007,-0.255236,-0.262294
782,1.4292610000000001,-1.416459,-0.268918,0.15207400000000001,0.9881139999999999,-0.021669,0.024163999999999998,1.8069369999999998,-1.37323,0.5498609999999999,-0.20398,-0.24519200000000002
783,1.424502,-1.44064,-0.303553,0.128268,0.991542,-0.0189,0.055497000000000005,1.2102700000000002,-1.106259,0.569974,0.030309,-0.064062
784,1.4151719999999999,-1.457911,-0.32310900000000004,0.111131,0.993635,-0.017436,-0.06530599999999999,0.11298699999999999,-0.7232729999999999,0.53932,0.11017,-0.01325
785,1.4252770000000001,-1.466142,-0.31009200000000003,0.10319500000000001,0.9945290000000001,-0.015124,-0.12981800000000002,-0.15746300000000002,-0.167902,0.41737399999999997,0.333291,-0.18354600000000001
786,1.410954,-1.463247,-0.325025,0.105813,0.9942219999999999,-0.017059,0.269771,0.143094,0.246838,0.345389,0.51826,-0.178208
787,1.333517,-1.456113,-0.404986,0.11108,0.993431,-0.026862999999999998,0.609314,-0.011578,0.27077199999999996,0.33710100000000004,0.49128,-0.11913299999999999
788,1.226631,-1.443093,-0.508137,0.119762,0.991857,-0.042926,0.950838,-0.397475,0.573822,0.25296399999999997,0.183329,0.15514
789,1.067274,-1.416814,-0.648605,0.134245,0.988168,-0.07395399999999999,1.7436669999999999,-1.457278,0.9150719999999999,0.285356,0.08029800000000001,0.26667199999999996
790,0.9084049999999999,-1.372507,-0.771832,0.155271,0.980405,-0.121102,2.273333,-1.9377099999999998,1.5186600000000001,-0.007245000000000001,-0.242139,0.09804600000000001
791,0.826836,-1.312354,-0.81898,0.18800899999999998,0.9667889999999999,-0.173039,2.370869,-1.666875,2.168473,-0.051441999999999995,0.276848,0.048741
792,0.791736,-1.2461360000000001,-0.828509,0.226952,0.947759,-0.224093,2.403238,-1.012242,2.2682729999999998,-0.287697,0.7688550000000001,0.045291000000000005
793,0.7689050000000001,-1.187041,-0.84544,0.260318,0.927265,-0.26905,2.199809,0.074478,1.611708,-0.307178,0.8912469999999999,0.153953
794,0.764768,-1.139224,-0.865451,0.289597,0.908309,-0.3018,1.9268889999999999,1.037393,1.339375,-0.143281,0.523728,0.08607100000000001
795,0.780039,-1.089479,-0.876767,0.32557600000000003,0.886386,-0.329085,1.965889,1.236302,1.645973,-0.07341,0.22094499999999997,0.009474
796,0.788994,-1.03993,-0.88233,0.359264,0.862369,-0.356689,1.7480200000000001,0.243135,1.6510650000000002,-0.06830900000000001,0.299191,0.158752
797,0.77735,-0.996237,-0.8845569999999999,0.381168,0.839432,-0.387354,1.491847,-0.7891729999999999,1.354701,-0.198734,0.230118,0.35238
798,0.752934,-0.9639,-0.89084,0.389963,0.821422,-0.416142,1.1832280000000002,-1.095097,0.8711690000000001,0.006064,0.063374,0.242817
799,0.724536,-0.935276,-0.893408,0.393417,0.804763,-0.44447700000000007,1.07562,-1.489067,0.918992,-0.009384,-0.167678,0.166706
