,attitude.roll,attitude.pitch,attitude.yaw,gravity.x,gravity.y,gravity.z,rotationRate.x,rotationRate.y,rotationRate.z,userAcceleration.x,userAcceleration.y,userAcceleration.z
0,-1.7663349999999998,-1.045102,0.03934,-0.492249,0.864976,0.097499,-0.421074,-1.9395330000000002,-2.6919880000000003,0.350709,-0.602174,-0.270397
1,-1.810057,-0.994542,0.047372000000000004,-0.5293640000000001,0.8385090000000001,0.12913,-0.35616,-2.775432,-2.301631,0.48283999999999994,-0.6290819999999999,-0.30109600000000003
2,-1.8677139999999999,-0.9547389999999999,0.049562,-0.5525359999999999,0.816163,0.16905499999999998,-0.480771,-3.069331,-1.691102,0.557312,-0.748567,-0.363315
3,-1.9298819999999999,-0.9294129999999999,0.053257000000000006,-0.5601430000000001,0.801269,0.21025500000000003,-0.15996,-3.383293,-0.9780909999999999,0.690239,-0.9918969999999999,-0.423862
4,-1.9882419999999998,-0.921068,0.06713,-0.553018,0.796248,0.24527,0.515223,-3.43638,-0.276826,0.797556,-1.1063370000000001,-0.457779
5,-2.023182,-0.937051,0.099432,-0.5325979999999999,0.805815,0.258843,1.717445,-2.75306,0.6910270000000001,0.793371,-1.156554,-0.380867
6,-2.0242459999999998,-0.9828309999999999,0.155889,-0.49861400000000006,0.8320709999999999,0.242983,2.772995,-2.168358,1.672938,0.41385200000000005,-0.8016449999999999,0.069426
7,-2.0112330000000003,-1.029698,0.20642199999999997,-0.46592,0.857144,0.21959499999999998,1.505737,-1.097053,1.265332,-0.625297,0.259876,0.8930450000000001
8,-2.049839,-1.0420040000000002,0.198218,-0.44770299999999996,0.863417,0.23253400000000002,-0.513184,-2.269145,0.15887300000000001,-0.9857379999999999,1.1835799999999999,1.224482
9,-2.098163,-1.026093,0.199021,-0.447763,0.855281,0.26077,0.027162000000000002,-2.15547,-1.029634,-0.786734,2.81078,1.421923
10,-2.087789,-1.003699,0.22854899999999997,-0.46698,0.843464,0.265513,0.034093,-0.077605,-1.44565,0.344879,-0.182148,0.25598699999999996
11,-2.071043,-0.979978,0.241758,-0.488782,0.830485,0.26718000000000003,-0.529221,0.8546360000000001,-0.989308,1.03996,-0.426371,0.610246
12,-2.021712,-0.977569,0.24382199999999998,-0.503162,0.829141,0.243623,0.170192,3.442216,0.527,0.762286,0.876959,0.455367
13,-1.970229,-0.998058,0.22569699999999998,-0.499274,0.8404200000000001,0.210756,-0.35833899999999996,2.090707,1.169178,1.311134,1.6111790000000001,-0.618028
14,-1.965324,-1.011115,0.196135,-0.49013,0.847424,0.204069,-0.176582,2.080762,0.835039,0.629076,0.231159,0.231462
15,-1.9111310000000001,-1.02996,0.189806,-0.48532200000000003,0.8572780000000001,0.17185899999999998,0.354628,3.284753,1.116012,0.596665,-0.6256649999999999,-0.537948
16,-1.829003,-1.065972,0.216432,-0.46761899999999995,0.875259,0.123499,1.7494290000000001,2.5245130000000002,1.9449869999999998,0.306394,-0.18646300000000002,-1.102091
17,-1.7156639999999999,-1.130752,0.298604,-0.421516,0.904733,0.06149500000000001,2.838664,1.877521,3.2224720000000002,0.260292,-0.21593600000000002,-1.040087
18,-1.553683,-1.204501,0.44355900000000004,-0.358105,0.93366,-0.006129,3.051872,0.9880540000000001,3.5605230000000003,0.144467,0.6409699999999999,-0.411275
19,-1.374632,-1.267519,0.634861,-0.292919,0.954363,-0.058209000000000004,2.760443,-0.670901,3.3608559999999996,-0.197773,0.37751599999999996,-0.169407
20,-1.0977270000000001,-1.301869,0.924549,-0.23651399999999997,0.9640559999999999,-0.121056,3.479582,0.8905420000000001,2.534938,-0.5951810000000001,0.192605,0.602288
21,-0.8919159999999999,-1.3097370000000002,1.101386,-0.200874,0.966117,-0.16206800000000002,0.56174,1.369916,1.070775,-0.080483,-0.520042,0.706013
22,-0.8553940000000001,-1.315126,1.127901,-0.190889,0.9674940000000001,-0.165876,0.073899,0.597785,0.114434,0.23192,-0.658488,0.271422
23,-0.7951020000000001,-1.309515,1.16069,-0.18442,0.96606,-0.180875,0.8606020000000001,1.68357,0.164472,0.505892,-0.555308,-0.174289
24,-0.649539,-1.29226,1.280453,-0.166293,0.9614590000000001,-0.218957,2.119062,1.211424,0.9942620000000001,0.5037560000000001,-0.33368200000000003,-0.13886199999999999
25,-0.49302399999999996,-1.2757690000000002,1.44134,-0.13761600000000002,0.956794,-0.256135,1.604298,-0.354439,1.6827439999999998,0.359769,-0.059257000000000004,0.356096
26,-0.355018,-1.270931,1.5776350000000001,-0.10267899999999999,0.955376,-0.276969,0.797882,1.084442,1.659244,-0.314023,-0.0039299999999999995,0.6547609999999999
27,-0.223057,-1.26759,1.676567,-0.066049,0.954384,-0.29118299999999997,0.453682,2.064651,1.1204040000000002,-0.685187,-0.17086099999999999,0.162307
28,-0.12683699999999998,-1.263293,1.7383509999999998,-0.038288,0.953092,-0.300246,0.394933,1.7295150000000001,0.7988890000000001,-0.456295,-0.11068499999999999,0.168761
29,-0.05365,-1.256807,1.784473,-0.016562,0.951109,-0.308409,0.304051,1.234276,0.583108,-0.42150200000000004,0.11320699999999999,0.399321
30,-0.0173,-1.2552940000000001,1.810631,-0.005368,0.950641,-0.310245,0.060546,0.139205,0.253798,-0.847217,0.12430999999999999,-0.022473
31,-0.033785,-1.247668,1.80496,-0.010726000000000001,0.948247,-0.317351,0.506883,-0.847462,-0.343229,-1.4376229999999999,-0.09778300000000001,-0.06508
32,-0.081898,-1.248988,1.7672970000000001,-0.025874,0.948665,-0.31522,-0.5040939999999999,-0.386598,-0.698054,-0.8962600000000001,0.258931,0.6229140000000001
33,-0.158229,-1.266683,1.695614,-0.047182999999999996,0.9541129999999999,-0.295704,-1.354084,-0.630683,-1.2580850000000001,-0.620846,0.25897600000000004,-0.011898
34,-0.31989,-1.28861,1.533788,-0.087563,0.960449,-0.264327,-1.897289,0.20615100000000003,-2.532,-0.33919499999999997,-0.046966,0.5281819999999999
35,-0.585707,-1.303779,1.231152,-0.14585499999999998,0.964562,-0.21987399999999999,-2.614435,1.803969,-3.7493519999999996,-0.255833,0.6470560000000001,0.5647840000000001
36,-0.885164,-1.286941,0.904908,-0.21676900000000002,0.959983,-0.177321,-2.111554,-0.137037,-3.634393,-0.165159,1.430596,-0.019471000000000002
37,-1.117156,-1.2583090000000001,0.675817,-0.27633,0.951572,-0.134725,-2.0757060000000003,-0.648291,-2.620813,0.514138,1.566067,-0.057229999999999996
38,-1.281191,-1.232367,0.49902299999999994,-0.318178,0.943277,-0.094811,-2.26727,0.721167,-2.0673630000000003,0.618639,1.471533,0.243508
39,-1.406798,-1.203085,0.340659,-0.354655,0.933153,-0.05869,-2.286335,1.210261,-2.084146,0.63415,1.3135059999999998,0.303105
40,-1.501773,-1.167843,0.223061,-0.391201,0.9199069999999999,-0.027045,-1.818509,0.34175300000000003,-1.8800080000000001,0.44541499999999995,0.471512,0.36449299999999996
41,-1.583316,-1.137235,0.14443599999999998,-0.42007,0.907475,0.005259000000000001,-1.303713,-1.07829,-1.519943,0.312801,-0.015369999999999998,-0.123957
42,-1.640943,-1.094014,0.10417799999999999,-0.45779200000000003,0.888476,0.032166,-0.84839,-0.748644,-2.56511,-0.05826,-0.392581,-0.157425
43,-1.6640979999999999,-1.034438,0.096871,-0.508785,0.859575,0.047609,-0.109097,-1.22129,-3.022949,0.145625,-0.545183,-0.25879
44,-1.701093,-0.98055,0.10661400000000001,-0.5518460000000001,0.8308030000000001,0.072313,-0.112929,-2.720166,-2.479466,0.560193,-0.61979,-0.325258
45,-1.763559,-0.938176,0.10609,-0.580308,0.806481,0.11326800000000001,-0.45578599999999997,-3.334157,-1.818777,0.757447,-0.790871,-0.420809
46,-1.841307,-0.9087879999999999,0.102973,-0.5923470000000001,0.788759,0.164262,-0.333649,-4.013574,-1.183598,0.8763129999999999,-0.961413,-0.45186000000000004
47,-1.919466,-0.894681,0.11038699999999999,-0.588113,0.7800090000000001,0.213792,0.246119,-4.152683000000001,-0.465797,0.926782,-0.9494889999999999,-0.473923
48,-1.975255,-0.9046620000000001,0.13203499999999999,-0.568091,0.786217,0.24317600000000003,1.248977,-3.248914,0.690525,0.9156709999999999,-1.169075,-0.34184000000000003
49,-1.991632,-0.948485,0.17782799999999999,-0.532053,0.812533,0.238134,2.610579,-2.312199,1.821536,0.45373,-0.958957,0.087778
50,-1.983941,-1.002907,0.225045,-0.4926,0.843038,0.215943,1.6729900000000002,-1.0838450000000002,1.812345,-0.5087729999999999,-0.111669,0.915847
51,-2.0116419999999997,-1.0295889999999999,0.218403,-0.465916,0.857087,0.219825,0.034368,-1.6712580000000001,0.9481430000000001,-0.981899,1.5354450000000002,0.685006
52,-2.0632650000000003,-1.021413,0.21460300000000002,-0.46011199999999997,0.8528469999999999,0.246879,0.11113800000000001,-2.681015,-1.011283,-1.071977,2.629987,1.218712
53,-2.06283,-0.9983870000000001,0.246196,-0.477404,0.840598,0.25589,-0.043327,-0.455484,-1.452116,0.152041,1.66491,1.0386959999999998
54,-2.055796,-0.975567,0.257713,-0.496036,0.8280200000000001,0.261402,-0.373098,-0.000321,-0.9732350000000001,0.790866,-0.504488,0.37672100000000003
55,-2.027621,-0.9658180000000001,0.254628,-0.510424,0.822515,0.250873,-0.07497999999999999,2.549049,0.057483000000000006,0.185335,1.5191139999999999,0.36442199999999997
56,-1.9650189999999998,-0.9773620000000001,0.237581,-0.516317,0.829025,0.214788,-0.287756,3.805383,0.9463520000000001,0.26795,2.13855,-0.653783
57,-1.951585,-0.988242,0.20993299999999998,-0.5107520000000001,0.83506,0.204468,-0.393198,1.5490760000000001,0.7850689999999999,1.200983,0.527473,-0.406769
58,-1.9136810000000002,-1.003344,0.192154,-0.506197,0.8432729999999999,0.180705,-0.162056,3.0517939999999997,0.9481930000000001,0.673723,-0.666226,-0.25323
59,-1.8566349999999998,-1.029931,0.188448,-0.493987,0.8572629999999999,0.145176,0.776192,2.798978,1.552207,0.600341,-0.581796,-0.524998
60,-1.7771869999999999,-1.080699,0.23126599999999997,-0.460721,0.882287,0.096462,2.129364,1.614791,2.675195,0.151731,-0.012306999999999998,-1.0920370000000001
61,-1.6613349999999998,-1.154443,0.330275,-0.40276999999999996,0.9145700000000001,0.036566,2.922715,1.250409,3.598807,0.070373,0.802425,-0.580542
62,-1.5024600000000001,-1.227396,0.48682299999999995,-0.335905,0.941615,-0.02299,2.806858,0.127079,3.565254,-0.041826999999999996,0.533299,-0.288258
63,-1.307521,-1.2828620000000002,0.7048,-0.274187,0.958833,-0.073902,3.111974,-0.6643319999999999,3.0129240000000004,-0.427671,0.23381,0.215077
64,-1.0459399999999999,-1.2986959999999999,0.9600870000000001,-0.23258,0.963209,-0.13467,2.439963,1.800976,1.40167,-0.129115,-0.539838,0.5452229999999999
65,-0.9057959999999999,-1.2939399999999999,1.0667799999999998,-0.21509099999999998,0.9619190000000001,-0.168663,0.869807,1.500804,0.30791,0.14695999999999998,-0.66599,0.341332
66,-0.843259,-1.289782,1.110527,-0.207114,0.960775,-0.18443299999999999,0.517724,0.983405,0.265521,0.353614,-0.668966,0.16314700000000001
67,-0.749599,-1.285695,1.182883,-0.191631,0.959633,-0.205868,1.252895,1.303582,0.810766,0.5014,-0.43431899999999996,-0.015125999999999999
68,-0.59027,-1.274154,1.332633,-0.162696,0.9563229999999999,-0.24284899999999998,1.8484029999999998,0.25534,1.628118,0.5571659999999999,-0.07624199999999999,0.11858099999999999
69,-0.44247299999999995,-1.269469,1.493547,-0.127077,0.954943,-0.268206,1.0326520000000001,-0.20573699999999998,2.021457,0.338518,-0.05997,0.526857
70,-0.302742,-1.2696399999999999,1.622945,-0.088435,0.954994,-0.28313499999999997,0.597603,1.519139,1.551532,-0.608907,-0.103126,0.48085900000000004
71,-0.19503099999999998,-1.2677049999999999,1.6874759999999998,-0.05784299999999999,0.954418,-0.292813,0.14336600000000002,2.467551,0.535537,-0.711673,-0.255841,0.26113600000000003
72,-0.131101,-1.269357,1.7078939999999998,-0.038812,0.95491,-0.29434699999999997,-0.087006,1.998503,0.284565,-0.35752,-0.140259,0.20912600000000003
73,-0.07796499999999999,-1.271087,1.735597,-0.022994999999999998,0.9554219999999999,-0.294346,9.7e-05,0.927852,0.487371,-0.332443,0.030813999999999998,0.136051
74,-0.046959,-1.265119,1.766054,-0.014126,0.953643,-0.300607,0.669568,-0.494029,0.374229,-0.970355,0.018937,-0.275687
75,-0.06339700000000001,-1.2454479999999999,1.768988,-0.02025,0.9475389999999999,-0.318997,0.669898,-1.087896,-0.29691999999999996,-1.446882,0.216081,0.22132600000000002
76,-0.12520699999999998,-1.253531,1.724761,-0.038959,0.950092,-0.309527,-0.56562,-1.290774,-0.970792,-1.058346,0.284344,0.071292
77,-0.27345,-1.253056,1.597488,-0.084371,0.949944,-0.300813,-0.5517569999999999,-1.454876,-2.566408,-0.456858,0.748283,0.11934000000000002
78,-0.515775,-1.252548,1.3579629999999998,-0.154327,0.949785,-0.272198,-1.997275,-0.07270700000000001,-3.835574,-0.387223,1.053801,0.49726499999999996
79,-0.7827770000000001,-1.24619,1.060287,-0.22493000000000002,0.9477760000000001,-0.22611199999999998,-2.742811,0.9513870000000001,-3.813252,-0.166046,1.209969,0.759437
80,-1.017312,-1.229007,0.811947,-0.285132,0.942156,-0.17618499999999998,-2.614605,-0.556446,-2.74327,0.45407700000000006,1.195371,-0.06771100000000001
81,-1.212568,-1.214911,0.6135689999999999,-0.326302,0.9373389999999999,-0.12216099999999999,-2.783125,-0.130138,-1.848755,0.760033,0.87687,-0.073075
82,-1.3705200000000002,-1.196146,0.43225699999999995,-0.358632,0.930636,-0.07280199999999999,-2.850693,0.7807470000000001,-1.808734,0.896322,0.826154,0.306002
83,-1.5045309999999998,-1.16832,0.286695,-0.390839,0.9200940000000001,-0.025937,-2.3654349999999997,-0.346275,-1.7066919999999999,0.535355,0.538265,0.31106300000000003
84,-1.6134709999999999,-1.136992,0.178146,-0.419943,0.907373,0.017932,-1.960132,-0.7199800000000001,-1.577332,0.359854,0.18511,0.11395
85,-1.676859,-1.0919809999999999,0.124105,-0.458139,0.887541,0.048774,-1.0289,-0.600826,-2.61036,-0.143683,-0.14012,-0.182701
86,-1.7037099999999998,-1.0291219999999999,0.113758,-0.5110239999999999,0.8568469999999999,0.068325,-0.473884,-1.356809,-3.181286,0.0051340000000000005,-0.535222,-0.327327
87,-1.756821,-0.9708370000000001,0.109989,-0.554868,0.825358,0.104426,-0.60297,-2.940512,-2.627887,0.254835,-0.688685,-0.425487
88,-1.8212720000000002,-0.926608,0.104551,-0.581809,0.7995869999999999,0.148855,-0.622903,-3.0288310000000003,-1.837429,0.781608,-1.033184,-0.377004
89,-1.8843020000000001,-0.8949010000000001,0.10411500000000001,-0.5951029999999999,0.780147,0.192931,-0.276007,-3.217366,-1.344451,0.888301,-0.870174,-0.373091
90,-1.9413,-0.8766649999999999,0.11842799999999999,-0.59631,0.76861,0.231632,0.379805,-3.4615139999999998,-0.7979689999999999,0.8932,-0.775736,-0.367817
91,-1.983436,-0.8779469999999999,0.144181,-0.58512,0.769429,0.25615,1.069293,-2.75268,0.0947,0.752051,-0.9358110000000001,-0.155763
92,-1.991195,-0.905557,0.18723499999999998,-0.5635020000000001,0.7867689999999999,0.25191399999999997,2.287024,-1.673257,1.094201,0.585902,-0.91653,-0.0344
93,-1.9632509999999999,-0.9534090000000001,0.24534099999999998,-0.534894,0.815394,0.221408,2.432282,-0.447425,1.575413,0.184293,-0.80279,0.340131
94,-1.951613,-0.987266,0.269246,-0.5115029999999999,0.8345229999999999,0.204785,0.47443100000000005,-0.8195020000000001,1.21611,-0.9585290000000001,0.789547,0.7474390000000001
95,-2.000483,-0.994072,0.263061,-0.495713,0.838253,0.227156,-0.077639,-2.840076,-0.23153,-0.780425,2.4557830000000003,1.019518
96,-2.027523,-0.980028,0.285102,-0.499907,0.830513,0.24564299999999997,0.24501799999999999,-1.5080879999999999,-1.141108,-0.301012,2.230385,1.049431
97,-2.022993,-0.959875,0.30790300000000004,-0.515967,0.81912,0.25064000000000003,0.109535,-0.5202479999999999,-1.105932,0.421088,-0.511655,0.361299
98,-2.0041740000000003,-0.946076,0.316418,-0.530801,0.811127,0.24561,0.063066,1.716277,-0.39555100000000004,0.626931,-0.584778,0.525753
99,-1.9276900000000001,-0.9593950000000001,0.334237,-0.537845,0.8188439999999999,0.200541,0.499378,4.145044,1.104168,0.625857,1.067707,0.013662
100,-1.889413,-0.9930629999999999,0.305964,-0.51864,0.8377030000000001,0.171076,-0.870812,1.409532,1.995409,1.642739,1.3442129999999999,-0.277918
101,-1.9064919999999999,-1.0150270000000001,0.258733,-0.498147,0.8494950000000001,0.173804,-0.523932,1.787748,1.152384,0.099465,-0.13455899999999998,-0.36106
102,-1.862091,-1.031996,0.250308,-0.49149,0.858325,0.14736,0.425483,2.9062349999999997,0.8755719999999999,0.30783499999999997,-0.347644,-0.693839
103,-1.773482,-1.061407,0.284747,-0.47766000000000003,0.873043,0.098163,1.6750049999999999,2.778369,1.664266,0.236938,-0.302898,-0.982821
104,-1.655978,-1.1172309999999999,0.364158,-0.436583,0.898891,0.037279,2.462764,2.202854,2.910711,0.26014499999999996,0.214848,-0.667787
105,-1.506273,-1.182218,0.489335,-0.37808400000000003,0.925449,-0.024429,2.559507,1.333795,3.307743,0.2213,0.426785,-0.289093
106,-1.3585040000000002,-1.240645,0.649497,-0.316907,0.9459930000000001,-0.06830599999999999,2.354171,-0.9980979999999999,3.220634,-0.15837400000000001,0.332403,-0.22539499999999998
107,-1.1511930000000001,-1.276286,0.8840379999999999,-0.26508899999999996,0.956944,-0.118256,3.131662,0.009225,2.388357,-0.561021,0.25066700000000003,0.554504
108,-0.931494,-1.281433,1.073488,-0.22899,0.958426,-0.170245,1.4092770000000001,2.496891,1.1575010000000001,-0.128157,-0.493155,0.620257
109,-0.8452270000000001,-1.283962,1.131756,-0.21165599999999998,0.959144,-0.18773299999999998,0.303613,0.893309,0.337848,0.196458,-0.6730109999999999,0.213932
110,-0.791994,-1.281775,1.161892,-0.20285999999999998,0.9585229999999999,-0.200201,0.5889220000000001,1.604327,0.23744899999999997,0.52479,-0.622265,0.092016
111,-0.6643,-1.2687950000000001,1.259391,-0.183368,0.954743,-0.234181,1.896496,1.509542,0.9613440000000001,0.543964,-0.303025,-0.066936
112,-0.520537,-1.257932,1.392096,-0.153075,0.951456,-0.267018,1.064714,0.683729,1.471475,0.279982,-0.083856,0.391912
113,-0.39992300000000003,-1.260163,1.49469,-0.11900799999999999,0.95214,-0.281541,0.5289659999999999,1.57094,1.444164,-0.416713,-0.14202,0.45512600000000003
114,-0.275121,-1.2585790000000001,1.584651,-0.083446,0.9516549999999999,-0.295616,0.47629399999999994,1.871768,1.118671,-0.66547,-0.050944,0.083381
115,-0.191683,-1.257616,1.643401,-0.058692999999999995,0.9513590000000001,-0.30244099999999996,0.154677,1.153203,0.7413310000000001,-0.590156,-0.056507,0.11248499999999999
116,-0.140414,-1.256386,1.6775209999999998,-0.043281,0.9509790000000001,-0.306211,0.170694,0.790296,0.373371,-0.458657,-0.140493,0.306867
117,-0.111953,-1.254009,1.698593,-0.034802,0.950241,-0.30956300000000003,0.156552,0.175999,0.293943,-0.521655,-0.082871,0.201653
118,-0.11002,-1.245385,1.708763,-0.035102,0.947519,-0.317764,0.6885720000000001,-0.708704,-0.035561,-0.785775,-0.012751,0.037948
119,-0.1443,-1.235894,1.6890740000000002,-0.047263,0.944443,-0.325259,-0.215461,-0.543896,-0.505695,-1.0952540000000002,0.45367399999999997,0.632861
120,-0.19817,-1.254358,1.639546,-0.061264,0.95035,-0.30509200000000003,-1.322884,-0.327,-0.7722180000000001,-0.727509,0.330702,0.261452
121,-0.316448,-1.27541,1.522186,-0.09059,0.9566899999999999,-0.276652,-1.5563129999999998,-0.061396000000000006,-1.987689,-0.568116,0.17397100000000001,0.029948000000000002
122,-0.5457310000000001,-1.2911860000000002,1.2701360000000002,-0.143245,0.9611629999999999,-0.23589200000000002,-2.470183,1.2990680000000001,-3.3513889999999997,-0.31853200000000004,0.6968260000000001,0.583167
123,-0.822002,-1.2842850000000001,0.953736,-0.20701,0.9592360000000001,-0.192384,-2.409777,0.677918,-3.6460690000000002,-0.169898,1.025658,0.292268
124,-1.075092,-1.254075,0.706814,-0.273961,0.950262,-0.148141,-1.967702,-1.311459,-3.104184,0.293126,1.399622,-0.356925
125,-1.2456,-1.2231020000000001,0.538572,-0.322869,0.940161,-0.10886099999999999,-1.914455,0.066295,-2.1740880000000002,0.49579700000000004,1.2878209999999999,0.090413
126,-1.365289,-1.19452,0.395706,-0.359725,0.930039,-0.074985,-2.157938,0.8241629999999999,-2.077416,0.50952,1.192596,0.401385
127,-1.468901,-1.159122,0.27189,-0.398066,0.916452,-0.040701999999999995,-1.968377,0.305645,-2.04338,0.42293800000000004,0.706274,0.45815200000000006
128,-1.553995,-1.126149,0.183428,-0.43007700000000004,0.9027620000000001,-0.007227,-1.530062,-0.757446,-1.6383729999999999,0.379158,0.14103,-0.0071319999999999995
129,-1.629104,-1.087094,0.130194,-0.464267,0.885279,0.027101,-1.1314629999999999,-1.4064139999999998,-2.195574,0.16128800000000001,-0.276683,-0.290071
130,-1.679716,-1.03576,0.10195800000000001,-0.506848,0.86025,0.055425,-0.725191,-1.388073,-2.605093,0.273038,-0.720724,-0.257497
131,-1.7315740000000002,-0.9839399999999999,0.094691,-0.546602,0.832686,0.088646,-0.504034,-2.772411,-2.39454,0.42672899999999997,-0.662596,-0.30942600000000003
132,-1.792169,-0.941369,0.090266,-0.574313,0.808365,0.129255,-0.542786,-2.806317,-1.874543,0.745136,-0.9140780000000001,-0.281843
133,-1.8500759999999998,-0.910278,0.089779,-0.589752,0.789674,0.169126,-0.242004,-2.9662580000000003,-1.29967,0.734008,-0.896501,-0.260358
134,-1.9030490000000002,-0.8926270000000001,0.102292,-0.593054,0.7787229999999999,0.20463,0.341084,-3.221982,-0.725907,0.736106,-0.8983059999999999,-0.330911
135,-1.937976,-0.8958729999999999,0.131743,-0.5831850000000001,0.780755,0.224306,1.368211,-2.5774220000000003,0.230091,0.7215060000000001,-1.002053,-0.30005
136,-1.9361439999999999,-0.931009,0.189039,-0.5576180000000001,0.8022229999999999,0.2133,2.780961,-2.020562,1.470905,0.613587,-0.9515450000000001,-0.048993
137,-1.9097549999999999,-0.987411,0.260858,-0.5195069999999999,0.8346030000000001,0.18316,2.591071,-1.245464,2.006969,-0.06164,-0.37052199999999996,0.549765
138,-1.923268,-1.018736,0.274727,-0.49219799999999997,0.8514459999999999,0.181046,-0.160298,-1.653089,0.83673,-0.712316,0.433634,0.958053
139,-1.996705,-1.004229,0.263415,-0.48878599999999994,0.8437479999999999,0.221752,-0.26932399999999995,-3.7833870000000003,-1.260357,-0.965041,3.1224380000000003,1.335652
140,-2.017625,-0.973751,0.289394,-0.5070020000000001,0.827,0.24293,-0.042401,-0.9235110000000001,-1.89162,-0.36470199999999997,1.654765,1.088231
141,-1.994764,-0.9423389999999999,0.316535,-0.535844,0.808936,0.241848,0.05984400000000001,0.442114,-1.4333200000000001,0.364671,-0.616919,0.377979
142,-1.947503,-0.93437,0.334907,-0.552649,0.804225,0.218627,0.871812,2.3606119999999997,0.00772,1.374731,0.069158,0.204605
143,-1.8746099999999999,-0.9642270000000001,0.350641,-0.543942,0.821609,0.170536,0.446296,3.6081870000000005,1.937699,0.772686,1.028199,-0.289082
144,-1.8505919999999998,-1.005116,0.323368,-0.515143,0.844224,0.148018,-0.5873,1.303258,1.952661,1.398611,1.6886430000000001,-0.7103649999999999
145,-1.831893,-1.026722,0.30390300000000003,-0.500079,0.855607,0.13361900000000002,0.11200399999999999,1.998646,0.8745450000000001,0.043552,0.033462,-0.788587
146,-1.778499,-1.045527,0.314344,-0.49066499999999996,0.865189,0.103403,0.7439,2.353106,0.9287110000000001,0.399097,-0.159211,-0.527705
147,-1.69101,-1.0791870000000001,0.359511,-0.468634,0.881574,0.05660900000000001,1.6718849999999998,2.414854,1.9969270000000001,0.29247199999999995,-0.2171,-0.71997
148,-1.571395,-1.137925,0.44099700000000003,-0.419475,0.9077649999999999,0.000251,2.1582369999999997,2.13358,3.182138,0.34756,0.346767,-0.611122
149,-1.423474,-1.201058,0.571167,-0.357452,0.932422,-0.053045,2.336045,0.7858189999999999,3.341067,0.273803,0.544751,-0.427012
150,-1.25898,-1.252114,0.755012,-0.29820100000000005,0.949649,-0.09612000000000001,2.6365540000000003,-0.778914,3.0417959999999997,-0.186953,0.24991999999999998,-0.15063
151,-0.986973,-1.270953,1.032781,-0.24644000000000002,0.955383,-0.16280999999999998,3.6611480000000003,1.2007459999999999,2.326435,-0.348988,-0.060089,0.29730100000000004
152,-0.7499520000000001,-1.263417,1.232859,-0.206223,0.9531299999999999,-0.221387,1.427853,2.426239,1.227156,0.056839999999999995,-0.684117,0.671613
153,-0.6765369999999999,-1.26568,1.2886360000000001,-0.188079,0.9538120000000001,-0.234236,0.310665,0.444327,0.457045,0.27745,-0.7260439999999999,0.40429499999999996
154,-0.614135,-1.258566,1.328362,-0.177012,0.951651,-0.251048,0.9648909999999999,1.932202,0.235382,0.45443199999999995,-0.231573,-0.06099400000000001
155,-0.49478,-1.239199,1.413281,-0.154583,0.945524,-0.286508,1.559559,1.517257,0.9226610000000001,0.516171,-0.092374,-0.026267000000000002
156,-0.394967,-1.235562,1.488434,-0.12658699999999998,0.944333,-0.303659,0.281719,1.842269,0.9389559999999999,-0.082138,-0.127408,0.503732
157,-0.301274,-1.234834,1.532137,-0.097827,0.9440940000000001,-0.314826,0.35082399999999997,2.824709,0.549347,-0.523252,-0.27710100000000004,0.12059600000000001
158,-0.217781,-1.228421,1.570862,-0.072537,0.94196,-0.32779200000000003,0.48006400000000005,1.9357060000000001,0.578095,-0.530933,-0.164296,0.07985199999999999
159,-0.151446,-1.22326,1.6126909999999999,-0.051382000000000004,0.9402149999999999,-0.336681,0.348841,1.069762,0.6605409999999999,-0.700967,0.015428,0.29916
160,-0.102853,-1.217998,1.6464400000000001,-0.035475,0.938409,-0.343696,0.29804400000000003,0.7202930000000001,0.454463,-0.655015,0.13658800000000001,0.47905699999999996
161,-0.07575499999999999,-1.215848,1.670582,-0.026302999999999997,0.937665,-0.346541,0.117191,-0.197009,0.369985,-0.766163,0.19911500000000001,0.114852
162,-0.086202,-1.205288,1.681242,-0.030772000000000004,0.933942,-0.356094,0.8028850000000001,-1.412072,-0.061639,-1.067418,0.13359300000000002,-0.123856
163,-0.126409,-1.203298,1.6675229999999999,-0.045295,0.9332290000000001,-0.356412,-0.609272,-1.0770540000000002,-0.299464,-0.910683,0.264205,0.929502
164,-0.192733,-1.2250219999999998,1.617691,-0.06491799999999999,0.9408129999999999,-0.332646,-1.488082,-1.007212,-1.0181959999999999,-0.714928,0.29134899999999997,0.153614
165,-0.32671100000000003,-1.247703,1.4878280000000002,-0.10189400000000001,0.948258,-0.300702,-1.7832240000000001,-0.011602,-2.253193,-0.323017,-0.137879,0.386853
166,-0.5392710000000001,-1.26652,1.240425,-0.153847,0.9540639999999999,-0.25708000000000003,-2.751687,1.8982709999999998,-3.501543,-0.110161,0.364692,0.5664520000000001
167,-0.803848,-1.26068,0.9332290000000001,-0.219728,0.952298,-0.21176599999999998,-2.418463,0.525037,-3.7666470000000003,-0.06314,1.3229549999999999,0.201252
168,-1.036874,-1.234726,0.696561,-0.283875,0.944058,-0.167826,-2.162184,-0.5665520000000001,-3.003953,0.339387,1.382205,-0.200017
169,-1.201506,-1.2097280000000001,0.519111,-0.329452,0.93552,-0.12751400000000002,-2.2269959999999998,0.5913579999999999,-2.138493,0.439529,1.457241,0.148174
170,-1.326174,-1.1856200000000001,0.36535100000000004,-0.364531,0.926732,-0.090995,-2.3174669999999997,0.983265,-2.0317369999999997,0.5025930000000001,1.2964120000000001,0.414954
171,-1.4266299999999998,-1.151724,0.24418600000000001,-0.40268699999999996,0.913467,-0.058459000000000004,-1.764011,0.186747,-2.0556919999999996,0.387519,0.669602,0.48907799999999996
172,-1.510732,-1.118117,0.16434,-0.436583,0.899279,-0.026255,-1.312676,-1.2283389999999998,-1.8146490000000002,0.29109,0.113554,-0.014516999999999999
173,-1.5886930000000001,-1.072751,0.11679400000000001,-0.477628,0.878518,0.008549,-0.9593510000000001,-1.7684990000000003,-2.636156,-0.007937,-0.223336,-0.269215
174,-1.640528,-1.0158639999999999,0.096055,-0.525601,0.849936,0.03671,-0.41822600000000004,-1.861436,-2.774331,0.22146300000000002,-0.566443,-0.1788
175,-1.6957330000000002,-0.9650190000000001,0.091413,-0.564959,0.82206,0.070954,-0.40178600000000003,-2.773973,-2.357508,0.6923699999999999,-0.644402,-0.23892199999999997
176,-1.7557009999999997,-0.9227780000000001,0.08607999999999999,-0.5933149999999999,0.7972819999999999,0.110974,-0.47173000000000004,-2.846193,-1.81952,0.856849,-0.770457,-0.328793
177,-1.8194270000000001,-0.894034,0.085483,-0.607011,0.779604,0.15411,-0.165475,-3.3739779999999997,-1.168294,0.740877,-0.8883989999999999,-0.38795100000000005
178,-1.881157,-0.879864,0.09814400000000001,-0.606807,0.770652,0.194618,0.42189499999999996,-3.5639220000000003,-0.531561,0.79127,-1.0403209999999998,-0.44918
179,-1.9253490000000002,-0.887724,0.12450499999999999,-0.591917,0.775637,0.21912600000000002,1.2765819999999999,-2.968169,0.524776,0.784315,-1.206439,-0.40715999999999997
180,-1.9378330000000001,-0.925694,0.17005499999999998,-0.561228,0.799038,0.215768,2.427523,-2.093753,1.70033,0.689585,-1.011578,-0.0033049999999999998
181,-1.919827,-0.982558,0.22853800000000002,-0.521435,0.8319190000000001,0.18976600000000002,2.294706,-1.065973,2.1339200000000003,0.041989,-0.45804799999999996,0.501808
182,-1.937113,-1.018581,0.228148,-0.489767,0.8513639999999999,0.18789,-0.103656,-1.11314,1.3577219999999999,-0.416529,0.213272,1.074103
183,-2.006742,-1.01752,0.20695999999999998,-0.47632700000000006,0.850807,0.22189099999999998,-0.66367,-3.4643,-0.793508,-0.936378,2.23391,0.8798090000000001
184,-2.027126,-0.992826,0.23563800000000001,-0.49041899999999994,0.8375729999999999,0.24074,0.274045,-0.9524530000000001,-1.58707,-0.019041,0.732525,0.55876
185,-2.0048790000000003,-0.9681420000000001,0.261065,-0.514258,0.8238340000000001,0.23839499999999997,0.100359,0.20557199999999998,-1.188116,0.38941,-0.191433,0.24511
186,-1.985783,-0.9560690000000001,0.263469,-0.52778,0.8169310000000001,0.232525,-0.276994,1.745409,-0.191801,1.070902,0.034402999999999996,0.6471899999999999
187,-1.910323,-0.971859,0.273649,-0.531578,0.8259350000000001,0.187756,0.6784789999999999,4.267385,1.258014,0.374977,1.6540150000000002,-0.490521
188,-1.864787,-1.0072219999999998,0.24895799999999998,-0.5112869999999999,0.8453510000000001,0.154799,-0.831801,1.6888779999999999,1.902384,1.088908,1.801484,-0.9553520000000001
189,-1.8656869999999999,-1.028427,0.214038,-0.493882,0.8564879999999999,0.150015,-0.203217,2.066157,1.049577,-0.031921,-0.318524,-0.358267
190,-1.82015,-1.044994,0.206934,-0.486379,0.864922,0.123858,0.21881399999999998,2.72273,0.8594040000000001,0.36037199999999997,-0.45201899999999995,-0.500872
191,-1.7473419999999997,-1.071307,0.22668400000000002,-0.47152700000000003,0.877827,0.084122,1.132248,2.734897,1.552635,0.25756799999999996,-0.33826100000000003,-0.763229
192,-1.6544619999999999,-1.126986,0.278967,-0.42787700000000006,0.903122,0.035882,1.7282259999999998,2.096838,3.154608,0.253668,0.0569,-0.629175
193,-1.53309,-1.197975,0.379153,-0.36398,0.9313040000000001,-0.013731,2.218222,0.856909,3.515337,0.11285,0.479921,-0.410265
194,-1.39915,-1.260975,0.530862,-0.300402,0.9523879999999999,-0.052075,2.182071,-1.226855,3.301974,-0.176511,0.43532299999999996,-0.296939
195,-1.1889040000000002,-1.302527,0.774654,-0.245962,0.964231,-0.09877999999999999,3.254127,-0.52157,2.621692,-0.505228,0.24273899999999998,0.339823
196,-0.889185,-1.303123,1.05492,-0.205386,0.9643889999999999,-0.16663599999999998,2.6660939999999997,2.529799,1.430084,-0.316434,-0.47868599999999994,0.635325
197,-0.7419140000000001,-1.298938,1.161102,-0.181437,0.9632729999999999,-0.197944,0.541808,1.550344,0.459375,0.27027399999999996,-0.748155,0.42600200000000005
198,-0.689225,-1.296376,1.19461,-0.172329,0.962583,-0.209129,0.441324,1.082724,0.27126500000000003,0.385388,-0.623548,0.088249
199,-0.5898770000000001,-1.2867520000000001,1.266456,-0.155883,0.95993,-0.23287800000000003,1.445764,1.634585,0.7198180000000001,0.288528,-0.324203,-0.067812
200,-0.44689300000000004,-1.2632510000000001,1.395227,-0.130823,0.9530799999999999,-0.272988,1.984505,0.43556999999999996,1.1962030000000001,0.22631300000000001,-0.113282,0.030098000000000003
201,-0.339,-1.249371,1.501523,-0.105056,0.948786,-0.29793600000000003,0.8496969999999999,0.800465,1.2380149999999999,0.21493400000000001,-0.065317,0.372795
202,-0.22878400000000002,-1.243902,1.582116,-0.072823,0.947044,-0.312732,0.48954899999999996,1.928368,1.073821,-0.48059799999999997,-0.175484,0.354373
203,-0.14213,-1.2428379999999999,1.6384310000000002,-0.045627,0.946702,-0.318858,0.134588,1.483307,0.7931060000000001,-0.525632,-0.12721300000000002,0.035838
204,-0.07660499999999999,-1.239407,1.6804869999999998,-0.024899,0.945591,-0.324398,0.33356399999999997,1.1373149999999999,0.565271,-0.535419,0.042414999999999994,0.219784
205,-0.038915,-1.235735,1.7042439999999999,-0.012793,0.94439,-0.328573,-0.03152,0.582539,0.291036,-0.531274,0.08211399999999999,0.404928
206,-0.027698,-1.242887,1.71469,-0.008919,0.9467180000000001,-0.321937,-0.276418,-0.454463,0.093033,-1.29441,-0.20552199999999998,-0.190148
207,-0.066429,-1.2343600000000001,1.693791,-0.021914,0.943937,-0.329393,0.628201,-1.068942,-0.736279,-1.388487,0.03348,-0.0016010000000000002
208,-0.14493699999999998,-1.248237,1.625238,-0.045783,0.948427,-0.313666,-1.7210020000000001,-0.57202,-1.222274,-1.073053,0.186476,0.49137
209,-0.30094899999999997,-1.2764209999999998,1.469092,-0.086004,0.9569840000000001,-0.277096,-2.043326,-0.055174,-2.586103,-0.604075,0.476656,0.487408
210,-0.5808270000000001,-1.297301,1.161018,-0.148203,0.9628329999999999,-0.22579899999999997,-3.031406,1.477851,-3.8821760000000003,-0.471181,0.75581,0.607773
211,-0.904065,-1.28409,0.808755,-0.222227,0.959181,-0.17488099999999998,-2.4234150000000003,-0.204248,-3.869365,-0.125246,1.580096,0.248612
212,-1.134106,-1.251737,0.5847859999999999,-0.284231,0.9495309999999999,-0.132663,-1.9498650000000002,-0.642389,-2.603929,0.438162,1.353753,-0.30906300000000003
213,-1.291234,-1.228794,0.41779700000000003,-0.322347,0.9420850000000001,-0.092539,-2.232634,0.322897,-1.863659,0.5220229999999999,1.0959860000000001,0.09186799999999999
214,-1.425059,-1.198161,0.269099,-0.360205,0.931371,-0.05287000000000001,-2.150738,0.20238399999999998,-2.1663069999999998,0.341559,1.038874,0.43214300000000005
215,-1.525396,-1.158464,0.15907000000000002,-0.400329,0.9161889999999999,-0.018187000000000002,-1.7573459999999999,-0.070749,-2.1354349999999998,0.208373,0.636943,0.40832399999999996
216,-1.605621,-1.11422,0.08894099999999999,-0.440604,0.897567,0.01535,-1.262737,-1.343495,-2.3621540000000003,0.152137,0.205445,-0.061645000000000005
217,-1.668514,-1.059179,0.05316900000000001,-0.48724700000000004,0.8719540000000001,0.047764999999999995,-0.796646,-1.6105969999999998,-2.836051,0.100879,-0.352743,-0.138493
218,-1.71082,-1.0027030000000001,0.051032999999999995,-0.532755,0.842928,0.07509,-0.27472399999999997,-2.457403,-2.777909,0.23790999999999998,-0.412142,-0.17666800000000002
219,-1.769216,-0.9500700000000001,0.055589,-0.570209,0.8134560000000001,0.114649,-0.331288,-3.2832,-2.410846,0.737888,-0.702998,-0.357935
220,-1.831964,-0.911486,0.060110000000000004,-0.5917939999999999,0.790415,0.15817,-0.26614099999999996,-3.3985809999999996,-1.586644,0.8190729999999999,-0.976267,-0.418317
221,-1.8962150000000002,-0.8873340000000001,0.06843400000000001,-0.598334,0.7753909999999999,0.20188599999999998,0.041007999999999996,-3.607379,-1.053325,0.8083560000000001,-0.90712,-0.424496
222,-1.9560080000000002,-0.875207,0.087132,-0.593871,0.767676,0.240796,0.5386920000000001,-3.750497,-0.593534,0.744872,-0.894019,-0.43681099999999995
223,-2.003045,-0.880401,0.115249,-0.578264,0.770994,0.266779,1.229487,-3.097686,0.18918800000000002,0.731279,-1.1063370000000001,-0.254832
224,-2.015352,-0.911767,0.163471,-0.552824,0.790587,0.263343,2.553285,-2.2101669999999998,1.135197,0.548262,-1.012389,-0.018805000000000002
225,-1.992789,-0.961616,0.23040700000000003,-0.521993,0.820117,0.234357,2.730827,-1.139106,1.398915,0.284261,-0.8313020000000001,0.210208
226,-1.985866,-0.993885,0.264569,-0.49911700000000003,0.838151,0.21994699999999998,0.829441,-1.3746909999999999,0.9565110000000001,-0.866667,0.835967,0.90371
227,-2.0291099999999997,-1.005379,0.2592,-0.48047,0.8443649999999999,0.23704,-0.260859,-2.0817229999999998,0.226615,-0.506621,2.657496,1.2898
228,-2.043509,-0.993675,0.280575,-0.485774,0.838037,0.248416,0.447063,-0.982376,-1.179902,-0.501317,2.663825,1.278424
229,-2.03189,-0.975828,0.31067100000000003,-0.501944,0.828166,0.249371,0.21900799999999998,-0.8285680000000001,-1.084484,0.456884,-0.681346,0.244525
230,-2.019104,-0.9598389999999999,0.318598,-0.5169590000000001,0.819099,0.24864099999999997,-0.012292,1.812393,-0.387662,0.63494,-0.6827310000000001,0.449647
231,-1.91925,-0.978193,0.33986500000000003,-0.52495,0.8294889999999999,0.190702,0.944844,5.356315,1.240316,0.134417,1.05903,-0.08770599999999999
232,-1.850343,-1.0111569999999999,0.33315300000000003,-0.510267,0.847447,0.146479,-0.309765,1.621473,1.524758,1.339551,1.159359,0.044164
233,-1.837158,-1.031588,0.310962,-0.49534399999999995,0.858115,0.135152,-0.007851,2.205539,0.923642,0.362242,0.20884,0.31598899999999996
234,-1.790185,-1.047201,0.30917100000000003,-0.48800699999999997,0.866027,0.10881400000000001,0.264642,2.424501,0.808828,0.411392,-0.31767199999999995,-0.499409
235,-1.724474,-1.07915,0.333524,-0.466508,0.8815569999999999,0.072261,1.332906,2.033502,2.022814,0.315614,-0.2308,-0.7539170000000001
236,-1.622317,-1.137382,0.406547,-0.419408,0.907537,0.021627,2.178227,1.72596,3.072765,0.23995,-0.005422,-0.655645
237,-1.485042,-1.199362,0.530216,-0.361612,0.931808,-0.031086000000000003,2.342141,0.70904,3.092305,0.113702,0.363816,-0.390499
238,-1.3387040000000001,-1.251637,0.69139,-0.305347,0.9495,-0.07216900000000001,2.397042,-0.7648550000000001,2.933275,-0.219875,0.31896399999999997,-0.16853800000000002
239,-1.110091,-1.279096,0.934926,-0.25759099999999996,0.9577559999999999,-0.127849,3.260798,0.531576,2.1877560000000003,-0.46563000000000004,0.125023,0.268154
240,-0.869014,-1.275794,1.145351,-0.222032,0.956801,-0.187693,1.78624,2.573363,1.156824,-0.123976,-0.54457,0.629999
241,-0.778925,-1.2765790000000001,1.205894,-0.203718,0.9570290000000001,-0.20637199999999997,0.32312399999999997,0.9487030000000001,0.324019,0.306532,-0.682631,0.365323
242,-0.728109,-1.2713510000000001,1.234053,-0.196299,0.9555,-0.220185,0.673929,1.6375819999999999,0.10873699999999999,0.458689,-0.570017,0.083589
243,-0.609036,-1.253258,1.320095,-0.178615,0.9500069999999999,-0.256085,2.019245,1.576977,0.777305,0.444301,-0.285105,-0.140308
244,-0.47593900000000006,-1.232523,1.454542,-0.15204700000000002,0.9433290000000001,-0.294973,1.641157,-0.107982,1.5598299999999998,0.41742799999999997,-0.03241,0.328847
245,-0.353446,-1.2289,1.5607719999999998,-0.116048,0.9421200000000001,-0.31454499999999996,0.601194,1.765534,1.472185,-0.404491,-0.092008,0.684449
246,-0.25208600000000003,-1.229042,1.628682,-0.083591,0.942168,-0.32454299999999997,0.18698900000000002,1.813105,0.8582069999999999,-0.575116,-0.154525,0.197987
247,-0.177155,-1.2275,1.6705470000000002,-0.059316999999999995,0.94165,-0.33132,0.289223,1.6862139999999999,0.534345,-0.662119,-0.038574000000000004,0.19991099999999998
248,-0.134496,-1.2238879999999999,1.690659,-0.045589,0.940428,-0.336916,0.173715,0.864302,0.248308,-0.6325109999999999,0.039811,0.29944
249,-0.11033599999999999,-1.224277,1.709759,-0.037396,0.9405610000000001,-0.33755599999999997,-0.043787,-0.185725,0.35281999999999997,-0.6770510000000001,0.069663,0.07594400000000001
250,-0.12204300000000001,-1.216001,1.7157639999999998,-0.042292,0.937718,-0.34480900000000003,0.741475,-1.014836,-0.245246,-1.2591459999999999,-0.011906,-0.052864999999999995
251,-0.17064300000000002,-1.21319,1.680006,-0.05944,0.936737,-0.34494400000000003,-0.667387,-0.46563999999999994,-0.766401,-0.872994,0.225845,0.783879
252,-0.266254,-1.228525,1.5946069999999999,-0.088309,0.941995,-0.32379600000000003,-1.0407790000000001,-0.890007,-1.676454,-0.6979609999999999,0.168647,0.061101
253,-0.449805,-1.239235,1.415392,-0.14153,0.945535,-0.293135,-1.9486290000000002,-0.419758,-3.134044,-0.664058,0.261862,0.19758499999999998
254,-0.696516,-1.240529,1.138917,-0.208048,0.9459559999999999,-0.248756,-2.7714529999999997,1.306866,-3.9709440000000003,-0.460913,1.218809,0.7669600000000001
255,-0.931005,-1.221025,0.874875,-0.274903,0.939451,-0.20458800000000002,-2.245213,0.26413200000000003,-3.4051150000000003,0.289581,1.457323,0.239912
256,-1.105787,-1.195573,0.690276,-0.327561,0.930426,-0.164339,-2.169076,-0.153168,-2.4789689999999998,0.669144,1.3122040000000001,-0.143736
257,-1.2469629999999998,-1.1727459999999998,0.525692,-0.36746799999999996,0.921818,-0.12334,-2.589713,1.0613920000000001,-2.151246,0.712865,1.37614,0.310566
258,-1.358262,-1.147775,0.379842,-0.401273,0.911853,-0.086592,-2.291197,0.8640979999999999,-1.8231,0.525647,0.95329,0.49514600000000003
259,-1.455239,-1.124076,0.270239,-0.429122,0.901869,-0.04981,-2.003543,-0.45851099999999995,-1.3899709999999998,0.19966,0.34131,0.274938
260,-1.5556379999999999,-1.090385,0.19589,-0.462084,0.886805,-0.007005,-1.338673,-2.016808,-2.281705,-0.083494,-0.019969,-0.253981
261,-1.6270149999999999,-1.030141,0.146842,-0.513878,0.8573719999999999,0.028919999999999998,-1.086984,-1.2100469999999999,-3.118466,-0.143714,-0.423091,-0.262868
262,-1.687344,-0.9702780000000001,0.12851600000000002,-0.561231,0.8250430000000001,0.065708,-0.7053010000000001,-3.107687,-2.818546,0.392652,-0.6167600000000001,-0.366336
263,-1.7712009999999998,-0.919414,0.11456500000000001,-0.594146,0.795247,0.12069,-0.868661,-3.739046,-2.232424,0.770889,-0.810765,-0.48008
264,-1.8576439999999999,-0.8793479999999999,0.101987,-0.611593,0.770324,0.18041,-0.792901,-3.870537,-1.650614,0.942541,-0.9192799999999999,-0.512258
265,-1.9346450000000002,-0.849972,0.101466,-0.616791,0.751262,0.23487600000000003,-0.248077,-3.78033,-1.2388629999999998,0.925796,-0.8077350000000001,-0.382306
266,-1.991699,-0.8357190000000001,0.11788900000000001,-0.612105,0.741779,0.274012,0.526379,-3.168792,-0.5965090000000001,0.8450770000000001,-0.967426,-0.339
267,-2.015413,-0.847087,0.15065,-0.597784,0.749355,0.284804,1.773141,-1.948157,0.494881,0.766119,-1.087841,-0.199141
268,-2.000657,-0.891368,0.20905700000000002,-0.571178,0.777932,0.261858,2.980731,-1.246789,1.473431,0.20695100000000002,-0.7801140000000001,0.232817
269,-1.9764509999999997,-0.9310309999999999,0.261477,-0.548551,0.802236,0.235589,1.4193799999999999,-0.699117,0.933053,-0.45353999999999994,-0.34660799999999997,0.563865
270,-1.992191,-0.9491700000000001,0.27010500000000004,-0.531406,0.812932,0.23820100000000002,0.256114,-1.377512,0.56367,-1.138287,0.922953,1.015217
271,-2.032654,-0.9527370000000001,0.273123,-0.518736,0.815004,0.258209,0.35573499999999997,-2.17962,-0.331913,-0.018159,1.943998,0.957749
272,-2.036098,-0.944794,0.30045,-0.523614,0.810376,0.26289,0.535825,-1.041682,-0.809608,0.488961,0.109912,0.300678
273,-2.036396,-0.931702,0.314836,-0.5329699999999999,0.802636,0.267787,0.054383,0.25256300000000004,-0.642646,0.9569049999999999,0.075522,0.6983689999999999
274,-1.9736939999999998,-0.9330139999999999,0.319847,-0.547733,0.8034180000000001,0.23345100000000002,0.066068,4.257518,0.531621,0.596241,2.125323,-0.554908
275,-1.931064,-0.9459770000000001,0.297297,-0.547392,0.8110689999999999,0.20620700000000003,-0.713472,1.4757639999999999,0.754067,1.1425610000000002,0.41030600000000006,-0.111206
276,-1.9120580000000003,-0.9616979999999999,0.275063,-0.539129,0.8201639999999999,0.191475,-0.143426,2.634488,1.132578,0.643606,-0.821736,-0.39702600000000005
277,-1.860629,-0.987857,0.254232,-0.527513,0.8348479999999999,0.15732100000000002,-0.04369,3.694326,1.606207,0.617052,-0.5919439999999999,-0.6410399999999999
278,-1.788234,-1.027089,0.26108899999999996,-0.505124,0.8557969999999999,0.111597,1.198992,2.923233,2.084825,0.429212,-0.519935,-1.01362
279,-1.6894220000000002,-1.087323,0.32208600000000004,-0.461582,0.885386,0.055014,2.371366,2.012753,3.115401,0.222462,0.582342,-0.6858270000000001
280,-1.546147,-1.160506,0.44592,-0.39874499999999996,0.917005,-0.009831,3.017418,1.209567,3.612325,0.00925,1.0038479999999999,-0.35546500000000003
281,-1.378874,-1.223871,0.618143,-0.333755,0.940422,-0.064853,2.7088330000000003,-0.036893,3.3692800000000003,-0.326309,0.398445,-0.079098
282,-1.158888,-1.26211,0.835034,-0.278386,0.952734,-0.121627,2.625754,1.367198,2.362772,-0.5361279999999999,-0.037008,0.536514
283,-0.991468,-1.269903,0.9745299999999999,-0.248006,0.9550719999999999,-0.162248,1.091632,1.734574,0.800527,-0.044536,-0.587854,0.33570900000000004
284,-0.9001129999999999,-1.267962,1.034365,-0.233623,0.9544950000000001,-0.185348,0.74605,1.7366970000000002,0.30352399999999996,0.303111,-0.671582,0.266311
285,-0.8121189999999999,-1.263901,1.090575,-0.21924200000000002,0.953276,-0.207827,0.7800050000000001,1.7025709999999998,0.549496,0.39882199999999995,-0.632307,0.12466700000000001
286,-0.689175,-1.2610780000000001,1.189274,-0.19381099999999998,0.952419,-0.235222,1.396876,1.307528,1.302066,0.34044800000000003,-0.400463,0.162773
287,-0.537664,-1.255809,1.337932,-0.158656,0.9508,-0.266086,1.48525,-0.034235,1.902607,0.281551,-0.130274,0.179874
288,-0.399831,-1.251676,1.484718,-0.12212100000000001,0.9495120000000001,-0.288979,1.029836,0.22094899999999998,1.8852119999999999,0.10259000000000001,0.020459,0.426903
289,-0.268787,-1.2462520000000001,1.5949659999999999,-0.08467999999999999,0.9477959999999999,-0.30741999999999997,0.729422,1.903102,1.326551,-0.6751010000000001,0.007297,0.526414
290,-0.174672,-1.241542,1.656375,-0.05619,0.946284,-0.31840999999999997,0.284183,1.440572,0.698056,-0.615517,-0.118372,0.159948
291,-0.11635799999999999,-1.239903,1.699961,-0.037717,0.945752,-0.322684,0.16936600000000002,0.611004,0.727159,-0.377917,-0.127912,0.255332
292,-0.071171,-1.237566,1.737426,-0.02326,0.944991,-0.326262,0.143986,0.40758099999999997,0.471937,-0.48530100000000004,-0.11495799999999999,0.333998
293,-0.054524,-1.234481,1.7524009999999999,-0.017984,0.9439770000000001,-0.329513,0.28442399999999995,-0.081318,0.068688,-0.7221890000000001,-0.153358,-0.114853
294,-0.07312300000000001,-1.2202870000000001,1.7405509999999997,-0.025086,0.939198,-0.342452,0.846073,-0.47542399999999996,-0.42894799999999994,-0.9586180000000001,-0.014698,-0.011491
295,-0.105525,-1.2193319999999999,1.708547,-0.036261,0.9388700000000001,-0.342351,-0.655521,0.216455,-0.587738,-0.744149,0.558369,0.909307
296,-0.155175,-1.241835,1.651288,-0.049929,0.9463790000000001,-0.319171,-1.515309,0.044377,-1.0314940000000001,-0.6565989999999999,0.384402,0.191928
297,-0.276835,-1.266002,1.518845,-0.082018,0.953909,-0.288663,-1.816298,0.462582,-2.2551099999999997,-0.650679,0.210337,0.638303
298,-0.502464,-1.2903209999999998,1.26645,-0.133304,0.960924,-0.242589,-2.710968,1.2907879999999998,-3.198183,-0.457379,0.245802,0.394673
299,-0.779004,-1.291324,0.9561709999999999,-0.193796,0.961201,-0.19629000000000002,-2.346003,0.359428,-3.436927,0.11972999999999999,1.23051,-0.064223
300,-1.028282,-1.263241,0.709655,-0.259254,0.9530770000000001,-0.15629200000000001,-1.805668,-0.869891,-3.1089740000000003,0.332542,1.339236,-0.170399
301,-1.203654,-1.2349290000000002,0.527142,-0.307615,0.944125,-0.118302,-2.0961369999999997,0.41340600000000005,-2.235637,0.379575,1.223722,0.24958899999999998
302,-1.338515,-1.2057129999999998,0.367386,-0.34743,0.9340940000000001,-0.08218500000000001,-2.218153,0.790981,-2.246587,0.401752,1.019947,0.488054
303,-1.451058,-1.169529,0.23751,-0.38778,0.920567,-0.046655,-1.909976,0.14395,-2.1453290000000003,0.385339,0.672725,0.48052399999999995
304,-1.529204,-1.1311950000000002,0.15518099999999999,-0.425202,0.9049219999999999,-0.017695,-1.2230379999999998,-0.47361499999999995,-2.0158259999999997,0.311783,0.18898099999999998,0.129435
305,-1.579954,-1.086914,0.11677799999999999,-0.465193,0.8851950000000001,0.00426,-0.637736,-0.777456,-2.463206,0.11016600000000001,-0.160052,-0.103931
306,-1.611529,-1.031519,0.10338,-0.513084,0.85808,0.020911000000000003,-0.269737,-1.423785,-2.855049,0.140998,-0.5150319999999999,-0.216635
307,-1.6550060000000002,-0.9767530000000001,0.107511,-0.5577270000000001,0.828684,0.047077,-0.004099,-2.797959,-2.560876,0.33484200000000003,-0.498087,-0.19905499999999998
308,-1.7113639999999999,-0.9335559999999999,0.112323,-0.589105,0.803741,0.083359,-0.17366199999999998,-3.0971330000000004,-1.9239490000000001,0.472635,-0.665343,-0.2762
309,-1.775784,-0.902121,0.11603599999999999,-0.606962,0.784643,0.126192,-0.08331799999999999,-3.573707,-1.371505,0.690183,-0.8800110000000001,-0.362993
310,-1.8438720000000002,-0.882692,0.129116,-0.611536,0.772451,0.171274,0.363215,-4.094093,-0.827199,0.7552439999999999,-0.832724,-0.468912
311,-1.9009080000000003,-0.8806780000000001,0.15776700000000002,-0.602248,0.771171,0.20636,1.197765,-3.7389980000000005,-0.043091000000000004,0.819839,-0.9303959999999999,-0.484955
312,-1.925764,-0.9067799999999999,0.20902800000000002,-0.577858,0.787523,0.214194,2.4188509999999996,-2.9308490000000003,1.126629,0.786872,-0.9836450000000001,-0.1724
313,-1.915978,-0.959824,0.280464,-0.5398189999999999,0.819091,0.194107,3.000788,-1.949947,2.007514,0.287744,-0.605193,0.384247
314,-1.909568,-1.003357,0.319913,-0.506919,0.8432799999999999,0.178615,0.578971,-1.175067,1.3379889999999999,-0.205896,-0.09592,0.7530560000000001
315,-1.961108,-1.013707,0.309073,-0.48894499999999996,0.8487979999999999,0.20116099999999998,-0.403343,-2.722475,-0.049169,-0.772453,2.734027,1.055553
316,-1.995391,-0.992384,0.329939,-0.498144,0.837332,0.225208,0.34577600000000003,-1.686346,-1.6657560000000002,-0.13061,1.3110600000000001,0.978283
317,-1.979126,-0.960944,0.35473899999999997,-0.52565,0.819733,0.227421,-0.271189,0.269023,-1.5443850000000001,0.543579,-0.594406,0.32706799999999997
318,-1.966673,-0.939053,0.346015,-0.544871,0.806999,0.22772399999999998,-0.627958,1.7359689999999999,-0.45276099999999997,1.447199,-0.392189,0.495253
319,-1.9073950000000002,-0.9522719999999999,0.35013,-0.547287,0.814735,0.191503,0.26054,3.7293849999999997,1.366868,0.765289,1.3656540000000001,-0.268865
320,-1.879478,-0.989966,0.304496,-0.522774,0.836007,0.166699,-1.2943719999999999,1.9668849999999998,2.314324,1.047906,1.7213200000000002,-0.6396149999999999
321,-1.8888029999999998,-1.012052,0.25105,-0.503533,0.8479209999999999,0.165752,-0.545091,2.2556950000000002,1.103551,-0.337302,0.21151199999999998,-0.796734
322,-1.8381990000000001,-1.026297,0.252171,-0.499572,0.8553870000000001,0.13686500000000001,0.687625,2.598446,0.6352949999999999,0.306136,-0.20650700000000002,-0.6480640000000001
323,-1.742751,-1.051979,0.29689,-0.48853100000000005,0.8684059999999999,0.084843,1.6906299999999999,2.840388,1.332063,0.297827,-0.183989,-0.731221
324,-1.6419970000000002,-1.100559,0.367589,-0.45193999999999995,0.8914610000000001,0.032233,2.1065650000000002,1.346223,2.729844,0.225744,-0.10809,-0.610282
325,-1.522161,-1.165281,0.47969300000000004,-0.394015,0.918899,-0.019178,2.566123,0.7359140000000001,3.372633,0.093203,0.149231,-0.202166
326,-1.374168,-1.226193,0.6371600000000001,-0.331302,0.94121,-0.065996,2.425541,-0.49465699999999996,3.272815,-0.234219,0.5096569999999999,-0.283964
327,-1.168453,-1.259734,0.8649700000000001,-0.281619,0.952009,-0.11984500000000001,3.3843199999999998,-0.0035770000000000003,2.179682,-0.545362,0.627825,0.302508
328,-0.946608,-1.253702,1.06596,-0.253004,0.950145,-0.182226,2.18873,2.233764,0.755207,-0.023775,-0.436382,0.525854
329,-0.8454450000000001,-1.2444,1.130033,-0.239911,0.947204,-0.2127,0.641154,1.6676849999999999,0.071074,0.522778,-0.646407,0.47980500000000004
330,-0.78945,-1.238616,1.154417,-0.231517,0.945333,-0.229649,0.549046,1.875536,0.120371,0.676967,-0.575171,0.220951
331,-0.684729,-1.229801,1.222626,-0.211506,0.942422,-0.259035,1.3806889999999998,1.8141459999999998,0.897515,0.652729,-0.351617,0.10547100000000001
332,-0.558027,-1.222792,1.341077,-0.180571,0.940055,-0.28928200000000004,1.423989,0.322811,1.6453470000000001,0.08955199999999999,-0.189323,0.267477
333,-0.437004,-1.216694,1.458596,-0.14675,0.937958,-0.314155,1.0736620000000001,0.834759,1.529013,-0.20688800000000002,-0.146027,0.47414300000000004
334,-0.326932,-1.213276,1.545798,-0.112381,0.936767,-0.331408,0.46425500000000003,1.7114669999999998,1.261918,-0.42750600000000005,-0.013016,0.51343
335,-0.230477,-1.220077,1.608391,-0.078485,0.939126,-0.334481,-0.271082,1.93639,1.063145,-0.294028,-0.022835,0.393044
336,-0.144223,-1.2305110000000001,1.6577389999999999,-0.047967,0.942659,-0.330282,-0.294091,2.0068,0.791566,-0.495978,-0.043245,0.21510900000000002
337,-0.079889,-1.231367,1.690388,-0.02657,0.942945,-0.331878,0.217344,1.269258,0.441434,-0.785365,0.11198699999999999,-0.150605
338,-0.058289999999999995,-1.218409,1.7122509999999997,-0.020106,0.938551,-0.344544,0.919998,-0.702021,0.228814,-1.280278,0.06566,-0.271133
339,-0.066762,-1.2186059999999999,1.714215,-0.023012,0.9386190000000001,-0.344177,-0.7976270000000001,-0.011026000000000001,-0.054328999999999995,-0.868711,0.24502,1.180175
340,-0.114166,-1.234553,1.676379,-0.037585,0.944001,-0.327786,-0.6357109999999999,-0.797063,-1.026409,-0.8508120000000001,0.412704,-0.189808
341,-0.253389,-1.242825,1.551116,-0.080749,0.9466979999999999,-0.311828,-0.9820469999999999,-0.974295,-2.489929,-0.618286,0.38956,-0.00232
342,-0.465027,-1.2519040000000001,1.329253,-0.14059000000000002,0.949583,-0.28021399999999996,-2.007027,0.5700810000000001,-3.396374,-0.393849,0.6788649999999999,0.523942
343,-0.695499,-1.251002,1.063994,-0.201433,0.9493,-0.241346,-2.349689,1.191461,-3.446565,-0.068465,0.75645,0.726072
344,-0.904423,-1.239883,0.823477,-0.255391,0.9457459999999999,-0.20083099999999998,-2.333965,0.5826859999999999,-2.802606,0.378301,0.861276,0.22042399999999998
345,-1.088971,-1.222877,0.629885,-0.302117,0.940084,-0.157987,-2.155376,-0.27313699999999996,-2.323835,0.569863,1.0247600000000001,-0.063052
346,-1.2340959999999999,-1.202437,0.46958999999999995,-0.339857,0.932919,-0.11896,-2.303915,0.633043,-1.836788,0.567793,1.066974,0.269259
347,-1.360366,-1.184361,0.32092600000000004,-0.36856500000000003,0.926259,-0.078723,-2.284854,0.393279,-1.568224,0.353688,0.653606,0.42685200000000006
348,-1.467914,-1.1600840000000001,0.20646399999999998,-0.39714099999999997,0.9168370000000001,-0.041004,-1.845162,-0.443763,-1.482895,0.241486,0.26106599999999996,0.251788
349,-1.546468,-1.127167,0.14110799999999998,-0.429083,0.9032,-0.010440999999999999,-0.892584,-1.043491,-2.0469720000000002,0.11489,0.002211,-0.08822200000000001
350,-1.583556,-1.076495,0.115928,-0.474369,0.8803,0.006053,-0.430612,-0.519375,-2.713123,-0.045315,-0.308584,-0.091212
351,-1.61877,-1.022389,0.102202,-0.52072,0.853356,0.025,-0.343945,-1.8408099999999998,-2.664891,0.25923,-0.678841,-0.253653
352,-1.674364,-0.9740629999999999,0.097803,-0.558924,0.827175,0.05809400000000001,-0.288812,-2.850731,-2.170761,0.333201,-0.660824,-0.184864
353,-1.736761,-0.9373870000000001,0.096979,-0.583755,0.806014,0.09778200000000001,-0.22471799999999997,-3.228163,-1.613286,0.596054,-0.8957510000000001,-0.295231
354,-1.8014439999999998,-0.9108850000000001,0.103519,-0.596804,0.790047,0.140145,0.067256,-3.592029,-1.182424,0.674655,-0.8623430000000001,-0.3294
355,-1.8591650000000002,-0.895697,0.12163399999999999,-0.5991609999999999,0.780645,0.177733,0.5176689999999999,-3.503024,-0.654895,0.745554,-0.809362,-0.33053499999999997
356,-1.898983,-0.898724,0.147644,-0.589371,0.782533,0.200681,1.053181,-2.612638,0.25783,0.714905,-0.802369,-0.197461
357,-1.904163,-0.926132,0.188519,-0.5678380000000001,0.799301,0.19663699999999998,2.0365189999999997,-1.461027,1.256669,0.650098,-0.803879,-0.073896
358,-1.866277,-0.975281,0.252919,-0.536617,0.827859,0.16334200000000001,2.662361,-0.20131,1.9046330000000002,0.133037,-0.59028,0.557163
359,-1.8199459999999998,-1.0160280000000002,0.300824,-0.510473,0.8500219999999999,0.129883,0.976775,0.330453,1.4542059999999999,-0.703044,0.49169799999999997,0.9393459999999999
360,-1.8527490000000002,-1.037092,0.28939899999999996,-0.488629,0.860928,0.141541,-0.539733,-2.1308689999999997,0.506732,-0.85303,2.309848,1.041015
361,-1.8905349999999999,-1.0236239999999999,0.298734,-0.493896,0.853999,0.163529,0.335475,-1.838439,-1.184934,-0.309128,1.613546,1.057754
362,-1.890247,-0.996381,0.321383,-0.515846,0.8395100000000001,0.170631,0.040796,-0.550315,-1.513382,0.134483,-0.20857399999999998,0.556725
363,-1.872797,-0.973299,0.330351,-0.5371060000000001,0.8267459999999999,0.167325,-0.173697,1.561129,-0.8125600000000001,0.699368,-0.45357700000000006,0.5430020000000001
364,-1.795902,-0.9800180000000001,0.349892,-0.542946,0.830507,0.124327,0.9190860000000001,3.9668089999999996,0.830641,0.48497799999999996,1.203703,-0.34866199999999997
365,-1.715414,-1.0109299999999999,0.35533000000000003,-0.52552,0.847326,0.076534,0.10643699999999999,2.464381,1.631261,1.111122,1.6489349999999998,-0.740841
366,-1.713625,-1.040774,0.335947,-0.500396,0.8627959999999999,0.071961,-0.190744,1.275942,1.520681,0.477584,-0.2056,-0.007462000000000001
367,-1.677375,-1.064359,0.333484,-0.482303,0.8744780000000001,0.051599,0.26931900000000003,2.0358080000000003,1.041153,0.24054299999999998,-0.289761,-0.40631999999999996
368,-1.619928,-1.090866,0.357051,-0.46115,0.887027,0.022675999999999998,0.9158959999999999,1.639344,1.590971,0.23065100000000002,-0.073749,-0.714738
369,-1.542227,-1.135805,0.41283000000000003,-0.42122,0.906874,-0.012037,1.376061,1.3129709999999999,2.622232,0.196656,0.199495,-0.541262
370,-1.434664,-1.19452,0.504969,-0.364048,0.930039,-0.049867,1.668349,0.98875,3.26135,0.13895,0.36540100000000003,-0.296721
371,-1.296096,-1.252033,0.650263,-0.301629,0.949624,-0.085006,1.965545,-0.5345840000000001,3.267514,-0.203514,0.324989,-0.0784
372,-1.0865479999999998,-1.285036,0.8832610000000001,-0.249464,0.959448,-0.131224,3.048998,-0.28470100000000004,2.443685,-0.34524699999999997,0.117487,0.169264
373,-0.8162560000000001,-1.27642,1.138772,-0.21138400000000002,0.956983,-0.198725,3.090609,2.160196,1.3213469999999998,0.07202599999999999,-0.765898,0.357661
374,-0.645605,-1.2569270000000001,1.263036,-0.185757,0.9511459999999999,-0.24659299999999998,1.018651,2.295283,0.505534,0.48969700000000005,-0.666646,0.494381
375,-0.587799,-1.255566,1.296168,-0.17191800000000002,0.950725,-0.25799,0.322919,1.1818520000000001,0.36430100000000004,0.395993,-0.5261640000000001,0.31696599999999997
376,-0.494122,-1.246588,1.360125,-0.151074,0.947903,-0.280445,1.304171,1.838024,0.8542190000000001,0.09275499999999999,-0.041089,-0.008572
377,-0.37437,-1.228245,1.4580799999999998,-0.12282699999999999,0.941901,-0.312618,1.302348,0.947609,1.082878,-0.10913699999999998,-0.117209,0.501735
378,-0.293744,-1.222407,1.517226,-0.098841,0.939924,-0.326754,0.362877,1.661718,0.738911,-0.474142,-0.245221,0.35720999999999997
379,-0.214391,-1.218153,1.560552,-0.073479,0.9384629999999999,-0.337465,0.39103499999999997,1.8730240000000002,0.619196,-0.537361,0.016875,0.099351
380,-0.156156,-1.215049,1.594576,-0.054166,0.9373870000000001,-0.344044,0.208096,0.9483450000000001,0.516554,-0.570666,0.073127,0.277958
381,-0.11897,-1.211705,1.620519,-0.041708999999999996,0.9362159999999999,-0.348931,0.22096799999999997,0.5665100000000001,0.355831,-0.580758,0.011965,0.43033699999999997
382,-0.09401699999999999,-1.211488,1.637313,-0.033009,0.93614,-0.350065,-0.127802,0.32495100000000005,0.326999,-0.630778,0.012346,0.145887
383,-0.083402,-1.213051,1.658266,-0.029169999999999998,0.936689,-0.348938,0.240723,-1.003651,0.324867,-1.260305,0.004992,-0.211029
384,-0.115479,-1.198857,1.6543279999999998,-0.041873,0.931624,-0.360994,0.541623,-1.58514,-0.5055,-1.060681,0.11473199999999999,0.453981
385,-0.201848,-1.2082600000000001,1.599955,-0.07109800000000001,0.935,-0.347438,-0.9943139999999999,-1.7770299999999999,-1.269079,-0.962304,0.491605,-0.013752
386,-0.36895300000000003,-1.212683,1.4550239999999999,-0.126403,0.9365600000000001,-0.326911,-0.885444,-1.1705,-3.056231,-0.293137,0.947839,0.32042600000000004
387,-0.58597,-1.210288,1.224367,-0.19506800000000002,0.935718,-0.293894,-2.42287,0.688239,-3.8117660000000004,-0.049851,1.4307370000000001,0.9594219999999999
388,-0.80035,-1.206257,0.973196,-0.25583,0.9342879999999999,-0.248292,-2.629325,0.6547350000000001,-3.247008,0.388963,1.189674,0.11526600000000001
389,-0.98977,-1.1962959999999998,0.781277,-0.305769,0.9306909999999999,-0.20077899999999999,-2.3191889999999997,-0.9454290000000001,-2.155341,0.618757,0.941609,-0.20926999999999998
390,-1.1448770000000001,-1.1892129999999999,0.6225109999999999,-0.33910999999999997,0.928076,-0.153851,-2.362935,0.171737,-1.508667,0.7257680000000001,0.744821,0.200772
391,-1.257511,-1.18014,0.488548,-0.362248,0.924659,-0.117352,-2.149433,0.43635799999999997,-1.269301,0.40775,0.522606,0.43291899999999994
392,-1.380118,-1.166123,0.36196500000000004,-0.38656999999999997,0.9192309999999999,-0.074617,-2.20225,-0.6796800000000001,-1.31631,-0.004909,0.213154,0.29504600000000003
393,-1.5039870000000002,-1.143446,0.25695999999999997,-0.413524,0.910067,-0.027668,-1.656105,-1.70733,-1.608144,-0.08553,0.009701999999999999,-0.07661
394,-1.585753,-1.099328,0.19659200000000002,-0.454132,0.8909020000000001,0.006793,-1.115948,-1.097383,-2.4939139999999997,-0.0307,-0.266253,-0.18226900000000001
395,-1.640453,-1.0489540000000002,0.16370099999999999,-0.497258,0.8669020000000001,0.034694,-0.747134,-1.567704,-2.413823,0.358174,-0.569234,-0.293941
396,-1.7025150000000002,-1.0018799999999999,0.145824,-0.534042,0.842485,0.070753,-0.687388,-2.763009,-2.1832740000000004,0.503112,-0.674654,-0.264829
397,-1.7692729999999999,-0.9631149999999999,0.136147,-0.559746,0.820974,0.112578,-0.5103479999999999,-2.990408,-1.68075,0.7246630000000001,-0.854376,-0.34069699999999997
398,-1.8300880000000002,-0.9354049999999999,0.135957,-0.573643,0.80484,0.152166,-0.165193,-3.04596,-1.14202,0.8074680000000001,-0.9275200000000001,-0.357443
399,-1.8830669999999998,-0.921942,0.147392,-0.57504,0.7967770000000001,0.185642,0.331887,-3.127016,-0.48469300000000004,0.7712829999999999,-0.9460379999999999,-0.31934
400,-1.925731,-0.9261219999999999,0.167381,-0.563471,0.799295,0.20884,0.845561,-2.717527,0.294968,0.685526,-0.9317110000000001,-0.21233400000000002
401,-1.941354,-0.951048,0.20136199999999999,-0.541396,0.814025,0.210335,1.752835,-1.8110240000000002,1.117334,0.580901,-0.86325,0.023079
402,-1.92135,-0.994323,0.252643,-0.5119100000000001,0.83839,0.187183,2.127334,-0.637041,1.578849,0.102379,-0.5636399999999999,0.545117
403,-1.8938259999999998,-1.026109,0.283713,-0.491339,0.855289,0.16447799999999999,0.677539,0.301118,1.059046,-0.643701,0.44976400000000005,1.0164600000000001
404,-1.924625,-1.039441,0.27005500000000005,-0.47530100000000003,0.8621209999999999,0.175564,-0.666112,-1.841532,0.18928299999999998,-0.644694,1.198014,0.492588
405,-1.964541,-1.022305,0.2758,-0.48149,0.8533120000000001,0.20002999999999999,0.16331099999999998,-1.9750590000000001,-1.2351020000000001,-0.22007800000000002,1.5815780000000002,0.974058
406,-1.9684669999999997,-0.9978239999999999,0.298644,-0.49981499999999995,0.8402930000000001,0.20994699999999997,-0.001018,-0.8440290000000001,-1.2857690000000002,0.252394,-0.282112,0.417662
407,-1.968272,-0.978924,0.309517,-0.51441,0.8298969999999999,0.21595999999999999,-0.21395999999999998,0.258203,-0.7534890000000001,0.7215020000000001,-0.060809,0.716398
408,-1.919283,-0.977643,0.311824,-0.525367,0.829182,0.19087300000000001,0.197899,3.6954919999999998,0.30893200000000004,0.140251,1.8424029999999998,-0.07126
409,-1.8431950000000001,-0.993484,0.306626,-0.5256390000000001,0.837932,0.146833,-0.288315,2.96812,0.9431280000000001,1.166951,0.108998,0.213808
410,-1.836775,-1.0073219999999998,0.280478,-0.515333,0.845404,0.14039400000000002,-0.06627000000000001,1.8412259999999998,0.974965,0.7051069999999999,-0.7181,0.124178
411,-1.7866389999999999,-1.030341,0.269906,-0.502576,0.857474,0.110194,-0.036574,3.3205199999999997,1.308698,0.7247439999999999,-0.625739,-0.24039699999999997
412,-1.723803,-1.0646719999999998,0.26369499999999996,-0.47911499999999996,0.8746299999999999,0.073885,0.43339300000000003,3.2105189999999997,2.035308,0.436909,-0.032116000000000006,-1.0257889999999998
413,-1.655636,-1.120727,0.29059,-0.43345,0.900417,0.036862,1.159931,1.582665,3.030574,0.279794,0.344975,-0.8879670000000001
414,-1.593105,-1.191608,0.344771,-0.370058,0.9289649999999999,0.008256999999999999,1.4189200000000002,0.016468,3.6646410000000005,0.03612,0.687551,-0.49084700000000003
415,-1.494145,-1.264867,0.46278100000000005,-0.30027600000000004,0.9535680000000001,-0.023062,2.133054,-0.8255440000000001,3.689936,-0.460847,0.27825900000000003,-0.005945000000000001
416,-1.286297,-1.321724,0.69034,-0.236575,0.969141,-0.06918200000000001,2.8511040000000003,-0.093387,2.990055,-0.681775,-0.124171,0.329863
417,-0.957583,-1.3338430000000001,0.999584,-0.191955,0.972058,-0.13508199999999998,3.066711,2.319051,1.57628,-0.633286,-0.446957,0.41128100000000006
418,-0.733271,-1.3144200000000001,1.180748,-0.169708,0.9673149999999999,-0.188391,1.683548,1.914508,0.31411300000000003,0.189804,-0.752029,0.31095
419,-0.681249,-1.302253,1.218109,-0.16708199999999998,0.964158,-0.206089,0.386832,0.41348500000000005,-0.147016,0.364607,-0.559663,0.157551
420,-0.637736,-1.29043,1.250848,-0.164735,0.9609540000000001,-0.222306,1.276902,0.838232,0.220784,0.41255299999999995,-0.387941,0.077179
421,-0.49344899999999997,-1.263067,1.389426,-0.143465,0.953024,-0.26674899999999996,2.357228,-0.018080000000000002,1.371357,0.480745,0.170405,0.5646770000000001
422,-0.39211999999999997,-1.255152,1.506133,-0.118625,0.9505969999999999,-0.286855,0.44004799999999994,-0.059151,1.316357,-0.375348,0.075008,0.774755
423,-0.295627,-1.255456,1.578854,-0.090352,0.950691,-0.296673,0.5026520000000001,2.113124,0.9518840000000001,-0.681697,-0.050011,0.474621
424,-0.204619,-1.247962,1.6356870000000001,-0.064462,0.94834,-0.310625,0.537197,1.206534,0.665935,-0.47589799999999993,-0.183386,-0.006148
425,-0.15292999999999998,-1.241873,1.6829450000000001,-0.049206,0.946391,-0.319242,0.441246,0.129494,0.760649,-0.355427,-0.104762,0.36225599999999997
426,-0.10605,-1.23591,1.733456,-0.034788,0.944448,-0.326804,0.29115,-0.28007600000000005,0.7505109999999999,-0.30938899999999997,0.049144,0.317008
427,-0.07606399999999999,-1.232586,1.773266,-0.025213,0.94335,-0.330829,0.252601,-0.30988499999999997,0.513135,-0.715601,0.157373,-0.149503
428,-0.077052,-1.222388,1.782491,-0.026279000000000004,0.939917,-0.340377,0.7087,-0.599691,-0.134924,-1.017651,0.256967,0.19725
429,-0.10285699999999999,-1.2179309999999999,1.760357,-0.035482,0.938386,-0.34375,-0.391399,-0.009694,-0.471308,-0.74093,0.419875,0.681671
430,-0.148546,-1.2333049999999999,1.715171,-0.049004,0.9435879999999999,-0.327463,-1.041411,-0.44693900000000003,-0.8523700000000001,-0.60073,0.026062000000000002,-0.06299400000000001
431,-0.25816,-1.247386,1.611696,-0.08113200000000001,0.9481569999999999,-0.307258,-1.165434,-0.456838,-1.9972900000000002,-0.579833,0.136712,0.301597
432,-0.46259700000000004,-1.262642,1.397016,-0.135349,0.952895,-0.27141,-2.285683,0.41502,-3.271007,-0.495953,0.5235,0.509325
433,-0.7231479999999999,-1.2650430000000001,1.100069,-0.199184,0.95362,-0.225665,-2.652975,1.0775649999999999,-3.736961,-0.10647999999999999,1.117531,0.322925
434,-0.971092,-1.247307,0.8433440000000001,-0.262396,0.948132,-0.179401,-2.210505,-0.805251,-2.937769,0.530874,1.2765229999999999,-0.163556
435,-1.16588,-1.225977,0.6562060000000001,-0.310679,0.9411360000000001,-0.133157,-2.181418,-0.631831,-2.109916,0.718683,1.1502940000000001,0.147378
436,-1.3131389999999998,-1.2056360000000002,0.495641,-0.345296,0.934067,-0.09099,-2.389812,0.554346,-1.794562,0.593266,0.840759,0.404787
437,-1.425408,-1.178654,0.360255,-0.37812199999999996,0.924093,-0.055365,-1.983657,0.654389,-1.857014,0.380777,0.388407,0.397971
438,-1.503155,-1.146008,0.268544,-0.411171,0.911126,-0.027855,-1.429125,-0.01056,-1.7508080000000001,0.223976,-0.0014880000000000002,0.066444
439,-1.561084,-1.11029,0.22130500000000003,-0.444367,0.8958280000000001,-0.0043159999999999995,-0.685768,-1.019943,-1.9868080000000001,-0.034317,-0.271911,-0.031359
440,-1.5950959999999998,-1.0610110000000001,0.202539,-0.487834,0.872849,0.011856,-0.36486799999999997,-0.8423930000000001,-2.7090490000000003,-0.079412,-0.505387,-0.094864
441,-1.625329,-1.0071370000000002,0.199863,-0.5334770000000001,0.845306,0.029120999999999998,-0.07016599999999999,-1.815596,-2.546578,0.18098399999999998,-0.529357,-0.145851
442,-1.6674369999999998,-0.964046,0.202808,-0.56753,0.8215049999999999,0.055018,-0.093499,-2.3464099999999997,-1.917946,0.458643,-0.699298,-0.157496
443,-1.714705,-0.933126,0.204253,-0.5891609999999999,0.803485,0.085376,-0.1405,-2.484963,-1.328439,0.676288,-0.8624299999999999,-0.226291
444,-1.7657029999999998,-0.912351,0.211444,-0.600292,0.790944,0.118506,0.182597,-3.060864,-0.9131100000000001,0.74635,-0.810186,-0.313406
445,-1.8176860000000001,-0.902134,0.230238,-0.601128,0.784652,0.151503,0.6183569999999999,-3.424386,-0.42676400000000003,0.778283,-0.8676290000000001,-0.401671
446,-1.855518,-0.909492,0.26216,-0.58941,0.789192,0.172505,1.3882370000000002,-2.874537,0.46132799999999996,0.715845,-1.062416,-0.235661
447,-1.8558599999999998,-0.943781,0.318631,-0.563041,0.809782,0.164996,2.525783,-1.960394,1.570508,0.626579,-0.963759,0.043347000000000004
448,-1.824859,-0.993635,0.387164,-0.52812,0.838015,0.137139,2.1956279999999997,-0.815295,1.874382,-0.16104300000000002,-0.31540100000000004,0.553474
449,-1.8346919999999998,-1.023987,0.39919899999999997,-0.501951,0.854188,0.135626,-0.09800199999999999,-1.603982,1.029363,-0.9085559999999999,1.456176,1.0009860000000002
450,-1.904161,-1.019541,0.390426,-0.49491,0.8518680000000001,0.171382,0.092096,-3.3689190000000004,-0.787297,-0.9124389999999999,2.63147,1.2831780000000002
451,-1.919212,-1.002162,0.42292799999999997,-0.506115,0.8426370000000001,0.183838,0.577737,-1.3927399999999999,-1.230818,-0.07078999999999999,0.081298,0.632263
452,-1.907384,-0.9835870000000001,0.45319499999999996,-0.522939,0.83249,0.182977,0.331228,-0.224206,-0.999028,0.27934699999999996,-0.74434,0.352087
453,-1.878655,-0.9726940000000001,0.459664,-0.53659,0.826406,0.17061800000000002,0.21244699999999997,2.09554,-0.25828,1.091995,0.702205,0.37145
454,-1.7844470000000001,-0.990223,0.485491,-0.536021,0.836148,0.11629600000000001,0.760145,4.140439,1.237368,1.7827400000000002,2.612079,-0.763467
455,-1.793981,-1.0180770000000001,0.44550200000000006,-0.51197,0.8511,0.1162,-1.607423,-0.38826,1.477666,0.207054,-0.295482,-0.11720699999999999
456,-1.806041,-1.0367899999999999,0.411943,-0.49495500000000003,0.860775,0.11863199999999999,-0.003211,1.730766,0.8388129999999999,0.050283,-0.740535,-0.713023
457,-1.7458200000000001,-1.051947,0.42301400000000006,-0.488292,0.868391,0.086346,0.729356,2.713005,0.7230310000000001,0.43450500000000003,-0.48910299999999995,-0.937573
458,-1.645835,-1.080532,0.481525,-0.46952200000000005,0.882208,0.035298,1.9810459999999999,2.156734,1.550745,0.44590100000000005,0.139123,-0.859197
459,-1.529353,-1.1290040000000001,0.5700609999999999,-0.42718,0.9039870000000001,-0.017713999999999997,2.047687,1.77161,2.962825,0.354594,0.368703,-0.5175489999999999
460,-1.38739,-1.191789,0.6986359999999999,-0.363779,0.929032,-0.067478,2.157305,0.533558,3.45015,-0.020956,0.580001,-0.373257
461,-1.244457,-1.241992,0.8676940000000001,-0.305854,0.9464290000000001,-0.10351300000000001,2.4701049999999998,-1.140005,2.917164,-0.277017,0.43252299999999994,-0.057741999999999995
462,-0.9843200000000001,-1.256629,1.124655,-0.257373,0.9510540000000001,-0.171015,3.4567900000000003,2.208272,2.034209,-0.539624,-0.10254300000000001,0.5496770000000001
463,-0.786272,-1.2539420000000001,1.266325,-0.220502,0.9502200000000001,-0.220117,0.68116,2.792581,0.8443700000000001,0.20611300000000002,-0.7309060000000001,0.32055
464,-0.736612,-1.253126,1.287982,-0.20982399999999998,0.949966,-0.23136500000000002,0.288119,1.282915,-0.10288599999999999,0.264741,-0.674895,0.260708
465,-0.667766,-1.240219,1.315949,-0.200987,0.9458549999999999,-0.254858,1.250035,2.3716,0.13530999999999999,0.439833,-0.25911799999999996,-0.119272
466,-0.539095,-1.216329,1.419309,-0.178176,0.937831,-0.297854,2.1465970000000003,0.842175,1.1433879999999998,0.25804099999999996,-0.023311000000000002,0.32178
467,-0.428541,-1.204713,1.5290139999999999,-0.14874400000000002,0.933737,-0.325581,0.8564809999999999,0.656741,1.48285,-0.285002,0.003199,0.781697
468,-0.32143,-1.206536,1.609626,-0.11254700000000001,0.9343870000000001,-0.338002,0.32359899999999997,1.960291,1.2328350000000001,-0.563875,-0.10682699999999999,0.242146
469,-0.231012,-1.208226,1.6643459999999999,-0.081205,0.9349879999999999,-0.34524499999999997,0.10716300000000001,1.8326790000000002,0.83304,-0.535723,-0.069464,0.12648
470,-0.164598,-1.209293,1.7034740000000002,-0.057951,0.935366,-0.348889,0.123924,1.2828540000000002,0.588171,-0.592104,-0.006640000000000001,0.390317
471,-0.127039,-1.208058,1.723152,-0.044955,0.9349290000000001,-0.351966,0.044353,0.759501,0.200521,-0.574658,0.032326,0.433676
472,-0.110779,-1.211335,1.733672,-0.038888,0.9360860000000001,-0.349603,-0.20364000000000002,-0.040792,0.216906,-0.9286260000000001,-0.117086,-0.16933399999999998
473,-0.124386,-1.204874,1.7360080000000002,-0.04439,0.933794,-0.355035,0.723205,-1.030777,-0.233619,-1.160474,0.052502999999999994,0.132486
474,-0.163821,-1.2013129999999999,1.7086919999999999,-0.058895,0.932514,-0.356288,-0.684782,-0.338519,-0.568012,-0.740284,0.266552,0.58462
475,-0.23333099999999998,-1.220285,1.642981,-0.07939299999999999,0.939197,-0.334061,-1.127897,-0.41932200000000003,-1.2877809999999998,-0.576048,0.386761,0.455582
476,-0.37969899999999995,-1.2374,1.495331,-0.12128900000000001,0.9449360000000001,-0.30393400000000004,-1.990225,-0.320682,-2.5619099999999997,-0.41145600000000004,0.292628,0.353067
477,-0.6013609999999999,-1.248928,1.250981,-0.17896600000000001,0.9486459999999999,-0.260831,-2.543016,1.112375,-3.4788010000000003,-0.289082,0.937111,0.5923430000000001
478,-0.8410920000000001,-1.240291,0.982477,-0.241878,0.9458780000000001,-0.21633200000000002,-2.304776,0.099124,-3.375425,0.32545,1.272826,-0.075187
479,-1.039382,-1.215941,0.78317,-0.299525,0.9376969999999999,-0.176066,-1.898238,-0.600788,-2.657048,0.475505,1.269274,-0.168233
480,-1.1835229999999999,-1.193849,0.629097,-0.34081100000000003,0.929793,-0.139007,-2.039567,0.402748,-2.0141150000000003,0.470679,1.2320879999999998,0.281814
481,-1.298812,-1.1713049999999998,0.48971800000000004,-0.374639,0.921259,-0.104485,-2.1526,0.773373,-1.893603,0.337102,0.724111,0.568764
482,-1.3941540000000001,-1.144105,0.372485,-0.407408,0.9103399999999999,-0.072723,-1.8376540000000001,0.437411,-1.800173,0.291564,0.276458,0.284348
483,-1.471354,-1.113483,0.29325,-0.439345,0.897242,-0.043834,-1.170068,-0.817663,-1.80138,0.191984,-0.093806,-0.118825
484,-1.52891,-1.071394,0.253565,-0.478469,0.877869,-0.020053,-0.584845,-1.0569629999999999,-2.404803,0.056349,-0.361664,-0.064282
485,-1.5681100000000001,-1.0192809999999999,0.235828,-0.523965,0.8517319999999999,-0.001408,-0.301741,-1.461741,-2.656544,0.314782,-0.616105,-0.191051
486,-1.6165530000000001,-0.968756,0.230174,-0.5657220000000001,0.824182,0.025904000000000003,-0.174183,-2.508207,-2.4096889999999997,0.5562,-0.562249,-0.13558399999999998
487,-1.6707619999999999,-0.9275770000000001,0.229015,-0.59677,0.8001689999999999,0.05985599999999999,-0.207977,-2.7779,-1.803898,0.633299,-0.748518,-0.230739
488,-1.733681,-0.899259,0.22866399999999998,-0.6139439999999999,0.782866,0.100896,-0.11405499999999999,-3.343165,-1.186153,0.62725,-0.7554609999999999,-0.30515
489,-1.8006830000000003,-0.882959,0.23717399999999997,-0.618155,0.772621,0.144663,0.24074600000000002,-3.8451760000000004,-0.628625,0.70986,-0.698051,-0.395503
490,-1.859934,-0.882225,0.257588,-0.609046,0.772155,0.181175,0.951368,-3.586354,0.095989,0.779029,-0.8302299999999999,-0.25696599999999997
491,-1.8820569999999999,-0.907121,0.302989,-0.5864050000000001,0.787733,0.188657,2.2609060000000003,-2.3926119999999997,1.198534,0.683237,-0.9772930000000001,0.043689
492,-1.853156,-0.9578049999999999,0.377801,-0.552523,0.8179310000000001,0.16029300000000002,2.979652,-1.009005,1.9527419999999998,0.195635,-0.7376550000000001,0.44336000000000003
493,-1.820328,-1.002432,0.425836,-0.521571,0.8427819999999999,0.132919,0.936017,-0.22734400000000002,1.656523,-0.6899310000000001,0.338751,1.093064
494,-1.864112,-1.0213969999999999,0.41006099999999995,-0.49986,0.8528379999999999,0.150971,-0.8395090000000001,-2.5307459999999997,0.336364,-0.928958,2.358298,1.092468
495,-1.9149630000000002,-1.002373,0.416311,-0.5067229999999999,0.842751,0.181626,0.246125,-2.292936,-1.464857,-0.10541400000000001,1.6277540000000001,1.225082
496,-1.921254,-0.9726520000000001,0.43460200000000004,-0.52887,0.826382,0.193327,-0.279828,-0.648357,-1.489867,0.45575,-0.396069,0.36343600000000004
497,-1.9076240000000002,-0.948622,0.43886899999999995,-0.550042,0.812613,0.192609,-0.0027760000000000003,1.410193,-0.774861,0.441445,0.854089,0.42810299999999996
498,-1.8349779999999998,-0.953652,0.44227700000000003,-0.558619,0.815534,0.151109,0.106999,4.25785,0.682516,0.740794,2.26697,-0.789292
499,-1.7841669999999998,-0.962981,0.442554,-0.558113,0.820897,0.120926,-0.015253000000000001,1.495952,0.432033,0.848289,-0.115422,-0.051971
500,-1.7464669999999998,-0.980542,0.43653000000000003,-0.5479930000000001,0.830799,0.09726900000000001,0.027469,2.617107,1.071828,0.7938729999999999,-0.539082,-0.036157
501,-1.6991169999999998,-1.006838,0.429054,-0.530127,0.845146,0.068402,0.009937,2.709172,1.5063540000000002,0.637061,-0.387275,-0.37014400000000003
502,-1.634654,-1.047468,0.447607,-0.498733,0.86616,0.031891,1.201595,2.1199630000000003,2.3646689999999997,0.47431899999999994,-0.172191,-0.720734
503,-1.539851,-1.10896,0.5154479999999999,-0.44536400000000004,0.895236,-0.013786000000000001,1.7756470000000002,1.443994,3.3437639999999997,0.128973,0.766126,-0.4907
504,-1.428459,-1.173449,0.6228020000000001,-0.383044,0.922091,-0.054893,2.028239,0.258287,3.404731,0.004718,0.588743,-0.212975
505,-1.2901799999999999,-1.228799,0.778165,-0.322233,0.9420870000000001,-0.092875,2.3062009999999997,-0.5757899999999999,3.155641,-0.265428,0.216162,0.018183
506,-1.084475,-1.256297,0.995476,-0.273458,0.950952,-0.144569,2.9528060000000003,0.547833,2.124679,-0.434596,-0.06527000000000001,0.322456
507,-0.872618,-1.248757,1.181115,-0.242431,0.948592,-0.203443,2.132431,2.39865,0.8646209999999999,-0.21601900000000002,-0.6024619999999999,0.45708999999999994
508,-0.7685569999999999,-1.238908,1.2457049999999998,-0.22647199999999998,0.9454290000000001,-0.234231,0.674452,1.730384,0.082969,0.308625,-0.547525,0.28695
509,-0.722719,-1.2305700000000002,1.2657399999999999,-0.220708,0.942679,-0.250267,0.550392,1.335962,-0.008191,0.37996399999999997,-0.330496,0.13089800000000001
510,-0.640206,-1.21658,1.3210469999999999,-0.20719,0.937918,-0.278158,1.59866,1.503882,0.512731,0.375891,-0.134879,0.091421
511,-0.527195,-1.193894,1.421006,-0.18516,0.929809,-0.31805900000000004,1.8290419999999998,0.609251,1.061348,0.242579,-0.046875,0.47215799999999997
512,-0.43487200000000004,-1.1890290000000001,1.50511,-0.156953,0.9280079999999999,-0.337875,0.448697,1.188124,1.351134,-0.335372,-0.19347999999999999,0.5816640000000001
513,-0.33646,-1.194159,1.572662,-0.121423,0.9299069999999999,-0.347163,0.195792,1.89727,1.11986,-0.524542,-0.184026,0.286814
514,-0.263437,-1.197003,1.617752,-0.095082,0.930949,-0.352541,0.098209,1.3284690000000001,0.658435,-0.375743,-0.048426,0.20781100000000002
515,-0.214236,-1.194372,1.644573,-0.078149,0.9299850000000001,-0.359182,0.32192600000000005,1.186175,0.351464,-0.322318,-0.088509,0.364233
516,-0.178953,-1.191946,1.6621279999999998,-0.065831,0.92909,-0.363935,-0.0017329999999999997,0.8008529999999999,0.288808,-0.375636,-0.019056,0.42051400000000005
517,-0.157474,-1.1963629999999998,1.6791200000000002,-0.057356,0.930715,-0.361208,-0.047248000000000005,-0.230467,0.363514,-1.185534,-0.115667,-0.218138
518,-0.166998,-1.182167,1.683948,-0.062983,0.9254290000000001,-0.373638,0.9797629999999999,-0.8318459999999999,-0.384843,-1.373448,0.136872,-0.030628
519,-0.213225,-1.1912399999999999,1.64275,-0.078402,0.9288290000000001,-0.362106,-1.477819,-0.150599,-0.7853060000000001,-0.776289,0.270466,0.44691400000000003
520,-0.304669,-1.21401,1.547894,-0.104768,0.937024,-0.33316799999999996,-1.3670799999999999,-0.050927,-1.8293810000000001,-0.433364,0.17918699999999999,0.580146
521,-0.473947,-1.230243,1.3590950000000002,-0.152436,0.94257,-0.29718,-2.5431169999999996,0.764614,-3.0905970000000003,-0.377975,0.564144,0.5986319999999999
522,-0.695383,-1.237458,1.0900459999999998,-0.20961999999999997,0.9449549999999999,-0.251214,-2.689806,1.53429,-3.63206,-0.193929,1.148993,0.222085
523,-0.925635,-1.220223,0.8544309999999999,-0.274394,0.939176,-0.206508,-1.9955720000000001,-1.30824,-3.07557,0.275935,1.381075,-0.363759
524,-1.0972309999999998,-1.19874,0.693327,-0.32350999999999996,0.931582,-0.165786,-1.805955,-0.5186,-1.977126,0.387612,1.252759,0.17398
525,-1.212719,-1.181289,0.5634060000000001,-0.355632,0.9250959999999999,-0.133081,-1.91813,0.524184,-1.8499900000000002,0.295146,0.970823,0.56643
526,-1.3147149999999999,-1.151345,0.442175,-0.393964,0.9133129999999999,-0.10315099999999999,-1.676027,0.325816,-2.268925,0.335492,0.5315880000000001,0.5468310000000001
527,-1.397101,-1.113502,0.352711,-0.434863,0.897251,-0.076303,-1.302078,-0.441672,-2.20444,0.338016,0.081357,0.08281799999999999
528,-1.471962,-1.06945,0.295032,-0.47824700000000003,0.876936,-0.047422000000000006,-0.86666,-1.4369040000000002,-2.5152490000000003,0.14207999999999998,-0.31341399999999997,-0.084262
529,-1.526925,-1.01675,0.263867,-0.525613,0.850403,-0.023074,-0.396402,-1.464324,-2.725574,0.153329,-0.432037,-0.03639
530,-1.582666,-0.963708,0.253272,-0.570425,0.821313,0.006770999999999999,-0.22233200000000003,-2.915469,-2.5505139999999997,0.274343,-0.458016,-0.225476
531,-1.650281,-0.920276,0.24680700000000003,-0.603676,0.795769,0.048083999999999995,-0.333704,-3.0838259999999997,-1.911212,0.61219,-0.810585,-0.29596300000000003
532,-1.717943,-0.891285,0.240948,-0.621609,0.77788,0.09213400000000001,-0.291865,-3.1894299999999998,-1.113891,0.686475,-0.8662280000000001,-0.273179
533,-1.780213,-0.8765430000000001,0.24335199999999998,-0.625821,0.768532,0.133008,0.12899000000000002,-3.231497,-0.550081,0.7775850000000001,-0.775978,-0.335049
534,-1.831202,-0.8747799999999999,0.259664,-0.619538,0.767402,0.165079,0.718244,-3.06433,0.024252000000000003,0.8424530000000001,-0.867225,-0.372675
535,-1.858607,-0.892956,0.29387800000000003,-0.601305,0.778929,0.178004,1.7069880000000002,-2.442957,0.951169,0.737749,-1.003874,-0.125377
536,-1.849575,-0.9368850000000001,0.355075,-0.569421,0.805717,0.162987,2.7496169999999998,-1.636675,1.9433880000000001,0.579705,-0.8713299999999999,0.266227
537,-1.8150439999999999,-0.9889620000000001,0.413492,-0.533233,0.835456,0.132894,1.586071,-0.123096,1.931184,-0.21537800000000001,-0.08655399999999999,0.9865520000000001
538,-1.8334540000000001,-1.015692,0.40933,-0.508943,0.8498450000000001,0.13683900000000002,-0.23919,-1.61239,0.860667,-1.076583,1.728966,0.8257610000000001
539,-1.898048,-1.004734,0.406387,-0.507837,0.8440190000000001,0.17238900000000001,0.191604,-3.448674,-1.17107,-0.710425,2.6455740000000003,1.195943
540,-1.9120119999999998,-0.977225,0.436803,-0.527066,0.8289489999999999,0.187164,0.16613,-1.062518,-1.665688,0.151089,0.091889,0.368241
541,-1.9127419999999997,-0.951626,0.45010200000000006,-0.546746,0.8143600000000001,0.194602,-0.317502,-0.21668400000000002,-0.982215,0.698739,-1.09738,0.440698
542,-1.884591,-0.9477709999999999,0.45145799999999997,-0.5549890000000001,0.812117,0.18010299999999999,0.5908760000000001,2.066595,0.26141,0.8766290000000001,0.279512,0.281033
543,-1.817718,-0.978625,0.45685,-0.541221,0.829731,0.136423,0.346661,3.421592,2.07715,0.98365,1.651577,-0.7754
544,-1.837191,-1.018399,0.410884,-0.506206,0.851269,0.13813399999999998,-1.498191,-0.396525,1.854443,1.038952,1.7921639999999999,0.580341
545,-1.859054,-1.0336049999999999,0.370354,-0.490597,0.8591489999999999,0.14547000000000002,-0.081974,1.339823,0.641133,-0.2495,-0.085025,-0.8982469999999999
546,-1.7783369999999998,-1.048925,0.40329699999999996,-0.487791,0.8668879999999999,0.10271500000000001,1.565882,3.3157010000000002,0.5967,0.391889,-0.491979,-0.801354
547,-1.627202,-1.0744,0.490908,-0.475487,0.8793049999999999,0.026849,2.545444,3.645814,1.375444,0.415703,-0.255831,-0.810006
548,-1.468742,-1.120566,0.5986229999999999,-0.43289399999999995,0.9003469999999999,-0.044333,2.318076,2.824246,2.962286,0.43579300000000004,0.040037,-0.19726
549,-1.311765,-1.1797389999999999,0.7338279999999999,-0.368435,0.924507,-0.097629,1.936145,0.690984,3.437711,0.230159,0.49520200000000003,-0.276882
550,-1.203756,-1.2281,0.8739399999999999,-0.31363,0.941852,-0.12057899999999999,1.7287869999999999,-1.9051,2.8210889999999997,-0.093154,0.423871,-0.17721199999999998
551,-1.0187190000000002,-1.245473,1.083184,-0.27211799999999997,0.9475469999999999,-0.16761600000000001,3.145612,0.7185699999999999,1.88652,-0.340537,-0.053199,0.527754
552,-0.805327,-1.229863,1.257501,-0.241087,0.942443,-0.23166399999999998,2.351851,3.0666349999999998,0.66233,0.198576,-0.756179,0.368292
553,-0.6882229999999999,-1.211807,1.321444,-0.223144,0.9362520000000001,-0.271348,0.789166,2.458015,-0.026126999999999997,0.629455,-0.448826,0.45382799999999995
554,-0.621722,-1.2008729999999999,1.345067,-0.210569,0.9323549999999999,-0.293881,0.925514,2.211416,0.251811,0.5273869999999999,-0.295117,0.265957
555,-0.509452,-1.189024,1.425416,-0.181694,0.928006,-0.325245,1.3213,1.541284,1.257427,0.423729,-0.150097,0.12817699999999999
556,-0.404276,-1.1827860000000001,1.510154,-0.14882,0.9256639999999999,-0.34783800000000004,0.7647189999999999,1.559431,1.197968,-0.460585,-0.148823,0.422393
557,-0.303415,-1.179716,1.570325,-0.11388800000000002,0.9244979999999999,-0.363765,0.480026,2.503256,0.9148959999999999,-0.614734,-0.09968400000000001,0.240535
558,-0.21913400000000002,-1.176175,1.615199,-0.08357300000000001,0.923142,-0.375255,0.329522,1.8301939999999999,0.730973,-0.495147,0.098708,0.187877
559,-0.1559,-1.173757,1.654985,-0.060039999999999996,0.9222100000000001,-0.38199099999999997,0.255759,1.113407,0.75915,-0.45611899999999994,0.030793,0.3967
560,-0.09804500000000001,-1.170536,1.6967919999999999,-0.038142,0.92096,-0.387777,0.22264099999999998,0.854706,0.7475,-0.610997,0.054977,0.483893
561,-0.062724,-1.171249,1.724827,-0.024383000000000002,0.9212370000000001,-0.388227,-0.11604600000000001,0.197738,0.43191899999999994,-1.010041,-0.0068390000000000005,0.034788
562,-0.063604,-1.1673870000000002,1.7380919999999997,-0.024950999999999997,0.9197280000000001,-0.391753,0.582975,-1.084698,0.053885,-1.30322,0.03857,0.0035229999999999997
563,-0.10205299999999999,-1.157181,1.7214490000000002,-0.040945,0.915674,-0.39982199999999996,-0.17618499999999998,-1.021388,-0.46745,-0.691232,0.260581,1.13351
564,-0.157164,-1.183848,1.677086,-0.059063,0.9260649999999999,-0.372703,-1.754198,-0.835939,-0.986116,-0.606312,0.15703499999999998,0.052925
565,-0.275642,-1.204329,1.559871,-0.09751900000000001,0.933599,-0.34478200000000003,-1.564761,-0.28097,-2.470332,-0.382233,0.405177,0.35583000000000004
566,-0.47083100000000006,-1.220332,1.33995,-0.15574000000000002,0.939213,-0.305965,-2.397464,1.2320719999999998,-3.699065,-0.387854,1.0862690000000002,0.654384
567,-0.697925,-1.222007,1.077356,-0.21961599999999998,0.939787,-0.261838,-2.467403,0.373871,-3.475195,0.134701,1.2870190000000001,0.003812
568,-0.903122,-1.212148,0.86893,-0.275623,0.936372,-0.217322,-2.2109389999999998,-0.717445,-2.514879,0.390217,1.176878,-0.077096
569,-1.0749090000000001,-1.2030399999999999,0.69347,-0.316204,0.9331360000000001,-0.171058,-2.412203,-0.040548,-1.9200169999999999,0.44280699999999995,1.127075,0.071342
570,-1.218523,-1.186877,0.529817,-0.351543,0.9272040000000001,-0.12922999999999998,-2.396011,0.610693,-2.023288,0.271251,0.8407870000000001,0.670871
571,-1.3404340000000001,-1.160978,0.388221,-0.38790399999999997,0.917193,-0.090973,-2.122067,0.158814,-1.9438830000000002,0.196635,0.31062,0.313523
572,-1.447363,-1.134788,0.291036,-0.419099,0.9064450000000001,-0.051995000000000006,-1.401083,-1.658294,-1.566914,0.12773199999999998,-0.113705,-0.206107
573,-1.5358100000000001,-1.096301,0.23359899999999997,-0.45659799999999995,0.889523,-0.015981,-1.0126620000000002,-1.685369,-2.3247400000000003,-0.030768,-0.41029,-0.115183
574,-1.595827,-1.045448,0.202595,-0.501346,0.865149,0.012551,-0.5384869999999999,-1.849984,-2.594682,0.254031,-0.49472700000000003,-0.240808
575,-1.6574630000000001,-0.994813,0.194028,-0.542604,0.838657,0.047144,-0.305307,-3.177874,-2.391594,0.47889899999999996,-0.585728,-0.257883
576,-1.72757,-0.9527049999999999,0.19087,-0.572364,0.814986,0.090474,-0.37191399999999997,-3.501332,-1.8981259999999998,0.6573859999999999,-0.7436659999999999,-0.327977
577,-1.802848,-0.9212090000000001,0.191152,-0.588635,0.796334,0.139099,-0.193949,-3.943075,-1.340842,0.704663,-0.8085100000000001,-0.33226
578,-1.8745080000000003,-0.9032110000000001,0.20333800000000002,-0.590746,0.785319,0.185144,0.354311,-4.0773839999999995,-0.73009,0.757174,-0.9235639999999999,-0.431375
579,-1.9234919999999998,-0.905437,0.231807,-0.57933,0.786695,0.213243,1.250931,-3.078525,0.181814,0.8014979999999999,-1.140852,-0.34330900000000003
580,-1.927497,-0.936373,0.284358,-0.555392,0.8054140000000001,0.20696199999999998,2.489357,-1.990199,1.334203,0.7337060000000001,-1.058984,-0.063819
581,-1.9031150000000001,-0.9864950000000001,0.350433,-0.521424,0.834097,0.179953,2.387058,-1.117808,1.706248,0.11525099999999999,-0.504691,0.592386
582,-1.9067020000000001,-1.016143,0.371214,-0.49720299999999995,0.850083,0.173592,0.461466,-1.3828280000000002,0.9208129999999999,-0.7540789999999999,0.8423459999999999,1.049324
583,-1.956136,-1.019144,0.36790300000000004,-0.485651,0.8516600000000001,0.19698800000000002,-0.21834099999999998,-2.7334240000000003,-0.396117,-0.718314,2.7745610000000003,1.304171
584,-1.9674610000000001,-0.999218,0.39508699999999997,-0.49894399999999994,0.8410479999999999,0.20899099999999998,0.34465500000000004,-0.813484,-1.493846,0.183469,1.088136,0.8241209999999999
585,-1.9533310000000002,-0.9744729999999999,0.416411,-0.521,0.827406,0.209627,-0.09322899999999999,-0.133549,-1.186923,0.695987,-0.678663,0.42179700000000003
586,-1.949632,-0.9568260000000001,0.406208,-0.5352560000000001,0.817367,0.21306599999999998,-0.627421,1.3017889999999999,-0.295187,0.904717,0.67479,0.696785
587,-1.8965299999999998,-0.965456,0.390704,-0.539107,0.8223090000000001,0.182091,-0.10442,4.1249720000000005,1.063627,0.489486,2.075961,-0.887215
588,-1.8654709999999999,-0.986142,0.366713,-0.5281100000000001,0.8339030000000001,0.16028699999999999,-0.744482,1.357225,1.125728,0.9611700000000001,0.275609,-0.086099
589,-1.846067,-1.00146,0.343028,-0.518766,0.842259,0.146521,-0.062437,2.525821,0.804255,0.27779899999999996,-0.422062,-0.48589099999999996
590,-1.778689,-1.0197379999999998,0.350433,-0.512303,0.8519709999999999,0.10806500000000001,0.772088,3.257114,1.01745,0.44649099999999997,-0.430584,-0.730151
591,-1.6769009999999998,-1.059042,0.401226,-0.48694,0.8718870000000001,0.051862,1.995475,2.4990650000000003,2.2458080000000002,0.370272,-0.1884,-0.9154329999999999
592,-1.5588440000000001,-1.1185049999999999,0.49727899999999997,-0.436982,0.8994479999999999,-0.005222999999999999,2.485074,1.275978,3.189762,0.219162,0.32706799999999997,-0.505458
593,-1.422333,-1.183244,0.632594,-0.373751,0.9258370000000001,-0.0559,2.381316,0.067208,3.466188,0.021623,0.48238100000000006,-0.266427
594,-1.298343,-1.235678,0.790722,-0.316733,0.944371,-0.088496,2.235213,-1.694013,2.874561,-0.31002199999999996,0.46508299999999997,-0.192449
595,-1.102206,-1.255215,1.0105540000000002,-0.276898,0.950616,-0.140164,3.2541439999999997,0.42085500000000003,1.6526490000000003,-0.24084699999999998,-0.254419,0.352643
596,-0.893908,-1.238275,1.1852639999999999,-0.254447,0.9452219999999999,-0.204455,2.196601,2.921218,0.39971599999999996,0.375983,-0.707353,0.690112
597,-0.796717,-1.227655,1.233158,-0.24057199999999998,0.941702,-0.23518699999999998,0.46775,2.143872,-0.041857,0.516588,-0.632483,0.567767
598,-0.7441810000000001,-1.2211290000000001,1.244874,-0.232048,0.9394870000000001,-0.252011,0.47709300000000004,2.144669,0.016959000000000002,0.489571,-0.31937,-0.021457
599,-0.641314,-1.20957,1.308546,-0.211427,0.935464,-0.28319099999999997,1.596113,1.967084,0.8315110000000001,0.383836,-0.14068,-0.094953
600,-0.515323,-1.193082,1.418415,-0.18174400000000002,0.9295100000000001,-0.320893,1.636639,0.8122590000000001,1.3449520000000001,0.23849099999999998,-0.06307,0.160661
601,-0.407482,-1.186962,1.5109700000000001,-0.148401,0.927235,-0.34380700000000003,0.764084,1.415742,1.434224,-0.55332,-0.058049,0.543011
602,-0.305404,-1.185401,1.584447,-0.11302999999999999,0.92665,-0.35852,0.386061,1.693343,1.0723049999999998,-0.5951,-0.008498,0.23991300000000002
603,-0.242046,-1.1862489999999999,1.622364,-0.089915,0.926968,-0.364194,0.113874,1.3322610000000001,0.4983,-0.556005,-0.017743000000000002,0.282956
604,-0.199069,-1.183748,1.6390189999999998,-0.074643,0.926027,-0.369992,0.17265,1.291716,0.197524,-0.41108999999999996,0.028395,0.44892600000000005
605,-0.16827,-1.188769,1.654496,-0.062434,0.927911,-0.367527,-0.43917399999999995,0.49808100000000005,0.462391,-0.785832,-0.015191,-0.0009880000000000002
606,-0.154334,-1.190603,1.682378,-0.057045000000000005,0.928593,-0.366679,0.569211,-1.185131,0.40643,-1.578026,0.11059200000000001,-0.19400599999999998
607,-0.187673,-1.1732989999999999,1.6724189999999999,-0.072223,0.922033,-0.380305,0.112008,-0.9396180000000001,-0.652482,-0.881604,0.21897399999999997,1.2605389999999999
608,-0.258871,-1.1961190000000002,1.610686,-0.093682,0.9306260000000001,-0.353767,-1.547875,-0.708012,-1.187802,-0.656745,0.171211,0.119164
609,-0.39469899999999997,-1.207915,1.4759440000000001,-0.136492,0.9348780000000001,-0.327666,-1.5604129999999998,-0.455977,-2.664495,-0.339857,0.420087,0.326415
610,-0.5959,-1.213239,1.250907,-0.196424,0.9367549999999999,-0.289654,-2.335466,1.263794,-3.693333,-0.353029,1.2937290000000001,0.735607
611,-0.80453,-1.201543,1.0066959999999998,-0.260034,0.9325969999999999,-0.25027,-2.186179,0.308849,-3.442171,0.309687,1.569234,0.041957
612,-0.9746299999999999,-1.185171,0.8326030000000001,-0.311241,0.9265639999999999,-0.211184,-1.977752,-0.484183,-2.175992,0.5942609999999999,1.325893,-0.12602
613,-1.106574,-1.1784059999999998,0.686355,-0.341916,0.923998,-0.171204,-2.37798,0.581047,-1.552038,0.582654,0.8336620000000001,0.391266
614,-1.229315,-1.16936,0.53889,-0.368165,0.920501,-0.130847,-2.399494,0.566109,-1.5276,0.402986,0.609071,0.47882399999999997
615,-1.338835,-1.15204,0.41353599999999996,-0.39571999999999996,0.913595,-0.093474,-2.0013240000000003,0.124825,-1.541345,0.200285,0.197901,0.284148
616,-1.439406,-1.130716,0.315071,-0.422325,0.904718,-0.055811,-1.656841,-1.140542,-1.352515,0.11597400000000001,-0.177835,-0.120031
617,-1.525471,-1.097967,0.250877,-0.454925,0.890283,-0.020634,-1.129011,-1.244808,-2.1082,-0.037156,-0.407999,-0.110424
618,-1.572265,-1.049585,0.21772199999999997,-0.497917,0.867217,0.000731,-0.448313,-0.8835540000000001,-2.462831,0.129722,-0.464614,-0.099715
619,-1.615525,-1.003486,0.20836300000000002,-0.536816,0.843349,0.024027,-0.284155,-2.2882580000000003,-2.171464,0.310299,-0.500866,-0.172266
620,-1.6718259999999998,-0.9654440000000001,0.202177,-0.566138,0.8223020000000001,0.057392,-0.30496999999999996,-2.67985,-1.727798,0.576712,-0.742147,-0.215229
621,-1.733241,-0.9364680000000001,0.20134100000000002,-0.584823,0.80547,0.095846,-0.104725,-3.234248,-1.255671,0.649932,-0.818913,-0.25624600000000003
622,-1.794282,-0.918687,0.21318099999999998,-0.591761,0.794805,0.134497,0.378723,-3.633236,-0.732627,0.705149,-0.863042,-0.403006
623,-1.840281,-0.9179069999999999,0.24123699999999998,-0.585547,0.7943319999999999,0.16172999999999998,1.12925,-3.17576,0.09562799999999999,0.7605350000000001,-1.071034,-0.41162299999999996
624,-1.854636,-0.943887,0.291137,-0.56316,0.809844,0.16428299999999998,2.2121299999999997,-2.502393,1.258145,0.728992,-1.0180200000000001,-0.130088
625,-1.835925,-0.9910200000000001,0.36509,-0.5286810000000001,0.836585,0.143548,2.704884,-1.7234479999999999,1.838497,0.5335340000000001,-0.882591,0.06462799999999999
626,-1.821986,-1.028546,0.40758099999999997,-0.499855,0.856549,0.128268,0.640048,-0.968225,1.246267,-0.700416,1.255282,0.815183
627,-1.867602,-1.039591,0.402779,-0.48440900000000003,0.8621969999999999,0.148151,-0.293815,-2.830307,-0.078193,-0.7881739999999999,2.220643,0.958355
628,-1.907671,-1.020508,0.42506000000000005,-0.493526,0.852374,0.172845,0.556481,-2.307886,-1.455202,-0.19315,1.510282,1.0915290000000002
629,-1.8992790000000002,-0.991815,0.456078,-0.5179020000000001,0.8370209999999999,0.176517,0.10719300000000001,-0.327588,-1.58586,0.335727,-0.218048,0.351529
630,-1.8871200000000001,-0.969527,0.46502299999999996,-0.537609,0.8246180000000001,0.175967,-0.387694,0.7574380000000001,-0.7692439999999999,0.9612850000000001,-0.571887,0.57649
631,-1.849347,-0.9669709999999999,0.461129,-0.545896,0.8231700000000001,0.156118,0.174378,2.784591,0.35692199999999996,0.717359,1.32687,0.38891
632,-1.787302,-0.989474,0.45006,-0.536296,0.8357370000000001,0.11796,-0.138487,3.1634830000000003,1.512203,1.200267,1.86545,-0.779337
633,-1.767681,-1.014119,0.42174399999999995,-0.518146,0.849016,0.103354,-0.315131,2.40823,1.126309,0.17135999999999998,0.193434,-0.088782
634,-1.6906599999999998,-1.03189,0.435561,-0.509502,0.8582700000000001,0.061364999999999996,0.8413510000000001,3.459236,0.762368,0.22758,-0.327356,-0.778879
635,-1.595057,-1.0531409999999999,0.47900600000000004,-0.494684,0.8689819999999999,0.012004,1.422342,2.4261630000000003,1.2623360000000001,0.373377,-0.557138,-0.8430129999999999
636,-1.489112,-1.0929659999999999,0.562032,-0.45830600000000005,0.8879950000000001,-0.03752,2.109212,1.2671290000000002,2.533394,0.325738,0.177877,-0.5196390000000001
637,-1.3646719999999999,-1.152004,0.678242,-0.398034,0.913581,-0.083227,1.9988380000000001,0.79877,3.6025139999999998,0.205605,0.585122,-0.1887
638,-1.2360360000000001,-1.213578,0.82362,-0.330242,0.936873,-0.114876,1.7845240000000002,-1.275773,3.6346540000000003,-0.308979,0.620729,-0.098106
639,-1.076532,-1.247226,1.031121,-0.279884,0.948106,-0.150823,2.996677,-1.347221,2.337845,-0.423867,0.344908,0.290365
640,-0.8662350000000001,-1.239018,1.233791,-0.24815500000000001,0.945465,-0.21095999999999998,2.5670610000000003,2.1675009999999997,1.0196319999999999,0.143098,-0.744491,0.31813800000000003
641,-0.7355729999999999,-1.221719,1.317652,-0.229496,0.939689,-0.25358600000000003,1.119263,2.352327,0.011563,0.513127,-0.635871,0.264359
642,-0.677658,-1.205683,1.340881,-0.22385300000000002,0.934083,-0.278149,0.872483,1.569027,-0.22630300000000003,0.599433,-0.484788,0.250119
643,-0.605409,-1.1889370000000001,1.389418,-0.21206399999999997,0.9279729999999999,-0.306404,1.423611,1.33054,0.592906,0.35893,0.08795700000000001,0.28383600000000003
644,-0.499325,-1.17497,1.4748450000000002,-0.184618,0.9226780000000001,-0.338483,1.305266,1.316387,1.0375459999999999,-0.283064,-0.138422,0.406385
645,-0.42211899999999997,-1.167983,1.527341,-0.160598,0.9199620000000001,-0.357587,0.46018400000000004,1.567174,0.5933510000000001,-0.426178,-0.27463699999999996,0.418867
646,-0.361585,-1.1658469999999999,1.556065,-0.13936600000000002,0.9191219999999999,-0.368485,0.321805,1.7662360000000001,0.48317,-0.254921,-0.11963800000000001,0.214234
647,-0.298237,-1.163274,1.5907040000000001,-0.116454,0.918106,-0.37882899999999997,0.325656,1.3692540000000002,0.654621,-0.255448,-0.012725,0.20404
648,-0.24600100000000003,-1.163576,1.623953,-0.096448,0.918225,-0.384123,0.080954,1.014433,0.62132,-0.328158,-0.07266,0.48506000000000005
649,-0.197283,-1.1639760000000001,1.650795,-0.077556,0.918384,-0.38800500000000004,0.078921,1.293356,0.401963,-0.668676,0.121274,0.48
650,-0.168321,-1.167645,1.6563720000000002,-0.065722,0.9198290000000001,-0.386763,-0.307526,1.116132,0.035227,-0.776014,0.12819,0.34326
651,-0.159152,-1.170351,1.656561,-0.061778,0.9208879999999999,-0.38489,0.112889,-0.083663,0.010859,-1.132115,0.091396,-0.08958200000000001
652,-0.18175,-1.160699,1.6450580000000001,-0.072063,0.917082,-0.39211999999999997,0.35862,-0.75253,-0.49931400000000004,-0.842533,0.11104000000000001,0.5990449999999999
653,-0.232699,-1.179278,1.60112,-0.087994,0.9243309999999999,-0.371296,-1.816008,-0.43895100000000004,-0.841781,-0.740833,0.176103,0.580707
654,-0.34267600000000004,-1.2035959999999999,1.481375,-0.120624,0.933336,-0.338119,-1.9610439999999998,0.226937,-2.334885,-0.577969,0.474592,0.396468
655,-0.523296,-1.224603,1.273838,-0.16956400000000002,0.9406709999999999,-0.293898,-2.6372709999999997,1.201624,-3.069385,-0.34525300000000003,0.921557,0.555327
656,-0.726816,-1.2267860000000002,1.043069,-0.22410100000000002,0.9414100000000001,-0.252025,-2.078057,-0.07484299999999999,-2.954885,0.12728399999999998,1.1592069999999999,-0.10469500000000001
657,-0.901545,-1.2172459999999998,0.8675579999999999,-0.271532,0.93815,-0.21479099999999998,-1.8741860000000001,-0.34441700000000003,-2.052604,0.366487,0.864798,0.07337300000000001
658,-1.0493780000000001,-1.214336,0.707875,-0.302573,0.9371379999999999,-0.173812,-2.373989,0.220158,-1.614575,0.23453400000000002,0.697246,0.210983
659,-1.201517,-1.200979,0.5452239999999999,-0.337064,0.932393,-0.130455,-2.231067,-0.15491,-1.9816330000000002,0.146528,0.693553,0.327629
660,-1.334066,-1.174131,0.408175,-0.375554,0.9223540000000001,-0.09060399999999999,-1.929399,-0.255925,-2.023193,0.22263000000000002,0.39528800000000003,0.39905999999999997
661,-1.434415,-1.142081,0.30948400000000004,-0.41182700000000005,0.909501,-0.056516,-1.386033,-0.814226,-1.937497,0.26657800000000004,0.090652,0.032438
662,-1.50186,-1.1007049999999998,0.261083,-0.45187700000000003,0.8915270000000001,-0.0312,-0.599697,-1.18403,-2.3139540000000003,0.10622000000000001,-0.20758200000000002,0.030636
663,-1.545274,-1.052089,0.241008,-0.49558199999999997,0.868461,-0.012651,-0.30590500000000004,-1.503948,-2.484544,0.14405,-0.304206,0.020861
664,-1.5998290000000002,-1.0024899999999999,0.22840300000000002,-0.5379649999999999,0.842814,0.015623,-0.295003,-2.5790900000000003,-2.424338,0.41049300000000005,-0.449244,-0.140852
665,-1.658075,-0.9605940000000001,0.226304,-0.570839,0.8195319999999999,0.049949,-0.123021,-2.9260099999999998,-1.8650799999999998,0.48781599999999997,-0.6757029999999999,-0.223014
666,-1.717402,-0.9312159999999999,0.230354,-0.590443,0.802346,0.087188,0.021318,-3.2006,-1.254834,0.5605060000000001,-0.765038,-0.301269
667,-1.7720779999999998,-0.912489,0.246126,-0.5994149999999999,0.791029,0.12230799999999999,0.507027,-3.4606,-0.8590709999999999,0.6525310000000001,-0.7432840000000001,-0.34021799999999996
668,-1.8172830000000002,-0.9058809999999999,0.277414,-0.598332,0.7869689999999999,0.150542,1.08619,-3.427521,-0.310274,0.7608229999999999,-1.004376,-0.227782
669,-1.838257,-0.9196620000000001,0.323913,-0.584527,0.795397,0.160176,1.881436,-2.523707,0.7484569999999999,0.726983,-1.104997,-0.10725799999999999
670,-1.8237720000000002,-0.9599190000000001,0.39114499999999996,-0.5553170000000001,0.819145,0.143557,2.6829970000000003,-1.6592490000000002,1.7869869999999999,0.7071569999999999,-1.041359,0.049116
671,-1.7947400000000002,-1.008521,0.45335,-0.519786,0.846044,0.11838800000000001,1.6860830000000002,-0.943508,1.88379,-0.502446,0.405146,0.922215
672,-1.818961,-1.037334,0.462804,-0.492924,0.861052,0.124901,0.072533,-2.44256,0.938678,-0.6890069999999999,1.23871,0.570869
673,-1.881515,-1.028953,0.463654,-0.491005,0.8567600000000001,0.157672,0.263955,-3.018541,-1.17219,-0.670112,2.6471459999999998,1.181363
674,-1.884294,-1.001574,0.495197,-0.5126930000000001,0.8423209999999999,0.166209,0.208168,-0.665564,-1.601815,0.338254,0.44043999999999994,0.667562
675,-1.8747790000000002,-0.9737319999999999,0.504271,-0.5364260000000001,0.82699,0.16827999999999999,-0.435623,0.719267,-1.303643,1.082233,-0.35529499999999997,0.8111520000000001
676,-1.836819,-0.9597120000000001,0.495353,-0.55356,0.819026,0.150835,-0.673425,3.442076,-0.024791,0.501146,1.902638,0.865034
677,-1.8055310000000002,-0.9664219999999999,0.451596,-0.55265,0.822858,0.132163,-1.224833,2.299134,0.693872,0.9751049999999999,2.213336,-1.386344
678,-1.7880209999999999,-0.9734149999999999,0.422601,-0.549247,0.8268110000000001,0.121223,-0.23268000000000003,2.684811,0.62126,0.370704,-0.8658129999999999,-0.43799499999999997
679,-1.713947,-0.9925149999999999,0.423626,-0.54098,0.8374030000000001,0.077975,0.23705700000000002,3.925561,1.086559,0.7947489999999999,-0.870042,-0.400698
680,-1.633171,-1.021515,0.444279,-0.521045,0.8529,0.032542,1.1434799999999998,2.58073,1.745161,0.445666,-0.612101,-0.975856
681,-1.536908,-1.076645,0.5119739999999999,-0.473998,0.8803709999999999,-0.016069,1.946641,1.4893049999999999,3.323524,0.318312,0.313461,-0.548613
682,-1.4169610000000001,-1.1530209999999999,0.631009,-0.400921,0.9139940000000001,-0.06216699999999999,2.346837,0.028102999999999996,4.218021,-0.180882,1.2313610000000001,-0.440488
683,-1.276791,-1.214318,0.80524,-0.333984,0.9371309999999999,-0.101124,2.761243,-1.458009,3.340468,-0.572479,0.49179300000000004,0.223606
684,-1.047943,-1.2368370000000002,1.0547600000000001,-0.283977,0.944752,-0.163672,3.587717,0.697473,2.2517560000000003,-0.491857,-0.373921,0.39520900000000003
685,-0.8466790000000001,-1.226752,1.228599,-0.252652,0.941398,-0.22344,1.9709259999999997,2.135742,0.68863,0.135724,-0.703987,0.363989
686,-0.758871,-1.210231,1.290162,-0.242754,0.9356979999999999,-0.255988,1.0843129999999999,1.132012,-0.080055,0.475451,-0.673033,0.351935
687,-0.718314,-1.194326,1.3099459999999998,-0.241941,0.929968,-0.276792,0.722292,1.2929540000000002,-0.319936,0.608503,-0.605841,0.290724
688,-0.65876,-1.181626,1.33532,-0.23225,0.9252239999999999,-0.300018,0.94565,1.928057,0.23521799999999998,0.565837,-0.023521,0.085311
689,-0.5602520000000001,-1.170554,1.412097,-0.20704899999999998,0.920967,-0.33006399999999997,1.408325,0.978468,1.271569,0.4798,0.089379,0.25706599999999996
690,-0.45843100000000003,-1.168094,1.5040790000000002,-0.17343,0.920005,-0.351431,0.602527,1.129543,1.485801,0.136259,-0.002876,0.532217
691,-0.35928899999999997,-1.172798,1.569184,-0.13627,0.921839,-0.362815,0.239378,2.3243669999999996,1.1057190000000001,-0.490759,-0.166956,0.254096
692,-0.266989,-1.1750209999999999,1.6197190000000001,-0.10170900000000001,0.9226979999999999,-0.37185300000000004,0.155052,2.120911,0.909906,-0.554541,-0.029020999999999998,0.28982199999999997
693,-0.193154,-1.177084,1.6602740000000002,-0.073635,0.923491,-0.376474,0.009192,1.703762,0.6605260000000001,-0.5859260000000001,0.025468,0.51713
694,-0.140898,-1.183676,1.682848,-0.053015,0.926,-0.373772,-0.42084499999999997,1.438871,0.410034,-0.575479,0.063563,0.215096
695,-0.11165,-1.193518,1.7017759999999997,-0.041044,0.9296709999999999,-0.366086,-0.23044,-0.116014,0.406947,-1.115007,-0.211623,-0.46319799999999994
696,-0.117001,-1.176606,1.713999,-0.044832,0.923308,-0.381424,1.379882,-1.078067,-0.161685,-1.276686,0.031969,0.389633
697,-0.156209,-1.178636,1.6882259999999998,-0.059457,0.9240860000000001,-0.377521,-1.212343,-0.21416100000000002,-0.569731,-0.835181,0.257387,0.619007
698,-0.22709200000000002,-1.202081,1.619445,-0.08114400000000001,0.932791,-0.351152,-1.331616,-0.5044850000000001,-1.38845,-0.54198,-0.036657999999999996,0.314379
699,-0.370188,-1.220331,1.469419,-0.12421099999999999,0.939213,-0.320065,-2.075159,0.035225,-2.776615,-0.47816000000000003,0.31274,0.473263
700,-0.5826859999999999,-1.231723,1.224746,-0.18301900000000002,0.9430629999999999,-0.277717,-2.489986,1.3196700000000001,-3.678465,-0.260523,1.113776,0.5409
701,-0.812822,-1.219832,0.9747129999999999,-0.24966999999999998,0.939042,-0.236339,-2.068866,-0.43184399999999995,-3.460703,0.369788,1.49176,-0.094609
702,-1.000365,-1.1977799999999998,0.784054,-0.306714,0.931232,-0.19678099999999998,-1.996014,-0.175798,-2.55467,0.476529,1.3584559999999999,-0.065762
703,-1.127894,-1.182955,0.632313,-0.341688,0.9257270000000001,-0.162073,-2.165445,1.079923,-1.816116,0.454221,1.169137,0.47651099999999996
704,-1.23289,-1.165281,0.4955,-0.37217100000000003,0.918899,-0.130774,-2.010263,0.914407,-1.8511400000000002,0.279489,0.734329,0.589835
705,-1.318573,-1.1411950000000002,0.389497,-0.403317,0.9091319999999999,-0.103939,-1.509002,0.322917,-1.687715,0.15112,0.17369300000000001,0.25172100000000003
706,-1.393205,-1.114247,0.318605,-0.433906,0.8975790000000001,-0.077878,-0.917585,-1.128552,-1.792819,0.001289,-0.273251,-0.145754
707,-1.458285,-1.068349,0.270976,-0.47851400000000005,0.8764069999999999,-0.054065999999999996,-0.593953,-1.025808,-2.7243169999999997,-0.127,-0.43226899999999996,-0.047679
708,-1.5020280000000001,-1.014904,0.25359299999999996,-0.526442,0.8494299999999999,-0.03626,-0.045126,-1.9848580000000002,-2.592136,0.148528,-0.464161,-0.144145
709,-1.5638020000000001,-0.968297,0.246613,-0.566678,0.8239219999999999,-0.003963,-0.18296600000000002,-3.031124,-2.165537,0.532895,-0.550179,-0.204395
710,-1.634341,-0.9319639999999999,0.238011,-0.5950439999999999,0.802793,0.037863,-0.356633,-3.3322599999999998,-1.567092,0.77995,-0.836515,-0.345724
711,-1.710177,-0.907436,0.23265100000000002,-0.6097859999999999,0.787927,0.085547,-0.147282,-3.681407,-1.016116,0.844649,-0.8050930000000001,-0.283927
712,-1.777238,-0.893401,0.24295500000000003,-0.613446,0.779208,0.128471,0.416199,-3.681939,-0.57314,0.890134,-0.792971,-0.303764
713,-1.8176450000000002,-0.895516,0.272461,-0.606155,0.780532,0.15274400000000002,1.309479,-2.805207,0.247029,0.8245389999999999,-1.025252,-0.164737
714,-1.814452,-0.9259270000000001,0.330548,-0.583327,0.7991779999999999,0.145012,2.579402,-1.7429080000000001,1.4872670000000001,0.698623,-0.974792,0.087029
715,-1.7711689999999998,-0.9769760000000001,0.40968000000000004,-0.548324,0.828809,0.11136300000000002,2.589219,-0.583292,2.1278509999999997,0.06129400000000001,-0.539441,0.593425
716,-1.759168,-1.015659,0.438641,-0.5177229999999999,0.849828,0.098695,0.41808500000000004,-1.043778,1.418931,-0.972267,0.8758799999999999,1.059661
717,-1.831841,-1.017161,0.41842299999999993,-0.5079560000000001,0.850619,0.135696,-0.686251,-3.754928,-0.811483,-1.171075,3.070188,1.259598
718,-1.8700599999999998,-0.9896010000000001,0.433708,-0.5246069999999999,0.835807,0.161857,0.08454,-1.346916,-1.600737,-0.075704,0.946709,0.8632129999999999
719,-1.8684439999999998,-0.962358,0.446442,-0.5464399999999999,0.820542,0.167626,-0.064709,-0.215592,-1.205851,0.583824,-0.707871,0.322212
720,-1.852889,-0.948124,0.44619899999999996,-0.560144,0.8123229999999999,0.162341,-0.156724,1.605801,-0.270929,1.075906,0.225595,0.473706
721,-1.786988,-0.9616520000000001,0.44504799999999994,-0.558834,0.8201379999999999,0.122733,0.123634,4.237493,1.2349139999999998,0.622875,1.7775330000000003,-0.405951
722,-1.751799,-0.9912719999999999,0.424551,-0.538666,0.836723,0.098579,-0.714309,1.0691389999999998,1.484153,1.1822059999999999,0.942024,-0.249153
723,-1.740564,-1.01309,0.400187,-0.5216189999999999,0.8484709999999999,0.089415,-0.173573,2.215408,1.007898,0.261137,-0.263495,-0.339522
724,-1.685959,-1.032305,0.40307800000000005,-0.50943,0.858484,0.058927999999999994,0.45904799999999996,2.6851,1.015988,0.432892,-0.395471,-0.498778
725,-1.6003450000000001,-1.062583,0.44608100000000006,-0.48639,0.8736149999999999,0.014376,1.63933,2.201291,1.8997259999999998,0.23777800000000002,-0.356876,-0.786181
726,-1.484253,-1.116673,0.5341279999999999,-0.437018,0.898646,-0.037916000000000005,2.033704,1.729264,3.181747,0.194128,0.223913,-0.558443
727,-1.3458450000000002,-1.175912,0.663733,-0.374992,0.923041,-0.08580700000000001,2.228095,0.459416,3.289418,0.064476,0.513299,-0.258248
728,-1.206834,-1.220357,0.8309219999999999,-0.320805,0.9392219999999999,-0.122205,2.3566119999999997,-1.5886280000000002,2.791944,-0.152721,0.378725,-0.187243
729,-1.02237,-1.234934,1.0493649999999999,-0.28123400000000004,0.944127,-0.171817,3.3542589999999994,-0.11617000000000001,1.8666040000000002,-0.26518400000000003,-0.16512000000000002,0.596485
730,-0.820486,-1.219875,1.221837,-0.25144299999999997,0.9390569999999999,-0.234389,1.930363,2.741487,0.824298,0.307397,-0.604294,0.656844
731,-0.740252,-1.2170459999999999,1.267317,-0.23364000000000001,0.9380799999999999,-0.255749,0.276929,1.247623,0.214323,0.367734,-0.590653,0.418835
732,-0.6945859999999999,-1.211798,1.2819129999999999,-0.22487,0.936249,-0.269927,0.57231,2.0046470000000003,0.055183,0.567628,-0.329529,0.053832000000000005
733,-0.590561,-1.197178,1.3501379999999998,-0.203227,0.9310129999999999,-0.303157,1.680249,1.743975,0.878309,0.45316599999999996,-0.104246,0.100825
734,-0.48124300000000003,-1.184601,1.444801,-0.174346,0.926349,-0.333873,1.039996,0.8967729999999999,1.243459,-0.082826,-0.127994,0.515606
735,-0.38769899999999996,-1.18424,1.5166389999999998,-0.142524,0.926213,-0.349009,0.508328,1.731813,1.20556,-0.6220939999999999,-0.16885799999999998,0.41259300000000004
736,-0.290312,-1.182052,1.577651,-0.10849400000000001,0.925386,-0.363155,0.411541,1.9698630000000001,0.900136,-0.7365079999999999,-0.069825,0.151928
737,-0.232127,-1.181592,1.610206,-0.08728999999999999,0.925211,-0.369263,0.135674,1.14917,0.448471,-0.570914,-0.041819,0.39268600000000004
738,-0.19558299999999998,-1.1790049999999999,1.627297,-0.074205,0.924226,-0.374554,0.169771,0.906043,0.21401199999999998,-0.43516400000000005,0.018889,0.46070500000000003
739,-0.17216900000000002,-1.182022,1.641675,-0.064937,0.925374,-0.37343899999999997,-0.276568,0.297504,0.40074899999999997,-0.530857,0.050273000000000005,0.08514
740,-0.160943,-1.184121,1.663057,-0.06043,0.926168,-0.372227,0.33828,-0.891064,0.330723,-1.292384,0.016658000000000003,-0.23536300000000002
741,-0.185863,-1.166359,1.658234,-0.072715,0.919324,-0.386714,0.611156,-0.9329860000000001,-0.6094890000000001,-1.004006,0.30958800000000003,1.058009
742,-0.2405,-1.182016,1.608056,-0.090285,0.925372,-0.368139,-1.453262,-0.27797,-0.918509,-0.614,0.250363,0.212774
743,-0.340072,-1.203506,1.506839,-0.119772,0.9333040000000001,-0.338512,-1.6187690000000001,-0.12209600000000001,-1.9250619999999998,-0.434366,0.121308,0.5584520000000001
744,-0.5155689999999999,-1.224445,1.31037,-0.16736099999999998,0.9406180000000001,-0.295329,-2.784327,1.023103,-3.0509619999999997,-0.31954699999999997,0.502833,0.6668350000000001
745,-0.736401,-1.2318360000000002,1.0460049999999999,-0.22330999999999998,0.943101,-0.24634,-2.727464,0.9212229999999999,-3.462769,-0.054446,1.3150469999999999,0.043779000000000005
746,-0.951785,-1.213639,0.825011,-0.28473000000000004,0.936894,-0.202847,-1.967257,-0.7254229999999999,-2.858212,0.375947,1.31512,-0.167728
747,-1.099348,-1.196811,0.66873,-0.325461,0.9308790000000001,-0.165916,-2.039247,0.41272,-1.8389529999999998,0.41423699999999997,1.156096,0.10807
748,-1.2197200000000001,-1.179827,0.521982,-0.35782600000000003,0.9245399999999999,-0.131053,-2.187005,0.886705,-1.961302,0.41011800000000004,0.8398030000000001,0.55482
749,-1.324026,-1.152184,0.393916,-0.394164,0.9136540000000001,-0.09929199999999999,-1.8458990000000002,0.47899899999999995,-2.064151,0.36750700000000003,0.462872,0.500995
750,-1.402301,-1.121599,0.304848,-0.428079,0.9007959999999999,-0.07282000000000001,-1.279461,-0.193158,-1.764504,0.221094,0.026664,0.055562
751,-1.463084,-1.086139,0.25796199999999997,-0.463192,0.884835,-0.050085000000000005,-0.6088210000000001,-1.1293389999999999,-2.1282240000000003,-0.057545000000000006,-0.312203,-0.040079000000000004
752,-1.508241,-1.035317,0.23361300000000002,-0.509243,0.860024,-0.031897,-0.238033,-1.371067,-2.737416,-0.060078,-0.5681689999999999,-0.104394
753,-1.5588790000000001,-0.9840030000000001,0.227399,-0.553642,0.8327200000000001,-0.0065980000000000006,-0.004543999999999999,-2.756928,-2.423156,0.288017,-0.42929300000000004,-0.155389
754,-1.616495,-0.941584,0.22832199999999997,-0.587882,0.808491,0.026883999999999998,-0.012783,-2.914398,-1.93163,0.630698,-0.6089979999999999,-0.22056399999999998
755,-1.675963,-0.909623,0.231442,-0.610639,0.789272,0.064457,0.010006000000000001,-3.251098,-1.401201,0.76695,-0.757488,-0.234638
756,-1.734743,-0.8877520000000001,0.24457399999999999,-0.622682,0.775655,0.10301099999999999,0.41862200000000005,-3.553517,-0.9866940000000001,0.77791,-0.673512,-0.24156100000000003
757,-1.785018,-0.8766360000000001,0.270446,-0.625105,0.768591,0.135998,0.9186709999999999,-3.383549,-0.5027189999999999,0.810454,-0.7921050000000001,-0.24033800000000002
758,-1.8053569999999999,-0.885819,0.31624800000000003,-0.615319,0.774433,0.147036,1.961034,-2.325093,0.56395,0.6615989999999999,-1.084843,-0.05311799999999999
759,-1.7754439999999998,-0.9250959999999999,0.39321999999999996,-0.5891890000000001,0.798678,0.12228800000000001,3.1578720000000002,-1.096552,1.852602,0.632142,-0.9367549999999999,0.18713
760,-1.715831,-0.977181,0.476756,-0.553475,0.828924,0.080841,2.2424,-0.13356400000000002,2.1184380000000003,-0.086677,-0.289389,0.724777
761,-1.7212330000000002,-1.009385,0.491148,-0.526356,0.846504,0.079786,-0.02298,-1.660025,1.133556,-0.963268,1.480461,0.780413
762,-1.787956,-1.0015479999999999,0.481994,-0.5263260000000001,0.842306,0.116128,0.046699,-3.167985,-1.172452,-0.813227,2.858988,1.25553
763,-1.8042150000000001,-0.970118,0.503189,-0.549862,0.824952,0.13073099999999999,0.080782,-0.9127069999999999,-1.756217,0.0975,0.331206,0.607276
764,-1.806935,-0.9400139999999999,0.506376,-0.573397,0.807567,0.137975,-0.521113,0.260252,-1.257723,0.8115859999999999,-0.715434,0.477336
765,-1.766448,-0.930745,0.51049,-0.5858300000000001,0.8020649999999999,0.116104,0.529584,2.757737,0.10733,0.790099,0.652418,0.31948899999999997
766,-1.680064,-0.957909,0.514846,-0.571789,0.817991,0.06272799999999999,0.220453,4.121595,1.8948310000000002,1.1086850000000001,1.645358,-0.787154
767,-1.6602830000000002,-0.993922,0.497259,-0.543212,0.8381719999999999,0.04874,-0.554709,0.9271940000000001,1.677729,0.994506,0.407449,0.077953
768,-1.624717,-1.018649,0.489489,-0.523741,0.8514,0.028268,0.231494,2.5699669999999997,0.9675440000000001,0.25408800000000004,-0.120474,-0.424203
769,-1.54305,-1.03535,0.519107,-0.510016,0.8600409999999999,-0.014155000000000001,1.111526,2.90714,0.867505,0.29030500000000004,-0.00091,-0.6971189999999999
770,-1.4219469999999998,-1.063567,0.591674,-0.480375,0.874094,-0.072036,1.894506,2.906984,2.090747,0.29646100000000003,0.093726,-0.602143
771,-1.271842,-1.1106260000000001,0.699114,-0.42439099999999996,0.895977,-0.130793,1.9081080000000001,2.5169029999999997,3.1905419999999998,0.251799,0.35979099999999997,-0.194615
772,-1.116107,-1.1591209999999998,0.836644,-0.359478,0.916452,-0.175731,1.6989880000000002,0.734956,3.308864,-0.099155,0.36745300000000003,-0.18665
773,-0.967203,-1.1940709999999999,1.0074969999999999,-0.302863,0.929874,-0.208802,2.360364,-0.780932,3.002437,-0.423501,0.187069,0.27226300000000003
774,-0.7763979999999999,-1.1924,1.2187540000000001,-0.258857,0.929258,-0.263559,3.0722419999999997,0.204814,2.028723,-0.295159,-0.49616800000000005,0.5028779999999999
775,-0.647208,-1.182698,1.334913,-0.228171,0.92563,-0.30189099999999996,1.007629,1.226219,0.938362,0.15438,-0.681261,0.496929
776,-0.594386,-1.177805,1.37142,-0.214448,0.923768,-0.317265,0.5402279999999999,0.946366,0.200519,0.329286,-0.600739,0.36414
777,-0.54367,-1.167945,1.393661,-0.202791,0.919947,-0.335508,0.7802180000000001,1.8182490000000002,0.136985,0.33978400000000003,-0.313197,0.20252799999999999
778,-0.469825,-1.152742,1.439418,-0.18379700000000002,0.9138799999999999,-0.36198600000000003,1.2834139999999998,1.30626,0.663516,0.338552,-0.10913199999999999,0.11165
779,-0.387689,-1.138727,1.5099770000000001,-0.158305,0.908101,-0.387666,1.080653,0.845817,1.165823,-0.07170599999999999,-0.05815599999999999,0.5876319999999999
780,-0.30521,-1.132878,1.56741,-0.127423,0.9056360000000001,-0.404449,0.50832,1.943799,0.9425,-0.3828,-0.06200800000000001,0.577408
781,-0.22664299999999998,-1.130729,1.610603,-0.095724,0.9047229999999999,-0.41509799999999997,0.215808,1.8088419999999998,0.846627,-0.47809799999999997,0.124787,0.246367
782,-0.162732,-1.134407,1.651087,-0.068477,0.906284,-0.41707799999999995,-0.110323,1.169756,0.843031,-0.567814,0.072385,0.38765900000000003
783,-0.117791,-1.137578,1.679296,-0.049333,0.9076190000000001,-0.41687700000000005,-0.030092,0.831208,0.455193,-0.610793,0.068897,0.403251
784,-0.095972,-1.139564,1.693656,-0.040053,0.908451,-0.416059,-0.049545,0.11191199999999998,0.26476700000000003,-0.858857,0.004924,-0.020633000000000002
785,-0.101647,-1.129923,1.6992459999999998,-0.0433,0.904379,-0.424519,0.887099,-0.794113,-0.145205,-1.1593209999999998,0.044045999999999995,0.089405
786,-0.14118499999999998,-1.119582,1.67861,-0.061360000000000005,0.899918,-0.431712,-0.355134,-1.0512489999999999,-0.564818,-0.657146,0.279281,0.966777
787,-0.201173,-1.145055,1.629048,-0.082523,0.910733,-0.404659,-1.6049440000000001,-0.779342,-1.144326,-0.6114930000000001,0.22392600000000001,0.31650900000000004
788,-0.314467,-1.168251,1.512043,-0.121173,0.920067,-0.372541,-2.0793169999999996,-0.10235599999999999,-2.463489,-0.30883499999999997,0.365532,0.45268
