,attitude.roll,attitude.pitch,attitude.yaw,gravity.x,gravity.y,gravity.z,rotationRate.x,rotationRate.y,rotationRate.z,userAcceleration.x,userAcceleration.y,userAcceleration.z
0,-0.251917,-1.007778,-1.1105260000000001,-0.13304000000000002,0.845648,-0.516893,2.0530180000000002,-1.8159939999999999,0.533341,-0.021608000000000002,-0.561071,0.455003
1,-0.26202800000000004,-0.979147,-1.081964,-0.144474,0.8300219999999999,-0.5386920000000001,1.265031,-1.70687,0.301234,-0.059048,-0.59406,0.524288
2,-0.282841,-0.964609,-1.067819,-0.159005,0.8218260000000001,-0.547099,0.5367310000000001,-1.5502610000000001,0.13037200000000002,-0.08625,-0.7178680000000001,0.540904
3,-0.307194,-0.962924,-1.065587,-0.172698,0.820865,-0.544385,-0.175378,-1.084898,-0.010863,-0.016846,-0.697559,0.499493
4,-0.326427,-0.976345,-1.0750709999999999,-0.179587,0.828456,-0.530479,-1.053977,-0.288081,-0.045794999999999995,0.034537,-0.562983,0.32271500000000003
5,-0.34394,-1.005125,-1.095153,-0.180732,0.8442290000000001,-0.50459,-1.810905,0.082048,-0.041942,0.009941,-0.550268,0.059338999999999996
6,-0.369399,-1.047488,-1.12822,-0.18043599999999999,0.8661700000000001,-0.46603599999999995,-2.578682,0.13492300000000002,-0.078351,-0.0043170000000000005,-0.5914510000000001,-0.219984
7,-0.412933,-1.100264,-1.1768129999999999,-0.18193199999999998,0.8913270000000001,-0.415253,-2.955757,-0.172819,-0.047478,-0.061171,-0.369202,-0.516388
8,-0.46845299999999995,-1.145923,-1.226621,-0.186112,0.911091,-0.367796,-2.02157,-0.9283520000000001,0.004881,-0.007673999999999999,0.07803,-0.692126
9,-0.507696,-1.148088,-1.2418040000000001,-0.199439,0.9119809999999999,-0.358486,0.9042979999999999,-0.73673,-0.368033,0.18454600000000002,2.088064,-0.478779
10,-0.438942,-1.1118379999999999,-1.192294,-0.188272,0.8965139999999999,-0.401015,2.672686,1.57314,0.40727399999999997,-0.593268,0.220063,-1.028505
11,-0.369582,-1.067325,-1.1168129999999998,-0.174279,0.8759129999999999,-0.44988999999999996,2.3793040000000003,-0.586957,0.8566459999999999,0.381387,-1.429716,-0.946533
12,-0.354985,-1.053267,-1.0797430000000001,-0.171957,0.869044,-0.46388599999999997,0.083273,-1.094709,0.35415,0.421408,-1.297191,-0.642849
13,-0.38945,-1.07674,-1.093002,-0.180043,0.880417,-0.43868999999999997,-1.8269959999999998,-1.0282959999999999,0.054438,0.077489,-0.164108,0.388946
14,-0.421854,-1.110963,-1.125804,-0.181713,0.896127,-0.404889,-1.6673619999999998,0.6314529999999999,-0.096125,-0.421207,1.327125,0.7995270000000001
15,-0.40989200000000003,-1.124793,-1.157584,-0.171901,0.902178,-0.39562800000000004,-0.12449400000000001,2.214738,-0.43882200000000005,-0.905934,1.8824439999999998,0.76158
16,-0.380985,-1.090667,-1.136025,-0.171748,0.886935,-0.42877299999999996,1.6219290000000002,0.285036,0.033049,-0.051870000000000006,-1.2802149999999999,0.908723
17,-0.387813,-1.110126,-1.1557899999999999,-0.16811099999999998,0.895755,-0.411533,-2.0512330000000003,0.10257999999999999,-0.43782299999999996,-0.396967,-1.041339,0.379612
18,-0.444213,-1.137772,-1.217583,-0.180328,0.907701,-0.37889,-1.606396,0.727603,-0.749574,0.080307,-0.25050500000000003,0.172485
19,-0.47339499999999995,-1.177473,-1.298979,-0.17473,0.9236409999999999,-0.341107,-2.936849,2.262668,-0.396571,0.399919,1.06635,0.697522
20,-0.511832,-1.222544,-1.35635,-0.16713599999999998,0.9399709999999999,-0.297519,-1.953898,0.0063479999999999995,0.365215,-0.125314,0.296403,0.275516
21,-0.5503600000000001,-1.253889,-1.392671,-0.162977,0.950204,-0.265608,-1.761168,-0.143307,0.061241,-0.203203,-0.06759,0.187773
22,-0.6483979999999999,-1.284302,-1.500721,-0.170656,0.95924,-0.22523600000000002,-2.353914,0.559817,-0.7663310000000001,-0.180357,-0.281506,0.124329
23,-0.8076949999999999,-1.310457,-1.680639,-0.186023,0.966303,-0.17790699999999998,-2.640886,0.832232,-0.9759200000000001,-0.115888,-0.072031,0.18192
24,-0.983664,-1.3298159999999999,-1.880454,-0.198681,0.9711049999999999,-0.132204,-2.427971,0.8481639999999999,-0.616599,-0.05135,0.11968499999999999,0.23781
25,-1.138749,-1.3465,-2.0535419999999998,-0.20197400000000001,0.974951,-0.09312999999999999,-1.992947,0.548601,-0.139954,0.017556,-0.21813000000000002,0.137228
26,-1.295764,-1.355624,-2.222865,-0.20548200000000003,0.9769399999999999,-0.057984,-1.8715400000000002,0.369735,-0.270268,-0.0025109999999999998,-0.22507800000000003,0.068497
27,-1.461294,-1.35614,-2.396383,-0.21172600000000003,0.97705,-0.023278,-1.74115,0.12026099999999999,-0.333131,0.079326,-0.076369,0.042168000000000004
28,-1.601845,-1.351177,-2.542496,-0.217744,0.97598,0.006763,-1.448022,0.08187,-0.310738,0.15321500000000002,-0.053678,-0.091754
29,-1.7132180000000001,-1.343032,-2.6568,-0.22350599999999998,0.974174,0.032049,-1.2276799999999999,-0.021200999999999998,-0.300521,0.144343,-0.128776,-0.203085
30,-1.8113810000000001,-1.332254,-2.755364,-0.22947399999999998,0.971683,0.056298,-1.245541,-0.201154,-0.304688,0.151349,-0.15987,-0.214456
31,-1.910944,-1.319309,-2.851122,-0.23458,0.968543,0.08301900000000001,-1.3146639999999998,-0.372487,-0.288928,0.202933,-0.09497799999999999,-0.18484
32,-2.002765,-1.3030959999999998,-2.939571,-0.24020999999999998,0.964382,0.11073800000000002,-1.3939780000000002,-0.283522,-0.356894,0.12883599999999998,-0.12907000000000002,-0.173894
33,-2.082507,-1.2814459999999999,-3.0159700000000003,-0.248775,0.9584299999999999,0.139714,-1.431872,-0.382666,-0.5717439999999999,-0.029591000000000003,-0.035013,-0.230275
34,-2.143774,-1.256905,-3.069354,-0.259445,0.951139,0.167388,-1.179486,-0.5388649999999999,-0.623192,0.020721,0.081606,-0.347366
35,-2.176733,-1.239247,-3.096118,-0.26755300000000004,0.9455389999999999,0.185384,-0.648805,-0.240054,-0.41797399999999996,0.168462,0.181719,-0.431859
36,-2.184437,-1.2298790000000002,-3.107992,-0.273347,0.942448,0.19253299999999998,-0.3482,0.417338,-0.175299,0.347612,0.266505,-0.267514
37,-2.185825,-1.22619,-3.119533,-0.275918,0.941208,0.194917,-0.185756,0.42561800000000005,0.010628,0.360437,0.364532,-0.080354
38,-2.1843209999999997,-1.224852,-3.119401,-0.27724,0.9407559999999999,0.195226,0.036099,-0.196734,-0.12375799999999999,-0.022213999999999998,0.34174499999999997,-0.317571
39,-2.177134,-1.2259,-3.108028,-0.277826,0.941111,0.192667,0.30207399999999995,0.012706,0.016701,-0.165244,0.14594100000000002,-0.398294
40,-2.14452,-1.2349709999999998,-3.087514,-0.27678,0.944139,0.178865,0.721386,0.996617,0.286493,-0.017623,0.24006599999999997,-0.156907
41,-2.078097,-1.255673,-3.040899,-0.270897,0.950758,0.15057,1.456394,1.078984,0.6290789999999999,0.133018,0.21530300000000002,-0.032375
42,-1.959791,-1.285596,-2.938122,-0.260326,0.9596049999999999,0.10670199999999999,2.324116,0.9713450000000001,0.687621,0.025356,0.446507,-0.074903
43,-1.7748380000000001,-1.314386,-2.763191,-0.24834499999999998,0.9673069999999999,0.051387999999999996,2.793945,0.800417,0.667621,-0.418205,0.462717,-0.039669
44,-1.545906,-1.331225,-2.549972,-0.237209,0.97144,-0.005905,2.551405,1.307774,0.540295,-0.435155,0.364711,0.23063699999999998
45,-1.297608,-1.331904,-2.3295369999999997,-0.227848,0.971601,-0.063841,2.6683939999999997,1.977157,0.341565,-0.348858,0.50989,0.37109200000000003
46,-1.0365520000000001,-1.316026,-2.102198,-0.216901,0.9677209999999999,-0.128326,2.910618,1.825798,0.420363,-0.276873,0.49030200000000007,0.23594600000000002
47,-0.8295899999999999,-1.2892569999999999,-1.912909,-0.20494400000000002,0.9606290000000001,-0.187586,2.7270369999999997,0.8230940000000001,0.38297800000000004,-0.330227,0.520786,0.17540999999999998
48,-0.685443,-1.2523950000000001,-1.7656509999999999,-0.198164,0.949737,-0.242342,2.9460740000000003,-0.350302,0.325123,-0.314364,0.375291,0.304521
49,-0.583803,-1.206309,-1.635134,-0.196486,0.934307,-0.297428,3.2596529999999997,-1.455427,0.42807399999999995,-0.14291500000000001,0.23860599999999998,0.45183100000000004
50,-0.506512,-1.15195,-1.5172809999999999,-0.197305,0.913559,-0.35564,3.603167,-1.545658,0.583344,-0.135474,0.058990999999999995,0.46474
51,-0.436878,-1.093921,-1.410947,-0.19421,0.888433,-0.415893,3.564186,-1.211926,0.8080390000000001,-0.129734,-0.065725,0.431228
52,-0.392465,-1.041596,-1.327404,-0.19308599999999998,0.8632110000000001,-0.466459,2.957694,-1.611216,0.754108,-0.081084,-0.33061799999999997,0.387922
53,-0.375417,-0.998129,-1.268184,-0.198684,0.8404590000000001,-0.5041359999999999,2.384234,-1.7127330000000003,0.531247,-0.025285,-0.32726,0.43739399999999995
54,-0.37495100000000003,-0.9630719999999999,-1.22627,-0.209116,0.82095,-0.53133,1.899498,-1.7104270000000001,0.375103,-0.008414,-0.45315200000000005,0.521625
55,-0.38513600000000003,-0.935054,-1.1985940000000002,-0.223072,0.804631,-0.5502779999999999,1.374203,-1.5468309999999998,0.145829,0.032184,-0.56397,0.563279
56,-0.399464,-0.919609,-1.184517,-0.23573899999999998,0.795365,-0.5584100000000001,0.55601,-1.110158,0.078666,0.040823000000000005,-0.581711,0.5357350000000001
57,-0.414508,-0.919703,-1.182625,-0.244083,0.7954220000000001,-0.554732,-0.303762,-0.627691,0.050677,0.058582,-0.571194,0.408781
58,-0.42813,-0.935042,-1.192109,-0.246521,0.804624,-0.540191,-1.0922399999999999,-0.142464,0.068053,0.064652,-0.5018739999999999,0.228546
59,-0.443592,-0.962142,-1.2098209999999998,-0.24539299999999997,0.820418,-0.516426,-1.636196,-0.042822000000000006,0.130355,0.082429,-0.461791,0.11019100000000001
60,-0.46708500000000003,-0.9981209999999999,-1.2351860000000001,-0.24400100000000002,0.840454,-0.483838,-2.105402,-0.20639899999999997,0.151856,0.08325,-0.480149,-0.013111000000000001
61,-0.505469,-1.040434,-1.272308,-0.244939,0.862624,-0.442587,-2.3877919999999997,-0.395991,0.123421,-0.055781,-0.049925,-0.601312
62,-0.549347,-1.078689,-1.313059,-0.246698,0.881339,-0.402965,-1.8405630000000002,-0.490275,0.050453,-0.0539,0.40494600000000003,-0.740987
63,-0.585065,-1.085206,-1.334347,-0.257753,0.8844,-0.38910100000000003,0.386995,-0.787868,-0.452762,-0.412078,1.784714,-0.377836
64,-0.549796,-1.056162,-1.303258,-0.257189,0.8704729999999999,-0.419678,2.186471,0.80925,0.050211,-0.531766,0.695659,-0.581588
65,-0.496622,-1.020332,-1.2442879999999998,-0.249227,0.852282,-0.459892,2.070255,-0.27916799999999997,0.609474,-0.243601,-0.188586,-0.7559739999999999
66,-0.47212200000000004,-1.004813,-1.203913,-0.24387199999999998,0.8440620000000001,-0.477583,0.605455,-0.6187630000000001,0.49071899999999996,0.312415,-0.83895,-0.578448
67,-0.48985100000000004,-1.01147,-1.1930479999999999,-0.249651,0.847613,-0.46821499999999994,-0.587168,-1.784223,0.471063,0.3109,-0.32294,-0.093811
68,-0.512653,-1.038916,-1.192245,-0.248754,0.8618549999999999,-0.441957,-1.443853,-0.27408299999999997,0.785747,0.06653400000000001,0.7648689999999999,0.292223
69,-0.488199,-1.067304,-1.1996950000000002,-0.226304,0.8759030000000001,-0.426122,-1.2043780000000002,2.450887,0.31390999999999997,-0.5052939999999999,1.875623,0.8287399999999999
70,-0.42371899999999996,-1.070921,-1.176092,-0.197072,0.877642,-0.43692700000000007,1.1826139999999998,1.3529719999999998,0.8116220000000001,-0.307292,-1.598407,0.8787149999999999
71,-0.408819,-1.071356,-1.171836,-0.190388,0.877851,-0.43946499999999994,-1.250709,0.005792,-0.372284,-0.31397600000000003,-1.598615,0.881252
72,-0.48545299999999997,-1.094258,-1.235926,-0.214036,0.8885879999999999,-0.405708,-1.6507459999999998,-1.296424,-0.978023,-0.00151,-0.214973,0.195549
73,-0.553569,-1.1273799999999998,-1.3251979999999999,-0.22555,0.903291,-0.364953,-3.094921,1.908681,-0.71448,0.792674,1.278334,0.773019
74,-0.605821,-1.177727,-1.420493,-0.218108,0.923738,-0.314859,-2.815025,1.0568170000000001,0.018162,0.162444,0.7956529999999999,0.633599
75,-0.657933,-1.212734,-1.472276,-0.214299,0.936578,-0.277303,-1.646653,-0.7753140000000001,0.301068,-0.159313,-0.153298,0.11057
76,-0.749656,-1.241565,-1.543664,-0.220302,0.946291,-0.236641,-2.13605,-1.226391,-0.223065,-0.158681,-0.368319,0.029120999999999998
77,-0.906904,-1.268434,-1.695832,-0.23452699999999999,0.954636,-0.18348499999999998,-2.823457,0.013021000000000001,-0.815908,-0.114076,-0.012740999999999999,0.152265
78,-1.08046,-1.283349,-1.891874,-0.25009899999999996,0.9589709999999999,-0.133508,-2.65253,0.906618,-0.9216139999999999,-0.14692,0.132277,0.240594
79,-1.2189459999999999,-1.291769,-2.048717,-0.25854499999999997,0.961324,-0.09491799999999999,-1.8882900000000002,0.275752,-0.197622,-0.170487,-0.044805000000000005,0.21589
80,-1.3291879999999998,-1.299763,-2.159933,-0.259947,0.9634950000000001,-0.064057,-1.381432,-0.31552199999999997,-0.09291100000000001,-0.01581,-0.24428699999999998,0.067444
81,-1.42429,-1.300173,-2.248935,-0.264465,0.9636040000000001,-0.039026,-1.092518,-0.51194,-0.24126,0.022827,-0.214062,-0.104651
82,-1.510813,-1.299485,-2.331334,-0.26750999999999997,0.96342,-0.016065,-1.1174520000000001,-0.20356300000000002,-0.081596,0.207146,-0.079128,-0.125887
83,-1.595077,-1.298967,-2.4190650000000002,-0.268412,0.9632809999999999,0.006519,-1.203861,0.079924,-0.037698,0.22199499999999997,-0.090677,-0.088443
84,-1.68058,-1.296737,-2.507845,-0.269009,0.96268,0.029651999999999998,-1.1961600000000001,-0.104401,-0.03634,0.170086,-0.127841,-0.089176
85,-1.768989,-1.2909700000000002,-2.593946,-0.270778,0.961103,0.05438,-1.198567,-0.310471,-0.18243900000000002,0.160915,-0.24523699999999998,-0.095884
86,-1.853446,-1.27898,-2.674568,-0.276273,0.957723,0.080237,-1.281192,-0.38392600000000005,-0.38908899999999996,0.04054,-0.097386,-0.113043
87,-1.93546,-1.261197,-2.751766,-0.284639,0.952456,0.10865699999999999,-1.4419870000000001,-0.43402299999999994,-0.50872,0.010865999999999999,0.019712,-0.253707
88,-2.0156709999999998,-1.239509,-2.82971,-0.293598,0.945625,0.13997300000000001,-1.5913979999999999,-0.200234,-0.502586,0.06360199999999999,-0.046745,-0.361194
89,-2.075382,-1.21871,-2.8909860000000003,-0.30187600000000003,0.9386549999999999,0.166718,-1.158146,-0.079639,-0.40037,0.100216,-0.004787,-0.378479
90,-2.100971,-1.2080229999999998,-2.915983,-0.306149,0.934916,0.17945,-0.369579,-0.046072,-0.154554,0.318783,0.151647,-0.31951
91,-2.103338,-1.206148,-2.923664,-0.307234,0.934249,0.181064,-0.10374100000000001,0.449608,0.065653,0.5784279999999999,0.390671,-0.140522
92,-2.097383,-1.207059,-2.928662,-0.307571,0.934574,0.178804,-0.00395,0.337413,0.06435700000000001,0.202148,0.442272,-0.204515
93,-2.093196,-1.208612,-2.91784,-0.30706,0.935125,0.176791,0.34905,-0.538938,-0.067718,-0.22004,0.235163,-0.481936
94,-2.070933,-1.214099,-2.894268,-0.30641199999999996,0.937055,0.167448,0.5676359999999999,0.601394,0.153469,-0.072402,-0.026577999999999997,-0.312346
95,-2.01363,-1.225818,-2.857943,-0.305556,0.941083,0.14490899999999998,1.037089,1.187361,0.26282,0.073744,0.035724,-0.279018
96,-1.9089880000000001,-1.243765,-2.77155,-0.303037,0.947,0.106579,2.065875,1.283795,0.296588,0.165998,0.18501900000000002,0.045597000000000006
97,-1.730525,-1.2611450000000002,-2.616822,-0.300847,0.95244,0.048467,2.7492919999999996,1.58318,0.226202,-0.207621,0.9096209999999999,0.067958
98,-1.526511,-1.273673,-2.425831,-0.292483,0.956183,-0.012961000000000002,2.9341939999999997,0.896908,0.65673,-0.47819300000000003,0.86265,0.291663
99,-1.3171030000000001,-1.279158,-2.2313560000000003,-0.278319,0.957774,-0.072162,2.613408,1.4371040000000002,0.643115,-0.600328,0.3373,0.188175
100,-1.109788,-1.27254,-2.051747,-0.263177,0.95585,-0.130721,2.5968310000000003,1.9572759999999998,0.5782390000000001,-0.236564,0.564245,0.24227800000000002
101,-0.902294,-1.2501879999999999,-1.8738279999999998,-0.24731,0.949044,-0.19533,3.056294,1.772861,0.47699899999999995,-0.30634,0.7022619999999999,0.066653
102,-0.73987,-1.217119,-1.72128,-0.233506,0.938105,-0.255799,2.8429450000000003,0.231692,0.590715,-0.290145,0.6957909999999999,0.024262
103,-0.631789,-1.180087,-1.593976,-0.22492199999999998,0.924639,-0.30733,2.99907,-0.84172,0.625228,-0.164528,0.2861,0.347247
104,-0.54972,-1.133951,-1.476641,-0.22103899999999999,0.906091,-0.36075,3.372543,-1.43892,0.729015,-0.162384,0.259726,0.457262
105,-0.475987,-1.0827129999999998,-1.3627879999999999,-0.214873,0.883233,-0.416807,3.460956,-1.346934,1.091642,-0.118684,0.19477,0.49818199999999996
106,-0.416653,-1.0330549999999998,-1.262958,-0.207287,0.8588680000000001,-0.46837799999999996,3.1413889999999998,-1.45137,1.111976,-0.030369,-0.171322,0.396326
107,-0.384972,-0.988699,-1.187201,-0.206459,0.835311,-0.509538,2.6310689999999997,-1.7225849999999998,0.914343,-0.017662,-0.37705900000000003,0.39065700000000003
108,-0.37453600000000004,-0.951822,-1.133665,-0.212261,0.814474,-0.539979,2.038773,-1.574482,0.621596,-0.042057,-0.45583199999999996,0.407303
109,-0.374705,-0.925908,-1.097043,-0.220005,0.799167,-0.559401,1.3238379999999998,-1.500069,0.48084399999999994,-0.020626,-0.684512,0.552016
110,-0.383843,-0.9135260000000001,-1.073843,-0.22879499999999997,0.791663,-0.5665,0.538913,-1.2902850000000001,0.381089,-0.011836,-0.677009,0.559114
111,-0.39802600000000005,-0.91399,-1.0639129999999999,-0.23666500000000001,0.791946,-0.562859,-0.180326,-0.9868180000000001,0.24001199999999998,0.056611,-0.679046,0.49886400000000003
112,-0.414523,-0.9267709999999999,-1.0661889999999998,-0.241821,0.7996850000000001,-0.549569,-0.86418,-0.576156,0.16741099999999998,0.11248699999999999,-0.5613739999999999,0.361809
113,-0.43345900000000004,-0.950419,-1.079811,-0.244171,0.813659,-0.527578,-1.465538,-0.31602600000000003,0.10519300000000001,0.120941,-0.53601,0.289984
114,-0.459866,-0.984115,-1.104545,-0.24570300000000003,0.8327829999999999,-0.49608800000000003,-2.044816,-0.33625700000000003,0.07233099999999999,0.124274,-0.588306,0.161081
115,-0.502251,-1.028324,-1.1427370000000001,-0.248525,0.8564350000000001,-0.45249799999999996,-2.635392,-0.628518,0.145492,0.009572,-0.468038,-0.35382199999999997
116,-0.559794,-1.07366,-1.19069,-0.253245,0.8789520000000001,-0.404116,-2.254414,-0.9362739999999999,0.054544,-0.050344,-0.30950900000000003,-0.541578
117,-0.6103,-1.0795780000000001,-1.214317,-0.270338,0.881759,-0.386547,0.724841,-1.469247,-0.578783,0.08605700000000001,1.186692,-0.771489
118,-0.563081,-1.041253,-1.1759899999999999,-0.26964,0.863038,-0.42715200000000003,2.62374,1.719618,0.047827,-0.718062,0.987609,-0.784808
119,-0.494717,-0.997347,-1.10921,-0.257585,0.8400340000000001,-0.477484,2.546042,-0.364682,0.535996,-0.036818000000000004,-0.974678,-1.168267
120,-0.482429,-0.976189,-1.067069,-0.259887,0.828369,-0.49625,0.778629,-1.5289709999999999,0.455708,0.291976,-1.310241,-0.810651
121,-0.519913,-0.9856280000000001,-1.0673709999999998,-0.274405,0.833619,-0.47935500000000003,-1.01235,-1.7664900000000001,0.134786,0.357611,-0.190934,0.091446
122,-0.5419149999999999,-1.002958,-1.0855,-0.27739,0.843066,-0.460754,-1.121301,1.062054,-0.096062,-0.258956,1.412428,0.9475709999999999
123,-0.523629,-1.0071350000000001,-1.125376,-0.267156,0.845305,-0.462696,0.433288,1.9789740000000002,-1.1054620000000002,-1.499842,1.583132,0.30173099999999997
124,-0.505239,-0.98536,-1.106062,-0.26745,0.833471,-0.483525,-0.022165,0.069298,0.528183,0.139444,-1.219824,0.68137
125,-0.529937,-1.020437,-1.1317979999999999,-0.264362,0.8523370000000001,-0.451259,-2.174618,-0.35034099999999996,-0.022562,-0.055294,-0.816631,0.179195
126,-0.555389,-1.057924,-1.184321,-0.25872399999999995,0.871339,-0.41693,-2.838756,2.073514,-0.33368200000000003,0.48838400000000004,0.8323969999999999,0.58586
127,-0.598067,-1.112168,-1.275842,-0.249271,0.896661,-0.365874,-3.391668,1.251236,-0.149551,0.198184,1.050925,0.55078
128,-0.650737,-1.154947,-1.338981,-0.24471199999999999,0.914774,-0.321411,-2.07849,-0.0036299999999999995,0.30240500000000003,-0.132271,0.279074,0.380997
129,-0.703066,-1.1919819999999999,-1.40059,-0.23911,0.929104,-0.282121,-2.381885,0.398862,0.078648,-0.144511,-0.21372600000000003,0.190004
130,-0.8091109999999999,-1.230377,-1.521484,-0.241621,0.942615,-0.23042600000000002,-3.035968,0.358403,-0.424729,-0.091173,-0.18196400000000001,0.223514
131,-0.9578639999999999,-1.2588469999999998,-1.6884009999999998,-0.251044,0.951737,-0.176557,-2.830165,0.603529,-0.63084,-0.076517,-0.075654,0.270277
132,-1.099518,-1.275501,-1.852197,-0.259296,0.956716,-0.132131,-2.335112,0.7620359999999999,-0.47269300000000003,-0.114224,-0.032354,0.23769099999999999
133,-1.2194530000000001,-1.288187,-1.990073,-0.261825,0.9603309999999999,-0.095972,-1.913368,0.508668,-0.08165800000000001,-0.015854,-0.206333,0.192637
134,-1.332471,-1.2969600000000001,-2.1151869999999997,-0.262782,0.9627399999999999,-0.063841,-1.679597,0.252372,-0.126698,0.076212,-0.24623299999999998,0.087812
135,-1.438783,-1.298405,-2.2266529999999998,-0.26669299999999996,0.9631299999999999,-0.035413,-1.359157,0.0013039999999999998,-0.222415,0.15466300000000002,-0.16238,-0.014163
136,-1.527319,-1.2974860000000001,-2.318457,-0.269663,0.962883,-0.011732,-1.195388,-0.018837,-0.12296900000000001,0.236276,-0.109382,-0.134875
137,-1.6155540000000002,-1.295246,-2.410272,-0.271801,0.962276,0.012173,-1.301012,0.0038090000000000003,-0.100235,0.251324,-0.19158499999999998,-0.15543800000000002
138,-1.7125849999999998,-1.290658,-2.509401,-0.27371100000000004,0.961017,0.039070999999999995,-1.4009639999999999,-0.163073,-0.104992,0.235427,-0.25194099999999997,-0.091119
139,-1.808813,-1.282562,-2.604217,-0.27624299999999996,0.9587469999999999,0.067021,-1.3650930000000001,-0.332258,-0.184641,0.21064499999999997,-0.190956,-0.07420800000000001
140,-1.899014,-1.2699610000000001,-2.688678,-0.280497,0.955089,0.095519,-1.376016,-0.512817,-0.30946799999999997,0.015528,-0.028437999999999998,-0.19053499999999998
141,-1.9843520000000001,-1.251745,-2.76862,-0.287221,0.949533,0.126051,-1.511275,-0.380681,-0.468679,0.036092,-0.024973,-0.288679
142,-2.050574,-1.229219,-2.834292,-0.29715199999999997,0.9422280000000001,0.154617,-1.333603,-0.13687,-0.5884590000000001,0.027544,0.112704,-0.31106500000000004
143,-2.083647,-1.211568,-2.866004,-0.306323,0.936168,0.172493,-0.633681,-0.23039899999999996,-0.44992299999999996,0.05292,0.267842,-0.45619899999999997
144,-2.091878,-1.203674,-2.875079,-0.311292,0.933364,0.178681,-0.223975,0.298589,-0.15931900000000002,0.34313699999999997,0.338669,-0.392381
145,-2.086182,-1.202028,-2.882431,-0.31364200000000003,0.9327719999999999,0.17766300000000002,-0.105825,0.69358,0.061054,0.46831999999999996,0.475813,-0.040929
146,-2.079057,-1.20298,-2.8788110000000002,-0.314123,0.9331149999999999,0.174991,0.230818,-0.23501999999999998,-0.044363,-0.14948399999999998,0.408423,-0.342853
147,-2.071364,-1.207498,-2.8583830000000003,-0.311759,0.93473,0.170544,0.570191,-0.512811,0.132483,-0.183999,0.36715,-0.369977
148,-2.031571,-1.222842,-2.8213049999999997,-0.30541399999999996,0.9400719999999999,0.151612,1.180865,0.694654,0.541126,0.18265699999999999,0.261741,-0.030335
149,-1.9448560000000001,-1.24894,-2.746453,-0.294453,0.94865,0.115585,1.938848,0.7679010000000001,0.747152,0.142247,0.27211399999999997,-0.018493
150,-1.793448,-1.276202,-2.601972,-0.283184,0.9569200000000001,0.064114,2.791616,0.635786,0.5460430000000001,-0.34825500000000004,0.45251899999999995,-0.16084
151,-1.583032,-1.290667,-2.40285,-0.276457,0.9610200000000001,0.0033829999999999997,2.819051,1.292806,0.319998,-0.409425,0.146372,0.090642
152,-1.36754,-1.290937,-2.213156,-0.270532,0.961094,-0.05575700000000001,2.52807,1.732043,0.22019499999999997,-0.36859699999999995,0.345806,0.173433
153,-1.1539840000000001,-1.279366,-2.02862,-0.26272199999999996,0.957834,-0.11632100000000001,2.747257,1.9290509999999998,0.31334,-0.182606,0.433325,0.382862
154,-0.946332,-1.257862,-1.8470220000000002,-0.249752,0.951434,-0.179989,2.9551369999999997,1.474292,0.370923,-0.380268,0.49294799999999994,0.192333
155,-0.785792,-1.220242,-1.69402,-0.24292800000000003,0.939183,-0.24273699999999998,3.2118439999999997,0.205569,0.14360599999999998,-0.358894,0.469631,0.232498
156,-0.682003,-1.173416,-1.565558,-0.24394699999999997,0.9220780000000001,-0.300435,3.3256980000000005,-1.221492,0.20925500000000002,0.00945,0.288326,0.44045
157,-0.601418,-1.1208049999999998,-1.4506629999999998,-0.24610300000000002,0.900451,-0.358636,3.6720879999999996,-1.115845,0.395273,-0.007864,0.22338899999999998,0.450845
158,-0.530875,-1.062902,-1.342746,-0.246227,0.873771,-0.4194,3.784076,-1.3431030000000002,0.65272,-0.056920000000000005,0.167794,0.49322200000000005
159,-0.480519,-1.0069649999999999,-1.2471290000000002,-0.247033,0.8452139999999999,-0.47390600000000005,3.4659449999999996,-1.711186,0.802657,-0.15976600000000002,-0.222045,0.42993000000000003
160,-0.453214,-0.958158,-1.171766,-0.25178,0.818134,-0.516975,2.906603,-1.809239,0.766829,-0.125997,-0.208377,0.49896999999999997
161,-0.440151,-0.917625,-1.110732,-0.25893,0.7941600000000001,-0.5497850000000001,2.4512680000000002,-1.796848,0.7262460000000001,-0.085827,-0.24913200000000002,0.529018
162,-0.439025,-0.88576,-1.064934,-0.268934,0.774396,-0.5727,1.779626,-1.6127479999999998,0.55788,0.045408,-0.499829,0.48392399999999997
163,-0.443402,-0.8666860000000001,-1.0363930000000001,-0.277725,0.762188,-0.584754,0.93452,-1.123256,0.35907,0.08284,-0.568325,0.44434300000000004
164,-0.449534,-0.8615809999999999,-1.022168,-0.282992,0.7588729999999999,-0.586537,0.154648,-0.7196859999999999,0.27833,0.11062899999999999,-0.569893,0.438863
165,-0.458078,-0.8672479999999999,-1.017835,-0.286087,0.762552,-0.580231,-0.386302,-0.522725,0.243321,0.115723,-0.489587,0.417145
166,-0.468836,-0.88246,-1.020247,-0.287038,0.772304,-0.566706,-0.912026,-0.40926799999999997,0.298255,0.11021900000000001,-0.535121,0.328119
167,-0.484354,-0.9073129999999999,-1.030051,-0.286769,0.787852,-0.545025,-1.45913,-0.37535100000000005,0.28264,0.10773800000000001,-0.544245,0.23609499999999997
168,-0.5108699999999999,-0.9430620000000001,-1.052786,-0.28715799999999997,0.809361,-0.512323,-2.1474860000000002,-0.486678,0.21494899999999997,0.065005,-0.533787,-0.054587000000000004
169,-0.552198,-0.9862770000000001,-1.088211,-0.289451,0.8339780000000001,-0.46978500000000006,-2.4578919999999997,-0.677481,0.24720799999999998,-0.101937,-0.26896,-0.475512
170,-0.598847,-1.021671,-1.121913,-0.294212,0.852982,-0.43111499999999997,-1.355392,-1.191073,0.123108,-0.07811799999999999,0.61293,-0.779808
171,-0.61642,-1.010625,-1.1169930000000001,-0.307171,0.8471639999999999,-0.43354,1.564307,-0.35552,-0.370315,-0.333088,1.8198889999999999,-0.524727
172,-0.5635640000000001,-0.9730690000000001,-1.077847,-0.300629,0.826617,-0.475736,2.3292029999999997,0.9707690000000001,0.026434,-0.592208,0.25463600000000003,-0.752596
173,-0.53396,-0.942372,-1.032637,-0.299194,0.808955,-0.506038,1.683558,-1.0387819999999999,0.42935500000000004,0.18060299999999999,-0.994761,-0.817418
174,-0.540976,-0.9314,-1.004349,-0.307289,0.8024560000000001,-0.5115029999999999,0.409049,-1.6914740000000001,0.38817399999999996,0.47356400000000004,-0.777112,-0.41208100000000003
175,-0.570067,-0.9454370000000001,-1.001703,-0.315927,0.810753,-0.492817,-1.18331,-1.243163,0.479026,0.391885,-0.329872,0.076451
176,-0.585288,-0.9836090000000001,-1.024108,-0.306062,0.8325020000000001,-0.461805,-2.444013,1.179534,0.441479,-0.661467,1.4106459999999998,1.176725
177,-0.59642,-1.0267950000000001,-1.102167,-0.290706,0.8556450000000001,-0.42820600000000003,-2.592351,3.072269,-1.227341,-1.516865,2.136085,1.017562
178,-0.584643,-0.9959809999999999,-1.101269,-0.300057,0.8392930000000001,-0.453379,3.15972,-0.7126170000000001,-0.098067,-0.706092,0.346987,-0.13580899999999999
179,-0.578961,-1.006864,-1.0944,-0.292461,0.84516,-0.447404,-2.897677,0.372849,0.635896,0.570918,-1.5189270000000001,0.702378
180,-0.630609,-1.069289,-1.161519,-0.283465,0.876859,-0.388283,-2.973327,0.1906,0.191221,0.288256,-0.604032,0.236977
181,-0.679817,-1.1110360000000001,-1.243503,-0.278951,0.896159,-0.345084,-3.12659,1.816998,-0.40479699999999996,0.714971,1.146794,0.7066560000000001
182,-0.755043,-1.159,-1.35966,-0.274302,0.9164030000000001,-0.291481,-3.254467,0.9396110000000001,-0.127896,0.054789,1.237298,0.658486
183,-0.8416549999999999,-1.194858,-1.448866,-0.27379499999999996,0.930164,-0.244601,-2.066534,-0.6218239999999999,0.108866,-0.254571,-0.142184,0.400851
184,-0.9486870000000001,-1.215122,-1.545615,-0.282981,0.9374120000000001,-0.202925,-2.1237060000000003,-0.9778389999999999,-0.58649,-0.278283,-0.439579,0.248656
185,-1.10215,-1.223268,-1.69714,-0.30385100000000004,0.940218,-0.153829,-2.612115,-0.056705,-1.145489,-0.292813,-0.40417600000000004,0.09160399999999999
186,-1.2362360000000001,-1.231285,-1.859978,-0.314558,0.942918,-0.109349,-2.628739,1.413023,-0.24484099999999998,-0.30911500000000003,0.090438,0.173177
187,-1.3455709999999999,-1.250514,-2.004178,-0.306879,0.9491459999999999,-0.07031,-2.389377,1.1837879999999998,0.395921,0.040383999999999996,-0.064961,0.208875
188,-1.456774,-1.261393,-2.134032,-0.302508,0.952516,-0.034643,-1.8502009999999998,0.23299899999999998,0.069757,0.168444,-0.18040599999999998,0.130437
189,-1.54566,-1.262934,-2.224634,-0.302921,0.952983,-0.0076159999999999995,-1.139009,-0.21536,-0.044342,0.17107,-0.14039200000000002,0.006365
190,-1.617677,-1.2618,-2.296407,-0.303762,0.9526389999999999,0.014251,-1.144003,-0.136524,-0.041273000000000004,0.21909099999999998,-0.101199,-0.093459
191,-1.69744,-1.259925,-2.379943,-0.30343200000000004,0.952067,0.038635,-1.328072,0.064032,0.046915,0.270671,-0.047526,-0.17144700000000002
192,-1.7795169999999998,-1.256785,-2.467496,-0.302166,0.951102,0.064,-1.372053,0.022593000000000002,0.058411000000000005,0.184902,-0.126975,-0.14922
193,-1.863788,-1.248891,-2.555104,-0.302885,0.948634,0.09137200000000001,-1.450526,-0.06689400000000001,-0.138575,0.000975,-0.206889,-0.016742
194,-1.9393599999999998,-1.233682,-2.632105,-0.308546,0.9437129999999999,0.119164,-1.3784040000000002,-0.20026,-0.415638,-0.072176,-0.159549,-0.054772
195,-1.9987419999999998,-1.214699,-2.688827,-0.317176,0.937264,0.144676,-1.200338,-0.329353,-0.521051,-0.025674000000000002,0.020255000000000002,-0.28112
196,-2.04604,-1.196097,-2.734789,-0.325429,0.9306180000000001,0.167459,-1.086446,-0.064843,-0.434068,0.065373,0.10693399999999999,-0.541132
197,-2.0749720000000003,-1.181301,-2.7695990000000004,-0.332469,0.9251010000000001,0.183436,-0.801778,0.275532,-0.28617,0.14152,0.095346,-0.530313
198,-2.084632,-1.17282,-2.790629,-0.337503,0.921847,0.19048800000000002,-0.407459,0.591971,-0.10863199999999999,0.47614399999999996,0.238767,-0.23994200000000002
199,-2.076756,-1.170409,-2.795562,-0.340936,0.92091,0.18890099999999999,0.022693,0.674471,-0.06727799999999999,0.202004,0.425571,-0.18913
200,-2.057485,-1.171218,-2.779906,-0.343855,0.921225,0.181948,0.44284799999999996,-0.104554,-0.08791399999999999,-0.08076699999999999,0.39910300000000004,-0.337283
201,-2.033959,-1.1793360000000002,-2.753362,-0.341337,0.9243530000000001,0.170462,0.772489,0.27729899999999996,0.30380100000000004,-0.090685,0.115472,-0.196051
202,-1.973977,-1.197594,-2.712417,-0.335361,0.9311649999999999,0.143047,1.283065,1.4004,0.584734,0.12392,0.172809,-0.041592000000000004
203,-1.8624919999999998,-1.221912,-2.623993,-0.327405,0.9397549999999999,0.098307,2.275649,1.464134,0.569153,0.162778,0.283893,0.03858
204,-1.691919,-1.243416,-2.472768,-0.319205,0.946888,0.038853,2.866603,1.227617,0.596016,-0.396036,0.674236,0.192028
205,-1.491451,-1.2570709999999998,-2.28588,-0.30763,0.951191,-0.02446,2.878448,1.240406,0.584332,-0.614337,0.267941,0.241181
206,-1.294324,-1.257498,-2.111272,-0.296491,0.9513219999999999,-0.08412599999999999,2.5730060000000003,1.750143,0.449086,-0.494188,0.520648,0.271092
207,-1.090981,-1.246653,-1.940407,-0.28253,0.947924,-0.147022,2.810269,2.1506380000000003,0.5218010000000001,-0.290117,0.461775,0.285724
208,-0.899267,-1.219955,-1.780299,-0.26906199999999997,0.939084,-0.21383600000000003,2.952864,1.751939,0.20390899999999998,-0.341503,0.6164890000000001,0.060424
209,-0.7799649999999999,-1.183551,-1.656223,-0.265575,0.925953,-0.268477,2.906066,-0.8757370000000001,0.154607,-0.27466199999999996,0.37702600000000003,0.41590699999999997
210,-0.704882,-1.137942,-1.536429,-0.27178800000000003,0.9077719999999999,-0.319499,3.5948290000000003,-1.789494,0.294117,-0.10598900000000001,0.202656,0.622554
211,-0.621128,-1.079132,-1.412934,-0.27473600000000004,0.881548,-0.383916,4.10705,-1.1897790000000001,0.39626,-0.052657,0.126341,0.474416
212,-0.553038,-1.018858,-1.3065959999999999,-0.275421,0.85151,-0.446176,3.8973169999999997,-1.1227639999999999,0.6019439999999999,-0.048355,0.006812,0.517892
213,-0.505912,-0.9628260000000001,-1.221965,-0.276807,0.820809,-0.49964899999999995,3.3419260000000004,-1.299627,0.557699,-0.062899,-0.376031,0.33773800000000004
214,-0.485997,-0.915919,-1.161361,-0.284487,0.793122,-0.538538,2.6908950000000003,-1.492795,0.411325,-0.012159,-0.38145500000000004,0.469797
215,-0.47935,-0.877769,-1.1165200000000002,-0.294648,0.769315,-0.566865,2.0819970000000003,-1.21997,0.37788,-0.013915,-0.396863,0.528794
216,-0.48303599999999997,-0.851094,-1.0851540000000002,-0.30616,0.7520020000000001,-0.583745,1.400368,-1.358616,0.20985900000000002,0.073143,-0.507724,0.608479
217,-0.494752,-0.837418,-1.070489,-0.317832,0.742917,-0.5891149999999999,0.486311,-0.95224,0.076903,0.158667,-0.635373,0.514988
218,-0.5080979999999999,-0.839471,-1.070088,-0.324923,0.74429,-0.583487,-0.419758,-0.550625,0.061514,0.151309,-0.5891689999999999,0.40209
219,-0.523523,-0.8561559999999999,-1.080547,-0.32763000000000003,0.755329,-0.567571,-1.149844,-0.305527,0.14049,0.135659,-0.48421099999999995,0.31725
220,-0.543702,-0.8838530000000001,-1.099148,-0.32806399999999997,0.773188,-0.542728,-1.706058,-0.29437199999999997,0.230594,0.155914,-0.5097,0.238742
221,-0.572978,-0.922794,-1.1275819999999999,-0.327231,0.797291,-0.5071939999999999,-2.386589,-0.430763,0.296518,0.12296199999999999,-0.55077,-0.029807999999999998
222,-0.619909,-0.9721790000000001,-1.1703620000000001,-0.327372,0.8261149999999999,-0.45865100000000003,-2.883267,-0.695754,0.394869,0.037211,-0.486638,-0.458219
223,-0.674547,-1.017048,-1.215568,-0.328434,0.8505590000000001,-0.410706,-2.069402,-1.076341,0.293151,-0.077007,0.178142,-0.7738189999999999
224,-0.713357,-1.021582,-1.229618,-0.341595,0.852935,-0.394733,0.7065819999999999,-0.899734,-0.456805,-0.247455,1.928575,-0.512188
225,-0.663144,-0.987065,-1.191653,-0.339281,0.834412,-0.434332,2.474668,1.426626,-0.074626,-0.802565,0.991577,-0.6526890000000001
226,-0.606579,-0.953722,-1.129888,-0.329866,0.815575,-0.475421,2.084307,-0.46566499999999994,0.619416,-0.110045,-0.8301780000000001,-0.876767
227,-0.599583,-0.94319,-1.090957,-0.33136,0.8094359999999999,-0.484782,0.40830900000000003,-1.6411830000000003,0.603875,0.447571,-0.603228,-0.18169200000000002
228,-0.6351899999999999,-0.959886,-1.086293,-0.34034200000000003,0.819126,-0.46173500000000006,-1.043621,-1.799332,0.652688,0.38885,-0.22214099999999998,0.031406
229,-0.644961,-0.9861209999999999,-1.100835,-0.331801,0.8338909999999999,-0.44105900000000003,-1.450184,1.8075689999999998,0.23716500000000001,0.21095100000000003,0.589662,0.330554
230,-0.602545,-0.9887940000000001,-1.105479,-0.311535,0.835364,-0.45289300000000005,1.28417,1.11281,0.047784,-1.020099,1.44909,0.41169399999999995
231,-0.578158,-0.98841,-1.085178,-0.300575,0.835152,-0.460624,-1.320392,0.422943,0.598769,0.049995,-1.4566270000000001,1.146842
232,-0.6251,-1.0250270000000001,-1.1343159999999999,-0.30375100000000005,0.854728,-0.42091999999999996,-2.154083,-0.866758,-0.362529,-0.42578699999999997,-0.9115979999999999,0.18138800000000002
233,-0.692585,-1.053489,-1.213949,-0.315778,0.8691540000000001,-0.38059699999999996,-3.022109,1.198134,-0.771821,0.34571599999999997,0.712267,0.401242
234,-0.757061,-1.103736,-1.3260809999999998,-0.309234,0.8928959999999999,-0.327276,-3.574441,1.544317,-0.019822,0.305938,1.158511,0.777868
235,-0.818412,-1.147831,-1.4071040000000001,-0.299664,0.911876,-0.280503,-2.3512459999999997,0.049761,0.510861,-0.046939,0.31432,0.45658999999999994
236,-0.8861459999999999,-1.183416,-1.474361,-0.292629,0.925902,-0.23889699999999997,-2.234267,-0.43150900000000003,0.35099400000000003,-0.130405,-0.295363,0.20490100000000003
237,-1.004757,-1.213199,-1.59194,-0.295429,0.9367409999999999,-0.18771400000000002,-2.806037,-0.347018,-0.301519,-0.071011,-0.26836,0.130646
238,-1.149043,-1.231464,-1.751232,-0.303687,0.9429770000000001,-0.136257,-2.783833,0.629365,-0.46818999999999994,-0.041574,0.082597,0.164715
239,-1.274434,-1.247946,-1.898696,-0.30343600000000004,0.948335,-0.09265599999999999,-2.3184139999999998,0.589046,0.15254500000000001,0.001083,0.005965,0.135319
240,-1.382077,-1.2598260000000001,-2.018866,-0.300545,0.9520370000000001,-0.057402,-1.821709,0.13078399999999998,0.036961,0.104821,-0.163234,0.131392
241,-1.486304,-1.262675,-2.1232029999999997,-0.302182,0.9529049999999999,-0.025593,-1.407637,-0.45388100000000003,-0.09826599999999999,0.026577999999999997,-0.221414,-0.105236
242,-1.568457,-1.263595,-2.1981889999999997,-0.30238699999999996,0.953184,-0.0007070000000000001,-1.03582,-0.43123900000000004,0.044239,0.112766,-0.163114,-0.154948
243,-1.6429080000000003,-1.263349,-2.274222,-0.301836,0.953109,0.021804,-1.2679690000000001,0.09811399999999999,0.001347,0.265581,-0.057052,-0.22779699999999997
244,-1.724606,-1.2597479999999999,-2.3649310000000003,-0.30244,0.9520129999999999,0.046889,-1.428323,0.225597,-0.038393000000000004,0.176967,-0.069002,-0.14778
245,-1.8100490000000002,-1.251847,-2.454978,-0.304633,0.949565,0.07430700000000001,-1.441969,-0.113568,-0.19080899999999998,0.116355,-0.234035,-0.074765
246,-1.888868,-1.237463,-2.532409,-0.310778,0.9449569999999999,0.102324,-1.354486,-0.365332,-0.44304399999999994,0.049014,-0.216258,-0.038207
247,-1.9547709999999998,-1.2197799999999999,-2.592488,-0.31881,0.939024,0.128808,-1.1732770000000001,-0.45841400000000004,-0.49934300000000004,0.028695,0.046221,-0.31940599999999997
248,-2.0092380000000003,-1.202333,-2.643277,-0.326112,0.932882,0.152907,-1.169411,-0.203192,-0.391753,0.116776,0.035013999999999997,-0.391707
249,-2.044316,-1.188291,-2.683549,-0.33217399999999997,0.927732,0.170207,-0.798006,0.19446,-0.257208,0.132071,0.061022,-0.36802199999999996
250,-2.0570779999999997,-1.181086,-2.70166,-0.335875,0.925019,0.177551,-0.305557,0.24964,-0.097879,0.388777,0.21685700000000002,-0.24171399999999998
251,-2.055469,-1.1799819999999999,-2.709496,-0.337064,0.924599,0.17748599999999998,-0.079624,0.5986560000000001,0.070963,0.471922,0.34030900000000003,-0.135189
252,-2.039241,-1.181517,-2.703659,-0.338634,0.925183,0.171352,0.30037800000000003,0.31114400000000003,-0.020018,-0.11205,0.385761,-0.316128
253,-2.0189470000000003,-1.18639,-2.678801,-0.337973,0.9270209999999999,0.16249,0.625028,-0.217754,0.095091,-0.27489600000000003,0.084392,-0.41783000000000003
254,-1.975038,-1.198357,-2.643618,-0.334556,0.931443,0.143124,1.018035,1.0900729999999998,0.369625,-0.066903,0.071487,-0.160244
255,-1.878525,-1.216756,-2.573323,-0.3304,0.9379799999999999,0.10500899999999999,1.842213,1.724077,0.413025,0.100924,0.17608,0.019365
256,-1.711499,-1.2319870000000002,-2.43808,-0.329077,0.9431510000000001,0.046610000000000006,2.6748689999999997,2.017418,0.126841,-0.29574,0.704646,0.033392000000000005
257,-1.5172459999999999,-1.240668,-2.267043,-0.32369699999999996,0.946001,-0.017351,2.789456,1.490521,0.45626099999999997,-0.524447,0.647704,0.171846
258,-1.331612,-1.242815,-2.1081830000000004,-0.31296,0.946694,-0.076316,2.354491,2.049131,0.465325,-0.521193,0.451194,0.287025
259,-1.148754,-1.235852,-1.964393,-0.299871,0.9444290000000001,-0.13465,2.394413,2.353791,0.433167,-0.21345,0.49969399999999997,0.372763
260,-0.965353,-1.215689,-1.8148240000000002,-0.28588800000000003,0.937609,-0.19788,2.867945,1.957413,0.313069,-0.299973,0.711408,0.18317
261,-0.8249340000000001,-1.182015,-1.6881490000000001,-0.27842,0.925372,-0.257232,2.7808330000000003,0.365075,0.060264,-0.34105599999999997,0.570234,0.134856
262,-0.739905,-1.145714,-1.582832,-0.278043,0.911005,-0.304566,2.800964,-1.068834,0.320752,-0.250811,0.27750199999999997,0.405961
263,-0.673992,-1.104269,-1.474481,-0.28071599999999997,0.893135,-0.351435,3.3125430000000002,-1.74131,0.481149,-0.12355,0.165824,0.575815
264,-0.6092390000000001,-1.05426,-1.366478,-0.282614,0.8695350000000001,-0.405015,3.605201,-1.2997020000000001,0.6140180000000001,-0.0046630000000000005,-0.036039,0.5285350000000001
265,-0.550948,-1.002133,-1.272402,-0.281905,0.842621,-0.458822,3.3725650000000003,-1.119743,0.567297,-0.005174,-0.242783,0.4811
266,-0.515364,-0.952166,-1.1997309999999999,-0.285814,0.814674,-0.504595,3.104327,-1.3420219999999998,0.442863,-0.007215999999999999,-0.394721,0.561358
267,-0.501711,-0.906101,-1.144031,-0.296644,0.787105,-0.540802,2.58927,-1.665629,0.297607,0.026243,-0.473613,0.48548900000000006
268,-0.506645,-0.8710129999999999,-1.105305,-0.31252399999999997,0.7649819999999999,-0.5631430000000001,1.8564889999999998,-1.719165,0.201758,0.000848,-0.584501,0.57207
269,-0.5186350000000001,-0.848928,-1.080652,-0.327549,0.7505729999999999,-0.573891,1.033564,-1.361405,0.15923199999999998,0.071613,-0.6095659999999999,0.574303
270,-0.53036,-0.8425600000000001,-1.0704280000000002,-0.33666599999999997,0.7463489999999999,-0.5741229999999999,0.085043,-0.713398,0.10263800000000001,0.147823,-0.6191979999999999,0.46108599999999994
271,-0.541924,-0.852147,-1.07728,-0.339577,0.752695,-0.5640350000000001,-0.88182,-0.121744,0.035305,0.100426,-0.594553,0.301737
272,-0.556602,-0.8756120000000001,-1.09717,-0.338392,0.767936,-0.543842,-1.566271,0.062503,0.1072,0.104048,-0.43372200000000005,0.21789899999999998
273,-0.576936,-0.9099299999999999,-1.1245459999999998,-0.334802,0.789461,-0.5144489999999999,-2.128299,0.031871,0.262479,0.126993,-0.534837,0.063323
274,-0.6079180000000001,-0.955211,-1.1613040000000001,-0.329808,0.8164359999999999,-0.47398100000000004,-2.630282,-0.19381800000000002,0.393858,0.133839,-0.49337700000000007,-0.24423499999999998
275,-0.648709,-1.00085,-1.201545,-0.325995,0.84193,-0.429976,-2.3318119999999998,-0.47296000000000005,0.41125500000000004,0.023673,-0.14587,-0.684449
276,-0.693565,-1.0217379999999998,-1.233638,-0.33363000000000004,0.853016,-0.40131300000000003,-0.43979300000000005,-0.9874799999999999,-0.430515,-0.093814,1.314418,-0.861245
277,-0.679483,-0.990972,-1.222104,-0.34428000000000003,0.836559,-0.426191,2.232678,0.8684870000000001,-0.680214,-0.90514,1.537785,-0.569872
278,-0.6253270000000001,-0.9507450000000001,-1.1643540000000001,-0.34014,0.8138479999999999,-0.47112,2.517125,-0.30737,0.617965,-0.341317,-0.234854,-1.013408
279,-0.600298,-0.9301959999999999,-1.103957,-0.33762,0.801737,-0.49318199999999995,1.288111,-1.529992,0.8053640000000001,0.679524,-1.227076,-0.667279
280,-0.624219,-0.9360850000000001,-1.089666,-0.346554,0.805243,-0.481126,-0.7263390000000001,-1.656938,0.46564799999999995,0.56799,-0.627676,0.100725
281,-0.642984,-0.9678549999999999,-1.105798,-0.340005,0.8236709999999999,-0.453829,-2.1388409999999998,1.036464,0.528173,0.043282999999999995,0.533262,0.8083520000000001
282,-0.636528,-0.993025,-1.152145,-0.324639,0.8376819999999999,-0.4392,-0.47934,1.70082,-0.814523,-1.48043,2.015421,0.783224
283,-0.613859,-0.9607700000000001,-1.1227280000000002,-0.329998,0.819633,-0.468296,1.248052,-0.106427,0.218942,-0.44572799999999996,-0.17433900000000002,0.463643
284,-0.630799,-0.9964879999999999,-1.1459979999999999,-0.320405,0.839568,-0.438708,-2.846342,-0.13955499999999998,0.33139,-0.11308199999999999,-0.80577,0.096148
285,-0.6776909999999999,-1.033695,-1.207074,-0.3208,0.859195,-0.398584,-2.496723,1.190584,-0.406013,0.5090319999999999,0.83334,0.49063999999999997
286,-0.730703,-1.0852110000000001,-1.314355,-0.31148899999999996,0.884402,-0.347572,-4.030044,1.866065,-0.16655699999999998,0.195385,1.104032,0.709846
287,-0.8044060000000001,-1.135614,-1.4109120000000002,-0.30371,0.9067930000000001,-0.292378,-2.7147200000000002,0.020551,0.404744,-0.058931,0.300543,0.513249
288,-0.8636389999999999,-1.175786,-1.476802,-0.292541,0.9229930000000001,-0.25000500000000003,-2.358666,0.138952,0.589745,-0.12278800000000001,-0.26500300000000004,0.25293499999999997
289,-0.966615,-1.2125350000000001,-1.586311,-0.288569,0.936508,-0.199197,-2.8934,-0.10894300000000001,-0.089857,-0.13588499999999998,-0.41838000000000003,0.240594
290,-1.117022,-1.233676,-1.752552,-0.297295,0.9437110000000001,-0.144996,-2.9847080000000004,0.613769,-0.65651,-0.23964699999999997,0.013609999999999999,0.234871
291,-1.256237,-1.248426,-1.9219709999999999,-0.301269,0.9484870000000001,-0.098021,-2.6979759999999997,1.160018,-0.047389,-0.141328,-0.082444,0.16809000000000002
292,-1.385289,-1.263727,-2.075371,-0.297078,0.953224,-0.055751,-2.343698,0.627616,0.11920599999999999,-0.009761,-0.177085,0.156001
293,-1.506974,-1.267155,-2.21266,-0.298385,0.954254,-0.019069,-1.8930930000000001,0.41524799999999995,-0.176477,0.050018,-0.20977800000000002,0.1488
294,-1.594325,-1.2641200000000001,-2.311626,-0.301806,0.953342,0.007102,-1.24862,0.228569,-0.138621,0.206576,-0.068912,-0.12013900000000001
295,-1.660786,-1.2623520000000001,-2.381091,-0.302346,0.952807,0.027282,-1.013044,-0.12128599999999999,0.034388,0.324762,-0.07059,-0.205657
296,-1.7344099999999998,-1.259344,-2.4559900000000003,-0.302347,0.951889,0.049914,-1.2792370000000002,-0.085937,-0.049769,0.318216,-0.08538899999999999,-0.194522
297,-1.817125,-1.252269,-2.545317,-0.303713,0.9496979999999999,0.076364,-1.4528889999999999,0.187459,-0.070561,0.1747,-0.19573,-0.057809000000000006
298,-1.88809,-1.2424790000000001,-2.620668,-0.306354,0.946586,0.100603,-1.1529690000000001,-0.177287,-0.225027,-0.087384,-0.07862000000000001,-0.141298
299,-1.9466919999999999,-1.229011,-2.670884,-0.311767,0.9421579999999999,0.12304200000000001,-0.970916,-0.691679,-0.416444,-0.026155,0.086376,-0.305705
300,-2.0003849999999996,-1.2116149999999999,-2.718454,-0.31956799999999996,0.936185,0.146402,-1.1849100000000001,-0.19420199999999999,-0.495489,0.050448,0.088199,-0.329355
301,-2.040598,-1.1938950000000002,-2.762587,-0.328165,0.92981,0.166615,-0.944147,0.043263,-0.415063,0.202066,0.131683,-0.366688
302,-2.05824,-1.183489,-2.781216,-0.33370500000000003,0.9259299999999999,0.1769,-0.33574499999999996,0.05848,-0.219621,0.334194,0.203648,-0.342702
303,-2.061898,-1.179915,-2.791657,-0.335973,0.924574,0.17968,-0.26834600000000003,0.358676,0.041111,0.49912,0.45677399999999996,-0.184883
304,-2.065557,-1.181135,-2.80225,-0.334321,0.9250379999999999,0.180373,0.02538,0.29015599999999997,0.138323,-0.050551,0.430126,-0.272719
305,-2.052936,-1.18649,-2.784003,-0.332177,0.927059,0.17383900000000002,0.657725,-0.5417029999999999,0.09253099999999999,-0.21775,0.435337,-0.183819
306,-2.022693,-1.201489,-2.7453529999999997,-0.324736,0.932578,0.157626,1.143514,0.216496,0.539333,-0.029314,0.43946199999999996,0.068845
307,-1.947372,-1.227175,-2.687539,-0.313291,0.941541,0.12389000000000001,1.638899,1.2991059999999999,0.8362350000000001,-0.475329,0.321246,-0.12244100000000001
308,-1.8165330000000002,-1.2533450000000002,-2.569525,-0.302768,0.950034,0.075936,2.599996,0.672916,0.488033,-0.656949,0.259667,-0.12194100000000001
309,-1.622027,-1.265566,-2.385559,-0.300117,0.953778,0.015388999999999998,2.915506,1.377646,0.069523,-0.6110770000000001,0.013965,-0.005715
310,-1.4117110000000002,-1.263615,-2.209483,-0.298554,0.95319,-0.0479,2.442791,2.475746,-0.003553,-0.146926,0.608135,0.33034
311,-1.208931,-1.249778,-2.0564009999999997,-0.295098,0.948915,-0.111705,2.583798,2.963259,-0.029898,-0.335762,0.47263999999999995,0.258784
312,-1.016928,-1.227583,-1.902684,-0.286204,0.941678,-0.177,2.8229740000000003,1.757954,0.148506,-0.5216430000000001,0.47175900000000004,0.18148599999999998
313,-0.881439,-1.193398,-1.7731419999999998,-0.284357,0.9296260000000001,-0.23438299999999998,2.920496,0.131078,-0.152104,-0.338446,0.275482,0.355507
314,-0.785821,-1.148206,-1.658811,-0.290124,0.9120299999999999,-0.289878,3.334569,-0.7918310000000001,-0.15016400000000002,-0.10797799999999999,0.221073,0.47512
315,-0.7077479999999999,-1.0931540000000002,-1.54855,-0.29885300000000004,0.8880809999999999,-0.34928200000000004,3.8384690000000004,-1.1347129999999999,-0.088521,-0.031287,0.15591,0.437935
316,-0.6399859999999999,-1.0316,-1.4476209999999998,-0.306622,0.8581209999999999,-0.411837,3.8834980000000003,-0.939449,0.058958,-0.073902,-0.086912,0.373248
317,-0.5824819999999999,-0.9742059999999999,-1.360242,-0.30905900000000003,0.827256,-0.469179,3.5371589999999995,-0.788179,0.35865199999999997,-0.078682,-0.266419,0.37890799999999997
318,-0.546991,-0.925689,-1.292532,-0.31274,0.799035,-0.5135529999999999,2.865793,-1.087324,0.358619,-0.029485,-0.384042,0.52341
319,-0.52812,-0.884149,-1.239886,-0.31945300000000004,0.7733760000000001,-0.547575,2.435073,-1.065399,0.310717,0.046258999999999995,-0.317367,0.449309
320,-0.5179520000000001,-0.85326,-1.20041,-0.325544,0.753428,-0.571285,1.70743,-1.058651,0.31951199999999996,0.10444500000000001,-0.5348609999999999,0.50613
321,-0.519663,-0.8336680000000001,-1.1761840000000001,-0.333789,0.740402,-0.583429,0.968442,-0.8744360000000001,0.180587,0.12381199999999999,-0.5949399999999999,0.493357
322,-0.525438,-0.8277610000000001,-1.165749,-0.33934000000000003,0.736418,-0.585266,0.11636099999999999,-0.557204,0.175297,0.22409,-0.603316,0.46948199999999995
323,-0.5342640000000001,-0.835917,-1.167247,-0.341423,0.741912,-0.577059,-0.664455,-0.30407399999999996,0.154563,0.181556,-0.549788,0.35331999999999997
324,-0.549003,-0.856727,-1.179651,-0.341758,0.755703,-0.558671,-1.358203,-0.30615,0.20954,0.163902,-0.45043599999999995,0.2352
325,-0.573666,-0.889705,-1.200727,-0.341715,0.776886,-0.5288470000000001,-1.982775,-0.491004,0.35817,0.167048,-0.519943,0.106727
326,-0.6115550000000001,-0.932256,-1.232197,-0.342202,0.802966,-0.48799799999999993,-2.47385,-0.745165,0.407409,0.068459,-0.441425,-0.238366
327,-0.659471,-0.978618,-1.272086,-0.34199,0.829727,-0.44113,-2.449279,-0.7165729999999999,0.428908,-0.108984,0.053833000000000006,-0.6765909999999999
328,-0.705383,-1.00047,-1.302249,-0.350035,0.841725,-0.41106499999999996,-0.409638,-1.288442,-0.318823,-0.356004,1.7900349999999998,-0.699958
329,-0.6961430000000001,-0.968309,-1.29352,-0.36339899999999997,0.8239290000000001,-0.43483599999999994,2.188063,1.373524,-0.9322030000000001,-1.050633,1.206513,-0.711267
330,-0.632137,-0.9223450000000001,-1.246307,-0.356858,0.79702,-0.487249,2.7135830000000003,0.439542,0.143023,-0.28271399999999997,-0.628258,-0.8545020000000001
331,-0.610221,-0.8897950000000001,-1.192769,-0.360775,0.776943,-0.515947,1.881061,-1.501717,0.41316,0.448269,-1.089839,-0.34615999999999997
332,-0.628112,-0.879625,-1.172819,-0.374571,0.7705,-0.515777,0.034931,-1.5933950000000001,0.165373,-0.055025,0.5716939999999999,0.00064
333,-0.652346,-0.892648,-1.18157,-0.380835,0.778736,-0.498533,-0.7142,-0.260044,0.109294,-0.29722,1.4485139999999999,0.298078
334,-0.624746,-0.898119,-1.1926780000000001,-0.364435,0.7821560000000001,-0.5053890000000001,-0.28339699999999995,2.756353,-0.14793599999999998,-0.556616,1.7600189999999998,0.91701
335,-0.598849,-0.906032,-1.188503,-0.347727,0.787062,-0.509528,-1.1792799999999999,0.663439,0.539628,0.149698,-1.2886030000000002,1.312537
336,-0.624045,-0.949666,-1.23204,-0.340049,0.813221,-0.47226899999999994,-2.5104509999999998,0.12934500000000002,-0.072531,-0.38897,-0.379261,0.150918
337,-0.667478,-0.9790690000000001,-1.2898479999999999,-0.345279,0.8299780000000001,-0.43808400000000003,-2.578427,0.885804,-0.5739029999999999,0.062625,0.34533,0.183475
338,-0.717392,-1.030458,-1.383903,-0.338194,0.857535,-0.387631,-3.7682949999999997,1.3427280000000001,-0.056166999999999995,0.292662,0.872705,0.649807
339,-0.7682760000000001,-1.078263,-1.458963,-0.328588,0.8811379999999999,-0.340037,-2.505606,0.434461,0.34371799999999997,-0.047068,-0.074055,0.252314
340,-0.813463,-1.113275,-1.516381,-0.320988,0.89715,-0.30345900000000003,-2.18607,0.25569000000000003,0.284222,-0.050838,-0.090113,0.092689
341,-0.891893,-1.151309,-1.604735,-0.316979,0.9132979999999999,-0.255754,-2.959077,-0.020125999999999998,0.13283,-0.030295999999999997,-0.033262,0.12291099999999999
342,-1.003889,-1.1870530000000001,-1.733491,-0.315824,0.92727,-0.201058,-3.068545,0.567038,-0.087673,-0.023318000000000002,-0.01693,0.207787
343,-1.111068,-1.2106430000000001,-1.872425,-0.315825,0.935843,-0.156368,-2.603428,1.328869,-0.263793,-0.10344,-0.095709,0.184368
344,-1.2074479999999999,-1.226784,-2.001099,-0.315245,0.941409,-0.11986600000000001,-2.2034979999999997,1.0389680000000001,-0.041642,-0.07241900000000001,-0.13006900000000002,0.171746
345,-1.301755,-1.23976,-2.1136909999999998,-0.313328,0.9457059999999999,-0.086393,-1.8312220000000001,0.38966799999999996,0.038702,0.044148,-0.197217,0.175031
346,-1.388731,-1.246998,-2.209307,-0.312909,0.948034,-0.057608000000000006,-1.444136,0.05404400000000001,-0.014780000000000001,0.193386,-0.106054,-0.026177999999999996
347,-1.464166,-1.250363,-2.285412,-0.313186,0.949099,-0.033522,-1.0893950000000001,-0.286015,0.003089,0.237655,-0.075762,-0.15248299999999998
348,-1.537871,-1.252003,-2.3548419999999997,-0.313248,0.949614,-0.010317,-1.155082,-0.423199,0.000669,0.253052,-0.114501,-0.180295
349,-1.623037,-1.251076,-2.436769,-0.313869,0.9493229999999999,0.016412,-1.370133,-0.359441,-0.039370999999999996,0.178828,-0.095716,-0.091775
350,-1.7180369999999998,-1.247132,-2.527714,-0.31459899999999996,0.948076,0.046659,-1.47627,-0.49321899999999996,-0.059168,0.104272,-0.16707,-0.01544
351,-1.8087099999999998,-1.238218,-2.612639,-0.317282,0.945204,0.076943,-1.3892309999999999,-0.554505,-0.259308,-0.065637,-0.13178800000000002,-0.11333499999999999
352,-1.887905,-1.223961,-2.682035,-0.322972,0.9404530000000001,0.105994,-1.245382,-0.751452,-0.41614700000000004,-0.034282,0.008704,-0.30754699999999996
353,-1.952045,-1.208113,-2.734802,-0.329309,0.934948,0.13200699999999999,-1.0475430000000001,-0.653051,-0.42023299999999997,0.022852,0.12598,-0.39581700000000003
354,-1.9866279999999998,-1.195544,-2.7662310000000003,-0.33527199999999996,0.930415,0.14805,-0.576909,-0.045765,-0.31517399999999995,0.063375,0.17657899999999999,-0.43088699999999996
355,-1.9891310000000002,-1.189775,-2.775002,-0.3398,0.928285,0.151067,-0.11231300000000001,0.497252,-0.11714000000000001,0.336107,0.346693,-0.183065
356,-1.9775610000000001,-1.190237,-2.777823,-0.341131,0.928457,0.146956,-0.0063490000000000005,0.798515,0.109677,0.166937,0.407328,-0.030531
357,-1.9590560000000001,-1.192561,-2.7678130000000003,-0.341794,0.929318,0.139801,0.411224,0.05930800000000001,-0.009304,-0.325961,0.29372,-0.404175
358,-1.938793,-1.200027,-2.73528,-0.338072,0.932049,0.130347,0.8276469999999999,-0.573761,0.23583400000000002,-0.144274,0.119327,-0.368399
359,-1.886482,-1.214645,-2.686631,-0.331437,0.9372450000000001,0.10825,1.2398209999999998,0.9152899999999999,0.46219899999999997,0.223023,0.1356,-0.14261300000000002
360,-1.774877,-1.233162,-2.59808,-0.324378,0.943541,0.067134,2.0001889999999998,1.5857700000000001,0.496562,0.287101,0.10504300000000001,-0.045252999999999995
361,-1.597884,-1.243715,-2.443088,-0.32115900000000003,0.946984,0.008702,2.873899,1.395826,0.08737,-0.317864,0.637077,0.151256
362,-1.392421,-1.240453,-2.2481169999999997,-0.31921700000000003,0.945931,-0.057552,3.16966,0.9824950000000001,0.098511,-0.402798,0.262824,0.265606
363,-1.2071129999999999,-1.228099,-2.078796,-0.314046,0.941852,-0.11953,2.676515,1.48881,0.18201199999999998,-0.458354,0.455426,0.270837
364,-1.0371860000000002,-1.207991,-1.933582,-0.305556,0.9349049999999999,-0.180516,2.774481,1.717371,0.215518,-0.342042,0.397889,0.25359
365,-0.878481,-1.178112,-1.7994849999999998,-0.294566,0.9238850000000001,-0.244265,2.9166220000000003,1.6438959999999998,0.087345,-0.43813,0.544316,0.137758
366,-0.764084,-1.135249,-1.6972479999999999,-0.291906,0.906639,-0.304622,2.97023,0.44014200000000003,-0.226931,-0.436854,0.5154489999999999,0.22393400000000002
367,-0.702141,-1.088327,-1.6091799999999998,-0.299654,0.8858520000000001,-0.35422,3.129598,-1.592908,0.026751,-0.102354,0.298077,0.508685
368,-0.650038,-1.036046,-1.513244,-0.308433,0.8603959999999999,-0.405692,3.7139910000000005,-1.208013,0.23650700000000002,0.039543,0.139604,0.407935
369,-0.591296,-0.979008,-1.423188,-0.31096399999999996,0.829944,-0.463133,3.632085,-0.8309639999999999,0.321977,0.020619,-0.13208399999999998,0.451933
370,-0.552029,-0.924105,-1.352474,-0.315986,0.798082,-0.513047,3.276518,-1.047496,0.16808399999999998,0.022559,-0.291932,0.499375
371,-0.534373,-0.8728440000000001,-1.299012,-0.327303,0.7661600000000001,-0.553056,2.9101,-1.252483,0.066442,0.007875,-0.305558,0.501359
372,-0.531932,-0.828393,-1.260192,-0.342898,0.736846,-0.5826479999999999,2.339175,-1.443727,-0.09753400000000001,-0.0016,-0.368804,0.555183
373,-0.540532,-0.796421,-1.232022,-0.359838,0.714858,-0.5995779999999999,1.549728,-1.435526,0.13408599999999998,-0.046763,-0.388625,0.523879
374,-0.552469,-0.780086,-1.211066,-0.37304899999999996,0.703341,-0.6051,0.823401,-1.255616,0.26124200000000003,0.142702,-0.469728,0.543241
375,-0.564647,-0.7772859999999999,-1.199857,-0.381442,0.701348,-0.602173,0.017699,-0.837302,0.245464,0.186969,-0.524254,0.42976400000000003
376,-0.577589,-0.78765,-1.201905,-0.385214,0.708697,-0.591065,-0.7677229999999999,-0.43496599999999996,0.211689,0.183279,-0.563662,0.35788000000000003
377,-0.593194,-0.810329,-1.214546,-0.385304,0.724514,-0.5715060000000001,-1.414074,-0.309481,0.293539,0.130635,-0.418942,0.18381
378,-0.615757,-0.843297,-1.234856,-0.38409,0.74684,-0.542867,-1.9464740000000003,-0.432741,0.41068699999999997,0.12524000000000002,-0.45576300000000003,0.033666
379,-0.650134,-0.884885,-1.2642309999999999,-0.38337899999999997,0.773842,-0.50417,-2.349201,-0.713916,0.47873699999999997,-0.013868,-0.096627,-0.49911000000000005
380,-0.690829,-0.9249700000000001,-1.2944,-0.38349,0.798603,-0.463862,-1.9287349999999999,-0.883866,0.523552,-0.267588,0.78175,-0.887258
381,-0.724412,-0.942412,-1.311969,-0.38955700000000004,0.808978,-0.440225,-0.233657,-0.962414,-0.21653499999999998,-0.541062,1.487363,-0.711539
382,-0.715101,-0.9143379999999999,-1.299734,-0.400179,0.7921590000000001,-0.460804,2.0447439999999997,0.569909,-0.706785,-0.5988439999999999,0.0365,-0.557812
383,-0.674074,-0.8743540000000001,-1.256343,-0.400403,0.767129,-0.501188,2.372234,-0.040692,0.123089,-0.107135,-0.508844,-0.705904
384,-0.6533899999999999,-0.850929,-1.211013,-0.400767,0.751893,-0.52349,1.415601,-0.9584010000000001,0.54594,0.5263770000000001,-0.9090280000000001,-0.41727600000000004
385,-0.664352,-0.846989,-1.186584,-0.40830500000000003,0.749289,-0.5213939999999999,0.162302,-1.822311,0.559657,0.10773699999999999,0.12319300000000001,0.025346
386,-0.691353,-0.8665510000000001,-1.1789120000000002,-0.412807,0.7621,-0.498792,-0.8923139999999999,-1.129688,0.892166,-0.506444,1.8035580000000002,0.629163
387,-0.678581,-0.886667,-1.184703,-0.396698,0.7749699999999999,-0.491987,-0.796503,2.3935459999999997,0.18542999999999998,-0.767898,2.024286,0.8986649999999999
388,-0.630983,-0.882199,-1.171759,-0.374879,0.772138,-0.513096,0.8306680000000001,0.802606,0.227677,0.245667,-1.674741,1.328999
389,-0.6360279999999999,-0.915643,-1.1929450000000001,-0.361915,0.792955,-0.490142,-2.822355,0.377319,0.258253,-0.16079000000000002,-1.017198,0.670562
390,-0.682858,-0.9446459999999999,-1.2396909999999999,-0.369792,0.810289,-0.454625,-1.446809,-0.743124,-0.45709399999999994,0.167567,0.332869,0.00086
391,-0.721086,-0.983751,-1.315639,-0.365687,0.8325809999999999,-0.41603,-3.9667809999999997,2.2097900000000004,-0.13024000000000002,0.342494,0.960464,0.69612
392,-0.7630140000000001,-1.045092,-1.401094,-0.34681,0.8649709999999999,-0.362695,-3.156453,0.940558,0.620529,0.155969,0.553532,0.447366
393,-0.793203,-1.0843049999999999,-1.444777,-0.33316100000000004,0.8839790000000001,-0.32800100000000004,-1.869632,0.214009,0.578106,0.022568,-0.092322,0.217466
394,-0.8520270000000001,-1.1212799999999998,-1.509966,-0.327034,0.900658,-0.286119,-2.708348,-0.22882600000000003,0.16048099999999998,-0.093956,-0.252602,0.17057999999999998
395,-0.9672290000000001,-1.152016,-1.630562,-0.33479699999999996,0.913586,-0.230805,-2.9665209999999997,-0.050104,-0.619217,-0.116573,-0.008114,0.268967
396,-1.086274,-1.166457,-1.7774470000000002,-0.348127,0.9193620000000001,-0.183245,-2.819394,1.2281,-0.980886,-0.19104200000000002,0.120921,0.21775999999999998
397,-1.183327,-1.176105,-1.911529,-0.356016,0.923115,-0.14529,-2.3731259999999996,1.201689,-0.358166,-0.055376,-0.091816,0.260845
398,-1.265973,-1.189897,-2.015253,-0.354615,0.9283309999999999,-0.111572,-1.9079990000000002,0.402711,0.042417,0.11572400000000001,-0.18304600000000001,0.24551399999999998
399,-1.343583,-1.1995069999999999,-2.101554,-0.35349,0.93186,-0.081729,-1.516254,-0.027962,0.044637,0.146245,-0.178473,0.15036300000000002
400,-1.4177110000000002,-1.205352,-2.174417,-0.35318299999999997,0.9339649999999999,-0.05449299999999999,-1.253575,-0.451797,0.047014999999999994,0.19833699999999999,-0.087072,-0.071743
401,-1.488097,-1.209422,-2.239251,-0.35234899999999997,0.9354120000000001,-0.029206,-1.155438,-0.443665,0.05944,0.20803200000000002,-0.103564,-0.10891700000000001
402,-1.5597940000000001,-1.2119959999999999,-2.309182,-0.351127,0.936319,-0.003863,-1.268705,-0.234521,0.070132,0.166206,-0.18221400000000001,-0.094266
403,-1.628682,-1.2122389999999998,-2.3788009999999997,-0.350333,0.9364040000000001,0.020302,-1.185059,-0.19092699999999999,0.018317,0.111121,-0.16284500000000002,-0.13858800000000002
404,-1.694025,-1.2091319999999999,-2.442758,-0.351146,0.9353090000000001,0.043492,-1.1222530000000002,-0.326018,-0.085757,0.10683699999999999,-0.075675,-0.195774
405,-1.759827,-1.201773,-2.5060860000000003,-0.35427800000000004,0.93268,0.06777899999999999,-1.250643,-0.31964000000000004,-0.237281,0.08430399999999999,-0.054613,-0.210006
406,-1.832037,-1.18866,-2.579854,-0.360249,0.9278700000000001,0.096313,-1.580611,-0.063277,-0.391602,0.057423,0.010988,-0.165496
407,-1.898016,-1.171648,-2.648698,-0.368012,0.921392,0.124911,-1.323336,-0.312198,-0.436488,-0.046844,0.180018,-0.309481
408,-1.9382849999999998,-1.160701,-2.67687,-0.372076,0.917083,0.143241,-0.355761,-0.8712799999999999,-0.257029,0.095434,0.27881,-0.580512
409,-1.952015,-1.156671,-2.682906,-0.373501,0.9154690000000001,0.14970899999999998,-0.22088899999999997,0.10656600000000001,-0.088561,0.327389,0.39976300000000003,-0.267599
410,-1.948089,-1.153389,-2.699607,-0.376877,0.914143,0.149348,-0.402604,1.284059,-0.021904,0.032029,0.38256399999999996,-0.047633
411,-1.9376740000000001,-1.1506319999999999,-2.7023610000000002,-0.380763,0.9130219999999999,0.146318,0.12654400000000002,-0.031842,-0.142572,-0.226262,0.408527,-0.21533400000000003
412,-1.923714,-1.154458,-2.676882,-0.379488,0.9145760000000001,0.13978,0.789975,-0.291908,0.11556400000000001,0.017,0.143148,-0.30083699999999997
413,-1.8670369999999998,-1.166657,-2.62927,-0.37609699999999996,0.919441,0.114793,1.2612940000000001,1.061654,0.34038,0.2312,0.112846,-0.192659
414,-1.768144,-1.182617,-2.550268,-0.371155,0.9256,0.074213,1.9774909999999999,1.426447,0.40153099999999997,0.238144,0.12931700000000002,-0.039972
415,-1.617572,-1.191966,-2.422732,-0.36942800000000003,0.929098,0.017293,2.651189,1.6269790000000002,0.019283,-0.22436799999999998,0.811457,0.167903
416,-1.448823,-1.192091,-2.2637970000000003,-0.366969,0.9291440000000001,-0.044983999999999996,2.979477,0.809024,0.22344899999999998,-0.483205,0.466577,0.371293
417,-1.291979,-1.185274,-2.115344,-0.361519,0.926602,-0.103494,2.662201,1.176649,0.20580700000000002,-0.482353,0.441547,0.381524
418,-1.1336709999999999,-1.171081,-1.9783689999999998,-0.352564,0.9211719999999999,-0.164744,2.77093,1.725569,0.302003,-0.31288699999999997,0.285661,0.26455100000000004
419,-0.978512,-1.146731,-1.847003,-0.341382,0.911424,-0.22970500000000002,2.95401,1.674579,0.10786199999999999,-0.361453,0.444716,0.199234
420,-0.8653930000000001,-1.109899,-1.742103,-0.33861199999999997,0.8956540000000001,-0.28835,2.870082,0.283696,-0.177225,-0.345852,0.33184,0.375661
421,-0.802435,-1.0673190000000001,-1.6430740000000001,-0.346923,0.8759100000000001,-0.33529899999999996,3.3386410000000004,-2.008326,0.10245,-0.035111,0.29982600000000004,0.594042
422,-0.741839,-1.016383,-1.5307389999999998,-0.355689,0.850209,-0.38810900000000004,4.04871,-1.446982,0.300038,0.042013999999999996,0.046748000000000005,0.42502
423,-0.669143,-0.958573,-1.421904,-0.356487,0.8183729999999999,-0.450758,4.099981,-0.775709,0.484339,0.032436,-0.071913,0.425703
424,-0.614213,-0.903067,-1.32954,-0.35685700000000004,0.78523,-0.506031,3.751478,-1.080582,0.5709569999999999,0.014435,-0.158109,0.48506499999999997
425,-0.579048,-0.851842,-1.252828,-0.36040300000000003,0.752495,-0.551236,3.2891550000000005,-1.345501,0.621479,-0.000131,-0.345527,0.511914
426,-0.562141,-0.809387,-1.18909,-0.367739,0.7238640000000001,-0.583771,2.709669,-1.5652760000000001,0.6732600000000001,0.0571,-0.395342,0.52298
427,-0.5594359999999999,-0.778166,-1.142314,-0.377971,0.701974,-0.60363,1.8554599999999999,-1.460234,0.45351400000000003,0.128902,-0.415033,0.539223
428,-0.5657399999999999,-0.760207,-1.115569,-0.388465,0.689072,-0.61178,0.9232809999999999,-1.077124,0.293756,0.09334500000000001,-0.488113,0.471475
429,-0.569546,-0.758451,-1.102186,-0.391442,0.6877979999999999,-0.611316,0.024992,-0.47685,0.40849,0.146264,-0.49997700000000006,0.454165
430,-0.576271,-0.7675029999999999,-1.098559,-0.39213600000000004,0.69434,-0.603424,-0.50498,-0.49492600000000003,0.326831,0.20811500000000002,-0.487324,0.402008
431,-0.5911930000000001,-0.784417,-1.10461,-0.394493,0.706413,-0.587669,-1.0181120000000001,-0.5493399999999999,0.260291,0.18903399999999998,-0.425468,0.27010300000000004
432,-0.61426,-0.810956,-1.121504,-0.396996,0.724946,-0.5628920000000001,-1.6849150000000002,-0.530046,0.275905,0.148598,-0.44365,0.18571
433,-0.649478,-0.848767,-1.151586,-0.399698,0.750466,-0.526347,-2.342536,-0.798582,0.334681,0.120584,-0.48484099999999997,0.054529999999999995
434,-0.697168,-0.892291,-1.1857870000000001,-0.402969,0.778512,-0.48118,-2.259929,-1.179035,0.566481,-0.143479,0.49204200000000003,-0.8245450000000001
435,-0.7424729999999999,-0.9188729999999999,-1.206632,-0.410208,0.794918,-0.44702700000000006,-0.72616,-1.6653669999999998,0.178303,-0.202967,1.2753940000000001,-0.913324
436,-0.740409,-0.896691,-1.194138,-0.42107799999999995,0.781265,-0.460779,2.127374,0.9084030000000001,-0.711983,-0.791798,1.26625,-0.42856400000000006
437,-0.682148,-0.849834,-1.1462370000000002,-0.41617299999999996,0.751171,-0.512389,2.767069,0.33975900000000003,0.011059000000000001,0.275899,-0.699489,-0.810243
438,-0.668772,-0.8214370000000001,-1.097982,-0.42234099999999997,0.732126,-0.534434,1.658594,-1.7591419999999998,0.515547,0.575646,-0.889215,-0.696157
439,-0.690509,-0.814503,-1.066571,-0.43708,0.727384,-0.52903,0.572747,-2.294876,0.632563,0.60987,-0.714613,-0.370201
440,-0.718346,-0.824998,-1.051995,-0.446586,0.734546,-0.510884,-0.369832,-1.471174,0.8556590000000001,0.19600599999999999,-0.06363300000000001,0.145756
441,-0.7130529999999999,-0.852187,-1.04354,-0.430649,0.752722,-0.497946,-1.3287209999999998,0.9600299999999999,1.0926049999999998,-0.396316,0.9950200000000001,0.727805
442,-0.695919,-0.878094,-1.064247,-0.409413,0.769523,-0.490117,-0.644111,1.290809,-0.167811,-0.9197190000000001,1.333169,1.005208
443,-0.681021,-0.859319,-1.049916,-0.41108999999999996,0.7573979999999999,-0.5072989999999999,0.731395,0.139888,-0.188775,0.206684,-1.046705,0.758734
444,-0.703612,-0.881441,-1.0833899999999999,-0.41150299999999995,0.771656,-0.484987,-2.483193,0.026976,-0.06794299999999999,-0.126629,-0.790623,0.446321
445,-0.7389399999999999,-0.9174700000000001,-1.136539,-0.409377,0.7940659999999999,-0.449298,-2.471219,0.9009780000000001,-0.197166,0.506132,0.555451,0.25194099999999997
446,-0.778837,-0.963111,-1.221169,-0.40107800000000005,0.8209719999999999,-0.406376,-3.76325,1.229998,-0.10513099999999999,0.444489,1.18916,0.68378
447,-0.836033,-1.012227,-1.298376,-0.39323400000000003,0.8480139999999999,-0.3553,-2.6783639999999997,-0.121558,0.482087,-0.020477000000000002,0.622247,0.492446
448,-0.8770549999999999,-1.046471,-1.340526,-0.384913,0.865662,-0.32011100000000003,-1.7690110000000001,-0.193248,0.571852,-0.151831,-0.21568299999999999,0.116131
449,-0.934434,-1.080457,-1.401282,-0.378747,0.882173,-0.279858,-2.514945,-0.062653,0.262031,-0.131401,-0.292101,0.09801900000000001
450,-1.0244959999999999,-1.110765,-1.508319,-0.379355,0.8960389999999999,-0.230658,-3.004825,0.5038590000000001,-0.324298,-0.075616,-0.26855100000000004,0.11356199999999998
451,-1.120118,-1.1320700000000001,-1.637731,-0.382371,0.905294,-0.185026,-2.93407,1.308891,-0.306675,-0.138106,-0.08179199999999999,0.221266
452,-1.2052040000000002,-1.155218,-1.7620209999999998,-0.377037,0.914883,-0.14432999999999999,-2.727328,1.290145,0.20540300000000003,-0.005821,-0.174328,0.236051
453,-1.289788,-1.174084,-1.8738099999999998,-0.371231,0.922336,-0.107155,-2.152495,0.69613,0.13754,0.17181400000000002,-0.264926,0.233116
454,-1.36669,-1.184372,-1.9632319999999999,-0.369054,0.926263,-0.07639,-1.575821,0.037127,0.069774,0.20850100000000002,-0.21317399999999997,0.102239
455,-1.433539,-1.1903190000000001,-2.0309630000000003,-0.36787,0.9284870000000001,-0.050812,-1.175258,-0.31799299999999997,0.08477699999999999,0.26714699999999997,-0.16431199999999999,-0.085021
456,-1.499357,-1.194934,-2.093727,-0.366136,0.930192,-0.026201,-1.229768,-0.331685,0.09296,0.275331,-0.20459000000000002,-0.141005
457,-1.571699,-1.197288,-2.166651,-0.364881,0.931053,0.00032900000000000003,-1.346078,-0.137244,0.053441999999999996,0.199903,-0.112541,-0.090509
458,-1.640395,-1.196888,-2.235566,-0.36436999999999997,0.9309069999999999,0.025401,-1.225209,-0.353721,0.005425999999999999,0.120931,-0.030180000000000002,-0.11564100000000001
459,-1.718865,-1.193023,-2.307782,-0.364813,0.9294879999999999,0.054416,-1.4532459999999998,-0.630556,-0.097294,0.088812,-0.063705,-0.137546
460,-1.8091709999999999,-1.182285,-2.392363,-0.368097,0.925474,0.089446,-1.752984,-0.581828,-0.301344,0.042718,-0.042097,-0.15870499999999998
461,-1.892382,-1.165742,-2.468459,-0.373865,0.9190809999999999,0.124553,-1.489555,-0.734549,-0.43283599999999994,0.025278,0.030992000000000002,-0.24686799999999998
462,-1.9431900000000002,-1.150149,-2.5096220000000002,-0.380361,0.912825,0.14857599999999999,-0.77167,-0.5250670000000001,-0.42808999999999997,0.036931,0.378725,-0.503542
463,-1.9631560000000001,-1.140915,-2.526806,-0.38509099999999996,0.909015,0.159357,-0.37954499999999997,0.054346000000000005,-0.21138099999999999,0.24738000000000002,0.508236,-0.386392
464,-1.961043,-1.1377190000000001,-2.536032,-0.388112,0.9076780000000001,0.159647,-0.16278,0.787756,0.008179,0.192937,0.437262,-0.109019
465,-1.9451080000000003,-1.1366399999999999,-2.534145,-0.391518,0.907225,0.153801,0.150616,0.343037,-0.13861300000000001,-0.16169,0.339296,-0.40070300000000003
466,-1.9261270000000001,-1.1395549999999999,-2.509282,-0.391884,0.9084479999999999,0.145421,0.775868,-0.188199,0.034145999999999996,0.007683,0.118576,-0.39835
467,-1.8691349999999998,-1.150279,-2.460404,-0.39019699999999996,0.9128780000000001,0.119992,1.36089,1.061652,0.256681,0.142348,0.023325,-0.2292
468,-1.763582,-1.1661860000000002,-2.375022,-0.386365,0.919256,0.075422,2.163662,1.534506,0.392006,0.160261,0.09109,0.022722
469,-1.606388,-1.176952,-2.2425189999999997,-0.383496,0.923441,0.013655,2.844847,1.827336,0.098355,-0.100101,0.623801,0.165193
470,-1.439527,-1.176625,-2.094827,-0.380736,0.923315,-0.050268,2.7273709999999998,1.225315,0.23503800000000002,-0.40793,0.767282,0.599508
471,-1.29131,-1.171424,-1.955598,-0.373749,0.9213049999999999,-0.10726500000000001,2.719579,0.9227770000000001,0.24178000000000002,-0.45133900000000005,0.473577,0.398495
472,-1.135514,-1.152779,-1.8051259999999998,-0.36809400000000003,0.9138950000000001,-0.171174,3.447582,0.934385,0.171007,-0.234659,0.334365,0.30475
473,-0.968875,-1.116335,-1.643721,-0.36182600000000004,0.8984979999999999,-0.24856,3.9112089999999995,0.8876850000000001,-0.007293000000000001,-0.276846,0.562882,-0.067815
474,-0.8681780000000001,-1.069679,-1.533168,-0.366622,0.8770459999999999,-0.310446,3.076365,-0.337149,-0.40679699999999996,-0.264131,0.573439,0.137427
475,-0.817716,-1.0263440000000001,-1.449816,-0.377888,0.855411,-0.354219,3.173115,-1.4649780000000001,-0.032934,-0.285351,0.41338800000000003,0.434755
476,-0.753065,-0.9770469999999999,-1.344558,-0.38261,0.828849,-0.408188,4.059028,-0.9552370000000001,0.395617,-0.050923,-0.014166999999999999,0.470261
477,-0.68008,-0.92011,-1.235027,-0.380917,0.795669,-0.47097,4.245988,-0.7126899999999999,0.58355,-0.052615999999999996,0.019013,0.533042
478,-0.626228,-0.8659629999999999,-1.142951,-0.379733,0.7617189999999999,-0.524962,3.665999,-1.0082440000000001,0.671745,0.11868599999999999,-0.202882,0.435881
479,-0.592777,-0.819918,-1.070424,-0.38116700000000003,0.73109,-0.565878,3.032851,-1.132736,0.651459,0.196001,-0.40739000000000003,0.460974
480,-0.582316,-0.784085,-1.016525,-0.38939,0.706178,-0.591344,2.173689,-1.564937,0.522098,0.157548,-0.43324399999999996,0.562368
481,-0.592359,-0.7604920000000001,-0.9807319999999999,-0.4045,0.689278,-0.601061,1.4400620000000002,-1.634188,0.361101,0.241353,-0.549096,0.612993
482,-0.606521,-0.748626,-0.960992,-0.417605,0.680633,-0.60195,0.55171,-1.209775,0.224029,0.23225700000000002,-0.552367,0.48776899999999995
483,-0.6211220000000001,-0.75036,-0.954892,-0.425662,0.681902,-0.594828,-0.197702,-0.813105,0.24392399999999997,0.212207,-0.534273,0.467509
484,-0.636981,-0.761999,-0.9574309999999999,-0.430291,0.690369,-0.581583,-0.705088,-0.650727,0.303197,0.235803,-0.509705,0.43889799999999995
485,-0.6558390000000001,-0.7822060000000001,-0.967311,-0.43258500000000005,0.704846,-0.562193,-1.251019,-0.545632,0.335568,0.208479,-0.522778,0.240675
486,-0.682368,-0.8143239999999999,-0.991682,-0.432841,0.727262,-0.532671,-2.1317779999999997,-0.43603400000000003,0.331412,0.113123,-0.539991,-0.103102
487,-0.722685,-0.856294,-1.030866,-0.43337700000000007,0.755419,-0.49145200000000006,-2.485031,-0.653366,0.375157,-0.034319999999999996,-0.279467,-0.493518
488,-0.76657,-0.8913840000000001,-1.064365,-0.435856,0.777942,-0.452586,-1.581499,-1.161433,0.373573,-0.24380100000000002,0.423458,-0.8765
489,-0.795118,-0.8941389999999999,-1.0683479999999999,-0.447065,0.77967,-0.438458,0.8377979999999999,-0.978591,-0.294493,-0.488176,1.2000959999999998,-0.6914560000000001
490,-0.7637470000000001,-0.858409,-1.031252,-0.45208000000000004,0.756804,-0.472092,2.474265,0.578757,-0.359833,-0.283455,0.346193,-0.498413
491,-0.729562,-0.828343,-0.988258,-0.45064799999999994,0.736812,-0.504008,1.6905189999999999,-0.35107,0.278954,0.335825,-0.519573,-0.8409629999999999
492,-0.732236,-0.8219540000000001,-0.960359,-0.455132,0.732477,-0.5062909999999999,0.480267,-1.600676,0.538088,0.479637,-0.6970770000000001,-0.453182
493,-0.760375,-0.824996,-0.938675,-0.467658,0.734545,-0.49166800000000005,0.38403000000000004,-2.254739,0.8832899999999999,0.37435100000000004,0.20705900000000002,0.727111
494,-0.7534489999999999,-0.8557459999999999,-0.9324040000000001,-0.448571,0.7550600000000001,-0.478191,-2.38505,1.672982,0.87387,-0.235862,1.236578,1.619991
495,-0.7518229999999999,-0.862959,-0.969612,-0.444062,0.75977,-0.474929,1.7748669999999998,0.9397979999999999,-1.06273,-2.113845,2.893016,0.620696
496,-0.71068,-0.8094979999999999,-0.91565,-0.45003000000000004,0.723941,-0.522858,1.127905,-0.008124,-0.013836000000000001,0.5286890000000001,-1.7308080000000001,0.912766
497,-0.7405689999999999,-0.850435,-0.9596020000000001,-0.445075,0.751567,-0.486882,-3.351226,-0.139176,0.145189,0.143973,-1.326869,-0.123057
498,-0.769592,-0.8857459999999999,-1.0206540000000002,-0.440267,0.7743869999999999,-0.454409,-3.225325,2.090377,-0.478494,0.407552,1.345364,0.560763
499,-0.8357110000000001,-0.95365,-1.147155,-0.429271,0.815533,-0.388112,-5.541906,0.957219,0.12314100000000001,0.095958,1.692875,0.718877
500,-0.9186469999999999,-1.0171700000000001,-1.2478639999999999,-0.417876,0.8506229999999999,-0.31909,-3.310224,-0.215925,0.920034,-0.05429199999999999,0.167901,0.490767
501,-0.9700780000000001,-1.069084,-1.3123,-0.39673,0.87676,-0.271836,-2.8466139999999998,0.465099,1.238594,0.024965,-0.343466,0.163392
502,-1.048319,-1.121521,-1.410189,-0.376367,0.9007620000000001,-0.21673299999999998,-3.5340089999999997,0.389531,0.753189,-0.040686,-0.459737,0.108518
503,-1.1814879999999999,-1.156896,-1.565312,-0.372087,0.915559,-0.152647,-3.690204,0.379706,-0.116354,-0.179152,-0.24838400000000002,0.141295
504,-1.320859,-1.1771129999999999,-1.732936,-0.371672,0.923502,-0.09487899999999999,-3.237548,1.073136,0.039744,-0.079973,-0.287455,0.198211
505,-1.437937,-1.1919540000000002,-1.886697,-0.366583,0.9290940000000001,-0.048993,-2.86816,1.241833,0.156407,0.093145,-0.334596,0.198941
506,-1.5507799999999998,-1.195174,-2.026698,-0.36677600000000005,0.9302790000000001,-0.0073420000000000004,-2.355432,0.5766359999999999,-0.171376,0.150223,-0.229733,0.204226
507,-1.632692,-1.187973,-2.12012,-0.372823,0.9276139999999999,0.023106,-1.358278,0.082754,-0.337898,0.19600399999999998,-0.16677999999999998,0.086117
508,-1.687318,-1.182712,-2.173994,-0.375847,0.925636,0.043993,-0.95636,-0.45120600000000005,-0.089783,0.371483,0.003472,-0.312243
509,-1.7559099999999999,-1.178695,-2.232068,-0.37559899999999996,0.924108,0.07033400000000001,-1.26947,-0.734815,-0.023241,0.385685,0.0034130000000000002,-0.340018
510,-1.8300049999999999,-1.171814,-2.306653,-0.3755,0.921457,0.09957300000000001,-1.5691709999999999,0.004442,-0.018803999999999998,0.139095,-0.054223,-0.274073
511,-1.900393,-1.159351,-2.385781,-0.378404,0.916544,0.129442,-1.705473,0.069759,-0.250576,-0.009932,-0.04989,-0.188249
512,-1.960307,-1.141259,-2.4453270000000003,-0.385253,0.909158,0.15814,-1.188512,-0.520151,-0.495105,-0.109025,0.080389,-0.27618200000000004
513,-1.987491,-1.128231,-2.4623169999999996,-0.39161,0.9036559999999999,0.17333199999999999,-0.292419,-0.46287,-0.41200699999999996,0.044076,0.150253,-0.496803
514,-1.988375,-1.1213819999999999,-2.469178,-0.39710500000000004,0.900702,0.17618399999999998,-0.346763,0.758158,-0.154373,0.47869300000000004,0.399363,-0.294943
515,-1.979975,-1.118753,-2.4824330000000003,-0.400742,0.8995559999999999,0.173784,-0.23921599999999998,0.933725,0.069412,0.43328900000000004,0.5086930000000001,-0.05366699999999999
516,-1.969457,-1.1200299999999999,-2.479909,-0.401488,0.900114,0.169113,0.27763499999999997,0.025633999999999997,0.006887000000000001,0.169707,0.425875,-0.12496900000000001
517,-1.9524869999999999,-1.1266450000000001,-2.456579,-0.398766,0.902976,0.160054,0.803218,-0.075114,0.23501799999999998,-0.101814,0.329751,-0.120183
518,-1.905377,-1.14373,-2.414683,-0.39123,0.910185,0.136012,1.34381,0.693854,0.6052770000000001,0.10937000000000001,0.051699,0.023656
519,-1.80801,-1.16506,-2.331355,-0.38363800000000003,0.9188120000000001,0.09275,2.33753,1.342993,0.44688,-0.12144300000000001,0.45196099999999995,0.009773
520,-1.641444,-1.179606,-2.183698,-0.380333,0.9244559999999999,0.026913999999999997,3.208768,1.507021,0.23056500000000002,-0.302666,0.599699,0.031786
521,-1.465489,-1.181357,-2.024677,-0.377562,0.9251219999999999,-0.039908,2.7142180000000002,1.4890139999999998,0.10108400000000001,-0.492403,0.403156,0.325827
522,-1.321766,-1.177455,-1.9105150000000002,-0.371449,0.9236340000000001,-0.094463,1.9950759999999998,2.096013,0.24376599999999998,-0.41285299999999997,0.574978,0.360546
523,-1.179193,-1.168744,-1.7989080000000002,-0.361681,0.9202600000000001,-0.149349,2.373949,1.878475,0.237077,-0.353071,0.546308,0.373394
524,-1.0378379999999998,-1.1442459999999999,-1.675902,-0.356348,0.9103979999999999,-0.210209,2.979951,1.0394649999999999,-0.128288,-0.27365700000000004,0.318239,0.301105
525,-0.9271950000000001,-1.104325,-1.558726,-0.359761,0.8931610000000001,-0.269877,3.315786,-0.295047,-0.222509,-0.23914699999999997,0.307248,0.45228
526,-0.8510120000000001,-1.057505,-1.4439030000000002,-0.36924,0.871133,-0.323707,3.7834019999999997,-1.718429,-0.05184400000000001,-0.184135,0.326072,0.616203
527,-0.777237,-0.998965,-1.32455,-0.37953000000000003,0.8409120000000001,-0.385775,4.478748,-1.014779,0.002318,-0.045824000000000004,-0.032852,0.5152770000000001
528,-0.702186,-0.934735,-1.2152209999999999,-0.383677,0.804442,-0.45350100000000004,4.364767,-0.786111,0.19244,-0.070761,-0.239592,0.554377
529,-0.65378,-0.874697,-1.124745,-0.389989,0.767349,-0.509,3.947565,-1.381724,0.31847600000000004,-0.112483,-0.36908,0.580381
530,-0.626518,-0.8188,-1.050567,-0.400518,0.7303270000000001,-0.553359,3.5059169999999997,-1.383333,0.304711,0.089803,-0.46097899999999997,0.464156
531,-0.614889,-0.773593,-0.9948969999999999,-0.41269399999999995,0.69871,-0.5843689999999999,2.599434,-1.3872799999999998,0.212927,0.183675,-0.537409,0.45936899999999997
532,-0.619369,-0.743731,-0.965217,-0.427233,0.677038,-0.599241,1.3846180000000001,-1.126187,-0.090723,0.224138,-0.558218,0.457517
533,-0.632065,-0.730749,-0.9571770000000001,-0.43996199999999996,0.667428,-0.6008100000000001,0.321673,-0.767566,-0.140268,0.262166,-0.49234799999999995,0.458704
534,-0.6464,-0.734584,-0.962052,-0.446984,0.6702779999999999,-0.592394,-0.588188,-0.530812,0.049625999999999997,0.29238200000000003,-0.472051,0.449755
535,-0.666953,-0.752358,-0.975476,-0.45162299999999994,0.683362,-0.57363,-1.2581229999999999,-0.560142,0.23940100000000003,0.265359,-0.45074200000000003,0.361579
536,-0.691864,-0.782877,-0.9965649999999999,-0.452251,0.705322,-0.545883,-1.8987479999999999,-0.46392799999999995,0.44310600000000006,0.202388,-0.49971000000000004,0.22143600000000002
537,-0.720604,-0.826407,-1.026749,-0.44705500000000004,0.7355010000000001,-0.509095,-2.596109,-0.324185,0.732885,0.11461199999999999,-0.5541659999999999,-0.11503499999999998
538,-0.756361,-0.8775200000000001,-1.0627469999999999,-0.43857299999999994,0.7691560000000001,-0.464812,-2.575138,-0.537738,0.839059,-0.094051,0.117105,-0.716889
539,-0.7981189999999999,-0.908349,-1.086486,-0.44040100000000004,0.788489,-0.42933699999999997,-0.8419559999999999,-1.708977,0.26194,-0.155318,0.856485,-0.945053
540,-0.8095060000000001,-0.8882479999999999,-1.075022,-0.45664399999999994,0.775968,-0.435141,1.982104,0.303138,-0.805158,-0.9812219999999999,1.8463919999999998,-0.500406
541,-0.746835,-0.8433430000000001,-1.030153,-0.451726,0.74687,-0.48798199999999997,2.689124,1.100278,-0.165649,-0.104426,-0.793959,-0.770746
542,-0.717463,-0.813673,-0.9786370000000001,-0.451575,0.726815,-0.517512,1.911718,-1.294217,0.44621700000000003,0.5039279999999999,-1.323006,-0.642904
543,-0.743636,-0.8055359999999999,-0.950938,-0.46895200000000004,0.721202,-0.509853,0.346966,-2.812348,0.49918900000000005,0.719074,-0.9289350000000001,-0.239948
544,-0.781864,-0.823967,-0.934134,-0.47864700000000004,0.733846,-0.482042,-0.758246,-1.7283330000000001,1.564712,0.438471,0.337214,1.1908889999999999
545,-0.780684,-0.887906,-0.9661709999999999,-0.444101,0.775752,-0.448309,-4.1452800000000005,2.432196,0.88197,-1.413931,1.6273389999999999,1.2575889999999998
546,-0.793365,-0.9098129999999999,-1.0156450000000001,-0.43753100000000006,0.789389,-0.43061499999999997,0.872761,0.671003,-0.728989,-1.9983509999999998,2.687204,0.49216899999999997
547,-0.7532220000000001,-0.863017,-0.957981,-0.444695,0.759807,-0.474275,1.452136,0.11478800000000002,0.134622,0.558709,-1.403744,1.224992
548,-0.761894,-0.910227,-0.987777,-0.42353999999999997,0.789643,-0.443932,-3.4360440000000003,0.539678,0.947033,0.39479200000000003,-1.368058,0.607934
549,-0.7969189999999999,-0.94978,-1.044033,-0.41615,0.813288,-0.40667,-2.337123,1.0454649999999999,-0.215642,0.504468,0.824575,0.505943
550,-0.845709,-1.000904,-1.1437629999999999,-0.403814,0.841959,-0.357823,-4.492013,1.567736,0.248268,0.103582,1.4483540000000001,0.773274
551,-0.919218,-1.06074,-1.247247,-0.3882,0.872717,-0.296079,-3.328042,0.40689699999999995,0.758882,-0.159468,0.341059,0.563657
552,-0.976267,-1.105397,-1.321717,-0.371772,0.893642,-0.251369,-2.596987,0.424728,0.727646,-0.075753,-0.301693,0.255229
553,-1.056288,-1.139778,-1.4199959999999998,-0.363703,0.9085409999999999,-0.20559899999999998,-2.829902,0.437645,0.097888,-0.074117,-0.519259,0.120348
554,-1.1790260000000001,-1.162072,-1.5617370000000002,-0.367324,0.9176290000000001,-0.151751,-3.1916700000000002,0.418442,-0.379973,-0.16359100000000001,-0.269832,0.171847
555,-1.306877,-1.182173,-1.71931,-0.365791,0.925431,-0.098845,-3.1838759999999997,1.085016,0.21743200000000001,-0.074395,-0.096345,0.261397
556,-1.422289,-1.1996799999999999,-1.870168,-0.358659,0.931923,-0.053658000000000004,-2.712785,1.23351,0.23655500000000002,0.080323,-0.09037,0.195855
557,-1.51839,-1.206349,-1.991393,-0.355937,0.934321,-0.01867,-1.845502,0.5505260000000001,0.053345000000000004,0.143886,-0.202326,0.069147
558,-1.58273,-1.208848,-2.0614220000000003,-0.354067,0.9352090000000001,0.004226,-0.919702,-0.13906300000000002,0.138676,0.252703,-0.133664,-0.06961
559,-1.623423,-1.210317,-2.101159,-0.352229,0.9357280000000001,0.018553999999999998,-0.696675,-0.200273,0.067673,0.30706300000000003,-0.028929000000000003,-0.313521
560,-1.677843,-1.209315,-2.158229,-0.35163,0.9353739999999999,0.037785,-1.236988,0.121393,0.015416999999999998,0.26772199999999996,-0.118602,-0.231435
561,-1.7443009999999999,-1.20434,-2.237575,-0.35292399999999996,0.9336030000000001,0.061855999999999994,-1.4920309999999999,0.44667700000000005,-0.12351400000000001,0.185825,-0.19227,-0.11929000000000001
562,-1.814805,-1.1922139999999999,-2.314286,-0.358649,0.92919,0.089293,-1.447217,-0.30975199999999997,-0.407447,-0.063348,-0.053747,-0.134596
563,-1.8861080000000001,-1.1762,-2.374946,-0.365477,0.9231520000000001,0.119217,-1.275672,-0.879028,-0.451453,0.012877000000000001,0.106984,-0.372085
564,-1.947073,-1.160687,-2.428929,-0.37081,0.917077,0.146508,-1.2160870000000001,-0.308776,-0.319308,0.102011,0.10039400000000001,-0.42989399999999994
565,-1.974854,-1.1497,-2.460805,-0.37584,0.912641,0.16070299999999998,-0.5132359999999999,0.202948,-0.22746,0.151871,0.215929,-0.468976
566,-1.972478,-1.145872,-2.4695,-0.379433,0.91107,0.161175,-0.152064,0.770785,-0.019497999999999998,0.35376799999999997,0.420336,-0.334545
567,-1.9569189999999999,-1.1467610000000001,-2.474968,-0.381144,0.911436,0.154947,0.003743,1.123486,0.087961,0.252177,0.5086390000000001,-0.12449
568,-1.933189,-1.148354,-2.4619299999999997,-0.383356,0.91209,0.145344,0.451229,0.113775,-0.0732,-0.23135999999999998,0.357212,-0.35684699999999997
569,-1.903741,-1.152543,-2.425678,-0.383855,0.9138,0.132744,0.936448,-0.068364,0.032972,-0.05266799999999999,-0.053784000000000005,-0.276146
570,-1.834987,-1.164786,-2.364541,-0.381239,0.9187040000000001,0.10313,1.665845,1.014818,0.250323,0.092253,0.093015,-0.135265
571,-1.699296,-1.17906,-2.251951,-0.378641,0.924248,0.048925,2.621723,1.966979,0.269667,0.171533,0.18766,0.068202
572,-1.5117049999999999,-1.1813129999999998,-2.0986380000000002,-0.379042,0.925106,-0.022424,3.0417669999999997,2.245021,-0.095224,-0.540101,0.8266040000000001,0.411401
573,-1.335998,-1.170947,-1.944882,-0.37859299999999996,0.92112,-0.090563,2.920272,1.531831,-0.126137,-0.60888,0.437508,0.482912
574,-1.191618,-1.151036,-1.8200560000000001,-0.378589,0.9131870000000001,-0.150853,2.614519,1.533289,-0.225483,-0.639538,0.36672,0.5190170000000001
575,-1.040475,-1.1239569999999999,-1.692826,-0.372761,0.901817,-0.21856799999999998,3.271836,1.860018,0.080997,-0.31776,0.405602,0.183747
576,-0.9027870000000001,-1.0843559999999999,-1.569477,-0.36699699999999996,0.8840030000000001,-0.289568,3.387549,0.930941,-0.246017,-0.349556,0.509567,0.175295
577,-0.828973,-1.0359040000000002,-1.480728,-0.37580399999999997,0.860324,-0.344401,3.2163060000000003,-0.8231930000000001,-0.457541,-0.37332600000000005,0.501844,0.28034499999999996
578,-0.7759510000000001,-0.9827739999999999,-1.391161,-0.388519,0.832039,-0.39593,3.7926879999999996,-1.1450559999999999,-0.120886,-0.037445,0.217475,0.529048
579,-0.715575,-0.9243620000000001,-1.296559,-0.39516799999999996,0.798236,-0.45459700000000003,4.053033999999999,-0.668596,0.11533099999999999,0.039409,0.12110599999999999,0.509026
580,-0.660406,-0.866517,-1.211056,-0.39719,0.7620779999999999,-0.511346,3.7900199999999997,-0.626803,0.28115100000000004,0.075016,-0.014565999999999999,0.48653500000000005
581,-0.6260399999999999,-0.8136,-1.1418760000000001,-0.402474,0.726765,-0.55662,3.3395379999999997,-0.957451,0.242108,0.141854,-0.266788,0.495616
582,-0.608219,-0.765829,-1.0893110000000001,-0.41187399999999996,0.6931350000000001,-0.591542,2.769145,-1.026206,0.08225199999999999,0.095818,-0.475529,0.460591
583,-0.61295,-0.7295590000000001,-1.0545639999999998,-0.42885500000000004,0.6665409999999999,-0.609758,1.880464,-1.608543,-0.038577,0.09075,-0.522696,0.60985
584,-0.629709,-0.706159,-1.033461,-0.44807700000000006,0.6489159999999999,-0.614925,1.1192950000000002,-1.450468,-0.015255000000000001,0.18010299999999999,-0.48274799999999995,0.584316
585,-0.647845,-0.69724,-1.023683,-0.462629,0.642104,-0.6112890000000001,0.25866,-1.063197,0.054081,0.265837,-0.43772799999999995,0.44446499999999994
586,-0.666413,-0.702296,-1.0263360000000001,-0.47188599999999997,0.645972,-0.600035,-0.551918,-0.728168,0.09071900000000001,0.243691,-0.393881,0.367674
587,-0.685434,-0.71965,-1.038008,-0.476045,0.659122,-0.582184,-1.172544,-0.47852799999999995,0.270866,0.193941,-0.36804499999999996,0.262344
588,-0.70565,-0.747222,-1.056518,-0.475746,0.679603,-0.558393,-1.6996509999999998,-0.34519,0.41656499999999996,0.199562,-0.448479,0.218106
589,-0.732225,-0.786098,-1.083364,-0.472387,0.707601,-0.5254979999999999,-2.351115,-0.488767,0.6557529999999999,0.12763,-0.376226,-0.160919
590,-0.772199,-0.83396,-1.116118,-0.468825,0.740598,-0.481367,-2.4717439999999997,-1.0122200000000001,0.8606799999999999,-0.035920999999999995,-0.007063,-0.514757
591,-0.8198209999999999,-0.8682700000000001,-1.139642,-0.47234799999999993,0.763212,-0.440899,-1.11124,-1.862149,0.44077799999999995,-0.107807,0.47696099999999997,-0.8005720000000001
592,-0.834123,-0.857067,-1.129833,-0.48490900000000003,0.755925,-0.439816,1.655586,0.136818,-0.48569700000000005,-0.943177,1.281886,-0.407841
593,-0.77668,-0.815284,-1.085226,-0.48058900000000004,0.727921,-0.489043,2.7285009999999996,1.001392,-0.243233,-0.42917,-0.52031,-0.581392
594,-0.742484,-0.7849229999999999,-1.032096,-0.478315,0.706771,-0.5212359999999999,2.029515,-0.8773569999999999,0.528753,0.07777200000000001,-0.9890129999999999,-0.642796
595,-0.750382,-0.775999,-0.998713,-0.48669799999999996,0.70043,-0.522035,0.574168,-1.8279310000000002,0.545443,0.375889,-0.31638099999999997,-0.055327
596,-0.782066,-0.785817,-0.9896940000000001,-0.498121,0.707403,-0.501452,-0.32909299999999997,-1.8540419999999997,0.6652170000000001,-0.11281,0.505259,-0.14108099999999998
597,-0.7942060000000001,-0.795836,-0.9803149999999999,-0.499091,0.714448,-0.49037600000000003,-0.040587,0.28536999999999996,0.331205,-0.989358,2.5103590000000002,0.902775
598,-0.758604,-0.788258,-0.974291,-0.48503100000000005,0.709126,-0.511745,1.1529260000000001,0.697574,0.11041400000000001,-0.056061,-0.5961350000000001,1.344646
599,-0.744159,-0.805163,-0.9709,-0.4694,0.7209439999999999,-0.5098050000000001,-2.250175,0.906249,0.958045,0.340403,-1.235409,0.938699
600,-0.77563,-0.845908,-1.014017,-0.46424499999999996,0.7485729999999999,-0.473404,-1.7999029999999998,-0.767089,-0.016225,-0.074176,0.27358299999999997,-0.09114
601,-0.8039430000000001,-0.875144,-1.0652540000000001,-0.461499,0.767636,-0.44469200000000003,-3.295522,1.6742810000000001,0.008656,0.427625,1.28905,0.447774
602,-0.838983,-0.9382309999999999,-1.152242,-0.439841,0.8065140000000001,-0.39505999999999997,-3.9245019999999995,1.296542,0.710841,0.125708,0.676503,0.572108
603,-0.872591,-0.9865010000000001,-1.205978,-0.42253100000000005,0.834101,-0.354598,-2.18534,0.214248,0.794879,0.025558,-0.062601,0.36436399999999997
604,-0.91499,-1.026522,-1.256988,-0.41038100000000005,0.855503,-0.31575,-2.592802,-0.150194,0.645085,-0.037282,-0.18105,0.142868
605,-0.996028,-1.066257,-1.343485,-0.40572600000000003,0.875397,-0.26279600000000003,-3.088375,-0.435532,0.23713299999999998,-0.024419,-0.014573,0.12977
606,-1.099116,-1.097988,-1.45967,-0.405658,0.890293,-0.206919,-3.090393,0.462704,-0.079158,-0.058087,0.011441,0.184916
607,-1.180626,-1.1206399999999999,-1.5767870000000002,-0.4024,0.900379,-0.165489,-2.657238,1.4708370000000002,-0.017603999999999998,-0.018772999999999998,-0.10712,0.211403
608,-1.245655,-1.1382459999999999,-1.6791770000000001,-0.39721799999999996,0.9079,-0.133904,-2.202404,1.146172,0.059697,0.026475,-0.252977,0.154183
609,-1.319521,-1.1495600000000001,-1.772034,-0.396042,0.9125840000000001,-0.101664,-1.8948209999999999,0.202593,-0.0042439999999999995,0.089554,-0.22538899999999998,0.11336800000000001
610,-1.3932950000000002,-1.1580540000000001,-1.8514380000000001,-0.394813,0.916024,-0.070825,-1.4860200000000001,-0.132663,0.097318,0.190055,-0.042611,0.042932
611,-1.450993,-1.163858,-1.9108319999999999,-0.392955,0.9183370000000001,-0.047304,-1.105582,-0.210769,0.11930299999999999,0.26295,-0.050921,-0.10386500000000001
612,-1.510481,-1.168391,-1.968391,-0.390913,0.9201219999999999,-0.023607,-1.218384,-0.374467,0.128339,0.27689899999999995,-0.120699,-0.10433800000000001
613,-1.5782450000000001,-1.171195,-2.035282,-0.389032,0.921216,0.002898,-1.340359,-0.280035,0.062204999999999996,0.275095,-0.16775299999999999,-0.094283
614,-1.6487319999999999,-1.170101,-2.1042419999999997,-0.388867,0.92079,0.030368,-1.297277,-0.316957,-0.065634,0.03645,-0.112272,-0.135028
615,-1.7126099999999997,-1.16353,-2.1652139999999997,-0.39211599999999996,0.918207,0.055983000000000005,-1.2205059999999999,-0.508245,-0.247518,0.007213,-0.018045,-0.233
616,-1.781885,-1.15384,-2.2273549999999998,-0.395982,0.914326,0.084851,-1.375493,-0.572685,-0.248518,0.050506999999999996,0.025478,-0.308042
617,-1.8430650000000002,-1.142619,-2.289374,-0.399909,0.909724,0.11165599999999999,-1.258885,-0.026608,-0.247335,0.087119,0.136312,-0.260475
618,-1.871891,-1.134451,-2.318965,-0.403609,0.906302,0.125335,-0.362818,-0.221759,-0.173528,0.08541699999999999,0.277963,-0.33560100000000004
619,-1.8732490000000002,-1.13293,-2.318695,-0.40475300000000003,0.905658,0.12629300000000002,0.10425899999999999,0.129627,-0.007278,0.22259400000000001,0.365322,-0.342724
620,-1.8573380000000002,-1.1339219999999999,-2.31541,-0.40584899999999996,0.9060790000000001,0.119584,0.068226,0.895692,-0.007447,-0.159093,0.26829899999999995,-0.23754899999999998
621,-1.8364779999999998,-1.133247,-2.302062,-0.408844,0.9057930000000001,0.11125299999999999,0.43069399999999997,-0.007337000000000001,-0.136217,-0.243194,0.200439,-0.364854
622,-1.806634,-1.135993,-2.265937,-0.409563,0.9069530000000001,0.09842200000000001,1.001379,0.11791199999999999,0.015022999999999998,-0.16392400000000001,0.083465,-0.38455500000000004
623,-1.731353,-1.1425610000000002,-2.2001459999999997,-0.409916,0.9097,0.066386,1.684959,1.010325,0.0272,0.184406,-0.18802,-0.243937
624,-1.6055760000000001,-1.145058,-2.088878,-0.412734,0.910734,0.014361,2.65978,1.4392209999999999,-0.182321,0.184081,-0.032514999999999995,0.041303
625,-1.438791,-1.134428,-1.95282,-0.418966,0.906293,-0.055629,2.874906,2.46665,-0.49405600000000005,0.003775,0.8295629999999999,0.19863499999999998
626,-1.288843,-1.1194870000000001,-1.83359,-0.418916,0.899877,-0.121348,2.478596,1.797575,0.135353,-0.444258,1.266047,0.580561
627,-1.17114,-1.109083,-1.7359259999999999,-0.410371,0.8952899999999999,-0.173336,2.174593,1.260974,0.058073,-0.6553329999999999,0.377048,0.40168400000000004
628,-1.05786,-1.088074,-1.638293,-0.40445,0.885734,-0.227794,2.6311310000000003,1.611452,0.194341,-0.264602,0.38993099999999997,0.539013
629,-0.917615,-1.056163,-1.5184959999999998,-0.390891,0.870474,-0.299124,3.6561510000000004,1.465486,0.11088800000000001,-0.163857,0.5625560000000001,0.27706
630,-0.82416,-1.010194,-1.410979,-0.39025,0.846935,-0.361112,3.3460629999999996,-1.108018,0.06288200000000001,-0.191796,0.688465,0.194776
631,-0.8023359999999999,-0.9695729999999999,-1.321951,-0.40669099999999997,0.824644,-0.393142,3.324143,-2.891137,0.309637,-0.099489,0.461412,0.517684
632,-0.7539020000000001,-0.9192459999999999,-1.2193379999999998,-0.41508500000000004,0.795145,-0.442092,4.158426,-1.10915,0.440299,-0.055479999999999995,0.078055,0.5484
633,-0.6946100000000001,-0.863302,-1.117412,-0.41601000000000005,0.759993,-0.49934300000000004,4.202812000000001,-1.047083,0.597558,-0.042959,-0.225111,0.5131979999999999
634,-0.649233,-0.808772,-1.027563,-0.41739,0.72344,-0.549924,3.843771,-1.048463,0.721102,0.11460999999999999,-0.3281,0.410383
635,-0.619975,-0.7615149999999999,-0.956068,-0.42053199999999996,0.690018,-0.589087,3.1017759999999996,-1.115413,0.524794,0.22148099999999998,-0.402985,0.428885
636,-0.614211,-0.7240979999999999,-0.9073700000000001,-0.43171400000000004,0.66246,-0.612182,2.240687,-1.547423,0.349485,0.192716,-0.411713,0.486388
637,-0.626195,-0.7013689999999999,-0.871674,-0.44773,0.6452640000000001,-0.619007,1.369401,-1.771972,0.515671,0.151084,-0.443421,0.689655
638,-0.6419050000000001,-0.693757,-0.8456790000000001,-0.460326,0.63943,-0.615813,0.652352,-1.519283,0.549862,0.30082600000000004,-0.548244,0.6585529999999999
639,-0.656977,-0.696155,-0.833326,-0.468617,0.6412720000000001,-0.60759,-0.106137,-0.9556450000000001,0.381472,0.285878,-0.540137,0.56076
640,-0.671932,-0.710175,-0.835633,-0.47200699999999995,0.651967,-0.593418,-0.9001520000000001,-0.536353,0.377525,0.19434300000000002,-0.399663,0.347477
641,-0.688163,-0.736364,-0.8499709999999999,-0.47056899999999996,0.6715979999999999,-0.572292,-1.646886,-0.21655100000000002,0.437061,0.174457,-0.495008,0.214153
642,-0.710518,-0.776996,-0.878967,-0.46505100000000005,0.70114,-0.5404869999999999,-2.617918,-0.132688,0.553016,0.164377,-0.435119,-0.039408
643,-0.75426,-0.832181,-0.9246040000000001,-0.461016,0.739402,-0.490658,-3.265335,-0.875724,0.7160890000000001,-0.010694,-0.21620799999999998,-0.299869
644,-0.817344,-0.8819299999999999,-0.9749270000000001,-0.463606,0.771967,-0.43489300000000003,-2.491938,-1.446025,0.407096,-0.13054100000000002,0.5666100000000001,-0.717512
645,-0.8715700000000001,-0.8921889999999999,-0.9962110000000001,-0.48040900000000003,0.778447,-0.404008,0.405551,-1.6029930000000001,-0.41208599999999995,-0.636184,2.1204330000000002,-0.666213
646,-0.8245020000000001,-0.852698,-0.9556889999999999,-0.483073,0.753059,-0.446697,3.030338,1.872929,-0.538143,-0.703908,0.29734099999999997,-0.885914
647,-0.7621140000000001,-0.814033,-0.893618,-0.47404300000000005,0.727062,-0.49664899999999995,2.39458,-0.21034499999999998,0.44285,0.359114,-1.158917,-0.911539
648,-0.770492,-0.803812,-0.8492139999999999,-0.483338,0.720007,-0.49796599999999996,0.873758,-2.7962380000000002,0.812623,0.723222,-0.523031,-0.050526
649,-0.814508,-0.818611,-0.8342700000000001,-0.49697600000000003,0.730197,-0.46885299999999996,-0.67296,-2.32071,0.983876,0.396725,0.342831,0.521816
650,-0.82694,-0.8408049999999999,-0.841001,-0.49071800000000004,0.7451800000000001,-0.45155200000000006,-0.906121,1.212885,0.36883299999999997,-1.022237,2.180555,0.894301
651,-0.783695,-0.8309559999999999,-0.8290299999999999,-0.475896,0.738576,-0.47752,2.089326,0.618595,-0.129707,-0.738368,0.23379,0.612712
652,-0.7664979999999999,-0.817896,-0.802949,-0.474264,0.729709,-0.49253900000000006,-0.952199,0.101479,0.489576,0.556265,-1.648089,1.3434
653,-0.8009569999999999,-0.8610399999999999,-0.8513,-0.467896,0.758521,-0.453559,-2.623173,-0.309896,0.11844,-0.39860500000000004,-0.22395900000000002,-0.269327
654,-0.844208,-0.8865959999999999,-0.9080299999999999,-0.472422,0.774925,-0.41988500000000006,-2.7719869999999998,1.0463120000000001,-0.312694,0.181651,0.7004630000000001,0.09034099999999999
655,-0.8839530000000001,-0.944749,-1.001476,-0.45308000000000004,0.81035,-0.37154499999999996,-4.290635,1.541572,0.7592409999999999,0.213304,1.105269,0.793909
656,-0.919891,-1.000467,-1.066748,-0.42951300000000003,0.841723,-0.32713200000000003,-2.434828,0.5728260000000001,1.117412,-0.015708,0.056775,0.42097299999999993
657,-0.952076,-1.041666,-1.108514,-0.41120200000000007,0.863246,-0.292767,-2.153346,0.045542,0.866886,-0.086219,-0.354427,0.175763
658,-1.017263,-1.078274,-1.183455,-0.402235,0.881143,-0.248572,-2.812941,-0.09160700000000001,0.30591,0.011412,-0.247049,0.155127
659,-1.112007,-1.1085479999999999,-1.296941,-0.399838,0.8950520000000001,-0.197497,-3.01608,0.69119,-0.005228,0.015163999999999999,-0.012284999999999999,0.21803499999999998
660,-1.201074,-1.1326209999999999,-1.4178899999999999,-0.39561,0.9055270000000001,-0.153316,-2.823927,1.036402,0.078993,0.036113,-0.042292,0.200954
661,-1.286957,-1.151153,-1.533623,-0.39112199999999997,0.913234,-0.114097,-2.365886,0.8994200000000001,0.104801,0.067957,-0.108944,0.19400699999999999
662,-1.361915,-1.162491,-1.629836,-0.388414,0.917795,-0.082333,-1.814905,0.479045,0.057914,0.156862,-0.219004,0.124051
663,-1.4288969999999999,-1.168873,-1.7040220000000001,-0.38724699999999995,0.9203100000000001,-0.055322,-1.31649,-0.17896199999999998,0.075057,0.17971199999999998,-0.17407899999999998,0.065148
664,-1.488083,-1.173465,-1.761453,-0.385625,0.9220969999999999,-0.031969,-1.085868,-0.340771,0.113195,0.22025,-0.08503,0.007036
665,-1.548918,-1.17716,-1.820037,-0.383445,0.9235209999999999,-0.008391,-1.179637,-0.309571,0.117841,0.29969,-0.079099,-0.130235
666,-1.612048,-1.178299,-1.883587,-0.38216,0.9239569999999999,0.015774,-1.2343709999999999,-0.204739,0.056436,0.186863,-0.135199,-0.141018
667,-1.680432,-1.176826,-1.951039,-0.38154099999999996,0.923392,0.041999,-1.3349719999999998,-0.35533200000000004,-0.025259,0.14768499999999998,-0.145591,-0.129386
668,-1.752059,-1.169455,-2.020808,-0.38424200000000003,0.920538,0.070422,-1.416205,-0.385,-0.260797,-0.034108,-0.017523,-0.117022
669,-1.8216290000000002,-1.156557,-2.085839,-0.389887,0.915423,0.099901,-1.329727,-0.48816400000000004,-0.377565,-0.006033,0.035719,-0.186082
670,-1.8717650000000001,-1.143793,-2.133637,-0.395519,0.9102110000000001,0.122768,-0.9735360000000001,-0.23181999999999997,-0.323063,0.03535,0.050986000000000004,-0.28857
671,-1.8962139999999998,-1.13493,-2.159696,-0.400027,0.9065049999999999,0.134974,-0.472343,0.066367,-0.204571,0.305591,0.338948,-0.29447399999999996
672,-1.900007,-1.131317,-2.171303,-0.402609,0.904974,0.137549,-0.22924499999999998,0.471642,-0.00043099999999999996,0.452734,0.44500200000000006,-0.06626
673,-1.8975369999999998,-1.132623,-2.1814459999999998,-0.401828,0.9055280000000001,0.136174,-0.103173,0.6358199999999999,0.125222,0.12091400000000001,0.418767,-0.134954
674,-1.884179,-1.134454,-2.172334,-0.402034,0.9063040000000001,0.13028399999999998,0.372886,-0.139837,0.013105,-0.09056499999999999,0.274559,-0.42320699999999994
675,-1.8656400000000002,-1.139723,-2.1460150000000002,-0.399805,0.908518,0.121419,0.771945,-0.010681,0.13536800000000002,-0.037375,0.21042399999999997,-0.221532
676,-1.803936,-1.150598,-2.095054,-0.396895,0.913008,0.09424600000000001,1.4198309999999998,1.17415,0.311427,0.074309,0.085863,-0.09548200000000001
677,-1.695974,-1.162415,-2.0051509999999997,-0.39400599999999997,0.9177649999999999,0.04958,2.1846490000000003,1.2444680000000001,0.178878,-0.056708,0.08565299999999999,0.049007
678,-1.547925,-1.162433,-1.8743869999999998,-0.396995,0.9177719999999999,-0.009081,2.785831,1.5417239999999999,-0.352483,-0.240197,0.324019,0.159167
679,-1.392458,-1.148201,-1.738478,-0.403616,0.9120280000000001,-0.072753,2.691774,1.532349,-0.324286,-0.470667,0.432791,0.345733
680,-1.255679,-1.1340569999999999,-1.626519,-0.40215100000000004,0.906136,-0.13109300000000002,2.334845,1.9265869999999998,-0.036728,-0.45463000000000003,0.504905,0.389287
681,-1.117126,-1.1166639999999999,-1.518629,-0.394302,0.898642,-0.19225699999999998,2.587486,2.059207,0.145397,-0.338334,0.367258,0.400906
682,-0.9864440000000001,-1.091257,-1.41303,-0.38481,0.887207,-0.25451599999999996,2.75488,1.591798,-0.061138,-0.298311,0.513809,0.2285
683,-0.894186,-1.057467,-1.321105,-0.382891,0.8711139999999999,-0.307488,2.776646,-0.150253,0.001066,-0.23400700000000002,0.485163,0.41974700000000004
684,-0.836361,-1.019858,-1.227722,-0.388534,0.8520340000000001,-0.350821,3.284153,-1.494888,0.158022,-0.067597,0.433763,0.568045
685,-0.773799,-0.968831,-1.12375,-0.39573400000000003,0.824224,-0.405023,3.9962910000000003,-0.961305,0.10355999999999999,0.076856,0.151545,0.414911
686,-0.716803,-0.9125629999999999,-1.029635,-0.401884,0.7910739999999999,-0.461179,3.8893940000000002,-0.957937,0.153016,0.011656,-0.08897100000000001,0.476682
687,-0.672646,-0.8575959999999999,-0.9483860000000001,-0.407639,0.756272,-0.511742,3.653057,-0.979892,0.253942,-0.033279,-0.175965,0.435158
688,-0.6444310000000001,-0.808829,-0.879862,-0.41471899999999995,0.723479,-0.5518890000000001,3.141587,-1.194836,0.370286,0.062409000000000006,-0.340087,0.481592
689,-0.633594,-0.767714,-0.82381,-0.425975,0.694493,-0.579846,2.616089,-1.582816,0.347885,0.16534000000000001,-0.413441,0.517987
690,-0.636537,-0.737698,-0.78193,-0.439877,0.672586,-0.595091,1.784123,-1.523508,0.356952,0.181194,-0.42461499999999996,0.517775
691,-0.644713,-0.7245149999999999,-0.754794,-0.450017,0.662772,-0.59851,0.742997,-1.144266,0.459221,0.24254299999999998,-0.456855,0.490005
692,-0.656533,-0.724896,-0.74252,-0.45690600000000003,0.663058,-0.592949,-8.1e-05,-0.9068280000000001,0.33408499999999997,0.222455,-0.524783,0.438011
693,-0.672125,-0.735244,-0.742292,-0.461797,0.670768,-0.580353,-0.637303,-0.7108180000000001,0.353952,0.17668699999999998,-0.42443000000000003,0.40820300000000004
694,-0.689265,-0.755436,-0.751019,-0.46296800000000005,0.685606,-0.5617850000000001,-1.194394,-0.45875299999999997,0.40528600000000004,0.21721,-0.411253,0.358431
695,-0.707022,-0.7862939999999999,-0.770142,-0.458904,0.7077399999999999,-0.53713,-1.9176529999999998,-0.091283,0.511926,0.15175999999999998,-0.506522,0.117132
696,-0.734136,-0.8317190000000001,-0.804608,-0.45127799999999996,0.7390909999999999,-0.5000899999999999,-2.820389,-0.212308,0.657463,0.12133699999999999,-0.48251400000000005,-0.04735
697,-0.782191,-0.8832030000000001,-0.851672,-0.447342,0.772776,-0.450221,-2.799544,-0.870425,0.583676,-0.063461,-0.01652,-0.42819700000000005
698,-0.841699,-0.912234,-0.890475,-0.45639799999999997,0.7908729999999999,-0.407697,-1.091625,-1.796288,-0.0623,-0.234688,1.329,-0.667528
699,-0.8447819999999999,-0.8932399999999999,-0.8813559999999999,-0.46880299999999997,0.779107,-0.416188,1.961339,0.7948649999999999,-0.677751,-0.8833540000000001,1.2952190000000001,-0.629726
700,-0.77622,-0.851102,-0.8295399999999999,-0.461793,0.752007,-0.47034899999999996,2.652725,1.146987,-0.091192,-0.289443,-0.36098600000000003,-0.912769
701,-0.7464609999999999,-0.826147,-0.782201,-0.460196,0.735326,-0.49750600000000006,1.5484639999999998,-1.1354229999999998,0.47979099999999997,0.469138,-0.994603,-0.613593
702,-0.770776,-0.823664,-0.757165,-0.47342700000000004,0.733641,-0.48747799999999997,0.131831,-2.496248,0.493004,0.499138,-0.439192,-0.116389
703,-0.811346,-0.837764,-0.748502,-0.48525799999999997,0.743149,-0.460707,-0.304854,-1.954021,0.8706139999999999,0.182921,0.4581,0.31246799999999997
704,-0.8036310000000001,-0.8576389999999999,-0.753913,-0.470962,0.7563,-0.45409399999999994,-1.237938,2.614838,0.109418,-0.941789,2.258531,1.2462540000000002
705,-0.76059,-0.848225,-0.743974,-0.455876,0.750108,-0.479075,2.2074380000000002,0.171432,-0.031094999999999998,-0.58514,-0.021409,0.9932040000000001
706,-0.754753,-0.839744,-0.732811,-0.457413,0.744472,-0.48634399999999994,-1.2536,0.065743,0.095484,0.212464,-1.319591,1.1447610000000001
707,-0.795814,-0.866367,-0.781012,-0.462664,0.761981,-0.453125,-1.8161889999999998,-0.628514,-0.29104800000000003,0.403521,1.003674,0.146515
708,-0.829348,-0.9017870000000001,-0.8423639999999999,-0.457396,0.784436,-0.41886,-3.638842,1.688507,0.211339,0.59616,1.546435,0.331779
709,-0.869117,-0.9689479999999999,-0.9375690000000001,-0.43241199999999996,0.824291,-0.36545900000000003,-4.1267879999999995,1.504515,0.8245309999999999,0.07381499999999999,1.081898,0.8986770000000001
710,-0.9008450000000001,-1.018634,-0.9951479999999999,-0.41115,0.851392,-0.325702,-2.084336,0.463871,0.886064,-0.19322,0.044466000000000006,0.379734
711,-0.939068,-1.052812,-1.038658,-0.39957,0.868819,-0.292391,-2.043864,-0.16646,0.506868,-0.183621,-0.224852,0.193469
712,-1.012892,-1.084958,-1.118105,-0.39614,0.8842840000000001,-0.247205,-2.695135,-0.158468,0.13911300000000001,-0.077325,-0.262457,0.11973299999999999
713,-1.096743,-1.112355,-1.2231370000000001,-0.393743,0.8967430000000001,-0.20202,-2.722695,0.92771,-0.002408,0.056981,-0.07697999999999999,0.16683299999999998
714,-1.1707530000000002,-1.137389,-1.33227,-0.3868,0.90754,-0.163556,-2.656266,1.218445,0.22735100000000003,0.050039,-0.087777,0.12837
715,-1.256213,-1.161975,-1.447292,-0.378011,0.91759,-0.123001,-2.582417,0.8801549999999999,0.31269,0.22443200000000002,-0.266726,0.175628
716,-1.343193,-1.1783370000000002,-1.5595370000000002,-0.37259000000000003,0.9239709999999999,-0.086298,-2.1436349999999997,0.772791,0.141772,0.24025,-0.184271,0.194101
717,-1.418827,-1.185325,-1.652684,-0.371653,0.9266209999999999,-0.056919000000000004,-1.6005850000000001,0.325396,-0.067506,0.24108400000000002,-0.138215,0.148883
718,-1.4882440000000001,-1.187306,-1.724532,-0.372877,0.927364,-0.030851999999999997,-1.250867,-0.401415,-0.031017000000000003,0.212049,-0.099575,-0.039918
719,-1.56592,-1.188149,-1.794401,-0.373364,0.9276790000000001,-0.0018210000000000001,-1.3697840000000001,-0.734488,-0.017534,0.16679000000000002,-0.180426,-0.12668900000000002
720,-1.6510580000000001,-1.186516,-1.873561,-0.373675,0.927068,0.030056,-1.543197,-0.422683,-0.053328,0.12397999999999999,-0.202703,-0.15928299999999998
721,-1.732304,-1.179096,-1.95818,-0.376781,0.9242610000000001,0.061388,-1.705073,-0.059205999999999995,-0.23118699999999998,-0.021838999999999997,-0.079916,-0.1671
722,-1.8179150000000002,-1.1659469999999998,-2.047336,-0.381904,0.919162,0.096345,-1.8644669999999999,-0.25638099999999997,-0.334597,0.0008,0.06953200000000001,-0.140061
723,-1.888944,-1.149359,-2.119829,-0.388534,0.912502,0.127958,-1.377657,-0.224904,-0.369693,0.033034,0.029133,-0.21017199999999997
724,-1.9145450000000002,-1.140111,-2.143336,-0.39305999999999996,0.9086799999999999,0.1407,-0.20998899999999998,-0.21355700000000002,-0.22375100000000003,0.230477,0.364544,-0.508925
725,-1.9117549999999999,-1.1381629999999998,-2.144858,-0.39511799999999997,0.9078649999999999,0.140194,-0.111105,0.63958,-0.006236,0.42960200000000004,0.457949,-0.263653
726,-1.901805,-1.137544,-2.159077,-0.397024,0.9076049999999999,0.136438,-0.350001,1.218516,0.07787999999999999,0.348135,0.469775,-0.074808
727,-1.8926610000000001,-1.136865,-2.16078,-0.39884000000000003,0.9073200000000001,0.132997,0.20552800000000002,0.035841000000000005,-0.082299,-0.185648,0.293867,-0.291155
728,-1.8797139999999999,-1.1395790000000001,-2.137986,-0.398181,0.908457,0.127074,0.659758,-0.363631,0.054914,-0.084561,0.21115599999999998,-0.211729
729,-1.828166,-1.149483,-2.092262,-0.39547899999999997,0.9125530000000001,0.104093,1.301977,1.057417,0.304338,0.12259,0.269393,0.007356999999999999
730,-1.730336,-1.164883,-2.015454,-0.389834,0.9187420000000001,0.062727,1.899245,1.3892799999999998,0.444817,-0.014127,0.268956,0.040193
731,-1.5945850000000001,-1.173547,-1.8970529999999999,-0.386764,0.9221290000000001,0.009202,2.616706,1.328781,0.034367,-0.349015,0.367605,0.177504
732,-1.436321,-1.165174,-1.753268,-0.391019,0.9188569999999999,-0.052902,2.83609,1.297742,-0.38494,-0.368319,0.170407,0.347686
733,-1.287474,-1.1462379999999999,-1.625989,-0.395488,0.911221,-0.115148,2.665521,1.8128220000000002,-0.37504099999999996,-0.45783,0.46175,0.353963
734,-1.1370719999999999,-1.1225180000000001,-1.506836,-0.393276,0.9011950000000001,-0.182141,2.825716,2.312033,-0.14703,-0.34369299999999997,0.440984,0.315564
735,-0.9945290000000001,-1.093864,-1.399752,-0.384914,0.888407,-0.250135,2.727509,2.138431,-0.07165,-0.380619,0.41902700000000004,0.20396199999999998
736,-0.8936950000000001,-1.061579,-1.313659,-0.379944,0.8731260000000001,-0.305429,2.544737,0.583991,-0.128619,-0.334258,0.368115,0.568628
737,-0.8354159999999999,-1.019768,-1.229377,-0.388258,0.851987,-0.35123899999999997,3.3152559999999998,-1.578767,-0.20165,-0.071886,0.377048,0.732617
738,-0.785204,-0.9630799999999999,-1.129227,-0.403672,0.8209540000000001,-0.403829,4.255346,-1.258391,-0.149561,0.101365,0.328842,0.484304
739,-0.716169,-0.898106,-1.028832,-0.409058,0.782148,-0.470012,4.399264,-0.37338000000000005,0.050068,-0.0007480000000000001,-0.045163999999999996,0.347027
740,-0.6654329999999999,-0.8375969999999999,-0.945946,-0.41319300000000003,0.743037,-0.526463,3.7896650000000003,-0.809602,0.17669200000000002,-0.034194999999999996,-0.224146,0.356846
741,-0.637107,-0.786199,-0.8806219999999999,-0.4203,0.707673,-0.567929,3.1556490000000004,-1.057941,0.22599299999999997,0.005994,-0.314423,0.382352
742,-0.626951,-0.744255,-0.833291,-0.431555,0.677424,-0.595696,2.4386259999999997,-1.208301,0.087649,0.121084,-0.453211,0.504113
743,-0.632776,-0.7120810000000001,-0.801226,-0.447679,0.653411,-0.610438,1.7341380000000002,-1.386531,-0.018524000000000002,0.199785,-0.395095,0.530421
744,-0.6448189999999999,-0.6927,-0.782565,-0.462524,0.638617,-0.615009,0.8476389999999999,-1.092769,0.014431,0.21731599999999998,-0.415763,0.489231
745,-0.654393,-0.688605,-0.775964,-0.469979,0.6354609999999999,-0.612622,0.036761,-0.549098,0.089255,0.25927,-0.42168500000000003,0.44733900000000004
746,-0.66602,-0.694945,-0.780729,-0.47457200000000005,0.640343,-0.603937,-0.6130899999999999,-0.376232,0.047106999999999996,0.23668699999999998,-0.37598400000000004,0.352976
747,-0.681792,-0.7119840000000001,-0.794275,-0.477091,0.653337,-0.587819,-1.179006,-0.342852,0.18198,0.19604000000000002,-0.316423,0.30559200000000003
748,-0.701212,-0.737869,-0.813298,-0.477343,0.672713,-0.56533,-1.6235549999999999,-0.353624,0.33057600000000004,0.2204,-0.377867,0.20838099999999998
749,-0.725961,-0.773353,-0.8401059999999999,-0.475034,0.698539,-0.535147,-2.229002,-0.315913,0.482259,0.155042,-0.421439,-0.01803
750,-0.760494,-0.8204739999999999,-0.876973,-0.47,0.7314689999999999,-0.49401300000000004,-2.753922,-0.5260819999999999,0.748054,0.143584,-0.414666,-0.24104899999999999
751,-0.8054720000000001,-0.867717,-0.914376,-0.466276,0.7628550000000001,-0.44792200000000004,-2.244421,-1.123278,0.73315,-0.144396,0.384499,-0.741607
752,-0.844318,-0.8837799999999999,-0.927349,-0.47409799999999996,0.773142,-0.421281,0.284466,-1.107661,-0.035417000000000004,-0.581048,1.619528,-0.553038
753,-0.804905,-0.851783,-0.889409,-0.47472299999999995,0.752456,-0.45655500000000004,2.596087,1.065305,-0.39165900000000003,-0.689232,0.511414,-0.6136050000000001
754,-0.7614,-0.819248,-0.839657,-0.47106499999999996,0.730633,-0.49423599999999995,1.992502,-0.28521399999999997,0.334382,-0.297627,-0.337383,-0.7626
755,-0.760739,-0.805665,-0.79979,-0.477538,0.721291,-0.501689,1.0283719999999998,-1.917821,0.5220199999999999,0.39282100000000003,-0.378671,0.102153
756,-0.7924770000000001,-0.812765,-0.7896310000000001,-0.489558,0.726191,-0.482675,-0.630038,-1.723727,0.574281,0.228404,-0.11809800000000001,0.290979
757,-0.819284,-0.836991,-0.81148,-0.48931899999999995,0.742631,-0.45723199999999997,-1.74088,0.456875,-0.055841999999999996,-0.23634299999999997,0.724608,0.35533400000000004
758,-0.791841,-0.8377709999999999,-0.8278040000000001,-0.47617600000000004,0.743153,-0.47007899999999997,1.335274,1.685179,-0.06904400000000001,-0.040151,-0.813878,0.776857
759,-0.7579600000000001,-0.822606,-0.797663,-0.46767299999999995,0.732921,-0.494068,-1.020308,0.555871,0.669046,0.7105779999999999,-1.266475,1.0758860000000001
760,-0.787203,-0.8844920000000001,-0.8567440000000001,-0.448887,0.773593,-0.44726899999999997,-3.554797,0.568138,0.331929,-0.076641,-0.47448999999999997,0.112384
761,-0.8324520000000001,-0.915062,-0.9124270000000001,-0.450952,0.7926,-0.410393,-2.304929,0.476109,-0.11428599999999998,0.523325,1.570055,0.45600100000000005
762,-0.867735,-0.96835,-0.993408,-0.43228199999999994,0.823952,-0.366374,-3.988114,1.630176,0.717442,0.306214,1.204887,0.629558
763,-0.901625,-1.023368,-1.065293,-0.408237,0.853866,-0.322877,-2.6629240000000003,1.111416,0.8929379999999999,-0.099392,-0.21845900000000001,0.29020799999999997
764,-0.935293,-1.062862,-1.119899,-0.391415,0.873751,-0.288699,-2.283276,0.520142,0.5758810000000001,-0.086353,-0.423708,0.128833
765,-1.013976,-1.098493,-1.209651,-0.386209,0.890523,-0.240427,-3.0949470000000003,-0.382712,0.0896,-0.027502999999999996,-0.078832,0.246484
766,-1.129624,-1.127591,-1.342044,-0.38776900000000003,0.903382,-0.18311,-3.2200159999999998,0.773346,-0.1264,-0.0057090000000000005,0.069931,0.246846
767,-1.2220030000000002,-1.151716,-1.4728510000000001,-0.382409,0.9134639999999999,-0.139068,-2.840827,1.382392,0.150002,0.075616,0.037525,0.232161
768,-1.310607,-1.170582,-1.592551,-0.376492,0.9209780000000001,-0.100231,-2.3364409999999998,0.863926,0.164871,0.108776,-0.129153,0.20330399999999998
769,-1.383734,-1.180084,-1.684478,-0.374193,0.924638,-0.070825,-1.529399,0.363093,0.036554,0.147859,-0.244844,0.036661
770,-1.440618,-1.1857389999999999,-1.742764,-0.372423,0.9267770000000001,-0.048757,-0.9380200000000001,-0.387306,0.167697,0.24185399999999999,-0.038883,-0.058253
771,-1.489334,-1.191997,-1.787061,-0.36856700000000003,0.929109,-0.030091000000000003,-0.87929,-0.295157,0.24917399999999998,0.31182,0.032408,-0.128997
772,-1.5430629999999999,-1.197859,-1.8442049999999999,-0.3642,0.931261,-0.010103000000000001,-1.174811,0.13112000000000001,0.197425,0.27710300000000004,-0.131838,-0.070509
773,-1.606057,-1.199544,-1.914785,-0.362545,0.931874,0.012789,-1.335572,0.023758,0.012706,0.094479,-0.231587,0.057066
774,-1.682562,-1.195798,-1.9889439999999998,-0.363973,0.930508,0.04085,-1.32894,-0.57743,-0.165939,0.010244,-0.132107,0.04228
775,-1.754014,-1.1870100000000001,-2.050561,-0.368155,0.9272540000000001,0.068217,-1.14245,-0.7554569999999999,-0.295799,-0.008615000000000001,0.097847,-0.20985
776,-1.82473,-1.176101,-2.1115009999999996,-0.372185,0.923114,0.096595,-1.336236,-0.634545,-0.262056,0.054375,0.064161,-0.360008
777,-1.887623,-1.164253,-2.173694,-0.375744,0.918493,0.123196,-1.23241,-0.047026,-0.22362800000000002,0.079693,0.017419999999999998,-0.299267
778,-1.9179549999999999,-1.155373,-2.207574,-0.37949,0.9149459999999999,0.137304,-0.491075,-0.008357999999999999,-0.146929,0.237767,0.208116,-0.213827
779,-1.9213,-1.153591,-2.213506,-0.38055900000000004,0.914225,0.139132,-0.035487,0.163028,0.021609,0.397313,0.443197,-0.156909
780,-1.920093,-1.155749,-2.21683,-0.378872,0.9150969999999999,0.137997,0.004111999999999999,0.298809,0.13067,0.197613,0.399646,-0.10558699999999999
781,-1.911,-1.157483,-2.209868,-0.378614,0.915795,0.134017,0.22888699999999998,-0.129749,0.015285,-0.22189499999999998,0.26023,-0.314269
782,-1.9039810000000001,-1.161442,-2.195953,-0.37611700000000003,0.917378,0.130169,0.42026499999999994,-0.128882,0.165103,-0.19154000000000002,0.181713,-0.143826
783,-1.8597549999999998,-1.172367,-2.161194,-0.371874,0.9216719999999999,0.11055,1.083623,0.968418,0.372361,-0.030913,0.178045,0.018905
784,-1.7677599999999998,-1.1879520000000001,-2.08786,-0.366325,0.9276059999999999,0.073101,1.826386,1.3054379999999999,0.42946000000000006,-0.046196,0.249793,0.03809
785,-1.6263450000000002,-1.199841,-1.966188,-0.36193400000000003,0.931981,0.020125999999999998,2.5790919999999997,1.423098,0.189944,-0.36897800000000003,0.217662,0.12873900000000002
786,-1.4590100000000001,-1.197392,-1.814399,-0.362498,0.931091,-0.040692,2.7388220000000003,1.225878,-0.178292,-0.368733,0.07605,0.261654
787,-1.302821,-1.182882,-1.678814,-0.364747,0.9257,-0.100152,2.585701,1.7666990000000002,-0.227056,-0.47169399999999995,0.288015,0.34591
788,-1.142981,-1.161923,-1.551609,-0.361735,0.9175690000000001,-0.164944,2.714661,2.3664419999999997,-0.070964,-0.39157600000000004,0.362964,0.377666
789,-0.987525,-1.134423,-1.4332639999999999,-0.352769,0.9062899999999999,-0.232776,2.84496,2.172059,-0.058053999999999994,-0.407607,0.420461,0.31950700000000004
790,-0.873339,-1.0978430000000001,-1.3299239999999999,-0.349138,0.890227,-0.292561,2.954466,0.167972,-0.077154,-0.38072,0.4162,0.399067
