,attitude.roll,attitude.pitch,attitude.yaw,gravity.x,gravity.y,gravity.z,rotationRate.x,rotationRate.y,rotationRate.z,userAcceleration.x,userAcceleration.y,userAcceleration.z
0,-2.9277439999999997,-1.331365,-0.44622399999999995,-0.050327,0.9714729999999999,0.23174299999999998,-2.875521,0.5390699999999999,-1.521017,0.034,0.062463,-0.137596
1,-2.852013,-1.27283,-0.376339,-0.08383,0.9559350000000001,0.28135,-2.403115,0.012140999999999999,-1.759528,-0.016314,-0.05939,-0.5422600000000001
2,-2.809289,-1.217309,-0.310077,-0.112927,0.9381709999999999,0.32723,-2.4015880000000003,-1.631247,-1.843938,0.046536,-0.091782,-0.687688
3,-2.823126,-1.155051,-0.26757600000000004,-0.12645599999999999,0.9148149999999999,0.383561,-2.812767,-3.268687,-1.7261389999999999,0.210333,-0.200079,-0.716294
4,-2.8596779999999997,-1.092465,-0.23325900000000002,-0.128052,0.8877639999999999,0.442126,-2.68931,-3.409329,-1.56059,0.26870700000000003,-0.48383400000000004,-0.6445489999999999
5,-2.9113729999999998,-1.037616,-0.209925,-0.11598299999999999,0.861195,0.49486199999999997,-2.354518,-3.6151269999999998,-1.002513,0.297029,-0.711064,-0.6386
6,-2.965263,-0.9990680000000001,-0.197438,-0.094916,0.840967,0.532694,-1.4646190000000001,-2.915838,-0.5592229999999999,0.32651399999999997,-0.7978609999999999,-0.566691
7,-3.0068479999999997,-0.981326,-0.189883,-0.074681,0.8312350000000001,0.55088,-0.482967,-2.097086,-0.234017,0.442662,-0.742536,-0.470131
8,-3.037391,-0.9810110000000001,-0.185412,-0.05785,0.83106,0.553165,0.266835,-1.519735,-0.077832,0.307515,-0.7307640000000001,-0.48736899999999994
9,-3.060254,-0.9950040000000001,-0.18186300000000002,-0.044239999999999995,0.8387610000000001,0.542697,0.9817450000000001,-1.203941,-0.016627,0.20468599999999998,-0.7154550000000001,-0.48144799999999993
10,-3.0771900000000003,-1.024126,-0.17640999999999998,-0.033456,0.85426,0.518766,1.750075,-0.973146,-0.05749,-0.004966,-0.651471,-0.29701
11,-3.082802,-1.068063,-0.166378,-0.028310000000000002,0.8762690000000001,0.480988,2.4812060000000002,-0.545918,-0.171503,-0.102091,-0.411166,0.174178
12,-3.065505,-1.125047,-0.150008,-0.032772,0.9022879999999999,0.429886,3.015715,0.6856260000000001,-0.12341400000000001,-0.094959,-0.24196399999999998,0.767334
13,-3.033814,-1.167534,-0.143335,-0.042212,0.9197860000000001,0.390142,0.977281,1.0325739999999999,0.12789,0.46378199999999997,0.616927,0.977015
14,-3.037052,-1.156176,-0.132635,-0.042036000000000004,0.915269,0.40064099999999997,-0.8134680000000001,-1.295216,-0.6753239999999999,0.7165819999999999,1.6429580000000001,0.891992
15,-3.008819,-1.136315,-0.072594,-0.055725,0.9070879999999999,0.41723299999999997,-0.8909309999999999,-1.40206,-1.593331,0.234833,0.706879,0.223437
16,-2.985399,-1.11463,-0.009311,-0.068525,0.897748,0.435146,-0.74721,-1.6636240000000002,-1.308913,-0.047883999999999996,-0.510663,0.41691999999999996
17,-2.9895509999999996,-1.105428,0.017741,-0.067966,0.8936569999999999,0.44357399999999997,-0.147856,-1.318642,-0.189945,0.074848,-0.531123,0.6100909999999999
18,-3.017393,-1.105017,-0.004488000000000001,-0.055637,0.8934719999999999,0.445658,-0.095595,0.502468,0.690438,0.062519,-0.530938,0.608008
19,-2.968195,-1.1257549999999998,-0.0035759999999999998,-0.074273,0.902593,0.424037,1.804756,3.3028,-0.353143,0.164422,1.114863,-1.828807
20,-2.867289,-1.151425,0.05139,-0.110297,0.9133450000000001,0.391961,0.807924,1.611956,-1.023442,0.425375,1.610657,-0.041054
21,-2.8426270000000002,-1.144655,0.090799,-0.12174700000000001,0.910567,0.395022,-0.12136300000000001,-0.911905,-0.69555,0.493604,0.39064099999999996,-0.056399
22,-2.848493,-1.140411,0.095533,-0.12054300000000001,0.908805,0.399424,-0.163509,-0.8196040000000001,0.233391,0.877714,-1.1857520000000001,0.189183
23,-2.854264,-1.1622649999999999,0.076026,-0.11258,0.9177049999999999,0.380973,2.185249,2.416068,0.7530560000000001,0.12286400000000001,-0.276821,-0.583518
24,-2.734101,-1.240265,0.102395,-0.128618,0.9458700000000001,0.297968,4.168933999999999,5.423655,1.085661,0.19182000000000002,0.174232,-1.107309
25,-2.661387,-1.303409,0.095691,-0.122054,0.964464,0.23432600000000003,1.895531,2.5981959999999997,1.5444879999999999,-0.049638,0.8887309999999999,-0.347851
26,-2.676979,-1.348096,0.061875,-0.09896100000000001,0.975305,0.197446,2.0254220000000003,0.327828,1.232111,-0.138282,0.433555,-0.28820500000000004
27,-2.652333,-1.39972,0.073114,-0.080006,0.985402,0.150263,2.422814,0.939836,1.01939,-0.11498599999999999,0.206904,-0.250254
28,-2.581523,-1.4484489999999999,0.133296,-0.06483,0.992525,0.10338900000000001,2.212192,0.09689099999999999,0.74767,0.101893,-0.18121500000000001,-0.280452
29,-2.4429220000000003,-1.489818,0.284437,-0.052021000000000005,0.9967229999999999,0.061928,2.1230290000000003,-0.761478,0.498183,0.152561,-0.291523,0.015739
30,-1.9909290000000002,-1.524306,0.740151,-0.04242,0.998919,0.018951,2.220182,0.456791,0.515461,0.178956,-0.34592,0.20439200000000002
31,-0.84247,-1.530281,1.868782,-0.030218000000000002,0.999179,-0.026951999999999997,2.215226,1.1168719999999999,0.617129,0.31983,-0.21841799999999997,0.176289
32,-0.23387399999999997,-1.499684,2.453634,-0.016464,0.9974729999999999,-0.06911,1.989803,1.346447,0.677217,0.192413,-0.17586300000000002,0.217838
33,0.030155,-1.465035,2.683378,0.0031829999999999996,0.9944120000000001,-0.105512,1.7145,2.015576,0.8816719999999999,0.10851199999999998,-0.23068000000000002,0.269895
34,0.186591,-1.433216,2.800436,0.025442,0.9905510000000001,-0.13476300000000002,1.409945,1.907973,0.881819,0.031672000000000006,-0.28483200000000003,0.003629
35,0.286901,-1.402277,2.870737,0.047462,0.985834,-0.160865,1.339828,1.2849389999999998,0.90456,-0.112846,-0.17235799999999998,0.143378
36,0.356348,-1.371168,2.926616,0.069178,0.98014,-0.185844,1.339623,0.390766,1.006118,-0.182536,-0.08115399999999999,0.170372
37,0.38955500000000004,-1.3357219999999999,2.955654,0.08845499999999999,0.972497,-0.215462,1.66317,0.3135,0.8674709999999999,-0.302475,0.004721,0.175622
38,0.400009,-1.299959,2.952703,0.10418599999999999,0.9635469999999999,-0.246416,1.56992,0.8169810000000001,0.51473,-0.36769,-0.086869,0.43089399999999994
39,0.404531,-1.274023,2.940235,0.115098,0.956285,-0.26883,1.0553780000000001,0.765339,0.289012,-0.295137,0.009505,0.672959
40,0.420212,-1.260594,2.939066,0.124528,0.9522719999999999,-0.27869299999999997,0.366034,0.9351430000000001,0.24765900000000002,-0.22523600000000002,0.232909,0.33808
41,0.45438500000000004,-1.255351,2.956668,0.136166,0.950658,-0.278758,0.028093,0.703349,0.431467,-0.427029,0.385813,0.153941
42,0.485464,-1.253486,2.983927,0.14559,0.9500780000000001,-0.27596,-0.226481,0.014214,0.361137,-0.602774,0.402186,0.582982
43,0.513597,-1.264736,3.01364,0.148033,0.953528,-0.262429,-1.077828,0.06048099999999999,-0.080703,-0.41309399999999996,0.494241,0.510826
44,0.533652,-1.296106,3.039935,0.137978,0.9625090000000001,-0.233531,-1.910307,-0.5310630000000001,-0.611326,-0.303261,0.6057739999999999,0.383448
45,0.568178,-1.352428,3.088029,0.116569,0.976252,-0.182595,-3.054777,-0.583271,-1.214252,-0.493385,0.532659,0.21031999999999998
46,0.636147,-1.423527,-3.114986,0.087171,0.989175,-0.11802699999999999,-3.485265,-0.49440500000000004,-1.4854969999999998,0.518679,0.709555,0.091034
47,0.831484,-1.492809,-2.903213,0.057554999999999995,0.9969610000000001,-0.05248099999999999,-3.178363,-0.924221,-1.357821,0.746766,0.820499,-0.24756799999999998
48,1.721155,-1.535547,-2.006606,0.0348,0.9993790000000001,0.005272,-2.790045,0.42038100000000006,-0.951975,0.8855040000000001,0.820491,-0.0812
49,2.8971270000000002,-1.507088,-0.8604649999999999,0.015402,0.9979709999999999,0.06174400000000001,-2.86408,1.9462849999999998,-0.9950399999999999,0.703271,0.595992,0.34087399999999995
50,-3.077705,-1.4499950000000001,-0.583563,-0.007693000000000001,0.992712,0.12024800000000001,-2.901805,1.1846,-0.959076,0.672167,0.515466,0.28986300000000004
51,-2.984385,-1.393946,-0.491453,-0.027542,0.984403,0.17374900000000001,-2.683073,-0.370919,-1.094424,0.380768,0.390323,-0.361356
52,-2.918996,-1.3319809999999999,-0.421729,-0.05222,0.971619,0.230706,-3.014443,0.15124300000000002,-1.383691,-0.001552,0.087631,-0.24193699999999999
53,-2.849183,-1.2733219999999998,-0.355665,-0.084489,0.9560799999999999,0.280657,-2.3435580000000003,0.044659,-1.68438,-0.036269,-0.128367,-0.43164300000000005
54,-2.822176,-1.21706,-0.301433,-0.108774,0.9380850000000001,0.328878,-2.532066,-2.00433,-1.6713200000000001,0.110223,-0.100469,-0.673528
55,-2.840705,-1.156708,-0.259812,-0.119244,0.915483,0.384274,-2.633882,-3.046919,-1.66215,0.271175,-0.272753,-0.531796
56,-2.870972,-1.100723,-0.22126700000000002,-0.12108599999999999,0.8915350000000001,0.436461,-2.345275,-3.448165,-1.470544,0.277321,-0.439905,-0.659163
57,-2.919477,-1.05306,-0.197164,-0.109025,0.868942,0.48275,-1.994979,-3.319404,-0.941629,0.299134,-0.743576,-0.587471
58,-2.9614979999999997,-1.020905,-0.179062,-0.09360800000000001,0.8525809999999999,0.514137,-1.13652,-2.650271,-0.6555479999999999,0.410807,-0.864224,-0.576836
59,-2.994202,-1.0088780000000002,-0.166384,-0.078247,0.846234,0.5270279999999999,-0.199973,-1.853907,-0.286831,0.430496,-0.869992,-0.542516
60,-3.017001,-1.0143950000000002,-0.161197,-0.06563,0.849161,0.524035,0.560656,-1.136401,-0.024996,0.39770700000000003,-0.8641610000000001,-0.476946
61,-3.034084,-1.0345229999999999,-0.15864,-0.054824,0.859619,0.507981,1.293151,-0.897553,0.08236399999999999,0.203978,-0.748047,-0.38679600000000003
62,-3.049528,-1.070222,-0.156306,-0.044122,0.877307,0.477891,2.072095,-0.824824,0.133645,0.025415,-0.711444,-0.20639200000000002
63,-3.057689,-1.121371,-0.150193,-0.036407999999999996,0.900697,0.432913,2.8246860000000003,-0.555542,0.072327,-0.077102,-0.579926,0.077814
64,-3.054992,-1.184662,-0.14874400000000002,-0.032573000000000005,0.926372,0.37519,3.1548990000000003,0.568134,0.36588699999999996,-0.092778,-0.22744299999999998,0.838799
65,-3.067065,-1.19886,-0.173037,-0.027058999999999996,0.931625,0.36240100000000003,-1.182188,-0.395839,0.37101,0.669729,1.316986,1.256541
66,-3.065605,-1.171529,-0.148831,-0.02951,0.9213459999999999,0.387612,-1.112924,-0.9578620000000001,-1.1297059999999999,0.896332,2.007746,1.172981
67,-3.020291,-1.1480190000000001,-0.075146,-0.049645999999999996,0.911953,0.40727199999999997,-1.013881,-1.320275,-1.6925709999999998,0.075205,-0.501339,0.276337
68,-3.0036419999999997,-1.129614,-0.030624000000000002,-0.05871900000000001,0.9042469999999999,0.42294499999999996,-0.661442,-0.9769709999999999,-0.47277600000000003,0.019427,-0.58363,0.506468
69,-3.009777,-1.105127,-0.046152,-0.059016,0.8935209999999999,0.445119,-1.783571,1.239736,0.265369,0.12316400000000001,-0.326169,0.665309
70,-2.946511,-1.084149,-0.033371,-0.090654,0.883906,0.45878800000000003,0.01627,2.7918540000000003,-1.029415,0.072008,1.642538,-0.758257
71,-2.903334,-1.091993,0.014283,-0.108732,0.887547,0.44769499999999995,0.647368,-1.456019,-0.889241,0.014891,0.304454,-1.277803
72,-2.894536,-1.097904,0.042829,-0.111382,0.8902540000000001,0.441626,0.155161,-0.337623,-0.16131099999999998,0.418404,-0.57423,-0.566839
73,-2.926299,-1.0965790000000002,0.011332,-0.097553,0.88965,0.446092,0.21312899999999999,0.645091,0.986173,0.896167,-1.0998860000000001,0.576399
74,-2.841917,-1.159934,0.011783,-0.117904,0.9167770000000001,0.38159099999999996,4.395477,5.70414,0.810214,-0.120652,0.144548,-0.8623649999999999
75,-2.760103,-1.243016,0.0033280000000000002,-0.11985599999999999,0.946759,0.298788,2.929826,2.831745,1.915677,0.024931000000000002,0.69176,-1.418356
76,-2.803337,-1.291766,-0.05207899999999999,-0.091394,0.9613229999999999,0.259806,1.844514,-0.148255,1.3649850000000001,-0.019903999999999998,0.9474450000000001,-0.37508600000000003
77,-2.824755,-1.341988,-0.070627,-0.070663,0.973937,0.21551399999999998,2.574511,-0.09773899999999999,0.8871829999999999,-0.105774,0.367676,-0.154616
78,-2.8014650000000003,-1.397752,-0.052989,-0.057435,0.985065,0.162301,2.656298,0.531454,0.646598,0.006044,0.107342,-0.101983
79,-2.742682,-1.447303,-0.000194,-0.047836000000000004,0.992384,0.113488,2.375074,0.002534,0.49362399999999995,0.268585,-0.20271199999999998,-0.206246
80,-2.610537,-1.495554,0.143438,-0.038053,0.9971709999999999,0.064789,2.5474080000000003,-0.632775,0.445435,0.23345700000000003,-0.282083,-0.034729
81,-1.984045,-1.540991,0.765648,-0.027214,0.999556,0.011933,2.6462790000000003,0.872541,0.605498,0.20005,-0.32758899999999996,0.27865500000000004
82,-0.357985,-1.531339,2.36606,-0.0138,0.9992219999999999,-0.036889,2.289158,1.436151,0.628987,0.24020999999999998,-0.08081,0.09638300000000001
83,0.00702,-1.4904879999999998,2.6986950000000003,0.000563,0.996777,-0.080188,2.114947,1.8744580000000002,0.660324,0.178255,-0.06689099999999999,0.229831
84,0.16679000000000002,-1.449617,2.8132479999999997,0.020065,0.992667,-0.11918499999999999,1.842628,2.415002,0.783779,0.057495000000000004,-0.301367,0.196074
85,0.278598,-1.414872,2.879523,0.042703,0.9878680000000001,-0.14929,1.477486,2.172111,0.8360190000000001,0.002128,-0.366195,0.001616
86,0.360946,-1.383385,2.928763,0.065795,0.98249,-0.174299,1.313315,1.35626,0.9406030000000001,-0.084212,-0.31209499999999996,0.12434100000000001
87,0.41594899999999996,-1.351206,2.969186,0.088012,0.975987,-0.199247,1.3881350000000001,0.48017,0.983909,-0.155501,-0.126942,0.130063
88,0.436953,-1.316216,2.97936,0.10657,0.9677690000000001,-0.228169,1.601713,0.7350909999999999,0.719087,-0.268923,0.039738,0.140294
89,0.443485,-1.284894,2.96431,0.12100999999999999,0.959407,-0.254734,1.3900709999999998,1.17429,0.29403,-0.474526,-0.061962,0.328754
90,0.434276,-1.262982,2.93296,0.127475,0.952998,-0.274845,1.064817,0.9049950000000001,-0.011271999999999999,-0.412616,0.17258199999999999,0.65189
91,0.44344700000000004,-1.250874,2.9257299999999997,0.134932,0.94926,-0.284068,0.25203600000000004,0.780883,0.295131,-0.203901,0.229253,0.542872
92,0.484671,-1.247632,2.9590490000000003,0.147957,0.948235,-0.280987,-0.187386,0.19092699999999999,0.623966,-0.306771,0.33003899999999997,0.206722
93,0.5244300000000001,-1.249082,3.000755,0.15832100000000002,0.9486950000000001,-0.273694,-0.6394810000000001,0.084511,0.45537,-0.515514,0.503622,0.6140869999999999
94,0.567001,-1.268839,3.0430509999999997,0.159725,0.9547559999999999,-0.250846,-1.5331620000000001,-0.043836,-0.238643,-0.6088520000000001,0.708955,0.48944799999999994
95,0.609783,-1.313723,3.0977650000000003,0.145601,0.9671379999999999,-0.20842,-2.648441,-0.838176,-0.9579190000000001,-0.604799,0.577921,-0.102325
96,0.628037,-1.3779059999999999,3.1405279999999998,0.112624,0.981454,-0.155106,-3.12034,-1.0959379999999999,-1.6221139999999998,-0.395431,0.700553,0.026917
97,0.718989,-1.450526,-3.031101,0.07900499999999999,0.992776,-0.090263,-3.327882,-1.1317959999999998,-1.532719,0.11528499999999998,0.751792,0.40560100000000004
98,1.043199,-1.51052,-2.675073,0.052003999999999995,0.998184,-0.030302999999999997,-2.9878419999999997,-1.461827,-1.0802,0.635069,0.665528,-0.5030680000000001
99,2.260591,-1.524808,-1.448426,0.035408999999999996,0.998943,0.029212000000000002,-3.102242,0.26076900000000003,-0.72642,0.6052770000000001,0.5498850000000001,-0.322135
100,2.954656,-1.473851,-0.765713,0.017983000000000002,0.9953040000000001,0.095073,-3.3418699999999997,0.6787340000000001,-0.879249,0.529625,0.543834,0.272404
101,3.122826,-1.4129209999999999,-0.597025,0.00295,0.987563,0.15717,-2.960917,-0.5844630000000001,-0.731827,0.42840100000000003,0.618226,-0.38055900000000004
102,-3.085734,-1.3557290000000002,-0.506985,-0.011914,0.9769620000000001,0.213063,-2.77665,-0.250425,-1.042889,0.44209,0.48293800000000003,-0.461812
103,-2.987706,-1.302416,-0.416965,-0.040643,0.964202,0.262024,-2.3731400000000002,0.522363,-1.507874,0.28129,0.159135,-0.15036
104,-2.917684,-1.250629,-0.330936,-0.06988,0.949183,0.306858,-2.33868,-1.395002,-1.836325,0.214121,0.029089,-0.615742
105,-2.892641,-1.193941,-0.258854,-0.090668,0.929826,0.356644,-2.524548,-2.423299,-1.865147,0.23252899999999999,-0.08139199999999999,-0.695649
106,-2.899771,-1.135808,-0.20147,-0.100911,0.906875,0.40913099999999997,-2.4957990000000003,-3.242109,-1.7207560000000002,0.180578,-0.489807,-0.6934640000000001
107,-2.928665,-1.084845,-0.16345,-0.09869700000000001,0.884231,0.456495,-2.131304,-3.0186669999999998,-1.170501,0.199878,-0.837936,-0.629209
108,-2.966917,-1.047282,-0.14285699999999998,-0.08688,0.8660680000000001,0.49231199999999997,-1.466234,-2.693723,-0.690914,0.30178499999999997,-0.971109,-0.591875
109,-3.004028,-1.028006,-0.130178,-0.07083099999999999,0.8562709999999999,0.511641,-0.549095,-2.211421,-0.353977,0.360702,-0.866311,-0.492857
110,-3.034749,-1.0266950000000001,-0.122949,-0.055202,0.855593,0.514691,0.23565100000000003,-1.610025,-0.114257,0.347163,-0.811709,-0.47166099999999994
111,-3.060367,-1.03935,-0.121053,-0.041118,0.862075,0.505103,0.86379,-1.253926,0.06593099999999999,0.22500100000000003,-0.7704310000000001,-0.368369
112,-3.082776,-1.06453,-0.12216600000000001,-0.028504,0.874561,0.48407,1.499575,-0.98682,0.117031,0.037431,-0.620167,-0.182053
113,-3.094074,-1.104157,-0.116995,-0.02137,0.893085,0.44937200000000005,2.334259,-0.641591,-0.093361,-0.120125,-0.325504,0.33461
114,-3.089658,-1.16031,-0.109136,-0.020715,0.916927,0.39851,2.836002,0.26377,0.035033,-0.003043,-0.12022000000000001,0.7628060000000001
115,-3.086486,-1.178318,-0.10730999999999999,-0.021066,0.9239639999999999,0.38189,-0.674818,-0.47250299999999995,-0.076141,0.500146,1.917741,1.123282
116,-3.0701330000000002,-1.147907,-0.070784,-0.029301,0.911907,0.409341,-1.5671469999999998,-0.800178,-1.273021,0.5817760000000001,1.716953,0.77877
117,-3.025275,-1.116502,-0.0025800000000000003,-0.050927,0.8985709999999999,0.435855,-1.25167,-0.985223,-1.624162,0.32998,0.826984,0.415707
118,-3.007805,-1.098041,0.046124,-0.060737,0.890317,0.45126499999999997,-0.482181,-1.322393,-0.824666,0.194053,-0.47266899999999995,0.36212
119,-3.021794,-1.079798,0.0465,-0.05635,0.881863,0.46812,-1.574025,-0.16789400000000002,0.18531199999999998,0.492782,0.22355999999999998,0.886555
120,-3.005129,-1.038292,0.041166,-0.069066,0.8615379999999999,0.502966,-1.650765,2.012555,-0.503817,0.403706,1.1754950000000002,0.77479
121,-2.944865,-1.045801,0.090042,-0.097966,0.865326,0.49153500000000006,1.537699,-0.22002,-1.1965299999999999,0.015094999999999999,0.033248,-2.154636
122,-2.908038,-1.075801,0.131902,-0.10993800000000001,0.879971,0.462124,1.3117940000000001,0.49634399999999995,-0.06136900000000001,0.9713120000000001,-1.426419,-0.827908
123,-2.9421180000000002,-1.0702969999999998,0.08563,-0.095086,0.877343,0.470342,-0.8263389999999999,0.725985,1.371911,1.376199,-1.443352,-0.223623
124,-2.851872,-1.134298,0.076448,-0.120776,0.9062379999999999,0.405142,4.980341,6.795758999999999,0.9090370000000001,-0.062222,0.177014,-0.734503
125,-2.759705,-1.222955,0.074654,-0.127029,0.940111,0.316306,3.0702439999999998,2.608085,1.7834130000000001,-0.128418,1.433257,-1.311911
126,-2.765732,-1.272525,0.058427999999999994,-0.107868,0.9558459999999999,0.27334400000000003,2.019482,-0.22759000000000001,0.808693,-0.22619299999999998,1.534861,-0.691832
127,-2.745962,-1.3194540000000001,0.082751,-0.095844,0.9685799999999999,0.229483,2.484281,0.102238,0.508142,-0.25796199999999997,0.155947,-0.14391099999999998
128,-2.685841,-1.371308,0.127025,-0.087215,0.980168,0.177929,2.552228,1.1665159999999999,0.698465,0.22059299999999998,-0.43202700000000005,-0.100369
129,-2.632535,-1.4209,0.161708,-0.072771,0.9887870000000001,0.130385,2.2189970000000003,0.648846,0.9734700000000001,0.206148,-0.440645,-0.052824
130,-2.582528,-1.4689379999999999,0.21547600000000003,-0.05391900000000001,0.9948170000000001,0.086181,2.294088,-0.556866,0.863376,0.329279,-0.322698,-0.058227
131,-2.375191,-1.51712,0.42430500000000004,-0.03718,0.99856,0.03862,2.460122,0.50372,0.826857,0.111765,-0.091532,0.361191
132,-1.124472,-1.545541,1.6493939999999998,-0.022697,0.9996809999999999,-0.010860999999999999,2.36125,1.607273,0.664519,0.09728200000000001,-0.092653,0.41067200000000004
133,-0.182729,-1.515024,2.55753,-0.010123,0.998445,-0.054778999999999994,2.06055,1.770687,0.552183,-0.146509,-0.103853,0.104644
134,0.048954000000000004,-1.477168,2.748177,0.004574,0.9956200000000001,-0.09335800000000001,1.834097,2.228304,0.59488,-0.11436099999999999,-0.383148,0.145513
135,0.17121,-1.443422,2.831755,0.02164,0.991899,-0.125159,1.532533,1.687832,0.684265,-0.004703,-0.395753,-0.044717
136,0.258662,-1.410296,2.898167,0.040875,0.9871469999999999,-0.15448499999999998,1.501516,0.705926,0.9074969999999999,0.073825,-0.269969,0.06354299999999999
137,0.31728,-1.375616,2.953442,0.060503999999999995,0.9810129999999999,-0.184255,1.593193,0.030008,0.9613459999999999,0.022702,-0.063959,0.23881999999999998
138,0.349085,-1.337127,2.978877,0.079196,0.972823,-0.217577,1.759807,0.636157,0.815387,-0.169986,0.016236,0.281358
139,0.36992600000000003,-1.303325,2.983766,0.095552,0.964442,-0.24641,1.390293,0.759968,0.543455,-0.306154,-0.032832,0.323696
140,0.38584,-1.280702,2.986181,0.107646,0.958217,-0.26500799999999997,0.805902,0.687963,0.409142,-0.215648,0.144826,0.59942
141,0.41534,-1.269554,3.00159,0.11972000000000001,0.9549690000000001,-0.271476,0.233915,0.716354,0.46493100000000004,-0.20744200000000002,0.23170700000000002,0.403816
142,0.45194700000000004,-1.26472,3.029363,0.131589,0.953523,-0.27106199999999997,-0.0022660000000000002,0.37422300000000003,0.447696,-0.41840900000000003,0.39684899999999995,0.14410799999999999
143,0.473254,-1.2647899999999999,3.048425,0.13730499999999998,0.9535440000000001,-0.268138,-0.307039,0.084886,0.075265,-0.709723,0.537011,0.495921
144,0.47401499999999996,-1.2810190000000001,3.0503430000000002,0.130426,0.9583079999999999,-0.254229,-1.0213649999999999,-0.19241,-0.555347,-0.630213,0.7528590000000001,0.46490699999999996
145,0.457129,-1.320951,3.04146,0.10912899999999999,0.968951,-0.221861,-2.1319470000000003,-0.715938,-1.3368950000000002,-0.43913100000000005,0.634641,0.14894000000000002
146,0.39804,-1.384048,3.001435,0.071962,0.982613,-0.17114100000000002,-3.0687740000000003,-0.954791,-1.798195,-0.11525099999999999,0.869209,0.364607
147,0.322153,-1.460364,2.938383,0.034888,0.993909,-0.104523,-3.440189,-0.646042,-1.6975669999999998,0.23735900000000001,0.84444,0.441407
148,0.226681,-1.531,2.859768,0.008931,0.999208,-0.038721,-3.210693,-0.8096939999999999,-0.931976,0.896098,0.651304,-0.212743
149,-3.097111,-1.546942,-0.468938,-0.001057,0.9997159999999999,0.023749,-3.16141,1.046529,-0.30482800000000004,0.902775,0.48827600000000004,0.051248
150,-3.002023,-1.480041,-0.40825700000000004,-0.012605,0.995885,0.089725,-3.3898370000000004,1.856222,-0.659974,0.697709,0.5157579999999999,0.421796
151,-2.943073,-1.413009,-0.377134,-0.030986,0.987577,0.154032,-3.113586,0.7405189999999999,-0.80937,0.566036,0.465487,-0.221475
152,-2.899117,-1.350924,-0.329866,-0.052364999999999995,0.975925,0.21171199999999998,-2.887132,-0.222136,-1.3598940000000002,0.417706,0.44962700000000005,-0.532375
153,-2.829066,-1.287914,-0.263856,-0.08581799999999999,0.960255,0.26559499999999997,-2.675358,0.45408699999999996,-1.752387,0.003527,0.269405,-0.22927899999999998
154,-2.770666,-1.231259,-0.200518,-0.12072100000000001,0.942909,0.310394,-2.154544,-0.367397,-1.898316,0.062997,-0.087425,-0.468109
155,-2.751636,-1.176246,-0.15398199999999998,-0.146124,0.92317,0.355529,-2.362813,-1.921543,-1.74075,0.217596,-0.256864,-0.7127060000000001
156,-2.778834,-1.117964,-0.122733,-0.155252,0.8992120000000001,0.409036,-2.4818439999999997,-3.092474,-1.5894620000000002,0.29499200000000003,-0.26253899999999997,-0.7420439999999999
157,-2.8261529999999997,-1.06454,-0.102207,-0.15043299999999998,0.874566,0.460976,-2.25124,-3.345328,-1.1613069999999999,0.271252,-0.670602,-0.664391
158,-2.877298,-1.024569,-0.091531,-0.135698,0.85449,0.501424,-1.516656,-2.7383490000000004,-0.6741229999999999,0.24081599999999997,-0.863951,-0.492742
159,-2.914375,-1.004735,-0.08031,-0.12081199999999999,0.8440200000000001,0.522521,-0.5087109999999999,-2.101458,-0.446776,0.283395,-0.8469190000000001,-0.468962
160,-2.939777,-1.0046389999999998,-0.06808099999999999,-0.107518,0.8439690000000001,0.5255,0.38351799999999997,-1.636485,-0.283043,0.403096,-0.785543,-0.41784899999999997
161,-2.957391,-1.020628,-0.055633,-0.095762,0.8524360000000001,0.51398,1.127999,-1.300905,-0.13406300000000002,0.273481,-0.7074779999999999,-0.412311
162,-2.966462,-1.051448,-0.041214999999999995,-0.086475,0.868143,0.488717,1.833451,-0.947815,-0.067631,0.167331,-0.6987399999999999,-0.371224
163,-2.9637599999999997,-1.094178,-0.022372,-0.08115499999999999,0.888551,0.451535,2.3740189999999997,-0.5480970000000001,-0.063299,-0.04795,-0.5227069999999999,-0.193158
164,-2.946895,-1.1452120000000001,0.001124,-0.079873,0.910798,0.405046,2.671239,0.0963,-0.03107,-0.102774,-0.261994,0.29333400000000004
165,-2.910562,-1.1851459999999998,0.024038,-0.086132,0.9265540000000001,0.36616,1.213539,1.050231,0.039777999999999994,-0.048176,-0.12406400000000001,0.594793
166,-2.911563,-1.170183,0.020635,-0.088917,0.9208219999999999,0.379703,-1.327716,-0.720588,-0.33783,0.6248819999999999,1.549835,1.4269379999999998
167,-2.907499,-1.1425290000000001,0.05292,-0.096331,0.9096870000000001,0.40396,-1.110572,-1.518713,-1.2657120000000002,0.5392319999999999,1.277539,0.765779
168,-2.898692,-1.11825,0.105251,-0.10516700000000001,0.899337,0.424414,-0.704545,-1.8960169999999998,-1.301917,0.333515,0.621858,0.400553
169,-2.895906,-1.107209,0.139373,-0.10875699999999999,0.8944540000000001,0.433724,-0.257894,-1.195519,-0.511347,-0.156609,-1.04692,0.510536
170,-2.929955,-1.102723,0.129726,-0.09477100000000001,0.892439,0.44109499999999996,-0.186792,-1.269939,0.45385,0.035460000000000005,-0.642042,0.181418
171,-2.9106240000000003,-1.12792,0.138432,-0.0981,0.903523,0.41715399999999997,2.46088,1.909143,-0.316873,0.148347,-0.09116,-0.351053
172,-2.776827,-1.172552,0.20983600000000002,-0.13833800000000002,0.921743,0.36228,2.073563,4.048131,-1.024141,0.190477,1.180842,-1.6751770000000001
173,-2.727944,-1.157342,0.23413699999999998,-0.161492,0.915739,0.367883,-1.8640849999999998,-1.8521470000000002,-0.346536,0.695534,2.750445,0.297583
174,-2.76657,-1.13849,0.217873,-0.153462,0.9080020000000001,0.389841,-0.252971,-0.144776,-0.078961,1.024205,-0.60365,-0.242594
175,-2.7881259999999997,-1.1473280000000001,0.21543099999999998,-0.14224,0.9116690000000001,0.38551399999999997,0.6053109999999999,-0.93604,0.449341,1.168775,-1.932131,-0.076402
176,-2.685625,-1.20651,0.243887,-0.156879,0.934378,0.319877,4.597789,6.507964,0.752904,0.249454,-1.0769870000000001,0.422051
177,-2.450407,-1.300662,0.346337,-0.170105,0.963735,0.20560599999999998,4.074661,6.121683999999999,1.634233,0.18829300000000002,0.211695,-1.66337
178,-2.388289,-1.354701,0.350078,-0.14666500000000002,0.976742,0.156395,1.4723620000000002,1.0039770000000001,1.523269,-0.19456700000000002,1.541568,-0.668083
179,-2.3410450000000003,-1.392259,0.402036,-0.127453,0.9841049999999999,0.12364800000000001,1.9037009999999999,-0.216114,0.7053149999999999,-0.44701,0.965557,-0.206717
180,-2.168773,-1.430129,0.5720729999999999,-0.11586099999999999,0.990123,0.078921,2.394167,0.296173,0.574557,-0.21874899999999997,-0.07751,-0.090396
181,-1.8792360000000001,-1.461848,0.868635,-0.103582,0.9940709999999999,0.033002,2.2970349999999997,-0.620862,0.616714,0.034230000000000003,-0.376548,-0.023297
182,-1.449754,-1.475643,1.307639,-0.09429,0.995476,-0.011469,2.243878,0.116451,0.361161,0.25791,-0.433846,0.072962
183,-0.9863959999999999,-1.466593,1.754896,-0.086733,0.994576,-0.057372,2.226177,1.194445,0.392771,0.38608000000000003,-0.39008400000000004,0.224196
184,-0.626861,-1.440505,2.085854,-0.07620299999999999,0.991524,-0.105207,2.2786299999999997,1.6960560000000002,0.380744,0.488175,-0.052039999999999996,0.273465
185,-0.387614,-1.410221,2.289377,-0.060429,0.987135,-0.14801199999999998,1.8790209999999998,2.115903,0.694677,0.152622,-0.196669,0.257463
186,-0.196097,-1.382464,2.434742,-0.036476,0.982318,-0.183621,1.587933,2.5328720000000002,0.8352510000000001,0.054421000000000004,-0.302737,0.155026
187,-0.052772,-1.354902,2.53078,-0.011299,0.976785,-0.21391300000000002,1.4755719999999999,2.396092,0.772684,-0.028908,-0.251657,0.11256400000000001
188,0.061689,-1.3230709999999999,2.604453,0.015116,0.9694729999999999,-0.244725,1.607579,1.787748,0.942097,-0.171336,-0.206625,0.225529
189,0.147553,-1.291444,2.6750700000000003,0.040537000000000004,0.961234,-0.27273000000000003,1.3936899999999999,0.44970299999999996,1.142075,-0.21941599999999997,-0.09879199999999999,0.269984
190,0.199122,-1.260876,2.724414,0.060327,0.952358,-0.298951,1.3752010000000001,0.31884,0.8504889999999999,-0.348139,-0.067501,0.278382
191,0.234704,-1.236688,2.747649,0.07626000000000001,0.9447030000000001,-0.318932,0.913889,0.787538,0.457833,-0.298657,0.185195,0.583504
192,0.259158,-1.223474,2.7572240000000003,0.087227,0.9402879999999999,-0.32900999999999997,0.386669,0.78698,0.25546199999999997,-0.30962399999999995,0.18961,0.5935819999999999
193,0.289186,-1.221744,2.769333,0.09752999999999999,0.9396969999999999,-0.327802,-0.17793399999999998,0.9318719999999999,0.20860399999999998,-0.21180300000000002,0.223419,0.368527
194,0.320376,-1.2283899999999999,2.789675,0.105735,0.9419489999999999,-0.31866500000000003,-0.5550970000000001,0.380125,0.25261,-0.660621,0.32477399999999995,0.450272
195,0.342969,-1.24548,2.8082130000000003,0.107478,0.94755,-0.300989,-1.158249,0.298923,-0.22899499999999998,-0.714121,0.373816,0.40036900000000003
196,0.339467,-1.2816239999999999,2.80559,0.094951,0.9584799999999999,-0.268879,-2.134518,-0.28660399999999997,-0.8076300000000001,-0.573925,0.6414340000000001,0.366902
197,0.331448,-1.343513,2.8084189999999998,0.073323,0.974282,-0.213058,-3.2189200000000002,-0.758563,-1.1884780000000001,0.13927799999999999,0.9861209999999999,0.090637
198,0.253726,-1.411519,2.7478130000000003,0.039807999999999996,0.987342,-0.153514,-2.9036,-0.901416,-1.700975,0.396425,1.1131520000000001,-0.006032
199,0.07785,-1.469611,2.577454,0.007854,0.994885,-0.10068300000000001,-2.676963,0.174796,-1.4358520000000001,0.8377879999999999,1.0426819999999999,-0.155116
200,-0.35851700000000003,-1.5208030000000001,2.1179919999999997,-0.017516999999999998,0.998751,-0.046747000000000004,-2.71833,1.498743,-1.35238,0.851333,0.9426559999999999,0.190881
201,-1.700291,-1.526456,0.7423350000000001,-0.043891,0.999017,0.005716,-2.6399169999999996,1.693107,-1.275169,0.6821659999999999,0.635443,0.277579
202,-2.294216,-1.484126,0.12080999999999999,-0.064853,0.9962469999999999,0.057274,-2.700046,0.804398,-0.889891,0.53194,0.42482,-0.078484
203,-2.517587,-1.431092,-0.09631100000000001,-0.081349,0.9902569999999999,0.112988,-2.762804,-0.8506799999999999,-0.9255959999999999,0.383396,0.41558100000000003,-0.304852
204,-2.608287,-1.373728,-0.183472,-0.09952899999999999,0.9806450000000001,0.16859000000000002,-2.791131,0.14357,-0.987957,0.171047,0.22270900000000002,-0.053980999999999994
205,-2.63479,-1.3165360000000002,-0.206443,-0.122082,0.967849,0.2199,-2.532075,-0.699724,-1.3130110000000002,0.20277,0.050919,-0.42079700000000003
206,-2.67025,-1.259635,-0.20812600000000003,-0.139018,0.9519790000000001,0.272768,-2.491062,-1.9730580000000002,-1.266227,0.27852899999999997,-0.45036099999999996,-0.4218
207,-2.709798,-1.203673,-0.20139400000000002,-0.15020899999999998,0.933364,0.325977,-2.492023,-2.55205,-1.394747,0.260377,-0.41545,-0.529255
208,-2.750648,-1.150191,-0.186825,-0.155588,0.912842,0.37749499999999997,-2.192326,-2.8723229999999997,-1.215986,0.243448,-0.5419619999999999,-0.515847
209,-2.809145,-1.10717,-0.183899,-0.14594200000000002,0.894437,0.422699,-1.8128990000000003,-3.002035,-0.542329,0.147316,-0.905957,-0.621521
210,-2.8746150000000004,-1.080422,-0.196391,-0.12424400000000001,0.882157,0.454262,-1.064589,-2.5415520000000003,0.06905800000000001,0.229636,-1.056809,-0.650414
211,-2.933354,-1.069814,-0.211694,-0.09929099999999999,0.8771110000000001,0.46990200000000004,-0.345661,-2.109285,0.303194,0.32123,-0.9195610000000001,-0.504341
212,-2.984782,-1.072671,-0.22710999999999998,-0.074613,0.8784799999999999,0.47190699999999997,0.347686,-1.7936159999999999,0.414455,0.23125900000000002,-0.8672799999999999,-0.4373
213,-3.0274229999999998,-1.0917649999999999,-0.23606300000000002,-0.052508000000000006,0.887442,0.457908,1.306783,-1.721757,0.260829,0.11453499999999998,-0.750586,-0.325324
214,-3.056582,-1.130157,-0.23107199999999997,-0.036213999999999996,0.904479,0.424966,2.213443,-1.606465,-0.052384,-0.084117,-0.297957,0.42275100000000004
215,-3.061993,-1.1768379999999998,-0.212959,-0.030521,0.9233969999999999,0.38261799999999996,2.281791,-0.58332,-0.231611,-0.0798,-0.133266,0.837139
216,-3.032423,-1.199384,-0.190089,-0.039541,0.931816,0.36075799999999997,0.046305,0.676519,-0.328957,-0.056345000000000006,0.637566,1.1793120000000001
217,-3.026202,-1.177497,-0.17616600000000002,-0.044122,0.92365,0.380677,-1.055424,-0.7203689999999999,-0.627556,0.73768,0.906856,0.94316
218,-2.9831540000000003,-1.161195,-0.118057,-0.062832,0.9172790000000001,0.393244,-0.477858,-0.316216,-1.496777,0.806606,0.319537,0.6344350000000001
219,-2.928242,-1.147169,-0.049661000000000004,-0.087036,0.9116040000000001,0.401738,-0.357309,-0.49266099999999996,-1.432683,0.217849,-0.46549799999999997,0.068172
220,-2.9006369999999997,-1.141382,-0.007266,-0.099348,0.9092100000000001,0.40429899999999996,0.02483,-0.45200100000000004,-0.47828000000000004,0.309096,-0.517288,0.346433
221,-2.91856,-1.1343239999999999,-0.018886,-0.09350399999999999,0.906249,0.412263,-0.666403,-0.342013,0.32005300000000003,0.329359,0.589372,0.560485
222,-2.892645,-1.13259,-0.013475,-0.10454200000000001,0.9055139999999999,0.411225,0.48782299999999995,2.453152,-0.6496850000000001,-0.157406,1.178516,-0.734772
223,-2.800216,-1.1456950000000001,0.047820999999999995,-0.13806600000000002,0.910997,0.388604,0.84203,0.557733,-0.8829950000000001,0.261754,1.125624,-0.778191
224,-2.761301,-1.152865,0.095729,-0.150651,0.9139309999999999,0.376863,0.690218,0.078733,-0.5789989999999999,0.6966720000000001,-0.817602,-0.527223
225,-2.764602,-1.1573149999999999,0.088312,-0.14790799999999998,0.9157270000000001,0.37357399999999996,-0.142219,0.111642,0.7023520000000001,0.9987530000000001,-1.11313,0.21051799999999998
226,-2.737818,-1.1889379999999998,0.071235,-0.146405,0.927974,0.342667,2.853107,3.7171839999999996,0.873547,0.078305,-0.297603,-0.60431
227,-2.5889990000000003,-1.268201,0.12449,-0.15641,0.954566,0.253632,3.814568,4.915808,1.324175,-0.012047,0.7517020000000001,-1.093659
228,-2.5173509999999997,-1.328335,0.134992,-0.140319,0.97075,0.194797,2.083246,1.8922709999999998,1.563784,-0.163178,0.935149,-0.444416
229,-2.4816990000000003,-1.379831,0.154453,-0.116343,0.9818209999999999,0.14994000000000002,2.3717770000000002,0.467307,1.220453,-0.124471,0.43919899999999995,-0.285148
230,-2.368252,-1.4294209999999998,0.260767,-0.098406,0.990023,0.10080800000000001,2.373291,0.43363999999999997,0.8476969999999999,0.076128,0.046888,-0.238747
231,-2.157177,-1.470367,0.468218,-0.083481,0.9949610000000001,0.05545800000000001,2.2386630000000003,0.056321,0.7511,0.234238,-0.25195,-0.085701
232,-1.731934,-1.5002280000000001,0.90186,-0.06954400000000001,0.997511,0.011304,2.210271,-0.41195699999999996,0.664976,0.319483,-0.42648100000000005,0.300097
233,-1.009223,-1.505524,1.6175760000000001,-0.055166999999999994,0.997871,-0.034707999999999996,2.3351740000000003,1.070307,0.706678,0.322333,-0.36241799999999996,0.342783
234,-0.469621,-1.479976,2.1261740000000002,-0.041029,0.9958790000000001,-0.080847,2.143787,1.7651240000000001,0.542081,0.281202,-0.21320999999999998,0.228079
235,-0.210812,-1.4446809999999999,2.346168,-0.026316000000000003,0.992058,-0.122976,2.0020569999999998,2.296048,0.560707,0.11455699999999999,-0.12551099999999998,0.24509299999999998
236,-0.039971,-1.410207,2.4653259999999997,-0.006389,0.987133,-0.15975699999999998,1.6542810000000001,2.646243,0.665719,0.038539,-0.306729,-0.085741
237,0.08179700000000001,-1.379635,2.5448310000000003,0.015522999999999999,0.981784,-0.189352,1.470935,1.8464,0.779763,0.023540000000000002,-0.30530100000000004,-0.0124
238,0.17613,-1.351197,2.615038,0.038168,0.975985,-0.214459,1.208138,0.99864,0.957407,-0.181051,-0.033663,0.36440700000000004
239,0.24651399999999998,-1.3229899999999999,2.674928,0.059851999999999995,0.9694530000000001,-0.237854,1.313264,0.41874300000000003,0.9631569999999999,-0.271217,0.062591,0.26350500000000004
240,0.287744,-1.290448,2.705077,0.078519,0.960959,-0.265306,1.516864,0.823916,0.694868,-0.35384899999999997,0.074807,0.223863
241,0.313352,-1.260787,2.712278,0.09403500000000001,0.9523309999999999,-0.290205,1.267403,0.8757719999999999,0.46446000000000004,-0.422205,0.042924000000000004,0.5623
242,0.328368,-1.238609,2.715013,0.105169,0.9453309999999999,-0.308681,0.8692120000000001,0.48447700000000005,0.361767,-0.310308,0.23499699999999998,0.6030840000000001
243,0.34962,-1.227225,2.728371,0.115383,0.941558,-0.316467,0.243589,0.477782,0.447136,-0.262219,0.24166999999999997,0.389648
244,0.385612,-1.222349,2.7576650000000003,0.128422,0.9399040000000001,-0.31636,-0.007509,0.280016,0.5706180000000001,-0.50626,0.535758,0.418854
245,0.405542,-1.221975,2.778269,0.13483900000000001,0.9397760000000001,-0.31406100000000003,-0.32710700000000004,-0.037818,0.144709,-0.56619,0.509076,0.488316
246,0.41089499999999995,-1.239184,2.78556,0.13003900000000002,0.945519,-0.298462,-1.1276760000000001,-0.23084000000000002,-0.44068100000000004,-0.561389,0.5033340000000001,0.472718
247,0.401438,-1.280568,2.786937,0.11181600000000001,0.9581780000000001,-0.263412,-2.3915580000000003,-0.790564,-1.095066,-0.494338,0.580869,0.072174
248,0.34679899999999997,-1.3449229999999999,2.753935,0.076116,0.974599,-0.21061300000000002,-3.108984,-1.059272,-1.739598,0.040735,0.8422959999999999,0.6136119999999999
249,0.270631,-1.420456,2.692294,0.040035,0.98872,-0.144303,-3.4445089999999996,-0.8135899999999999,-1.616206,0.40321799999999997,0.710972,0.373673
250,0.14861,-1.489234,2.592622,0.012057,0.996676,-0.08052999999999999,-3.082209,-1.068495,-1.0557370000000001,0.853376,0.608457,-0.275518
251,-0.135935,-1.550316,2.303994,-0.002751,0.99979,-0.020116,-3.098106,1.0518379999999998,-0.6184569999999999,0.704183,0.477962,0.277104
252,-2.728551,-1.522054,-0.322716,-0.019525,0.998812,0.044552,-3.2746020000000002,1.8005650000000002,-0.95714,0.585199,0.5418069999999999,0.374042
253,-2.799896,-1.456317,-0.414966,-0.038264,0.9934540000000001,0.107591,-3.125249,0.034337,-0.820305,0.357677,0.547561,-0.187745
254,-2.8185919999999998,-1.393076,-0.416513,-0.056107000000000004,0.9842489999999999,0.167621,-2.8483680000000002,-0.47954399999999997,-1.221501,0.037415,0.231129,-0.03487
255,-2.78708,-1.33341,-0.394355,-0.081627,0.9719559999999999,0.22052399999999997,-2.662802,0.49543400000000004,-1.178725,0.046623000000000005,0.11076199999999999,-0.10538099999999999
256,-2.759395,-1.2768620000000002,-0.35889299999999996,-0.108049,0.957111,0.268803,-2.371514,-0.919435,-1.651304,0.25993499999999997,-0.112507,-0.465092
257,-2.7537220000000002,-1.220437,-0.315317,-0.129813,0.93925,0.317726,-2.343016,-2.180798,-1.656966,0.24103400000000003,-0.212748,-0.547081
258,-2.778349,-1.166411,-0.27875300000000003,-0.139793,0.9193450000000001,0.367769,-2.227566,-3.2170520000000002,-1.555488,0.26934,-0.25969200000000003,-0.585695
259,-2.81727,-1.119001,-0.252806,-0.139121,0.8996649999999999,0.41381,-1.903252,-3.016497,-1.109099,0.21976300000000001,-0.8234319999999999,-0.544868
260,-2.862143,-1.084524,-0.239853,-0.1289,0.8840809999999999,0.449194,-1.321133,-2.648587,-0.646169,0.22916599999999998,-0.920595,-0.533697
261,-2.902059,-1.0662530000000001,-0.23421,-0.114686,0.875396,0.469596,-0.5501149999999999,-2.039484,-0.19184,0.324006,-0.9154959999999999,-0.482642
262,-2.938255,-1.064538,-0.23745700000000003,-0.09792000000000001,0.8745649999999999,0.474908,0.141281,-1.418077,0.18607100000000001,0.368535,-0.874123,-0.462503
263,-2.9675849999999997,-1.075669,-0.24548699999999998,-0.08226,0.879908,0.467958,0.733641,-0.979716,0.33813000000000004,0.296417,-0.859614,-0.428422
264,-2.992807,-1.0993389999999998,-0.254012,-0.067326,0.890907,0.449157,1.38791,-0.857613,0.4045,0.201191,-0.840828,-0.374053
265,-3.014287,-1.137024,-0.257884,-0.053360000000000005,0.907387,0.41688400000000003,2.1522200000000002,-0.9171889999999999,0.255023,-0.029632,-0.381248,0.155961
266,-3.0178849999999997,-1.189355,-0.245746,-0.045932,0.9281290000000001,0.369402,2.8831759999999997,-0.42656499999999997,0.005263,-0.045071,-0.156523,0.797834
267,-2.981193,-1.234968,-0.223619,-0.052632000000000005,0.9441379999999999,0.325308,1.3245790000000002,1.426358,-0.077432,0.339924,0.827484,1.210687
268,-2.975156,-1.214028,-0.22032600000000002,-0.05785800000000001,0.9370299999999999,0.344409,-1.7311020000000001,-0.843526,-0.679117,0.583248,2.265255,1.1252719999999998
269,-2.934703,-1.1796010000000001,-0.156703,-0.078322,0.9244540000000001,0.373151,-1.2477719999999999,-1.022801,-1.818509,0.178541,0.28236300000000003,0.40817600000000004
270,-2.888224,-1.1562430000000001,-0.07799099999999999,-0.100961,0.9152959999999999,0.389911,-0.5020600000000001,-1.460114,-1.528592,-0.068274,-0.8105899999999999,0.291837
271,-2.876753,-1.151894,-0.040945,-0.10646800000000001,0.913536,0.392565,0.131153,-0.813224,-0.281588,0.22954499999999997,-0.476662,0.513486
272,-2.8813560000000003,-1.145831,-0.043831999999999996,-0.106083,0.9110530000000001,0.398397,-0.61482,0.304913,-0.067109,0.269917,0.658405,0.625422
273,-2.8159400000000003,-1.1440489999999999,-0.009644,-0.132418,0.910317,0.39214699999999997,0.7449560000000001,2.420219,-1.161659,-0.371473,1.771842,-1.6846889999999999
274,-2.741777,-1.146907,0.052066999999999995,-0.160097,0.9114959999999999,0.37886,0.445495,-0.58497,-1.156695,0.531405,0.43113999999999997,-0.893753
275,-2.710482,-1.150311,0.09974,-0.170576,0.912891,0.370845,0.321819,-0.44514899999999996,-0.319184,1.305906,-1.381809,-0.30245500000000003
276,-2.766491,-1.15393,0.060476999999999996,-0.148337,0.9143620000000001,0.376735,0.013406,-0.296018,1.279735,1.039862,-1.275355,0.765813
277,-2.6729130000000003,-1.219411,0.075659,-0.155472,0.938897,0.307071,4.815392,5.777636,0.9839600000000001,0.013825,0.364082,-1.323475
278,-2.505602,-1.309266,0.14593499999999998,-0.153569,0.965995,0.20799600000000001,3.210855,3.926646,1.726084,0.041477999999999994,1.131157,-0.995868
279,-2.494757,-1.354376,0.12443199999999999,-0.129402,0.976672,0.171343,1.401127,0.42959899999999995,1.3675469999999998,-0.22621999999999998,0.809232,-0.13800199999999999
280,-2.455788,-1.397014,0.163322,-0.10948800000000002,0.9849379999999999,0.133798,2.164487,0.278776,0.8613940000000001,-0.087976,0.051439,-0.007654
281,-2.3090900000000003,-1.441737,0.293792,-0.095169,0.991683,0.0866,2.321845,1.064574,0.818758,0.168655,-0.311126,-0.036963
282,-2.040326,-1.4817930000000001,0.547956,-0.079231,0.996042,0.0402,2.211345,0.505483,0.869977,0.27755,-0.385858,0.002891
283,-1.5251350000000001,-1.508275,1.060799,-0.062363999999999996,0.9980459999999999,-0.00285,2.106661,0.23634499999999997,0.8663860000000001,0.187669,-0.341613,0.203594
284,-0.777833,-1.506812,1.78905,-0.044835,0.9979540000000001,-0.045519,2.067691,1.461846,0.7919039999999999,0.0045060000000000005,0.023287000000000002,0.05313300000000001
285,-0.339941,-1.47688,2.195208,-0.031258,0.9955930000000001,-0.088383,2.094583,1.656955,0.461762,-0.009071,0.025647000000000003,0.095997
286,-0.147902,-1.441414,2.354396,-0.01901,0.991642,-0.127594,1.786959,1.7965849999999999,0.442342,-0.11583199999999999,-0.11368199999999999,0.220291
287,-0.020562,-1.4092959999999999,2.443292,-0.0033060000000000003,0.9869870000000001,-0.16075,1.6089129999999998,1.927817,0.545616,0.045344,-0.310962,0.040281
288,0.07709400000000001,-1.378179,2.512634,0.014741999999999998,0.981506,-0.190848,1.472404,1.1786450000000002,0.734698,0.055616,-0.30444299999999996,0.120505
289,0.154778,-1.3487049999999998,2.5770150000000003,0.033955,0.975439,-0.217627,1.3727049999999998,0.486055,0.8609389999999999,-0.073247,-0.146932,0.230566
290,0.204023,-1.316397,2.624541,0.050988,0.967815,-0.246437,1.602531,0.059349,0.8107489999999999,-0.25493699999999997,0.040746,0.186393
291,0.232582,-1.278859,2.6468599999999998,0.066336,0.9576879999999999,-0.280052,1.802964,0.5494439999999999,0.620309,-0.293829,0.060973,0.22039099999999998
292,0.252447,-1.245942,2.657108,0.07971900000000001,0.9476969999999999,-0.30904899999999996,1.354402,0.348993,0.521293,-0.273185,-0.0416,0.508604
293,0.269343,-1.2246540000000001,2.6684330000000003,0.090278,0.9406889999999999,-0.327034,0.767386,0.430295,0.41240200000000005,-0.029945,0.237015,0.6551899999999999
294,0.300838,-1.214726,2.68642,0.10329400000000001,0.9372739999999999,-0.332934,0.15126900000000001,0.85403,0.474854,-0.055824,0.21688600000000002,0.406832
295,0.339823,-1.213933,2.712742,0.11644000000000002,0.936997,-0.329355,-0.191182,0.537045,0.38847800000000005,-0.366684,0.407913,0.245508
296,0.35939299999999996,-1.219118,2.72808,0.121152,0.938796,-0.32246199999999997,-0.515436,0.170075,-1.3000000000000001e-05,-0.6562319999999999,0.506654,0.45112399999999997
297,0.358578,-1.239236,2.727131,0.11423699999999999,0.945536,-0.30480999999999997,-1.185759,-0.234354,-0.577812,-0.5998319999999999,0.6976829999999999,0.350144
298,0.33227399999999996,-1.282083,2.71387,0.092872,0.9586110000000001,-0.26914,-2.423813,-0.953011,-1.202971,-0.521583,0.539817,0.097723
299,0.26112399999999997,-1.347502,2.661234,0.057168,0.975173,-0.21393,-3.2510470000000002,-0.818192,-1.699236,0.016853,0.908173,0.553956
300,0.154559,-1.422102,2.56701,0.022803999999999998,0.988965,-0.146368,-3.4068199999999997,-0.904551,-1.546389,0.315498,0.813403,0.299917
301,-0.052224,-1.487924,2.384776,-0.00432,0.996568,-0.082638,-3.111713,-1.147534,-0.978927,0.708314,0.573134,0.001827
302,-0.6304270000000001,-1.542979,1.803025,-0.01634,0.999613,-0.02239,-3.025512,0.992315,-0.449093,0.686994,0.49402399999999996,0.335439
303,-2.4957409999999998,-1.522306,-0.094128,-0.029138999999999998,0.998825,0.038662,-3.09706,1.605328,-0.772981,0.618571,0.519166,0.470188
304,-2.684176,-1.4633120000000002,-0.29938000000000003,-0.047365,0.9942290000000001,0.096225,-2.746706,0.040155,-1.005674,0.30680999999999997,0.5584899999999999,-0.38771300000000003
305,-2.6834029999999998,-1.4050989999999999,-0.290898,-0.072949,0.9863040000000001,0.14790999999999999,-2.6241830000000004,-0.153632,-1.40088,0.187832,0.45501099999999994,-0.351508
306,-2.6836830000000003,-1.344076,-0.29339,-0.099365,0.974409,0.20161300000000001,-2.723933,-0.16649,-1.295806,0.079086,0.036012999999999996,-0.197143
307,-2.696905,-1.285455,-0.28135,-0.121084,0.959566,0.2541,-2.517109,-1.8494419999999998,-1.520804,0.24634299999999998,-0.163225,-0.428646
308,-2.722527,-1.225152,-0.26105500000000004,-0.13785799999999998,0.9408569999999999,0.309479,-2.6601779999999997,-2.336884,-1.510497,0.245982,-0.326996,-0.457978
309,-2.762609,-1.166557,-0.24570999999999998,-0.145516,0.919402,0.365404,-2.4666,-3.000888,-1.327764,0.20630700000000002,-0.445204,-0.598924
310,-2.815979,-1.117789,-0.23740999999999998,-0.140004,0.899135,0.414667,-2.061441,-2.997003,-0.786555,0.18424000000000001,-0.826076,-0.497629
311,-2.8721650000000003,-1.083579,-0.23903200000000002,-0.124615,0.883639,0.451272,-1.3572799999999998,-2.542133,-0.32929899999999995,0.22414800000000001,-0.908236,-0.416162
312,-2.918718,-1.0666579999999999,-0.240583,-0.106769,0.875591,0.47109799999999996,-0.51905,-2.134852,-0.07720700000000001,0.272007,-0.851757,-0.433195
313,-2.958974,-1.0649110000000002,-0.24240799999999998,-0.088002,0.8747459999999999,0.476517,0.136804,-1.809641,0.077577,0.365177,-0.787771,-0.452592
314,-2.9920869999999997,-1.075541,-0.24344699999999997,-0.070788,0.879848,0.469947,0.7545569999999999,-1.5275239999999999,0.11998699999999998,0.254107,-0.7114060000000001,-0.39224899999999996
315,-3.018328,-1.098957,-0.242375,-0.055884,0.890734,0.45106899999999994,1.399299,-1.218694,0.118753,0.101844,-0.642153,-0.301243
316,-3.027375,-1.13591,-0.233791,-0.048014999999999995,0.906918,0.418554,2.1569599999999998,-0.610362,-0.019875999999999998,0.058513,-0.516735,-0.005331
317,-3.016312,-1.185678,-0.214917,-0.046939999999999996,0.9267540000000001,0.372715,2.6158349999999997,-0.162207,-0.069588,0.08693300000000001,-0.2841,0.45061899999999994
318,-3.009679,-1.22105,-0.203879,-0.045069,0.9394600000000001,0.339673,0.8921979999999999,-0.410238,0.047945,0.018838999999999998,0.556344,0.920948
319,-3.0186439999999997,-1.204246,-0.19657,-0.043952,0.9335690000000001,0.355682,-1.307082,-0.774438,-0.473287,0.111518,1.453424,1.412232
320,-2.970227,-1.183251,-0.143773,-0.064444,0.92584,0.372372,-0.612054,0.242333,-1.4653180000000001,0.579489,0.615283,0.845844
321,-2.901608,-1.171331,-0.068351,-0.092441,0.921269,0.377771,-0.164398,-0.332336,-1.4657280000000001,0.384052,-0.33331700000000003,0.26274699999999995
322,-2.8765330000000002,-1.1643299999999999,-0.028474,-0.10357000000000001,0.918524,0.38154899999999997,-0.249477,-0.574114,-0.33797,0.458017,-0.375021,0.24729600000000002
323,-2.900964,-1.1491639999999999,-0.051891999999999994,-0.097528,0.912422,0.39745,-1.1823219999999999,0.056897,0.377892,0.538537,0.510841,0.461376
324,-2.888426,-1.1352389999999999,-0.065778,-0.105675,0.9066350000000001,0.408458,-0.203837,2.108657,-0.212902,0.072533,1.336941,-0.606364
325,-2.8255369999999997,-1.136478,-0.025742,-0.13078800000000002,0.907157,0.399941,0.354495,0.265673,-0.9479870000000001,0.000539,0.8859030000000001,-0.846505
326,-2.783265,-1.14889,0.022927,-0.143612,0.9123100000000001,0.383482,1.1433719999999998,0.374954,-0.456575,0.628506,-1.1177700000000002,-0.658995
327,-2.782838,-1.161314,0.014465,-0.139785,0.917327,0.37277899999999997,0.040693,0.38729600000000003,0.874189,1.0150139999999999,-1.2900690000000001,0.343026
328,-2.7280349999999998,-1.203115,0.007853,-0.144449,0.933163,0.32914099999999996,3.5697989999999997,4.791905,0.821625,0.010386,-0.036709,-0.547678
329,-2.581721,-1.28787,0.052961,-0.148253,0.9602430000000001,0.236535,3.63626,4.653508,1.806098,0.051619000000000005,0.958565,-1.174035
330,-2.553618,-1.34594,0.041888999999999996,-0.12366700000000001,0.974826,0.18551199999999998,1.859363,0.40845,1.465841,-0.177999,0.964825,-0.469875
331,-2.546769,-1.389529,0.056266,-0.101012,0.9836159999999999,0.149301,2.053698,-0.300723,0.9564290000000001,-0.189653,0.30201300000000003,-0.063501
332,-2.457309,-1.437992,0.137543,-0.083689,0.991194,0.10258900000000001,2.4119200000000003,0.798585,0.926544,0.22078899999999999,-0.241439,-0.05463099999999999
333,-2.266689,-1.483741,0.315271,-0.066707,0.9962129999999999,0.055720000000000006,2.2343919999999997,0.397872,0.856383,0.275661,-0.279141,-0.07139
334,-1.7903509999999998,-1.5160870000000002,0.7981600000000001,-0.053327,0.9985040000000001,0.0119,2.240195,-0.48734099999999997,0.577684,0.23322800000000002,-0.314712,0.057924
335,-0.8611469999999999,-1.516383,1.722391,-0.041224000000000004,0.9985200000000001,-0.035407999999999995,2.429009,0.958535,0.605992,0.115123,-0.17775,0.189629
336,-0.33511599999999997,-1.483057,2.221068,-0.028811,0.9961530000000001,-0.082729,2.2078580000000003,1.503,0.504405,0.06354,-0.04251,0.100673
337,-0.11645499999999999,-1.446494,2.4078009999999996,-0.014403999999999998,0.992284,-0.123126,1.859934,1.795769,0.584921,-0.024308,-0.037649,0.205508
338,0.026189999999999998,-1.4118549999999999,2.508969,0.004144,0.987395,-0.158207,1.740061,2.26353,0.662533,0.046239999999999996,-0.331435,0.029713
339,0.130944,-1.378034,2.576651,0.025012,0.9814790000000001,-0.18992,1.53901,1.589332,0.8062020000000001,0.062328999999999996,-0.413211,0.053415
340,0.21465900000000002,-1.3479649999999999,2.640544,0.047073000000000004,0.975276,-0.215912,1.292408,0.75548,0.955099,-0.048003,-0.278071,0.21411100000000002
341,0.2699,-1.3158969999999999,2.692195,0.06723,0.9676889999999999,-0.243013,1.529226,0.048327999999999996,0.968342,-0.13533,0.030160000000000003,0.21876700000000002
342,0.302738,-1.2786030000000002,2.719236,0.085877,0.957614,-0.274949,1.7108720000000002,0.636472,0.782986,-0.22981300000000002,0.011899,0.249482
343,0.326227,-1.245966,2.72686,0.102276,0.9477049999999999,-0.30230999999999997,1.369025,0.75694,0.524071,-0.35952399999999995,-0.062283000000000005,0.37746
344,0.342278,-1.223211,2.730347,0.114325,0.940198,-0.320866,0.83136,0.661237,0.414684,-0.173804,0.232165,0.690159
345,0.37493000000000004,-1.212521,2.747808,0.128413,0.9365030000000001,-0.326297,0.168438,0.890142,0.488808,-0.24953699999999998,0.320821,0.237308
346,0.41557,-1.208977,2.775988,0.142903,0.935255,-0.323844,-0.077623,0.530821,0.516392,-0.572056,0.536486,0.297095
347,0.436075,-1.2084489999999999,2.794861,0.149721,0.935067,-0.321293,-0.251256,0.018249,0.178278,-0.696566,0.5417390000000001,0.521886
348,0.44568599999999997,-1.2232809999999998,2.807281,0.146807,0.9402219999999999,-0.307291,-1.0956350000000001,-0.32099099999999997,-0.300408,-0.741625,0.70814,0.359064
349,0.443639,-1.262445,2.820826,0.13026300000000002,0.952835,-0.274104,-2.271802,-1.039856,-0.927271,-0.616897,0.609237,-0.021718
350,0.398865,-1.323725,2.803321,0.09498,0.969633,-0.225361,-3.01641,-1.288874,-1.6767029999999998,-0.10260899999999999,0.737032,0.527118
351,0.349427,-1.400001,2.773246,0.058186,0.98545,-0.159684,-3.506443,-1.077498,-1.631259,0.19453099999999998,0.720086,0.470567
352,0.278604,-1.472325,2.7333060000000002,0.027031,0.9951559999999999,-0.094499,-3.228,-1.606423,-1.203484,0.6708149999999999,0.6331399999999999,-0.45753299999999997
353,0.249016,-1.53825,2.713901,0.008,0.9994700000000001,-0.031461,-3.2349810000000003,0.35942199999999996,-0.768081,0.5913649999999999,0.518962,0.115461
354,-2.853023,-1.5327879999999998,-0.411654,-0.010792,0.9992780000000001,0.036352999999999996,-3.445869,1.3148309999999999,-1.081631,0.462955,0.680089,0.408441
355,-2.831109,-1.464116,-0.402744,-0.032522,0.994315,0.101359,-3.096243,-0.107754,-1.007931,0.39755799999999997,0.646463,-0.284098
356,-2.837221,-1.403486,-0.389102,-0.049901999999999995,0.986036,0.158858,-2.7419700000000002,-0.897985,-1.099516,0.288641,0.45478999999999997,-0.132689
357,-2.795011,-1.3432,-0.350769,-0.07664,0.9742120000000001,0.212206,-2.703202,0.52,-1.424733,0.177013,0.07952999999999999,-0.210589
358,-2.754065,-1.285085,-0.29983000000000004,-0.106503,0.959461,0.260928,-2.364071,-1.116825,-1.8443509999999999,0.12402,-0.038075,-0.570697
359,-2.747536,-1.223733,-0.250727,-0.13058699999999998,0.940376,0.314058,-2.6864939999999997,-2.307927,-1.800212,0.166994,-0.317314,-0.5799270000000001
360,-2.775121,-1.162331,-0.219554,-0.142323,0.917731,0.370817,-2.533114,-3.15599,-1.641025,0.187474,-0.442817,-0.626692
361,-2.816236,-1.108055,-0.193455,-0.142688,0.894832,0.42297399999999996,-2.2301729999999997,-3.273584,-1.2680850000000001,0.187168,-0.720638,-0.5828409999999999
362,-2.864722,-1.0668600000000001,-0.178427,-0.13199,0.8756889999999999,0.464478,-1.6088149999999999,-2.907082,-0.753604,0.22589299999999998,-0.9077780000000001,-0.539032
363,-2.90885,-1.0426090000000001,-0.171156,-0.116237,0.863722,0.49037299999999995,-0.8313780000000001,-2.347845,-0.35365100000000005,0.33459,-0.8666360000000001,-0.514466
364,-2.9488849999999998,-1.0356530000000002,-0.168255,-0.097665,0.860196,0.500516,-0.054621,-2.021576,-0.035654000000000005,0.363718,-0.82034,-0.523572
365,-2.985031,-1.042062,-0.168153,-0.078653,0.8634459999999999,0.498263,0.537351,-1.6970869999999998,0.088774,0.260171,-0.7817810000000001,-0.5456409999999999
366,-3.012523,-1.061052,-0.167298,-0.062804,0.872869,0.483886,1.200632,-1.270191,0.11636099999999999,0.142242,-0.7280479999999999,-0.432113
367,-3.026779,-1.094136,-0.16250699999999998,-0.052561000000000004,0.888532,0.455783,1.954718,-0.674912,0.048226,0.055125,-0.54318,-0.033023000000000004
368,-3.009386,-1.145052,-0.142617,-0.054440999999999996,0.910731,0.409383,2.977951,0.306738,-0.172347,0.036863,-0.198497,0.597956
369,-2.946013,-1.2074639999999999,-0.103156,-0.069062,0.934718,0.348603,2.921508,1.911561,-0.252778,0.542741,0.24417600000000003,1.101165
370,-2.9101630000000003,-1.214446,-0.077341,-0.080014,0.937176,0.339542,-1.075083,-0.722928,-0.767632,0.602612,2.195728,0.9749260000000001
371,-2.880088,-1.173253,-0.015045,-0.100089,0.9220149999999999,0.373979,-1.7219740000000001,-1.333525,-2.021188,-0.010842000000000001,-0.05527000000000001,0.42845
372,-2.837157,-1.137608,0.06389,-0.125823,0.907632,0.400452,-0.949407,-1.558676,-1.7975860000000001,-0.081773,-0.711435,0.479491
373,-2.818286,-1.1265020000000001,0.11136199999999999,-0.136552,0.902914,0.40754,0.187042,-0.8661969999999999,-0.6656979999999999,-0.147887,-1.116598,0.6084970000000001
374,-2.8220110000000003,-1.1284040000000002,0.102226,-0.134493,0.9037299999999999,0.406415,-0.184057,1.059584,0.512832,0.305834,0.855929,0.18326099999999998
375,-2.753364,-1.1367040000000002,0.106419,-0.159208,0.9072520000000001,0.389276,0.8780110000000001,4.340429,-0.355622,0.199049,1.248723,-0.806055
376,-2.6783959999999998,-1.1389280000000002,0.143074,-0.18701500000000001,0.908185,0.37445300000000004,-0.286198,-0.193917,-0.81087,0.547122,1.563891,-1.08951
377,-2.6850650000000003,-1.1274469999999999,0.166346,-0.189099,0.9033200000000001,0.38502600000000003,-0.136603,-0.980951,-0.45950799999999997,1.3900569999999999,-1.197402,-0.23127899999999998
378,-2.727315,-1.127581,0.138255,-0.172618,0.903378,0.392558,-0.326201,-0.7661020000000001,1.118793,1.395732,-1.367413,0.233373
379,-2.6768970000000003,-1.170994,0.132982,-0.174431,0.9211379999999999,0.34795,3.858254,5.333214,0.801579,-0.021171000000000002,-0.51266,-0.275333
380,-2.475356,-1.256008,0.211986,-0.191343,0.9508620000000001,0.243394,3.5819919999999996,5.821339,1.515801,-0.040621,1.1106,-0.769166
381,-2.424446,-1.307728,0.20841700000000002,-0.170901,0.9655969999999999,0.19598,1.61916,1.000973,1.617226,-0.18801600000000002,1.26237,-0.3018
382,-2.3858509999999997,-1.35437,0.24360900000000002,-0.147263,0.976671,0.15626800000000002,2.253692,0.158325,1.0715350000000001,-0.329482,0.604353,-0.231356
383,-2.260152,-1.40205,0.362369,-0.129581,0.9857959999999999,0.10680799999999999,2.532612,0.55755,0.893511,-0.04028,-0.129778,-0.102047
384,-2.033518,-1.443077,0.5856439999999999,-0.113955,0.9918549999999999,0.056846,2.3983939999999997,0.049138999999999995,0.81204,0.039004000000000004,-0.24647800000000003,-0.09769299999999999
385,-1.7028419999999997,-1.4728709999999998,0.9281790000000001,-0.096887,0.995209,0.012868000000000001,2.22348,-0.648017,0.8138479999999999,0.207544,-0.366501,0.021342
386,-1.211329,-1.482141,1.420416,-0.082848,0.996073,-0.031134,2.2397299999999998,0.688358,0.670175,0.34679499999999996,-0.351236,0.291495
387,-0.6980609999999999,-1.467538,1.909823,-0.066231,0.994674,-0.078943,2.301384,1.505649,0.8265870000000001,0.33414499999999997,-0.23451100000000002,0.255243
388,-0.373194,-1.436619,2.205072,-0.048764999999999996,0.9910120000000001,-0.124547,2.0752599999999997,1.578524,0.64759,0.042235,-0.172545,0.212956
389,-0.177999,-1.404591,2.364472,-0.029289999999999997,0.9862200000000001,-0.16280999999999998,1.7475939999999999,2.118316,0.740749,0.080453,-0.277739,0.155394
390,-0.035743000000000004,-1.374997,2.467545,-0.006952,0.980892,-0.194412,1.496543,1.8632990000000003,0.795938,0.12288800000000001,-0.312344,0.003662
391,0.078769,-1.3455979999999998,2.553851,0.01757,0.97475,-0.22259600000000002,1.393677,1.2906440000000001,1.0352350000000001,0.050683,-0.22807600000000003,0.266251
392,0.17482,-1.3166639999999998,2.637499,0.043726,0.967882,-0.24756399999999998,1.3121120000000002,0.406057,1.207783,-0.164072,0.033476,0.23335799999999998
393,0.238314,-1.2816299999999998,2.69331,0.067313,0.958482,-0.277086,1.7321849999999999,0.819933,0.9730409999999999,-0.26860700000000004,0.198943,0.24809499999999998
394,0.28449,-1.2452020000000001,2.714418,0.089776,0.9474610000000001,-0.307008,1.478613,1.324774,0.685408,-0.456841,-0.016553000000000002,0.6705939999999999
395,0.310492,-1.221143,2.726502,0.104663,0.939492,-0.32618600000000003,0.94863,0.45821300000000004,0.46917200000000003,-0.28982800000000003,0.243522,0.7829119999999999
396,0.330804,-1.205126,2.735223,0.11614000000000001,0.933884,-0.338183,0.505053,0.738909,0.455032,-0.10556600000000001,0.259353,0.615359
397,0.37387600000000004,-1.1974,2.767672,0.133225,0.9310940000000001,-0.339575,0.036052999999999995,0.463267,0.795008,-0.39315900000000004,0.417707,0.23277899999999999
398,0.403198,-1.191807,2.797411,0.14516400000000002,0.929039,-0.340308,0.026851999999999997,-0.038089,0.43986800000000004,-0.7546010000000001,0.392631,0.52204
399,0.41868299999999997,-1.197941,2.809677,0.148097,0.931291,-0.332806,-0.626193,0.281947,-0.171853,-0.774073,0.433806,0.5570649999999999
400,0.41483000000000003,-1.223282,2.8115330000000003,0.137255,0.9402219999999999,-0.31167100000000003,-1.6543169999999998,-0.571238,-0.6372770000000001,-0.480914,0.569192,0.231669
401,0.377548,-1.274842,2.795928,0.10751300000000001,0.9565239999999999,-0.27110500000000004,-2.520485,-1.492233,-1.600342,-0.36621,0.652271,0.021212
402,0.30748000000000003,-1.3428799999999999,2.74417,0.068382,0.974139,-0.21534099999999998,-3.275168,-0.548337,-1.760647,0.26505300000000004,0.722165,0.651804
403,0.23224499999999998,-1.413775,2.6801880000000002,0.035989,0.9876969999999999,-0.15216300000000002,-3.147659,-0.976499,-1.358624,0.698005,0.677601,-0.172483
404,0.12523800000000002,-1.475254,2.5904130000000003,0.011912,0.995439,-0.094621,-2.838727,-0.42213,-0.934161,0.761083,0.6539590000000001,-0.29386799999999996
405,-0.07322999999999999,-1.537156,2.374731,-0.002454,0.999434,-0.033457,-3.2747610000000003,1.43036,-0.816735,0.650983,0.575151,0.356592
406,-2.557191,-1.5290540000000001,-0.137742,-0.022983,0.999129,0.034745,-3.374401,1.130068,-1.025349,0.43878500000000004,0.611101,0.27216999999999997
407,-2.749926,-1.466548,-0.325625,-0.03971,0.9945709999999999,0.09615,-2.958934,-0.98977,-0.868043,0.310722,0.517193,-0.382633
408,-2.757466,-1.4037,-0.32471500000000003,-0.06232000000000001,0.986072,0.15417899999999998,-2.873918,0.34668899999999997,-1.358408,-0.012692,0.24360300000000001,-0.035602999999999996
409,-2.716713,-1.3435979999999998,-0.292024,-0.092843,0.974301,0.20520700000000003,-2.428199,0.06588200000000001,-1.584602,0.095025,-0.009915,-0.526069
410,-2.696166,-1.285302,-0.248288,-0.121334,0.959522,0.254141,-2.472323,-1.625951,-1.7686130000000002,0.15690199999999999,-0.121967,-0.526678
411,-2.706427,-1.225671,-0.21297600000000003,-0.14261600000000002,0.941033,0.306774,-2.426751,-2.383611,-1.74596,0.198799,-0.205285,-0.598355
412,-2.740097,-1.1689399999999999,-0.184738,-0.152847,0.920336,0.360016,-2.3455939999999997,-3.309538,-1.4995829999999999,0.31926,-0.43635799999999997,-0.599808
413,-2.793304,-1.11975,-0.168793,-0.148768,0.899991,0.40972700000000006,-2.029673,-3.316674,-1.055124,0.319025,-0.777357,-0.49218599999999996
414,-2.8435099999999998,-1.083915,-0.15701600000000002,-0.137406,0.8837959999999999,0.44723199999999996,-1.370939,-2.859134,-0.695391,0.344285,-0.820564,-0.524
415,-2.886376,-1.063644,-0.149034,-0.12261300000000001,0.874131,0.469951,-0.6453840000000001,-2.232525,-0.31618,0.407922,-0.863252,-0.45693500000000004
416,-2.916426,-1.059212,-0.144326,-0.109302,0.87197,0.477195,0.076346,-1.4114520000000002,-0.079318,0.350787,-0.8630129999999999,-0.46775
417,-2.9344189999999997,-1.069566,-0.139173,-0.09883600000000001,0.876992,0.47022299999999995,0.835285,-0.993699,0.020519,0.261754,-0.846612,-0.399331
418,-2.943921,-1.0964770000000001,-0.12984,-0.08969500000000001,0.8896040000000001,0.44783100000000003,1.687418,-0.785905,0.064661,0.05243300000000001,-0.645524,-0.09581100000000001
419,-2.939121,-1.1408989999999999,-0.11131300000000001,-0.08380900000000001,0.9090090000000001,0.408256,2.597628,-0.339281,0.006354,-0.040749,-0.39816,0.529946
420,-2.911885,-1.200404,-0.08560599999999999,-0.082419,0.932185,0.352466,3.141802,0.607093,0.231132,0.058584000000000004,-0.360347,0.832974
421,-2.879799,-1.235091,-0.07509099999999999,-0.08526,0.9441780000000001,0.318203,0.137158,0.636371,0.309452,0.633737,1.856756,1.25066
422,-2.893391,-1.211993,-0.071772,-0.086263,0.936318,0.340385,-1.193861,-1.163038,-0.8928799999999999,0.153676,1.197563,0.729577
423,-2.853987,-1.182749,-0.002709,-0.10732799999999999,0.92565,0.36283200000000004,-0.981497,-1.363523,-1.821561,0.174742,1.208231,0.707129
424,-2.831281,-1.162459,0.05612999999999999,-0.121249,0.917782,0.37811100000000003,-0.408736,-1.7046299999999999,-0.932636,-0.251645,-0.775784,0.459718
425,-2.860418,-1.155227,0.055107,-0.112022,0.9148870000000001,0.38785,-0.48799499999999996,-1.005212,0.316802,0.011068999999999999,0.157501,0.412641
426,-2.852847,-1.150362,0.053555,-0.116221,0.9129120000000001,0.391253,0.31290500000000004,1.619242,-0.546226,-0.003851,0.604499,0.23351799999999998
427,-2.711734,-1.1656959999999998,0.141775,-0.16424,0.919063,0.35825,1.614125,2.50369,-1.474033,-0.32926,1.116383,-2.019505
428,-2.662594,-1.166143,0.201532,-0.18145,0.9192389999999999,0.34938600000000003,-0.068839,-1.880208,-1.009085,0.9287489999999999,0.072689,-0.091711
429,-2.664562,-1.15599,0.228814,-0.18503699999999998,0.9151940000000001,0.358015,-0.261344,-1.286853,-0.309368,1.086633,-0.868029,-0.22733899999999999
430,-2.697926,-1.1614209999999998,0.210393,-0.170856,0.91737,0.359494,0.723592,0.478268,0.7100609999999999,0.935428,-1.2152209999999999,0.321171
431,-2.585598,-1.218405,0.25406,-0.182159,0.93855,0.29315,3.835411,4.893757,0.696229,0.175979,0.23866500000000002,-1.2206860000000002
432,-2.4358720000000003,-1.285721,0.319722,-0.182395,0.959641,0.214049,2.503675,3.437068,1.431207,0.189398,0.6465609999999999,-0.912734
433,-2.414023,-1.3339,0.3146,-0.156073,0.9720709999999999,0.175254,1.737112,0.434845,1.631594,-0.008493,0.466558,-0.157722
434,-2.354738,-1.384783,0.36491,-0.130956,0.982749,0.130575,2.439105,0.718533,1.2088450000000002,0.039311,0.261391,-0.151006
435,-2.197597,-1.432754,0.508705,-0.11143399999999999,0.9904870000000001,0.080704,2.344681,0.628087,0.9989299999999999,0.094787,0.05240499999999999,-0.152725
436,-1.949328,-1.468832,0.757262,-0.094565,0.994806,0.037610000000000005,2.125443,-0.22232800000000003,0.737842,0.181617,-0.251276,-0.010037
437,-1.512422,-1.485532,1.200809,-0.084992,0.996367,-0.004967,2.171408,-0.12289100000000001,0.34065700000000004,0.123475,-0.33810300000000004,0.051674
438,-1.001957,-1.4783950000000001,1.697843,-0.077721,0.995734,-0.049689,2.218315,1.296943,0.344507,0.050483999999999994,-0.35530700000000004,0.249473
439,-0.631576,-1.452842,2.0426450000000003,-0.06947,0.993051,-0.094966,2.141784,1.330354,0.314019,0.136121,-0.091852,0.29084299999999996
440,-0.391559,-1.4200139999999999,2.252719,-0.05732,0.988654,-0.13883099999999998,2.053452,1.821993,0.520007,0.07824,-0.154258,0.32366100000000003
441,-0.210457,-1.389734,2.3972830000000003,-0.037617000000000005,0.9836530000000001,-0.176092,1.625658,1.8352830000000002,0.7637609999999999,0.010197,-0.21007800000000001,0.20033800000000002
442,-0.077959,-1.3628209999999998,2.500593,-0.01608,0.9784510000000001,-0.205844,1.4463629999999998,1.3819629999999998,0.797273,-0.048755,-0.25645100000000004,0.025012
443,0.020056,-1.333475,2.579232,0.004715,0.9719709999999999,-0.235046,1.509963,0.874432,0.8571200000000001,-0.080063,-0.18924100000000002,0.256195
444,0.093322,-1.301146,2.644152,0.024824000000000002,0.9638639999999999,-0.26523,1.610855,0.365666,0.926842,-0.062254,-0.08417999999999999,0.34222600000000003
445,0.148532,-1.2668979999999999,2.693099,0.044282999999999996,0.954177,-0.29594299999999996,1.590366,0.476839,0.848577,-0.127779,-0.102126,0.39829899999999996
446,0.185047,-1.237506,2.721054,0.060192999999999997,0.9449709999999999,-0.321565,1.2057870000000002,0.537989,0.542437,-0.252713,0.073111,0.554033
447,0.209977,-1.217855,2.730946,0.072047,0.9383600000000001,-0.338063,0.756347,0.9283610000000001,0.279219,-0.156306,0.21641,0.461308
448,0.240248,-1.208285,2.7412009999999998,0.08438,0.935009,-0.344435,0.254191,1.038638,0.309754,-0.18653699999999998,0.323429,0.28195
449,0.273663,-1.204944,2.7598599999999998,0.096683,0.9338190000000001,-0.34443,-0.017782,0.616535,0.342578,-0.452763,0.430729,0.47809700000000005
450,0.290042,-1.210525,2.768394,0.10082,0.935801,-0.337801,-0.553321,0.388083,-0.137297,-0.5869340000000001,0.443899,0.45836099999999996
451,0.28182399999999996,-1.232591,2.757134,0.092274,0.9433520000000001,-0.318701,-1.349478,-0.22688699999999998,-0.701819,-0.605854,0.648766,0.32698699999999997
452,0.24173200000000003,-1.280974,2.725518,0.068411,0.9582950000000001,-0.277468,-2.658573,-0.6214069999999999,-1.3385719999999999,-0.5582020000000001,0.59122,0.112871
453,0.157652,-1.348222,2.6492150000000003,0.034655,0.975332,-0.21799699999999997,-3.3712449999999996,-0.306255,-1.743469,-0.288531,0.7194149999999999,0.203684
454,0.004929,-1.419694,2.502742,0.000742,0.988606,-0.150514,-3.349661,-0.73655,-1.515235,0.782507,0.786037,0.010881
455,-0.248743,-1.478834,2.260202,-0.022603,0.9957739999999999,-0.088987,-2.9756810000000002,-0.169595,-0.831824,0.9271440000000001,0.754836,-0.22270399999999999
456,-0.861617,-1.5248709999999999,1.6177110000000001,-0.034804,0.9989459999999999,-0.029865,-3.118935,2.230603,-0.7408279999999999,0.8940870000000001,0.647676,-0.0020559999999999997
457,-2.107091,-1.5064170000000001,0.32419699999999996,-0.055275,0.997928,0.032856,-3.2353509999999996,2.0758810000000003,-1.1078430000000001,0.509102,0.58659,0.306973
458,-2.42918,-1.451009,-0.007264,-0.078101,0.992834,0.090422,-2.749444,-0.525766,-1.2015280000000002,0.250281,0.571192,-0.371031
459,-2.533655,-1.391793,-0.10711400000000001,-0.10169,0.984022,0.146137,-2.85996,0.226935,-1.259881,0.179861,0.511858,-0.21828000000000003
460,-2.564342,-1.332462,-0.146861,-0.128831,0.9717319999999999,0.197822,-2.5331069999999998,0.21659499999999998,-1.354792,0.153565,-0.011802,-0.23342100000000002
461,-2.579472,-1.27709,-0.15068900000000002,-0.15429500000000002,0.9571770000000001,0.244948,-2.3623950000000002,-1.08954,-1.47584,0.220914,-0.11799000000000001,-0.48324399999999995
462,-2.619161,-1.219582,-0.15461,-0.17166700000000001,0.9389559999999999,0.298139,-2.512762,-2.210957,-1.425247,0.23525,-0.187354,-0.533521
463,-2.672472,-1.164064,-0.15093900000000002,-0.17885299999999998,0.9184180000000001,0.352865,-2.344398,-3.086616,-1.304376,0.194493,-0.397621,-0.551275
464,-2.7381290000000003,-1.116528,-0.15395699999999998,-0.172275,0.898582,0.403566,-2.037659,-3.101723,-0.7232390000000001,0.138004,-0.676552,-0.5803689999999999
465,-2.799519,-1.083366,-0.161725,-0.157104,0.883539,0.44121400000000005,-1.310109,-2.466757,-0.304501,0.29689,-0.8876290000000001,-0.517295
466,-2.848838,-1.067757,-0.168545,-0.139125,0.876122,0.46157200000000004,-0.476051,-1.973434,0.012614,0.425029,-0.878639,-0.509378
467,-2.885438,-1.0685559999999998,-0.17499800000000001,-0.121965,0.8765059999999999,0.46567700000000006,0.259065,-1.2812219999999999,0.22837,0.47122299999999995,-0.8573569999999999,-0.45017399999999996
468,-2.907998,-1.083568,-0.178754,-0.10837000000000001,0.883634,0.455456,1.000289,-0.807858,0.289556,0.366641,-0.84657,-0.388241
469,-2.918412,-1.1154899999999999,-0.175536,-0.097326,0.898126,0.42882299999999995,1.9101569999999999,-0.6256189999999999,0.280723,0.172003,-0.80102,-0.306341
470,-2.9173259999999996,-1.164191,-0.161197,-0.087953,0.9184680000000001,0.385581,2.722408,-0.617518,0.21481599999999998,-0.028487000000000002,-0.540539,0.010903
471,-2.903195,-1.221217,-0.13582,-0.08087799999999999,0.939517,0.332807,2.816287,-0.154411,0.20526399999999997,-0.132363,-0.270175,0.592105
472,-2.8807709999999997,-1.24632,-0.125681,-0.082211,0.947818,0.308021,-0.295023,0.8709950000000001,0.086077,-0.065478,0.639844,1.099724
473,-2.886279,-1.208591,-0.133974,-0.08948500000000001,0.935118,0.342843,-1.8272700000000002,-0.240985,-0.757482,0.517876,1.420733,1.109229
474,-2.848769,-1.178619,-0.076835,-0.110323,0.9240790000000001,0.36592399999999997,-0.868132,-1.189665,-1.707762,0.429018,0.690896,0.643552
475,-2.816807,-1.157717,-0.008860999999999999,-0.12809600000000002,0.915889,0.380436,-0.38545100000000004,-1.488758,-1.38995,0.244261,-0.519817,0.19146300000000002
476,-2.811391,-1.152117,0.018269,-0.13181600000000002,0.9136270000000001,0.38458200000000003,-0.081702,-0.7026100000000001,-0.050352999999999995,0.260752,-0.096457,0.5978399999999999
477,-2.8386169999999997,-1.14391,-0.006511,-0.12353099999999999,0.910259,0.395171,-0.811335,0.22606700000000002,0.37599,0.439342,0.382374,0.741441
478,-2.804991,-1.139637,0.003319,-0.13802999999999999,0.908482,0.394463,0.36398400000000003,1.8012240000000002,-0.8110229999999999,0.026869,1.457287,-0.346581
479,-2.740352,-1.137924,0.05776799999999999,-0.163829,0.9077649999999999,0.386155,0.297225,-0.326701,-1.143116,0.734294,0.047466,-0.894395
480,-2.6958830000000003,-1.147605,0.114079,-0.177036,0.911783,0.370544,0.9390930000000001,-0.105197,-0.350568,1.0253940000000001,-1.23205,-0.625686
481,-2.749845,-1.155422,0.06982000000000001,-0.154067,0.9149649999999999,0.372954,-0.370173,-0.35978699999999997,1.578367,1.4523,-1.560122,0.424547
482,-2.6742150000000002,-1.208421,0.061583000000000006,-0.159712,0.935058,0.31646799999999997,4.247904,6.3418220000000005,1.048698,-0.078477,0.48721400000000004,-1.5507360000000001
483,-2.509758,-1.296535,0.11636800000000001,-0.15995499999999999,0.962625,0.21854,3.129941,4.341837,1.8659830000000002,-0.00577,0.815649,-1.627368
484,-2.501084,-1.341539,0.10076399999999999,-0.135798,0.973835,0.182198,1.414076,-0.182281,1.1964290000000002,-0.214482,1.333812,-0.39775900000000003
485,-2.46247,-1.381684,0.144803,-0.118066,0.9821709999999999,0.146264,2.199744,0.18746600000000002,0.758131,-0.09804500000000001,-0.035913,0.11586700000000001
486,-2.304225,-1.428657,0.28380900000000003,-0.10522000000000001,0.989915,0.094815,2.545346,1.414301,0.815589,0.155834,-0.364946,0.035357
487,-2.0569319999999998,-1.471186,0.5103880000000001,-0.087895,0.995043,0.046447,2.158225,0.72551,1.04023,0.252202,-0.374422,-0.111221
488,-1.6481849999999998,-1.503193,0.9221299999999999,-0.067303,0.9977159999999999,0.005219,2.096652,-0.46071999999999996,0.971886,0.246854,-0.34613499999999997,-0.023163
489,-0.9056120000000001,-1.5085680000000001,1.663788,-0.048889999999999996,0.998064,-0.038352,2.226305,0.7748520000000001,0.896433,0.012193,-0.156161,0.388251
490,-0.370676,-1.479901,2.1719720000000002,-0.032869999999999996,0.995872,-0.084576,2.216277,1.541068,0.568505,-0.070707,0.034157,0.119152
491,-0.164075,-1.441824,2.349225,-0.021004,0.9916950000000001,-0.126865,2.017646,1.57331,0.403638,-0.141777,-0.017009,0.151142
492,-0.044284,-1.404387,2.433158,-0.007331999999999999,0.986186,-0.165462,1.877388,1.983745,0.44913400000000003,-0.024849,-0.29835,0.25590100000000005
493,0.048792,-1.370148,2.489138,0.00972,0.9799370000000001,-0.199054,1.589935,1.7648139999999999,0.569184,0.088974,-0.334887,0.100467
494,0.128261,-1.3394409999999999,2.543307,0.029327999999999996,0.973356,-0.227402,1.459731,1.045242,0.809547,0.085891,-0.24336100000000002,0.161347
495,0.192563,-1.307764,2.5987270000000002,0.049757,0.965606,-0.25519400000000003,1.446892,0.235083,0.95791,-0.055815,-0.055419,0.275183
496,0.23684000000000002,-1.2733510000000001,2.6378369999999998,0.068763,0.9560879999999999,-0.28488800000000003,1.655982,0.577886,0.8307450000000001,-0.21089899999999998,0.075909,0.36289099999999996
497,0.272913,-1.2381719999999998,2.655726,0.088008,0.945189,-0.314432,1.508358,1.036075,0.662484,-0.24767600000000004,0.038149,0.397806
498,0.30148400000000003,-1.213373,2.668805,0.10388499999999999,0.936801,-0.334075,0.928815,0.602986,0.512644,-0.218509,0.1405,0.499755
499,0.325521,-1.197846,2.686178,0.116523,0.931256,-0.345224,0.42395200000000005,0.37759299999999996,0.5724319999999999,-0.333823,0.323275,0.342538
500,0.36339099999999996,-1.191771,2.716409,0.131518,0.929026,-0.345846,-0.005682,0.48865600000000003,0.609881,-0.411761,0.46025600000000005,0.250753
501,0.386332,-1.186787,2.736919,0.14115999999999998,0.92717,-0.347023,0.097147,0.045273,0.31206500000000004,-0.49826099999999995,0.505081,0.332802
502,0.39624699999999996,-1.193003,2.743004,0.14236600000000002,0.929481,-0.34028200000000003,-0.630437,0.23636100000000002,-0.2231,-0.374895,0.712975,0.5613060000000001
503,0.39561399999999997,-1.2201739999999999,2.744307,0.132367,0.939159,-0.316945,-1.740782,-0.192417,-0.723825,-0.46774,0.5689890000000001,0.277669
504,0.359592,-1.273034,2.722073,0.103236,0.955995,-0.27460999999999997,-2.569667,-1.0647879999999998,-1.624735,-0.558284,0.615355,-0.027682
505,0.284355,-1.3427790000000002,2.660543,0.063411,0.974117,-0.216957,-3.3139760000000003,-0.564581,-1.9264729999999999,-0.073635,0.805562,0.640953
506,0.173302,-1.4147459999999998,2.562018,0.026795999999999997,0.987849,-0.153071,-3.233691,-1.020416,-1.489493,0.613676,0.63445,-0.036900999999999996
507,0.057047,-1.4778870000000002,2.4645330000000003,0.005288,0.9956870000000001,-0.092592,-2.967683,-0.587917,-0.654976,0.756324,0.613367,-0.34179499999999996
508,-0.08508099999999999,-1.540019,2.3097090000000002,-0.002606,0.999526,-0.030555000000000002,-3.247435,1.231709,-0.44668599999999997,0.662365,0.401963,0.34043
509,-2.689851,-1.5315450000000002,-0.321187,-0.01709,0.99923,0.035220999999999995,-3.245706,0.9925069999999999,-0.8352,0.358902,0.563148,-0.060368
510,-2.784577,-1.4697930000000001,-0.41511099999999995,-0.035225,0.9949040000000001,0.094438,-2.770079,-0.399758,-0.993532,0.377038,0.5674739999999999,-0.119585
511,-2.752596,-1.412228,-0.38768800000000003,-0.059878,0.987454,0.146085,-2.5600810000000003,0.681983,-1.296826,0.064791,-0.012967,-0.11305
512,-2.708759,-1.357529,-0.349033,-0.088769,0.977345,0.192118,-2.257118,-0.25669899999999995,-1.5156969999999998,0.12276600000000001,-0.060322,-0.46230600000000005
513,-2.691684,-1.3009549999999999,-0.307223,-0.115924,0.9638129999999999,0.240037,-2.4613669999999996,-1.537668,-1.744082,0.149921,-0.04679,-0.510224
514,-2.702691,-1.2389379999999999,-0.271976,-0.138442,0.9454379999999999,0.29490900000000003,-2.612445,-2.6874130000000003,-1.801348,0.142333,-0.194294,-0.592364
515,-2.7469040000000002,-1.1793799999999999,-0.250442,-0.14669000000000001,0.92437,0.35215599999999997,-2.486891,-3.263834,-1.350014,0.17253800000000002,-0.704384,-0.532393
516,-2.802505,-1.131048,-0.243376,-0.1416,0.904859,0.401462,-1.994127,-3.006675,-0.8192,0.167448,-0.684873,-0.581699
517,-2.851669,-1.0979370000000002,-0.23767399999999997,-0.130196,0.8902700000000001,0.436417,-1.204906,-2.534442,-0.5173270000000001,0.344125,-0.852153,-0.440934
518,-2.889056,-1.084746,-0.229537,-0.116717,0.884185,0.452312,-0.22764299999999998,-2.053073,-0.265426,0.397235,-0.854567,-0.37014400000000003
519,-2.917096,-1.089185,-0.221761,-0.10311500000000001,0.88625,0.451575,0.5224300000000001,-1.62073,-0.077007,0.341275,-0.782108,-0.36241799999999996
520,-2.93804,-1.107949,-0.21167800000000003,-0.090258,0.894785,0.437271,1.231551,-1.398691,-0.008245,0.162249,-0.7162569999999999,-0.327972
521,-2.948036,-1.139988,-0.196172,-0.080325,0.9086290000000001,0.40979799999999994,1.8615380000000001,-1.054633,-0.014968,0.017916,-0.585432,-0.059440999999999994
522,-2.937989,-1.182281,-0.169569,-0.07659400000000001,0.925472,0.370981,2.346881,-0.511372,-0.161825,-0.009038,-0.460476,0.229071
523,-2.907942,-1.22573,-0.136424,-0.078315,0.941053,0.329058,1.9673669999999999,0.366275,-0.06411900000000001,-0.020714,-0.219007,0.727705
524,-2.894176,-1.23119,-0.13031800000000002,-0.081578,0.9428860000000001,0.32296199999999997,-0.814156,0.061857,-0.113068,0.430043,1.319672,1.562445
525,-2.876091,-1.208705,-0.10536400000000001,-0.092946,0.935158,0.34181,-0.854089,-0.346165,-1.137249,0.732579,1.629173,1.32361
526,-2.830447,-1.187343,-0.034219,-0.11453599999999999,0.927378,0.356153,-0.604406,-1.570014,-1.657366,0.360507,0.533697,0.370593
527,-2.822108,-1.170442,0.012862,-0.12240699999999999,0.9209229999999999,0.370014,-0.46722600000000003,-1.5948579999999999,-0.62661,0.23324699999999998,-0.33455799999999997,0.378902
528,-2.8510240000000002,-1.1553229999999999,-0.004713,-0.11563499999999999,0.914926,0.386696,-1.1683629999999998,-0.00035499999999999996,0.300076,0.315067,-0.032739,0.46121899999999993
529,-2.836839,-1.1351639999999998,-0.020576,-0.126618,0.906603,0.402533,-0.503846,2.69805,-0.290535,0.002548,1.5016,-1.8261009999999998
530,-2.746419,-1.1409850000000001,0.028637,-0.160413,0.9090450000000001,0.38457800000000003,0.83704,1.260132,-0.9704659999999999,0.47903199999999996,0.797697,-1.074077
531,-2.6941650000000004,-1.148849,0.089437,-0.17718299999999998,0.912293,0.369219,0.95688,0.097821,-0.784406,0.6882,-0.42990200000000006,-0.553042
532,-2.693275,-1.1584459999999999,0.090311,-0.173708,0.9161819999999999,0.361153,0.052274,-0.202571,0.7927649999999999,1.019335,-1.255201,0.413338
533,-2.653623,-1.19216,0.082419,-0.17330299999999998,0.92917,0.326504,3.087377,4.425364,0.731123,-0.138175,-0.051911,-0.6107600000000001
534,-2.455722,-1.2734729999999999,0.17264000000000002,-0.185542,0.956124,0.226708,3.955136,5.447508999999999,1.439833,-0.015691,0.9345469999999999,-1.15963
535,-2.3853880000000003,-1.331797,0.193299,-0.162431,0.971575,0.172203,1.714436,0.64572,1.665344,-0.122451,0.894071,-0.290367
536,-2.36029,-1.372483,0.22793200000000002,-0.138732,0.9804,0.139873,1.8321990000000001,-0.522275,0.8782469999999999,-0.127503,0.235527,-0.003764
537,-2.2389799999999997,-1.415367,0.34270500000000004,-0.121503,0.9879450000000001,0.095903,2.416488,0.938901,1.000097,0.16459400000000002,-0.29212899999999997,0.09364199999999999
538,-1.982236,-1.461031,0.582342,-0.100386,0.9939819999999999,0.043802999999999995,2.457226,0.698304,1.191901,0.288115,-0.358621,-0.066554
539,-1.559599,-1.492491,1.0088059999999999,-0.078195,0.996936,-0.0008759999999999999,2.181722,-0.459139,1.036568,0.19208699999999998,-0.226825,0.073462
540,-0.929623,-1.495219,1.640696,-0.060487,0.9971450000000001,-0.045146,2.271503,0.553407,0.825458,0.010469,-0.151763,0.353206
541,-0.442382,-1.467722,2.104303,-0.044039,0.994693,-0.09297000000000001,2.345834,1.490219,0.6527930000000001,-0.046415,-0.018496000000000002,0.14036400000000002
542,-0.218852,-1.427945,2.298825,-0.030907,0.989814,-0.138959,2.132162,1.464064,0.45264499999999996,-0.063042,-0.080222,0.09753099999999999
543,-0.078171,-1.391015,2.4046060000000002,-0.013963,0.983883,-0.17826,1.890916,2.083133,0.625355,0.067003,-0.28944000000000003,0.295844
544,0.039017,-1.354842,2.483742,0.008357999999999999,0.976772,-0.21411,1.7558310000000001,1.6461,0.809774,0.193653,-0.323071,0.072157
545,0.12675699999999998,-1.3207200000000001,2.556103,0.031285,0.968893,-0.24548699999999998,1.576829,0.538838,1.074861,0.14558,-0.229956,0.241718
546,0.193412,-1.2859260000000001,2.618636,0.054015999999999995,0.9596979999999999,-0.27578800000000003,1.613947,0.254269,1.077621,-0.160873,0.009861,0.242829
547,0.240414,-1.2481440000000001,2.6550990000000003,0.075498,0.948398,-0.30796,1.772573,0.8736659999999999,0.822631,-0.350065,-0.010287000000000001,0.274253
548,0.272036,-1.2155200000000002,2.6668380000000003,0.093464,0.93755,-0.335054,1.303215,1.024745,0.478396,-0.319141,-0.110722,0.44935699999999995
549,0.29581999999999997,-1.1945540000000001,2.670291,0.10711300000000001,0.930052,-0.351465,0.8261,1.04732,0.308392,-0.14059100000000002,0.202577,0.646829
550,0.329899,-1.183608,2.6844919999999997,0.12231700000000001,0.925974,-0.357222,0.192401,1.0273780000000001,0.516567,-0.076815,0.231161,0.330793
551,0.372126,-1.18016,2.7120490000000004,0.13844800000000002,0.924667,-0.35471199999999997,-0.041958999999999996,0.66162,0.545309,-0.5691729999999999,0.498383,0.41069700000000003
552,0.39828,-1.178108,2.732242,0.148412,0.923884,-0.352718,-0.13628800000000002,0.28277399999999997,0.263125,-0.646962,0.456182,0.5283770000000001
553,0.417813,-1.189302,2.742927,0.151067,0.928109,-0.340278,-0.876891,0.46735,-0.230462,-0.537084,0.600638,0.519233
554,0.423091,-1.220229,2.751419,0.141004,0.9391780000000001,-0.313144,-1.951899,-0.380314,-0.7036979999999999,-0.631528,0.537583,0.123203
555,0.401266,-1.277881,2.745043,0.112777,0.957406,-0.265804,-2.8758,-0.9607450000000001,-1.536211,-0.55992,0.620887,0.032175999999999996
556,0.350672,-1.352406,2.709725,0.07442599999999999,0.976248,-0.203466,-3.487481,-0.850932,-1.8269080000000002,0.038183999999999996,0.876841,0.52271
557,0.282574,-1.425275,2.667996,0.040429,0.9894299999999999,-0.139246,-3.254745,-1.7581069999999999,-1.340216,0.5385810000000001,0.764918,-0.384116
558,0.142509,-1.48981,2.544236,0.011486,0.9967219999999999,-0.080053,-2.899005,0.10873800000000002,-1.236505,0.518299,0.755322,-0.23737600000000003
559,-0.34714,-1.5493350000000001,2.031598,-0.007264,0.99977,-0.020078,-3.155389,1.289794,-0.9310940000000001,0.5094,0.529954,0.46479499999999996
560,-2.601041,-1.521168,-0.23581999999999997,-0.025501,0.998769,0.042489,-2.983778,0.109766,-0.88779,0.513416,0.45721000000000006,-0.076928
561,-2.720752,-1.462943,-0.34833000000000003,-0.043963999999999996,0.99419,0.098226,-2.730064,-0.35590900000000003,-1.070224,0.508472,0.342801,-0.226827
562,-2.715821,-1.403425,-0.347934,-0.068799,0.9860260000000001,0.151702,-2.677554,0.47656800000000005,-1.239703,0.304623,-0.028919,-0.10493399999999999
563,-2.692933,-1.348118,-0.322696,-0.095786,0.975309,0.198972,-2.210442,-0.619848,-1.582207,0.100409,-0.063292,-0.496762
564,-2.679566,-1.2890270000000001,-0.27713699999999997,-0.12394200000000001,0.960565,0.248892,-2.6031619999999998,-1.907261,-1.900563,0.10894300000000001,-0.042535,-0.567037
565,-2.70173,-1.222789,-0.246941,-0.14520999999999998,0.9400540000000001,0.308555,-2.7705830000000002,-2.955396,-1.77968,0.116722,-0.248266,-0.6987369999999999
566,-2.751399,-1.162183,-0.23299,-0.151131,0.917673,0.367464,-2.58091,-3.172374,-1.229014,0.178368,-0.697824,-0.585329
567,-2.814709,-1.114683,-0.23545700000000003,-0.141427,0.8977709999999999,0.41713100000000003,-2.003502,-2.941604,-0.566184,0.19001099999999999,-0.8047989999999999,-0.563554
568,-2.871255,-1.084989,-0.23925500000000002,-0.12469300000000001,0.8842979999999999,0.449956,-1.054098,-2.453879,-0.281371,0.31214699999999995,-0.902594,-0.460027
569,-2.911159,-1.076524,-0.235658,-0.108349,0.8803139999999999,0.461845,-0.019971,-1.9957639999999999,-0.124116,0.36401,-0.8369639999999999,-0.358925
570,-2.938641,-1.085924,-0.22683000000000003,-0.093946,0.884735,0.45652299999999996,0.8114239999999999,-1.654738,-0.080289,0.30029,-0.774963,-0.33860300000000004
571,-2.9553,-1.1111309999999999,-0.212677,-0.08217,0.896201,0.43596599999999996,1.578716,-1.365558,-0.068891,0.17119,-0.700431,-0.319602
572,-2.9573009999999997,-1.149794,-0.192219,-0.074889,0.9126799999999999,0.401748,2.186249,-0.829534,-0.110199,0.022078,-0.438513,0.027741000000000002
573,-2.941626,-1.196707,-0.161511,-0.072585,0.930841,0.358135,2.510752,-0.36282600000000004,-0.15446400000000002,0.009536,-0.307184,0.33061599999999997
574,-2.91261,-1.233568,-0.13375499999999999,-0.075102,0.943675,0.322228,1.094735,0.396971,-0.05637,0.049437,0.540288,1.1086040000000001
575,-2.914301,-1.2140229999999999,-0.133748,-0.078699,0.9370290000000001,0.340262,-1.584868,-0.39312600000000003,-0.48106800000000005,0.108713,1.315138,1.441095
576,-2.872929,-1.185043,-0.08492100000000001,-0.099873,0.926515,0.362752,-0.915968,-0.296295,-1.565037,0.749363,1.381041,1.1350959999999999
577,-2.8280830000000003,-1.164228,-0.014053,-0.121957,0.9184829999999999,0.376177,-0.440216,-1.456089,-1.517499,0.159692,-0.571758,0.18520999999999999
578,-2.826539,-1.152873,0.022777000000000002,-0.12576199999999998,0.913934,0.38587899999999997,-0.314188,-1.456923,-0.354392,0.036177,-0.979867,0.172654
579,-2.8766119999999997,-1.144169,-0.007921,-0.10836900000000001,0.910367,0.399352,-0.724747,-0.777126,0.761365,0.353104,-0.268552,0.35457
580,-2.868909,-1.152221,-0.022678,-0.109464,0.9136690000000001,0.391434,1.237016,2.6186409999999998,-0.056087,0.102476,1.162076,-1.523483
581,-2.729793,-1.175335,0.049576999999999996,-0.15419000000000002,0.9228190000000001,0.35302100000000003,1.287,3.429013,-1.3535979999999999,0.388077,1.64583,-0.729288
582,-2.680039,-1.1702219999999999,0.099267,-0.173655,0.9208370000000001,0.349136,0.069543,-0.6453220000000001,-0.651854,0.39437300000000003,1.497452,0.23124699999999998
583,-2.667293,-1.172139,0.108599,-0.177285,0.921583,0.34532399999999996,0.228825,0.125865,0.292578,0.963341,-1.2854139999999998,-0.383654
584,-2.676095,-1.195659,0.094467,-0.164461,0.930457,0.327406,1.7537919999999998,1.258089,0.8754149999999999,0.426179,-0.95037,0.349108
585,-2.528054,-1.264715,0.16801,-0.173485,0.953522,0.246358,4.326142,4.900519,0.713527,-0.045676999999999995,-0.386185,-0.24121599999999999
586,-2.349428,-1.334749,0.266559,-0.16647,0.9722700000000001,0.164232,2.536259,3.196853,1.5374889999999999,-0.051852999999999996,0.8877459999999999,-0.7289140000000001
587,-2.339131,-1.376596,0.26126900000000003,-0.138755,0.981202,0.134099,1.203392,-0.310263,1.4183729999999999,-0.158624,0.6326890000000001,-0.114766
588,-2.299786,-1.4161110000000001,0.307133,-0.114897,0.98806,0.10261400000000001,1.9663009999999999,0.092138,1.0920370000000001,-0.023378,-0.000893,0.12408599999999999
589,-2.077693,-1.460834,0.518791,-0.095917,0.9939600000000001,0.053262000000000004,2.5851349999999997,0.701896,0.9834149999999999,0.18943800000000002,-0.295169,0.009986
590,-1.5861530000000001,-1.492748,1.005256,-0.077923,0.996956,0.0011970000000000001,2.560593,0.069838,0.8259569999999999,0.23608,-0.24044000000000001,0.0047539999999999995
591,-0.9595739999999999,-1.491673,1.636844,-0.064704,0.996871,-0.045341,2.187393,-0.088889,0.617387,0.150443,-0.278457,0.11324200000000001
592,-0.520472,-1.469791,2.062538,-0.050131,0.9949030000000001,-0.087461,2.071432,1.249188,0.694979,0.11238699999999999,-0.186355,0.322263
593,-0.25669000000000003,-1.435574,2.296113,-0.034221,0.990871,-0.130377,2.103873,1.6959279999999999,0.569651,0.113857,-0.036266,0.202505
594,-0.09826499999999999,-1.397416,2.418238,-0.016923,0.985007,-0.17166700000000001,1.959911,1.9934610000000001,0.6141979999999999,0.051546,-0.10523099999999999,0.180135
595,0.016437,-1.362034,2.49625,0.003406,0.9782879999999999,-0.207211,1.7121330000000001,1.776693,0.691793,0.054562,-0.244585,0.074581
596,0.099251,-1.328563,2.551622,0.023768,0.9708049999999999,-0.238681,1.615546,1.228201,0.744164,0.015402,-0.225367,0.12529300000000002
597,0.161834,-1.29388,2.601224,0.04405,0.9619030000000001,-0.26981,1.6379219999999999,0.45718400000000003,0.930111,-0.073575,-0.18639,0.18596300000000002
598,0.211835,-1.257599,2.645614,0.064778,0.9513530000000001,-0.301208,1.72728,0.41420100000000004,0.9457450000000001,-0.182698,-0.110106,0.287948
599,0.24508600000000003,-1.219168,2.66928,0.08357,0.9388129999999999,-0.334129,1.722906,0.6282260000000001,0.707227,-0.330869,-0.093705,0.350441
600,0.268074,-1.190261,2.67733,0.098378,0.928466,-0.358146,1.13086,0.8211129999999999,0.403742,-0.29134,0.22015500000000002,0.7017899999999999
601,0.294213,-1.1737229999999998,2.687035,0.112143,0.9221969999999999,-0.3701,0.496091,0.8774559999999999,0.450511,-0.072745,0.28665,0.50134
602,0.33052,-1.168085,2.7063919999999997,0.12718800000000002,0.9200020000000001,-0.370697,-0.002918,0.9176479999999999,0.422404,-0.30358,0.548031,0.49559
603,0.360744,-1.169625,2.721848,0.13783199999999998,0.9206040000000001,-0.365358,-0.331917,0.757055,0.10945999999999999,-0.47084,0.5340010000000001,0.6183489999999999
604,0.381678,-1.1880959999999998,2.7280029999999997,0.139092,0.92766,-0.346551,-1.226097,0.642057,-0.459592,-0.5750810000000001,0.534956,0.5282979999999999
605,0.375612,-1.227149,2.724241,0.12359500000000001,0.9415319999999999,-0.313429,-2.237484,-0.5275529999999999,-0.929834,-0.812774,0.460079,0.28462
606,0.353025,-1.290701,2.716006,0.095576,0.9610290000000001,-0.259392,-3.229591,-0.753305,-1.422516,-0.817454,0.49205,0.15448800000000001
607,0.305762,-1.367207,2.683153,0.060859,0.979347,-0.192798,-3.535843,-0.97404,-1.633744,-0.022437000000000002,0.8046800000000001,0.38617199999999996
608,0.196982,-1.437622,2.606159,0.025983,0.991145,-0.130194,-3.030017,-1.8525939999999999,-1.348142,0.5724520000000001,0.947011,-0.347147
609,0.053387000000000004,-1.4958420000000001,2.480429,0.003994,0.997192,-0.074739,-2.7384459999999997,-0.090487,-0.8377540000000001,0.579533,0.8600770000000001,-0.176146
610,-0.6265569999999999,-1.548608,1.781981,-0.012931999999999999,0.9997540000000001,-0.017866,-2.922848,1.255004,-0.956134,0.46662200000000004,0.504946,0.47144899999999995
611,-2.427854,-1.521569,-0.034645,-0.032172000000000006,0.9987889999999999,0.037148,-2.654416,0.026657,-0.90141,0.431403,0.5344300000000001,-0.15798199999999998
612,-2.632781,-1.4653450000000001,-0.220802,-0.051259000000000006,0.994445,0.091895,-2.7872169999999996,-1.07645,-1.181866,0.384221,0.474625,-0.307257
613,-2.662352,-1.403658,-0.24813400000000002,-0.0767,0.986065,0.1476,-2.7553520000000002,0.19268,-1.306116,0.325418,0.007847,-0.041979
614,-2.662642,-1.346308,-0.239054,-0.10257999999999999,0.974908,0.197543,-2.351177,-1.022233,-1.531403,0.198787,-0.026147000000000004,-0.47314799999999996
615,-2.66683,-1.2865149999999999,-0.20504099999999997,-0.12820299999999998,0.9598629999999999,0.24943600000000002,-2.590842,-2.181359,-1.8296259999999998,0.23017800000000002,-0.022775,-0.540162
616,-2.692152,-1.223287,-0.18301199999999998,-0.147954,0.940224,0.306726,-2.659005,-2.412098,-1.6108209999999998,0.246221,-0.47257299999999997,-0.5194340000000001
617,-2.732155,-1.167426,-0.171036,-0.156255,0.919743,0.360066,-2.2863990000000003,-2.627154,-1.167835,0.263219,-0.5655720000000001,-0.5051770000000001
618,-2.786652,-1.125824,-0.169759,-0.149587,0.9026219999999999,0.403594,-1.688982,-2.813549,-0.627178,0.233434,-0.780201,-0.438079
619,-2.84307,-1.100913,-0.17319600000000002,-0.133164,0.8916209999999999,0.43274700000000005,-0.892266,-2.454736,-0.206535,0.27562,-0.834584,-0.393288
620,-2.886048,-1.092946,-0.17319,-0.11624000000000001,0.887986,0.444928,-0.081964,-1.93517,-0.038103,0.301573,-0.8204809999999999,-0.378186
621,-2.914919,-1.099868,-0.169976,-0.101964,0.8911469999999999,0.442097,0.621107,-1.408396,0.019545,0.274755,-0.808368,-0.35504600000000003
622,-2.931639,-1.121321,-0.162274,-0.090553,0.900675,0.424942,1.356542,-1.033031,0.084021,0.15123699999999998,-0.7381989999999999,-0.251755
623,-2.937871,-1.1559409999999999,-0.150254,-0.08154199999999999,0.915175,0.39471100000000003,1.9529580000000002,-0.763571,0.113479,0.022491,-0.625654,0.085864
624,-2.9306259999999997,-1.200053,-0.131758,-0.07586699999999999,0.9320579999999999,0.35426399999999997,2.37358,-0.21328899999999998,0.131735,-0.07959,-0.5094810000000001,0.375579
625,-2.912954,-1.2392020000000001,-0.123173,-0.073784,0.945525,0.317067,1.25959,0.667561,0.33112800000000003,0.057686,0.18384,1.031261
626,-2.9119599999999997,-1.22706,-0.124726,-0.07670700000000001,0.9415020000000001,0.32814899999999997,-1.290381,-0.443989,-0.536632,0.694489,1.896206,1.317115
627,-2.891046,-1.196174,-0.073241,-0.090722,0.9306459999999999,0.354485,-1.272234,-1.9737930000000001,-1.5995620000000002,0.706109,2.001895,0.89791
628,-2.877586,-1.165181,-0.007469,-0.10296400000000001,0.91886,0.38090300000000005,-0.995506,-2.384675,-1.385594,-0.115175,-0.6345270000000001,0.310717
629,-2.89111,-1.14905,0.013279,-0.101465,0.912375,0.39657,-0.70363,-0.960211,-0.089628,0.303629,-0.788718,0.44241899999999995
630,-2.903931,-1.128862,-0.014173,-0.100689,0.903926,0.41565699999999994,-1.144855,1.5988360000000001,0.22875,0.432659,0.0036969999999999998,0.37700700000000004
631,-2.8247869999999997,-1.123708,0.001929,-0.134685,0.90171,0.410817,0.69021,3.3111660000000005,-0.669683,0.198772,1.509911,-1.5915569999999999
632,-2.772686,-1.130854,0.048606,-0.15357,0.904776,0.397226,0.26065,-0.915357,-0.9524819999999999,0.5687760000000001,0.487634,-0.162744
633,-2.756726,-1.13096,0.074464,-0.159853,0.9048209999999999,0.394635,0.20374,-0.33819099999999996,-0.052039999999999996,0.692156,-0.6071989999999999,-0.355069
634,-2.77093,-1.144701,0.049991,-0.149714,0.910586,0.385239,1.234344,1.866686,0.978894,0.502375,-0.9408290000000001,0.477096
635,-2.638713,-1.2180010000000001,0.08507999999999999,-0.166519,0.9384110000000001,0.302735,4.3040449999999995,5.968978,1.002557,-0.087387,0.227636,-1.327531
636,-2.5333419999999998,-1.2840040000000001,0.10888699999999998,-0.161636,0.9591559999999999,0.23213000000000003,2.0445889999999998,2.3694439999999997,1.62057,-0.047744999999999996,0.739635,-1.225904
637,-2.5222849999999997,-1.330773,0.109731,-0.137983,0.971332,0.19356099999999998,2.059863,-0.010328,1.061842,-0.25902,0.7074090000000001,-0.26405700000000004
638,-2.434389,-1.377324,0.195466,-0.12490599999999999,0.981342,0.146144,2.525105,0.47575200000000006,0.5805640000000001,-0.150927,0.109859,-0.10108500000000001
639,-2.265888,-1.421835,0.351827,-0.113962,0.988926,0.095037,2.469642,0.620255,0.722065,0.085047,-0.20807199999999998,-0.052388
640,-2.042801,-1.463088,0.577518,-0.095721,0.9942049999999999,0.048865,2.257108,-0.578547,0.997718,0.263171,-0.266727,-0.157645
641,-1.635591,-1.4934209999999999,0.9999469999999999,-0.0771,0.997008,0.0050030000000000005,2.335557,-0.42139499999999996,0.790829,0.380872,-0.234053,0.283099
642,-0.934961,-1.493311,1.692777,-0.062252999999999996,0.997,-0.045949000000000004,2.587397,1.004175,0.781148,0.313871,-0.252554,0.383366
643,-0.415862,-1.463867,2.185235,-0.043105000000000004,0.994289,-0.097607,2.373679,1.456383,0.8335549999999999,0.218261,-0.082896,0.213772
644,-0.17066900000000002,-1.428756,2.404658,-0.024041,0.9899290000000001,-0.13949,1.928922,1.458048,0.802672,-0.030418,-0.21785,0.226877
645,-0.0117,-1.3937389999999998,2.527619,-0.002061,0.984366,-0.176108,1.7995029999999999,2.105092,0.809485,-0.063278,-0.27722800000000003,0.21852800000000003
646,0.10490799999999999,-1.358365,2.605236,0.022077,0.9775209999999999,-0.20966700000000002,1.684814,1.801678,0.8614149999999999,-0.009565,-0.250776,0.072476
647,0.191529,-1.321443,2.6680900000000003,0.046975,0.9690719999999999,-0.24225700000000003,1.775043,0.9674440000000001,1.079964,-0.011956,-0.166002,0.267785
648,0.253941,-1.2805469999999999,2.724149,0.071895,0.9581729999999999,-0.277006,1.8198619999999999,0.13802799999999998,1.198844,-0.149135,-0.03494,0.181288
649,0.291099,-1.2418069999999999,2.7602830000000003,0.092726,0.946369,-0.309489,1.634944,0.24106100000000003,0.901523,-0.34689200000000003,-0.124043,0.380382
650,0.30594299999999996,-1.213402,2.7644029999999997,0.105366,0.9368120000000001,-0.33358499999999996,1.154555,0.729988,0.261949,-0.456288,0.145235,0.7129489999999999
651,0.31846599999999997,-1.1970379999999998,2.758677,0.11432,0.9309620000000001,-0.34675300000000003,0.561526,0.903965,0.159307,-0.238039,0.197777,0.524991
652,0.344002,-1.1918469999999999,2.771262,0.12476500000000001,0.929054,-0.34826599999999996,0.006326,0.5471189999999999,0.368462,-0.158548,0.366006,0.166077
653,0.372128,-1.190115,2.796533,0.135094,0.9284120000000001,-0.346118,-0.18371300000000002,0.12772,0.45313000000000003,-0.376229,0.562113,0.6168239999999999
654,0.397489,-1.200304,2.815534,0.14015899999999998,0.932149,-0.333841,-0.8504649999999999,0.517975,-0.12459400000000001,-0.480979,0.5922649999999999,0.7053470000000001
655,0.404746,-1.2306270000000001,2.8218240000000003,0.131383,0.9426979999999999,-0.306683,-1.8815669999999998,-0.129274,-0.671487,-0.559453,0.7144520000000001,0.30144899999999997
656,0.3897,-1.285442,2.815257,0.10694100000000001,0.959562,-0.260385,-2.750101,-0.649519,-1.418234,-0.505272,0.61455,0.254159
657,0.354953,-1.356846,2.79094,0.073788,0.9772,-0.199077,-3.467594,-0.492824,-1.619999,-0.145306,0.747791,0.571788
658,0.305162,-1.430021,2.759159,0.042151,0.990108,-0.133812,-3.234588,-1.27573,-1.307584,0.535791,0.576604,0.047004000000000004
659,0.250894,-1.494386,2.722234,0.018943,0.997082,-0.073912,-2.99904,-0.275497,-0.9643209999999999,0.6319359999999999,0.561954,-0.103074
660,-0.005296,-1.558743,2.4497430000000002,-6.3e-05,0.999927,-0.011802,-3.185148,1.176482,-1.071099,0.433672,0.553875,0.403144
661,-2.7322349999999997,-1.513599,-0.291398,-0.022731,0.998365,0.052391,-3.1252299999999997,0.21241100000000002,-1.123924,0.25236,0.558596,0.015068000000000002
662,-2.740108,-1.453729,-0.297849,-0.045632,0.9931549999999999,0.107485,-2.6301740000000002,-0.050189,-1.151108,0.215981,0.476876,-0.164446
663,-2.722122,-1.39652,-0.279591,-0.07061,0.9848520000000001,0.158341,-2.566113,-0.003793,-1.353683,0.178032,0.13882,-0.188599
664,-2.699834,-1.339466,-0.245223,-0.098013,0.9733620000000001,0.207246,-2.371305,-1.075081,-1.6169360000000002,0.15096099999999998,0.023327,-0.39074899999999996
665,-2.6934970000000003,-1.281175,-0.19889400000000002,-0.123725,0.9583520000000001,0.25738099999999997,-2.369007,-2.288295,-1.918741,0.191154,-0.049645,-0.509304
666,-2.711055,-1.218234,-0.152382,-0.14411,0.938491,0.313779,-2.600798,-3.3801339999999995,-2.001214,0.250708,-0.257949,-0.557996
667,-2.743867,-1.159651,-0.117736,-0.15479300000000001,0.9166639999999999,0.36845300000000003,-2.252639,-3.130522,-1.588904,0.30123099999999997,-0.63459,-0.497039
668,-2.783672,-1.114423,-0.09568600000000001,-0.154384,0.8976569999999999,0.412757,-1.6905860000000001,-2.928829,-1.100264,0.31040500000000004,-0.772809,-0.548454
669,-2.822575,-1.086184,-0.078885,-0.146108,0.884856,0.442349,-0.8988219999999999,-2.489019,-0.684033,0.37311300000000003,-0.892332,-0.41137399999999996
670,-2.854891,-1.0757700000000001,-0.066037,-0.134338,0.879956,0.455654,-0.132306,-2.0031830000000004,-0.301151,0.343353,-0.8671690000000001,-0.443783
671,-2.8827700000000003,-1.079895,-0.057829,-0.120654,0.881909,0.455708,0.467042,-1.598165,-0.075293,0.37337,-0.78294,-0.399891
672,-2.901728,-1.095936,-0.049005,-0.108618,0.889357,0.44411300000000004,1.061416,-1.21615,0.046942000000000005,0.26811799999999997,-0.7424149999999999,-0.35581
673,-2.9085669999999997,-1.124212,-0.037034,-0.09973,0.901927,0.420203,1.653625,-0.703762,0.06858099999999999,0.13982999999999998,-0.654888,-0.146537
674,-2.899679,-1.163497,-0.017363,-0.094894,0.9181940000000001,0.38458400000000004,2.206111,-0.293313,0.043073,0.07559199999999999,-0.5285,0.114531
675,-2.874003,-1.210534,0.006893000000000001,-0.093206,0.9358040000000001,0.339962,2.353066,0.526821,0.213964,0.040746,-0.095381,0.9776040000000001
676,-2.877889,-1.221365,-0.001989,-0.089236,0.9395680000000001,0.330516,-0.9268370000000001,-0.465319,0.21903000000000003,0.511386,1.349907,1.446798
677,-2.886977,-1.19298,0.010206,-0.09291100000000001,0.929473,0.356986,-1.296435,-1.110919,-1.04643,0.579712,1.51024,0.859857
678,-2.859922,-1.162674,0.07105700000000001,-0.11031600000000001,0.917868,0.381234,-1.013064,-1.581352,-1.662349,0.26316300000000004,0.688257,0.46942799999999996
679,-2.843243,-1.145753,0.118378,-0.121207,0.9110209999999999,0.394133,-0.244544,-1.059345,-0.736842,0.023322,-0.947794,0.39961399999999997
680,-2.860559,-1.141411,0.10863900000000001,-0.115461,0.909222,0.399969,-0.472145,0.07109800000000001,0.477892,0.38424400000000003,0.14738800000000002,0.49949099999999996
681,-2.847194,-1.1345,0.094681,-0.122616,0.906323,0.40439400000000003,0.025899000000000002,2.2662880000000003,-0.13353299999999999,0.372067,0.682834,0.333842
682,-2.748035,-1.1442510000000001,0.145655,-0.158651,0.910401,0.382088,0.958983,1.90795,-1.1061159999999999,0.035222,1.2763360000000001,-1.6045459999999998
683,-2.703143,-1.1441219999999999,0.202003,-0.17568699999999998,0.9103469999999999,0.37469,0.45616999999999996,-0.5753119999999999,-0.910961,0.652921,-0.258858,-0.061259
684,-2.6971279999999997,-1.147316,0.207535,-0.17668699999999998,0.9116639999999999,0.371,-0.09391000000000001,-0.19050799999999998,0.5695319999999999,0.9051110000000001,-0.991117,-0.31490799999999997
685,-2.713909,-1.165139,0.171106,-0.16367,0.9188430000000001,0.359068,1.768563,2.7426459999999997,0.972957,0.476369,-0.8393450000000001,0.548662
686,-2.541071,-1.245914,0.24546300000000001,-0.180362,0.947688,0.26334,4.7356,5.651994999999999,1.044433,-0.051495000000000006,0.313618,-1.2209510000000001
687,-2.411181,-1.315564,0.299565,-0.168432,0.9676049999999999,0.188053,2.121909,2.275306,1.6522080000000001,0.00588,0.709611,-1.225331
688,-2.3962950000000003,-1.358703,0.308933,-0.142752,0.977592,0.154686,1.715732,-0.308755,1.13139,-0.17794200000000002,0.7539899999999999,-0.216896
689,-2.3058919999999996,-1.3999629999999998,0.398068,-0.12608699999999998,0.9854430000000001,0.114,2.240806,0.58239,0.799562,-0.073528,0.088974,0.008162
690,-2.100508,-1.4427219999999998,0.591134,-0.110198,0.9918100000000001,0.064524,2.437855,0.6312810000000001,0.9226530000000001,0.018264,-0.15381199999999998,0.004598
691,-1.753047,-1.4774049999999999,0.935796,-0.091678,0.995642,0.016896,2.3263119999999997,-0.0009939999999999999,0.894911,0.243015,-0.28536100000000003,0.047832
692,-1.220084,-1.4874399999999999,1.4742879999999998,-0.078155,0.9965280000000001,-0.028592000000000003,2.307144,-0.067848,0.580805,0.186507,-0.23764699999999997,0.265347
693,-0.7003689999999999,-1.469147,1.977454,-0.06538,0.9948379999999999,-0.077564,2.412035,1.441242,0.591354,0.173733,-0.235958,0.31432
694,-0.39034,-1.435338,2.256954,-0.051376,0.9908399999999999,-0.124865,2.197727,1.62237,0.503099,0.161941,0.01856,0.11809000000000001
695,-0.202979,-1.399242,2.410356,-0.03441,0.9853209999999999,-0.167192,1.98196,1.9888279999999998,0.68913,0.089662,-0.156066,0.251131
696,-0.052299,-1.366272,2.5192189999999997,-0.010616,0.979158,-0.202809,1.623575,2.175828,0.855166,0.060772,-0.305223,0.164967
697,0.062575,-1.3352899999999999,2.598878,0.014591,0.9723959999999999,-0.232866,1.540905,1.62627,0.895885,0.029126,-0.234283,0.072359
698,0.146599,-1.303013,2.6627419999999997,0.038649,0.96436,-0.261746,1.518478,0.801303,1.02604,-0.068159,-0.16106099999999998,0.204663
699,0.210196,-1.268057,2.718768,0.062204999999999996,0.954523,-0.291566,1.612688,0.455596,1.083757,-0.15116300000000002,0.052374000000000004,0.267075
700,0.258075,-1.233607,2.753874,0.08443400000000001,0.943688,-0.319872,1.446178,0.8854860000000001,0.816056,-0.35431599999999996,-0.07686699999999999,0.28880500000000003
701,0.286235,-1.208286,2.763304,0.100123,0.93501,-0.34018699999999996,1.0475780000000001,0.957051,0.315389,-0.495616,0.190814,0.7428060000000001
702,0.300626,-1.1920819999999999,2.7606759999999997,0.109481,0.929141,-0.353138,0.546913,0.755875,0.176485,-0.391112,0.30103800000000003,0.646184
703,0.328667,-1.187423,2.773925,0.120735,0.927408,-0.354023,-0.023601,0.7921590000000001,0.388234,-0.238441,0.282248,0.326115
704,0.360379,-1.187622,2.7974360000000003,0.13183399999999998,0.9274819999999999,-0.349844,-0.288096,0.295768,0.344294,-0.513624,0.537392,0.673529
705,0.381342,-1.201651,2.814721,0.13428199999999998,0.932636,-0.334893,-1.0404120000000001,0.219506,-0.17788299999999999,-0.55016,0.620464,0.6176229999999999
706,0.39100300000000004,-1.2361879999999998,2.828473,0.125155,0.9445389999999999,-0.303606,-2.177579,-0.404428,-0.602701,-0.580508,0.666713,0.321993
707,0.375021,-1.29629,2.829942,0.099288,0.962559,-0.252222,-3.087181,-1.063991,-1.371988,-0.330092,0.7602949999999999,0.336008
708,0.336927,-1.372531,2.81147,0.06511,0.98041,-0.185879,-3.618664,-1.0486149999999999,-1.5594540000000001,-0.022935,0.762464,0.475079
709,0.25811799999999996,-1.446552,2.761486,0.031626,0.992292,-0.11979300000000001,-3.235748,-1.600365,-1.374475,0.48892700000000006,0.5965600000000001,-0.18948800000000002
710,0.107839,-1.510784,2.624545,0.006449,0.9982,-0.059569000000000004,-3.0276680000000002,0.135153,-1.068666,0.611242,0.603378,0.084959
711,-1.802184,-1.555237,0.690392,-0.014903,0.9998790000000001,0.003511,-3.237866,1.438123,-1.187172,0.462016,0.664535,0.46761899999999995
712,-2.627871,-1.494154,-0.156467,-0.0376,0.997064,0.066636,-3.0618060000000002,0.45665,-0.984927,0.338213,0.517508,-0.36435100000000004
713,-2.7187259999999998,-1.435612,-0.23442800000000003,-0.055294,0.990877,0.12287100000000001,-2.673972,-0.900574,-1.039231,0.30862,0.408721,-0.286491
714,-2.712399,-1.3762940000000001,-0.22766599999999998,-0.080421,0.981144,0.175728,-2.681483,0.43551599999999996,-1.357189,0.222847,0.237804,-0.10488099999999999
715,-2.682311,-1.318319,-0.193224,-0.110731,0.968297,0.2239,-2.343778,-0.805027,-1.7751880000000002,0.128004,0.017269,-0.423088
716,-2.679151,-1.257051,-0.151911,-0.13768,0.951184,0.27619299999999997,-2.61627,-2.200205,-1.8885349999999999,0.214112,-0.141065,-0.524088
717,-2.702018,-1.193416,-0.116876,-0.156805,0.929633,0.333443,-2.5532619999999997,-3.1654459999999998,-1.9178369999999998,0.219534,-0.210837,-0.612267
718,-2.740681,-1.136819,-0.087219,-0.16409200000000002,0.907301,0.387129,-2.172602,-3.26648,-1.490964,0.257521,-0.670179,-0.524092
719,-2.7875650000000003,-1.095819,-0.071478,-0.158538,0.8893030000000001,0.428946,-1.5302959999999999,-2.890848,-0.88021,0.277359,-0.9113370000000001,-0.47896400000000006
720,-2.8295630000000003,-1.071774,-0.060532,-0.146912,0.878051,0.45544799999999996,-0.755184,-2.4134740000000003,-0.51969,0.310273,-0.9482870000000001,-0.45351
721,-2.865586,-1.06354,-0.051211,-0.13238,0.87408,0.467384,-0.09991,-2.074985,-0.22178499999999998,0.395716,-0.7765770000000001,-0.460395
722,-2.8963200000000002,-1.066691,-0.044715,-0.11728599999999999,0.875607,0.46855699999999995,0.362034,-1.700059,-0.07696499999999999,0.330024,-0.7323270000000001,-0.497487
723,-2.9164630000000002,-1.081024,-0.034809,-0.105011,0.88244,0.458542,1.026329,-1.293372,-0.057891,0.257065,-0.7237939999999999,-0.45054700000000003
724,-2.919452,-1.1113959999999998,-0.017058,-0.097689,0.8963190000000001,0.43250299999999997,1.9190209999999999,-0.6742520000000001,-0.081291,0.14543299999999998,-0.6384449999999999,-0.097984
725,-2.894069,-1.158735,0.017286000000000003,-0.09812,0.9162969999999999,0.38828,2.7737950000000002,-0.034404000000000004,-0.193645,0.087043,-0.39224899999999996,0.45676700000000003
726,-2.8392009999999996,-1.213684,0.06262000000000001,-0.104099,0.93691,0.333694,2.60798,0.9987530000000001,-0.010256,0.14238299999999998,-0.33905599999999997,0.797913
727,-2.818422,-1.228826,0.075629,-0.106491,0.9420959999999999,0.317968,-0.431555,-0.279238,-0.12385399999999999,0.389496,1.229184,1.1413209999999998
728,-2.815941,-1.202863,0.09886,-0.115068,0.9330729999999999,0.34076799999999996,-1.228921,-1.1596899999999999,-1.162334,0.223406,1.796328,0.988318
729,-2.793351,-1.1738959999999998,0.15500999999999998,-0.131907,0.922264,0.36334299999999997,-0.77962,-1.658626,-1.4544540000000001,0.12748199999999998,0.7789689999999999,0.663802
730,-2.781965,-1.160671,0.20135999999999998,-0.140316,0.9170709999999999,0.373203,-0.07237400000000001,-1.304567,-0.8336030000000001,-0.015384,-0.70418,0.49783
731,-2.789517,-1.153889,0.209245,-0.13963499999999998,0.9143459999999999,0.380081,-0.48281199999999996,-0.221807,-0.055919,0.124956,0.194037,0.521011
732,-2.75025,-1.142458,0.227066,-0.158425,0.9096569999999999,0.383945,-0.000643,2.5842549999999997,-1.036775,0.089364,0.9002030000000001,0.076352
733,-2.601518,-1.155526,0.320954,-0.20744,0.915007,0.346005,1.81522,1.9341540000000002,-1.2080600000000001,0.213513,0.48468100000000003,-1.9959529999999999
734,-2.5620439999999998,-1.154277,0.372267,-0.221559,0.9145030000000001,0.33850399999999997,-0.252696,-0.847833,-0.610053,1.186296,0.023547,-0.34621
735,-2.618068,-1.1451209999999998,0.33514099999999997,-0.206434,0.91076,0.357615,-0.713526,-1.206043,0.922222,1.500883,-0.862909,0.279913
736,-2.602875,-1.1798819999999999,0.319905,-0.195476,0.9245610000000001,0.32705300000000004,3.229305,3.5787769999999997,1.0664770000000001,0.363002,-0.6635439999999999,0.078159
737,-2.4018639999999998,-1.266314,0.42792700000000006,-0.202079,0.954002,0.22143400000000002,4.500744,4.737587,1.348406,0.029470999999999997,0.426033,-1.42108
738,-2.287123,-1.324355,0.492593,-0.18398,0.9697870000000001,0.160171,1.7485580000000003,1.3242040000000002,1.3965809999999999,-0.17595999999999998,1.0394450000000002,-0.551437
739,-2.2201049999999998,-1.366865,0.554052,-0.16128900000000002,0.9792780000000001,0.12243599999999999,2.109465,0.11729300000000001,1.072704,-0.292218,0.670121,-0.174103
740,-2.052905,-1.40606,0.717699,-0.145275,0.9864620000000001,0.076022,2.40558,0.42426099999999994,0.774209,0.049053,-0.169506,-0.065829
741,-1.773573,-1.438325,0.9911270000000001,-0.129347,0.991239,0.026594,2.419778,0.360953,0.875871,0.13508399999999998,-0.290647,0.018206
742,-1.386228,-1.45563,1.377415,-0.112927,0.993376,-0.021083,2.380002,0.16984200000000002,0.7508560000000001,0.307476,-0.344206,0.13300599999999999
743,-0.9728709999999999,-1.4470379999999998,1.782888,-0.102002,0.992352,-0.06947300000000001,2.309837,0.883928,0.457826,0.341184,-0.315716,0.25006100000000003
744,-0.651705,-1.425429,2.077914,-0.08784600000000001,0.989453,-0.115148,2.085155,1.6201510000000001,0.623024,0.269823,-0.16080899999999998,0.23604299999999998
745,-0.419175,-1.396375,2.2770349999999997,-0.070624,0.984827,-0.158497,2.048229,1.9452080000000003,0.6180770000000001,0.185553,-0.008906,0.257069
746,-0.242119,-1.3656979999999999,2.410375,-0.048826999999999995,0.9790409999999999,-0.197709,1.6924990000000002,2.433879,0.73247,0.031325,-0.329993,0.056930999999999995
747,-0.107973,-1.338188,2.5037990000000003,-0.02484,0.973068,-0.22916199999999998,1.497822,1.8826029999999998,0.7670680000000001,0.056426,-0.340744,-0.038691
748,-0.003879,-1.309012,2.580715,-0.001004,0.96593,-0.258792,1.486888,1.271593,0.9280079999999999,0.061261,-0.24531799999999998,0.17088599999999998
749,0.079915,-1.279419,2.6500310000000002,0.022932,0.957849,-0.286346,1.471711,0.601204,1.023832,-0.094099,0.031393,0.318191
750,0.13711700000000002,-1.246297,2.698248,0.043579,0.9478110000000001,-0.315834,1.590394,0.692159,0.8194459999999999,-0.20008900000000002,0.06453400000000001,0.24098899999999998
751,0.17843499999999998,-1.216285,2.721673,0.061611,0.937816,-0.341614,1.273648,1.086671,0.47169300000000003,-0.442028,-0.133663,0.28215100000000004
752,0.203373,-1.19411,2.727109,0.074293,0.929889,-0.360255,0.948216,0.866025,0.25499,-0.278807,0.28834299999999996,0.6368659999999999
753,0.231021,-1.1824940000000002,2.739183,0.08669099999999999,0.9255530000000001,-0.368554,0.251888,0.8709870000000001,0.41676199999999997,-0.185324,0.346068,0.47351899999999997
754,0.269375,-1.17858,2.76557,0.10172300000000001,0.924064,-0.368448,0.04387,0.48786599999999997,0.502326,-0.27689400000000003,0.49144799999999994,0.269449
755,0.289093,-1.1785809999999999,2.7811,0.10896700000000001,0.9240649999999999,-0.366369,-0.278574,0.29874,0.12643800000000002,-0.460118,0.46900200000000003,0.68691
756,0.303214,-1.1949,2.7858810000000003,0.10961199999999999,0.9301790000000001,-0.350354,-1.081884,0.341681,-0.324676,-0.355553,0.8723569999999999,0.497296
757,0.299583,-1.232817,2.7847619999999997,0.097855,0.943427,-0.316806,-2.324105,-0.22514800000000001,-0.819736,-0.457916,0.48494899999999996,0.318713
758,0.259944,-1.29562,2.753911,0.069836,0.962377,-0.262579,-3.172879,-0.575206,-1.5195610000000002,-0.44688,0.563975,0.136373
759,0.194905,-1.372855,2.69509,0.038083,0.980474,-0.192915,-3.7015300000000004,-0.42966499999999996,-1.49353,0.324923,0.56721,0.48331999999999997
760,0.064939,-1.444769,2.581381,0.008154999999999999,0.9920690000000001,-0.125407,-3.231366,-1.0317969999999999,-1.30574,0.6398550000000001,0.504269,-0.36527
761,-0.22239,-1.504222,2.2966599999999997,-0.014662999999999999,0.997785,-0.064841,-3.025799,0.6344270000000001,-0.9849040000000001,0.6110220000000001,0.525683,0.06311699999999999
762,-1.48658,-1.536325,0.9944209999999999,-0.034247,0.9994059999999999,-0.002891,-3.197079,2.247421,-1.144128,0.432547,0.63127,0.569526
763,-2.319523,-1.4886190000000001,0.132329,-0.060101,0.996625,0.055847,-2.877295,0.335955,-1.330657,0.18093599999999999,0.632617,-0.196381
764,-2.495199,-1.428452,-0.027598,-0.08543099999999999,0.989886,0.113225,-2.8386099999999996,-0.7731979999999999,-1.3140100000000001,0.157193,0.643781,-0.421361
765,-2.553873,-1.369931,-0.090254,-0.110614,0.979894,0.166024,-2.531221,0.232303,-1.284309,0.07094199999999999,0.014353,-0.049157
766,-2.559967,-1.3151190000000001,-0.082263,-0.138931,0.967492,0.21130300000000002,-2.125225,-1.342575,-1.801816,0.116073,-0.032525,-0.44108500000000006
767,-2.57543,-1.257158,-0.056474,-0.165483,0.951217,0.26037,-2.359053,-2.378088,-1.8491240000000002,0.142809,-0.157135,-0.49035100000000004
768,-2.620984,-1.197163,-0.036318,-0.181549,0.9310069999999999,0.316634,-2.357796,-3.46915,-1.7953740000000002,0.13714500000000002,-0.141121,-0.649154
769,-2.672112,-1.144148,-0.020802,-0.187218,0.910358,0.369039,-2.076954,-3.2002990000000002,-1.3408309999999999,0.265373,-0.6656529999999999,-0.540044
770,-2.7293130000000003,-1.101798,-0.012852,-0.181109,0.892022,0.414112,-1.6665459999999999,-3.0873310000000003,-0.909753,0.318255,-0.813179,-0.558719
771,-2.7772799999999997,-1.073685,-0.004857,-0.169916,0.878964,0.44558100000000006,-0.9230790000000001,-2.577696,-0.597565,0.42518,-0.886517,-0.45110500000000003
772,-2.814606,-1.064317,0.004576,-0.155808,0.874458,0.459391,-0.0507,-2.09095,-0.267356,0.437363,-0.8631969999999999,-0.433008
773,-2.837891,-1.0711700000000002,0.016645,-0.143274,0.877762,0.457164,0.687678,-1.440073,-0.107072,0.396783,-0.8362120000000001,-0.38038099999999997
774,-2.846469,-1.092832,0.031722,-0.133784,0.887933,0.44007700000000005,1.423559,-0.900917,0.022359,0.341746,-0.807184,-0.379683
775,-2.840452,-1.129274,0.05368099999999999,-0.126743,0.9041020000000001,0.408078,2.133034,-0.60217,0.088889,0.12933699999999998,-0.5947,0.059284
776,-2.818292,-1.17521,0.088464,-0.122421,0.9227709999999999,0.365375,2.512223,-0.37508400000000003,-0.01878,0.017777,-0.400356,0.42872299999999997
777,-2.772466,-1.2205549999999998,0.128064,-0.123796,0.93929,0.320002,2.029544,1.096092,0.12551400000000001,-0.027755000000000002,-0.328511,0.832098
778,-2.772103,-1.218927,0.118546,-0.124464,0.93873,0.321383,-1.20987,-0.5602060000000001,-0.047746,0.342009,1.539526,1.365232
779,-2.771857,-1.191581,0.144723,-0.133772,0.928955,0.345165,-0.9998520000000001,-1.448294,-1.3814870000000001,0.343305,0.407364,0.5713229999999999
780,-2.750058,-1.166419,0.20514699999999997,-0.15013800000000002,0.9193479999999999,0.363661,-0.534674,-1.720343,-1.4174129999999998,0.19908800000000001,-0.327139,0.42917
781,-2.748335,-1.1583350000000001,0.23119099999999998,-0.153607,0.9161370000000001,0.370256,-0.092904,-0.624621,-0.092205,0.091428,-0.9707790000000001,0.28323200000000004
782,-2.762315,-1.1526459999999998,0.210326,-0.150344,0.913842,0.377203,-0.5020100000000001,0.796504,0.250289,0.42617700000000003,0.725425,0.389856
783,-2.6925790000000003,-1.160042,0.22888499999999998,-0.173323,0.9168200000000001,0.359712,1.173928,3.950493,-0.5955560000000001,0.24525300000000003,1.172353,-0.30685500000000004
784,-2.6014630000000003,-1.164081,0.28069,-0.203428,0.918425,0.33926999999999996,-0.114204,-0.025700999999999998,-0.930607,0.322737,1.664857,-1.277319
785,-2.59222,-1.154475,0.311109,-0.211152,0.914583,0.344884,0.065315,-0.24113,-0.493242,0.802629,-0.390016,-0.197682
786,-2.6211900000000004,-1.156849,0.292613,-0.199994,0.9155399999999999,0.34897100000000003,-0.152263,-1.005377,0.870337,1.219174,-1.471723,-0.085238
787,-2.565096,-1.197786,0.30485300000000004,-0.19863599999999998,0.931235,0.30551300000000003,3.593668,4.73491,0.674434,0.167691,-0.8221040000000001,0.258315
788,-2.332672,-1.2744209999999998,0.42596000000000006,-0.211306,0.9564010000000001,0.201592,3.733219,5.546855,1.300346,-0.029447000000000004,0.38057399999999997,-1.438439
789,-2.239625,-1.3261180000000001,0.46967299999999995,-0.19004000000000001,0.9702149999999999,0.150198,1.587129,0.7285159999999999,1.586359,-0.127968,1.1643370000000002,-0.440436
790,-2.1789810000000003,-1.367766,0.536543,-0.165466,0.97946,0.115201,2.080087,-0.295736,1.023889,-0.241211,0.62578,-0.165936
791,-2.000294,-1.4078629999999999,0.714404,-0.14745999999999998,0.986756,0.067539,2.517737,0.383783,0.9427540000000001,0.074126,-0.152054,-0.079196
792,-1.729768,-1.443409,0.9840959999999999,-0.125414,0.9918969999999999,0.020107,2.2388630000000003,-0.14049,1.223489,0.207735,-0.27432199999999995,-0.038738
793,-1.367839,-1.465907,1.360655,-0.10251600000000001,0.994504,-0.021097,2.103182,-0.617527,1.023395,0.375664,-0.315671,0.11051400000000002
794,-0.920824,-1.4631299999999998,1.802009,-0.085523,0.99421,-0.065011,2.24105,1.096978,0.785015,0.315778,-0.282997,0.367807
